[{"start_time":1551891359696,"click_time":1551891361532,"finger_time":1551891360871,"fix_duration":740.3153499875141,"trial":0,"RT":1175,"MT":661,"sideResp":1,"stimulus":[],"xmouse":[811,811,811,811,811,811,811,811,811,811,811,811,811,811,811,811,811,811,811,811,811,811,811,811,811,811,811,811,811,811,811,811,811,811,811,811,811,811,811,811,811,811,811,811,811,811,811,811,811,811,811,811,811,811,811,811,811,811,805,797,785,764,754,754,737,699,672,669,658,651,649,645,634,624,618,580,527,520,513,507,500,489,489,487,486,486,486,486,486,486,486,487],"ymouse":[585,585,585,585,585,585,585,585,585,585,585,585,585,585,585,585,585,585,585,585,585,585,585,585,585,585,585,585,585,585,585,585,585,585,585,585,585,585,585,585,585,585,585,585,585,585,585,585,585,585,585,585,585,585,585,585,581,579,571,560,544,511,491,491,466,417,385,380,362,346,343,337,316,302,295,260,206,198,188,175,162,140,138,132,128,126,126,126,126,126,125,95],"timestamp_mouse":[17,45,57,77,96,116,136,156,176,196,215,235,255,277,297,315,335,355,377,396,417,435,456,476,495,516,537,555,576,597,617,636,655,677,695,715,735,756,775,796,815,835,855,876,895,916,936,955,976,997,1016,1036,1055,1076,1096,1116,1136,1155,1175,1196,1215,1235,1256,1277,1295,1316,1335,1355,1375,1396,1416,1436,1457,1475,1496,1516,1536,1557,1576,1597,1615,1636,1656,1676,1695,1716,1737,1756,1776,1796,1815,1835],"xSR":741.5,"ySR":449.15000000000003,"xT1":424.9,"yT1":0,"xT2":1058.1,"yT2":0,"toosoon":0,"cond_shown":"Congruent","ratio_trial":300,"L_num":5,"L_den":25,"R_num":6,"R_den":12,"correct_side":2,"subjID":"isabellsophiaosmagarcia12","gender":"1","age":"10","school":"6","test":{"fix_dur":[250,1500],"timestim":1000,"targets_dim":[100,100],"targets_relative_coord":[0.3,0.7],"size_stim":[880,420],"start_dim":[100,100],"size_start":[300,300],"size_fix":60,"samplingrate":20,"img_types":["Congruent","Incongruent"],"ratios":[100,200,300],"rep_conds":19,"nTrials":120,"trials_to_rest":500,"Trials_order":[94,96,27,92,44,93,46,30,67,115,47,107,0,68,61,40,102,26,35,113,60,4,87,43,114,28,88,36,3,56,55,63,91,103,108,89,10,25,19,1,118,98,51,15,54,81,7,77,5,34,80,95,50,32,12,17,76,83,52,39,37,84,71,58,64,112,104,13,8,78,9,72,49,65,59,101,6,73,97,33,79,38,82,106,31,23,11,53,100,21,69,24,29,48,74,66,119,18,16,111,2,42,14,62,70,99,75,110,86,90,20,109,57,85,105,45,22,116,41,117],"cond_shown":["Congruent","Congruent","Incongruent","Congruent","Congruent","Incongruent","Congruent","Congruent","Incongruent","Incongruent","Incongruent","Incongruent","Congruent","Congruent","Incongruent","Congruent","Congruent","Congruent","Incongruent","Incongruent","Congruent","Congruent","Incongruent","Incongruent","Congruent","Congruent","Congruent","Congruent","Incongruent","Congruent","Incongruent","Incongruent","Incongruent","Incongruent","Congruent","Incongruent","Congruent","Incongruent","Incongruent","Incongruent","Congruent","Congruent","Incongruent","Incongruent","Congruent","Incongruent","Incongruent","Incongruent","Incongruent","Congruent","Congruent","Incongruent","Congruent","Congruent","Congruent","Incongruent","Congruent","Incongruent","Congruent","Incongruent","Incongruent","Congruent","Incongruent","Congruent","Congruent","Congruent","Congruent","Incongruent","Congruent","Congruent","Incongruent","Congruent","Incongruent","Incongruent","Incongruent","Incongruent","Congruent","Incongruent","Incongruent","Incongruent","Incongruent","Congruent","Congruent","Congruent","Incongruent","Incongruent","Incongruent","Incongruent","Congruent","Incongruent","Incongruent","Congruent","Incongruent","Congruent","Congruent","Congruent","Incongruent","Congruent","Congruent","Incongruent","Congruent","Congruent","Congruent","Congruent","Congruent","Incongruent","Incongruent","Congruent","Congruent","Congruent","Congruent","Incongruent","Incongruent","Incongruent","Incongruent","Incongruent","Congruent","Congruent","Incongruent","Incongruent"],"ratio_trial":[300,100,200,200,200,200,300,100,100,100,300,300,100,200,100,300,100,200,300,300,100,300,200,100,100,300,300,100,200,200,100,200,100,100,100,300,300,100,100,100,300,200,200,200,100,200,100,300,300,300,200,300,200,200,100,300,300,300,300,200,100,100,300,300,300,300,200,100,200,100,200,100,100,300,300,300,100,100,100,200,100,200,300,300,100,300,300,300,300,200,200,100,300,100,200,100,300,100,300,200,200,100,200,200,300,200,200,200,200,100,200,100,200,100,200,200,300,200,300,200],"left_num":[5,3,7,6,6,3,11,12,1,9,7,8,7,13,10,5,10,7,8,7,6,7,9,17,10,1,20,6,1,4,8,4,2,17,15,13,8,12,8,12,3,7,7,4,11,1,13,13,8,11,3,1,13,4,15,4,20,8,5,9,12,4,7,3,3,2,13,4,6,6,14,4,3,13,4,4,11,4,2,3,11,3,1,1,3,7,2,1,20,4,1,3,1,3,9,3,13,15,7,4,3,3,5,21,7,7,11,15,13,4,3,12,11,13,3,3,11,13,1,3],"right_num":[6,4,12,11,11,11,1,13,8,13,8,14,9,14,9,7,3,18,9,8,15,20,8,10,3,3,9,15,3,3,1,6,6,10,13,12,1,2,1,2,2,2,8,1,4,3,6,12,9,2,14,3,14,3,13,8,14,9,7,8,9,6,8,11,2,10,14,8,3,5,6,6,7,12,2,8,4,8,8,11,9,11,11,6,7,8,6,2,8,6,2,2,2,4,4,2,12,13,20,1,14,2,14,2,20,4,3,4,14,15,14,2,3,12,1,1,4,14,3,11],"left_den":[25,20,10,20,20,4,22,30,2,15,10,10,14,26,25,25,25,15,10,10,12,14,15,30,25,5,25,12,2,10,20,5,4,30,25,26,16,30,20,30,6,21,10,30,22,2,26,26,10,22,6,2,26,8,25,5,25,10,25,15,24,8,10,12,6,20,26,8,15,20,30,8,9,26,20,5,22,8,4,4,22,10,5,5,9,10,4,2,25,5,3,6,2,20,20,6,26,25,14,30,10,6,10,30,14,15,20,25,26,10,6,30,20,26,10,10,22,26,2,4],"right_den":[12,16,24,22,22,20,5,26,20,26,20,28,15,20,18,14,10,27,18,20,25,25,10,15,10,6,18,25,10,15,2,10,15,15,26,15,5,4,2,4,10,15,16,3,10,10,10,15,18,10,20,15,20,10,26,16,28,18,14,10,15,10,20,20,10,25,20,20,15,25,9,10,30,15,4,16,10,20,20,20,15,22,22,12,30,20,30,10,16,10,15,5,10,16,16,5,15,26,25,3,28,5,20,4,25,6,4,10,20,30,20,4,4,20,2,2,20,20,15,20],"correct_side":[2,2,1,2,2,1,1,2,1,1,1,1,2,2,2,2,1,2,1,1,2,2,2,2,1,2,1,2,1,1,2,1,1,2,1,2,1,2,2,2,1,1,1,2,1,1,2,2,1,1,2,1,2,1,1,1,1,1,2,2,2,2,1,2,1,2,2,1,1,1,2,2,1,2,2,1,1,1,1,1,2,2,2,2,1,1,1,1,1,1,1,1,1,2,1,1,2,1,2,2,2,1,2,1,2,2,2,1,2,2,2,2,2,2,2,2,1,2,1,1],"img_shown":["img2/300/Congruent/R/C_Dist_300_LN_5_LD_25_RN_6_RD_12_1.png","img2/100/Congruent/R/C_Dist_100_LN_3_LD_20_RN_4_RD_16_1.png","img2/200/Incongruent/L/I_Dist_200_LN_7_LD_10_RN_12_RD_24_0.png","img2/200/Congruent/R/C_Dist_200_LN_6_LD_20_RN_11_RD_22_1.png","img2/200/Congruent/R/C_Dist_200_LN_6_LD_20_RN_11_RD_22_1.png","img2/200/Incongruent/L/I_Dist_200_LN_3_LD_4_RN_11_RD_20_0.png","img2/300/Congruent/L/C_Dist_300_LN_11_LD_22_RN_1_RD_5_0.png","img2/100/Congruent/R/C_Dist_100_LN_12_LD_30_RN_13_RD_26_1.png","img2/100/Incongruent/L/I_Dist_100_LN_1_LD_2_RN_8_RD_20_0.png","img2/100/Incongruent/L/I_Dist_100_LN_9_LD_15_RN_13_RD_26_0.png","img2/300/Incongruent/L/I_Dist_300_LN_7_LD_10_RN_8_RD_20_0.png","img2/300/Incongruent/L/I_Dist_300_LN_8_LD_10_RN_14_RD_28_0.png","img2/100/Congruent/R/C_Dist_100_LN_7_LD_14_RN_9_RD_15_1.png","img2/200/Congruent/R/C_Dist_200_LN_13_LD_26_RN_14_RD_20_1.png","img2/100/Incongruent/R/I_Dist_100_LN_10_LD_25_RN_9_RD_18_1.png","img2/300/Congruent/R/C_Dist_300_LN_5_LD_25_RN_7_RD_14_1.png","img2/100/Congruent/L/C_Dist_100_LN_10_LD_25_RN_3_RD_10_0.png","img2/200/Congruent/R/C_Dist_200_LN_7_LD_15_RN_18_RD_27_1.png","img2/300/Incongruent/L/I_Dist_300_LN_8_LD_10_RN_9_RD_18_0.png","img2/300/Incongruent/L/I_Dist_300_LN_7_LD_10_RN_8_RD_20_0.png","img2/100/Congruent/R/C_Dist_100_LN_6_LD_12_RN_15_RD_25_1.png","img2/300/Congruent/R/C_Dist_300_LN_7_LD_14_RN_20_RD_25_1.png","img2/200/Incongruent/R/I_Dist_200_LN_9_LD_15_RN_8_RD_10_1.png","img2/100/Incongruent/R/I_Dist_100_LN_17_LD_30_RN_10_RD_15_1.png","img2/100/Congruent/L/C_Dist_100_LN_10_LD_25_RN_3_RD_10_0.png","img2/300/Congruent/R/C_Dist_300_LN_1_LD_5_RN_3_RD_6_1.png","img2/300/Congruent/L/C_Dist_300_LN_20_LD_25_RN_9_RD_18_0.png","img2/100/Congruent/R/C_Dist_100_LN_6_LD_12_RN_15_RD_25_1.png","img2/200/Incongruent/L/I_Dist_200_LN_1_LD_2_RN_3_RD_10_0.png","img2/200/Congruent/L/C_Dist_200_LN_4_LD_10_RN_3_RD_15_0.png","img2/100/Incongruent/R/I_Dist_100_LN_8_LD_20_RN_1_RD_2_1.png","img2/200/Incongruent/L/I_Dist_200_LN_4_LD_5_RN_6_RD_10_0.png","img2/100/Incongruent/L/I_Dist_100_LN_2_LD_4_RN_6_RD_15_0.png","img2/100/Incongruent/R/I_Dist_100_LN_17_LD_30_RN_10_RD_15_1.png","img2/100/Congruent/L/C_Dist_100_LN_15_LD_25_RN_13_RD_26_0.png","img2/300/Incongruent/R/I_Dist_300_LN_13_LD_26_RN_12_RD_15_1.png","img2/300/Congruent/L/C_Dist_300_LN_8_LD_16_RN_1_RD_5_0.png","img2/100/Incongruent/R/I_Dist_100_LN_12_LD_30_RN_2_RD_4_1.png","img2/100/Incongruent/R/I_Dist_100_LN_8_LD_20_RN_1_RD_2_1.png","img2/100/Incongruent/R/I_Dist_100_LN_12_LD_30_RN_2_RD_4_1.png","img2/300/Congruent/L/C_Dist_300_LN_3_LD_6_RN_2_RD_10_0.png","img2/200/Congruent/L/C_Dist_200_LN_7_LD_21_RN_2_RD_15_0.png","img2/200/Incongruent/L/I_Dist_200_LN_7_LD_10_RN_8_RD_16_0.png","img2/200/Incongruent/R/I_Dist_200_LN_4_LD_30_RN_1_RD_3_1.png","img2/100/Congruent/L/C_Dist_100_LN_11_LD_22_RN_4_RD_10_0.png","img2/200/Incongruent/L/I_Dist_200_LN_1_LD_2_RN_3_RD_10_0.png","img2/100/Incongruent/R/I_Dist_100_LN_13_LD_26_RN_6_RD_10_1.png","img2/300/Incongruent/R/I_Dist_300_LN_13_LD_26_RN_12_RD_15_1.png","img2/300/Incongruent/L/I_Dist_300_LN_8_LD_10_RN_9_RD_18_0.png","img2/300/Congruent/L/C_Dist_300_LN_11_LD_22_RN_2_RD_10_0.png","img2/200/Congruent/R/C_Dist_200_LN_3_LD_6_RN_14_RD_20_1.png","img2/300/Incongruent/L/I_Dist_300_LN_1_LD_2_RN_3_RD_15_0.png","img2/200/Congruent/R/C_Dist_200_LN_13_LD_26_RN_14_RD_20_1.png","img2/200/Congruent/L/C_Dist_200_LN_4_LD_8_RN_3_RD_10_0.png","img2/100/Congruent/L/C_Dist_100_LN_15_LD_25_RN_13_RD_26_0.png","img2/300/Incongruent/L/I_Dist_300_LN_4_LD_5_RN_8_RD_16_0.png","img2/300/Congruent/L/C_Dist_300_LN_20_LD_25_RN_14_RD_28_0.png","img2/300/Incongruent/L/I_Dist_300_LN_8_LD_10_RN_9_RD_18_0.png","img2/300/Congruent/R/C_Dist_300_LN_5_LD_25_RN_7_RD_14_1.png","img2/200/Incongruent/R/I_Dist_200_LN_9_LD_15_RN_8_RD_10_1.png","img2/100/Incongruent/R/I_Dist_100_LN_12_LD_24_RN_9_RD_15_1.png","img2/100/Congruent/R/C_Dist_100_LN_4_LD_8_RN_6_RD_10_1.png","img2/300/Incongruent/L/I_Dist_300_LN_7_LD_10_RN_8_RD_20_0.png","img2/300/Congruent/R/C_Dist_300_LN_3_LD_12_RN_11_RD_20_1.png","img2/300/Congruent/L/C_Dist_300_LN_3_LD_6_RN_2_RD_10_0.png","img2/300/Congruent/R/C_Dist_300_LN_2_LD_20_RN_10_RD_25_1.png","img2/200/Congruent/R/C_Dist_200_LN_13_LD_26_RN_14_RD_20_1.png","img2/100/Incongruent/L/I_Dist_100_LN_4_LD_8_RN_8_RD_20_0.png","img2/200/Congruent/L/C_Dist_200_LN_6_LD_15_RN_3_RD_15_0.png","img2/100/Congruent/L/C_Dist_100_LN_6_LD_20_RN_5_RD_25_0.png","img2/200/Incongruent/R/I_Dist_200_LN_14_LD_30_RN_6_RD_9_1.png","img2/100/Congruent/R/C_Dist_100_LN_4_LD_8_RN_6_RD_10_1.png","img2/100/Incongruent/L/I_Dist_100_LN_3_LD_9_RN_7_RD_30_0.png","img2/300/Incongruent/R/I_Dist_300_LN_13_LD_26_RN_12_RD_15_1.png","img2/300/Incongruent/R/I_Dist_300_LN_4_LD_20_RN_2_RD_4_1.png","img2/300/Incongruent/L/I_Dist_300_LN_4_LD_5_RN_8_RD_16_0.png","img2/100/Congruent/L/C_Dist_100_LN_11_LD_22_RN_4_RD_10_0.png","img2/100/Incongruent/L/I_Dist_100_LN_4_LD_8_RN_8_RD_20_0.png","img2/100/Incongruent/L/I_Dist_100_LN_2_LD_4_RN_8_RD_20_0.png","img2/200/Incongruent/L/I_Dist_200_LN_3_LD_4_RN_11_RD_20_0.png","img2/100/Incongruent/R/I_Dist_100_LN_11_LD_22_RN_9_RD_15_1.png","img2/200/Congruent/R/C_Dist_200_LN_3_LD_10_RN_11_RD_22_1.png","img2/300/Congruent/R/C_Dist_300_LN_1_LD_5_RN_11_RD_22_1.png","img2/300/Congruent/R/C_Dist_300_LN_1_LD_5_RN_6_RD_12_1.png","img2/100/Incongruent/L/I_Dist_100_LN_3_LD_9_RN_7_RD_30_0.png","img2/300/Incongruent/L/I_Dist_300_LN_7_LD_10_RN_8_RD_20_0.png","img2/300/Incongruent/L/I_Dist_300_LN_2_LD_4_RN_6_RD_30_0.png","img2/300/Incongruent/L/I_Dist_300_LN_1_LD_2_RN_2_RD_10_0.png","img2/300/Congruent/L/C_Dist_300_LN_20_LD_25_RN_8_RD_16_0.png","img2/200/Incongruent/L/I_Dist_200_LN_4_LD_5_RN_6_RD_10_0.png","img2/200/Incongruent/L/I_Dist_200_LN_1_LD_3_RN_2_RD_15_0.png","img2/100/Congruent/L/C_Dist_100_LN_3_LD_6_RN_2_RD_5_0.png","img2/300/Incongruent/L/I_Dist_300_LN_1_LD_2_RN_2_RD_10_0.png","img2/100/Congruent/R/C_Dist_100_LN_3_LD_20_RN_4_RD_16_1.png","img2/200/Congruent/L/C_Dist_200_LN_9_LD_20_RN_4_RD_16_0.png","img2/100/Congruent/L/C_Dist_100_LN_3_LD_6_RN_2_RD_5_0.png","img2/300/Incongruent/R/I_Dist_300_LN_13_LD_26_RN_12_RD_15_1.png","img2/100/Congruent/L/C_Dist_100_LN_15_LD_25_RN_13_RD_26_0.png","img2/300/Congruent/R/C_Dist_300_LN_7_LD_14_RN_20_RD_25_1.png","img2/200/Incongruent/R/I_Dist_200_LN_4_LD_30_RN_1_RD_3_1.png","img2/200/Congruent/R/C_Dist_200_LN_3_LD_10_RN_14_RD_28_1.png","img2/100/Congruent/L/C_Dist_100_LN_3_LD_6_RN_2_RD_5_0.png","img2/200/Congruent/R/C_Dist_200_LN_5_LD_10_RN_14_RD_20_1.png","img2/200/Congruent/L/C_Dist_200_LN_21_LD_30_RN_2_RD_4_0.png","img2/300/Congruent/R/C_Dist_300_LN_7_LD_14_RN_20_RD_25_1.png","img2/200/Incongruent/R/I_Dist_200_LN_7_LD_15_RN_4_RD_6_1.png","img2/200/Incongruent/R/I_Dist_200_LN_11_LD_20_RN_3_RD_4_1.png","img2/200/Congruent/L/C_Dist_200_LN_15_LD_25_RN_4_RD_10_0.png","img2/200/Congruent/R/C_Dist_200_LN_13_LD_26_RN_14_RD_20_1.png","img2/100/Congruent/R/C_Dist_100_LN_4_LD_10_RN_15_RD_30_1.png","img2/200/Congruent/R/C_Dist_200_LN_3_LD_6_RN_14_RD_20_1.png","img2/100/Incongruent/R/I_Dist_100_LN_12_LD_30_RN_2_RD_4_1.png","img2/200/Incongruent/R/I_Dist_200_LN_11_LD_20_RN_3_RD_4_1.png","img2/100/Incongruent/R/I_Dist_100_LN_13_LD_26_RN_12_RD_20_1.png","img2/200/Incongruent/R/I_Dist_200_LN_3_LD_10_RN_1_RD_2_1.png","img2/200/Incongruent/R/I_Dist_200_LN_3_LD_10_RN_1_RD_2_1.png","img2/300/Congruent/L/C_Dist_300_LN_11_LD_22_RN_4_RD_20_0.png","img2/200/Congruent/R/C_Dist_200_LN_13_LD_26_RN_14_RD_20_1.png","img2/300/Incongruent/L/I_Dist_300_LN_1_LD_2_RN_3_RD_15_0.png","img2/200/Incongruent/L/I_Dist_200_LN_3_LD_4_RN_11_RD_20_0.png"],"dist100_C":[["C_Dist_100_LN_10_LD_25_RN_3_RD_10_0.png","C_Dist_100_LN_11_LD_22_RN_4_RD_10_0.png","C_Dist_100_LN_11_LD_22_RN_6_RD_15_0.png","C_Dist_100_LN_15_LD_25_RN_13_RD_26_0.png","C_Dist_100_LN_3_LD_6_RN_2_RD_5_0.png","C_Dist_100_LN_6_LD_20_RN_5_RD_25_0.png","C_Dist_100_LN_8_LD_16_RN_2_RD_5_0.png","C_Dist_100_LN_9_LD_15_RN_8_RD_16_0.png"],["C_Dist_100_LN_1_LD_2_RN_18_RD_30_1.png","C_Dist_100_LN_1_LD_2_RN_3_RD_5_1.png","C_Dist_100_LN_12_LD_30_RN_13_RD_26_1.png","C_Dist_100_LN_2_LD_5_RN_11_RD_22_1.png","C_Dist_100_LN_2_LD_5_RN_6_RD_12_1.png","C_Dist_100_LN_3_LD_20_RN_4_RD_16_1.png","C_Dist_100_LN_4_LD_10_RN_15_RD_30_1.png","C_Dist_100_LN_4_LD_8_RN_6_RD_10_1.png","C_Dist_100_LN_6_LD_12_RN_15_RD_25_1.png","C_Dist_100_LN_7_LD_14_RN_15_RD_25_1.png","C_Dist_100_LN_7_LD_14_RN_9_RD_15_1.png"]],"dist100_I":[["I_Dist_100_LN_1_LD_2_RN_8_RD_20_0.png","I_Dist_100_LN_2_LD_4_RN_6_RD_15_0.png","I_Dist_100_LN_2_LD_4_RN_8_RD_20_0.png","I_Dist_100_LN_3_LD_5_RN_11_RD_22_0.png","I_Dist_100_LN_3_LD_5_RN_8_RD_16_0.png","I_Dist_100_LN_3_LD_6_RN_4_RD_10_0.png","I_Dist_100_LN_3_LD_9_RN_7_RD_30_0.png","I_Dist_100_LN_4_LD_8_RN_8_RD_20_0.png","I_Dist_100_LN_6_LD_10_RN_11_RD_22_0.png","I_Dist_100_LN_6_LD_10_RN_13_RD_26_0.png","I_Dist_100_LN_6_LD_10_RN_7_RD_14_0.png","I_Dist_100_LN_9_LD_10_RN_20_RD_25_0.png","I_Dist_100_LN_9_LD_15_RN_13_RD_26_0.png","I_Dist_100_LN_9_LD_15_RN_14_RD_28_0.png"],["I_Dist_100_LN_10_LD_25_RN_8_RD_16_1.png","I_Dist_100_LN_10_LD_25_RN_9_RD_18_1.png","I_Dist_100_LN_11_LD_22_RN_9_RD_15_1.png","I_Dist_100_LN_12_LD_24_RN_9_RD_15_1.png","I_Dist_100_LN_12_LD_30_RN_2_RD_4_1.png","I_Dist_100_LN_13_LD_26_RN_12_RD_20_1.png","I_Dist_100_LN_13_LD_26_RN_6_RD_10_1.png","I_Dist_100_LN_17_LD_30_RN_10_RD_15_1.png","I_Dist_100_LN_6_LD_12_RN_3_RD_5_1.png","I_Dist_100_LN_8_LD_16_RN_6_RD_10_1.png","I_Dist_100_LN_8_LD_20_RN_1_RD_2_1.png","I_Dist_100_LN_9_LD_18_RN_6_RD_10_1.png"]],"dist100_S":[["E_Dist_100_LN_2_LD_12_RN_2_RD_30_0.png","E_Dist_100_LN_6_LD_10_RN_6_RD_12_0.png"],["E_Dist_100_LN_6_LD_12_RN_6_RD_10_1.png"]],"dist200_C":[["C_Dist_200_LN_11_LD_22_RN_3_RD_10_0.png","C_Dist_200_LN_12_LD_15_RN_6_RD_10_0.png","C_Dist_200_LN_12_LD_20_RN_6_RD_15_0.png","C_Dist_200_LN_14_LD_28_RN_6_RD_20_0.png","C_Dist_200_LN_15_LD_25_RN_4_RD_10_0.png","C_Dist_200_LN_16_LD_20_RN_12_RD_20_0.png","C_Dist_200_LN_16_LD_30_RN_9_RD_27_0.png","C_Dist_200_LN_20_LD_25_RN_9_RD_15_0.png","C_Dist_200_LN_21_LD_30_RN_2_RD_4_0.png","C_Dist_200_LN_4_LD_10_RN_3_RD_15_0.png","C_Dist_200_LN_4_LD_8_RN_3_RD_10_0.png","C_Dist_200_LN_6_LD_15_RN_3_RD_15_0.png","C_Dist_200_LN_7_LD_21_RN_2_RD_15_0.png","C_Dist_200_LN_8_LD_15_RN_2_RD_6_0.png","C_Dist_200_LN_8_LD_15_RN_3_RD_9_0.png","C_Dist_200_LN_8_LD_15_RN_7_RD_21_0.png","C_Dist_200_LN_9_LD_20_RN_4_RD_16_0.png"],["C_Dist_200_LN_1_LD_2_RN_21_RD_30_1.png","C_Dist_200_LN_13_LD_26_RN_14_RD_20_1.png","C_Dist_200_LN_3_LD_10_RN_11_RD_22_1.png","C_Dist_200_LN_3_LD_10_RN_14_RD_28_1.png","C_Dist_200_LN_3_LD_10_RN_7_RD_14_1.png","C_Dist_200_LN_3_LD_12_RN_9_RD_20_1.png","C_Dist_200_LN_3_LD_6_RN_14_RD_20_1.png","C_Dist_200_LN_5_LD_10_RN_14_RD_20_1.png","C_Dist_200_LN_6_LD_12_RN_7_RD_10_1.png","C_Dist_200_LN_6_LD_20_RN_11_RD_22_1.png","C_Dist_200_LN_7_LD_15_RN_18_RD_27_1.png","C_Dist_200_LN_9_LD_30_RN_13_RD_26_1.png"]],"dist200_I":[["I_Dist_200_LN_1_LD_2_RN_3_RD_10_0.png","I_Dist_200_LN_1_LD_3_RN_2_RD_15_0.png","I_Dist_200_LN_3_LD_4_RN_11_RD_20_0.png","I_Dist_200_LN_4_LD_5_RN_6_RD_10_0.png","I_Dist_200_LN_4_LD_6_RN_14_RD_30_0.png","I_Dist_200_LN_7_LD_10_RN_12_RD_24_0.png","I_Dist_200_LN_7_LD_10_RN_14_RD_28_0.png","I_Dist_200_LN_7_LD_10_RN_8_RD_16_0.png"],["I_Dist_200_LN_11_LD_20_RN_3_RD_4_1.png","I_Dist_200_LN_14_LD_30_RN_12_RD_18_1.png","I_Dist_200_LN_14_LD_30_RN_6_RD_9_1.png","I_Dist_200_LN_3_LD_10_RN_1_RD_2_1.png","I_Dist_200_LN_4_LD_30_RN_1_RD_3_1.png","I_Dist_200_LN_6_LD_20_RN_3_RD_6_1.png","I_Dist_200_LN_7_LD_15_RN_4_RD_6_1.png","I_Dist_200_LN_7_LD_15_RN_6_RD_9_1.png","I_Dist_200_LN_9_LD_15_RN_8_RD_10_1.png"]],"dist200_S":[["E_Dist_200_LN_3_LD_6_RN_3_RD_10_0.png"],["E_Dist_200_LN_3_LD_10_RN_3_RD_6_1.png"]],"dist300_C":[["C_Dist_300_LN_11_LD_22_RN_1_RD_5_0.png","C_Dist_300_LN_11_LD_22_RN_2_RD_10_0.png","C_Dist_300_LN_11_LD_22_RN_4_RD_20_0.png","C_Dist_300_LN_12_LD_24_RN_2_RD_10_0.png","C_Dist_300_LN_18_LD_20_RN_9_RD_15_0.png","C_Dist_300_LN_20_LD_25_RN_13_RD_26_0.png","C_Dist_300_LN_20_LD_25_RN_14_RD_28_0.png","C_Dist_300_LN_20_LD_25_RN_5_RD_10_0.png","C_Dist_300_LN_20_LD_25_RN_8_RD_16_0.png","C_Dist_300_LN_20_LD_25_RN_9_RD_18_0.png","C_Dist_300_LN_24_LD_30_RN_2_RD_4_0.png","C_Dist_300_LN_24_LD_30_RN_8_RD_16_0.png","C_Dist_300_LN_3_LD_6_RN_2_RD_10_0.png","C_Dist_300_LN_4_LD_10_RN_1_RD_10_0.png","C_Dist_300_LN_4_LD_5_RN_2_RD_4_0.png","C_Dist_300_LN_8_LD_16_RN_1_RD_5_0.png","C_Dist_300_LN_9_LD_10_RN_3_RD_5_0.png"],["C_Dist_300_LN_1_LD_20_RN_7_RD_20_1.png","C_Dist_300_LN_1_LD_3_RN_19_RD_30_1.png","C_Dist_300_LN_1_LD_30_RN_8_RD_24_1.png","C_Dist_300_LN_1_LD_5_RN_11_RD_22_1.png","C_Dist_300_LN_1_LD_5_RN_3_RD_6_1.png","C_Dist_300_LN_1_LD_5_RN_6_RD_12_1.png","C_Dist_300_LN_2_LD_10_RN_12_RD_24_1.png","C_Dist_300_LN_2_LD_20_RN_10_RD_25_1.png","C_Dist_300_LN_3_LD_12_RN_11_RD_20_1.png","C_Dist_300_LN_3_LD_6_RN_4_RD_5_1.png","C_Dist_300_LN_4_LD_20_RN_13_RD_26_1.png","C_Dist_300_LN_5_LD_25_RN_6_RD_12_1.png","C_Dist_300_LN_5_LD_25_RN_7_RD_14_1.png","C_Dist_300_LN_7_LD_14_RN_20_RD_25_1.png","C_Dist_300_LN_8_LD_15_RN_10_RD_12_1.png"]],"dist300_I":[["I_Dist_300_LN_1_LD_2_RN_2_RD_10_0.png","I_Dist_300_LN_1_LD_2_RN_3_RD_15_0.png","I_Dist_300_LN_2_LD_4_RN_6_RD_30_0.png","I_Dist_300_LN_3_LD_6_RN_4_RD_20_0.png","I_Dist_300_LN_4_LD_5_RN_6_RD_12_0.png","I_Dist_300_LN_4_LD_5_RN_8_RD_16_0.png","I_Dist_300_LN_7_LD_10_RN_8_RD_20_0.png","I_Dist_300_LN_8_LD_10_RN_14_RD_28_0.png","I_Dist_300_LN_8_LD_10_RN_9_RD_18_0.png"],["I_Dist_300_LN_13_LD_26_RN_12_RD_15_1.png","I_Dist_300_LN_4_LD_20_RN_2_RD_4_1.png"]],"dist300_S":[["E_Dist_300_LN_9_LD_12_RN_9_RD_20_0.png"],["E_Dist_300_LN_18_LD_30_RN_18_RD_20_1.png","E_Dist_300_LN_3_LD_10_RN_3_RD_5_1.png","E_Dist_300_LN_9_LD_20_RN_9_RD_12_1.png"]],"dist500_C":[["C_Dist_500_LN_10_LD_13_RN_7_RD_26_0.png","C_Dist_500_LN_10_LD_15_RN_4_RD_24_0.png","C_Dist_500_LN_12_LD_16_RN_3_RD_12_0.png","C_Dist_500_LN_12_LD_18_RN_4_RD_24_0.png","C_Dist_500_LN_15_LD_18_RN_5_RD_15_0.png","C_Dist_500_LN_15_LD_20_RN_1_RD_4_0.png","C_Dist_500_LN_18_LD_27_RN_1_RD_6_0.png","C_Dist_500_LN_20_LD_24_RN_1_RD_3_0.png","C_Dist_500_LN_20_LD_24_RN_3_RD_9_0.png","C_Dist_500_LN_20_LD_24_RN_7_RD_21_0.png","C_Dist_500_LN_20_LD_28_RN_3_RD_14_0.png","C_Dist_500_LN_21_LD_28_RN_6_RD_24_0.png","C_Dist_500_LN_22_LD_28_RN_2_RD_7_0.png","C_Dist_500_LN_25_LD_30_RN_9_RD_27_0.png","C_Dist_500_LN_4_LD_6_RN_1_RD_6_0.png","C_Dist_500_LN_5_LD_6_RN_2_RD_6_0.png","C_Dist_500_LN_6_LD_9_RN_1_RD_6_0.png","C_Dist_500_LN_7_LD_10_RN_1_RD_5_0.png","C_Dist_500_LN_8_LD_12_RN_1_RD_6_0.png","C_Dist_500_LN_8_LD_12_RN_4_RD_24_0.png"],["C_Dist_500_LN_1_LD_4_RN_12_RD_16_1.png","C_Dist_500_LN_1_LD_4_RN_9_RD_12_1.png","C_Dist_500_LN_1_LD_9_RN_11_RD_18_1.png","C_Dist_500_LN_10_LD_24_RN_22_RD_24_1.png","C_Dist_500_LN_2_LD_12_RN_10_RD_15_1.png","C_Dist_500_LN_2_LD_12_RN_12_RD_18_1.png","C_Dist_500_LN_2_LD_12_RN_4_RD_6_1.png","C_Dist_500_LN_2_LD_24_RN_7_RD_12_1.png","C_Dist_500_LN_2_LD_5_RN_18_RD_20_1.png","C_Dist_500_LN_2_LD_5_RN_9_RD_10_1.png","C_Dist_500_LN_2_LD_8_RN_12_RD_16_1.png","C_Dist_500_LN_2_LD_8_RN_21_RD_28_1.png","C_Dist_500_LN_3_LD_10_RN_4_RD_5_1.png","C_Dist_500_LN_3_LD_12_RN_15_RD_20_1.png","C_Dist_500_LN_3_LD_30_RN_6_RD_10_1.png","C_Dist_500_LN_3_LD_8_RN_14_RD_16_1.png","C_Dist_500_LN_4_LD_16_RN_15_RD_20_1.png","C_Dist_500_LN_4_LD_24_RN_12_RD_18_1.png","C_Dist_500_LN_5_LD_14_RN_6_RD_7_1.png","C_Dist_500_LN_7_LD_21_RN_20_RD_24_1.png","C_Dist_500_LN_7_LD_28_RN_12_RD_16_1.png","C_Dist_500_LN_7_LD_28_RN_9_RD_12_1.png","C_Dist_500_LN_9_LD_27_RN_20_RD_24_1.png"]],"dist500_I":[["I_Dist_500_LN_2_LD_3_RN_4_RD_24_0.png","I_Dist_500_LN_5_LD_6_RN_6_RD_18_0.png","I_Dist_500_LN_7_LD_8_RN_9_RD_24_0.png"],["I_Dist_500_LN_7_LD_21_RN_5_RD_6_1.png"]],"dist500_S":[["E_Dist_500_LN_6_LD_8_RN_6_RD_24_0.png"],["E_Dist_500_LN_2_LD_12_RN_2_RD_3_1.png","E_Dist_500_LN_6_LD_24_RN_6_RD_8_1.png"]]}},{"start_time":1551891367205,"click_time":1551891369453,"finger_time":1551891368532,"fix_duration":691.1303795880726,"trial":1,"RT":1327,"MT":921,"sideResp":1,"stimulus":[],"xmouse":[805,805,805,805,805,805,805,805,805,805,805,805,805,805,805,805,805,805,805,805,805,805,805,805,805,805,805,805,805,805,805,805,805,805,805,805,805,805,805,805,805,805,805,805,805,805,805,805,805,805,805,805,805,805,805,805,805,805,805,805,805,805,805,800,787,776,751,746,743,741,740,733,727,717,704,690,664,649,648,647,636,630,627,627,627,624,621,619,616,609,603,594,565,554,554,554,549,548,543,540,538,536,535,533,533,533,533,531,529,527,525,525,522],"ymouse":[617,617,617,617,617,617,617,617,617,617,617,617,617,617,617,617,617,617,617,617,617,617,617,617,617,617,617,617,617,617,617,617,617,617,617,617,617,617,617,617,617,617,617,617,617,617,617,617,617,617,617,617,617,617,617,617,617,617,617,617,617,617,617,610,595,584,556,551,546,543,542,528,516,499,478,452,404,369,365,361,323,285,266,259,254,244,223,213,204,194,185,174,153,148,148,148,144,142,138,134,132,123,117,113,112,112,112,110,108,105,101,101,99],"timestamp_mouse":[11,40,47,66,86,107,127,147,166,186,207,226,247,267,286,307,327,347,366,387,407,427,446,466,487,507,526,547,568,586,607,626,648,667,687,708,728,747,767,786,807,827,848,867,886,907,926,948,967,987,1008,1027,1047,1068,1087,1107,1127,1146,1167,1186,1207,1227,1247,1267,1287,1307,1327,1346,1367,1387,1408,1426,1446,1467,1487,1507,1527,1547,1567,1586,1607,1627,1646,1667,1687,1707,1726,1747,1767,1786,1807,1826,1847,1867,1888,1907,1926,1946,1966,1987,2008,2027,2048,2067,2087,2106,2126,2148,2167,2187,2207,2227,2247],"xSR":741.5,"ySR":573.95,"xT1":424.9,"yT1":0,"xT2":1058.1,"yT2":0,"toosoon":0,"cond_shown":"Congruent","ratio_trial":100,"L_num":3,"L_den":20,"R_num":4,"R_den":16,"correct_side":2,"subjID":"isabellsophiaosmagarcia12","gender":"1","school":"6","age":"10"},{"start_time":1551891374465,"click_time":1551891376552,"finger_time":1551891375953,"fix_duration":990.9461666440045,"trial":2,"RT":1488,"MT":599,"sideResp":2,"stimulus":[],"xmouse":[819,819,819,819,819,819,819,819,819,819,819,819,819,819,819,819,819,819,819,819,819,819,819,819,819,819,819,819,819,819,819,819,819,819,819,819,819,819,819,819,819,819,819,819,819,819,819,819,819,819,819,819,819,819,819,819,819,819,819,819,818,818,818,818,818,818,818,818,818,818,818,818,819,840,870,915,959,995,1047,1083,1094,1097,1102,1110,1115,1115,1115,1115,1113,1113,1113,1113,1113,1113,1112,1110,1109,1109,1108,1107,1107,1107,1107,1107,1107],"ymouse":[638,638,638,638,638,638,638,638,638,638,638,638,638,638,638,638,638,638,638,638,638,638,638,638,638,638,638,638,638,638,638,638,638,638,638,638,638,638,638,638,638,638,638,638,638,638,638,638,638,638,638,638,638,638,638,638,638,638,638,638,638,638,638,638,638,638,638,638,638,638,638,638,634,613,580,536,484,437,365,301,279,267,251,215,199,198,193,184,171,170,168,162,157,155,148,138,131,131,124,122,122,122,118,105,98],"timestamp_mouse":[10,33,48,66,88,107,127,147,166,188,207,227,248,266,288,306,327,347,366,388,408,426,447,467,487,508,526,548,567,586,607,627,646,666,688,707,726,747,767,787,808,828,848,868,887,908,927,947,968,988,1006,1026,1047,1066,1087,1107,1127,1148,1168,1188,1206,1226,1247,1267,1287,1307,1326,1348,1367,1387,1408,1426,1447,1467,1488,1506,1528,1546,1567,1587,1607,1628,1647,1666,1688,1707,1727,1747,1766,1788,1807,1826,1846,1867,1887,1907,1928,1947,1966,1987,2006,2027,2047,2066,2087],"xSR":741.5,"ySR":573.95,"xT1":424.9,"yT1":0,"xT2":1058.1,"yT2":0,"toosoon":0,"cond_shown":"Incongruent","ratio_trial":200,"L_num":7,"L_den":10,"R_num":12,"R_den":24,"correct_side":1,"subjID":"isabellsophiaosmagarcia12","gender":"1","school":"6","age":"10"},{"start_time":1551891380284,"click_time":1551891382632,"finger_time":1551891381513,"fix_duration":250,"trial":3,"RT":1229,"MT":1119,"sideResp":1,"stimulus":[],"xmouse":[811,811,811,811,811,811,811,811,811,811,811,811,811,811,811,811,811,811,811,811,811,811,811,811,811,811,811,811,811,811,811,811,811,811,811,811,811,811,811,811,811,811,811,811,811,811,811,811,811,811,811,811,811,811,811,811,811,811,812,813,824,834,842,844,846,848,851,876,890,901,903,905,906,906,905,902,900,897,897,897,897,897,897,897,897,897,897,897,897,897,897,897,895,887,876,875,861,831,807,797,780,770,750,740,715,698,688,683,683,682,674,671,632,606,586,573,540,441],"ymouse":[595,595,595,595,595,595,595,595,595,595,595,595,595,595,595,595,595,595,595,595,595,595,595,595,595,595,595,595,595,595,595,595,595,595,595,595,595,595,595,595,595,595,595,595,595,595,595,595,595,595,595,595,595,595,595,595,595,588,588,586,575,564,553,551,548,545,541,509,492,481,478,474,472,472,472,473,474,475,475,475,475,475,475,475,475,475,475,475,475,475,475,475,476,477,478,478,473,448,413,397,381,372,355,345,315,288,268,232,217,212,195,190,150,129,114,107,97,56],"timestamp_mouse":[11,33,48,69,87,109,129,149,167,189,208,227,248,269,287,309,328,349,368,389,408,428,448,468,487,508,529,548,567,587,609,628,647,667,688,708,729,747,767,787,809,828,849,869,888,907,929,947,967,989,1008,1028,1048,1067,1087,1108,1127,1148,1167,1188,1208,1229,1247,1267,1288,1307,1327,1348,1367,1388,1409,1428,1447,1467,1487,1509,1529,1548,1568,1587,1608,1628,1648,1669,1688,1707,1727,1748,1767,1787,1809,1829,1847,1869,1889,1908,1929,1947,1968,1988,2009,2027,2048,2067,2087,2107,2129,2147,2169,2189,2209,2228,2247,2268,2288,2307,2327,2347],"xSR":741.5,"ySR":573.95,"xT1":424.9,"yT1":0,"xT2":1058.1,"yT2":0,"toosoon":0,"cond_shown":"Congruent","ratio_trial":200,"L_num":6,"L_den":20,"R_num":11,"R_den":22,"correct_side":2,"subjID":"isabellsophiaosmagarcia12","gender":"1","school":"6","age":"10"},{"start_time":1551891386700,"click_time":1551891389032,"finger_time":1551891388553,"fix_duration":1387.1595246282523,"trial":4,"RT":1853,"MT":479,"sideResp":1,"stimulus":[],"xmouse":[825,825,825,825,825,825,825,825,825,825,825,825,825,825,825,825,825,825,825,825,825,825,825,825,825,825,825,825,825,825,825,825,825,825,825,825,825,825,825,825,825,825,825,825,825,825,825,825,825,825,825,825,825,825,825,825,825,825,825,825,825,825,825,825,825,825,825,825,825,825,825,825,825,825,825,825,825,825,825,825,825,825,825,825,825,825,825,825,825,825,821,801,779,753,719,690,644,639,623,609,595,585,585,585,585,585,585,585,585,585,585,578,572,564,554,541,511],"ymouse":[631,631,631,631,631,631,631,631,631,631,631,631,631,631,631,631,631,631,631,631,631,631,631,631,631,631,631,631,631,631,631,631,631,631,631,631,631,631,631,631,631,631,631,631,631,631,631,631,631,631,631,631,631,631,631,631,631,631,631,631,631,631,631,631,631,631,631,631,631,631,631,631,631,631,631,631,631,631,631,631,631,631,631,631,631,631,631,631,631,630,621,598,570,534,483,430,350,343,322,306,290,269,245,239,229,227,216,191,172,152,137,114,103,92,75,60,33],"timestamp_mouse":[13,32,51,73,91,113,133,152,171,191,212,232,252,273,293,311,332,351,372,393,412,432,452,473,492,512,531,552,573,592,612,632,652,671,691,711,731,751,772,792,812,833,853,871,891,912,931,951,971,991,1013,1032,1052,1071,1093,1112,1131,1153,1172,1191,1211,1231,1252,1272,1291,1312,1331,1351,1373,1392,1411,1432,1451,1472,1492,1511,1533,1552,1572,1592,1613,1632,1651,1671,1693,1711,1732,1753,1772,1792,1813,1831,1853,1871,1892,1912,1931,1952,1972,1992,2013,2031,2052,2072,2092,2112,2131,2151,2171,2191,2211,2231,2252,2271,2292,2313,2332],"xSR":741.5,"ySR":573.95,"xT1":424.9,"yT1":0,"xT2":1058.1,"yT2":0,"toosoon":0,"cond_shown":"Congruent","ratio_trial":200,"L_num":6,"L_den":20,"R_num":11,"R_den":22,"correct_side":2,"subjID":"isabellsophiaosmagarcia12","gender":"1","school":"6","age":"10"},{"start_time":1551891392345,"click_time":1551891394093,"finger_time":1551891393632,"fix_duration":1451.4384356796152,"trial":5,"RT":1287,"MT":461,"sideResp":2,"stimulus":[],"xmouse":[777,777,777,777,777,777,777,777,777,777,777,777,777,777,777,777,777,777,777,777,777,777,777,777,777,777,777,777,777,777,777,777,777,777,777,777,777,777,777,777,777,777,777,777,777,777,777,777,777,777,777,777,777,777,777,777,777,777,777,777,777,777,777,777,828,837,854,871,883,907,919,927,935,940,959,973,986,999,1011,1026,1030,1034,1039,1047,1054,1056,1058,1060],"ymouse":[625,625,625,625,625,625,625,625,625,625,625,625,625,625,625,625,625,625,625,625,625,625,625,625,625,625,625,625,625,625,625,625,625,625,625,625,625,625,625,625,625,625,625,625,625,625,625,625,625,625,625,625,625,625,625,625,625,625,625,625,625,625,625,622,529,514,490,462,441,397,378,359,343,330,282,253,223,191,163,124,112,103,91,78,65,63,61,59],"timestamp_mouse":[9,35,46,67,87,107,126,147,166,186,207,226,248,268,286,307,327,347,366,387,407,426,446,466,488,507,527,547,568,586,607,628,646,667,686,708,726,748,767,787,807,827,847,867,887,907,927,946,966,987,1007,1026,1047,1068,1086,1106,1126,1146,1168,1187,1207,1226,1248,1268,1287,1307,1326,1348,1367,1387,1408,1427,1447,1467,1487,1507,1527,1547,1567,1587,1608,1628,1647,1667,1688,1707,1727,1748],"xSR":741.5,"ySR":573.95,"xT1":424.9,"yT1":0,"xT2":1058.1,"yT2":0,"toosoon":0,"cond_shown":"Incongruent","ratio_trial":200,"L_num":3,"L_den":4,"R_num":11,"R_den":20,"correct_side":1,"subjID":"isabellsophiaosmagarcia12","gender":"1","school":"6","age":"10"},{"start_time":1551891396919,"click_time":1551891398673,"finger_time":1551891398372,"fix_duration":1405.7137292487691,"trial":6,"RT":1453,"MT":301,"sideResp":1,"stimulus":[],"xmouse":[791,791,791,791,791,791,791,791,791,791,791,791,791,791,791,791,791,791,791,791,791,791,791,791,791,791,791,791,791,791,791,791,791,791,791,791,791,791,791,791,791,791,791,791,791,791,791,791,791,791,791,792,792,792,792,792,792,792,792,792,792,792,792,792,792,792,792,792,792,792,792,791,782,773,762,695,665,635,610,582,553,529,515,511,507,502,502,502],"ymouse":[611,611,611,611,611,611,611,611,611,611,611,611,611,611,611,611,611,611,611,611,611,611,611,611,611,611,611,611,611,611,611,611,611,611,611,611,611,611,611,611,611,611,611,611,611,611,611,611,611,611,611,605,604,604,604,604,604,604,604,604,604,604,604,604,604,604,604,604,604,604,602,591,571,548,523,432,399,355,317,274,217,170,146,138,132,103,102,97],"timestamp_mouse":[13,40,53,72,93,113,134,154,172,192,212,233,253,274,293,312,333,352,374,394,412,434,453,474,492,512,532,553,573,593,613,632,654,673,693,714,734,753,772,793,813,833,853,872,893,913,933,954,974,993,1014,1033,1053,1074,1093,1113,1133,1153,1174,1192,1214,1234,1253,1273,1293,1313,1333,1353,1373,1392,1413,1434,1453,1472,1493,1512,1534,1553,1573,1592,1612,1632,1653,1673,1693,1712,1733,1754],"xSR":741.5,"ySR":573.95,"xT1":424.9,"yT1":0,"xT2":1058.1,"yT2":0,"toosoon":0,"cond_shown":"Congruent","ratio_trial":300,"L_num":11,"L_den":22,"R_num":1,"R_den":5,"correct_side":1,"subjID":"isabellsophiaosmagarcia12","gender":"1","school":"6","age":"10"},{"start_time":1551891400440,"click_time":1551891402332,"finger_time":1551891402031,"fix_duration":408.0293239036267,"trial":7,"RT":1591,"MT":301,"sideResp":2,"stimulus":[],"xmouse":[816,816,816,816,816,816,816,816,816,816,816,816,816,816,816,816,816,816,816,816,816,816,816,816,816,816,816,816,816,816,816,816,816,816,816,816,816,816,816,816,816,816,816,816,816,816,816,816,816,816,816,816,816,816,816,816,816,816,816,816,816,816,816,816,816,816,816,816,816,816,816,816,816,816,816,816,816,816,824,876,911,927,959,976,996,1003,1009,1022,1032,1045,1048,1053,1057,1065,1086],"ymouse":[636,636,636,636,636,636,636,636,636,636,636,636,636,636,636,636,636,636,636,636,636,636,636,636,636,636,636,636,636,636,636,636,636,636,636,636,636,636,636,636,636,636,636,636,636,636,636,636,636,636,636,636,636,636,636,636,636,636,636,636,636,636,636,636,636,636,636,636,636,636,636,636,636,636,636,636,636,634,617,520,463,429,382,355,322,310,298,267,244,208,192,170,148,126,86],"timestamp_mouse":[13,33,52,72,92,112,132,153,172,193,212,232,252,272,292,312,332,352,372,392,413,432,452,472,491,511,531,551,571,591,611,632,653,672,692,713,732,752,773,791,811,833,852,872,893,911,931,952,972,991,1012,1032,1051,1071,1091,1111,1131,1151,1172,1191,1213,1231,1251,1271,1292,1312,1333,1351,1371,1392,1412,1431,1452,1472,1492,1513,1533,1552,1571,1591,1611,1632,1652,1671,1691,1711,1731,1751,1773,1792,1812,1832,1852,1872,1891],"xSR":741.5,"ySR":573.95,"xT1":424.9,"yT1":0,"xT2":1058.1,"yT2":0,"toosoon":0,"cond_shown":"Congruent","ratio_trial":100,"L_num":12,"L_den":30,"R_num":13,"R_den":26,"correct_side":2,"subjID":"isabellsophiaosmagarcia12","gender":"1","school":"6","age":"10"},{"start_time":1551891404935,"click_time":1551891406332,"finger_time":1551891406171,"fix_duration":1102.2393263436245,"trial":8,"RT":1236,"MT":161,"sideResp":1,"stimulus":[],"xmouse":[824,824,824,824,824,824,824,824,824,824,824,824,824,824,824,824,824,824,824,824,824,824,824,824,824,824,824,824,824,824,824,824,824,824,824,824,824,824,824,824,824,824,824,824,824,824,824,824,824,824,824,824,824,824,824,824,824,824,824,824,820,813,790,726,635,577,557,540,536,524],"ymouse":[589,589,589,589,589,589,589,589,589,589,589,589,589,589,589,589,589,589,589,589,589,589,589,589,589,589,589,589,589,589,589,589,589,589,589,589,589,589,589,589,589,589,589,589,589,589,589,589,589,589,589,589,589,589,589,589,589,589,589,589,575,553,501,385,240,161,133,107,99,67],"timestamp_mouse":[32,36,56,76,97,116,138,156,177,196,218,237,257,276,297,317,336,356,377,396,418,437,457,478,497,517,538,557,578,597,618,637,657,678,697,717,738,757,776,797,818,837,857,877,897,918,936,958,978,996,1017,1037,1056,1077,1097,1116,1137,1156,1178,1197,1217,1236,1256,1277,1296,1316,1336,1357,1378,1397],"xSR":741.5,"ySR":573.95,"xT1":424.9,"yT1":0,"xT2":1058.1,"yT2":0,"toosoon":0,"cond_shown":"Incongruent","ratio_trial":100,"L_num":1,"L_den":2,"R_num":8,"R_den":20,"correct_side":1,"subjID":"isabellsophiaosmagarcia12","gender":"1","school":"6","age":"10"},{"start_time":1551891408804,"click_time":1551891411932,"finger_time":1551891410112,"fix_duration":791.0453966461041,"trial":9,"RT":1308,"MT":1820,"sideResp":2,"stimulus":[],"xmouse":[763,763,763,763,763,763,763,763,763,763,763,763,763,763,763,763,763,763,763,763,763,763,763,763,763,763,763,763,763,763,763,763,763,763,763,763,763,763,763,763,763,763,763,763,763,763,763,763,763,763,763,763,763,763,763,763,763,763,763,763,763,763,763,763,763,763,765,766,768,770,773,774,774,774,774,774,774,774,774,774,774,773,769,764,755,746,722,706,682,623,603,502,466,446,443,434,429,429,429,429,429,429,429,429,429,429,429,429,429,429,429,429,429,432,433,437,444,448,472,502,579,667,690,716,746,767,768,770,773,789,796,823,831,842,852,866,895,911,932,983,1021,1050,1051,1051,1051,1051,1051,1051,1051,1051,1051,1051,1051,1051,1051,1053,1079],"ymouse":[574,574,574,574,574,574,574,574,574,574,574,574,574,574,574,574,574,574,574,574,574,574,574,574,574,574,574,574,574,574,574,574,574,574,574,574,574,574,574,574,574,574,574,574,574,574,574,574,574,574,574,574,574,574,574,574,574,574,574,574,574,574,574,574,574,573,567,562,556,549,541,538,538,538,538,538,538,538,538,537,537,528,518,506,493,481,447,427,397,326,303,206,174,156,153,143,138,138,138,138,138,138,137,137,137,137,137,137,137,137,137,137,140,145,149,153,159,159,159,159,159,159,159,157,152,149,149,147,145,137,133,115,111,105,100,91,71,64,53,38,29,26,26,26,26,26,26,26,26,26,26,26,26,26,26,26,36],"timestamp_mouse":[10,34,48,68,87,109,129,148,168,188,208,229,247,267,288,309,329,349,368,389,408,427,449,468,489,508,529,549,567,588,607,629,647,668,688,708,727,749,769,788,808,827,849,868,889,907,928,949,967,988,1008,1029,1049,1068,1089,1108,1128,1147,1168,1189,1207,1227,1247,1268,1287,1308,1328,1347,1369,1389,1409,1428,1448,1467,1488,1509,1528,1547,1567,1588,1608,1628,1648,1667,1688,1709,1727,1747,1767,1789,1809,1828,1848,1867,1889,1909,1928,1949,1967,1988,2008,2028,2048,2068,2088,2109,2128,2148,2169,2188,2207,2228,2248,2269,2288,2307,2328,2348,2368,2388,2409,2427,2448,2468,2487,2509,2529,2549,2568,2587,2607,2628,2647,2668,2688,2709,2727,2747,2768,2788,2807,2828,2849,2868,2887,2907,2928,2949,2968,2987,3007,3027,3047,3068,3089,3107,3128],"xSR":741.5,"ySR":573.95,"xT1":424.9,"yT1":0,"xT2":1058.1,"yT2":0,"toosoon":0,"cond_shown":"Incongruent","ratio_trial":100,"L_num":9,"L_den":15,"R_num":13,"R_den":26,"correct_side":1,"subjID":"isabellsophiaosmagarcia12","gender":"1","school":"6","age":"10"},{"start_time":1551891414605,"click_time":1551891416513,"finger_time":1551891416052,"fix_duration":1392.0423099030204,"trial":10,"RT":1447,"MT":461,"sideResp":1,"stimulus":[],"xmouse":[767,767,767,767,767,767,767,767,767,767,767,767,767,767,767,767,767,767,767,767,767,767,767,767,767,767,767,767,767,767,767,767,767,767,767,767,767,767,767,767,767,767,767,767,767,767,767,767,767,767,767,767,767,767,767,767,767,767,767,767,767,767,766,766,766,766,766,766,766,766,766,763,760,751,750,740,693,665,654,628,585,556,539,530,527,527,527,527,527,526,524,517,517,516,511,505],"ymouse":[585,585,585,585,585,585,585,585,585,585,585,585,585,585,585,585,585,585,585,585,585,585,585,585,585,585,585,585,585,585,585,585,585,585,585,585,585,585,585,585,585,585,585,585,585,585,585,585,585,585,585,585,585,585,585,585,585,585,585,585,585,585,584,584,584,584,584,584,584,584,584,578,568,553,550,537,481,449,437,402,337,296,270,245,226,221,201,191,176,163,150,118,118,114,106,97],"timestamp_mouse":[11,40,47,67,87,107,128,146,168,187,207,226,247,267,287,306,327,347,367,386,406,427,447,467,488,507,526,547,568,586,607,627,647,667,687,708,727,747,766,788,808,826,847,867,888,907,927,946,968,987,1007,1027,1047,1067,1086,1106,1126,1148,1167,1187,1206,1226,1247,1267,1287,1307,1327,1348,1366,1386,1407,1426,1447,1467,1487,1507,1526,1547,1567,1588,1607,1627,1646,1667,1688,1706,1727,1747,1766,1786,1807,1826,1847,1866,1887,1908],"xSR":741.5,"ySR":573.95,"xT1":424.9,"yT1":0,"xT2":1058.1,"yT2":0,"toosoon":0,"cond_shown":"Incongruent","ratio_trial":300,"L_num":7,"L_den":10,"R_num":8,"R_den":20,"correct_side":1,"subjID":"isabellsophiaosmagarcia12","gender":"1","school":"6","age":"10"},{"start_time":1551891419082,"click_time":1551891420630,"finger_time":1551891420210,"fix_duration":250,"trial":11,"RT":1128,"MT":420,"sideResp":1,"stimulus":[],"xmouse":[768,768,768,768,768,768,768,768,768,768,768,768,768,768,768,768,768,768,768,768,768,768,768,768,768,768,768,768,768,768,768,768,768,768,768,768,768,768,768,768,768,768,768,768,768,768,768,768,768,768,768,768,768,768,767,762,727,658,613,582,561,560,521,503,495,487,476,467,467,467,467,467,468,475,479,483,486,489],"ymouse":[607,607,607,607,607,607,607,607,607,607,607,607,607,607,607,607,607,607,607,607,607,607,607,607,607,607,607,607,607,607,607,607,607,607,607,607,607,607,607,607,607,607,607,607,607,607,607,607,607,607,607,607,607,607,596,586,524,416,353,315,288,285,220,191,171,158,138,118,118,118,118,118,116,115,113,110,104,83],"timestamp_mouse":[10,34,48,69,90,109,129,149,168,188,210,228,249,269,289,309,328,350,369,388,408,428,448,468,488,508,528,548,568,590,609,629,649,669,689,708,728,748,768,788,808,828,848,868,888,908,928,948,968,988,1010,1028,1048,1068,1089,1108,1128,1148,1169,1189,1208,1229,1248,1268,1288,1308,1328,1348,1368,1388,1408,1428,1449,1469,1488,1508,1528,1548],"xSR":741.5,"ySR":573.95,"xT1":424.9,"yT1":0,"xT2":1058.1,"yT2":0,"toosoon":0,"cond_shown":"Incongruent","ratio_trial":300,"L_num":8,"L_den":10,"R_num":14,"R_den":28,"correct_side":1,"subjID":"isabellsophiaosmagarcia12","gender":"1","school":"6","age":"10"},{"start_time":1551891423023,"click_time":1551891424791,"finger_time":1551891424312,"fix_duration":1291.033425601228,"trial":12,"RT":1289,"MT":479,"sideResp":2,"stimulus":[],"xmouse":[832,832,832,832,832,832,832,832,832,832,832,832,832,832,832,832,832,832,832,832,832,832,832,832,832,832,832,832,832,832,832,832,832,832,832,832,832,832,832,832,832,832,832,832,832,832,832,832,832,832,832,832,832,832,832,832,832,832,832,832,832,832,832,841,861,912,928,928,948,950,993,1000,1001,1008,1015,1028,1031,1031,1034,1034,1042,1059,1060,1072,1087,1111,1118,1122,1124],"ymouse":[626,626,626,626,626,626,626,626,626,626,626,626,626,626,626,626,626,626,626,626,626,626,626,626,626,626,626,626,626,626,626,626,626,626,626,626,626,626,626,626,626,626,626,626,626,626,626,626,626,626,626,626,626,626,626,626,626,626,626,626,626,626,623,608,576,486,462,462,431,427,371,359,353,338,321,293,284,284,274,274,255,217,215,199,175,133,119,106,95],"timestamp_mouse":[7,28,47,67,88,107,127,147,167,187,207,227,247,267,287,307,327,347,367,387,407,427,447,467,487,508,529,547,568,587,609,628,648,669,687,709,729,747,767,787,808,829,847,868,887,908,929,948,969,989,1008,1029,1047,1069,1088,1108,1127,1148,1167,1188,1207,1228,1247,1268,1289,1308,1329,1348,1368,1387,1408,1427,1448,1468,1489,1508,1527,1548,1569,1588,1608,1628,1648,1668,1687,1708,1727,1747,1768],"xSR":741.5,"ySR":573.95,"xT1":424.9,"yT1":0,"xT2":1058.1,"yT2":0,"toosoon":0,"cond_shown":"Congruent","ratio_trial":100,"L_num":7,"L_den":14,"R_num":9,"R_den":15,"correct_side":2,"subjID":"isabellsophiaosmagarcia12","gender":"1","school":"6","age":"10"},{"start_time":1551891427161,"click_time":1551891428931,"finger_time":1551891428411,"fix_duration":1309.1349047598628,"trial":13,"RT":1250,"MT":520,"sideResp":2,"stimulus":[],"xmouse":[815,815,815,815,815,815,815,815,815,815,815,815,815,815,815,815,815,815,815,815,815,815,815,815,815,815,815,815,815,815,815,815,815,815,815,815,815,815,815,815,815,815,815,815,815,815,815,815,815,815,815,814,813,813,813,813,813,813,815,817,820,825,830,830,830,836,864,895,960,979,999,1013,1027,1040,1050,1054,1057,1057,1058,1059,1060,1060,1060,1063,1070,1077,1088,1100,1122],"ymouse":[628,628,628,628,628,628,628,628,628,628,628,628,628,628,628,628,628,628,628,628,628,628,628,628,628,628,628,628,628,628,628,628,628,628,628,628,628,628,628,628,628,628,628,628,628,628,628,628,628,628,628,628,628,616,615,613,613,611,607,600,590,577,567,567,567,560,526,495,430,407,385,369,352,336,320,313,304,303,295,288,277,262,238,204,182,167,140,117,72],"timestamp_mouse":[11,36,50,70,91,109,130,151,171,190,211,231,249,269,290,310,330,350,370,391,410,429,449,471,491,510,530,549,571,590,610,630,650,671,690,710,729,749,771,790,809,829,851,871,889,910,929,950,969,990,1010,1030,1050,1070,1090,1110,1129,1150,1169,1189,1210,1231,1250,1270,1291,1310,1329,1349,1369,1390,1410,1431,1450,1470,1489,1510,1530,1551,1570,1591,1610,1630,1649,1669,1690,1710,1730,1750,1769],"xSR":741.5,"ySR":573.95,"xT1":424.9,"yT1":0,"xT2":1058.1,"yT2":0,"toosoon":0,"cond_shown":"Congruent","ratio_trial":200,"L_num":13,"L_den":26,"R_num":14,"R_den":20,"correct_side":2,"subjID":"isabellsophiaosmagarcia12","gender":"1","school":"6","age":"10"},{"start_time":1551891439903,"click_time":1551891441631,"finger_time":1551891441030,"fix_duration":250,"trial":14,"RT":1127,"MT":601,"sideResp":2,"stimulus":[],"xmouse":[783,783,783,783,783,783,783,783,783,783,783,783,783,783,783,783,783,783,783,783,783,783,783,783,783,783,783,783,783,783,783,783,783,783,783,783,783,783,783,783,783,783,783,783,783,783,783,783,783,783,783,783,783,783,782,782,824,843,860,876,880,929,933,942,950,955,966,972,973,985,1005,1093,1107,1118,1128,1136,1150,1161,1169,1174,1177,1178,1178,1178,1178,1165,1138],"ymouse":[586,586,586,586,586,586,586,586,586,586,586,586,586,586,586,586,586,586,586,586,586,586,586,586,586,586,586,586,586,586,586,586,586,586,586,586,586,586,586,586,586,586,586,586,586,586,586,586,586,586,586,586,586,586,586,584,537,517,494,464,456,380,374,358,338,317,293,284,280,268,251,196,186,176,164,153,133,120,105,93,83,77,76,76,76,75,71],"timestamp_mouse":[11,42,47,69,87,108,128,147,168,188,207,228,247,268,288,308,327,347,369,387,408,429,447,468,489,509,527,548,567,589,608,627,648,669,688,708,728,747,767,788,807,829,849,867,889,908,928,949,968,988,1007,1028,1047,1069,1088,1107,1127,1148,1168,1188,1208,1227,1249,1268,1289,1307,1327,1347,1367,1389,1409,1427,1448,1467,1487,1509,1528,1547,1567,1587,1609,1628,1648,1668,1687,1709,1728],"xSR":741.5,"ySR":573.95,"xT1":424.9,"yT1":0,"xT2":1058.1,"yT2":0,"toosoon":0,"cond_shown":"Incongruent","ratio_trial":100,"L_num":10,"L_den":25,"R_num":9,"R_den":18,"correct_side":2,"subjID":"isabellsophiaosmagarcia12","gender":"1","school":"6","age":"10"},{"start_time":1551891443945,"click_time":1551891445450,"finger_time":1551891444912,"fix_duration":1074.601381768105,"trial":15,"RT":967,"MT":538,"sideResp":2,"stimulus":[],"xmouse":[769,769,769,769,769,769,769,769,769,769,769,769,769,769,769,769,769,769,769,769,769,769,769,769,769,769,769,769,769,769,769,769,769,769,769,769,769,769,769,769,769,769,769,771,777,780,783,785,787,796,804,811,822,834,866,875,883,894,904,928,942,964,988,1017,1036,1042,1043,1043,1043,1043,1043,1044,1049,1053,1066,1082],"ymouse":[658,658,658,658,658,658,658,658,658,658,658,658,658,658,658,658,658,658,658,658,658,658,658,658,658,658,658,658,658,658,658,658,658,658,658,658,658,658,658,658,658,658,658,649,628,612,596,582,570,538,509,491,450,411,350,335,323,308,292,260,245,223,202,176,156,148,147,145,145,145,145,141,130,125,104,83],"timestamp_mouse":[7,26,46,66,86,106,126,146,166,186,206,226,247,265,287,305,327,346,366,386,407,426,446,466,486,506,525,545,566,587,607,626,647,665,687,705,725,745,767,786,827,827,846,866,885,905,926,946,967,985,1007,1026,1046,1066,1086,1107,1126,1147,1166,1185,1205,1226,1246,1266,1285,1305,1327,1345,1366,1387,1406,1425,1445,1465,1485,1505],"xSR":741.5,"ySR":573.95,"xT1":424.9,"yT1":0,"xT2":1058.1,"yT2":0,"toosoon":0,"cond_shown":"Congruent","ratio_trial":300,"L_num":5,"L_den":25,"R_num":7,"R_den":14,"correct_side":2,"subjID":"isabellsophiaosmagarcia12","gender":"1","school":"6","age":"10"},{"start_time":1551891447497,"click_time":1551891449430,"finger_time":1551891448910,"fix_duration":745.265699904825,"trial":16,"RT":1413,"MT":520,"sideResp":1,"stimulus":[],"xmouse":[788,788,788,788,788,788,788,788,788,788,788,788,788,788,788,788,788,788,788,788,788,788,788,788,788,788,788,788,788,788,788,788,788,788,788,788,788,788,788,788,788,788,788,788,788,788,788,788,788,796,796,798,799,799,799,799,799,799,799,799,799,799,799,799,799,799,799,799,799,799,798,785,768,733,696,627,531,526,525,525,525,525,526,530,531,540,563,570,574,574,572,553,541,522,505,489,446],"ymouse":[624,624,624,624,624,624,624,624,624,624,624,624,624,624,624,624,624,624,624,624,624,624,624,624,624,624,624,624,624,624,624,624,624,624,624,624,624,624,624,624,624,624,624,624,624,624,624,624,620,598,595,582,578,578,578,578,578,578,578,578,578,578,578,578,578,578,578,578,578,575,571,546,526,492,461,411,329,318,313,309,309,307,304,297,296,281,241,220,202,188,174,152,143,133,123,112,92],"timestamp_mouse":[15,34,54,75,93,113,133,155,173,193,214,234,254,273,293,314,333,353,374,393,414,435,453,473,495,515,533,554,575,595,615,634,653,673,693,715,733,755,773,793,813,833,853,874,894,914,933,954,973,994,1014,1035,1054,1074,1093,1114,1134,1153,1174,1193,1213,1234,1255,1274,1293,1314,1333,1355,1373,1394,1413,1434,1454,1474,1495,1514,1533,1555,1574,1595,1613,1633,1655,1674,1695,1713,1734,1754,1774,1794,1813,1833,1855,1874,1895,1913,1933],"xSR":741.5,"ySR":573.95,"xT1":424.9,"yT1":0,"xT2":1058.1,"yT2":0,"toosoon":0,"cond_shown":"Congruent","ratio_trial":100,"L_num":10,"L_den":25,"R_num":3,"R_den":10,"correct_side":1,"subjID":"isabellsophiaosmagarcia12","gender":"1","school":"6","age":"10"},{"start_time":1551891451512,"click_time":1551891453692,"finger_time":1551891452990,"fix_duration":559.092448490393,"trial":17,"RT":1478,"MT":702,"sideResp":2,"stimulus":[],"xmouse":[757,757,757,757,757,757,757,757,757,757,757,757,757,757,757,757,757,757,757,757,757,757,757,757,757,757,757,757,757,757,757,757,757,757,757,757,757,757,757,757,757,757,757,757,757,757,757,757,757,757,757,757,757,757,757,757,757,757,757,757,757,757,757,757,757,757,757,757,757,757,757,757,759,764,771,792,809,816,838,856,885,898,913,934,937,957,957,957,959,959,959,959,959,959,961,968,975,978,982,988,1011,1018,1020,1024,1027,1037,1046,1053,1059],"ymouse":[596,596,596,596,596,596,596,596,596,596,596,596,596,596,596,596,596,596,596,596,596,596,596,596,596,596,596,596,596,596,596,596,596,596,596,596,596,596,596,596,596,596,596,596,596,596,596,596,596,596,596,596,596,596,596,596,596,596,596,596,596,596,596,596,596,596,596,596,596,596,596,592,584,564,543,466,411,384,341,298,237,208,187,166,164,157,157,155,151,150,150,150,150,150,144,128,111,103,94,86,59,51,49,44,42,36,36,34,34],"timestamp_mouse":[37,38,59,79,99,119,139,159,179,199,218,239,259,279,298,319,338,360,378,399,419,439,459,480,498,518,538,559,579,598,618,639,659,679,699,719,738,759,778,798,820,838,860,880,898,918,939,958,980,998,1018,1040,1059,1079,1099,1118,1140,1159,1180,1198,1218,1238,1260,1278,1299,1318,1338,1358,1379,1400,1418,1438,1460,1478,1499,1518,1538,1559,1579,1599,1619,1638,1659,1679,1699,1719,1740,1759,1778,1800,1820,1838,1860,1880,1900,1918,1939,1959,1980,1998,2019,2039,2058,2078,2098,2118,2140,2159,2180],"xSR":741.5,"ySR":573.95,"xT1":424.9,"yT1":0,"xT2":1058.1,"yT2":0,"toosoon":0,"cond_shown":"Congruent","ratio_trial":200,"L_num":7,"L_den":15,"R_num":18,"R_den":27,"correct_side":2,"subjID":"isabellsophiaosmagarcia12","gender":"1","school":"6","age":"10"},{"start_time":1551891458818,"click_time":1551891460532,"finger_time":1551891460230,"fix_duration":1486.384023089737,"trial":18,"RT":1412,"MT":302,"sideResp":1,"stimulus":[],"xmouse":[780,780,780,780,780,780,780,780,780,780,780,780,780,780,780,780,780,780,780,780,780,780,780,780,780,780,780,780,780,780,780,780,780,780,780,780,780,780,780,780,780,780,780,780,780,780,780,780,780,780,780,780,780,780,780,780,780,780,780,780,780,780,780,780,780,780,780,780,779,773,730,711,670,643,597,548,536,526,522,520,520,521,524,524,526,524],"ymouse":[651,651,651,651,651,651,651,651,651,651,651,651,651,651,651,651,651,651,651,651,651,651,651,651,651,651,651,651,651,651,651,651,651,651,651,651,651,651,651,651,651,651,651,651,651,651,651,651,651,651,651,651,651,651,651,651,651,651,651,651,651,651,651,651,651,651,651,651,650,637,563,532,472,441,385,331,318,294,280,266,222,191,172,165,136,99],"timestamp_mouse":[13,32,52,74,93,113,132,153,172,194,212,232,254,272,294,314,333,354,372,394,413,432,453,472,492,513,532,554,573,592,614,633,653,673,692,714,732,752,772,793,812,833,852,874,892,913,932,952,972,992,1012,1032,1054,1072,1093,1114,1133,1153,1172,1194,1212,1233,1253,1272,1293,1314,1333,1354,1373,1392,1412,1432,1453,1472,1492,1512,1533,1553,1573,1593,1613,1632,1652,1673,1694,1714],"xSR":741.5,"ySR":573.95,"xT1":424.9,"yT1":0,"xT2":1058.1,"yT2":0,"toosoon":0,"cond_shown":"Incongruent","ratio_trial":300,"L_num":8,"L_den":10,"R_num":9,"R_den":18,"correct_side":1,"subjID":"isabellsophiaosmagarcia12","gender":"1","school":"6","age":"10"},{"start_time":1551891463441,"click_time":1551891465051,"finger_time":1551891464791,"fix_duration":489.90566203906263,"trial":19,"RT":1350,"MT":260,"sideResp":1,"stimulus":[],"xmouse":[769,769,769,769,769,769,769,769,769,769,769,769,769,769,769,769,769,769,769,769,769,769,769,769,769,769,769,769,769,769,769,769,769,769,769,769,769,769,769,769,769,769,769,769,769,769,769,769,769,769,769,769,769,769,769,769,769,769,769,769,769,769,769,769,769,762,744,715,696,626,611,601,595,592,581,577,577,576,570,544,522],"ymouse":[625,625,625,624,624,624,624,624,624,624,624,624,624,624,624,624,624,624,624,624,624,624,624,624,624,624,624,624,624,624,624,624,624,624,624,624,624,624,624,624,624,624,624,624,624,624,624,624,624,624,624,624,624,624,624,624,624,624,624,624,624,624,624,624,624,613,579,526,494,379,344,311,283,253,181,162,141,130,118,88,74],"timestamp_mouse":[11,39,50,70,89,109,129,150,169,189,210,230,249,270,289,309,331,349,370,390,409,431,451,469,490,510,531,549,571,589,609,630,651,669,689,711,729,751,769,789,809,830,851,871,891,910,929,949,969,991,1011,1030,1049,1069,1090,1110,1130,1151,1169,1189,1211,1229,1251,1269,1291,1310,1330,1350,1370,1389,1410,1429,1451,1470,1490,1509,1530,1551,1570,1590,1610],"xSR":741.5,"ySR":573.95,"xT1":424.9,"yT1":0,"xT2":1058.1,"yT2":0,"toosoon":0,"cond_shown":"Incongruent","ratio_trial":300,"L_num":7,"L_den":10,"R_num":8,"R_den":20,"correct_side":1,"subjID":"isabellsophiaosmagarcia12","gender":"1","school":"6","age":"10"},{"start_time":1551891466630,"click_time":1551891468352,"finger_time":1551891467990,"fix_duration":679.1876605416261,"trial":20,"RT":1360,"MT":362,"sideResp":2,"stimulus":[],"xmouse":[808,808,808,808,808,808,808,808,808,808,808,808,808,808,808,808,808,808,808,808,808,808,808,808,808,808,808,808,808,808,808,808,808,808,808,808,808,808,808,808,808,808,808,808,808,808,808,808,808,808,808,808,808,808,808,808,808,808,808,808,808,808,808,808,808,808,808,808,818,818,914,987,1023,1064,1104,1167,1191,1206,1216,1222,1222,1222,1217,1211,1198,1166,1150],"ymouse":[596,596,596,596,596,596,596,596,596,596,596,596,596,596,596,596,596,596,596,596,596,596,596,596,596,596,596,596,596,596,596,596,596,596,596,596,596,596,596,596,596,596,596,596,596,596,596,596,596,596,596,596,596,596,596,596,596,596,596,596,596,596,596,596,596,596,596,596,573,573,422,332,292,252,218,163,137,114,91,56,48,40,31,25,20,13,10],"timestamp_mouse":[9,32,41,60,80,101,122,141,162,181,200,220,242,261,282,301,322,342,361,382,401,422,441,462,480,500,521,540,562,581,602,622,641,661,682,701,722,742,761,780,802,820,840,862,882,900,921,941,961,982,1000,1020,1041,1061,1080,1100,1120,1142,1161,1181,1200,1220,1241,1261,1281,1300,1322,1342,1360,1381,1401,1422,1440,1460,1480,1500,1521,1541,1562,1582,1601,1621,1640,1660,1682,1701,1722],"xSR":741.5,"ySR":573.95,"xT1":424.9,"yT1":0,"xT2":1058.1,"yT2":0,"toosoon":0,"cond_shown":"Congruent","ratio_trial":100,"L_num":6,"L_den":12,"R_num":15,"R_den":25,"correct_side":2,"subjID":"isabellsophiaosmagarcia12","gender":"1","school":"6","age":"10"},{"start_time":1551891470092,"click_time":1551891471652,"finger_time":1551891471331,"fix_duration":499.3251189053437,"trial":21,"RT":1239,"MT":321,"sideResp":2,"stimulus":[],"xmouse":[823,823,823,823,823,823,823,823,823,823,823,823,823,823,823,823,823,823,823,823,823,823,823,823,823,823,823,823,823,823,823,823,823,823,823,823,823,823,823,823,823,823,823,823,823,823,823,823,823,823,823,823,823,823,823,823,823,823,823,825,834,839,854,858,872,921,986,1099,1118,1145,1154,1167,1169,1171,1171,1172,1172,1167,1157],"ymouse":[635,635,635,635,635,635,635,635,635,635,635,635,635,635,635,635,635,635,635,635,635,635,635,635,635,635,635,635,635,635,635,635,635,635,635,635,635,635,635,635,635,635,635,635,635,635,635,635,635,635,635,635,635,635,635,635,635,635,635,632,617,606,582,578,556,486,403,271,249,211,200,174,168,160,155,148,130,117,98],"timestamp_mouse":[1,19,39,58,78,98,118,138,159,178,198,218,240,258,278,298,318,339,359,379,399,420,438,458,480,499,519,540,559,580,599,618,638,660,678,699,720,739,759,780,798,820,838,858,879,899,920,939,958,979,998,1018,1038,1058,1079,1099,1118,1140,1159,1179,1199,1219,1239,1260,1278,1299,1319,1340,1358,1379,1400,1420,1438,1458,1478,1499,1520,1538,1560],"xSR":741.5,"ySR":573.95,"xT1":424.9,"yT1":0,"xT2":1058.1,"yT2":0,"toosoon":0,"cond_shown":"Congruent","ratio_trial":300,"L_num":7,"L_den":14,"R_num":20,"R_den":25,"correct_side":2,"subjID":"isabellsophiaosmagarcia12","gender":"1","school":"6","age":"10"},{"start_time":1551891473092,"click_time":1551891474670,"finger_time":1551891474250,"fix_duration":598.9122844194104,"trial":22,"RT":1158,"MT":420,"sideResp":2,"stimulus":[],"xmouse":[791,791,791,791,791,791,791,791,791,791,791,791,791,791,791,791,791,791,791,791,791,791,791,791,791,791,791,791,791,791,791,791,791,791,791,791,791,791,791,791,791,791,791,791,791,791,791,791,791,791,791,791,791,791,792,801,821,839,844,848,850,867,882,897,921,943,966,1014,1032,1046,1050,1052,1054,1054,1054,1054,1054,1054,1054,1065],"ymouse":[624,624,624,624,624,624,624,624,624,624,624,624,624,624,624,624,624,624,624,624,624,624,624,624,624,624,624,624,624,624,624,624,624,624,624,624,624,624,624,624,624,624,624,624,624,624,624,624,624,624,624,624,624,624,624,620,604,587,582,577,573,543,517,488,444,393,337,196,153,122,111,106,102,102,102,102,102,102,102,91],"timestamp_mouse":[1,19,38,60,78,100,120,139,159,178,198,220,238,259,280,299,319,338,359,378,399,419,438,459,480,499,520,538,559,578,599,620,639,660,679,698,719,739,758,780,799,818,840,858,880,898,920,938,960,980,998,1019,1039,1059,1079,1100,1119,1139,1158,1178,1199,1219,1238,1259,1279,1298,1319,1339,1359,1380,1398,1418,1439,1459,1478,1499,1520,1538,1559,1578],"xSR":741.5,"ySR":573.95,"xT1":424.9,"yT1":0,"xT2":1058.1,"yT2":0,"toosoon":0,"cond_shown":"Incongruent","ratio_trial":200,"L_num":9,"L_den":15,"R_num":8,"R_den":10,"correct_side":2,"subjID":"isabellsophiaosmagarcia12","gender":"1","school":"6","age":"10"},{"start_time":1551891476068,"click_time":1551891478070,"finger_time":1551891477450,"fix_duration":635.2369259642779,"trial":23,"RT":1382,"MT":620,"sideResp":2,"stimulus":[],"xmouse":[802,802,802,802,802,802,802,802,802,802,802,802,802,802,802,802,802,802,802,802,802,802,802,802,802,802,802,802,802,802,802,802,801,801,800,800,800,800,800,800,800,800,798,797,796,795,795,795,795,795,795,795,795,795,795,795,795,795,795,795,795,795,795,795,795,795,795,795,799,822,849,894,945,1032,1051,1070,1094,1098,1098,1098,1098,1098,1098,1098,1098,1098,1098,1098,1098,1098,1098,1098,1098,1098,1098,1098,1098,1100,1105,1115,1126],"ymouse":[614,614,614,614,614,614,614,614,614,614,614,614,614,614,614,614,614,614,614,614,614,614,614,614,614,614,614,614,614,614,614,614,614,614,614,613,613,613,613,613,613,613,612,610,608,607,607,607,607,607,607,607,607,607,607,607,607,607,607,607,607,607,607,607,607,607,607,607,591,556,520,459,398,303,289,271,250,244,243,243,243,243,243,243,243,243,243,243,243,243,243,243,243,243,243,243,243,236,177,122,39],"timestamp_mouse":[10,33,43,62,83,103,124,143,163,182,203,224,244,262,282,304,324,343,363,384,402,422,443,464,482,502,524,542,562,582,604,623,642,664,682,703,723,742,763,784,803,824,842,863,883,904,922,942,963,983,1003,1022,1042,1062,1083,1103,1124,1143,1163,1183,1203,1223,1243,1264,1282,1302,1322,1344,1363,1382,1403,1423,1442,1463,1482,1503,1523,1543,1563,1583,1604,1623,1642,1662,1683,1703,1722,1742,1763,1783,1802,1823,1843,1862,1883,1904,1923,1943,1963,1982,2002],"xSR":741.5,"ySR":573.95,"xT1":424.9,"yT1":0,"xT2":1058.1,"yT2":0,"toosoon":0,"cond_shown":"Incongruent","ratio_trial":100,"L_num":17,"L_den":30,"R_num":10,"R_den":15,"correct_side":2,"subjID":"isabellsophiaosmagarcia12","gender":"1","school":"6","age":"10"},{"start_time":1551891480179,"click_time":1551891482390,"finger_time":1551891481229,"fix_duration":988.0307857548048,"trial":24,"RT":1050,"MT":1161,"sideResp":1,"stimulus":[],"xmouse":[785,785,785,785,785,785,785,785,785,785,785,785,785,785,785,785,785,785,785,785,785,785,785,785,785,785,785,785,785,785,785,785,785,785,785,785,785,785,785,785,785,785,785,785,785,785,785,785,785,785,785,784,855,896,932,957,983,998,1011,1013,1013,1013,1013,1013,1013,1013,1013,1013,1013,1013,1013,1013,1013,1013,1013,1013,1013,1013,1013,1013,978,905,662,494,345,232,164,126,123,125,136,150,167,181,191,205,224,254,263,284,290,314,353,356,357,359,366,393,404,414,425],"ymouse":[595,595,595,595,595,595,595,595,595,595,595,595,595,595,595,595,595,595,595,595,595,595,595,595,595,595,595,595,595,595,595,595,595,595,595,595,595,595,595,595,595,595,595,595,595,595,595,595,595,595,595,595,535,498,460,434,402,374,347,342,342,342,342,342,340,335,331,331,330,330,330,330,330,330,330,330,330,330,330,329,324,313,278,252,229,196,164,118,95,75,58,45,33,28,27,27,28,37,41,54,58,70,84,84,84,83,75,44,32,21,8],"timestamp_mouse":[11,32,51,70,92,112,130,152,172,191,211,231,251,270,291,310,330,350,371,390,411,430,451,470,492,510,530,550,571,591,612,630,651,672,690,712,730,751,772,791,811,831,852,870,891,911,930,951,970,991,1011,1030,1050,1070,1090,1110,1130,1150,1170,1191,1211,1230,1250,1271,1290,1310,1331,1350,1371,1390,1412,1430,1450,1470,1491,1510,1530,1550,1571,1591,1610,1630,1650,1670,1691,1711,1731,1751,1770,1790,1811,1831,1850,1870,1890,1911,1932,1950,1970,1990,2010,2030,2050,2070,2091,2111,2131,2150,2170,2191,2211],"xSR":741.5,"ySR":573.95,"xT1":424.9,"yT1":0,"xT2":1058.1,"yT2":0,"toosoon":0,"cond_shown":"Congruent","ratio_trial":100,"L_num":10,"L_den":25,"R_num":3,"R_den":10,"correct_side":1,"subjID":"isabellsophiaosmagarcia12","gender":"1","school":"6","age":"10"},{"start_time":1551891483941,"click_time":1551891486249,"finger_time":1551891485369,"fix_duration":429.21272878073347,"trial":25,"RT":1428,"MT":880,"sideResp":1,"stimulus":[],"xmouse":[790,790,790,790,790,790,790,790,790,790,790,790,790,790,790,790,790,790,790,790,790,790,790,790,790,790,790,790,790,790,790,790,790,790,790,790,790,790,790,790,790,790,790,790,790,790,790,790,790,790,790,790,790,790,790,790,790,790,790,790,790,790,790,790,790,790,790,790,791,797,805,816,819,828,838,840,841,842,842,842,842,842,842,842,842,842,836,791,762,634,596,552,531,519,519,519,519,519,519,524,530,530,530,530,520,519,519,518,517,515,515,515,515,514,505,498],"ymouse":[629,629,629,629,629,629,629,629,629,629,629,629,629,629,629,629,629,629,629,629,629,629,629,629,629,629,629,629,629,629,629,629,629,629,629,629,629,629,629,629,629,629,629,629,629,629,629,629,629,629,629,629,629,629,629,629,629,629,629,629,629,629,629,629,629,629,629,629,629,612,593,568,562,541,518,513,510,508,508,508,508,508,508,508,508,508,503,474,461,384,361,328,305,284,281,281,281,281,273,253,204,178,165,163,137,132,132,129,128,125,125,125,125,123,101,89],"timestamp_mouse":[8,38,48,68,88,108,130,148,169,189,209,228,249,270,288,309,330,348,368,389,408,429,448,468,488,510,530,548,569,588,610,628,649,669,688,709,728,749,769,789,809,828,848,869,888,908,928,948,968,989,1009,1029,1048,1070,1089,1109,1129,1148,1168,1188,1208,1228,1248,1268,1289,1309,1329,1348,1368,1388,1408,1428,1449,1468,1488,1508,1529,1549,1568,1589,1609,1629,1649,1668,1689,1708,1728,1749,1768,1788,1808,1829,1848,1868,1888,1909,1928,1948,1968,1988,2009,2029,2050,2069,2088,2108,2128,2149,2169,2188,2209,2229,2249,2268,2288,2308],"xSR":741.5,"ySR":573.95,"xT1":424.9,"yT1":0,"xT2":1058.1,"yT2":0,"toosoon":0,"cond_shown":"Congruent","ratio_trial":300,"L_num":1,"L_den":5,"R_num":3,"R_den":6,"correct_side":2,"subjID":"isabellsophiaosmagarcia12","gender":"1","school":"6","age":"10"},{"start_time":1551891488719,"click_time":1551891490150,"finger_time":1551891489810,"fix_duration":1289.2102435102988,"trial":26,"RT":1091,"MT":340,"sideResp":1,"stimulus":[],"xmouse":[749,749,749,749,749,749,749,749,749,749,749,749,749,749,749,749,749,749,749,749,749,749,749,749,749,749,749,749,749,749,749,749,749,749,749,749,749,749,749,749,749,749,749,749,749,749,749,749,749,749,749,750,750,747,733,703,681,660,647,640,634,623,614,602,578,545,525,506,487,468,455,454],"ymouse":[620,620,620,620,620,620,620,620,620,620,620,620,620,620,620,620,620,620,620,620,620,620,620,620,620,620,620,620,620,620,620,620,620,620,620,620,620,620,620,620,620,620,620,620,620,620,620,620,620,620,620,620,620,618,585,511,464,427,401,381,359,318,294,267,226,187,169,150,132,117,102,98],"timestamp_mouse":[10,30,51,70,92,111,131,150,171,190,210,230,252,271,291,312,330,350,370,390,410,431,450,471,492,511,530,551,572,591,610,631,651,672,690,711,731,750,770,791,812,831,850,871,891,910,930,951,971,990,1010,1031,1052,1071,1091,1110,1130,1150,1171,1191,1210,1232,1251,1270,1290,1310,1330,1350,1371,1390,1410,1430],"xSR":741.5,"ySR":573.95,"xT1":424.9,"yT1":0,"xT2":1058.1,"yT2":0,"toosoon":0,"cond_shown":"Congruent","ratio_trial":300,"L_num":20,"L_den":25,"R_num":9,"R_den":18,"correct_side":1,"subjID":"isabellsophiaosmagarcia12","gender":"1","school":"6","age":"10"},{"start_time":1551891491978,"click_time":1551891494369,"finger_time":1551891492909,"fix_duration":827.0545176061903,"trial":27,"RT":931,"MT":1460,"sideResp":2,"stimulus":[],"xmouse":[782,782,782,782,782,782,782,782,782,782,782,782,782,782,782,782,782,782,782,782,782,782,782,782,782,782,782,782,782,782,782,782,782,782,782,782,781,780,780,780,779,779,779,783,786,789,801,839,848,850,850,850,850,850,850,850,850,850,851,852,854,860,883,901,902,915,917,917,923,927,928,929,934,935,936,937,937,941,943,944,944,944,944,944,944,944,944,944,944,944,944,944,944,944,944,944,944,944,945,945,958,1006,1083,1095,1113,1164,1189,1232,1233,1226,1214,1214,1106,1076,1068,1068,1068,1068,1068,1068],"ymouse":[624,624,624,624,624,624,624,624,624,624,624,624,624,624,624,624,624,624,624,624,624,624,624,624,624,624,624,624,624,624,624,624,624,624,624,624,623,623,623,620,617,612,605,591,584,578,559,512,492,490,486,484,484,484,484,484,484,484,484,479,473,458,429,414,412,399,399,398,391,387,383,383,373,365,359,357,357,351,344,340,340,340,340,340,340,340,340,340,340,340,340,340,340,340,340,340,340,340,340,340,324,288,243,237,228,193,165,90,70,47,32,32,0,0,0,0,0,0,0,2],"timestamp_mouse":[11,34,52,72,92,113,132,152,172,191,212,232,252,271,291,311,331,352,371,393,411,432,451,472,492,511,532,551,572,592,612,632,651,672,692,711,731,751,771,792,811,832,851,871,891,911,931,951,972,991,1011,1032,1051,1072,1092,1113,1131,1151,1172,1191,1212,1231,1251,1273,1291,1312,1331,1351,1372,1391,1412,1431,1451,1472,1492,1511,1531,1551,1571,1592,1612,1632,1652,1673,1691,1711,1733,1752,1771,1791,1811,1833,1853,1884,1892,1913,1933,1952,1971,1991,2011,2031,2051,2071,2091,2111,2131,2151,2171,2192,2211,2231,2251,2271,2292,2312,2331,2352,2371,2391],"xSR":741.5,"ySR":573.95,"xT1":424.9,"yT1":0,"xT2":1058.1,"yT2":0,"toosoon":0,"cond_shown":"Congruent","ratio_trial":100,"L_num":6,"L_den":12,"R_num":15,"R_den":25,"correct_side":2,"subjID":"isabellsophiaosmagarcia12","gender":"1","school":"6","age":"10"},{"start_time":1551891498541,"click_time":1551891500270,"finger_time":1551891499890,"fix_duration":250,"trial":28,"RT":1349,"MT":380,"sideResp":1,"stimulus":[],"xmouse":[801,801,801,801,801,801,801,801,801,801,801,801,801,801,801,801,801,801,801,801,801,801,801,801,801,801,801,801,801,801,801,801,801,801,801,801,801,801,801,801,801,801,801,801,801,801,801,801,801,801,801,801,801,801,801,801,801,801,801,801,801,801,801,801,801,800,792,776,769,692,648,562,505,394,346,329,329,329,330,332,338,360,366,373,392,416,445],"ymouse":[622,622,622,622,622,622,622,622,622,622,622,622,622,622,622,622,622,622,622,622,622,622,622,622,622,622,622,622,622,622,622,622,622,622,622,622,622,622,622,622,622,622,622,622,622,622,622,622,622,622,622,622,622,622,622,622,622,622,622,622,622,622,622,622,622,610,579,530,510,383,323,229,175,90,46,16,6,0,0,0,0,0,0,0,11,29,49],"timestamp_mouse":[10,36,50,68,88,108,130,148,168,188,208,228,249,268,289,308,328,348,370,389,408,429,449,468,488,509,529,549,568,588,609,629,650,668,688,708,729,749,768,788,808,828,849,870,888,910,928,949,969,990,1008,1029,1048,1068,1088,1108,1129,1149,1168,1188,1208,1230,1249,1269,1290,1308,1328,1349,1369,1388,1408,1429,1450,1469,1488,1509,1529,1548,1568,1588,1608,1628,1649,1668,1689,1708,1729],"xSR":741.5,"ySR":573.95,"xT1":424.9,"yT1":0,"xT2":1058.1,"yT2":0,"toosoon":0,"cond_shown":"Incongruent","ratio_trial":200,"L_num":1,"L_den":2,"R_num":3,"R_den":10,"correct_side":1,"subjID":"isabellsophiaosmagarcia12","gender":"1","school":"6","age":"10"},{"start_time":1551891503784,"click_time":1551891505729,"finger_time":1551891505290,"fix_duration":513.9857889338149,"trial":29,"RT":1506,"MT":439,"sideResp":1,"stimulus":[],"xmouse":[776,776,776,776,776,776,776,776,776,776,776,776,776,776,776,776,776,776,776,776,776,776,776,776,776,776,776,776,776,776,776,776,776,776,776,776,776,776,776,776,776,776,776,776,776,776,776,776,776,776,776,776,776,776,776,776,776,776,776,776,776,776,776,776,776,776,776,776,776,776,776,776,775,773,769,765,761,751,738,728,705,669,604,594,592,584,575,557,549,543,536,528,523,516,509,505,498,488],"ymouse":[610,610,610,610,610,610,610,610,610,610,610,610,610,610,610,610,610,610,610,610,610,610,610,610,610,610,610,610,610,610,610,610,610,610,610,610,610,610,610,610,610,610,610,610,610,610,610,610,610,610,610,610,610,610,610,610,610,610,610,610,610,610,610,610,610,610,610,610,610,610,610,610,607,596,583,568,556,518,480,445,391,320,222,208,206,188,172,146,138,136,136,136,136,133,127,122,110,89],"timestamp_mouse":[11,34,46,65,87,105,126,147,165,186,207,227,245,266,285,306,325,345,367,386,406,425,445,465,487,507,525,546,565,586,605,625,646,665,686,705,726,746,765,786,805,826,846,865,886,905,926,947,965,986,1006,1027,1046,1066,1085,1105,1126,1146,1166,1186,1206,1227,1245,1265,1285,1306,1326,1346,1366,1386,1405,1426,1445,1466,1486,1506,1526,1545,1565,1585,1606,1625,1645,1665,1686,1705,1725,1746,1766,1785,1807,1825,1845,1865,1886,1905,1925,1945],"xSR":741.5,"ySR":573.95,"xT1":424.9,"yT1":0,"xT2":1058.1,"yT2":0,"toosoon":0,"cond_shown":"Congruent","ratio_trial":200,"L_num":4,"L_den":10,"R_num":3,"R_den":15,"correct_side":1,"subjID":"isabellsophiaosmagarcia12","gender":"1","school":"6","age":"10"},{"start_time":1551891508742,"click_time":1551891509990,"finger_time":1551891509830,"fix_duration":332.1417514573125,"trial":30,"RT":1088,"MT":160,"sideResp":2,"stimulus":[],"xmouse":[779,779,779,779,779,779,779,779,779,779,779,779,779,779,779,779,779,779,779,779,779,779,779,779,779,779,779,779,779,779,779,779,779,779,779,779,779,779,779,779,779,779,779,779,779,779,779,779,779,779,779,779,779,789,873,906,938,964,992,1013,1048,1056,1060],"ymouse":[619,619,619,619,619,619,619,619,619,619,619,619,619,619,619,619,619,619,619,619,619,619,619,619,619,619,619,619,619,619,619,619,619,619,619,619,619,619,619,619,619,619,619,619,619,619,619,619,619,619,619,619,619,591,447,389,330,290,242,200,126,105,91],"timestamp_mouse":[9,28,47,69,87,107,127,147,167,187,208,228,248,267,287,307,327,347,368,388,409,428,448,468,488,508,528,548,567,588,607,627,648,669,687,707,727,747,768,788,807,828,849,868,888,909,928,947,967,987,1008,1027,1047,1067,1088,1107,1127,1147,1168,1187,1207,1227,1248],"xSR":741.5,"ySR":573.95,"xT1":424.9,"yT1":0,"xT2":1058.1,"yT2":0,"toosoon":0,"cond_shown":"Incongruent","ratio_trial":100,"L_num":8,"L_den":20,"R_num":1,"R_den":2,"correct_side":2,"subjID":"isabellsophiaosmagarcia12","gender":"1","school":"6","age":"10"},{"start_time":1551891511842,"click_time":1551891513610,"finger_time":1551891513050,"fix_duration":250,"trial":31,"RT":1208,"MT":560,"sideResp":1,"stimulus":[],"xmouse":[822,822,822,822,822,822,822,822,822,822,822,822,822,822,822,822,822,822,822,822,822,822,822,822,822,822,822,822,822,822,822,822,822,822,822,822,822,822,822,822,822,822,822,822,822,822,822,822,822,822,822,822,822,822,822,822,819,818,818,808,803,799,792,785,774,760,749,742,727,692,678,663,645,623,579,559,555,544,537,533,533,533,533,533,533,532,532,532,521],"ymouse":[630,631,631,631,631,631,631,631,631,631,631,631,631,631,631,631,631,631,631,631,631,631,631,631,631,631,631,631,631,631,631,631,631,631,631,631,631,631,631,631,631,631,631,631,631,631,631,631,631,631,631,631,631,631,631,631,625,617,614,582,566,553,533,512,485,455,434,422,400,350,330,314,293,269,222,201,195,176,154,105,94,88,83,81,80,78,78,78,76],"timestamp_mouse":[12,37,47,67,87,109,127,147,167,187,208,228,248,268,287,309,328,348,368,388,407,427,447,468,487,507,528,548,569,587,608,627,648,667,687,708,727,749,768,788,808,828,847,869,887,907,928,947,967,987,1007,1027,1047,1068,1087,1107,1127,1148,1168,1187,1208,1228,1247,1267,1287,1307,1327,1348,1367,1387,1407,1428,1449,1467,1487,1508,1528,1547,1568,1587,1607,1628,1648,1667,1689,1709,1727,1748,1767],"xSR":741.5,"ySR":573.95,"xT1":424.9,"yT1":0,"xT2":1058.1,"yT2":0,"toosoon":0,"cond_shown":"Incongruent","ratio_trial":200,"L_num":4,"L_den":5,"R_num":6,"R_den":10,"correct_side":1,"subjID":"isabellsophiaosmagarcia12","gender":"1","school":"6","age":"10"},{"start_time":1551891516579,"click_time":1551891518790,"finger_time":1551891518289,"fix_duration":627.9851673228043,"trial":32,"RT":1710,"MT":501,"sideResp":2,"stimulus":[],"xmouse":[778,778,778,778,778,778,778,778,778,778,778,778,778,778,778,778,778,778,778,778,778,778,778,778,778,778,778,778,778,778,778,778,778,778,778,778,778,778,778,778,778,778,778,778,778,778,778,778,778,778,778,778,778,778,778,778,778,778,778,778,778,778,778,778,778,778,778,778,779,784,792,797,798,799,804,810,813,814,814,814,814,814,814,815,818,824,824,831,835,842,846,853,854,874,886,888,890,898,928,938,957,958,1007,1013,1034,1053,1067,1088,1099,1104,1110],"ymouse":[635,635,635,635,635,635,635,635,635,635,635,635,635,635,635,635,635,635,635,635,635,635,635,635,635,635,635,635,635,635,635,635,635,635,635,635,635,635,635,635,635,635,635,635,635,635,635,635,635,635,635,635,635,635,635,635,635,635,635,635,635,635,635,635,635,635,635,635,634,628,618,613,612,611,605,599,595,594,592,592,592,592,592,589,581,568,568,560,554,544,540,532,530,505,486,480,476,465,423,409,378,375,311,302,277,247,217,165,130,105,78],"timestamp_mouse":[20,40,52,70,91,110,130,152,171,190,212,230,250,270,290,312,331,350,371,390,410,430,450,470,491,510,530,550,570,590,610,630,651,670,690,712,730,750,770,792,811,830,850,870,890,910,930,950,970,990,1011,1032,1050,1072,1090,1110,1131,1150,1171,1190,1210,1230,1250,1271,1291,1310,1330,1350,1370,1390,1410,1430,1450,1470,1490,1511,1531,1550,1570,1590,1610,1630,1650,1671,1690,1710,1730,1750,1770,1790,1810,1831,1850,1870,1891,1910,1931,1950,1970,1990,2010,2031,2050,2070,2091,2110,2130,2150,2170,2191,2211],"xSR":741.5,"ySR":573.95,"xT1":424.9,"yT1":0,"xT2":1058.1,"yT2":0,"toosoon":0,"cond_shown":"Incongruent","ratio_trial":100,"L_num":2,"L_den":4,"R_num":6,"R_den":15,"correct_side":1,"subjID":"isabellsophiaosmagarcia12","gender":"1","school":"6","age":"10"},{"start_time":1551891520381,"click_time":1551891521829,"finger_time":1551891521629,"fix_duration":250,"trial":33,"RT":1248,"MT":200,"sideResp":2,"stimulus":[],"xmouse":[779,779,779,779,779,779,779,779,779,779,779,779,779,779,779,779,779,779,779,779,779,779,779,779,779,779,779,779,779,779,779,779,779,779,779,779,779,779,779,779,779,779,779,779,779,779,779,779,779,779,779,779,779,779,779,779,779,779,779,779,780,782,811,828,849,868,870,916,954,988,1019,1049,1095],"ymouse":[603,603,603,603,603,603,603,603,603,603,603,603,603,603,603,603,603,603,603,603,603,603,603,603,603,603,603,603,603,603,603,603,603,603,603,603,603,603,603,603,603,603,603,603,603,603,603,603,603,603,603,603,603,603,603,603,603,603,603,603,601,592,516,475,422,381,379,322,274,227,183,140,71],"timestamp_mouse":[10,34,48,69,88,108,129,148,169,189,209,229,249,270,288,308,328,348,368,390,408,429,450,469,489,510,528,550,568,588,608,628,648,668,688,709,729,748,768,788,808,828,848,868,888,908,928,948,968,989,1010,1029,1049,1069,1090,1109,1128,1149,1168,1190,1208,1228,1248,1268,1288,1308,1328,1348,1368,1388,1408,1428,1448],"xSR":741.5,"ySR":573.95,"xT1":424.9,"yT1":0,"xT2":1058.1,"yT2":0,"toosoon":0,"cond_shown":"Incongruent","ratio_trial":100,"L_num":17,"L_den":30,"R_num":10,"R_den":15,"correct_side":2,"subjID":"isabellsophiaosmagarcia12","gender":"1","school":"6","age":"10"},{"start_time":1551891523450,"click_time":1551891524989,"finger_time":1551891524650,"fix_duration":818.2294934845012,"trial":34,"RT":1200,"MT":339,"sideResp":2,"stimulus":[],"xmouse":[790,790,790,790,790,790,790,790,790,790,790,790,790,790,790,790,790,790,790,790,790,790,790,790,790,790,790,790,790,790,790,790,790,790,790,790,790,790,790,790,790,790,790,790,790,790,790,790,790,790,790,790,790,790,790,790,790,790,790,796,808,829,843,862,925,938,965,985,994,1028,1043,1050,1054,1056,1057,1057,1057,1059],"ymouse":[618,618,618,618,618,618,618,618,618,618,618,618,618,618,618,618,618,618,618,618,618,618,618,618,618,618,618,618,618,618,618,618,618,618,618,618,618,618,618,618,618,618,618,618,618,618,618,618,618,618,618,618,618,618,618,618,618,618,614,579,551,507,474,429,306,284,234,196,182,136,118,104,94,89,87,87,87,84],"timestamp_mouse":[1,36,40,59,79,100,119,141,160,179,199,219,240,261,279,299,321,339,359,380,400,419,439,461,479,499,521,540,559,580,599,619,640,661,679,699,720,741,760,781,800,820,841,859,880,900,920,939,959,980,999,1019,1040,1059,1080,1100,1119,1139,1159,1179,1200,1220,1239,1259,1280,1299,1319,1339,1359,1379,1399,1420,1439,1459,1479,1501,1521,1539],"xSR":741.5,"ySR":573.95,"xT1":424.9,"yT1":0,"xT2":1058.1,"yT2":0,"toosoon":0,"cond_shown":"Congruent","ratio_trial":100,"L_num":15,"L_den":25,"R_num":13,"R_den":26,"correct_side":1,"subjID":"isabellsophiaosmagarcia12","gender":"1","school":"6","age":"10"},{"start_time":1551891527194,"click_time":1551891528430,"finger_time":1551891528010,"fix_duration":1363.6884336504343,"trial":35,"RT":816,"MT":420,"sideResp":2,"stimulus":[],"xmouse":[771,771,771,771,771,771,771,771,771,771,771,771,771,771,771,771,771,771,771,771,771,771,771,771,771,771,771,771,771,771,771,771,771,771,771,771,771,771,771,779,797,832,858,885,904,921,943,994,1011,1023,1033,1053,1056,1061,1070,1074,1075,1075,1075,1075,1075,1076],"ymouse":[603,603,603,603,603,603,603,603,603,603,603,603,603,603,603,603,603,603,603,603,603,603,603,603,603,603,603,603,603,603,603,603,603,603,603,603,603,603,603,581,545,487,441,382,336,298,242,121,83,53,31,0,0,0,0,0,0,0,0,0,0,5],"timestamp_mouse":[16,36,56,76,95,116,136,155,175,195,215,236,255,276,295,315,335,355,375,395,416,435,457,476,496,516,535,555,576,596,616,635,657,675,695,716,735,756,775,796,816,835,855,876,896,917,935,955,975,995,1015,1035,1056,1077,1097,1116,1136,1157,1176,1197,1216,1236],"xSR":741.5,"ySR":573.95,"xT1":424.9,"yT1":0,"xT2":1058.1,"yT2":0,"toosoon":0,"cond_shown":"Incongruent","ratio_trial":300,"L_num":13,"L_den":26,"R_num":12,"R_den":15,"correct_side":2,"subjID":"isabellsophiaosmagarcia12","gender":"1","school":"6","age":"10"},{"start_time":1551891530312,"click_time":1551891532249,"finger_time":1551891531050,"fix_duration":841.4906723354115,"trial":36,"RT":738,"MT":1199,"sideResp":1,"stimulus":[],"xmouse":[805,805,805,805,805,805,805,805,805,805,805,805,805,805,805,805,805,805,805,805,805,805,805,805,805,805,805,805,805,805,805,805,805,805,805,809,813,814,815,818,826,833,843,860,910,948,961,967,968,968,968,968,968,968,968,968,968,968,968,968,968,968,965,958,940,915,802,781,759,713,675,659,656,654,654,654,654,654,650,618,550,394,321,296,292,291,295,309,324,338,349,363,363,368,386,412,426],"ymouse":[599,599,599,599,599,599,599,599,599,599,599,599,599,599,599,599,599,599,599,599,599,599,599,599,599,599,599,599,599,599,599,599,599,599,593,581,572,567,563,557,539,522,506,470,374,303,275,262,259,259,259,259,259,259,259,259,259,259,259,259,259,259,258,256,252,246,228,224,216,198,175,160,156,152,152,152,152,152,151,144,125,85,64,53,49,48,46,43,40,38,36,35,35,34,33,33,33],"timestamp_mouse":[33,37,58,78,97,118,137,157,177,198,218,237,259,277,297,318,338,357,378,397,417,437,457,478,497,518,537,559,578,598,617,637,658,679,698,717,738,757,777,798,817,837,857,878,898,917,937,958,977,998,1019,1037,1057,1078,1097,1117,1137,1158,1177,1198,1217,1237,1258,1277,1298,1317,1337,1357,1377,1399,1417,1437,1457,1479,1498,1518,1538,1557,1578,1598,1617,1637,1657,1677,1698,1717,1737,1758,1778,1798,1818,1837,1858,1878,1898,1917,1937],"xSR":741.5,"ySR":573.95,"xT1":424.9,"yT1":0,"xT2":1058.1,"yT2":0,"toosoon":0,"cond_shown":"Congruent","ratio_trial":300,"L_num":8,"L_den":16,"R_num":1,"R_den":5,"correct_side":1,"subjID":"isabellsophiaosmagarcia12","gender":"1","school":"6","age":"10"},{"start_time":1551891533873,"click_time":1551891535570,"finger_time":1551891535110,"fix_duration":640.9805488814925,"trial":37,"RT":1237,"MT":460,"sideResp":2,"stimulus":[],"xmouse":[748,748,748,748,748,748,748,748,748,748,748,748,748,748,748,748,748,748,748,748,748,748,748,748,748,748,748,748,748,748,748,748,748,748,748,748,748,748,748,748,748,748,748,748,748,748,748,748,748,748,748,748,748,748,748,748,748,748,748,758,781,799,822,827,827,830,842,902,946,998,1004,1005,1017,1026,1030,1037,1044,1045,1045,1045,1045,1045,1045,1052,1069],"ymouse":[623,623,623,623,623,623,623,623,623,623,623,623,623,623,623,623,623,623,623,623,623,623,623,623,623,623,623,623,623,623,623,623,623,623,623,623,623,623,623,623,623,623,623,623,623,623,623,623,623,623,623,623,623,623,623,623,623,623,623,619,593,570,542,536,534,532,512,403,319,228,216,214,191,163,146,127,98,93,93,93,93,93,93,83,70],"timestamp_mouse":[16,39,57,77,96,117,137,156,176,198,216,237,257,276,297,317,336,357,377,396,416,436,456,477,497,517,537,556,577,597,616,636,656,678,696,716,736,757,776,797,816,838,856,876,897,916,937,957,976,997,1017,1037,1058,1077,1098,1117,1138,1158,1176,1196,1218,1237,1256,1276,1297,1316,1336,1357,1376,1396,1417,1437,1457,1476,1497,1517,1538,1557,1577,1596,1616,1638,1657,1676,1697],"xSR":741.5,"ySR":573.95,"xT1":424.9,"yT1":0,"xT2":1058.1,"yT2":0,"toosoon":0,"cond_shown":"Incongruent","ratio_trial":100,"L_num":12,"L_den":30,"R_num":2,"R_den":4,"correct_side":2,"subjID":"isabellsophiaosmagarcia12","gender":"1","school":"6","age":"10"},{"start_time":1551891537807,"click_time":1551891539430,"finger_time":1551891539070,"fix_duration":1316.0353319642084,"trial":38,"RT":1263,"MT":360,"sideResp":2,"stimulus":[],"xmouse":[807,807,807,807,807,807,807,807,807,807,807,807,807,807,807,807,807,807,807,807,807,807,807,807,807,807,807,807,807,807,807,807,807,807,807,807,807,807,807,807,807,807,807,807,807,807,807,807,807,807,807,807,807,807,807,807,807,807,807,807,807,807,808,835,874,912,973,993,1000,1021,1035,1043,1045,1046,1046,1047,1047,1049,1050,1056,1061,1077],"ymouse":[632,632,632,632,632,632,632,632,632,632,632,632,632,632,632,632,632,632,632,632,632,632,632,632,632,632,632,632,632,632,632,632,632,632,632,632,632,632,632,632,632,632,632,632,632,632,632,632,632,632,632,632,632,632,632,632,632,632,632,632,632,632,627,571,512,443,315,270,252,199,169,147,142,138,138,137,135,130,125,114,105,82],"timestamp_mouse":[14,35,43,62,83,103,122,143,162,184,203,223,243,263,282,303,324,342,363,383,402,423,444,462,484,502,522,544,563,583,602,624,643,662,683,702,723,742,762,783,804,822,843,862,883,902,924,942,962,982,1003,1023,1042,1063,1083,1103,1122,1144,1162,1182,1202,1222,1242,1263,1283,1302,1322,1343,1363,1382,1402,1422,1442,1463,1483,1503,1522,1544,1562,1583,1602,1623],"xSR":741.5,"ySR":573.95,"xT1":424.9,"yT1":0,"xT2":1058.1,"yT2":0,"toosoon":0,"cond_shown":"Incongruent","ratio_trial":100,"L_num":8,"L_den":20,"R_num":1,"R_den":2,"correct_side":2,"subjID":"isabellsophiaosmagarcia12","gender":"1","school":"6","age":"10"},{"start_time":1551891542601,"click_time":1551891543929,"finger_time":1551891543770,"fix_duration":250,"trial":39,"RT":1169,"MT":159,"sideResp":2,"stimulus":[],"xmouse":[807,807,807,807,807,807,807,807,807,807,807,807,807,807,807,807,807,807,807,807,807,807,807,807,807,807,807,807,807,807,807,807,807,807,807,807,807,807,807,807,807,807,807,807,807,807,807,807,807,807,807,807,807,807,807,807,807,814,844,885,914,991,1015,1037,1051,1059,1074],"ymouse":[634,634,634,634,634,634,634,634,634,634,634,634,634,634,634,634,634,634,634,634,634,634,634,634,634,634,634,634,634,634,634,634,634,634,634,634,634,634,634,634,634,634,634,634,634,634,634,634,634,634,634,634,634,634,634,634,634,607,570,507,459,309,255,199,162,129,79],"timestamp_mouse":[10,34,48,68,88,109,129,150,169,188,208,228,249,270,288,308,328,349,368,389,408,429,448,470,489,508,529,549,568,588,609,628,648,669,688,708,729,748,769,788,808,829,848,868,889,908,929,948,968,988,1009,1028,1048,1069,1088,1109,1128,1148,1169,1188,1209,1228,1248,1269,1288,1308,1328],"xSR":741.5,"ySR":573.95,"xT1":424.9,"yT1":0,"xT2":1058.1,"yT2":0,"toosoon":0,"cond_shown":"Incongruent","ratio_trial":100,"L_num":12,"L_den":30,"R_num":2,"R_den":4,"correct_side":2,"subjID":"isabellsophiaosmagarcia12","gender":"1","school":"6","age":"10"},{"start_time":1551891546535,"click_time":1551891549311,"finger_time":1551891547909,"fix_duration":543.9248404306009,"trial":40,"RT":1374,"MT":1402,"sideResp":1,"stimulus":[],"xmouse":[794,794,794,794,794,794,794,794,794,794,794,794,794,794,794,794,794,794,794,794,794,794,794,794,794,794,794,794,794,794,794,794,794,794,794,794,794,794,794,794,794,794,794,794,794,794,794,794,794,794,794,794,794,794,794,794,794,794,794,794,794,794,794,794,794,794,793,789,778,753,727,700,675,658,644,644,644,644,644,644,643,639,630,625,605,598,595,594,592,590,588,585,584,583,582,582,582,582,584,593,598,652,674,738,767,854,875,877,899,923,926,929,934,935,935,935,935,935,935,935,934,923,902,849,762,703,665,640,613,589,585,584,582,581,569,562,551,532,509],"ymouse":[590,590,590,590,590,590,590,590,590,590,590,590,590,590,590,590,590,590,590,590,590,590,590,590,590,590,590,590,590,590,590,590,590,590,590,590,590,590,590,590,590,590,590,590,590,590,590,590,590,590,590,590,590,590,590,590,590,590,590,590,590,590,590,590,590,590,589,581,562,516,482,443,410,388,372,370,370,370,370,370,369,360,345,333,308,301,298,296,293,290,285,280,278,276,275,275,275,274,271,264,260,241,235,215,206,179,174,173,167,158,157,156,153,153,153,153,153,153,153,153,153,152,150,142,132,123,118,116,111,105,103,101,98,93,80,78,75,73,70],"timestamp_mouse":[15,35,54,74,94,114,134,155,174,194,214,234,255,275,294,315,334,355,374,395,414,434,454,474,494,514,534,554,574,594,614,635,655,675,695,714,734,756,774,796,814,834,854,875,894,914,935,954,974,994,1014,1034,1054,1074,1094,1114,1134,1155,1174,1195,1214,1234,1254,1274,1296,1314,1334,1355,1374,1394,1414,1434,1454,1475,1494,1514,1534,1554,1575,1594,1614,1634,1655,1674,1694,1715,1734,1754,1775,1794,1815,1835,1855,1874,1895,1915,1934,1954,1974,1994,2014,2034,2054,2074,2094,2114,2135,2154,2175,2194,2214,2235,2255,2275,2296,2315,2334,2354,2375,2395,2414,2435,2455,2474,2494,2514,2535,2554,2574,2594,2614,2634,2655,2674,2694,2714,2735,2754,2775],"xSR":741.5,"ySR":573.95,"xT1":424.9,"yT1":0,"xT2":1058.1,"yT2":0,"toosoon":0,"cond_shown":"Congruent","ratio_trial":300,"L_num":3,"L_den":6,"R_num":2,"R_den":10,"correct_side":1,"subjID":"isabellsophiaosmagarcia12","gender":"1","school":"6","age":"10"},{"start_time":1551891550984,"click_time":1551891552429,"finger_time":1551891552029,"fix_duration":392.58976678242175,"trial":41,"RT":1045,"MT":400,"sideResp":1,"stimulus":[],"xmouse":[777,777,777,777,777,777,777,777,777,777,777,777,777,777,777,777,777,777,777,777,777,777,777,777,777,777,777,777,777,777,777,777,777,777,777,777,777,777,777,777,777,777,777,777,777,777,777,777,777,777,777,773,745,728,704,676,642,599,533,501,474,440,426,416,409,405,404,404,406,408,411,423,449],"ymouse":[618,618,618,618,618,618,618,618,618,618,618,618,618,618,618,618,618,618,618,618,618,618,618,618,618,618,618,618,618,618,618,618,618,618,618,618,618,618,618,618,618,618,618,618,618,618,618,618,618,618,618,614,564,540,507,470,430,377,284,231,190,142,118,99,82,70,65,56,52,49,47,44,41],"timestamp_mouse":[8,38,45,65,86,105,125,145,166,185,207,225,246,265,285,305,325,347,366,386,405,425,446,465,486,505,526,545,565,586,605,625,647,665,687,705,725,746,765,785,806,825,846,865,885,906,925,945,965,986,1005,1025,1045,1069,1086,1106,1126,1145,1165,1185,1206,1226,1245,1266,1285,1305,1325,1345,1365,1385,1406,1426,1445],"xSR":741.5,"ySR":573.95,"xT1":424.9,"yT1":0,"xT2":1058.1,"yT2":0,"toosoon":0,"cond_shown":"Congruent","ratio_trial":200,"L_num":7,"L_den":21,"R_num":2,"R_den":15,"correct_side":1,"subjID":"isabellsophiaosmagarcia12","gender":"1","school":"6","age":"10"},{"start_time":1551891555724,"click_time":1551891557470,"finger_time":1551891556470,"fix_duration":1112.9675448065811,"trial":42,"RT":746,"MT":1000,"sideResp":2,"stimulus":[],"xmouse":[804,804,804,804,804,804,804,804,804,804,804,804,804,804,804,804,804,804,804,804,804,804,804,804,804,804,804,804,804,804,804,804,804,804,804,806,810,818,828,835,844,847,848,849,849,849,849,849,849,849,849,849,849,849,849,849,849,849,849,849,843,838,834,825,824,823,823,823,823,823,823,823,831,852,870,946,973,991,1006,1018,1026,1036,1039,1045,1049,1077,1081,1082],"ymouse":[601,601,601,601,601,601,601,601,601,601,601,601,601,601,601,601,601,601,601,601,601,601,601,601,601,601,601,601,601,601,601,601,601,601,601,599,589,570,548,529,502,494,491,488,488,488,488,488,488,488,488,488,488,488,488,488,488,487,487,483,464,457,449,439,436,435,435,435,435,435,435,434,424,406,385,294,260,228,206,187,174,161,157,150,148,115,104,98],"timestamp_mouse":[10,36,45,65,86,105,125,145,166,185,205,225,245,265,285,305,325,345,367,385,405,425,446,466,485,506,525,546,565,585,605,625,647,666,687,705,725,746,765,786,805,826,845,865,885,906,925,946,966,985,1005,1025,1045,1065,1086,1106,1125,1145,1165,1185,1205,1225,1245,1265,1285,1305,1326,1345,1365,1385,1406,1425,1445,1466,1485,1505,1526,1545,1565,1585,1605,1625,1645,1665,1685,1705,1725,1745],"xSR":741.5,"ySR":573.95,"xT1":424.9,"yT1":0,"xT2":1058.1,"yT2":0,"toosoon":0,"cond_shown":"Incongruent","ratio_trial":200,"L_num":7,"L_den":10,"R_num":8,"R_den":16,"correct_side":1,"subjID":"isabellsophiaosmagarcia12","gender":"1","school":"6","age":"10"},{"start_time":1551891558742,"click_time":1551891560790,"finger_time":1551891560509,"fix_duration":250,"trial":43,"RT":1767,"MT":281,"sideResp":1,"stimulus":[],"xmouse":[828,828,828,828,828,828,828,828,828,828,828,828,828,828,828,828,828,828,828,828,828,828,828,828,828,828,828,828,828,828,828,828,828,828,828,828,828,828,828,828,828,828,828,828,828,828,830,830,830,830,830,830,830,830,830,830,830,830,832,832,832,832,832,832,832,832,832,832,832,832,832,832,832,832,832,832,832,832,832,832,832,832,832,832,832,832,832,829,820,803,788,768,743,704,659,644,633,614,593,548,518,490,467],"ymouse":[617,617,617,617,617,617,617,617,617,617,617,617,617,617,617,617,617,617,617,617,617,617,617,617,617,617,617,617,617,617,617,617,617,617,617,617,617,617,617,617,617,617,617,617,617,616,609,605,603,601,600,600,600,600,600,600,599,596,593,591,591,591,591,591,591,591,591,591,591,591,591,591,591,591,591,591,591,591,591,591,591,591,591,591,591,589,588,582,569,538,517,483,439,370,303,287,271,244,217,167,137,109,88],"timestamp_mouse":[8,44,47,67,87,107,128,147,168,188,207,227,248,268,287,308,327,347,368,388,407,427,448,467,487,507,527,549,568,587,608,628,647,667,688,707,728,747,768,787,808,828,848,868,889,907,927,948,968,987,1007,1027,1048,1069,1087,1107,1127,1148,1168,1189,1207,1227,1247,1267,1287,1307,1328,1347,1367,1387,1407,1428,1447,1467,1487,1507,1528,1548,1568,1587,1607,1628,1647,1668,1687,1707,1728,1747,1767,1787,1808,1827,1847,1867,1888,1907,1928,1948,1968,1988,2008,2027,2048],"xSR":741.5,"ySR":573.95,"xT1":424.9,"yT1":0,"xT2":1058.1,"yT2":0,"toosoon":0,"cond_shown":"Incongruent","ratio_trial":200,"L_num":4,"L_den":30,"R_num":1,"R_den":3,"correct_side":2,"subjID":"isabellsophiaosmagarcia12","gender":"1","school":"6","age":"10"},{"start_time":1551891563264,"click_time":1551891565089,"finger_time":1551891564729,"fix_duration":833.8634022002826,"trial":44,"RT":1465,"MT":360,"sideResp":1,"stimulus":[],"xmouse":[766,766,766,766,766,766,766,766,766,766,766,766,766,766,766,766,766,766,766,766,766,766,766,766,766,766,766,766,766,766,766,766,766,766,766,766,766,766,766,766,766,766,766,766,766,766,766,766,766,766,766,766,766,766,766,766,766,766,766,766,766,766,766,766,766,766,766,766,766,766,766,766,766,752,726,692,648,615,550,550,544,540,531,515,510,508,506,505,499,494,488,484],"ymouse":[596,596,596,596,596,596,596,596,596,596,596,596,596,596,596,596,596,596,596,596,596,596,596,596,596,596,596,596,596,596,596,596,596,596,596,596,596,596,596,596,596,596,596,596,596,596,596,596,596,596,596,596,596,596,596,596,596,596,596,596,596,596,596,596,596,596,596,596,596,596,596,596,596,567,524,477,426,391,319,319,309,302,280,244,232,221,209,198,151,129,111,97],"timestamp_mouse":[10,31,45,65,85,107,126,146,166,187,206,226,245,265,285,306,325,346,366,385,406,426,445,466,486,506,526,545,566,585,606,625,645,665,685,705,726,745,765,786,805,825,847,866,885,906,925,946,965,985,1006,1025,1045,1066,1086,1105,1125,1145,1165,1185,1205,1226,1245,1265,1285,1306,1325,1345,1365,1385,1405,1425,1445,1465,1486,1506,1525,1545,1565,1586,1605,1626,1646,1665,1686,1706,1725,1746,1765,1785,1805,1825],"xSR":741.5,"ySR":573.95,"xT1":424.9,"yT1":0,"xT2":1058.1,"yT2":0,"toosoon":0,"cond_shown":"Congruent","ratio_trial":100,"L_num":11,"L_den":22,"R_num":4,"R_den":10,"correct_side":1,"subjID":"isabellsophiaosmagarcia12","gender":"1","school":"6","age":"10"},{"start_time":1551891567612,"click_time":1551891568909,"finger_time":1551891568570,"fix_duration":1260.3432454612691,"trial":45,"RT":958,"MT":339,"sideResp":1,"stimulus":[],"xmouse":[796,796,796,796,796,796,796,796,796,796,796,796,796,796,796,796,796,796,796,796,796,796,796,796,796,796,796,796,796,796,796,796,796,796,796,796,796,796,796,796,796,796,796,796,796,796,796,796,796,795,760,727,692,661,629,590,577,570,565,561,551,548,541,529,512],"ymouse":[589,589,589,589,589,589,589,589,589,589,589,589,589,589,589,589,589,589,589,589,589,589,589,589,589,589,589,589,589,589,589,589,589,589,589,589,589,589,589,589,589,589,589,589,589,589,583,573,556,533,454,412,368,330,293,239,218,201,188,177,152,146,136,118,99],"timestamp_mouse":[34,39,57,78,97,118,137,158,177,197,219,238,257,279,298,318,338,358,378,398,417,437,458,478,498,518,538,558,578,597,617,637,657,677,697,717,737,758,777,797,817,837,858,879,898,917,938,958,977,998,1018,1037,1058,1078,1097,1117,1138,1157,1178,1198,1218,1237,1257,1277,1297],"xSR":741.5,"ySR":573.95,"xT1":424.9,"yT1":0,"xT2":1058.1,"yT2":0,"toosoon":0,"cond_shown":"Incongruent","ratio_trial":200,"L_num":1,"L_den":2,"R_num":3,"R_den":10,"correct_side":1,"subjID":"isabellsophiaosmagarcia12","gender":"1","school":"6","age":"10"},{"start_time":1551891571119,"click_time":1551891572750,"finger_time":1551891572110,"fix_duration":288.10544152637505,"trial":46,"RT":991,"MT":640,"sideResp":2,"stimulus":[],"xmouse":[765,765,765,765,765,765,765,765,765,765,765,765,765,765,765,765,765,765,765,765,765,765,766,766,766,766,766,766,766,766,766,766,766,766,766,768,769,770,772,775,781,782,783,784,785,787,788,801,821,836,869,884,899,908,919,928,935,942,950,957,964,969,977,987,997,1018,1021,1021,1021,1025,1038,1049,1056,1056,1056,1056,1056,1056,1058,1058,1062,1068],"ymouse":[629,629,629,629,629,629,629,629,629,629,629,629,629,629,629,629,629,629,629,629,629,629,629,629,629,629,629,629,629,629,629,629,629,629,629,627,626,626,624,621,614,613,612,611,610,608,608,599,583,569,521,493,465,442,417,389,367,344,316,292,271,248,223,199,182,152,148,148,148,145,137,131,126,126,126,126,126,126,123,123,112,99],"timestamp_mouse":[11,40,50,70,90,112,130,151,170,191,210,230,250,270,290,310,330,350,371,390,410,430,451,470,490,511,531,551,572,591,610,631,651,671,690,710,731,750,771,791,811,830,850,870,890,910,931,950,970,991,1011,1030,1050,1071,1090,1110,1130,1150,1171,1190,1211,1230,1250,1270,1291,1310,1330,1350,1371,1391,1410,1431,1450,1470,1491,1510,1531,1552,1570,1590,1610,1631],"xSR":741.5,"ySR":573.95,"xT1":424.9,"yT1":0,"xT2":1058.1,"yT2":0,"toosoon":0,"cond_shown":"Incongruent","ratio_trial":100,"L_num":13,"L_den":26,"R_num":6,"R_den":10,"correct_side":2,"subjID":"isabellsophiaosmagarcia12","gender":"1","school":"6","age":"10"},{"start_time":1551891574894,"click_time":1551891575929,"finger_time":1551891575769,"fix_duration":963.7907014504614,"trial":47,"RT":875,"MT":160,"sideResp":2,"stimulus":[],"xmouse":[789,789,789,789,789,789,789,789,789,789,789,789,789,789,789,789,789,789,789,789,789,789,789,789,789,789,789,789,789,789,789,789,789,789,789,789,789,789,789,789,789,789,811,855,909,953,1009,1025,1042,1074,1096,1121],"ymouse":[614,614,614,614,614,614,614,614,614,614,614,614,614,614,614,614,614,614,614,614,614,614,614,614,614,614,614,614,614,614,614,614,614,614,614,614,614,614,614,614,614,614,583,532,456,389,287,257,221,158,119,68],"timestamp_mouse":[16,35,55,75,95,115,135,155,175,195,216,236,255,276,295,315,336,355,375,395,415,435,455,476,496,515,536,555,576,595,615,635,656,676,695,716,736,755,775,795,815,836,855,875,896,916,935,956,975,996,1016,1035],"xSR":741.5,"ySR":573.95,"xT1":424.9,"yT1":0,"xT2":1058.1,"yT2":0,"toosoon":0,"cond_shown":"Incongruent","ratio_trial":300,"L_num":13,"L_den":26,"R_num":12,"R_den":15,"correct_side":2,"subjID":"isabellsophiaosmagarcia12","gender":"1","school":"6","age":"10"},{"start_time":1551891577220,"click_time":1551891578290,"finger_time":1551891577969,"fix_duration":250,"trial":48,"RT":749,"MT":321,"sideResp":1,"stimulus":[],"xmouse":[777,777,777,777,777,777,777,777,777,777,777,777,777,777,777,777,777,777,777,777,777,777,777,777,777,777,777,777,777,777,777,777,777,777,777,774,764,738,727,710,640,610,582,566,555,537,526,524,513,500,492,481,481,479],"ymouse":[609,609,609,609,609,609,609,609,609,609,609,609,609,609,609,609,609,609,609,609,609,609,609,609,609,609,609,609,609,609,609,609,609,609,609,601,582,544,528,505,412,372,340,320,304,277,258,255,237,206,184,128,125,95],"timestamp_mouse":[10,40,50,70,90,111,130,150,169,189,209,229,250,269,290,310,329,350,369,390,409,429,449,469,489,511,529,550,569,590,609,629,649,669,690,709,729,749,770,789,809,829,851,869,890,909,929,950,970,989,1009,1030,1050,1070],"xSR":741.5,"ySR":573.95,"xT1":424.9,"yT1":0,"xT2":1058.1,"yT2":0,"toosoon":0,"cond_shown":"Incongruent","ratio_trial":300,"L_num":8,"L_den":10,"R_num":9,"R_den":18,"correct_side":1,"subjID":"isabellsophiaosmagarcia12","gender":"1","school":"6","age":"10"},{"start_time":1551891579403,"click_time":1551891580970,"finger_time":1551891580549,"fix_duration":252.95099946362998,"trial":49,"RT":1146,"MT":421,"sideResp":1,"stimulus":[],"xmouse":[814,814,814,814,814,814,814,814,814,814,814,814,814,814,814,814,814,814,814,814,814,814,814,814,814,814,814,814,814,814,814,814,814,814,814,814,814,814,814,814,816,821,822,824,824,825,828,828,829,829,829,829,829,829,829,829,829,824,813,794,771,703,664,627,598,578,554,549,546,546,546,546,544,544,542,538,531,524,512],"ymouse":[625,625,625,625,625,625,625,625,625,625,625,625,625,625,625,625,625,625,625,625,625,625,625,625,625,625,625,625,625,625,625,625,625,625,625,625,620,618,617,616,610,599,594,592,589,587,582,581,580,580,580,580,580,579,579,579,576,569,559,543,516,431,381,336,297,275,240,230,223,222,222,221,212,194,173,149,124,109,88],"timestamp_mouse":[8,43,46,67,86,106,126,146,166,187,206,227,247,266,287,307,326,346,366,386,406,426,447,466,486,506,526,547,566,586,606,627,646,666,687,707,726,747,766,786,806,827,847,867,887,906,927,946,967,986,1006,1027,1046,1066,1087,1106,1126,1146,1167,1186,1206,1226,1246,1266,1287,1308,1326,1346,1366,1386,1406,1426,1446,1466,1487,1506,1526,1546,1567],"xSR":741.5,"ySR":573.95,"xT1":424.9,"yT1":0,"xT2":1058.1,"yT2":0,"toosoon":0,"cond_shown":"Congruent","ratio_trial":300,"L_num":11,"L_den":22,"R_num":2,"R_den":10,"correct_side":1,"subjID":"isabellsophiaosmagarcia12","gender":"1","school":"6","age":"10"},{"start_time":1551891582481,"click_time":1551891583430,"finger_time":1551891583030,"fix_duration":609.4508679374767,"trial":50,"RT":549,"MT":400,"sideResp":2,"stimulus":[],"xmouse":[810,810,810,810,810,810,810,810,810,810,810,810,810,810,810,810,810,810,810,810,810,810,810,810,812,816,837,857,873,882,894,903,920,925,926,928,929,935,945,959,974,990,1005,1028,1037,1045,1057,1080],"ymouse":[643,643,643,643,643,643,643,643,643,643,643,643