[{"start_time":1551801359008,"click_time":1551801361056,"finger_time":1551801360436,"fix_duration":1165.16932303878,"trial":0,"RT":1428,"MT":620,"sideResp":1,"stimulus":"img/500/equaldotsize/L/10_Ratio_500_L_4_R_2.png","xmouse":[780,780,780,780,780,780,780,780,780,780,780,780,780,780,780,780,780,780,780,780,780,780,780,780,780,780,780,780,780,780,780,780,780,780,780,780,780,780,780,780,780,780,780,780,780,780,780,780,780,780,780,781,752,747,747,747,747,747,747,747,747,747,747,747,747,747,747,747,747,747,746,744,711,692,672,664,660,655,651,650,650,648,643,640,635,628,607,598,589,580,574,567,558,557,557,557,557,557,557,556,545,536,513],"ymouse":[515,515,515,515,515,515,515,515,515,515,515,515,515,515,515,515,515,515,515,515,515,515,515,515,515,515,515,515,515,515,515,515,515,515,515,515,515,515,515,515,515,515,515,515,515,515,515,515,515,515,515,513,466,461,461,461,461,461,461,461,461,461,461,461,461,461,461,461,461,461,449,430,358,314,271,248,234,213,205,204,203,201,196,192,183,171,140,124,108,93,82,68,56,55,55,55,55,55,55,55,54,53,48],"timestamp_mouse":[9,35,49,70,89,109,128,148,168,188,208,230,248,269,289,309,329,348,369,389,408,428,448,469,489,508,529,548,569,589,608,630,648,668,689,710,729,750,769,789,808,830,848,868,888,910,928,948,969,989,1010,1029,1048,1068,1089,1110,1128,1148,1168,1188,1208,1230,1250,1269,1290,1310,1328,1349,1370,1389,1408,1428,1448,1468,1488,1508,1529,1548,1570,1589,1609,1628,1648,1669,1688,1709,1729,1749,1769,1788,1808,1828,1849,1868,1888,1909,1929,1949,1970,1990,2008,2028,2048],"xSR":741.5,"ySR":447.2,"xT1":424.9,"yT1":0,"xT2":1058.1,"yT2":0,"toosoon":0,"cond_shown":"equaldotsize","ratio_trial":500,"smaller_num":"2","larger_num":"4","correct_side":1,"subjID":"IsauraHernwndezGomez23","gender":"1","age":"11","school":"6","test":{"fix_dur":[250,1500],"timestim":300,"targets_dim":[100,100],"targets_relative_coord":[0.3,0.7],"size_stim":[880,420],"start_dim":[100,100],"size_start":[300,300],"size_fix":60,"samplingrate":20,"img_types":["equaldotsize","equaldotanddens","randomdotsizeEA"],"ratios":[250,500,750,900],"rep_conds":9,"nTrials":120,"trials_to_rest":500,"Trials_order":[51,80,19,89,99,45,53,16,98,68,78,27,37,83,26,33,41,31,39,56,86,3,47,6,64,0,72,91,8,34,24,73,29,32,109,116,70,113,102,88,107,11,117,82,57,118,115,97,20,13,81,119,61,4,106,67,111,84,75,10,95,112,42,50,93,2,69,105,62,43,96,94,35,12,101,110,103,59,25,49,58,15,23,1,87,55,9,65,22,74,5,54,63,71,90,85,30,104,79,40,76,28,36,14,100,46,38,7,21,44,60,114,66,18,108,17,52,92,77,48],"cond_shown":["equaldotsize","randomdotsizeEA","equaldotanddens","randomdotsizeEA","equaldotsize","equaldotsize","randomdotsizeEA","equaldotanddens","randomdotsizeEA","randomdotsizeEA","equaldotsize","equaldotsize","equaldotanddens","randomdotsizeEA","randomdotsizeEA","equaldotsize","randomdotsizeEA","equaldotanddens","equaldotsize","randomdotsizeEA","randomdotsizeEA","equaldotsize","randomdotsizeEA","equaldotsize","equaldotanddens","equaldotsize","equaldotsize","equaldotanddens","randomdotsizeEA","equaldotanddens","equaldotsize","equaldotanddens","randomdotsizeEA","randomdotsizeEA","equaldotanddens","randomdotsizeEA","equaldotanddens","randomdotsizeEA","equaldotsize","equaldotanddens","randomdotsizeEA","randomdotsizeEA","equaldotsize","equaldotanddens","equaldotsize","equaldotanddens","equaldotanddens","equaldotanddens","randomdotsizeEA","equaldotanddens","equaldotsize","randomdotsizeEA","equaldotanddens","equaldotanddens","equaldotanddens","equaldotanddens","equaldotsize","equaldotsize","equaldotsize","equaldotanddens","randomdotsizeEA","equaldotanddens","equaldotsize","randomdotsizeEA","equaldotsize","randomdotsizeEA","equaldotsize","equaldotsize","randomdotsizeEA","equaldotanddens","equaldotsize","equaldotanddens","randomdotsizeEA","equaldotsize","randomdotsizeEA","randomdotsizeEA","equaldotanddens","randomdotsizeEA","equaldotanddens","equaldotanddens","equaldotanddens","equaldotsize","randomdotsizeEA","equaldotanddens","equaldotsize","equaldotanddens","equaldotsize","randomdotsizeEA","equaldotanddens","randomdotsizeEA","randomdotsizeEA","equaldotsize","equaldotsize","randomdotsizeEA","equaldotsize","equaldotanddens","equaldotsize","randomdotsizeEA","equaldotanddens","equaldotanddens","equaldotanddens","equaldotanddens","equaldotsize","randomdotsizeEA","equaldotanddens","equaldotanddens","randomdotsizeEA","equaldotanddens","equaldotsize","randomdotsizeEA","equaldotsize","equaldotsize","equaldotsize","equaldotsize","equaldotsize","randomdotsizeEA","equaldotanddens","randomdotsizeEA","randomdotsizeEA","equaldotsize"],"ratio_trial":[500,750,750,500,500,900,500,500,250,750,750,500,250,900,250,900,500,750,500,750,250,500,900,750,500,250,250,750,750,900,250,250,500,750,250,750,900,500,750,500,900,900,900,900,900,900,750,250,750,250,900,900,250,500,900,750,500,250,500,900,900,500,750,250,900,250,900,900,250,750,250,900,900,250,500,250,750,900,250,250,900,500,900,250,500,750,900,500,900,250,500,750,500,900,750,250,750,750,750,500,500,500,250,250,500,900,250,750,900,750,250,750,750,750,250,500,500,750,500,250],"smaller_num":["2","18","6","5","10","18","5","6","6","15","3","2","2","9","3","9","4","3","5","18","3","5","9","6","1","4","3","18","15","18","2","6","9","12","3","9","18","9","3","9","18","9","18","9","18","18","3","2","6","2","18","18","4","2","9","3","2","1","5","18","18","9","9","3","18","3","18","18","2","6","3","18","18","6","6","3","15","9","2","3","18","4","9","2","3","15","9","5","9","3","10","6","2","18","18","2","15","9","15","6","2","5","4","6","2","18","6","15","18","3","4","15","18","3","2","10","10","3","9","6"],"larger_num":["4","24","8","10","20","20","10","12","24","20","4","4","8","10","12","10","8","4","10","24","12","10","10","8","2","16","12","24","20","20","8","24","18","16","12","12","20","18","4","18","20","10","20","10","20","20","4","8","8","8","20","20","16","4","10","4","4","4","10","20","20","18","12","12","20","12","20","20","8","8","12","20","20","24","12","12","20","10","8","12","20","8","10","8","6","20","10","10","10","12","20","8","4","20","24","8","20","12","20","12","4","10","16","24","4","20","24","20","20","4","16","20","24","4","8","20","20","4","18","24"],"correct_side":[1,1,2,1,2,1,1,1,1,2,2,1,1,1,2,2,1,2,2,1,2,2,2,1,2,1,1,1,2,1,2,2,2,2,2,2,2,1,1,1,1,2,1,2,2,1,2,1,1,1,1,2,2,1,1,1,1,2,2,1,1,1,2,1,1,2,2,1,1,2,2,1,2,2,1,1,1,2,1,1,1,1,2,1,2,2,2,1,1,1,2,1,1,2,1,1,1,2,2,1,1,1,1,1,1,1,1,1,2,2,2,2,1,2,1,2,2,2,2,1],"img_shown":["img/500/equaldotsize/L/10_Ratio_500_L_4_R_2.png","img/750/randomdotsizeEA/L/6_Ratio_750_L_24_R_18.png","img/750/equaldotanddens/R/2_Ratio_750_L_6_R_8.png","img/500/randomdotsizeEA/L/7_Ratio_500_L_10_R_5.png","img/500/equaldotsize/R/3_Ratio_500_L_10_R_20.png","img/900/equaldotsize/L/10_Ratio_900_L_20_R_18.png","img/500/randomdotsizeEA/L/7_Ratio_500_L_10_R_5.png","img/500/equaldotanddens/L/13_Ratio_500_L_12_R_6.png","img/250/randomdotsizeEA/L/5_Ratio_250_L_24_R_6.png","img/750/randomdotsizeEA/R/4_Ratio_750_L_15_R_20.png","img/750/equaldotsize/R/7_Ratio_750_L_3_R_4.png","img/500/equaldotsize/L/5_Ratio_500_L_4_R_2.png","img/250/equaldotanddens/L/7_Ratio_250_L_8_R_2.png","img/900/randomdotsizeEA/L/1_Ratio_900_L_10_R_9.png","img/250/randomdotsizeEA/R/11_Ratio_250_L_3_R_12.png","img/900/equaldotsize/R/5_Ratio_900_L_9_R_10.png","img/500/randomdotsizeEA/L/8_Ratio_500_L_8_R_4.png","img/750/equaldotanddens/R/7_Ratio_750_L_3_R_4.png","img/500/equaldotsize/R/14_Ratio_500_L_5_R_10.png","img/750/randomdotsizeEA/L/6_Ratio_750_L_24_R_18.png","img/250/randomdotsizeEA/R/4_Ratio_250_L_3_R_12.png","img/500/equaldotsize/R/14_Ratio_500_L_5_R_10.png","img/900/randomdotsizeEA/R/5_Ratio_900_L_9_R_10.png","img/750/equaldotsize/L/14_Ratio_750_L_8_R_6.png","img/500/equaldotanddens/R/15_Ratio_500_L_1_R_2.png","img/250/equaldotsize/L/2_Ratio_250_L_16_R_4.png","img/250/equaldotsize/L/15_Ratio_250_L_12_R_3.png","img/750/equaldotanddens/L/6_Ratio_750_L_24_R_18.png","img/750/randomdotsizeEA/R/4_Ratio_750_L_15_R_20.png","img/900/equaldotanddens/L/2_Ratio_900_L_20_R_18.png","img/250/equaldotsize/R/13_Ratio_250_L_2_R_8.png","img/250/equaldotanddens/R/6_Ratio_250_L_6_R_24.png","img/500/randomdotsizeEA/R/1_Ratio_500_L_9_R_18.png","img/750/randomdotsizeEA/R/11_Ratio_750_L_12_R_16.png","img/250/equaldotanddens/R/9_Ratio_250_L_3_R_12.png","img/750/randomdotsizeEA/R/15_Ratio_750_L_9_R_12.png","img/900/equaldotanddens/R/11_Ratio_900_L_18_R_20.png","img/500/randomdotsizeEA/L/4_Ratio_500_L_18_R_9.png","img/750/equaldotsize/L/8_Ratio_750_L_4_R_3.png","img/500/equaldotanddens/L/4_Ratio_500_L_18_R_9.png","img/900/randomdotsizeEA/L/10_Ratio_900_L_20_R_18.png","img/900/randomdotsizeEA/R/5_Ratio_900_L_9_R_10.png","img/900/equaldotsize/L/2_Ratio_900_L_20_R_18.png","img/900/equaldotanddens/R/6_Ratio_900_L_9_R_10.png","img/900/equaldotsize/R/14_Ratio_900_L_18_R_20.png","img/900/equaldotanddens/L/10_Ratio_900_L_20_R_18.png","img/750/equaldotanddens/R/7_Ratio_750_L_3_R_4.png","img/250/equaldotanddens/L/7_Ratio_250_L_8_R_2.png","img/750/randomdotsizeEA/L/14_Ratio_750_L_8_R_6.png","img/250/equaldotanddens/L/7_Ratio_250_L_8_R_2.png","img/900/equaldotsize/L/8_Ratio_900_L_20_R_18.png","img/900/randomdotsizeEA/R/9_Ratio_900_L_18_R_20.png","img/250/equaldotanddens/R/10_Ratio_250_L_4_R_16.png","img/500/equaldotanddens/L/10_Ratio_500_L_4_R_2.png","img/900/equaldotanddens/L/1_Ratio_900_L_10_R_9.png","img/750/equaldotanddens/L/8_Ratio_750_L_4_R_3.png","img/500/equaldotsize/L/5_Ratio_500_L_4_R_2.png","img/250/equaldotsize/R/8_Ratio_250_L_1_R_4.png","img/500/equaldotsize/R/14_Ratio_500_L_5_R_10.png","img/900/equaldotanddens/L/8_Ratio_900_L_20_R_18.png","img/900/randomdotsizeEA/L/2_Ratio_900_L_20_R_18.png","img/500/equaldotanddens/L/4_Ratio_500_L_18_R_9.png","img/750/equaldotsize/R/15_Ratio_750_L_9_R_12.png","img/250/randomdotsizeEA/L/14_Ratio_250_L_12_R_3.png","img/900/equaldotsize/L/4_Ratio_900_L_20_R_18.png","img/250/randomdotsizeEA/R/9_Ratio_250_L_3_R_12.png","img/900/equaldotsize/R/14_Ratio_900_L_18_R_20.png","img/900/equaldotsize/L/2_Ratio_900_L_20_R_18.png","img/250/randomdotsizeEA/L/7_Ratio_250_L_8_R_2.png","img/750/equaldotanddens/R/2_Ratio_750_L_6_R_8.png","img/250/equaldotsize/R/9_Ratio_250_L_3_R_12.png","img/900/equaldotanddens/L/8_Ratio_900_L_20_R_18.png","img/900/randomdotsizeEA/R/14_Ratio_900_L_18_R_20.png","img/250/equaldotsize/R/6_Ratio_250_L_6_R_24.png","img/500/randomdotsizeEA/L/11_Ratio_500_L_12_R_6.png","img/250/randomdotsizeEA/L/14_Ratio_250_L_12_R_3.png","img/750/equaldotanddens/L/1_Ratio_750_L_20_R_15.png","img/900/randomdotsizeEA/R/3_Ratio_900_L_9_R_10.png","img/250/equaldotanddens/L/1_Ratio_250_L_8_R_2.png","img/250/equaldotanddens/L/14_Ratio_250_L_12_R_3.png","img/900/equaldotanddens/L/8_Ratio_900_L_20_R_18.png","img/500/equaldotsize/L/8_Ratio_500_L_8_R_4.png","img/900/randomdotsizeEA/R/3_Ratio_900_L_9_R_10.png","img/250/equaldotanddens/L/7_Ratio_250_L_8_R_2.png","img/500/equaldotsize/R/2_Ratio_500_L_3_R_6.png","img/750/equaldotanddens/R/5_Ratio_750_L_15_R_20.png","img/900/equaldotsize/R/6_Ratio_900_L_9_R_10.png","img/500/randomdotsizeEA/L/7_Ratio_500_L_10_R_5.png","img/900/equaldotanddens/L/1_Ratio_900_L_10_R_9.png","img/250/randomdotsizeEA/L/15_Ratio_250_L_12_R_3.png","img/500/randomdotsizeEA/R/3_Ratio_500_L_10_R_20.png","img/750/equaldotsize/L/13_Ratio_750_L_8_R_6.png","img/500/equaldotsize/L/10_Ratio_500_L_4_R_2.png","img/900/randomdotsizeEA/R/14_Ratio_900_L_18_R_20.png","img/750/equaldotsize/L/6_Ratio_750_L_24_R_18.png","img/250/equaldotanddens/L/1_Ratio_250_L_8_R_2.png","img/750/equaldotsize/L/1_Ratio_750_L_20_R_15.png","img/750/randomdotsizeEA/R/15_Ratio_750_L_9_R_12.png","img/750/equaldotanddens/R/4_Ratio_750_L_15_R_20.png","img/500/equaldotanddens/L/11_Ratio_500_L_12_R_6.png","img/500/equaldotanddens/L/5_Ratio_500_L_4_R_2.png","img/500/equaldotanddens/L/7_Ratio_500_L_10_R_5.png","img/250/equaldotsize/L/2_Ratio_250_L_16_R_4.png","img/250/randomdotsizeEA/L/5_Ratio_250_L_24_R_6.png","img/500/equaldotanddens/L/10_Ratio_500_L_4_R_2.png","img/900/equaldotanddens/L/4_Ratio_900_L_20_R_18.png","img/250/randomdotsizeEA/L/5_Ratio_250_L_24_R_6.png","img/750/equaldotanddens/L/1_Ratio_750_L_20_R_15.png","img/900/equaldotsize/R/11_Ratio_900_L_18_R_20.png","img/750/randomdotsizeEA/R/12_Ratio_750_L_3_R_4.png","img/250/equaldotsize/R/10_Ratio_250_L_4_R_16.png","img/750/equaldotsize/R/4_Ratio_750_L_15_R_20.png","img/750/equaldotsize/L/6_Ratio_750_L_24_R_18.png","img/750/equaldotsize/R/12_Ratio_750_L_3_R_4.png","img/250/equaldotsize/L/1_Ratio_250_L_8_R_2.png","img/500/randomdotsizeEA/R/3_Ratio_500_L_10_R_20.png","img/500/equaldotanddens/R/3_Ratio_500_L_10_R_20.png","img/750/randomdotsizeEA/R/12_Ratio_750_L_3_R_4.png","img/500/randomdotsizeEA/R/1_Ratio_500_L_9_R_18.png","img/250/equaldotsize/L/5_Ratio_250_L_24_R_6.png"],"Rat0":[["12_Ratio_0_L_9_R_0.png","13_Ratio_0_L_6_R_0.png","5_Ratio_0_L_2_R_0.png","6_Ratio_0_L_4_R_0.png","8_Ratio_0_L_6_R_0.png"],["1_Ratio_0_L_0_R_17.png","10_Ratio_0_L_0_R_22.png","11_Ratio_0_L_0_R_1.png","14_Ratio_0_L_0_R_24.png","15_Ratio_0_L_0_R_4.png","2_Ratio_0_L_0_R_5.png","3_Ratio_0_L_0_R_17.png","4_Ratio_0_L_0_R_7.png","7_Ratio_0_L_0_R_19.png","9_Ratio_0_L_0_R_15.png"]],"Rat250":[["1_Ratio_250_L_8_R_2.png","14_Ratio_250_L_12_R_3.png","15_Ratio_250_L_12_R_3.png","2_Ratio_250_L_16_R_4.png","3_Ratio_250_L_8_R_2.png","5_Ratio_250_L_24_R_6.png","7_Ratio_250_L_8_R_2.png"],["10_Ratio_250_L_4_R_16.png","11_Ratio_250_L_3_R_12.png","12_Ratio_250_L_5_R_20.png","13_Ratio_250_L_2_R_8.png","4_Ratio_250_L_3_R_12.png","6_Ratio_250_L_6_R_24.png","8_Ratio_250_L_1_R_4.png","9_Ratio_250_L_3_R_12.png"]],"Rat500":[["10_Ratio_500_L_4_R_2.png","11_Ratio_500_L_12_R_6.png","13_Ratio_500_L_12_R_6.png","4_Ratio_500_L_18_R_9.png","5_Ratio_500_L_4_R_2.png","7_Ratio_500_L_10_R_5.png","8_Ratio_500_L_8_R_4.png"],["1_Ratio_500_L_9_R_18.png","12_Ratio_500_L_1_R_2.png","14_Ratio_500_L_5_R_10.png","15_Ratio_500_L_1_R_2.png","2_Ratio_500_L_3_R_6.png","3_Ratio_500_L_10_R_20.png","6_Ratio_500_L_9_R_18.png","9_Ratio_500_L_2_R_4.png"]],"Rat750":[["1_Ratio_750_L_20_R_15.png","10_Ratio_750_L_4_R_3.png","13_Ratio_750_L_8_R_6.png","14_Ratio_750_L_8_R_6.png","6_Ratio_750_L_24_R_18.png","8_Ratio_750_L_4_R_3.png","9_Ratio_750_L_4_R_3.png"],["11_Ratio_750_L_12_R_16.png","12_Ratio_750_L_3_R_4.png","15_Ratio_750_L_9_R_12.png","2_Ratio_750_L_6_R_8.png","3_Ratio_750_L_15_R_20.png","4_Ratio_750_L_15_R_20.png","5_Ratio_750_L_15_R_20.png","7_Ratio_750_L_3_R_4.png"]],"Rat900":[["1_Ratio_900_L_10_R_9.png","10_Ratio_900_L_20_R_18.png","2_Ratio_900_L_20_R_18.png","4_Ratio_900_L_20_R_18.png","8_Ratio_900_L_20_R_18.png"],["11_Ratio_900_L_18_R_20.png","12_Ratio_900_L_18_R_20.png","13_Ratio_900_L_18_R_20.png","14_Ratio_900_L_18_R_20.png","15_Ratio_900_L_9_R_10.png","3_Ratio_900_L_9_R_10.png","5_Ratio_900_L_9_R_10.png","6_Ratio_900_L_9_R_10.png","7_Ratio_900_L_9_R_10.png","9_Ratio_900_L_18_R_20.png"]],"Rat1000":[["10_Ratio_1000_L_16_R_16.png","11_Ratio_1000_L_6_R_6.png","12_Ratio_1000_L_14_R_14.png","13_Ratio_1000_L_20_R_20.png","15_Ratio_1000_L_15_R_15.png","2_Ratio_1000_L_17_R_17.png","4_Ratio_1000_L_9_R_9.png","5_Ratio_1000_L_6_R_6.png","6_Ratio_1000_L_19_R_19.png","8_Ratio_1000_L_14_R_14.png","9_Ratio_1000_L_25_R_25.png"],["1_Ratio_1000_L_1_R_1.png","14_Ratio_1000_L_17_R_17.png","3_Ratio_1000_L_17_R_17.png","7_Ratio_1000_L_6_R_6.png"]]}},{"start_time":1551801363637,"click_time":1551801364738,"finger_time":1551801364556,"fix_duration":1300.5353167433948,"trial":1,"RT":919,"MT":182,"sideResp":1,"stimulus":"img/750/randomdotsizeEA/L/6_Ratio_750_L_24_R_18.png","xmouse":[790,790,790,790,790,790,790,790,790,790,790,790,790,790,790,790,790,790,790,790,790,790,790,790,790,790,790,790,790,790,790,790,790,790,790,790,790,790,790,790,788,784,775,763,749,719,702,685,665,657,596,575,553,533,520],"ymouse":[519,519,519,518,517,517,516,516,516,516,515,513,512,511,511,511,511,511,511,511,511,511,510,510,510,510,510,510,510,510,510,510,510,510,510,510,510,510,510,510,509,504,495,482,468,433,413,393,357,339,190,142,93,47,10],"timestamp_mouse":[30,40,59,80,100,120,140,159,179,200,221,239,260,281,299,319,341,359,381,401,420,439,459,479,499,520,539,559,579,601,619,641,660,679,700,719,740,759,779,801,820,839,859,880,899,919,940,960,980,1000,1019,1039,1060,1081,1101],"xSR":741.5,"ySR":447.2,"xT1":424.9,"yT1":0,"xT2":1058.1,"yT2":0,"toosoon":0,"cond_shown":"randomdotsizeEA","ratio_trial":750,"smaller_num":"18","larger_num":"24","correct_side":1,"subjID":"IsauraHernwndezGomez23","gender":"1","age":"11","school":"6"},{"start_time":1551801367061,"click_time":1551801368477,"finger_time":1551801368096,"fix_duration":1164.8876428689305,"trial":2,"RT":1035,"MT":381,"sideResp":2,"stimulus":"img/750/equaldotanddens/R/2_Ratio_750_L_6_R_8.png","xmouse":[794,794,794,794,794,794,794,794,794,794,794,794,794,794,794,794,794,794,794,794,794,794,794,794,794,794,794,794,794,794,794,794,794,794,794,794,794,795,793,791,791,791,791,791,791,790,784,780,772,764,783,805,827,870,884,896,907,923,936,965,980,998,1010,1020,1027,1032,1041,1043,1051,1066,1074],"ymouse":[469,469,469,469,469,469,469,469,469,469,469,469,469,469,469,469,469,469,469,469,469,469,469,469,469,469,469,469,469,469,469,469,469,469,469,469,469,468,467,466,466,466,466,466,466,466,472,479,495,513,487,438,389,315,289,268,248,221,203,174,163,152,146,138,132,129,123,122,118,104,93],"timestamp_mouse":[15,44,56,75,97,117,135,155,176,195,215,236,256,275,295,315,337,356,375,395,415,436,455,476,497,516,536,556,576,596,616,637,656,675,696,715,736,756,775,796,815,835,856,877,895,915,935,955,977,995,1016,1035,1055,1076,1095,1116,1136,1156,1177,1195,1215,1237,1255,1276,1295,1315,1335,1355,1377,1395,1415],"xSR":741.5,"ySR":447.2,"xT1":424.9,"yT1":0,"xT2":1058.1,"yT2":0,"toosoon":0,"cond_shown":"equaldotanddens","ratio_trial":750,"smaller_num":"6","larger_num":"8","correct_side":2,"subjID":"IsauraHernwndezGomez23","gender":"1","age":"11","school":"6"},{"start_time":1551801370313,"click_time":1551801371636,"finger_time":1551801371157,"fix_duration":975.0762712126302,"trial":3,"RT":844,"MT":479,"sideResp":1,"stimulus":"img/500/randomdotsizeEA/L/7_Ratio_500_L_10_R_5.png","xmouse":[786,786,786,786,786,786,786,786,786,786,786,786,786,786,786,786,786,786,786,786,786,786,786,786,786,786,786,786,786,786,786,786,786,786,786,786,786,786,786,786,786,783,744,730,723,711,691,683,683,681,675,664,639,618,595,561,550,539,537,536,536,536,528,520,509,498,491],"ymouse":[498,498,498,498,498,498,498,498,498,498,498,498,498,498,498,498,498,498,498,498,498,498,498,498,498,498,498,498,498,498,498,498,498,498,498,498,498,498,498,498,498,491,429,404,382,355,319,307,307,305,297,286,263,244,224,199,189,180,178,178,178,177,157,143,124,107,90],"timestamp_mouse":[9,24,43,65,83,104,125,143,164,184,205,224,244,265,284,304,324,345,363,384,403,423,444,463,483,504,523,544,563,583,603,624,643,663,683,703,723,743,763,783,803,823,844,863,883,904,923,943,963,984,1003,1023,1044,1063,1083,1103,1123,1143,1164,1183,1203,1223,1244,1264,1283,1303,1323],"xSR":741.5,"ySR":447.2,"xT1":424.9,"yT1":0,"xT2":1058.1,"yT2":0,"toosoon":0,"cond_shown":"randomdotsizeEA","ratio_trial":500,"smaller_num":"5","larger_num":"10","correct_side":1,"subjID":"IsauraHernwndezGomez23","gender":"1","age":"11","school":"6"},{"start_time":1551801373402,"click_time":1551801374456,"finger_time":1551801374118,"fix_duration":745.0239878425489,"trial":4,"RT":716,"MT":338,"sideResp":2,"stimulus":"img/500/equaldotsize/R/3_Ratio_500_L_10_R_20.png","xmouse":[807,807,807,807,807,807,807,807,807,807,806,805,805,805,805,805,805,805,805,805,805,805,805,805,805,805,805,805,805,805,805,805,812,827,840,863,909,927,947,962,973,992,997,1000,1005,1008,1011,1018,1024,1032,1046,1057,1071],"ymouse":[492,492,492,492,492,492,492,492,492,492,492,492,492,492,492,492,492,492,492,492,492,492,492,492,492,492,492,492,492,492,492,492,483,467,450,425,364,334,295,268,246,207,194,184,175,167,158,143,135,121,102,87,68],"timestamp_mouse":[14,35,54,75,95,114,134,154,174,194,215,235,254,275,294,315,334,355,374,395,414,436,455,474,494,515,535,554,576,595,614,635,654,674,694,716,736,755,775,795,816,836,854,875,894,915,935,954,975,996,1015,1036,1054],"xSR":741.5,"ySR":447.2,"xT1":424.9,"yT1":0,"xT2":1058.1,"yT2":0,"toosoon":0,"cond_shown":"equaldotsize","ratio_trial":500,"smaller_num":"10","larger_num":"20","correct_side":2,"subjID":"IsauraHernwndezGomez23","gender":"1","age":"11","school":"6"},{"start_time":1551801375914,"click_time":1551801376918,"finger_time":1551801376796,"fix_duration":456.6885675838905,"trial":5,"RT":882,"MT":122,"sideResp":1,"stimulus":"img/900/equaldotsize/L/10_Ratio_900_L_20_R_18.png","xmouse":[807,807,807,807,807,807,807,807,807,807,807,807,807,807,807,807,807,807,807,807,807,807,807,807,807,807,807,807,807,807,807,807,807,807,807,807,807,807,807,807,807,806,797,783,751,680,627,528,494,465,442],"ymouse":[486,486,486,486,486,486,486,486,486,486,486,486,486,486,486,486,486,486,486,486,486,486,486,486,486,486,486,486,486,486,486,486,486,486,486,486,486,486,486,486,486,486,478,461,431,351,294,181,143,112,88],"timestamp_mouse":[8,22,42,62,83,103,124,143,163,183,204,224,243,262,283,302,322,343,363,383,402,424,443,464,482,503,522,542,562,582,603,623,643,663,688,704,722,742,762,782,802,823,842,862,882,902,922,942,962,983,1003],"xSR":741.5,"ySR":447.2,"xT1":424.9,"yT1":0,"xT2":1058.1,"yT2":0,"toosoon":0,"cond_shown":"equaldotsize","ratio_trial":900,"smaller_num":"18","larger_num":"20","correct_side":1,"subjID":"IsauraHernwndezGomez23","gender":"1","age":"11","school":"6"},{"start_time":1551801378671,"click_time":1551801380057,"finger_time":1551801379556,"fix_duration":793.1743936183188,"trial":6,"RT":885,"MT":501,"sideResp":2,"stimulus":"img/500/randomdotsizeEA/L/7_Ratio_500_L_10_R_5.png","xmouse":[799,799,799,799,799,799,799,799,799,799,799,799,799,799,799,799,799,799,799,799,799,799,799,799,799,799,799,799,799,799,799,799,799,799,799,799,799,799,799,799,799,806,812,827,857,876,896,919,955,1006,1055,1100,1130,1145,1149,1149,1146,1145,1143,1141,1139,1139,1139,1139,1139,1139,1138,1138,1136,1131],"ymouse":[487,487,487,487,487,487,487,487,487,487,487,487,487,487,487,487,487,487,487,487,487,487,487,487,487,487,487,487,487,487,487,487,487,487,487,487,487,487,487,487,487,482,478,466,442,427,411,393,363,311,269,232,199,176,146,134,127,122,117,110,108,107,107,107,107,107,107,105,100,91],"timestamp_mouse":[13,25,45,66,86,106,125,145,166,185,205,225,245,266,286,306,325,346,366,387,405,425,445,465,485,506,527,545,565,586,605,625,646,666,686,705,725,747,766,787,806,825,845,865,885,905,926,945,966,985,1005,1025,1045,1065,1085,1105,1125,1146,1165,1185,1205,1226,1245,1266,1285,1306,1325,1345,1365,1385],"xSR":741.5,"ySR":447.2,"xT1":424.9,"yT1":0,"xT2":1058.1,"yT2":0,"toosoon":0,"cond_shown":"randomdotsizeEA","ratio_trial":500,"smaller_num":"5","larger_num":"10","correct_side":1,"subjID":"IsauraHernwndezGomez23","gender":"1","age":"11","school":"6"},{"start_time":1551801382710,"click_time":1551801383936,"finger_time":1551801383636,"fix_duration":250,"trial":7,"RT":926,"MT":300,"sideResp":1,"stimulus":"img/500/equaldotanddens/L/13_Ratio_500_L_12_R_6.png","xmouse":[777,777,777,777,777,777,777,777,777,777,777,777,777,777,777,777,777,777,777,777,777,777,777,777,777,777,777,777,777,777,777,777,777,777,777,777,777,777,777,777,777,777,777,772,763,752,724,685,668,647,630,614,585,573,565,557,548,530,516,506,497,494],"ymouse":[486,486,486,486,486,486,486,486,486,486,486,486,486,486,486,486,486,486,486,486,486,486,486,486,486,486,486,486,486,486,486,486,486,486,486,486,486,486,486,486,486,486,486,481,466,448,405,341,310,280,258,239,213,205,199,191,175,148,129,115,101,92],"timestamp_mouse":[8,35,46,66,87,106,127,147,166,187,208,227,246,266,287,307,326,347,366,387,407,426,446,467,486,507,526,546,566,586,606,627,646,668,687,708,728,746,766,787,808,826,846,866,887,907,926,946,966,986,1006,1026,1046,1067,1087,1107,1127,1146,1167,1186,1206,1226],"xSR":741.5,"ySR":447.2,"xT1":424.9,"yT1":0,"xT2":1058.1,"yT2":0,"toosoon":0,"cond_shown":"equaldotanddens","ratio_trial":500,"smaller_num":"6","larger_num":"12","correct_side":1,"subjID":"IsauraHernwndezGomez23","gender":"1","age":"11","school":"6"},{"start_time":1551801386112,"click_time":1551801387876,"finger_time":1551801386917,"fix_duration":994.6523336820933,"trial":8,"RT":805,"MT":959,"sideResp":1,"stimulus":"img/250/randomdotsizeEA/L/5_Ratio_250_L_24_R_6.png","xmouse":[773,773,773,773,773,773,773,773,773,773,773,773,773,773,773,773,773,773,773,773,773,773,773,773,773,773,773,773,773,773,773,773,773,773,773,773,773,787,802,820,841,873,885,890,894,895,897,901,903,906,911,916,929,938,947,950,952,952,952,952,950,943,916,902,884,857,836,776,745,726,716,715,712,708,703,698,675,659,642,625,610,602,590,584,576,568,558,541,524],"ymouse":[492,492,492,492,492,492,492,492,492,492,492,492,492,492,492,492,492,492,492,492,492,492,492,492,492,492,492,492,492,492,492,492,492,492,492,492,492,484,471,456,440,385,366,354,344,337,318,289,274,258,242,227,193,176,162,159,156,156,156,155,158,163,178,190,203,222,237,267,278,285,289,290,292,294,296,296,280,261,237,202,160,129,93,84,77,72,67,61,59],"timestamp_mouse":[9,24,44,64,85,105,124,144,164,184,204,224,244,264,284,304,324,345,365,384,405,424,444,464,485,506,524,544,565,585,604,624,644,665,686,705,724,745,764,785,805,826,844,865,885,904,924,944,964,984,1004,1026,1044,1064,1084,1104,1125,1144,1165,1184,1204,1225,1244,1264,1285,1304,1324,1344,1364,1386,1405,1425,1444,1465,1485,1505,1526,1545,1564,1585,1605,1625,1644,1664,1685,1704,1724,1744,1764],"xSR":741.5,"ySR":447.2,"xT1":424.9,"yT1":0,"xT2":1058.1,"yT2":0,"toosoon":0,"cond_shown":"randomdotsizeEA","ratio_trial":250,"smaller_num":"6","larger_num":"24","correct_side":1,"subjID":"IsauraHernwndezGomez23","gender":"1","age":"11","school":"6"},{"start_time":1551801391331,"click_time":1551801393996,"finger_time":1551801393837,"fix_duration":1192.1907815113075,"trial":9,"RT":2506,"MT":159,"sideResp":1,"stimulus":"img/750/randomdotsizeEA/R/4_Ratio_750_L_15_R_20.png","xmouse":[789,789,789,789,789,789,789,789,789,789,789,789,789,789,789,789,789,789,789,789,789,789,789,789,789,789,789,789,789,789,789,789,789,789,789,789,789,789,789,789,789,789,789,789,789,789,789,789,789,789,789,789,789,789,789,789,789,789,789,789,789,789,789,789,789,789,789,789,789,789,789,789,789,789,789,789,789,789,789,789,789,789,789,789,789,789,789,789,789,789,789,789,789,789,789,789,789,789,789,789,789,789,789,789,789,789,789,789,789,789,789,784,783,781,781,781,781,781,781,781,781,781,781,781,781,778,752,727,706,679,643,550,510,452],"ymouse":[503,503,503,503,503,503,503,503,503,503,503,503,503,503,503,503,503,503,503,503,503,503,503,503,503,503,503,503,503,503,503,503,503,503,503,503,503,503,503,503,503,503,503,503,503,503,503,503,503,503,503,503,503,503,503,503,503,503,503,503,503,503,503,503,503,503,503,503,503,503,503,503,503,503,503,503,503,503,503,503,503,503,503,503,503,503,503,503,503,503,503,503,503,503,503,503,503,503,503,503,503,503,503,503,503,503,503,503,497,491,483,463,459,455,455,455,455,455,455,455,455,455,455,455,453,443,386,348,304,268,229,143,105,57],"timestamp_mouse":[5,26,45,65,86,106,125,146,166,194,206,225,245,265,285,305,325,347,366,386,407,425,445,465,485,505,526,545,565,585,606,625,646,665,687,705,727,745,765,787,805,827,845,865,885,906,925,945,966,987,1005,1027,1045,1066,1087,1106,1125,1145,1165,1185,1207,1225,1247,1266,1285,1305,1326,1346,1365,1387,1406,1425,1446,1466,1485,1506,1527,1546,1565,1585,1605,1625,1645,1666,1686,1705,1726,1746,1765,1786,1805,1825,1845,1865,1885,1906,1925,1945,1965,1985,2007,2026,2046,2066,2086,2105,2125,2146,2166,2186,2205,2225,2245,2265,2287,2307,2325,2346,2365,2386,2407,2426,2445,2465,2485,2506,2526,2545,2566,2587,2607,2625,2645,2665],"xSR":741.5,"ySR":447.2,"xT1":424.9,"yT1":0,"xT2":1058.1,"yT2":0,"toosoon":0,"cond_shown":"randomdotsizeEA","ratio_trial":750,"smaller_num":"15","larger_num":"20","correct_side":2,"subjID":"IsauraHernwndezGomez23","gender":"1","age":"11","school":"6"},{"start_time":1551801401465,"click_time":1551801402896,"finger_time":1551801402538,"fix_duration":827.1177581506089,"trial":10,"RT":1073,"MT":358,"sideResp":2,"stimulus":"img/750/equaldotsize/R/7_Ratio_750_L_3_R_4.png","xmouse":[783,783,783,783,783,783,783,783,783,783,783,783,783,783,783,783,783,783,783,783,783,783,783,783,783,783,783,783,783,783,783,783,783,783,783,783,783,786,788,788,788,788,788,788,788,788,788,788,788,788,788,791,794,828,855,883,908,930,953,974,983,989,996,1004,1022,1032,1041,1049,1058,1063,1064,1066],"ymouse":[509,509,509,509,509,509,509,509,509,509,509,509,509,509,509,509,509,509,509,509,509,509,509,509,509,509,509,509,509,509,509,509,509,509,509,509,509,510,510,510,510,510,510,510,510,510,510,510,510,510,510,502,490,429,391,345,309,281,255,229,219,212,204,195,174,163,151,139,119,109,104,99],"timestamp_mouse":[14,40,51,72,91,113,132,151,173,191,212,231,253,272,292,312,331,352,371,392,412,432,451,471,491,511,532,551,571,591,611,631,653,671,691,712,731,752,771,792,812,832,852,871,891,913,932,951,972,992,1011,1031,1052,1073,1092,1111,1131,1152,1171,1191,1211,1231,1251,1272,1291,1313,1332,1351,1372,1392,1411,1431],"xSR":741.5,"ySR":447.2,"xT1":424.9,"yT1":0,"xT2":1058.1,"yT2":0,"toosoon":0,"cond_shown":"equaldotsize","ratio_trial":750,"smaller_num":"3","larger_num":"4","correct_side":2,"subjID":"IsauraHernwndezGomez23","gender":"1","age":"11","school":"6"},{"start_time":1551801405484,"click_time":1551801406996,"finger_time":1551801406276,"fix_duration":1466.7139553098282,"trial":11,"RT":792,"MT":720,"sideResp":1,"stimulus":"img/500/equaldotsize/L/5_Ratio_500_L_4_R_2.png","xmouse":[774,774,774,774,775,777,777,778,778,778,778,778,778,778,779,779,780,780,780,780,780,780,780,780,780,780,781,782,782,782,782,782,783,783,783,784,784,784,785,782,771,756,740,714,705,698,693,686,667,656,646,639,627,622,617,610,601,562,541,523,511,506,503,499,496,493,490,488,488,488,488,488,488,488,488,488],"ymouse":[492,492,492,492,492,491,490,490,490,490,490,490,490,489,488,488,488,488,488,488,488,488,488,488,488,488,486,486,486,486,485,485,485,484,483,482,481,479,453,426,385,347,320,288,277,268,260,248,221,208,197,189,181,178,177,174,172,161,155,149,143,139,136,130,126,120,115,106,103,102,101,101,101,101,100,97],"timestamp_mouse":[12,33,54,72,92,114,133,153,172,193,213,232,254,272,293,313,332,352,374,392,413,434,453,474,493,512,532,554,572,592,613,634,653,672,692,712,732,753,772,792,812,833,853,873,894,912,932,953,973,992,1012,1032,1053,1072,1093,1113,1132,1154,1173,1193,1212,1233,1253,1272,1293,1312,1333,1354,1372,1392,1413,1432,1453,1472,1493,1512],"xSR":741.5,"ySR":447.2,"xT1":424.9,"yT1":0,"xT2":1058.1,"yT2":0,"toosoon":0,"cond_shown":"equaldotsize","ratio_trial":500,"smaller_num":"2","larger_num":"4","correct_side":1,"subjID":"IsauraHernwndezGomez23","gender":"1","age":"11","school":"6"},{"start_time":1551801410288,"click_time":1551801411597,"finger_time":1551801411096,"fix_duration":250,"trial":12,"RT":808,"MT":501,"sideResp":1,"stimulus":"img/250/equaldotanddens/L/7_Ratio_250_L_8_R_2.png","xmouse":[807,807,807,807,807,807,807,807,807,807,807,807,807,807,807,807,807,807,807,807,807,807,807,807,807,807,807,807,807,807,807,807,807,807,807,805,805,803,792,782,771,753,727,717,709,704,697,683,662,650,633,611,581,485,448,434,432,432,432,432,432,432,432,438,444,451],"ymouse":[521,521,521,521,521,521,521,521,521,521,521,521,521,521,521,521,521,521,521,521,521,521,521,521,521,521,521,521,521,521,521,521,521,516,511,508,506,504,484,466,447,417,370,350,332,320,310,296,284,279,270,260,249,182,155,144,140,137,132,130,128,125,122,111,102,94],"timestamp_mouse":[8,34,49,70,89,109,129,148,169,190,208,228,250,269,288,309,328,348,368,388,409,428,449,470,488,509,528,548,569,588,610,628,649,668,688,708,730,748,768,788,808,829,849,868,888,909,928,948,968,989,1008,1029,1048,1068,1088,1109,1129,1149,1169,1188,1209,1229,1249,1268,1288,1309],"xSR":741.5,"ySR":447.2,"xT1":424.9,"yT1":0,"xT2":1058.1,"yT2":0,"toosoon":0,"cond_shown":"equaldotanddens","ratio_trial":250,"smaller_num":"2","larger_num":"8","correct_side":1,"subjID":"IsauraHernwndezGomez23","gender":"1","age":"11","school":"6"},{"start_time":1551801412528,"click_time":1551801414398,"finger_time":1551801413877,"fix_duration":250.4873030080732,"trial":13,"RT":1349,"MT":521,"sideResp":1,"stimulus":"img/900/randomdotsizeEA/L/1_Ratio_900_L_10_R_9.png","xmouse":[784,784,784,784,784,784,784,784,784,784,784,784,784,784,784,784,784,784,784,784,784,784,784,784,784,784,784,784,784,784,784,784,784,784,784,784,784,784,784,784,784,784,784,784,784,784,784,784,784,784,784,784,784,784,784,784,784,784,784,784,784,784,784,784,784,784,772,758,750,737,713,701,694,687,684,680,667,657,643,629,613,583,573,565,561,557,553,551,550,548,542,537,531,524],"ymouse":[494,494,494,494,494,494,494,494,494,494,494,494,494,494,494,494,494,494,494,494,494,494,494,494,494,494,494,494,494,494,494,494,494,494,494,494,494,494,494,494,494,494,494,494,494,494,494,494,494,494,494,494,494,494,494,494,494,494,494,494,494,494,494,494,494,493,466,432,399,367,311,290,274,260,249,242,220,206,191,175,159,133,123,116,111,107,102,98,97,94,86,80,73,65],"timestamp_mouse":[9,37,49,69,90,108,128,149,169,189,209,228,250,269,288,308,328,349,369,389,408,429,448,470,490,509,529,550,569,589,609,629,650,669,689,709,730,749,769,789,810,830,849,870,889,909,928,949,970,990,1009,1029,1049,1069,1090,1110,1129,1149,1170,1189,1209,1229,1250,1269,1289,1309,1329,1349,1369,1390,1410,1429,1450,1469,1489,1508,1529,1549,1569,1589,1610,1629,1649,1669,1689,1709,1729,1749,1770,1790,1810,1829,1848,1870],"xSR":741.5,"ySR":447.2,"xT1":424.9,"yT1":0,"xT2":1058.1,"yT2":0,"toosoon":0,"cond_shown":"randomdotsizeEA","ratio_trial":900,"smaller_num":"9","larger_num":"10","correct_side":1,"subjID":"IsauraHernwndezGomez23","gender":"1","age":"11","school":"6"},{"start_time":1551801421289,"click_time":1551801422637,"finger_time":1551801422058,"fix_duration":868.5156724855932,"trial":14,"RT":769,"MT":579,"sideResp":2,"stimulus":"img/250/randomdotsizeEA/R/11_Ratio_250_L_3_R_12.png","xmouse":[791,791,791,791,791,791,791,791,791,791,791,791,791,791,791,791,791,791,791,791,791,791,791,791,791,791,791,791,791,791,791,791,791,791,791,791,791,788,769,758,748,746,746,746,746,746,746,747,759,780,805,829,879,899,920,947,957,982,1013,1026,1034,1038,1039,1040,1042,1047,1053,1059],"ymouse":[486,486,486,486,486,486,486,486,486,486,486,486,486,486,486,486,486,486,486,486,486,486,486,486,486,486,486,486,486,486,486,486,486,486,486,486,482,471,443,431,421,418,418,418,418,418,418,412,403,391,376,358,307,278,250,212,199,163,125,110,98,86,79,75,72,68,64,60],"timestamp_mouse":[8,41,49,68,88,109,128,148,168,189,209,228,249,269,288,308,328,349,368,388,408,428,449,468,489,509,529,547,568,588,608,628,649,669,688,708,727,749,769,788,808,829,849,868,888,909,928,949,968,987,1008,1028,1049,1068,1088,1107,1128,1148,1169,1188,1208,1228,1249,1268,1288,1308,1329,1348],"xSR":741.5,"ySR":447.2,"xT1":424.9,"yT1":0,"xT2":1058.1,"yT2":0,"toosoon":0,"cond_shown":"randomdotsizeEA","ratio_trial":250,"smaller_num":"3","larger_num":"12","correct_side":2,"subjID":"IsauraHernwndezGomez23","gender":"1","age":"11","school":"6"},{"start_time":1551801424446,"click_time":1551801425597,"finger_time":1551801425217,"fix_duration":627.5072397773222,"trial":15,"RT":771,"MT":380,"sideResp":1,"stimulus":"img/900/equaldotsize/R/5_Ratio_900_L_9_R_10.png","xmouse":[781,781,781,781,781,781,781,781,781,781,781,781,781,781,781,781,781,781,781,781,781,781,781,781,781,781,781,781,781,781,781,781,781,781,781,781,777,774,764,741,733,727,723,716,710,695,684,674,664,658,651,645,634,616,570,550,533,518],"ymouse":[484,484,484,484,484,484,484,484,484,484,484,484,484,484,484,484,484,484,484,484,484,484,484,484,484,484,484,484,484,484,484,484,484,484,484,481,468,451,420,368,351,339,330,318,307,285,270,255,242,233,223,212,197,177,122,99,78,60],"timestamp_mouse":[12,39,52,72,91,112,131,152,171,192,212,232,252,271,292,312,331,351,371,392,411,431,451,472,491,511,531,552,572,592,611,632,651,671,692,711,731,750,771,792,810,831,851,872,891,911,931,950,971,992,1011,1031,1051,1071,1092,1111,1132,1151],"xSR":741.5,"ySR":447.2,"xT1":424.9,"yT1":0,"xT2":1058.1,"yT2":0,"toosoon":0,"cond_shown":"equaldotsize","ratio_trial":900,"smaller_num":"9","larger_num":"10","correct_side":2,"subjID":"IsauraHernwndezGomez23","gender":"1","age":"11","school":"6"},{"start_time":1551801427275,"click_time":1551801428798,"finger_time":1551801428417,"fix_duration":336.56676555243627,"trial":16,"RT":1142,"MT":381,"sideResp":1,"stimulus":"img/500/randomdotsizeEA/L/8_Ratio_500_L_8_R_4.png","xmouse":[795,794,792,792,791,791,790,790,790,790,790,790,790,790,790,790,790,790,790,790,790,790,790,790,790,790,790,790,790,790,790,790,790,790,790,790,790,790,790,790,790,790,790,790,790,790,790,790,790,790,790,790,790,788,782,774,760,713,695,603,580,570,568,568,567,567,567,563,552,547,543,541,539,534,531,526,522],"ymouse":[520,520,517,517,512,510,510,509,509,509,509,509,508,508,508,508,508,508,508,508,508,508,508,508,508,508,508,508,508,508,508,508,508,508,508,508,508,508,508,508,508,508,508,508,508,508,508,508,508,508,508,508,508,504,494,479,455,392,364,238,204,188,185,184,183,183,180,172,146,134,127,122,117,105,97,91,85],"timestamp_mouse":[8,22,47,62,82,102,123,142,163,183,202,222,242,263,283,302,322,342,362,382,401,423,443,461,483,502,522,542,562,582,602,623,643,663,682,702,722,742,762,782,803,823,843,862,883,902,921,943,962,982,1001,1022,1043,1062,1082,1103,1123,1142,1162,1182,1202,1222,1243,1263,1282,1302,1323,1343,1363,1382,1402,1422,1443,1463,1482,1503,1522],"xSR":741.5,"ySR":447.2,"xT1":424.9,"yT1":0,"xT2":1058.1,"yT2":0,"toosoon":0,"cond_shown":"randomdotsizeEA","ratio_trial":500,"smaller_num":"4","larger_num":"8","correct_side":1,"subjID":"IsauraHernwndezGomez23","gender":"1","age":"11","school":"6"},{"start_time":1551801430507,"click_time":1551801431817,"finger_time":1551801431538,"fix_duration":609.1651098925663,"trial":17,"RT":1031,"MT":279,"sideResp":2,"stimulus":"img/750/equaldotanddens/R/7_Ratio_750_L_3_R_4.png","xmouse":[788,788,788,788,788,788,788,788,788,788,788,788,788,788,788,788,788,788,788,788,788,788,788,788,788,788,788,788,788,788,788,788,788,788,788,788,788,788,788,788,788,788,788,788,788,788,788,788,788,788,799,851,886,922,958,987,1017,1035,1041,1050,1059,1070,1085,1090,1092,1099],"ymouse":[519,519,519,519,519,519,519,519,519,519,519,519,519,519,519,519,519,519,519,519,519,519,519,519,519,519,519,519,519,519,519,519,519,519,519,519,519,519,519,519,519,519,519,519,519,519,519,519,519,519,491,415,370,329,293,270,248,229,218,204,187,171,139,123,106,84],"timestamp_mouse":[11,31,50,70,91,111,131,149,170,191,210,230,250,270,290,310,329,351,371,391,410,430,450,471,490,510,530,550,571,590,611,631,650,670,691,711,730,751,770,790,810,830,850,870,891,910,931,950,970,991,1010,1031,1051,1071,1090,1110,1130,1150,1170,1190,1210,1230,1250,1270,1290,1310],"xSR":741.5,"ySR":447.2,"xT1":424.9,"yT1":0,"xT2":1058.1,"yT2":0,"toosoon":0,"cond_shown":"equaldotanddens","ratio_trial":750,"smaller_num":"3","larger_num":"4","correct_side":2,"subjID":"IsauraHernwndezGomez23","gender":"1","age":"11","school":"6"},{"start_time":1551801433670,"click_time":1551801434898,"finger_time":1551801434457,"fix_duration":250,"trial":18,"RT":787,"MT":441,"sideResp":2,"stimulus":"img/500/equaldotsize/R/14_Ratio_500_L_5_R_10.png","xmouse":[814,814,814,814,814,814,814,814,814,814,814,814,814,814,814,814,814,814,814,814,814,814,814,814,814,814,814,814,814,814,814,814,814,814,814,814,814,813,825,862,891,925,959,990,1030,1036,1040,1041,1045,1052,1055,1060,1063,1066,1071,1075,1078,1081,1086,1087,1088,1090],"ymouse":[486,486,486,486,486,486,486,486,486,486,486,486,486,486,486,486,486,486,486,486,486,486,486,486,486,486,486,486,486,486,486,486,486,486,486,486,486,486,471,419,375,331,291,257,229,224,219,215,204,188,184,175,168,163,145,136,128,121,109,105,103,99],"timestamp_mouse":[9,34,47,67,87,108,128,148,167,187,207,227,248,267,288,307,328,348,366,387,407,427,448,467,487,506,528,547,567,588,607,627,648,668,687,707,728,747,767,787,807,827,847,867,887,908,927,947,967,987,1007,1028,1048,1067,1087,1108,1127,1147,1168,1187,1207,1228],"xSR":741.5,"ySR":447.2,"xT1":424.9,"yT1":0,"xT2":1058.1,"yT2":0,"toosoon":0,"cond_shown":"equaldotsize","ratio_trial":500,"smaller_num":"5","larger_num":"10","correct_side":2,"subjID":"IsauraHernwndezGomez23","gender":"1","age":"11","school":"6"},{"start_time":1551801436924,"click_time":1551801438857,"finger_time":1551801437857,"fix_duration":915.1071002339472,"trial":19,"RT":933,"MT":1000,"sideResp":1,"stimulus":"img/750/randomdotsizeEA/L/6_Ratio_750_L_24_R_18.png","xmouse":[800,800,800,800,800,800,800,800,800,800,800,800,800,800,800,800,800,800,800,800,800,800,800,800,800,800,800,800,800,800,800,800,800,800,800,800,800,800,800,800,800,800,799,799,799,798,794,790,789,788,785,771,658,574,482,393,285,240,240,240,240,240,240,240,240,240,240,240,240,240,240,240,240,240,240,288,305,313,313,313,313,313,316,319,324,333,341,363,377,396,418,437,458,459,459,460,462,462],"ymouse":[482,482,482,482,482,482,482,482,482,482,482,482,482,482,482,482,482,482,482,482,482,482,482,482,482,482,482,482,482,482,482,482,482,482,482,482,482,482,482,482,482,482,482,482,480,473,458,444,442,441,436,418,292,218,154,97,28,1,1,1,1,1,1,1,1,1,1,1,1,1,1,1,1,1,1,11,19,22,22,22,22,22,27,32,39,48,58,77,85,95,100,106,111,111,111,111,102,97],"timestamp_mouse":[1,13,33,53,74,93,113,134,154,173,193,213,233,253,274,293,312,333,353,374,393,413,434,454,474,493,514,533,554,573,593,613,634,653,674,693,713,733,753,773,794,814,833,854,874,893,913,933,953,974,993,1013,1033,1053,1074,1094,1113,1133,1153,1174,1193,1214,1233,1253,1273,1293,1314,1334,1353,1373,1393,1414,1434,1454,1473,1493,1514,1534,1554,1573,1594,1613,1633,1654,1673,1693,1714,1734,1753,1773,1793,1813,1833,1854,1873,1893,1914,1933],"xSR":741.5,"ySR":447.2,"xT1":424.9,"yT1":0,"xT2":1058.1,"yT2":0,"toosoon":0,"cond_shown":"randomdotsizeEA","ratio_trial":750,"smaller_num":"18","larger_num":"24","correct_side":1,"subjID":"IsauraHernwndezGomez23","gender":"1","age":"11","school":"6"},{"start_time":1551801440308,"click_time":1551801441697,"finger_time":1551801441557,"fix_duration":250,"trial":20,"RT":1249,"MT":140,"sideResp":2,"stimulus":"img/250/randomdotsizeEA/R/4_Ratio_250_L_3_R_12.png","xmouse":[778,778,778,778,778,778,778,778,778,778,778,778,778,778,778,778,778,778,778,778,778,778,778,778,778,778,778,778,778,778,778,778,778,778,778,778,778,778,778,778,778,778,778,778,778,778,779,779,779,779,779,779,779,779,779,779,779,779,779,779,779,779,805,874,943,1002,1073,1132,1146,1152],"ymouse":[475,475,475,475,475,475,475,475,475,475,475,475,475,475,475,475,475,475,475,475,475,475,475,475,475,475,475,475,475,475,475,475,475,475,475,475,475,475,475,475,475,475,475,475,475,475,474,467,467,467,467,467,467,467,467,467,467,467,467,467,467,466,444,386,317,255,184,129,109,95],"timestamp_mouse":[9,39,49,69,89,110,130,150,169,188,209,229,250,270,290,308,330,350,369,389,421,430,449,470,489,509,530,550,569,590,610,629,649,669,690,709,729,750,769,789,809,829,849,869,889,909,929,948,970,990,1010,1029,1049,1069,1090,1109,1129,1150,1169,1190,1209,1229,1249,1269,1290,1309,1329,1349,1369,1389],"xSR":741.5,"ySR":447.2,"xT1":424.9,"yT1":0,"xT2":1058.1,"yT2":0,"toosoon":0,"cond_shown":"randomdotsizeEA","ratio_trial":250,"smaller_num":"3","larger_num":"12","correct_side":2,"subjID":"IsauraHernwndezGomez23","gender":"1","age":"11","school":"6"},{"start_time":1551801443350,"click_time":1551801444357,"finger_time":1551801444157,"fix_duration":250,"trial":21,"RT":807,"MT":200,"sideResp":2,"stimulus":"img/500/equaldotsize/R/14_Ratio_500_L_5_R_10.png","xmouse":[816,816,816,816,816,816,816,818,823,825,826,826,826,826,826,826,826,826,826,826,826,826,826,826,826,826,826,826,826,826,826,826,826,826,826,826,826,826,830,835,870,895,925,964,999,1025,1036,1045,1055,1066,1087],"ymouse":[489,489,489,489,489,489,489,489,489,488,488,488,488,488,488,488,488,488,488,488,488,488,488,488,488,488,488,488,488,488,488,488,488,488,488,488,488,488,476,464,372,322,278,230,194,169,157,147,132,117,88],"timestamp_mouse":[10,36,47,68,87,106,127,147,168,188,207,228,246,267,287,308,328,347,368,388,407,427,448,467,487,507,527,548,568,588,607,627,648,668,688,707,727,748,766,788,807,827,847,867,887,907,927,947,968,987,1007],"xSR":741.5,"ySR":447.2,"xT1":424.9,"yT1":0,"xT2":1058.1,"yT2":0,"toosoon":0,"cond_shown":"equaldotsize","ratio_trial":500,"smaller_num":"5","larger_num":"10","correct_side":2,"subjID":"IsauraHernwndezGomez23","gender":"1","age":"11","school":"6"},{"start_time":1551801446600,"click_time":1551801447917,"finger_time":1551801447337,"fix_duration":1321.8796701578262,"trial":22,"RT":737,"MT":580,"sideResp":1,"stimulus":"img/900/randomdotsizeEA/R/5_Ratio_900_L_9_R_10.png","xmouse":[800,800,800,800,800,800,800,800,799,798,795,793,793,793,793,793,793,793,793,793,793,793,793,793,793,793,793,793,793,793,793,793,793,785,767,747,727,700,693,683,674,663,642,636,633,632,632,631,629,625,617,600,576,570,566,563,560,554,552,549,546,544,536,527,515,502],"ymouse":[488,488,488,488,488,488,488,488,488,488,488,488,488,488,488,488,488,488,488,488,488,488,488,488,488,488,488,488,488,488,488,488,488,486,475,462,446,415,403,386,367,349,312,303,297,294,293,284,273,259,239,205,162,151,143,138,135,129,127,126,124,123,118,112,100,91],"timestamp_mouse":[22,40,57,77,97,117,137,157,176,197,217,237,257,277,297,318,337,356,377,396,417,436,458,478,498,517,538,557,578,597,616,638,656,677,697,718,737,757,777,797,817,837,857,877,898,917,937,957,978,998,1017,1037,1057,1077,1097,1117,1137,1157,1177,1197,1217,1238,1257,1277,1298,1317],"xSR":741.5,"ySR":447.2,"xT1":424.9,"yT1":0,"xT2":1058.1,"yT2":0,"toosoon":0,"cond_shown":"randomdotsizeEA","ratio_trial":900,"smaller_num":"9","larger_num":"10","correct_side":2,"subjID":"IsauraHernwndezGomez23","gender":"1","age":"11","school":"6"},{"start_time":1551801457914,"click_time":1551801459677,"finger_time":1551801458957,"fix_duration":1355.6367206575956,"trial":23,"RT":1043,"MT":720,"sideResp":1,"stimulus":"img/750/equaldotsize/L/14_Ratio_750_L_8_R_6.png","xmouse":[778,778,778,778,778,778,778,778,778,778,778,778,778,778,778,778,778,778,778,778,778,778,778,778,778,778,778,778,778,778,778,778,778,778,778,778,778,778,778,778,778,778,778,778,778,778,778,778,778,778,778,778,776,764,751,746,722,716,708,698,687,673,635,614,589,565,541,489,478,466,455,450,446,445,445,445,445,445,445,445,445,445,445,446,447,448,451,455,456],"ymouse":[500,500,500,500,500,500,500,500,500,500,500,500,500,500,500,500,500,500,500,500,500,500,500,500,500,500,500,500,500,500,500,500,500,500,500,500,500,500,500,500,500,500,500,500,500,500,500,500,500,500,500,489,435,404,371,362,329,323,316,308,300,289,264,248,234,222,208,175,162,149,135,128,121,121,121,121,121,121,121,121,121,120,120,118,116,114,110,100,96],"timestamp_mouse":[8,23,44,63,84,104,124,144,162,183,203,224,243,262,284,303,322,343,363,383,404,422,444,464,482,503,523,542,563,583,603,623,644,664,684,703,723,744,763,783,803,824,843,864,883,903,923,943,964,983,1003,1023,1043,1064,1083,1104,1124,1142,1163,1183,1203,1224,1243,1263,1284,1304,1322,1343,1363,1384,1403,1423,1443,1463,1483,1504,1524,1543,1562,1583,1603,1624,1643,1663,1683,1703,1724,1743,1763],"xSR":741.5,"ySR":447.2,"xT1":424.9,"yT1":0,"xT2":1058.1,"yT2":0,"toosoon":0,"cond_shown":"equaldotsize","ratio_trial":750,"smaller_num":"6","larger_num":"8","correct_side":1,"subjID":"IsauraHernwndezGomez23","gender":"1","age":"11","school":"6"},{"start_time":1551801462500,"click_time":1551801464457,"finger_time":1551801463577,"fix_duration":640.3298154714995,"trial":24,"RT":1077,"MT":880,"sideResp":2,"stimulus":"img/500/equaldotanddens/R/15_Ratio_500_L_1_R_2.png","xmouse":[806,806,806,806,806,806,806,806,806,806,806,806,806,806,806,806,806,806,806,806,806,806,806,806,806,806,806,806,806,806,806,806,806,806,806,806,806,806,806,806,806,806,806,806,806,806,806,806,806,806,806,806,814,871,995,1141,1348,1573,1573,1573,1573,1573,1573,1573,1573,1573,1573,1573,1573,1573,1573,1565,1553,1542,1531,1526,1526,1526,1526,1526,1526,1526,1526,1526,1526,1526,1526,1526,1526,1526,1526,1526,1526,1526,1526,1526,1526,1105],"ymouse":[517,517,517,517,517,517,517,517,517,517,517,517,517,517,517,517,517,517,517,517,517,517,517,517,517,517,517,517,517,517,517,517,517,517,517,517,517,517,517,517,517,517,517,517,517,517,517,517,517,517,517,517,516,516,516,502,489,470,470,470,470,470,470,470,470,470,470,470,470,470,470,83,56,33,12,3,3,3,3,3,3,3,3,3,3,3,3,3,3,3,3,3,3,3,3,3,3,23],"timestamp_mouse":[17,38,57,78,97,117,138,157,178,197,218,238,257,278,297,317,337,358,377,398,417,438,457,477,497,517,538,558,577,597,617,637,657,678,697,717,738,757,777,796,818,837,857,877,897,917,938,957,977,997,1017,1036,1056,1077,1097,1117,1137,1158,1177,1197,1217,1238,1257,1277,1297,1317,1338,1357,1377,1398,1417,1438,1457,1477,1497,1517,1538,1558,1578,1597,1618,1637,1658,1677,1698,1717,1737,1757,1777,1798,1818,1837,1857,1877,1896,1918,1938,1957],"xSR":741.5,"ySR":447.2,"xT1":424.9,"yT1":0,"xT2":1058.1,"yT2":0,"toosoon":0,"cond_shown":"equaldotanddens","ratio_trial":500,"smaller_num":"1","larger_num":"2","correct_side":2,"subjID":"IsauraHernwndezGomez23","gender":"1","age":"11","school":"6"},{"start_time":1551801468962,"click_time":1551801469817,"finger_time":1551801469717,"fix_duration":1304.692265482288,"trial":25,"RT":755,"MT":100,"sideResp":1,"stimulus":"img/250/equaldotsize/L/2_Ratio_250_L_16_R_4.png","xmouse":[799,799,799,799,799,799,799,799,799,794,791,790,790,790,790,790,790,790,790,790,790,790,790,790,790,790,790,790,790,790,790,790,790,790,790,787,778,762,739,666,624,573,521],"ymouse":[471,471,471,471,471,471,471,471,471,471,474,475,475,475,475,475,475,475,475,475,475,475,475,475,475,475,475,475,475,475,475,475,475,475,475,474,454,408,355,224,160,96,38],"timestamp_mouse":[16,39,55,75,95,116,136,155,175,195,215,235,255,275,295,315,335,355,376,395,415,436,455,475,495,515,536,554,575,596,615,635,656,675,695,715,735,755,776,795,815,835,855],"xSR":741.5,"ySR":447.2,"xT1":424.9,"yT1":0,"xT2":1058.1,"yT2":0,"toosoon":0,"cond_shown":"equaldotsize","ratio_trial":250,"smaller_num":"4","larger_num":"16","correct_side":1,"subjID":"IsauraHernwndezGomez23","gender":"1","age":"11","school":"6"},{"start_time":1551801472176,"click_time":1551801473477,"finger_time":1551801472818,"fix_duration":1418.0353390469681,"trial":26,"RT":642,"MT":659,"sideResp":1,"stimulus":"img/250/equaldotsize/L/15_Ratio_250_L_12_R_3.png","xmouse":[765,765,765,765,765,765,765,765,765,765,765,765,765,765,765,765,765,765,765,765,765,765,765,765,765,765,765,765,765,765,765,766,766,766,766,766,766,766,766,766,766,766,766,761,752,744,734,722,706,669,654,642,635,634,634,634,634,634,634,634,634,632,604,564,537,513],"ymouse":[483,483,483,483,483,483,483,483,483,483,483,483,483,483,483,483,483,483,483,483,483,483,483,483,483,483,483,483,483,483,483,464,417,352,230,199,181,175,173,173,173,172,167,155,142,135,127,119,109,92,84,79,75,75,75,75,75,75,75,75,75,74,62,45,34,23],"timestamp_mouse":[9,34,42,62,81,101,121,141,162,182,201,222,242,262,281,301,321,341,361,381,400,421,441,461,480,502,521,541,561,581,601,621,642,661,680,701,721,741,762,782,801,822,841,862,881,901,921,943,962,982,1003,1021,1041,1061,1081,1102,1122,1141,1163,1181,1201,1222,1242,1263,1282,1301],"xSR":741.5,"ySR":447.2,"xT1":424.9,"yT1":0,"xT2":1058.1,"yT2":0,"toosoon":0,"cond_shown":"equaldotsize","ratio_trial":250,"smaller_num":"3","larger_num":"12","correct_side":1,"subjID":"IsauraHernwndezGomez23","gender":"1","age":"11","school":"6"},{"start_time":1551801475648,"click_time":1551801476899,"finger_time":1551801476358,"fix_duration":969.5998796878582,"trial":27,"RT":710,"MT":541,"sideResp":1,"stimulus":"img/750/equaldotanddens/L/6_Ratio_750_L_24_R_18.png","xmouse":[820,820,820,820,820,820,820,820,820,820,813,810,808,806,806,806,806,806,806,806,806,806,806,806,806,806,806,806,806,806,806,806,806,806,797,777,760,731,675,634,606,605,604,604,604,604,602,602,602,602,602,602,602,602,602,602,561,553,547,543,537,529,518],"ymouse":[489,489,489,489,489,489,489,489,489,488,485,482,481,481,481,481,481,481,481,481,481,481,481,481,481,481,481,481,481,481,481,481,481,481,467,426,361,281,151,76,20,11,9,9,9,7,1,1,1,1,1,1,1,1,1,1,2,6,9,11,14,17,21],"timestamp_mouse":[10,43,50,70,91,111,131,150,171,189,210,230,249,271,290,310,330,351,369,390,409,431,450,470,491,511,529,550,571,590,609,630,650,669,690,710,730,750,770,789,809,829,851,870,889,909,930,950,970,991,1011,1030,1049,1070,1091,1109,1129,1151,1170,1190,1209,1230,1251],"xSR":741.5,"ySR":447.2,"xT1":424.9,"yT1":0,"xT2":1058.1,"yT2":0,"toosoon":0,"cond_shown":"equaldotanddens","ratio_trial":750,"smaller_num":"18","larger_num":"24","correct_side":1,"subjID":"IsauraHernwndezGomez23","gender":"1","age":"11","school":"6"},{"start_time":1551801478924,"click_time":1551801480498,"finger_time":1551801479757,"fix_duration":1102.1448825825387,"trial":28,"RT":833,"MT":741,"sideResp":1,"stimulus":"img/750/randomdotsizeEA/R/4_Ratio_750_L_15_R_20.png","xmouse":[801,801,801,801,801,801,801,801,801,801,801,801,801,801,801,801,801,801,801,801,801,801,801,801,801,801,801,801,801,801,801,801,801,801,801,801,800,796,791,787,781,768,759,752,746,741,720,706,696,686,679,679,679,679,679,672,661,648,630,615,583,569,558,555,555,555,555,555,555,555,555,555,555,555,555,555,550,538,519],"ymouse":[508,508,508,508,508,508,508,508,508,508,508,508,508,508,508,508,508,508,508,508,508,508,508,508,508,508,508,508,508,508,508,508,508,508,508,508,503,494,483,469,451,403,375,348,324,300,246,222,206,193,181,180,180,179,179,162,144,121,97,76,39,27,19,17,17,17,17,17,17,17,17,17,17,17,17,17,17,20,21],"timestamp_mouse":[14,48,53,74,94,115,135,154,173,194,213,233,253,274,294,314,335,355,375,394,414,434,453,475,494,514,534,554,575,593,613,635,655,673,694,714,733,754,775,794,814,833,854,874,895,914,934,954,975,995,1015,1034,1055,1074,1094,1115,1134,1153,1175,1194,1215,1234,1253,1274,1295,1314,1333,1354,1374,1393,1414,1434,1454,1473,1493,1514,1534,1554,1574],"xSR":741.5,"ySR":447.2,"xT1":424.9,"yT1":0,"xT2":1058.1,"yT2":0,"toosoon":0,"cond_shown":"randomdotsizeEA","ratio_trial":750,"smaller_num":"15","larger_num":"20","correct_side":2,"subjID":"IsauraHernwndezGomez23","gender":"1","age":"11","school":"6"},{"start_time":1551801482854,"click_time":1551801484758,"finger_time":1551801484058,"fix_duration":1095.734709676667,"trial":29,"RT":1204,"MT":700,"sideResp":2,"stimulus":"img/900/equaldotanddens/L/2_Ratio_900_L_20_R_18.png","xmouse":[773,773,773,773,773,773,773,773,773,773,773,773,773,773,773,773,773,773,773,773,773,773,773,773,773,773,773,773,773,773,773,773,773,773,773,773,773,773,773,773,773,773,773,773,773,773,773,773,773,773,773,773,773,773,773,773,773,778,788,799,816,823,829,835,851,889,900,909,915,925,938,948,954,962,971,999,1019,1037,1052,1068,1078,1080,1083,1085,1087,1089,1089,1090,1090,1091,1094,1096,1098,1099,1101,1102],"ymouse":[497,497,497,497,497,497,497,497,497,497,497,497,497,497,497,497,497,497,497,497,497,497,497,497,497,497,497,497,497,497,497,497,497,497,497,497,497,497,497,497,497,497,497,497,497,497,497,497,497,497,497,497,497,497,497,497,497,494,488,475,445,431,418,405,387,353,341,330,322,307,284,269,256,244,233,209,195,182,171,156,143,139,134,129,126,124,123,121,121,118,114,112,109,108,104,96],"timestamp_mouse":[9,38,43,64,84,103,125,145,163,185,203,223,245,263,284,303,324,344,364,383,405,423,443,464,483,505,524,543,563,584,605,625,645,663,683,704,723,743,764,783,803,825,844,864,885,905,924,944,964,984,1005,1023,1045,1064,1083,1104,1124,1144,1164,1185,1204,1223,1245,1264,1285,1304,1324,1345,1365,1384,1404,1423,1444,1465,1483,1504,1525,1544,1563,1583,1603,1624,1644,1665,1684,1704,1724,1744,1764,1785,1804,1824,1845,1864,1884,1904],"xSR":741.5,"ySR":447.2,"xT1":424.9,"yT1":0,"xT2":1058.1,"yT2":0,"toosoon":0,"cond_shown":"equaldotanddens","ratio_trial":900,"smaller_num":"18","larger_num":"20","correct_side":1,"subjID":"IsauraHernwndezGomez23","gender":"1","age":"11","school":"6"},{"start_time":1551801487029,"click_time":1551801488539,"finger_time":1551801487838,"fix_duration":1229.5272658633812,"trial":30,"RT":809,"MT":701,"sideResp":2,"stimulus":"img/250/equaldotsize/R/13_Ratio_250_L_2_R_8.png","xmouse":[794,794,794,794,794,794,794,794,794,794,794,794,794,794,794,794,794,794,794,794,794,794,794,794,794,794,794,794,794,794,794,794,794,794,794,794,794,795,797,806,832,872,886,897,905,910,917,921,923,927,931,934,935,938,941,963,981,1001,1017,1034,1054,1079,1087,1093,1095,1095,1095,1095,1095,1095,1095,1095,1095,1094,1094,1094],"ymouse":[476,476,476,476,476,476,476,476,476,476,476,476,476,476,476,476,476,476,476,476,476,476,476,476,476,476,476,476,476,476,476,476,476,476,476,476,476,476,474,468,444,390,368,351,337,329,312,306,300,295,289,280,277,270,262,229,208,191,177,163,147,129,123,117,112,109,109,109,109,109,109,109,108,105,101,89],"timestamp_mouse":[8,43,49,68,89,109,129,149,169,189,209,230,249,268,288,310,329,349,368,389,408,429,448,469,488,509,529,548,568,589,608,628,648,670,689,709,730,749,770,789,809,828,848,869,889,909,929,949,970,989,1009,1029,1049,1069,1090,1110,1129,1148,1168,1189,1209,1228,1249,1268,1289,1310,1329,1350,1369,1390,1409,1429,1448,1470,1489,1510],"xSR":741.5,"ySR":447.2,"xT1":424.9,"yT1":0,"xT2":1058.1,"yT2":0,"toosoon":0,"cond_shown":"equaldotsize","ratio_trial":250,"smaller_num":"2","larger_num":"8","correct_side":2,"subjID":"IsauraHernwndezGomez23","gender":"1","age":"11","school":"6"},{"start_time":1551801490597,"click_time":1551801491738,"finger_time":1551801491337,"fix_duration":698.8987533136232,"trial":31,"RT":740,"MT":401,"sideResp":2,"stimulus":"img/250/equaldotanddens/R/6_Ratio_250_L_6_R_24.png","xmouse":[785,785,785,785,785,785,785,785,785,785,785,785,785,785,785,785,785,785,785,785,785,785,785,785,785,785,785,785,785,785,785,785,785,789,802,817,831,847,897,921,943,972,1013,1044,1050,1054,1057,1060,1065,1068,1071,1074,1075,1080,1084,1088,1093,1098],"ymouse":[498,498,498,498,498,498,498,498,498,498,498,498,498,498,498,498,498,498,498,498,498,498,498,498,498,498,498,498,498,498,498,497,497,490,479,467,453,437,386,361,344,320,286,255,243,235,229,223,214,205,195,175,162,133,121,111,100,89],"timestamp_mouse":[9,20,41,61,82,100,121,141,162,181,201,220,241,260,281,301,321,340,360,381,401,421,441,460,481,501,520,542,562,580,601,620,642,661,681,702,721,740,760,781,801,821,841,860,881,902,921,940,960,981,1001,1020,1041,1061,1080,1102,1121,1141],"xSR":741.5,"ySR":447.2,"xT1":424.9,"yT1":0,"xT2":1058.1,"yT2":0,"toosoon":0,"cond_shown":"equaldotanddens","ratio_trial":250,"smaller_num":"6","larger_num":"24","correct_side":2,"subjID":"IsauraHernwndezGomez23","gender":"1","age":"11","school":"6"},{"start_time":1551801493617,"click_time":1551801495298,"finger_time":1551801494719,"fix_duration":916.1870294256718,"trial":32,"RT":1102,"MT":579,"sideResp":2,"stimulus":"img/500/randomdotsizeEA/R/1_Ratio_500_L_9_R_18.png","xmouse":[795,795,795,795,795,795,795,795,795,795,795,795,795,795,795,795,795,795,795,795,795,795,795,795,795,795,795,795,795,795,795,795,795,795,795,795,795,795,795,795,795,795,795,795,795,795,795,795,795,795,795,795,804,815,828,844,860,902,942,1004,1062,1164,1288,1337,1368,1376,1376,1376,1376,1376,1376,1376,1376,1376,1376,1376,1376,1376,1268,1252,1249,1243,1222,1190,1133],"ymouse":[505,505,505,505,505,505,505,505,505,505,505,505,505,505,505,505,505,505,505,505,505,505,505,505,505,505,505,505,505,505,505,505,505,505,505,505,505,505,505,505,505,505,505,505,505,505,505,505,505,505,505,502,491,478,465,448,433,404,387,363,333,271,159,96,45,22,22,22,22,22,22,22,22,22,22,22,22,22,3,34,40,48,52,54,54],"timestamp_mouse":[10,22,42,61,81,101,121,140,162,180,201,221,242,260,282,301,322,340,361,382,401,420,441,462,480,501,521,540,562,581,600,622,642,660,680,701,721,742,760,781,801,822,841,862,881,901,920,940,961,981,1001,1021,1040,1061,1081,1102,1120,1140,1161,1181,1202,1220,1241,1261,1280,1301,1321,1341,1361,1381,1400,1420,1440,1460,1481,1501,1521,1540,1560,1580,1600,1620,1640,1660,1681],"xSR":741.5,"ySR":447.2,"xT1":424.9,"yT1":0,"xT2":1058.1,"yT2":0,"toosoon":0,"cond_shown":"randomdotsizeEA","ratio_trial":500,"smaller_num":"9","larger_num":"18","correct_side":2,"subjID":"IsauraHernwndezGomez23","gender":"1","age":"11","school":"6"},{"start_time":1551801496529,"click_time":1551801497678,"finger_time":1551801497317,"fix_duration":250,"trial":33,"RT":788,"MT":361,"sideResp":2,"stimulus":"img/750/randomdotsizeEA/R/11_Ratio_750_L_12_R_16.png","xmouse":[787,787,787,787,787,787,787,787,787,787,787,787,787,787,787,787,787,787,787,787,787,787,787,787,787,787,787,787,787,787,787,787,787,787,787,787,787,800,822,853,888,927,934,939,945,954,961,963,965,967,977,983,992,999,1006,1023,1055,1069],"ymouse":[505,505,505,505,505,505,505,505,505,505,505,505,505,505,505,505,505,505,505,505,505,505,505,505,505,505,505,505,505,505,505,505,505,505,505,505,505,493,476,428,364,280,255,238,217,194,179,172,168,163,148,140,130,124,118,108,97,91],"timestamp_mouse":[8,40,48,68,89,108,129,148,168,189,209,230,248,268,289,309,328,349,370,389,409,430,449,469,490,510,528,549,570,588,610,629,650,668,690,710,728,749,770,788,810,829,848,868,890,908,929,949,970,990,1011,1029,1050,1068,1090,1108,1128,1149],"xSR":741.5,"ySR":447.2,"xT1":424.9,"yT1":0,"xT2":1058.1,"yT2":0,"toosoon":0,"cond_shown":"randomdotsizeEA","ratio_trial":750,"smaller_num":"12","larger_num":"16","correct_side":2,"subjID":"IsauraHernwndezGomez23","gender":"1","age":"11","school":"6"},{"start_time":1551801500033,"click_time":1551801501138,"finger_time":1551801500699,"fix_duration":1053.597991064122,"trial":34,"RT":666,"MT":439,"sideResp":2,"stimulus":"img/250/equaldotanddens/R/9_Ratio_250_L_3_R_12.png","xmouse":[781,781,781,781,781,781,781,781,781,781,781,781,781,781,781,781,781,781,781,781,781,781,781,781,781,781,781,781,781,782,783,791,796,803,812,829,840,852,866,886,916,958,976,989,999,1008,1009,1011,1012,1013,1021,1039,1047,1057,1065,1076],"ymouse":[480,480,480,480,480,480,480,480,480,480,480,480,480,480,480,480,480,480,480,480,480,480,480,480,480,480,480,480,480,480,480,469,458,445,429,395,378,358,340,321,296,257,232,211,188,161,153,150,145,143,135,122,118,110,105,99],"timestamp_mouse":[8,25,45,65,86,105,125,144,165,184,205,226,245,266,285,305,324,345,364,385,406,426,445,465,484,504,526,544,566,585,605,624,645,666,686,706,725,744,765,784,805,825,845,864,884,906,925,946,964,984,1004,1024,1045,1065,1085,1105],"xSR":741.5,"ySR":447.2,"xT1":424.9,"yT1":0,"xT2":1058.1,"yT2":0,"toosoon":0,"cond_shown":"equaldotanddens","ratio_trial":250,"smaller_num":"3","larger_num":"12","correct_side":2,"subjID":"IsauraHernwndezGomez23","gender":"1","age":"11","school":"6"},{"start_time":1551801515548,"click_time":1551801516838,"finger_time":1551801516377,"fix_duration":689.9834162537684,"trial":35,"RT":829,"MT":461,"sideResp":1,"stimulus":"img/750/randomdotsizeEA/R/15_Ratio_750_L_9_R_12.png","xmouse":[784,784,784,784,784,784,784,784,784,784,784,784,784,784,784,784,784,784,784,784,784,784,784,784,784,784,784,784,784,784,784,784,784,784,784,784,784,784,784,784,783,782,779,774,766,759,755,747,736,704,691,683,681,679,675,663,650,636,619,574,560,555,549,538,518],"ymouse":[491,491,491,491,491,491,491,491,491,491,491,491,491,491,491,491,491,491,491,491,491,491,491,491,491,491,491,491,491,491,491,491,491,491,491,491,491,490,488,478,451,442,429,412,387,365,351,328,296,239,221,210,205,202,193,172,159,143,125,87,75,69,61,50,38],"timestamp_mouse":[12,39,51,70,91,111,129,150,170,191,210,229,249,270,289,310,330,350,370,391,409,430,449,470,491,509,531,550,570,590,611,629,649,670,689,711,729,751,770,789,809,829,849,870,890,909,930,950,970,991,1010,1029,1051,1071,1091,1110,1129,1149,1170,1191,1209,1231,1251,1269,1290],"xSR":741.5,"ySR":447.2,"xT1":424.9,"yT1":0,"xT2":1058.1,"yT2":0,"toosoon":0,"cond_shown":"randomdotsizeEA","ratio_trial":750,"smaller_num":"9","larger_num":"12","correct_side":2,"subjID":"IsauraHernwndezGomez23","gender":"1","age":"11","school":"6"},{"start_time":1551801520415,"click_time":1551801522298,"finger_time":1551801521478,"fix_duration":1215.5184209421357,"trial":36,"RT":1063,"MT":820,"sideResp":2,"stimulus":"img/900/equaldotanddens/R/11_Ratio_900_L_18_R_20.png","xmouse":[801,801,801,801,801,801,801,801,801,801,801,801,801,801,801,801,801,801,801,801,801,801,801,801,801,801,801,801,801,801,801,801,801,801,801,801,801,801,801,801,801,801,801,801,801,801,801,801,801,801,801,801,836,851,858,862,867,873,877,884,893,913,945,953,961,969,980,1011,1017,1021,1023,1026,1033,1037,1041,1043,1043,1043,1043,1043,1043,1043,1043,1043,1043,1043,1043,1043,1043,1043,1043,1043,1046,1057,1069],"ymouse":[496,496,496,496,496,496,496,496,496,496,496,496,496,496,496,496,496,496,496,496,496,496,496,496,496,496,496,496,496,496,496,496,496,496,496,496,496,496,496,496,496,496,496,496,496,496,496,496,496,496,496,495,458,445,436,429,424,413,405,392,372,326,253,234,216,199,183,144,126,108,92,75,56,48,43,41,41,41,41,41,41,41,41,41,41,41,41,41,41,41,41,41,41,41,41],"timestamp_mouse":[8,22,49,63,83,103,122,144,163,184,202,224,242,264,284,302,324,343,364,383,404,424,443,463,483,504,522,542,564,582,602,623,642,662,684,704,722,743,762,783,802,824,844,863,883,903,924,944,962,983,1004,1023,1042,1063,1082,1104,1124,1142,1162,1183,1204,1222,1243,1263,1282,1302,1323,1342,1363,1383,1403,1423,1443,1462,1484,1504,1523,1543,1564,1583,1604,1624,1642,1662,1683,1703,1723,1744,1764,1783,1804,1823,1844,1863,1882],"xSR":741.5,"ySR":447.2,"xT1":424.9,"yT1":0,"xT2":1058.1,"yT2":0,"toosoon":0,"cond_shown":"equaldotanddens","ratio_trial":900,"smaller_num":"18","larger_num":"20","correct_side":2,"subjID":"IsauraHernwndezGomez23","gender":"1","age":"11","school":"6"},{"start_time":1551801524736,"click_time":1551801526358,"finger_time":1551801525979,"fix_duration":1235.3873989554984,"trial":37,"RT":1243,"MT":379,"sideResp":1,"stimulus":"img/500/randomdotsizeEA/L/4_Ratio_500_L_18_R_9.png","xmouse":[815,815,815,815,815,815,815,815,815,815,815,815,815,815,815,815,815,815,815,815,815,815,815,815,815,815,815,815,815,815,815,815,815,815,815,815,815,815,815,815,815,815,815,815,815,815,815,815,815,815,815,815,815,815,814,801,798,798,798,798,797,767,724,657,621,601,598,597,596,591,584,550,524,507,501,498,495,494,491,489,487,486],"ymouse":[509,509,509,509,509,509,509,509,509,509,509,509,509,509,509,509,509,509,509,509,509,509,509,509,509,509,509,509,509,509,509,509,509,509,509,509,509,509,509,509,509,509,509,509,509,509,509,509,509,509,509,509,509,510,512,518,518,518,518,518,518,487,450,412,387,364,356,353,343,329,311,249,213,188,172,165,154,149,140,129,114,77],"timestamp_mouse":[12,22,43,62,81,102,123,141,162,182,201,222,242,262,283,302,321,342,361,382,402,423,442,463,482,501,522,541,562,581,602,623,642,663,681,703,721,742,762,783,803,821,842,862,882,901,923,942,962,983,1002,1023,1042,1061,1081,1101,1122,1142,1161,1182,1201,1221,1243,1262,1282,1302,1322,1341,1363,1382,1401,1421,1442,1462,1481,1501,1521,1542,1561,1581,1601,1622],"xSR":741.5,"ySR":447.2,"xT1":424.9,"yT1":0,"xT2":1058.1,"yT2":0,"toosoon":0,"cond_shown":"randomdotsizeEA","ratio_trial":500,"smaller_num":"9","larger_num":"18","correct_side":1,"subjID":"IsauraHernwndezGomez23","gender":"1","age":"11","school":"6"},{"start_time":1551801528818,"click_time":1551801530057,"finger_time":1551801529857,"fix_duration":1438.5452103929645,"trial":38,"RT":1039,"MT":200,"sideResp":1,"stimulus":"img/750/equaldotsize/L/8_Ratio_750_L_4_R_3.png","xmouse":[816,816,817,817,817,817,817,817,817,817,818,818,818,818,819,819,819,819,819,819,819,819,819,819,819,819,819,819,819,819,819,819,819,819,819,819,819,819,819,819,819,819,819,819,819,819,819,819,819,819,819,811,786,780,776,770,762,732,702,664,615,544,491],"ymouse":[478,478,477,477,477,477,477,477,477,477,476,475,475,475,474,472,472,472,472,472,472,472,472,472,472,472,472,472,472,472,472,472,472,472,472,472,472,472,472,472,472,472,472,472,472,472,472,472,472,472,469,454,420,411,406,399,384,333,290,237,178,105,57],"timestamp_mouse":[1,20,53,61,80,101,121,140,159,179,199,221,240,260,279,300,321,341,359,380,399,420,441,460,480,500,521,539,560,581,599,621,640,659,681,701,719,740,761,780,800,821,841,859,880,901,921,940,959,981,1000,1020,1039,1060,1081,1100,1120,1140,1160,1180,1200,1219,1239],"xSR":741.5,"ySR":447.2,"xT1":424.9,"yT1":0,"xT2":1058.1,"yT2":0,"toosoon":0,"cond_shown":"equaldotsize","ratio_trial":750,"smaller_num":"3","larger_num":"4","correct_side":1,"subjID":"IsauraHernwndezGomez23","gender":"1","age":"11","school":"6"},{"start_time":1551801532568,"click_time":1551801533939,"finger_time":1551801533438,"fix_duration":1408.1804465978155,"trial":39,"RT":870,"MT":501,"sideResp":1,"stimulus":"img/500/equaldotanddens/L/4_Ratio_500_L_18_R_9.png","xmouse":[796,796,796,796,796,796,796,796,796,796,796,796,796,796,796,796,796,796,796,796,796,796,796,796,796,796,796,796,796,796,796,796,796,796,796,796,796,796,796,796,795,791,778,768,718,695,680,668,658,657,657,655,653,650,632,622,609,595,585,577,577,576,573,570,558,551,541,536,523],"ymouse":[486,486,486,486,486,486,486,486,486,486,486,486,486,486,486,486,486,486,486,486,486,486,486,486,486,486,486,486,486,486,486,486,486,486,486,486,486,486,486,486,485,478,454,436,345,307,282,260,241,239,238,236,231,226,202,186,171,153,141,134,134,134,133,130,120,115,109,104,94],"timestamp_mouse":[10,36,51,69,90,111,130,150,169,191,210,229,250,271,289,309,331,350,369,391,410,430,449,471,491,510,531,551,570,590,610,631,650,670,690,710,731,750,770,790,810,830,850,870,890,919,930,950,971,990,1010,1030,1050,1070,1090,1110,1130,1151,1171,1191,1210,1230,1250,1270,1289,1310,1330,1350,1371],"xSR":741.5,"ySR":447.2,"xT1":424.9,"yT1":0,"xT2":1058.1,"yT2":0,"toosoon":0,"cond_shown":"equaldotanddens","ratio_trial":500,"smaller_num":"9","larger_num":"18","correct_side":1,"subjID":"IsauraHernwndezGomez23","gender":"1","age":"11","school":"6"},{"start_time":1551801539378,"click_time":1551801540858,"finger_time":1551801540418,"fix_duration":1258.5997267914845,"trial":40,"RT":1040,"MT":440,"sideResp":2,"stimulus":"img/900/randomdotsizeEA/L/10_Ratio_900_L_20_R_18.png","xmouse":[805,805,805,805,805,805,805,805,805,805,805,805,805,805,805,805,805,805,805,805,805,805,805,805,805,805,805,805,805,805,805,805,805,805,805,805,805,805,805,805,805,805,805,805,805,805,805,805,805,805,817,830,883,916,946,951,955,964,976,1012,1026,1038,1051,1059,1079,1087,1094,1102,1107,1114,1116,1116,1116,1116,1116],"ymouse":[492,492,492,492,492,492,492,492,492,492,492,492,492,492,492,492,492,492,492,492,492,492,492,492,492,492,492,492,492,492,492,492,492,492,492,492,492,492,492,492,492,492,492,492,492,492,492,492,492,492,485,478,453,439,422,418,411,397,377,328,308,290,269,257,228,215,201,185,173,152,147,144,132,120,96],"timestamp_mouse":[8,20,40,60,80,101,120,141,160,180,200,220,240,260,280,300,321,341,360,380,400,419,440,461,480,500,521,540,560,580,601,620,640,660,680,699,721,740,760,780,800,820,840,860,880,900,920,940,960,980,1001,1020,1040,1061,1080,1100,1120,1140,1160,1180,1201,1221,1240,1261,1280,1300,1320,1340,1361,1380,1400,1420,1439,1460,1480],"xSR":741.5,"ySR":447.2,"xT1":424.9,"yT1":0,"xT2":1058.1,"yT2":0,"toosoon":0,"cond_shown":"randomdotsizeEA","ratio_trial":900,"smaller_num":"18","larger_num":"20","correct_side":1,"subjID":"IsauraHernwndezGomez23","gender":"1","age":"11","school":"6"},{"start_time":1551801542150,"click_time":1551801543958,"finger_time":1551801543858,"fix_duration":250,"trial":41,"RT":1708,"MT":100,"sideResp":1,"stimulus":"img/900/randomdotsizeEA/R/5_Ratio_900_L_9_R_10.png","xmouse":[793,793,793,793,793,793,793,793,793,793,793,793,793,793,793,793,793,793,793,793,793,793,793,793,793,793,793,793,793,793,793,793,793,793,793,793,793,793,793,793,793,793,793,793,793,793,793,793,793,793,793,793,793,793,793,793,793,793,793,793,793,793,793,793,793,798,801,801,801,801,801,801,801,801,801,801,801,801,801,801,801,801,797,784,778,711,666,622,580,534,500],"ymouse":[469,469,469,469,469,469,469,469,469,469,469,469,469,469,469,469,469,469,469,469,469,469,469,469,469,469,469,469,469,469,469,469,469,469,469,469,469,469,469,469,469,469,469,469,469,469,469,469,469,469,469,469,469,469,469,469,469,469,469,469,469,469,469,471,477,512,519,521,521,521,521,521,521,521,521,521,521,521,521,521,521,513,503,466,451,325,265,207,144,95,56],"timestamp_mouse":[8,37,49,69,89,108,129,147,169,188,209,229,248,268,288,308,329,348,368,388,408,428,448,468,488,508,528,548,569,588,608,628,649,669,689,708,729,748,768,788,809,828,848,868,889,909,929,948,969,989,1008,1028,1049,1067,1089,1108,1128,1149,1169,1189,1209,1229,1249,1268,1289,1308,1328,1349,1369,1388,1409,1428,1447,1467,1488,1509,1529,1548,1569,1588,1608,1628,1648,1669,1688,1708,1728,1749,1767,1788,1808],"xSR":741.5,"ySR":447.2,"xT1":424.9,"yT1":0,"xT2":1058.1,"yT2":0,"toosoon":0,"cond_shown":"randomdotsizeEA","ratio_trial":900,"smaller_num":"9","larger_num":"10","correct_side":2,"subjID":"IsauraHernwndezGomez23","gender":"1","age":"11","school":"6"},{"start_time":1551801545900,"click_time":1551801547459,"finger_time":1551801546699,"fix_duration":1160.7461960795617,"trial":42,"RT":799,"MT":760,"sideResp":1,"stimulus":"img/900/equaldotsize/L/2_Ratio_900_L_20_R_18.png","xmouse":[804,804,804,804,804,804,804,804,804,804,804,804,804,804,804,804,804,804,804,804,804,804,804,804,804,804,804,804,804,804,804,804,804,804,804,804,804,804,804,798,790,780,767,762,756,745,736,717,707,697,685,664,654,646,638,630,616,596,587,580,575,572,572,572,572,572,572,572,572,572,572,572,572,572,572,551,533,504],"ymouse":[479,479,479,479,479,479,479,479,479,479,479,479,479,479,479,479,479,479,479,479,479,479,479,479,479,479,479,479,479,479,479,479,479,479,479,479,479,470,456,436,414,389,360,349,334,313,298,263,246,229,211,184,173,164,154,144,127,97,85,75,68,66,66,66,66,66,66,66,66,66,66,66,66,65,63,53,46,38],"timestamp_mouse":[18,43,58,78,97,118,138,157,178,199,218,239,258,279,298,318,339,358,379,398,418,438,459,479,499,518,538,558,578,599,618,639,659,678,698,718,738,759,778,799,818,838,858,878,899,918,938,958,978,998,1018,1039,1058,1078,1098,1119,1138,1158,1178,1197,1219,1239,1258,1278,1299,1319,1338,1358,1378,1398,1418,1438,1459,1479,1498,1518,1538,1558],"xSR":741.5,"ySR":447.2,"xT1":424.9,"yT1":0,"xT2":1058.1,"yT2":0,"toosoon":0,"cond_shown":"equaldotsize","ratio_trial":900,"smaller_num":"18","larger_num":"20","correct_side":1,"subjID":"IsauraHernwndezGomez23","gender":"1","age":"11","school":"6"},{"start_time":1551801550081,"click_time":1551801552758,"finger_time":1551801550858,"fix_duration":1481.6095440034492,"trial":43,"RT":777,"MT":1900,"sideResp":2,"stimulus":"img/900/equaldotanddens/R/6_Ratio_900_L_9_R_10.png","xmouse":[784,784,784,784,784,784,784,784,784,784,784,784,784,784,784,784,784,784,784,784,784,784,784,784,784,784,784,784,784,784,784,784,784,784,784,785,790,797,824,850,882,912,945,1020,1042,1061,1079,1090,1112,1123,1135,1146,1155,1166,1171,1173,1174,1175,1175,1175,1175,1175,1175,1175,1175,1175,1175,1175,1175,1175,1175,1175,1175,1175,1175,1175,1175,1175,1175,1175,1175,1175,1175,1175,1175,1175,1175,1175,1175,1175,1175,1175,1175,1175,1175,1175,1175,1175,1175,1175,1175,1175,1175,1175,1175,1175,1175,1175,1175,1175,1175,1175,1175,1175,1175,1175,1175,1175,1175,1175,1175,1175,1175,1175,1175,1175,1175,1175,1175,1175,1175,1175,1161,1060],"ymouse":[505,505,505,505,505,505,505,505,505,505,505,505,505,505,505,505,505,505,505,505,505,505,505,505,505,505,505,505,505,505,505,505,505,505,501,496,482,469,428,397,358,328,305,254,244,235,222,213,185,169,153,137,124,102,94,88,86,85,85,85,85,85,85,85,85,85,85,85,85,85,85,85,85,85,85,85,85,85,85,85,85,85,85,85,85,85,85,85,85,85,85,85,85,85,85,85,85,85,85,85,85,85,85,85,85,85,85,85,85,85,85,85,85,85,85,85,85,85,85,85,85,85,85,85,85,85,85,85,85,85,85,85,85,74],"timestamp_mouse":[18,37,57,78,97,118,138,158,178,198,217,238,258,277,297,317,337,358,377,397,417,437,457,478,496,517,537,557,577,597,617,637,657,677,698,718,737,757,777,797,818,837,857,877,897,917,938,957,977,997,1018,1037,1057,1077,1098,1117,1137,1157,1177,1197,1218,1237,1258,1277,1297,1317,1338,1358,1377,1398,1417,1437,1458,1477,1497,1517,1538,1558,1577,1598,1616,1637,1657,1677,1697,1718,1738,1758,1777,1797,1817,1836,1858,1877,1897,1917,1937,1956,1977,1997,2018,2038,2058,2077,2096,2117,2137,2158,2177,2198,2217,2238,2258,2277,2297,2317,2337,2357,2377,2398,2417,2438,2458,2477,2497,2517,2537,2557,2578,2597,2617,2637,2657,2677],"xSR":741.5,"ySR":447.2,"xT1":424.9,"yT1":0,"xT2":1058.1,"yT2":0,"toosoon":0,"cond_shown":"equaldotanddens","ratio_trial":900,"smaller_num":"9","larger_num":"10","correct_side":2,"subjID":"IsauraHernwndezGomez23","gender":"1","age":"11","school":"6"},{"start_time":1551801554272,"click_time":1551801555918,"finger_time":1551801555438,"fix_duration":451.75685910228805,"trial":44,"RT":1166,"MT":480,"sideResp":2,"stimulus":"img/900/equaldotsize/R/14_Ratio_900_L_18_R_20.png","xmouse":[775,775,775,775,775,775,775,775,775,775,775,775,775,775,775,775,775,775,775,775,775,775,775,775,775,775,775,775,775,775,775,775,775,775,775,775,775,775,775,775,775,775,775,775,775,775,775,775,775,775,775,775,775,775,775,775,788,805,906,1031,1070,1094,1107,1115,1123,1123,1123,1124,1128,1135,1137,1140,1142,1142,1142,1142,1142,1142,1141,1140,1136,1132,1129],"ymouse":[492,492,492,492,492,492,492,492,492,492,492,492,492,492,492,492,492,492,492,492,492,492,492,492,492,492,492,492,492,492,492,492,492,492,492,492,492,492,492,492,492,492,492,492,492,492,492,492,492,492,492,492,492,492,492,492,485,469,381,271,232,205,190,178,166,165,165,164,161,154,150,144,140,137,136,135,134,132,124,118,110,101,95],"timestamp_mouse":[9,37,46,67,86,107,126,146,167,187,206,226,247,267,286,307,326,347,373,386,406,426,447,467,486,506,527,547,566,587,605,626,646,667,687,706,726,746,766,787,806,826,847,866,887,906,926,946,967,986,1006,1026,1047,1067,1086,1106,1126,1147,1166,1186,1206,1227,1246,1266,1286,1306,1326,1346,1367,1386,1406,1425,1446,1466,1487,1506,1526,1546,1568,1586,1606,1627,1646],"xSR":741.5,"ySR":447.2,"xT1":424.9,"yT1":0,"xT2":1058.1,"yT2":0,"toosoon":0,"cond_shown":"equaldotsize","ratio_trial":900,"smaller_num":"18","larger_num":"20","correct_side":2,"subjID":"IsauraHernwndezGomez23","gender":"1","age":"11","school":"6"},{"start_time":1551801557377,"click_time":1551801559519,"finger_time":1551801558258,"fix_duration":656.2730235282319,"trial":45,"RT":881,"MT":1261,"sideResp":2,"stimulus":"img/900/equaldotanddens/L/10_Ratio_900_L_20_R_18.png","xmouse":[811,811,811,811,811,811,811,811,811,811,811,811,811,811,811,811,811,811,811,811,811,811,811,811,811,811,811,811,811,811,811,811,811,811,811,811,811,811,811,811,811,811,811,811,819,825,833,836,845,851,858,869,878,890,911,927,950,981,1036,1161,1229,1291,1323,1332,1332,1332,1332,1332,1332,1332,1332,1332,1332,1333,1330,1323,1318,1316,1313,1311,1310,1310,1308,1307,1306,1306,1306,1306,1306,1306,1306,1306,1307,1307,1288,1277,1266,1262,1262,1260,1260,1259,1256,1217,1196,1178,1163,1148],"ymouse":[502,502,502,502,502,502,502,502,502,502,502,502,502,502,502,502,502,502,502,502,502,502,502,502,502,502,502,502,502,502,502,502,502,502,502,502,502,502,502,502,502,502,502,494,441,386,334,284,200,171,148,119,102,83,59,48,41,36,35,44,54,67,75,77,77,77,77,77,77,77,77,77,77,78,86,98,105,108,112,115,116,117,119,120,121,121,121,121,121,121,121,120,92,71,34,21,14,13,13,14,14,16,19,30,33,35,36,37],"timestamp_mouse":[8,21,41,61,81,101,121,141,161,181,201,221,241,262,282,301,321,341,361,381,401,422,442,461,482,502,521,541,561,581,601,621,641,662,682,702,722,741,761,781,801,822,842,861,881,900,921,942,962,981,1001,1021,1042,1062,1081,1101,1121,1141,1161,1181,1201,1221,1241,1262,1281,1301,1322,1341,1362,1381,1401,1421,1441,1461,1481,1501,1522,1541,1561,1581,1601,1621,1642,1662,1681,1701,1721,1741,1761,1782,1801,1822,1841,1862,1881,1901,1922,1941,1961,1981,2002,2021,2041,2062,2081,2101,2121,2142],"xSR":741.5,"ySR":447.2,"xT1":424.9,"yT1":0,"xT2":1058.1,"yT2":0,"toosoon":0,"cond_shown":"equaldotanddens","ratio_trial":900,"smaller_num":"18","larger_num":"20","correct_side":1,"subjID":"IsauraHernwndezGomez23","gender":"1","age":"11","school":"6"},{"start_time":1551801561281,"click_time":1551801562979,"finger_time":1551801562398,"fix_duration":681.8973339180453,"trial":46,"RT":1117,"MT":581,"sideResp":2,"stimulus":"img/750/equaldotanddens/R/7_Ratio_750_L_3_R_4.png","xmouse":[772,772,772,772,772,772,772,772,772,772,772,772,772,772,772,772,772,772,772,772,772,772,772,772,772,772,772,772,772,772,772,772,772,772,772,772,772,772,772,772,772,772,772,772,772,772,772,772,772,772,772,772,771,785,797,809,831,849,880,897,916,932,950,1005,1057,1111,1162,1275,1275,1275,1275,1275,1275,1275,1275,1275,1275,1275,1275,1275,1275,1275,1275,1171,1157],"ymouse":[485,485,485,485,485,485,485,485,485,485,485,485,485,485,485,485,485,485,485,485,485,485,485,485,485,485,485,485,485,485,485,485,485,485,485,485,485,485,485,485,485,485,485,485,485,485,485,485,485,485,485,485,484,465,451,437,412,399,375,361,346,329,312,257,209,164,122,1,1,1,1,1,1,1,1,1,1,1,1,1,1,1,1,6,10],"timestamp_mouse":[17,41,58,76,97,117,137,158,177,197,217,238,257,278,297,318,337,357,377,398,418,437,458,478,497,517,537,557,577,598,617,638,657,677,697,718,737,757,777,797,817,838,857,877,897,917,938,957,977,997,1017,1037,1056,1077,1098,1117,1136,1157,1177,1197,1218,1237,1257,1277,1298,1318,1337,1359,1377,1398,1417,1437,1458,1478,1497,1517,1538,1557,1578,1598,1618,1637,1657,1676,1698],"xSR":741.5,"ySR":447.2,"xT1":424.9,"yT1":0,"xT2":1058.1,"yT2":0,"toosoon":0,"cond_shown":"equaldotanddens","ratio_trial":750,"smaller_num":"3","larger_num":"4","correct_side":2,"subjID":"IsauraHernwndezGomez23","gender":"1","age":"11","school":"6"},{"start_time":1551801565118,"click_time":1551801566540,"finger_time":1551801566098,"fix_duration":960.7509353109099,"trial":47,"RT":980,"MT":442,"sideResp":1,"stimulus":"img/250/equaldotanddens/L/7_Ratio_250_L_8_R_2.png","xmouse":[794,794,794,794,794,794,794,794,794,794,794,794,794,794,794,794,794,794,794,794,794,794,794,794,794,794,794,794,794,794,794,794,794,794,794,794,794,794,794,794,794,794,794,794,794,794,794,794,774,732,687,634,625,620,620,620,620,619,614,603,589,563,551,542,537,537,537,537,534,526,512],"ymouse":[505,505,505,505,505,505,505,505,505,505,505,505,505,505,505,505,505,505,505,505,505,505,505,505,505,505,505,505,505,505,505,505,505,505,505,505,505,505,505,505,505,505,505,505,505,505,501,481,412,308,213,116,100,93,92,92,92,90,81,66,53,36,31,27,26,26,26,26,26,27,33],"timestamp_mouse":[21,39,60,81,100,120,141,161,180,200,221,240,260,280,300,319,341,361,380,400,420,440,461,480,500,520,540,560,580,600,620,640,660,681,701,719,740,760,780,801,820,840,860,881,900,920,940,960,980,1000,1020,1040,1060,1080,1101,1120,1141,1159,1180,1200,1221,1239,1261,1281,1300,1320,1341,1360,1380,1401,1421],"xSR":741.5,"ySR":447.2,"xT1":424.9,"yT1":0,"xT2":1058.1,"yT2":0,"toosoon":0,"cond_shown":"equaldotanddens","ratio_trial":250,"smaller_num":"2","larger_num":"8","correct_side":1,"subjID":"IsauraHernwndezGomez23","gender":"1","age":"11","school":"6"},{"start_time":1551801567769,"click_time":1551801569018,"finger_time":1551801568758,"fix_duration":250,"trial":48,"RT":989,"MT":260,"sideResp":1,"stimulus":"img/750/randomdotsizeEA/L/14_Ratio_750_L_8_R_6.png","xmouse":[807,807,807,806,806,806,806,806,806,806,805,805,805,803,802,802,802,802,802,802,802,802,802,802,802,802,802,802,802,802,802,802,802,802,802,802,802,802,802,802,802,802,802,802,802,802,802,819,829,857,859,859,859,859,857,848,829,791,676,622,567,518,482],"ymouse":[479,479,479,480,480,480,480,480,480,480,480,480,480,480,480,480,480,480,480,480,480,480,480,480,480,480,480,480,480,480,480,480,480,480,480,480,480,480,480,480,480,480,480,480,480,480,480,472,468,450,448,448,448,448,442,432,418,385,265,207,152,100,64],"timestamp_mouse":[9,36,49,70,90,109,130,149,168,190,210,229,249,269,289,309,329,349,369,389,408,429,450,470,489,510,530,549,569,590,609,630,649,670,688,710,728,750,770,788,809,830,849,869,890,910,930,949,969,989,1010,1030,1049,1069,1089,1109,1129,1148,1170,1189,1209,1229,1249],"xSR":741.5,"ySR":447.2,"xT1":424.9,"yT1":0,"xT2":1058.1,"yT2":0,"toosoon":0,"cond_shown":"randomdotsizeEA","ratio_trial":750,"smaller_num":"6","larger_num":"8","correct_side":1,"subjID":"IsauraHernwndezGomez23","gender":"1","age":"11","school":"6"},{"start_time":1551801571142,"click_time":1551801572458,"finger_time":1551801571978,"fix_duration":1241.450153310132,"trial":49,"RT":836,"MT":480,"sideResp":1,"stimulus":"img/250/equaldotanddens/L/7_Ratio_250_L_8_R_2.png","xmouse":[781,781,781,781,781,781,781,781,781,781,781,781,781,781,781,781,781,781,781,781,781,781,781,781,781,781,781,781,781,781,781,781,781,781,781,781,781,781,781,781,781,781,781,781,781,779,775,767,754,737,693,673,639,622,605,598,590,583,578,575,571,567,561,542,523,481],"ymouse":[475,475,475,475,475,475,475,475,475,475,475,475,475,475,475,475,475,475,475,475,475,475,475,475,475,475,475,475,475,475,475,475,475,475,475,475,475,475,475,474,460,446,437,424,416,398,385,369,349,328,289,269,229,209,188,181,174,168,163,160,154,152,147,132,118,83],"timestamp_mouse":[17,36,57,76,97,116,137,157,177,197,216,236,257,276,297,316,336,357,377,396,416,436,456,476,496,516,537,557,577,597,617,635,657,676,697,717,736,757,776,797,816,836,857,876,896,916,935,956,977,996,1016,1037,1056,1076,1097,1116,1136,1157,1176,1197,1217,1237,1256,1277,1296,1316],"xSR":741.5,"ySR":447.2,"xT1":424.9,"yT1":0,"xT2":1058.1,"yT2":0,"toosoon":0,"cond_shown":"equaldotanddens","ratio_trial":250,"smaller_num":"2","larger_num":"8","correct_side":1,"subjID":"IsauraHernwndezGomez23","gender":"1","age":"11","school":"6"},{"start_time":1551801574810,"click_time":1551801577558,"finger_time":1551801574818,"fix_duration":1370.8860124678883,"trial":50,"RT":8,"MT":2740,"sideResp":2,"stimulus":"img/900/equaldotsize/L/8_Ratio_900_L_20_R_18.png","xmouse":[800,813,818,818,818,818,818,818,818,818,818,818,818,818,818,818,818,818,818,818,818,818,818,818,818,818,818,818,818,817,811,808,796,789,781,774,767,764,764,764,764,764,764,764,764,764,764,765,772,777,779,779,779,779,779,779,779,779,779,779,779,779,779,779,780,780,778,777,777,777,777,777,777,777,777,777,777,777,777,777,777,777,777,777,777,777,778,783,783,783,784,784,784,784,784,784,784,788,798,812,821,827,832,834,834,834,834,834,835,839,844,848,852,853,857,863,871,891,905,921,946,968,1009,1024,1036,1046,1052,1052,1052,1052,1052,1052,1052,1052,1052,1052,1054,1060],"ymouse":[443,432,429,429,429,429,429,429,429,429,429,429,428,426,424,424,424,424,424,424,424,424,424,424,424,424,424,424,424,424,425,429,449,462,476,488,500,507,507,507,507,507,507,507,507,507,507,507,507,507,507,507,507,507,507,507,507,507,507,507,507,507,507,507,507,504,489,484,480,479,479,479,479,479,479,479,479,479,479,479,479,479,479,479,478,475,464,449,445,445,445,445,445,445,445,445,444,440,437,431,428,425,423,422,422,422,422,422,421,418,414,410,405,402,393,379,358,311,286,262,227,196,142,122,106,91,85,85,85,85,85,85,85,85,85,85,85,84],"timestamp_mouse":[8,28,48,68,88,108,129,148,168,188,209,228,248,268,288,309,327,348,367,388,407,428,449,469,489,508,527,549,568,588,608,627,648,667,688,708,728,747,768,788,809,828,849,868,888,908,928,948,968,988,1008,1029,1047,1068,1088,1108,1129,1148,1168,1188,1209,1228,1248,1268,1288,1308,1329,1348,1368,1388,1407,1428,1449,1468,1488,1508,1528,1549,1568,1589,1609,1628,1649,1668,1688,1708,1728,1748,1768,1788,1808,1828,1848,1868,1888,1908,1928,1948,1969,1987,2008,2028,2047,2069,2088,2109,2129,2148,2168,2189,2208,2228,2248,2268,2289,2308,2328,2347,2368,2388,2407,2428,2449,2467,2488,2509,2528,2549,2568,2588,2608,2629,2648,2669,2688,2709,2729,2748],"xSR":741.5,"ySR":447.2,"xT1":424.9,"yT1":0,"xT2":1058.1,"yT2":0,"toosoon":0,"cond_shown":"equaldotsize","ratio_trial":900,"smaller_num":"18","larger_num":"20","correct_side":1,"subjID":"IsauraHernwndezGomez23","gender":"1","age":"11","school":"6"},{"start_time":1551801580553,"click_time":1551801581779,"finger_time":1551801581518,"fix_duration":1434.277261757623,"trial":51,"RT":965,"MT":261,"sideResp":2,"stimulus":"img/900/randomdotsizeEA/R/9_Ratio_900_L_18_R_20.png","xmouse":[764,764,764,764,764,764,764,764,764,764,764,764,764,764,764,764,764,764,764,764,764,764,764,764,764,764,764,764,764,764,764,764,764,764,764,764,764,764,764,764,764,764,764,764,764,764,767,784,805,837,918,952,975,990,1008,1026,1035,1044,1054,1065,1096,1118],"ymouse":[493,493,493,493,493,493,493,493,493,493,493,493,493,493,493,493,493,493,493,493,493,493,493,493,493,493,493,493,493,493,493,493,493,493,493,493,493,493,493,493,493,493,493,493,493,493,487,466,444,417,356,331,310,292,263,231,215,201,187,174,130,99],"timestamp_mouse":[8,34,45,66,86,105,125,145,166,185,206,226,246,266,285,304,326,345,366,386,406,425,445,465,485,505,525,545,566,586,605,626,646,666,686,705,726,746,766,786,805,826,846,866,885,905,925,945,965,984,1005,1025,1045,1065,1086,1105,1124,1145,1165,1184,1205,1226],"xSR":741.5,"ySR":447.2,"xT1":424.9,"yT1":0,"xT2":1058.1,"yT2":0,"toosoon":0,"cond_shown":"randomdotsizeEA","ratio_trial":900,"smaller_num":"18","larger_num":"20","correct_side":2,"subjID":"IsauraHernwndezGomez23","gender":"1","age":"11","school":"6"},{"start_time":1551801584262,"click_time":1551801586038,"finger_time":1551801585078,"fix_duration":1222.127938884862,"trial":52,"RT":816,"MT":960,"sideResp":2,"stimulus":"img/250/equaldotanddens/R/10_Ratio_250_L_4_R_16.png","xmouse":[815,815,815,815,815,815,815,815,815,815,815,815,815,815,815,815,815,815,815,815,815,815,815,815,815,815,815,815,815,815,815,815,815,815,815,815,815,815,815,829,838,849,861,876,927,950,967,976,998,1007,1011,1013,1014,1014,1018,1020,1025,1033,1040,1045,1047,1049,1051,1052,1052,1052,1052,1052,1052,1052,1052,1052,1052,1052,1052,1052,1052,1052,1052,1052,1052,1052,1052,1052,1052,1052,1056,1057,1062],"ymouse":[484,484,484,484,484,484,484,484,484,484,484,484,484,484,484,484,484,484,484,484,484,484,484,484,484,484,484,484,484,484,484,484,484,484,484,484,484,483,479,449,432,416,398,375,284,231,188,155,107,94,88,86,85,85,80,77,70,60,52,48,47,45,43,43,43,43,43,43,43,43,43,43,43,43,43,43,43,43,43,43,43,43,43,43,43,43,43,43,43],"timestamp_mouse":[16,44,55,77,97,116,137,157,176,196,216,236,257,276,296,316,336,356,376,396,417,437,456,476,497,516,537,556,576,596,617,636,657,677,697,716,736,756,776,795,816,836,856,876,896,916,937,956,977,996,1016,1036,1056,1075,1096,1116,1136,1157,1176,1196,1216,1237,1256,1277,1297,1316,1337,1356,1376,1397,1416,1437,1456,1476,1497,1516,1536,1556,1577,1597,1616,1636,1656,1676,1696,1716,1737,1757,1776],"xSR":741.5,"ySR":447.2,"xT1":424.9,"yT1":0,"xT2":1058.1,"yT2":0,"toosoon":0,"cond_shown":"equaldotanddens","ratio_trial":250,"smaller_num":"4","larger_num":"16","correct_side":2,"subjID":"IsauraHernwndezGomez23","gender":"1","age":"11","school":"6"},{"start_time":1551801588358,"click_time":1551801589919,"finger_time":1551801589178,"fix_duration":1379.865254607191,"trial":53,"RT":820,"MT":741,"sideResp":1,"stimulus":"img/500/equaldotanddens/L/10_Ratio_500_L_4_R_2.png","xmouse":[802,802,802,802,802,802,802,802,802,802,802,802,802,802,802,802,802,802,802,802,802,802,802,802,802,802,802,802,802,802,802,802,802,802,802,802,802,802,802,802,802,802,797,786,771,746,736,727,722,720,720,720,720,720,720,720,720,716,701,676,603,560,515,505,487,485,485,485,485,485,485,485,485,485,485,485,485,481,472],"ymouse":[503,503,503,503,503,503,503,503,503,503,503,503,503,503,503,503,503,503,503,503,503,503,503,503,503,503,503,503,503,503,503,503,503,503,503,503,503,503,503,503,496,445,378,305,202,117,90,75,67,64,64,64,64,64,64,64,64,64,67,75,95,107,119,122,125,125,125,125,125,125,125,125,125,125,125,125,125,118,94],"timestamp_mouse":[1,20,41,60,80,100,121,140,159,181,201,221,240,260,280,301,320,340,361,380,401,421,439,461,481,501,521,541,561,580,601,620,641,660,680,700,720,740,761,780,800,820,840,861,880,899,920,940,960,981,1000,1020,1040,1060,1081,1100,1119,1141,1160,1181,1200,1220,1240,1261,1280,1300,1320,1340,1361,1381,1400,1419,1440,1460,1480,1500,1520,1540,1561],"xSR":741.5,"ySR":447.2,"xT1":424.9,"yT1":0,"xT2":1058.1,"yT2":0,"toosoon":0,"cond_shown":"equaldotanddens","ratio_trial":500,"smaller_num":"2","larger_num":"4","correct_side":1,"subjID":"IsauraHernwndezGomez23","gender":"1","age":"11","school":"6"},{"start_time":1551801592403,"click_time":1551801593638,"finger_time":1551801593317,"fix_duration":1464.0696213099134,"trial":54,"RT":914,"MT":321,"sideResp":2,"stimulus":"img/900/equaldotanddens/L/1_Ratio_900_L_10_R_9.png","xmouse":[776,776,776,776,776,776,776,776,776,776,776,776,776,776,776,776,776,776,776,776,776,776,776,776,776,776,776,776,776,776,776,776,776,776,776,776,776,776,776,776,776,777,788,803,829,864,909,984,1010,1037,1058,1088,1118,1128,1136,1140,1142,1147,1148,1150,1153,1154],"ymouse":[501,501,501,501,501,501,501,501,501,501,501,501,501,501,501,501,501,501,501,501,501,501,501,501,501,501,501,501,501,501,501,501,501,501,501,501,501,501,501,501,501,501,489,473,451,420,385,322,293,263,239,208,172,156,145,137,131,122,117,112,103,93],"timestamp_mouse":[16,36,55,75,95,115,136,155,175,195,216,235,255,275,294,315,336,355,375,395,415,436,455,475,495,515,535,555,576,595,615,635,655,675,695,715,735,755,775,796,816,835,855,875,895,914,936,955,975,996,1015,1035,1055,1075,1095,1115,1135,1156,1175,1195,1215,1235],"xSR":741.5,"ySR":447.2,"xT1":424.9,"yT1":0,"xT2":1058.1,"yT2":0,"toosoon":0,"cond_shown":"equaldotanddens","ratio_trial":900,"smaller_num":"9","larger_num":"10","correct_side":1,"subjID":"IsauraHernwndezGomez23","gender":"1","age":"11","school":"6"},{"start_time":1551801596802,"click_time":1551801598339,"finger_time":1551801597758,"fix_duration":482.9881767381695,"trial":55,"RT":956,"MT":581,"sideResp":1,"stimulus":"img/750/equaldotanddens/L/8_Ratio_750_L_4_R_3.png","xmouse":[806,806,806,806,806,806,806,806,806,806,806,806,806,806,806,806,806,806,806,806,806,806,806,806,806,806,806,806,806,806,806,806,806,806,806,806,806,806,806,806,806,806,806,806,807,807,807,802,796,783,745,731,726,726,726,726,726,722,717,713,710,704,703,700,695,682,668,643,637,635,635,635,619,603,583,564,521],"ymouse":[499,499,499,499,499,499,499,499,499,499,499,499,499,499,499,499,499,499,499,499,499,499,499,499,499,499,499,499,499,499,499,499,499,499,499,499,499,499,499,499,499,499,499,499,498,497,486,438,386,304,187,156,143,142,142,142,142,132,121,113,108,101,100,95,90,82,73,63,62,61,61,61,61,61,61,61,61],"timestamp_mouse":[16,41,56,76,97,115,136,157,175,196,215,237,256,277,296,317,337,356,377,397,417,436,456,475,496,517,536,557,577,597,616,636,657,676,696,716,736,757,777,796,816,836,856,876,897,916,936,956,976,996,1015,1036,1056,1076,1096,1116,1136,1155,1176,1197,1216,1237,1256,1276,1296,1317,1336,1356,1376,1396,1416,1436,1456,1476,1497,1517,1537],"xSR":741.5,"ySR":447.2,"xT1":424.9,"yT1":0,"xT2":1058.1,"yT2":0,"toosoon":0,"cond_shown":"equaldotanddens","ratio_trial":750,"smaller_num":"3","larger_num":"4","correct_side":1,"subjID":"IsauraHernwndezGomez23","gender":"1","age":"11","school":"6"},{"start_time":1551801600507,"click_time":1551801601858,"finger_time":1551801601178,"fix_duration":1227.31868513212,"trial":56,"RT":671,"MT":680,"sideResp":1,"stimulus":"img/500/equaldotsize/L/5_Ratio_500_L_4_R_2.png","xmouse":[798,798,798,798,798,798,798,798,798,798,798,798,798,798,798,798,798,798,798,798,798,798,798,798,798,798,798,798,798,798,798,798,785,740,655,629,546,524,506,495,486,475,472,471,471,471,471,471,471,471,471,471,470,467,467,467,467,467,466,466,466,466,466,467,468,468,468,474],"ymouse":[493,493,493,493,493,493,493,493,493,493,493,493,493,493,493,493,493,493,493,493,493,493,493,493,493,493,493,493,493,493,493,493,498,508,499,486,397,338,278,225,194,160,155,154,154,154,154,154,154,153,148,142,130,124,121,120,120,120,119,118,117,116,110,108,106,104,103,90],"timestamp_mouse":[11,41,51,71,91,111,131,152,171,191,212,231,251,271,291,312,331,351,372,390,411,432,452,472,491,512,532,551,571,592,611,631,651,671,691,711,732,750,771,792,811,833,851,871,891,912,932,951,971,992,1011,1031,1051,1072,1091,1111,1131,1152,1172,1191,1210,1231,1250,1271,1291,1311,1331,1351],"xSR":741.5,"ySR":447.2,"xT1":424.9,"yT1":0,"xT2":1058.1,"yT2":0,"toosoon":0,"cond_shown":"equaldotsize","ratio_trial":500,"smaller_num":"2","larger_num":"4","correct_side":1,"subjID":"IsauraHernwndezGomez23","gender":"1","age":"11","school":"6"},{"start_time":1551801603329,"click_time":1551801604740,"finger_time":1551801604438,"fix_duration":250,"trial":57,"RT":1109,"MT":302,"sideResp":2,"stimulus":"img/250/equaldotsize/R/8_Ratio_250_L_1_R_4.png","xmouse":[792,792,792,792,792,792,792,792,792,792,792,792,792,792,792,792,792,792,792,792,792,792,792,792,792,792,792,792,792,792,792,792,792,792,792,792,792,792,792,792,792,792,792,792,792,792,792,792,792,792,792,792,793,801,803,809,809,809,809,809,809,809,810,815,821,836,880,920,965,1012,1068],"ymouse":[495,495,495,495,495,495,495,495,495,495,495,495,495,495,495,495,495,495,495,495,495,495,495,495,495,495,495,495,495,495,495,495,495,495,495,495,495,495,495,495,495,495,495,495,495,495,495,495,495,495,495,495,487,465,459,444,437,435,432,429,426,419,416,409,401,385,332,284,228,165,96],"timestamp_mouse":[9,41,49,69,89,109,129,149,169,190,210,230,249,270,290,309,329,349,370,389,409,429,449,470,489,509,529,548,569,589,610,629,649,670,690,709,729,749,769,790,809,830,848,869,889,910,930,949,969,990,1010,1029,1049,1069,1089,1109,1129,1149,1169,1189,1211,1230,1249,1269,1289,1309,1329,1349,1369,1389,1411],"xSR":741.5,"ySR":447.2,"xT1":424.9,"yT1":0,"xT2":1058.1,"yT2":0,"toosoon":0,"cond_shown":"equaldotsize","ratio_trial":250,"smaller_num":"1","larger_num":"4","correct_side":2,"subjID":"IsauraHernwndezGomez23","gender":"1","age":"11","school":"6"},{"start_time":1551801613913,"click_time":1551801615358,"finger_time":1551801614878,"fix_duration":772.1014687855368,"trial":58,"RT":965,"MT":480,"sideResp":2,"stimulus":"img/500/equaldotsize/R/14_Ratio_500_L_5_R_10.png","xmouse":[774,774,774,774,774,774,774,774,774,774,774,774,774,774,774,774,774,774,774,774,774,774,774,774,774,774,774,774,774,774,774,774,774,774,774,774,774,774,774,774,774,775,776,778,779,779,781,786,789,795,801,821,829,836,844,857,905,934,964,998,1027,1084,1109,1131,1146,1159,1166,1166,1166,1166,1165,1160,1153],"ymouse":[489,489,489,489,489,489,489,490,490,490,490,490,490,491,491,491,491,491,491,491,491,491,491,491,491,491,491,491,491,491,491,491,491,491,491,491,491,491,491,491,491,490,485,479,472,466,460,451,445,435,421,384,368,354,342,326,284,261,240,216,199,174,166,155,145,127,102,94,88,84,80,72,65],"timestamp_mouse":[8,25,44,66,85,106,125,145,165,185,205,225,245,265,285,306,326,346,365,385,405,425,446,466,485,505,525,545,565,585,605,625,645,666,685,705,725,745,765,785,805,826,844,865,886,905,925,946,965,985,1005,1026,1045,1066,1085,1105,1127,1144,1165,1185,1205,1226,1245,1265,1285,1305,1327,1345,1365,1386,1405,1427,1444],"xSR":741.5,"ySR":447.2,"xT1":424.9,"yT1":0,"xT2":1058.1,"yT2":0,"toosoon":0,"cond_shown":"equaldotsize","ratio_trial":500,"smaller_num":"5","larger_num":"10","correct_side":2,"subjID":"IsauraHernwndezGomez23","gender":"1","age":"11","school":"6"},{"start_time":1551801617150,"click_time":1551801618379,"finger_time":1551801617998,"fix_duration":790.9179986825238,"trial":59,"RT":848,"MT":381,"sideResp":1,"stimulus":"img/900/equaldotanddens/L/8_Ratio_900_L_20_R_18.png","xmouse":[813,813,813,813,813,813,813,813,813,813,813,813,813,813,813,813,813,813,813,813,813,813,813,813,813,813,813,813,813,813,813,813,813,813,813,813,813,813,813,813,812,780,725,601,522,407,391,388,388,388,388,387,386,384,384,384,384,390,396,405,429,444],"ymouse":[493,493,493,493,493,493,493,493,493,493,493,493,493,493,493,493,493,493,493,493,493,493,493,493,493,493,493,493,493,493,493,493,493,493,493,493,493,493,493,493,493,465,414,311,253,189,179,177,177,177,177,176,172,170,167,159,153,144,136,127,109,98],"timestamp_mouse":[9,38,48,68,88,109,128,148,169,189,209,229,249,268,289,309,328,348,368,388,409,428,448,468,488,508,528,549,567,589,608,628,648,668,688,708,728,748,769,788,808,829,848,867,887,908,928,948,968,989,1008,1029,1048,1068,1089,1108,1128,1148,1168,1189,1208,1229],"xSR":741.5,"ySR":447.2,"xT1":424.9,"yT1":0,"xT2":1058.1,"yT2":0,"toosoon":0,"cond_shown":"equaldotanddens","ratio_trial":900,"smaller_num":"18","larger_num":"20","correct_side":1,"subjID":"IsauraHernwndezGomez23