[{"start_time":1551800560431,"click_time":1551800565478,"finger_time":1551800564918,"fix_duration":568.9219847951763,"trial":0,"RT":4487,"MT":560,"sideResp":2,"stimulus":[],"xmouse":[777,777,777,777,777,777,777,777,777,777,777,777,777,777,777,777,777,777,777,777,777,777,777,777,777,777,777,777,777,777,777,777,777,777,777,777,777,777,777,777,777,777,777,777,777,777,777,777,777,777,777,777,777,777,777,777,777,777,777,777,777,777,777,777,777,777,777,777,777,777,777,777,777,777,777,777,777,777,777,777,777,777,777,777,777,777,777,777,777,777,777,777,777,777,777,777,777,777,777,777,777,777,777,777,777,777,777,777,777,777,777,777,777,777,777,777,777,777,777,777,777,777,777,777,777,777,777,777,777,777,777,777,777,777,777,777,777,777,777,777,777,777,777,777,777,777,777,777,777,777,777,777,777,777,777,777,777,777,777,777,777,777,777,777,777,777,777,777,777,777,777,777,777,777,777,777,777,777,777,777,777,777,777,777,777,777,777,777,777,777,777,777,777,777,777,777,777,777,777,777,777,777,777,777,777,777,777,777,777,777,777,780,787,792,792,792,792,792,792,793,794,803,809,819,828,846,860,878,912,924,931,938,942,943,946,952,964,981,1025,1049,1068,1091,1105,1106,1106,1106,1106,1107,1108,1109,1110,1111,1113],"ymouse":[473,473,473,473,473,473,473,473,473,473,473,473,473,473,473,473,473,473,473,473,473,473,473,473,473,473,473,473,473,473,473,473,473,473,473,473,473,473,473,473,473,473,473,473,473,473,473,473,473,473,473,473,473,473,473,473,473,473,473,473,473,473,473,473,473,473,473,473,473,473,473,473,473,473,473,473,473,473,473,473,473,473,473,473,473,473,473,473,473,473,473,473,473,473,473,473,473,473,473,473,473,473,473,473,473,473,473,473,473,473,473,473,473,473,473,473,473,473,473,473,473,473,473,473,473,473,473,473,473,473,473,473,473,473,473,473,473,473,473,473,473,473,473,473,473,473,473,473,473,473,473,473,473,473,473,473,473,473,473,473,473,473,473,473,473,473,473,473,473,473,473,473,473,473,473,473,473,473,473,474,475,483,487,488,488,488,488,488,488,488,488,488,488,488,488,488,488,488,488,488,488,488,488,488,488,488,488,488,488,488,488,488,488,491,491,491,491,491,491,491,491,486,480,460,439,399,366,330,273,252,236,220,213,211,209,205,199,190,171,162,154,142,131,130,130,130,130,128,126,121,114,106,91],"timestamp_mouse":[9,36,47,67,87,106,127,146,168,187,206,226,248,268,287,308,326,347,367,387,407,428,447,467,487,507,528,548,568,587,607,628,646,667,687,707,728,748,767,787,808,828,846,868,887,907,927,948,966,986,1007,1027,1047,1067,1088,1107,1127,1148,1168,1187,1207,1227,1248,1268,1287,1308,1328,1347,1368,1388,1407,1428,1447,1467,1488,1508,1528,1546,1568,1588,1607,1628,1648,1668,1687,1707,1727,1747,1768,1788,1806,1828,1847,1868,1888,1908,1928,1948,1967,1986,2006,2027,2047,2067,2087,2108,2127,2147,2168,2187,2208,2226,2248,2268,2288,2307,2327,2348,2368,2388,2407,2427,2447,2467,2487,2508,2527,2547,2568,2587,2607,2627,2648,2666,2687,2707,2728,2747,2768,2788,2808,2828,2848,2867,2887,2907,2927,2947,2966,2987,3007,3028,3048,3067,3086,3107,3128,3146,3168,3188,3208,3226,3248,3268,3288,3308,3328,3347,3368,3388,3406,3427,3446,3468,3488,3508,3527,3547,3568,3586,3607,3627,3647,3667,3688,3707,3727,3748,3767,3787,3807,3827,3847,3868,3887,3906,3928,3947,3968,3987,4007,4028,4048,4066,4088,4108,4128,4148,4166,4188,4207,4228,4247,4267,4287,4307,4328,4347,4367,4387,4406,4427,4447,4468,4487,4508,4527,4547,4566,4587,4607,4627,4648,4667,4687,4708,4726,4747,4767,4787,4807,4827,4848,4866,4887,4907,4928,4948,4967,4987,5007,5028,5046],"xSR":741.5,"ySR":447.2,"xT1":424.9,"yT1":0,"xT2":1058.1,"yT2":0,"toosoon":0,"cond_shown":"Incongruent","ratio_trial":200,"L_num":7,"L_den":10,"R_num":14,"R_den":28,"correct_side":1,"subjID":"IsauraHernandezGomez23","gender":"1","age":"11","school":"6","test":{"fix_dur":[250,1500],"timestim":1000,"targets_dim":[100,100],"targets_relative_coord":[0.3,0.7],"size_stim":[880,420],"start_dim":[100,100],"size_start":[300,300],"size_fix":60,"samplingrate":20,"img_types":["Congruent","Incongruent"],"ratios":[100,200,300],"rep_conds":19,"nTrials":120,"trials_to_rest":500,"Trials_order":[111,75,55,112,118,100,12,82,28,3,117,41,26,23,49,25,81,104,52,103,106,13,63,57,5,119,27,76,115,91,70,45,61,15,31,90,33,78,62,95,46,7,96,48,67,9,32,65,21,105,36,22,39,8,99,17,37,72,69,109,42,54,77,110,68,85,18,94,1,83,38,11,92,66,14,80,60,51,29,19,2,86,84,107,56,16,50,71,30,113,97,43,93,20,0,10,59,64,44,102,74,47,114,87,6,79,24,4,88,53,73,58,101,34,98,35,116,40,89,108],"cond_shown":["Incongruent","Incongruent","Incongruent","Congruent","Congruent","Congruent","Congruent","Congruent","Congruent","Incongruent","Incongruent","Incongruent","Congruent","Incongruent","Incongruent","Incongruent","Incongruent","Congruent","Congruent","Incongruent","Congruent","Incongruent","Incongruent","Incongruent","Incongruent","Incongruent","Incongruent","Congruent","Incongruent","Incongruent","Congruent","Incongruent","Incongruent","Incongruent","Incongruent","Congruent","Incongruent","Congruent","Congruent","Incongruent","Congruent","Incongruent","Congruent","Congruent","Incongruent","Incongruent","Congruent","Incongruent","Incongruent","Incongruent","Congruent","Congruent","Incongruent","Congruent","Incongruent","Incongruent","Incongruent","Congruent","Incongruent","Incongruent","Congruent","Congruent","Incongruent","Congruent","Congruent","Incongruent","Congruent","Congruent","Incongruent","Incongruent","Congruent","Incongruent","Congruent","Congruent","Congruent","Congruent","Congruent","Incongruent","Incongruent","Incongruent","Congruent","Congruent","Congruent","Incongruent","Congruent","Congruent","Congruent","Incongruent","Congruent","Incongruent","Incongruent","Incongruent","Incongruent","Congruent","Congruent","Congruent","Incongruent","Congruent","Congruent","Congruent","Congruent","Incongruent","Congruent","Incongruent","Congruent","Incongruent","Congruent","Congruent","Congruent","Incongruent","Incongruent","Congruent","Incongruent","Congruent","Congruent","Incongruent","Congruent","Congruent","Incongruent","Congruent"],"ratio_trial":[200,200,100,300,300,300,100,300,300,200,200,300,200,300,100,100,200,200,300,100,300,100,200,200,300,300,200,300,100,100,300,200,100,200,100,100,200,100,200,300,300,100,100,100,100,200,200,300,200,200,100,300,200,200,200,300,100,100,200,100,100,100,300,200,200,100,100,300,100,300,200,300,200,100,200,200,100,200,300,100,200,200,100,300,200,300,200,300,100,300,100,100,200,200,100,300,300,300,200,100,200,300,100,200,100,100,100,300,300,300,100,300,300,300,200,300,200,300,300,100],"left_num":[7,3,3,20,4,3,9,20,20,14,7,3,7,4,6,17,4,7,11,10,1,1,4,4,4,8,1,20,13,9,11,4,11,7,17,3,7,9,16,2,4,1,15,3,6,7,4,4,7,11,11,1,7,1,7,4,12,3,3,8,11,10,4,16,3,12,11,20,13,13,4,4,3,3,12,16,2,7,4,8,6,4,3,13,14,7,16,4,11,3,9,3,3,13,7,3,1,20,12,9,12,3,2,3,11,11,1,4,3,8,6,3,4,1,14,8,3,5,4,3],"right_num":[14,11,8,13,13,2,8,13,9,12,8,4,2,2,3,10,6,2,1,8,3,8,6,1,2,9,3,9,12,20,4,6,9,4,10,4,8,8,12,6,2,8,13,4,11,14,3,2,14,3,4,11,8,21,8,2,9,4,1,6,6,3,2,9,9,9,4,8,6,12,3,2,7,4,6,9,6,14,6,6,7,3,4,12,6,20,12,2,6,4,20,11,11,14,15,2,2,9,6,8,6,4,6,1,6,9,18,1,2,9,13,11,8,3,6,14,14,6,2,4],"left_den":[10,4,5,25,20,6,15,25,25,30,10,6,21,20,12,30,5,21,22,25,5,2,5,30,20,10,2,25,26,10,22,5,22,15,30,20,10,15,20,4,5,2,25,20,10,10,8,20,10,20,22,5,10,2,10,20,24,20,10,16,22,25,20,30,12,24,22,25,26,26,10,20,10,20,20,30,5,10,5,16,12,8,20,26,28,14,20,20,22,6,10,5,4,26,14,6,2,25,20,15,15,6,5,10,22,22,2,10,6,10,10,12,5,5,28,10,6,25,20,20],"right_den":[28,20,16,26,26,10,16,26,18,18,16,20,15,4,5,15,10,15,5,16,6,20,10,3,4,18,10,18,20,25,20,10,15,6,15,16,16,16,20,30,4,20,26,16,22,28,10,4,28,4,10,22,16,30,16,4,15,16,2,10,15,10,4,27,20,15,10,16,10,15,15,4,14,16,15,27,12,28,12,10,10,10,16,15,20,25,20,4,15,20,25,22,20,20,25,10,10,18,15,16,10,20,12,2,15,15,30,10,10,18,26,20,16,6,20,28,20,12,4,16],"correct_side":[1,1,1,1,2,1,1,1,1,2,1,1,1,2,2,2,1,1,1,2,2,1,1,2,2,1,1,1,2,1,1,1,2,2,2,2,1,1,1,1,1,1,1,2,1,1,1,2,1,2,1,2,1,2,1,2,2,2,2,2,1,1,2,1,2,2,1,1,2,2,1,2,2,2,1,1,2,1,1,2,2,1,2,2,1,2,1,2,1,1,1,1,1,2,2,1,1,1,1,1,1,1,2,2,1,2,2,1,1,1,1,2,1,2,1,1,2,2,2,2],"img_shown":["img2/200/Incongruent/L/I_Dist_200_LN_7_LD_10_RN_14_RD_28_0.png","img2/200/Incongruent/L/I_Dist_200_LN_3_LD_4_RN_11_RD_20_0.png","img2/100/Incongruent/L/I_Dist_100_LN_3_LD_5_RN_8_RD_16_0.png","img2/300/Congruent/L/C_Dist_300_LN_20_LD_25_RN_13_RD_26_0.png","img2/300/Congruent/R/C_Dist_300_LN_4_LD_20_RN_13_RD_26_1.png","img2/300/Congruent/L/C_Dist_300_LN_3_LD_6_RN_2_RD_10_0.png","img2/100/Congruent/L/C_Dist_100_LN_9_LD_15_RN_8_RD_16_0.png","img2/300/Congruent/L/C_Dist_300_LN_20_LD_25_RN_13_RD_26_0.png","img2/300/Congruent/L/C_Dist_300_LN_20_LD_25_RN_9_RD_18_0.png","img2/200/Incongruent/R/I_Dist_200_LN_14_LD_30_RN_12_RD_18_1.png","img2/200/Incongruent/L/I_Dist_200_LN_7_LD_10_RN_8_RD_16_0.png","img2/300/Incongruent/L/I_Dist_300_LN_3_LD_6_RN_4_RD_20_0.png","img2/200/Congruent/L/C_Dist_200_LN_7_LD_21_RN_2_RD_15_0.png","img2/300/Incongruent/R/I_Dist_300_LN_4_LD_20_RN_2_RD_4_1.png","img2/100/Incongruent/R/I_Dist_100_LN_6_LD_12_RN_3_RD_5_1.png","img2/100/Incongruent/R/I_Dist_100_LN_17_LD_30_RN_10_RD_15_1.png","img2/200/Incongruent/L/I_Dist_200_LN_4_LD_5_RN_6_RD_10_0.png","img2/200/Congruent/L/C_Dist_200_LN_7_LD_21_RN_2_RD_15_0.png","img2/300/Congruent/L/C_Dist_300_LN_11_LD_22_RN_1_RD_5_0.png","img2/100/Incongruent/R/I_Dist_100_LN_10_LD_25_RN_8_RD_16_1.png","img2/300/Congruent/R/C_Dist_300_LN_1_LD_5_RN_3_RD_6_1.png","img2/100/Incongruent/L/I_Dist_100_LN_1_LD_2_RN_8_RD_20_0.png","img2/200/Incongruent/L/I_Dist_200_LN_4_LD_5_RN_6_RD_10_0.png","img2/200/Incongruent/R/I_Dist_200_LN_4_LD_30_RN_1_RD_3_1.png","img2/300/Incongruent/R/I_Dist_300_LN_4_LD_20_RN_2_RD_4_1.png","img2/300/Incongruent/L/I_Dist_300_LN_8_LD_10_RN_9_RD_18_0.png","img2/200/Incongruent/L/I_Dist_200_LN_1_LD_2_RN_3_RD_10_0.png","img2/300/Congruent/L/C_Dist_300_LN_20_LD_25_RN_9_RD_18_0.png","img2/100/Incongruent/R/I_Dist_100_LN_13_LD_26_RN_12_RD_20_1.png","img2/100/Incongruent/L/I_Dist_100_LN_9_LD_10_RN_20_RD_25_0.png","img2/300/Congruent/L/C_Dist_300_LN_11_LD_22_RN_4_RD_20_0.png","img2/200/Incongruent/L/I_Dist_200_LN_4_LD_5_RN_6_RD_10_0.png","img2/100/Incongruent/R/I_Dist_100_LN_11_LD_22_RN_9_RD_15_1.png","img2/200/Incongruent/R/I_Dist_200_LN_7_LD_15_RN_4_RD_6_1.png","img2/100/Incongruent/R/I_Dist_100_LN_17_LD_30_RN_10_RD_15_1.png","img2/100/Congruent/R/C_Dist_100_LN_3_LD_20_RN_4_RD_16_1.png","img2/200/Incongruent/L/I_Dist_200_LN_7_LD_10_RN_8_RD_16_0.png","img2/100/Congruent/L/C_Dist_100_LN_9_LD_15_RN_8_RD_16_0.png","img2/200/Congruent/L/C_Dist_200_LN_16_LD_20_RN_12_RD_20_0.png","img2/300/Incongruent/L/I_Dist_300_LN_2_LD_4_RN_6_RD_30_0.png","img2/300/Congruent/L/C_Dist_300_LN_4_LD_5_RN_2_RD_4_0.png","img2/100/Incongruent/L/I_Dist_100_LN_1_LD_2_RN_8_RD_20_0.png","img2/100/Congruent/L/C_Dist_100_LN_15_LD_25_RN_13_RD_26_0.png","img2/100/Congruent/R/C_Dist_100_LN_3_LD_20_RN_4_RD_16_1.png","img2/100/Incongruent/L/I_Dist_100_LN_6_LD_10_RN_11_RD_22_0.png","img2/200/Incongruent/L/I_Dist_200_LN_7_LD_10_RN_14_RD_28_0.png","img2/200/Congruent/L/C_Dist_200_LN_4_LD_8_RN_3_RD_10_0.png","img2/300/Incongruent/R/I_Dist_300_LN_4_LD_20_RN_2_RD_4_1.png","img2/200/Incongruent/L/I_Dist_200_LN_7_LD_10_RN_14_RD_28_0.png","img2/200/Incongruent/R/I_Dist_200_LN_11_LD_20_RN_3_RD_4_1.png","img2/100/Congruent/L/C_Dist_100_LN_11_LD_22_RN_4_RD_10_0.png","img2/300/Congruent/R/C_Dist_300_LN_1_LD_5_RN_11_RD_22_1.png","img2/200/Incongruent/L/I_Dist_200_LN_7_LD_10_RN_8_RD_16_0.png","img2/200/Congruent/R/C_Dist_200_LN_1_LD_2_RN_21_RD_30_1.png","img2/200/Incongruent/L/I_Dist_200_LN_7_LD_10_RN_8_RD_16_0.png","img2/300/Incongruent/R/I_Dist_300_LN_4_LD_20_RN_2_RD_4_1.png","img2/100/Incongruent/R/I_Dist_100_LN_12_LD_24_RN_9_RD_15_1.png","img2/100/Congruent/R/C_Dist_100_LN_3_LD_20_RN_4_RD_16_1.png","img2/200/Incongruent/R/I_Dist_200_LN_3_LD_10_RN_1_RD_2_1.png","img2/100/Incongruent/R/I_Dist_100_LN_8_LD_16_RN_6_RD_10_1.png","img2/100/Congruent/L/C_Dist_100_LN_11_LD_22_RN_6_RD_15_0.png","img2/100/Congruent/L/C_Dist_100_LN_10_LD_25_RN_3_RD_10_0.png","img2/300/Incongruent/R/I_Dist_300_LN_4_LD_20_RN_2_RD_4_1.png","img2/200/Congruent/L/C_Dist_200_LN_16_LD_30_RN_9_RD_27_0.png","img2/200/Congruent/R/C_Dist_200_LN_3_LD_12_RN_9_RD_20_1.png","img2/100/Incongruent/R/I_Dist_100_LN_12_LD_24_RN_9_RD_15_1.png","img2/100/Congruent/L/C_Dist_100_LN_11_LD_22_RN_4_RD_10_0.png","img2/300/Congruent/L/C_Dist_300_LN_20_LD_25_RN_8_RD_16_0.png","img2/100/Incongruent/R/I_Dist_100_LN_13_LD_26_RN_6_RD_10_1.png","img2/300/Incongruent/R/I_Dist_300_LN_13_LD_26_RN_12_RD_15_1.png","img2/200/Congruent/L/C_Dist_200_LN_4_LD_10_RN_3_RD_15_0.png","img2/300/Incongruent/R/I_Dist_300_LN_4_LD_20_RN_2_RD_4_1.png","img2/200/Congruent/R/C_Dist_200_LN_3_LD_10_RN_7_RD_14_1.png","img2/100/Congruent/R/C_Dist_100_LN_3_LD_20_RN_4_RD_16_1.png","img2/200/Congruent/L/C_Dist_200_LN_12_LD_20_RN_6_RD_15_0.png","img2/200/Congruent/L/C_Dist_200_LN_16_LD_30_RN_9_RD_27_0.png","img2/100/Congruent/R/C_Dist_100_LN_2_LD_5_RN_6_RD_12_1.png","img2/200/Incongruent/L/I_Dist_200_LN_7_LD_10_RN_14_RD_28_0.png","img2/300/Incongruent/L/I_Dist_300_LN_4_LD_5_RN_6_RD_12_0.png","img2/100/Incongruent/R/I_Dist_100_LN_8_LD_16_RN_6_RD_10_1.png","img2/200/Congruent/R/C_Dist_200_LN_6_LD_12_RN_7_RD_10_1.png","img2/200/Congruent/L/C_Dist_200_LN_4_LD_8_RN_3_RD_10_0.png","img2/100/Congruent/R/C_Dist_100_LN_3_LD_20_RN_4_RD_16_1.png","img2/300/Incongruent/R/I_Dist_300_LN_13_LD_26_RN_12_RD_15_1.png","img2/200/Congruent/L/C_Dist_200_LN_14_LD_28_RN_6_RD_20_0.png","img2/300/Congruent/R/C_Dist_300_LN_7_LD_14_RN_20_RD_25_1.png","img2/200/Congruent/L/C_Dist_200_LN_16_LD_20_RN_12_RD_20_0.png","img2/300/Incongruent/R/I_Dist_300_LN_4_LD_20_RN_2_RD_4_1.png","img2/100/Congruent/L/C_Dist_100_LN_11_LD_22_RN_6_RD_15_0.png","img2/300/Incongruent/L/I_Dist_300_LN_3_LD_6_RN_4_RD_20_0.png","img2/100/Incongruent/L/I_Dist_100_LN_9_LD_10_RN_20_RD_25_0.png","img2/100/Incongruent/L/I_Dist_100_LN_3_LD_5_RN_11_RD_22_0.png","img2/200/Incongruent/L/I_Dist_200_LN_3_LD_4_RN_11_RD_20_0.png","img2/200/Congruent/R/C_Dist_200_LN_13_LD_26_RN_14_RD_20_1.png","img2/100/Congruent/R/C_Dist_100_LN_7_LD_14_RN_15_RD_25_1.png","img2/300/Congruent/L/C_Dist_300_LN_3_LD_6_RN_2_RD_10_0.png","img2/300/Incongruent/L/I_Dist_300_LN_1_LD_2_RN_2_RD_10_0.png","img2/300/Congruent/L/C_Dist_300_LN_20_LD_25_RN_9_RD_18_0.png","img2/200/Congruent/L/C_Dist_200_LN_12_LD_20_RN_6_RD_15_0.png","img2/100/Congruent/L/C_Dist_100_LN_9_LD_15_RN_8_RD_16_0.png","img2/200/Congruent/L/C_Dist_200_LN_12_LD_15_RN_6_RD_10_0.png","img2/300/Incongruent/L/I_Dist_300_LN_3_LD_6_RN_4_RD_20_0.png","img2/100/Congruent/R/C_Dist_100_LN_2_LD_5_RN_6_RD_12_1.png","img2/200/Incongruent/R/I_Dist_200_LN_3_LD_10_RN_1_RD_2_1.png","img2/100/Congruent/L/C_Dist_100_LN_11_LD_22_RN_6_RD_15_0.png","img2/100/Incongruent/R/I_Dist_100_LN_11_LD_22_RN_9_RD_15_1.png","img2/100/Congruent/R/C_Dist_100_LN_1_LD_2_RN_18_RD_30_1.png","img2/300/Congruent/L/C_Dist_300_LN_4_LD_10_RN_1_RD_10_0.png","img2/300/Congruent/L/C_Dist_300_LN_3_LD_6_RN_2_RD_10_0.png","img2/300/Incongruent/L/I_Dist_300_LN_8_LD_10_RN_9_RD_18_0.png","img2/100/Incongruent/L/I_Dist_100_LN_6_LD_10_RN_13_RD_26_0.png","img2/300/Congruent/R/C_Dist_300_LN_3_LD_12_RN_11_RD_20_1.png","img2/300/Incongruent/L/I_Dist_300_LN_4_LD_5_RN_8_RD_16_0.png","img2/300/Congruent/R/C_Dist_300_LN_1_LD_5_RN_3_RD_6_1.png","img2/200/Congruent/L/C_Dist_200_LN_14_LD_28_RN_6_RD_20_0.png","img2/300/Incongruent/L/I_Dist_300_LN_8_LD_10_RN_14_RD_28_0.png","img2/200/Congruent/R/C_Dist_200_LN_3_LD_6_RN_14_RD_20_1.png","img2/300/Congruent/R/C_Dist_300_LN_5_LD_25_RN_6_RD_12_1.png","img2/300/Incongruent/R/I_Dist_300_LN_4_LD_20_RN_2_RD_4_1.png","img2/100/Congruent/R/C_Dist_100_LN_3_LD_20_RN_4_RD_16_1.png"],"dist100_C":[["C_Dist_100_LN_10_LD_25_RN_3_RD_10_0.png","C_Dist_100_LN_11_LD_22_RN_4_RD_10_0.png","C_Dist_100_LN_11_LD_22_RN_6_RD_15_0.png","C_Dist_100_LN_15_LD_25_RN_13_RD_26_0.png","C_Dist_100_LN_3_LD_6_RN_2_RD_5_0.png","C_Dist_100_LN_6_LD_20_RN_5_RD_25_0.png","C_Dist_100_LN_8_LD_16_RN_2_RD_5_0.png","C_Dist_100_LN_9_LD_15_RN_8_RD_16_0.png"],["C_Dist_100_LN_1_LD_2_RN_18_RD_30_1.png","C_Dist_100_LN_1_LD_2_RN_3_RD_5_1.png","C_Dist_100_LN_12_LD_30_RN_13_RD_26_1.png","C_Dist_100_LN_2_LD_5_RN_11_RD_22_1.png","C_Dist_100_LN_2_LD_5_RN_6_RD_12_1.png","C_Dist_100_LN_3_LD_20_RN_4_RD_16_1.png","C_Dist_100_LN_4_LD_10_RN_15_RD_30_1.png","C_Dist_100_LN_4_LD_8_RN_6_RD_10_1.png","C_Dist_100_LN_6_LD_12_RN_15_RD_25_1.png","C_Dist_100_LN_7_LD_14_RN_15_RD_25_1.png","C_Dist_100_LN_7_LD_14_RN_9_RD_15_1.png"]],"dist100_I":[["I_Dist_100_LN_1_LD_2_RN_8_RD_20_0.png","I_Dist_100_LN_2_LD_4_RN_6_RD_15_0.png","I_Dist_100_LN_2_LD_4_RN_8_RD_20_0.png","I_Dist_100_LN_3_LD_5_RN_11_RD_22_0.png","I_Dist_100_LN_3_LD_5_RN_8_RD_16_0.png","I_Dist_100_LN_3_LD_6_RN_4_RD_10_0.png","I_Dist_100_LN_3_LD_9_RN_7_RD_30_0.png","I_Dist_100_LN_4_LD_8_RN_8_RD_20_0.png","I_Dist_100_LN_6_LD_10_RN_11_RD_22_0.png","I_Dist_100_LN_6_LD_10_RN_13_RD_26_0.png","I_Dist_100_LN_6_LD_10_RN_7_RD_14_0.png","I_Dist_100_LN_9_LD_10_RN_20_RD_25_0.png","I_Dist_100_LN_9_LD_15_RN_13_RD_26_0.png","I_Dist_100_LN_9_LD_15_RN_14_RD_28_0.png"],["I_Dist_100_LN_10_LD_25_RN_8_RD_16_1.png","I_Dist_100_LN_10_LD_25_RN_9_RD_18_1.png","I_Dist_100_LN_11_LD_22_RN_9_RD_15_1.png","I_Dist_100_LN_12_LD_24_RN_9_RD_15_1.png","I_Dist_100_LN_12_LD_30_RN_2_RD_4_1.png","I_Dist_100_LN_13_LD_26_RN_12_RD_20_1.png","I_Dist_100_LN_13_LD_26_RN_6_RD_10_1.png","I_Dist_100_LN_17_LD_30_RN_10_RD_15_1.png","I_Dist_100_LN_6_LD_12_RN_3_RD_5_1.png","I_Dist_100_LN_8_LD_16_RN_6_RD_10_1.png","I_Dist_100_LN_8_LD_20_RN_1_RD_2_1.png","I_Dist_100_LN_9_LD_18_RN_6_RD_10_1.png"]],"dist100_S":[["E_Dist_100_LN_2_LD_12_RN_2_RD_30_0.png","E_Dist_100_LN_6_LD_10_RN_6_RD_12_0.png"],["E_Dist_100_LN_6_LD_12_RN_6_RD_10_1.png"]],"dist200_C":[["C_Dist_200_LN_11_LD_22_RN_3_RD_10_0.png","C_Dist_200_LN_12_LD_15_RN_6_RD_10_0.png","C_Dist_200_LN_12_LD_20_RN_6_RD_15_0.png","C_Dist_200_LN_14_LD_28_RN_6_RD_20_0.png","C_Dist_200_LN_15_LD_25_RN_4_RD_10_0.png","C_Dist_200_LN_16_LD_20_RN_12_RD_20_0.png","C_Dist_200_LN_16_LD_30_RN_9_RD_27_0.png","C_Dist_200_LN_20_LD_25_RN_9_RD_15_0.png","C_Dist_200_LN_21_LD_30_RN_2_RD_4_0.png","C_Dist_200_LN_4_LD_10_RN_3_RD_15_0.png","C_Dist_200_LN_4_LD_8_RN_3_RD_10_0.png","C_Dist_200_LN_6_LD_15_RN_3_RD_15_0.png","C_Dist_200_LN_7_LD_21_RN_2_RD_15_0.png","C_Dist_200_LN_8_LD_15_RN_2_RD_6_0.png","C_Dist_200_LN_8_LD_15_RN_3_RD_9_0.png","C_Dist_200_LN_8_LD_15_RN_7_RD_21_0.png","C_Dist_200_LN_9_LD_20_RN_4_RD_16_0.png"],["C_Dist_200_LN_1_LD_2_RN_21_RD_30_1.png","C_Dist_200_LN_13_LD_26_RN_14_RD_20_1.png","C_Dist_200_LN_3_LD_10_RN_11_RD_22_1.png","C_Dist_200_LN_3_LD_10_RN_14_RD_28_1.png","C_Dist_200_LN_3_LD_10_RN_7_RD_14_1.png","C_Dist_200_LN_3_LD_12_RN_9_RD_20_1.png","C_Dist_200_LN_3_LD_6_RN_14_RD_20_1.png","C_Dist_200_LN_5_LD_10_RN_14_RD_20_1.png","C_Dist_200_LN_6_LD_12_RN_7_RD_10_1.png","C_Dist_200_LN_6_LD_20_RN_11_RD_22_1.png","C_Dist_200_LN_7_LD_15_RN_18_RD_27_1.png","C_Dist_200_LN_9_LD_30_RN_13_RD_26_1.png"]],"dist200_I":[["I_Dist_200_LN_1_LD_2_RN_3_RD_10_0.png","I_Dist_200_LN_1_LD_3_RN_2_RD_15_0.png","I_Dist_200_LN_3_LD_4_RN_11_RD_20_0.png","I_Dist_200_LN_4_LD_5_RN_6_RD_10_0.png","I_Dist_200_LN_4_LD_6_RN_14_RD_30_0.png","I_Dist_200_LN_7_LD_10_RN_12_RD_24_0.png","I_Dist_200_LN_7_LD_10_RN_14_RD_28_0.png","I_Dist_200_LN_7_LD_10_RN_8_RD_16_0.png"],["I_Dist_200_LN_11_LD_20_RN_3_RD_4_1.png","I_Dist_200_LN_14_LD_30_RN_12_RD_18_1.png","I_Dist_200_LN_14_LD_30_RN_6_RD_9_1.png","I_Dist_200_LN_3_LD_10_RN_1_RD_2_1.png","I_Dist_200_LN_4_LD_30_RN_1_RD_3_1.png","I_Dist_200_LN_6_LD_20_RN_3_RD_6_1.png","I_Dist_200_LN_7_LD_15_RN_4_RD_6_1.png","I_Dist_200_LN_7_LD_15_RN_6_RD_9_1.png","I_Dist_200_LN_9_LD_15_RN_8_RD_10_1.png"]],"dist200_S":[["E_Dist_200_LN_3_LD_6_RN_3_RD_10_0.png"],["E_Dist_200_LN_3_LD_10_RN_3_RD_6_1.png"]],"dist300_C":[["C_Dist_300_LN_11_LD_22_RN_1_RD_5_0.png","C_Dist_300_LN_11_LD_22_RN_2_RD_10_0.png","C_Dist_300_LN_11_LD_22_RN_4_RD_20_0.png","C_Dist_300_LN_12_LD_24_RN_2_RD_10_0.png","C_Dist_300_LN_18_LD_20_RN_9_RD_15_0.png","C_Dist_300_LN_20_LD_25_RN_13_RD_26_0.png","C_Dist_300_LN_20_LD_25_RN_14_RD_28_0.png","C_Dist_300_LN_20_LD_25_RN_5_RD_10_0.png","C_Dist_300_LN_20_LD_25_RN_8_RD_16_0.png","C_Dist_300_LN_20_LD_25_RN_9_RD_18_0.png","C_Dist_300_LN_24_LD_30_RN_2_RD_4_0.png","C_Dist_300_LN_24_LD_30_RN_8_RD_16_0.png","C_Dist_300_LN_3_LD_6_RN_2_RD_10_0.png","C_Dist_300_LN_4_LD_10_RN_1_RD_10_0.png","C_Dist_300_LN_4_LD_5_RN_2_RD_4_0.png","C_Dist_300_LN_8_LD_16_RN_1_RD_5_0.png","C_Dist_300_LN_9_LD_10_RN_3_RD_5_0.png"],["C_Dist_300_LN_1_LD_20_RN_7_RD_20_1.png","C_Dist_300_LN_1_LD_3_RN_19_RD_30_1.png","C_Dist_300_LN_1_LD_30_RN_8_RD_24_1.png","C_Dist_300_LN_1_LD_5_RN_11_RD_22_1.png","C_Dist_300_LN_1_LD_5_RN_3_RD_6_1.png","C_Dist_300_LN_1_LD_5_RN_6_RD_12_1.png","C_Dist_300_LN_2_LD_10_RN_12_RD_24_1.png","C_Dist_300_LN_2_LD_20_RN_10_RD_25_1.png","C_Dist_300_LN_3_LD_12_RN_11_RD_20_1.png","C_Dist_300_LN_3_LD_6_RN_4_RD_5_1.png","C_Dist_300_LN_4_LD_20_RN_13_RD_26_1.png","C_Dist_300_LN_5_LD_25_RN_6_RD_12_1.png","C_Dist_300_LN_5_LD_25_RN_7_RD_14_1.png","C_Dist_300_LN_7_LD_14_RN_20_RD_25_1.png","C_Dist_300_LN_8_LD_15_RN_10_RD_12_1.png"]],"dist300_I":[["I_Dist_300_LN_1_LD_2_RN_2_RD_10_0.png","I_Dist_300_LN_1_LD_2_RN_3_RD_15_0.png","I_Dist_300_LN_2_LD_4_RN_6_RD_30_0.png","I_Dist_300_LN_3_LD_6_RN_4_RD_20_0.png","I_Dist_300_LN_4_LD_5_RN_6_RD_12_0.png","I_Dist_300_LN_4_LD_5_RN_8_RD_16_0.png","I_Dist_300_LN_7_LD_10_RN_8_RD_20_0.png","I_Dist_300_LN_8_LD_10_RN_14_RD_28_0.png","I_Dist_300_LN_8_LD_10_RN_9_RD_18_0.png"],["I_Dist_300_LN_13_LD_26_RN_12_RD_15_1.png","I_Dist_300_LN_4_LD_20_RN_2_RD_4_1.png"]],"dist300_S":[["E_Dist_300_LN_9_LD_12_RN_9_RD_20_0.png"],["E_Dist_300_LN_18_LD_30_RN_18_RD_20_1.png","E_Dist_300_LN_3_LD_10_RN_3_RD_5_1.png","E_Dist_300_LN_9_LD_20_RN_9_RD_12_1.png"]],"dist500_C":[["C_Dist_500_LN_10_LD_13_RN_7_RD_26_0.png","C_Dist_500_LN_10_LD_15_RN_4_RD_24_0.png","C_Dist_500_LN_12_LD_16_RN_3_RD_12_0.png","C_Dist_500_LN_12_LD_18_RN_4_RD_24_0.png","C_Dist_500_LN_15_LD_18_RN_5_RD_15_0.png","C_Dist_500_LN_15_LD_20_RN_1_RD_4_0.png","C_Dist_500_LN_18_LD_27_RN_1_RD_6_0.png","C_Dist_500_LN_20_LD_24_RN_1_RD_3_0.png","C_Dist_500_LN_20_LD_24_RN_3_RD_9_0.png","C_Dist_500_LN_20_LD_24_RN_7_RD_21_0.png","C_Dist_500_LN_20_LD_28_RN_3_RD_14_0.png","C_Dist_500_LN_21_LD_28_RN_6_RD_24_0.png","C_Dist_500_LN_22_LD_28_RN_2_RD_7_0.png","C_Dist_500_LN_25_LD_30_RN_9_RD_27_0.png","C_Dist_500_LN_4_LD_6_RN_1_RD_6_0.png","C_Dist_500_LN_5_LD_6_RN_2_RD_6_0.png","C_Dist_500_LN_6_LD_9_RN_1_RD_6_0.png","C_Dist_500_LN_7_LD_10_RN_1_RD_5_0.png","C_Dist_500_LN_8_LD_12_RN_1_RD_6_0.png","C_Dist_500_LN_8_LD_12_RN_4_RD_24_0.png"],["C_Dist_500_LN_1_LD_4_RN_12_RD_16_1.png","C_Dist_500_LN_1_LD_4_RN_9_RD_12_1.png","C_Dist_500_LN_1_LD_9_RN_11_RD_18_1.png","C_Dist_500_LN_10_LD_24_RN_22_RD_24_1.png","C_Dist_500_LN_2_LD_12_RN_10_RD_15_1.png","C_Dist_500_LN_2_LD_12_RN_12_RD_18_1.png","C_Dist_500_LN_2_LD_12_RN_4_RD_6_1.png","C_Dist_500_LN_2_LD_24_RN_7_RD_12_1.png","C_Dist_500_LN_2_LD_5_RN_18_RD_20_1.png","C_Dist_500_LN_2_LD_5_RN_9_RD_10_1.png","C_Dist_500_LN_2_LD_8_RN_12_RD_16_1.png","C_Dist_500_LN_2_LD_8_RN_21_RD_28_1.png","C_Dist_500_LN_3_LD_10_RN_4_RD_5_1.png","C_Dist_500_LN_3_LD_12_RN_15_RD_20_1.png","C_Dist_500_LN_3_LD_30_RN_6_RD_10_1.png","C_Dist_500_LN_3_LD_8_RN_14_RD_16_1.png","C_Dist_500_LN_4_LD_16_RN_15_RD_20_1.png","C_Dist_500_LN_4_LD_24_RN_12_RD_18_1.png","C_Dist_500_LN_5_LD_14_RN_6_RD_7_1.png","C_Dist_500_LN_7_LD_21_RN_20_RD_24_1.png","C_Dist_500_LN_7_LD_28_RN_12_RD_16_1.png","C_Dist_500_LN_7_LD_28_RN_9_RD_12_1.png","C_Dist_500_LN_9_LD_27_RN_20_RD_24_1.png"]],"dist500_I":[["I_Dist_500_LN_2_LD_3_RN_4_RD_24_0.png","I_Dist_500_LN_5_LD_6_RN_6_RD_18_0.png","I_Dist_500_LN_7_LD_8_RN_9_RD_24_0.png"],["I_Dist_500_LN_7_LD_21_RN_5_RD_6_1.png"]],"dist500_S":[["E_Dist_500_LN_6_LD_8_RN_6_RD_24_0.png"],["E_Dist_500_LN_2_LD_12_RN_2_RD_3_1.png","E_Dist_500_LN_6_LD_24_RN_6_RD_8_1.png"]]}},{"start_time":1551800567604,"click_time":1551800570380,"finger_time":1551800570038,"fix_duration":683.6825615219191,"trial":1,"RT":2434,"MT":342,"sideResp":1,"stimulus":[],"xmouse":[789,789,789,789,789,789,789,789,789,789,789,789,789,789,789,789,789,789,789,789,789,789,789,789,789,789,789,789,789,789,789,789,789,789,789,789,789,789,789,789,789,789,789,789,789,789,789,789,789,789,789,789,789,789,789,789,789,789,789,789,789,789,789,789,789,789,789,789,789,789,789,789,789,789,789,789,789,789,789,789,789,789,789,789,789,789,789,789,789,789,789,789,789,789,789,789,789,789,789,789,789,789,789,789,789,789,789,789,789,789,789,789,789,789,789,789,789,789,789,788,785,775,742,699,609,595,587,584,575,571,568,566,566,566,561,551,539,529,523],"ymouse":[475,475,475,475,475,475,475,475,475,475,475,475,475,475,475,475,475,475,475,475,475,475,475,475,475,475,475,475,475,475,475,475,475,475,475,475,475,475,475,475,475,475,475,475,475,475,475,475,475,475,475,475,475,475,475,475,475,475,475,475,475,475,475,475,475,475,475,475,475,475,475,475,475,475,475,475,475,475,475,475,475,475,475,475,475,475,475,475,475,475,475,475,475,475,475,475,475,475,475,475,475,475,475,475,475,475,475,475,475,475,475,475,475,475,475,475,475,475,475,462,449,406,304,218,98,81,70,60,30,20,14,13,13,13,15,21,30,36,41],"timestamp_mouse":[15,39,54,74,94,114,135,154,175,194,214,235,254,275,295,313,335,354,374,395,414,435,455,473,494,515,534,554,574,593,615,634,654,674,694,714,733,754,774,795,813,835,854,874,895,914,934,954,975,994,1014,1035,1055,1075,1093,1114,1135,1154,1174,1195,1214,1234,1253,1275,1294,1314,1334,1354,1373,1394,1414,1434,1454,1474,1494,1514,1534,1554,1574,1594,1615,1634,1654,1674,1694,1714,1734,1755,1775,1793,1813,1834,1854,1874,1894,1914,1933,1955,1974,1994,2015,2034,2054,2075,2093,2114,2134,2154,2175,2194,2214,2235,2255,2274,2294,2314,2334,2355,2373,2394,2414,2434,2455,2474,2494,2514,2534,2553,2575,2594,2615,2635,2655,2673,2694,2715,2735,2754,2775],"xSR":741.5,"ySR":447.2,"xT1":424.9,"yT1":0,"xT2":1058.1,"yT2":0,"toosoon":0,"cond_shown":"Incongruent","ratio_trial":200,"L_num":3,"L_den":4,"R_num":11,"R_den":20,"correct_side":1,"subjID":"IsauraHernandezGomez23","gender":"1","school":"6","age":"11"},{"start_time":1551800572467,"click_time":1551800574398,"finger_time":1551800574037,"fix_duration":567.6411613855148,"trial":2,"RT":1570,"MT":361,"sideResp":2,"stimulus":[],"xmouse":[801,801,801,801,801,801,801,801,801,801,801,801,801,801,801,801,801,801,801,801,801,801,801,801,801,801,801,801,801,801,801,801,801,801,801,801,801,801,801,801,801,801,801,801,801,801,801,801,801,801,801,801,801,801,801,801,801,801,801,801,801,801,801,801,801,801,801,801,801,801,801,801,801,801,801,801,801,807,821,891,987,1023,1045,1061,1073,1089,1094,1098,1102,1104,1104,1106,1106,1106,1106,1108,1108],"ymouse":[465,465,465,465,465,465,465,465,465,465,465,465,465,465,465,465,465,465,465,465,465,465,465,465,465,465,465,465,465,465,465,465,465,465,465,465,465,465,465,465,465,465,465,465,465,465,465,465,465,465,465,465,465,465,465,465,465,465,465,465,465,465,465,465,465,465,465,465,465,465,465,465,465,465,465,465,465,462,441,335,211,174,158,147,141,133,131,128,125,123,123,122,121,118,115,107,99],"timestamp_mouse":[10,35,51,71,92,111,132,151,171,192,211,231,251,272,292,312,331,351,370,392,411,432,451,471,492,510,531,550,570,591,611,632,651,671,692,710,731,751,770,791,812,831,851,871,892,910,931,952,971,991,1012,1031,1050,1072,1091,1112,1132,1151,1172,1192,1212,1231,1252,1272,1291,1312,1331,1350,1371,1392,1410,1431,1452,1471,1490,1512,1531,1552,1570,1592,1612,1631,1651,1671,1691,1713,1730,1750,1771,1792,1811,1832,1851,1872,1891,1912,1931],"xSR":741.5,"ySR":447.2,"xT1":424.9,"yT1":0,"xT2":1058.1,"yT2":0,"toosoon":0,"cond_shown":"Incongruent","ratio_trial":100,"L_num":3,"L_den":5,"R_num":8,"R_den":16,"correct_side":1,"subjID":"IsauraHernandezGomez23","gender":"1","school":"6","age":"11"},{"start_time":1551800578617,"click_time":1551800581098,"finger_time":1551800580198,"fix_duration":817.7771458690102,"trial":3,"RT":1581,"MT":900,"sideResp":1,"stimulus":[],"xmouse":[791,791,791,791,791,791,791,791,791,791,791,791,791,791,791,791,791,791,791,791,791,791,791,791,791,791,791,791,791,791,791,791,791,791,791,791,791,791,791,791,791,791,791,791,791,791,791,791,791,791,791,791,791,791,791,791,791,791,791,791,791,791,791,791,791,791,791,791,791,791,791,791,791,791,791,791,791,791,791,777,757,735,706,692,681,675,664,647,613,607,602,601,598,594,582,573,567,561,558,548,540,527,521,517,517,517,517,516,516,516,516,516,516,516,516,516,516,516,516,516,516,516,516,516,511],"ymouse":[496,496,496,496,496,496,496,496,496,496,496,496,496,496,496,496,496,496,496,496,496,496,496,496,496,496,496,496,496,496,496,496,496,496,496,496,496,496,496,496,496,496,496,496,496,496,496,496,496,496,496,496,496,496,496,496,496,496,496,496,496,496,496,496,496,496,496,496,496,496,496,496,496,496,496,496,496,492,479,390,322,273,227,208,191,184,175,164,147,144,142,142,141,140,137,134,131,128,125,118,115,107,104,102,102,102,102,101,101,101,101,101,101,101,101,101,101,101,101,101,101,101,101,100,97],"timestamp_mouse":[1,34,42,62,80,101,121,141,161,182,201,221,240,262,282,300,321,341,360,381,402,420,442,462,481,501,522,540,562,580,601,622,641,660,681,701,721,742,761,782,801,822,842,862,882,901,921,941,962,982,1002,1021,1042,1062,1082,1101,1121,1141,1161,1182,1201,1221,1241,1261,1282,1300,1321,1342,1361,1382,1401,1422,1441,1460,1482,1501,1520,1541,1561,1581,1601,1621,1641,1662,1680,1701,1721,1741,1762,1780,1801,1821,1841,1862,1882,1901,1921,1940,1961,1982,2002,2021,2042,2061,2081,2101,2121,2142,2161,2181,2201,2222,2242,2261,2281,2302,2321,2341,2361,2381,2401,2421,2442,2460,2480],"xSR":741.5,"ySR":447.2,"xT1":424.9,"yT1":0,"xT2":1058.1,"yT2":0,"toosoon":0,"cond_shown":"Congruent","ratio_trial":300,"L_num":20,"L_den":25,"R_num":13,"R_den":26,"correct_side":1,"subjID":"IsauraHernandezGomez23","gender":"1","school":"6","age":"11"},{"start_time":1551800584188,"click_time":1551800587538,"finger_time":1551800587038,"fix_duration":788.4237409623937,"trial":4,"RT":2850,"MT":500,"sideResp":1,"stimulus":[],"xmouse":[801,801,801,801,801,801,801,801,801,801,801,801,801,801,801,801,801,801,801,801,801,801,801,801,801,801,801,801,801,801,801,801,801,801,801,801,801,801,801,801,801,801,801,801,801,801,801,801,801,801,801,801,801,801,801,801,801,801,801,801,801,801,801,801,801,801,801,801,801,801,801,801,801,801,801,801,801,802,807,809,809,809,810,813,815,815,815,815,815,815,815,815,815,817,820,821,822,822,822,822,822,822,822,822,822,822,822,822,822,822,822,823,823,823,823,823,823,823,823,823,823,823,823,823,823,823,823,823,823,823,823,823,823,823,823,823,823,823,823,823,823,813,795,755,731,731,731,731,731,731,731,731,731,731,731,731,731,731,375,374,373,373,373,373,381,396,418,446],"ymouse":[493,493,493,493,493,493,493,493,493,493,493,493,493,493,493,493,493,493,493,493,493,493,493,493,493,493,493,493,493,493,493,493,493,493,493,493,493,493,493,493,493,493,493,493,493,493,493,493,493,493,493,493,493,493,493,493,493,493,493,493,493,493,493,493,493,493,493,493,493,493,493,493,493,493,493,493,490,486,476,475,474,474,473,471,470,470,470,470,470,470,470,470,470,469,469,468,468,468,468,468,468,468,468,468,468,468,468,468,468,468,468,468,468,468,469,470,470,470,470,470,470,470,471,471,471,471,471,471,471,471,471,471,471,471,471,471,471,471,471,471,471,450,330,145,59,59,59,59,59,59,59,59,59,59,59,59,59,59,3,7,13,15,15,17,32,45,56,64],"timestamp_mouse":[9,40,50,71,89,110,130,149,171,191,210,230,250,270,290,310,331,350,370,390,410,430,450,470,491,511,531,551,570,590,611,630,650,670,690,710,730,751,771,790,811,829,849,870,889,911,929,949,971,989,1010,1030,1050,1069,1090,1110,1130,1151,1171,1191,1211,1229,1250,1270,1289,1311,1331,1351,1370,1391,1411,1429,1451,1470,1489,1511,1530,1549,1571,1590,1610,1631,1650,1670,1690,1710,1730,1749,1770,1790,1811,1830,1851,1870,1890,1911,1931,1950,1970,1991,2009,2031,2051,2069,2091,2109,2131,2151,2169,2191,2211,2230,2251,2270,2291,2311,2330,2350,2371,2390,2410,2431,2451,2471,2490,2510,2530,2551,2570,2591,2610,2631,2650,2670,2690,2711,2731,2750,2769,2791,2810,2830,2850,2870,2891,2911,2931,2950,2970,2989,3009,3030,3050,3070,3091,3111,3130,3151,3170,3191,3211,3230,3251,3269,3291,3310,3330,3350],"xSR":741.5,"ySR":447.2,"xT1":424.9,"yT1":0,"xT2":1058.1,"yT2":0,"toosoon":0,"cond_shown":"Congruent","ratio_trial":300,"L_num":4,"L_den":20,"R_num":13,"R_den":26,"correct_side":2,"subjID":"IsauraHernandezGomez23","gender":"1","school":"6","age":"11"},{"start_time":1551800592300,"click_time":1551800594238,"finger_time":1551800593779,"fix_duration":719.1268490324051,"trial":5,"RT":1479,"MT":459,"sideResp":2,"stimulus":[],"xmouse":[794,794,794,794,794,794,794,794,794,794,794,794,794,794,794,794,794,794,794,794,794,794,794,794,794,794,794,794,794,794,794,794,794,794,794,794,794,794,794,794,794,794,794,794,794,794,794,794,794,794,794,794,794,794,794,794,794,794,794,794,794,794,794,794,794,794,794,794,794,794,794,794,806,849,904,976,1040,1114,1144,1177,1188,1197,1207,1235,1249,1261,1271,1281,1282,1282,1282,1276,1258,1232,1184,1166,1151],"ymouse":[457,457,457,457,457,457,457,457,457,457,457,457,457,457,457,457,457,457,457,457,457,457,457,457,457,457,457,457,457,457,457,457,457,457,457,457,457,457,457,457,457,457,457,457,457,457,457,457,457,457,457,457,457,457,457,457,457,457,457,457,457,457,457,457,457,457,457,457,457,457,457,457,449,421,382,339,302,253,225,190,178,167,157,136,123,107,88,62,52,52,52,51,51,55,60,60,60],"timestamp_mouse":[18,39,58,79,97,118,139,157,178,199,219,237,258,277,299,319,338,359,379,399,419,438,458,478,499,519,539,559,578,598,618,639,659,679,698,719,738,758,778,799,817,839,857,878,898,919,938,959,977,998,1017,1037,1059,1079,1099,1118,1138,1159,1178,1197,1218,1237,1257,1278,1299,1318,1338,1358,1378,1398,1417,1438,1458,1479,1498,1518,1538,1558,1578,1598,1618,1638,1658,1679,1698,1718,1738,1759,1779,1797,1818,1838,1858,1878,1898,1919,1938],"xSR":741.5,"ySR":447.2,"xT1":424.9,"yT1":0,"xT2":1058.1,"yT2":0,"toosoon":0,"cond_shown":"Congruent","ratio_trial":300,"L_num":3,"L_den":6,"R_num":2,"R_den":10,"correct_side":1,"subjID":"IsauraHernandezGomez23","gender":"1","school":"6","age":"11"},{"start_time":1551800597510,"click_time":1551800598838,"finger_time":1551800598779,"fix_duration":250,"trial":6,"RT":1269,"MT":59,"sideResp":1,"stimulus":[],"xmouse":[781,781,781,781,781,781,781,781,781,781,781,782,782,783,783,783,783,783,783,783,783,783,783,783,783,783,783,783,783,783,783,783,783,783,783,783,783,783,783,783,783,783,783,783,783,783,783,783,783,783,783,783,783,783,783,783,783,783,783,783,783,778,769,641,563,498,464],"ymouse":[497,497,497,497,497,497,497,497,497,497,494,493,490,488,488,488,488,488,488,488,488,488,488,488,488,488,488,488,488,488,488,488,488,488,488,488,488,488,488,488,488,488,488,488,488,488,488,488,488,488,488,488,488,488,488,488,488,488,488,488,488,472,452,278,191,123,74],"timestamp_mouse":[9,37,49,69,87,109,129,147,168,187,207,228,248,268,289,309,328,348,369,388,408,428,448,468,488,508,528,549,569,588,608,627,649,669,688,709,728,747,769,788,808,828,849,868,889,908,927,948,969,987,1008,1028,1048,1069,1089,1108,1128,1149,1169,1188,1208,1228,1248,1269,1288,1308,1328],"xSR":741.5,"ySR":447.2,"xT1":424.9,"yT1":0,"xT2":1058.1,"yT2":0,"toosoon":0,"cond_shown":"Congruent","ratio_trial":100,"L_num":9,"L_den":15,"R_num":8,"R_den":16,"correct_side":1,"subjID":"IsauraHernandezGomez23","gender":"1","school":"6","age":"11"},{"start_time":1551800602790,"click_time":1551800604898,"finger_time":1551800604198,"fix_duration":250,"trial":7,"RT":1408,"MT":700,"sideResp":1,"stimulus":[],"xmouse":[788,788,788,788,788,788,788,788,788,788,788,788,788,788,788,788,788,788,788,788,788,788,788,788,788,788,788,788,788,788,788,788,788,788,788,788,788,788,788,788,788,788,788,788,788,788,788,788,788,788,788,788,788,788,788,788,788,788,788,788,788,788,788,788,788,788,788,788,787,786,770,746,720,700,696,687,684,681,678,678,678,678,676,673,667,658,654,650,642,625,575,565,560,557,553,549,547,541,536,533,532,532,532,532,528,514],"ymouse":[503,503,503,503,503,503,503,503,503,503,503,503,503,503,503,503,503,503,503,503,503,503,503,503,503,503,503,503,503,503,503,503,503,503,503,503,503,503,503,503,503,503,503,503,503,503,503,503,503,503,503,503,503,503,503,503,503,503,503,503,503,503,503,503,503,503,503,503,487,468,289,202,140,106,91,60,47,39,36,35,35,35,34,33,32,32,32,32,32,32,37,39,40,41,43,44,45,47,49,51,51,51,51,51,53,57],"timestamp_mouse":[10,38,49,68,88,108,128,148,168,189,209,227,248,267,289,309,328,348,368,388,408,428,449,468,488,508,528,548,568,588,608,627,649,667,688,708,728,749,769,789,808,827,848,867,889,908,928,948,969,989,1008,1028,1049,1068,1089,1107,1129,1149,1169,1189,1209,1229,1249,1269,1287,1309,1328,1347,1368,1388,1408,1428,1448,1469,1487,1507,1528,1548,1568,1587,1607,1628,1649,1668,1687,1707,1728,1748,1768,1789,1808,1828,1847,1868,1889,1907,1928,1949,1969,1987,2007,2029,2048,2069,2088,2108],"xSR":741.5,"ySR":447.2,"xT1":424.9,"yT1":0,"xT2":1058.1,"yT2":0,"toosoon":0,"cond_shown":"Congruent","ratio_trial":300,"L_num":20,"L_den":25,"R_num":13,"R_den":26,"correct_side":1,"subjID":"IsauraHernandezGomez23","gender":"1","school":"6","age":"11"},{"start_time":1551800606998,"click_time":1551800608978,"finger_time":1551800608538,"fix_duration":619.3699782428362,"trial":8,"RT":1540,"MT":440,"sideResp":1,"stimulus":[],"xmouse":[813,813,813,813,813,813,813,813,813,813,813,813,813,813,813,813,813,813,813,813,813,813,813,813,813,813,813,813,813,813,813,813,813,813,813,813,813,813,813,813,813,813,813,813,813,813,813,813,813,813,813,813,813,813,813,813,813,813,813,813,813,813,813,813,813,813,813,813,813,813,813,813,813,813,813,813,800,790,764,704,599,569,548,541,540,539,539,538,535,535,531,530,526,521,516,514,510,503,493,482],"ymouse":[463,463,463,463,463,463,463,463,463,463,463,463,463,463,463,463,463,463,463,463,463,463,463,463,463,463,463,463,463,463,463,463,463,463,463,463,463,463,463,463,463,463,463,463,463,463,463,463,463,463,463,463,463,463,463,463,463,463,463,463,463,463,463,463,463,463,464,464,464,464,464,464,464,464,464,464,452,443,422,378,273,240,212,197,191,189,188,184,180,178,170,165,157,147,133,129,123,116,105,89],"timestamp_mouse":[8,21,43,60,80,99,120,140,160,181,201,221,239,260,280,299,320,340,359,381,399,420,441,460,480,500,521,539,560,581,600,621,641,661,681,701,719,741,760,780,801,820,840,860,880,900,920,940,961,981,1000,1020,1039,1061,1080,1099,1120,1140,1160,1179,1200,1220,1240,1261,1279,1300,1320,1340,1360,1381,1400,1420,1441,1461,1480,1501,1520,1540,1560,1580,1600,1621,1640,1660,1679,1701,1721,1740,1760,1781,1800,1820,1840,1860,1880,1899,1920,1940,1959,1980],"xSR":741.5,"ySR":447.2,"xT1":424.9,"yT1":0,"xT2":1058.1,"yT2":0,"toosoon":0,"cond_shown":"Congruent","ratio_trial":300,"L_num":20,"L_den":25,"R_num":9,"R_den":18,"correct_side":1,"subjID":"IsauraHernandezGomez23","gender":"1","school":"6","age":"11"},{"start_time":1551800612881,"click_time":1551800614779,"finger_time":1551800614498,"fix_duration":1361.887227224077,"trial":9,"RT":1617,"MT":281,"sideResp":2,"stimulus":[],"xmouse":[797,797,797,797,797,797,797,797,797,797,797,797,797,797,797,797,797,797,797,797,797,797,797,797,797,797,797,797,797,797,797,797,797,797,797,797,797,797,797,797,797,797,797,797,797,797,797,797,797,797,797,797,797,797,797,797,797,797,797,797,797,797,797,797,797,797,797,797,797,797,797,797,797,797,797,797,797,798,800,805,835,872,935,1005,1048,1081,1087,1089,1090,1090,1091,1092,1095,1097,1098],"ymouse":[500,500,500,500,500,500,500,500,500,500,500,500,500,500,500,500,500,500,500,500,500,500,500,500,500,500,500,500,500,500,500,500,500,500,500,500,500,500,500,500,500,500,500,500,500,500,500,500,500,500,500,500,500,500,500,500,500,500,500,500,500,500,500,500,500,500,500,500,500,500,500,500,500,500,500,500,500,498,493,483,436,391,332,267,223,187,175,169,165,160,150,144,132,114,83],"timestamp_mouse":[17,41,58,76,97,118,137,157,177,198,217,237,257,278,298,316,337,358,377,396,417,437,457,478,496,518,537,557,577,597,617,637,657,676,698,717,737,757,778,796,818,837,857,877,898,917,937,957,977,998,1017,1036,1057,1077,1097,1117,1138,1156,1177,1197,1217,1237,1257,1276,1297,1317,1338,1357,1377,1397,1417,1438,1456,1477,1497,1518,1536,1557,1577,1597,1617,1637,1657,1677,1698,1716,1737,1757,1777,1796,1817,1837,1857,1878,1898],"xSR":741.5,"ySR":447.2,"xT1":424.9,"yT1":0,"xT2":1058.1,"yT2":0,"toosoon":0,"cond_shown":"Incongruent","ratio_trial":200,"L_num":14,"L_den":30,"R_num":12,"R_den":18,"correct_side":2,"subjID":"IsauraHernandezGomez23","gender":"1","school":"6","age":"11"},{"start_time":1551800616678,"click_time":1551800618338,"finger_time":1551800618117,"fix_duration":539.4630999318924,"trial":10,"RT":1439,"MT":221,"sideResp":2,"stimulus":[],"xmouse":[785,785,785,785,785,785,785,785,785,785,785,785,785,785,785,785,785,785,785,785,785,785,785,785,785,785,785,785,785,785,785,785,785,785,785,785,785,785,785,785,785,785,785,785,785,785,785,785,785,785,785,785,785,785,785,785,785,785,785,785,785,785,785,785,785,785,785,785,785,785,789,819,861,908,952,978,1009,1022,1030,1038,1050,1055,1059,1062],"ymouse":[472,472,472,472,472,472,472,472,472,472,472,472,472,472,472,472,472,472,472,472,472,472,472,472,472,472,472,472,472,472,472,472,472,472,472,472,472,472,472,472,472,472,472,472,472,472,472,472,472,472,472,472,472,472,472,472,472,472,472,472,472,472,472,472,472,472,472,472,472,472,470,449,418,364,294,244,187,162,148,132,113,107,103,98],"timestamp_mouse":[8,21,50,60,81,101,119,140,160,180,201,221,240,260,280,300,320,340,360,381,400,420,441,460,480,500,520,540,560,581,600,620,640,660,681,701,721,740,761,781,800,820,840,861,881,901,921,941,960,979,1001,1020,1041,1060,1079,1101,1119,1141,1160,1181,1199,1220,1240,1260,1280,1299,1320,1340,1360,1380,1399,1420,1439,1461,1480,1500,1519,1539,1560,1580,1600,1619,1639,1660],"xSR":741.5,"ySR":447.2,"xT1":424.9,"yT1":0,"xT2":1058.1,"yT2":0,"toosoon":0,"cond_shown":"Incongruent","ratio_trial":200,"L_num":7,"L_den":10,"R_num":8,"R_den":16,"correct_side":1,"subjID":"IsauraHernandezGomez23","gender":"1","school":"6","age":"11"},{"start_time":1551800621150,"click_time":1551800624418,"finger_time":1551800623217,"fix_duration":250,"trial":11,"RT":2067,"MT":1201,"sideResp":2,"stimulus":[],"xmouse":[783,783,783,783,783,783,783,783,783,783,783,783,783,783,783,783,783,783,783,783,783,783,783,783,783,783,783,783,783,783,783,783,783,783,783,783,783,783,783,783,783,783,783,783,783,783,783,783,783,783,783,783,783,783,783,783,783,783,783,783,783,783,783,783,783,783,783,783,783,783,783,783,783,783,783,783,783,783,783,783,783,783,783,783,783,783,783,783,783,783,783,783,783,783,783,783,783,783,783,783,784,784,784,784,784,778,771,765,765,765,765,765,765,765,765,765,765,765,765,765,765,765,765,765,765,765,765,765,765,765,765,765,765,765,765,765,765,765,765,765,765,765,765,768,806,865,1015,1035,1050,1065,1080,1092,1117,1128,1137,1148,1159,1159,1159,1159,1158,1152,1147,1140],"ymouse":[509,509,509,509,509,509,509,509,509,509,509,509,509,509,509,509,509,509,509,509,509,509,509,509,509,509,509,509,509,509,509,509,509,509,509,509,509,509,509,509,509,509,509,509,509,509,509,509,509,509,509,509,509,509,509,509,509,509,509,509,509,509,509,509,509,509,509,509,509,509,509,509,509,509,509,509,509,509,509,509,509,509,509,509,509,509,509,509,509,509,509,509,509,509,509,509,509,509,509,509,508,507,454,391,342,306,287,276,276,276,276,276,276,276,276,276,276,276,276,276,276,276,276,276,276,276,276,276,276,276,276,276,276,276,276,276,276,276,276,276,276,276,276,271,259,242,217,215,210,209,207,205,200,196,188,178,149,142,135,124,118,106,100,94],"timestamp_mouse":[7,27,47,68,88,107,128,147,168,189,207,228,248,268,287,307,327,347,367,389,407,427,447,468,488,507,529,547,568,587,608,628,647,668,688,709,728,748,768,788,808,829,849,868,888,908,927,948,967,987,1008,1027,1047,1069,1087,1108,1128,1148,1167,1187,1207,1228,1248,1269,1287,1307,1328,1349,1367,1387,1408,1427,1449,1469,1487,1508,1527,1547,1568,1587,1609,1627,1648,1667,1687,1707,1728,1747,1767,1788,1807,1828,1847,1868,1888,1907,1928,1948,1969,1987,2007,2028,2047,2067,2087,2107,2127,2147,2168,2188,2207,2228,2248,2268,2288,2307,2327,2347,2369,2388,2408,2427,2448,2467,2488,2508,2529,2548,2568,2587,2608,2627,2647,2668,2688,2707,2727,2747,2769,2788,2807,2828,2847,2867,2887,2908,2929,2947,2967,2989,3009,3028,3048,3067,3087,3107,3128,3147,3167,3188,3209,3228,3247,3268],"xSR":741.5,"ySR":447.2,"xT1":424.9,"yT1":0,"xT2":1058.1,"yT2":0,"toosoon":0,"cond_shown":"Incongruent","ratio_trial":300,"L_num":3,"L_den":6,"R_num":4,"R_den":20,"correct_side":1,"subjID":"IsauraHernandezGomez23","gender":"1","school":"6","age":"11"},{"start_time":1551800628241,"click_time":1551800629578,"finger_time":1551800629457,"fix_duration":743.7849942406349,"trial":12,"RT":1216,"MT":121,"sideResp":1,"stimulus":[],"xmouse":[835,835,835,835,835,835,835,835,835,835,835,835,835,835,835,835,835,835,835,835,835,835,835,835,835,835,835,835,835,835,835,835,835,835,835,835,835,835,835,835,835,835,835,835,835,835,835,835,835,835,835,835,835,835,835,835,835,835,835,833,823,799,740,699,650,586,520],"ymouse":[476,476,476,476,476,476,476,476,476,476,476,476,476,476,476,476,476,476,476,476,476,476,476,476,476,476,476,476,476,476,476,476,476,476,476,476,476,476,476,476,476,476,476,476,476,476,476,476,476,476,476,476,476,476,476,476,476,476,476,471,431,374,261,206,142,74,13],"timestamp_mouse":[16,41,56,78,98,116,138,157,176,196,218,238,257,277,297,316,338,356,376,397,416,437,458,476,497,517,537,556,576,598,617,637,657,676,698,717,736,757,776,798,816,836,857,876,896,918,936,957,977,996,1016,1037,1057,1077,1097,1118,1136,1157,1178,1196,1216,1237,1256,1277,1296,1316,1337],"xSR":741.5,"ySR":447.2,"xT1":424.9,"yT1":0,"xT2":1058.1,"yT2":0,"toosoon":0,"cond_shown":"Congruent","ratio_trial":200,"L_num":7,"L_den":21,"R_num":2,"R_den":15,"correct_side":1,"subjID":"IsauraHernandezGomez23","gender":"1","school":"6","age":"11"},{"start_time":1551800632176,"click_time":1551800634139,"finger_time":1551800633598,"fix_duration":1337.3389674840319,"trial":13,"RT":1422,"MT":541,"sideResp":1,"stimulus":[],"xmouse":[771,771,771,771,771,771,771,771,771,771,771,771,771,772,772,772,772,772,772,772,772,772,772,772,772,772,772,772,772,772,772,772,772,772,772,772,772,772,772,772,772,772,772,772,772,772,772,772,772,772,772,772,772,772,772,772,772,772,772,772,772,772,772,772,772,772,772,772,772,771,765,733,688,649,618,614,614,614,614,614,614,613,605,588,578,561,549,540,533,526,525,525,525,525,525,525,525,525,523],"ymouse":[486,486,486,486,486,486,486,486,486,486,486,486,486,486,486,486,486,486,486,486,486,486,486,486,486,486,486,486,486,486,486,486,486,486,486,486,486,486,486,486,486,486,486,486,486,486,486,486,486,486,486,486,486,486,486,486,486,486,486,486,486,486,486,486,486,486,486,486,486,478,467,372,265,171,100,90,89,89,89,88,88,88,88,88,89,92,95,96,96,96,96,96,96,96,96,96,96,96,96],"timestamp_mouse":[9,21,42,61,83,102,121,142,161,181,202,221,243,262,281,301,322,342,361,382,401,422,442,461,482,502,523,541,561,581,603,621,641,662,683,701,721,742,762,783,801,822,842,862,882,903,921,941,961,981,1002,1021,1041,1062,1082,1102,1122,1142,1163,1181,1202,1222,1242,1263,1281,1302,1322,1342,1362,1382,1402,1421,1442,1461,1482,1501,1521,1541,1562,1581,1602,1621,1643,1662,1683,1702,1721,1742,1763,1781,1801,1821,1842,1861,1882,1901,1921,1942,1962],"xSR":741.5,"ySR":447.2,"xT1":424.9,"yT1":0,"xT2":1058.1,"yT2":0,"toosoon":0,"cond_shown":"Incongruent","ratio_trial":300,"L_num":4,"L_den":20,"R_num":2,"R_den":4,"correct_side":2,"subjID":"IsauraHernandezGomez23","gender":"1","school":"6","age":"11"},{"start_time":1551800644118,"click_time":1551800645638,"finger_time":1551800645397,"fix_duration":1038.0826899114033,"trial":14,"RT":1279,"MT":241,"sideResp":1,"stimulus":[],"xmouse":[779,779,779,779,779,779,779,779,779,779,779,779,779,779,779,779,779,779,779,779,779,779,779,779,779,779,779,779,779,779,779,779,779,779,779,779,779,779,779,779,779,779,779,779,779,779,779,779,779,779,779,779,779,777,776,775,774,774,774,774,774,774,774,770,762,747,716,684,623,566,558,553,549,541,536,529,523],"ymouse":[487,487,487,487,487,487,487,487,487,487,487,487,487,487,487,487,487,487,487,487,487,487,487,487,487,487,487,487,487,487,487,487,487,487,487,487,487,487,487,487,487,487,487,487,487,487,487,487,487,487,483,481,477,472,467,465,463,462,462,462,462,462,462,458,447,427,383,339,251,169,149,137,129,113,102,92,82],"timestamp_mouse":[8,21,42,61,80,100,119,140,160,179,200,219,239,259,279,301,319,339,361,379,400,421,440,460,481,501,519,540,560,580,599,621,639,660,680,699,720,741,759,779,800,819,840,859,880,899,920,941,961,980,1000,1019,1040,1059,1079,1101,1120,1140,1159,1180,1201,1219,1241,1260,1279,1299,1320,1339,1359,1379,1399,1421,1439,1460,1479,1500,1520],"xSR":741.5,"ySR":447.2,"xT1":424.9,"yT1":0,"xT2":1058.1,"yT2":0,"toosoon":0,"cond_shown":"Incongruent","ratio_trial":100,"L_num":6,"L_den":12,"R_num":3,"R_den":5,"correct_side":2,"subjID":"IsauraHernandezGomez23","gender":"1","school":"6","age":"11"},{"start_time":1551800651679,"click_time":1551800654738,"finger_time":1551800654257,"fix_duration":1379.9991746705302,"trial":15,"RT":2578,"MT":481,"sideResp":2,"stimulus":[],"xmouse":[782,782,782,782,782,782,782,782,782,782,782,782,782,782,782,782,782,782,782,782,782,782,782,782,782,782,782,782,782,782,782,782,782,782,782,782,782,782,782,782,782,782,782,782,782,782,782,782,782,782,782,782,782,782,782,782,782,782,782,782,782,782,782,782,782,782,782,782,782,782,782,782,782,782,782,782,782,782,782,782,782,782,782,782,782,782,782,782,782,782,782,782,782,782,782,782,782,782,782,782,782,782,782,782,782,782,782,782,782,782,782,782,782,782,782,782,782,782,782,782,782,782,782,782,782,790,798,824,912,992,1174,1265,1341,1397,1414,1413,1408,1404,1396,1380,1369,1357,1351,1350,1350,1349,1345,1334,1320,1262,1216,1172,1144],"ymouse":[513,513,513,513,513,513,513,513,513,513,513,513,513,513,513,513,513,513,513,513,513,513,513,513,513,513,513,513,513,513,513,513,513,513,513,513,513,513,513,513,513,513,513,513,513,513,513,513,513,513,513,513,513,513,513,513,513,513,513,513,513,513,513,513,513,513,513,513,513,513,513,513,513,513,513,513,513,513,513,513,513,513,513,513,513,513,513,513,513,513,513,513,513,513,513,513,513,513,513,513,513,513,513,513,513,513,513,513,513,513,513,513,513,513,513,513,513,513,513,513,513,513,513,513,513,509,505,489,435,392,320,285,250,217,179,172,162,156,142,118,108,98,92,90,88,85,80,73,66,52,48,48,48],"timestamp_mouse":[18,39,58,78,100,119,139,159,179,199,219,238,259,278,299,318,338,359,378,398,420,438,459,480,500,519,538,558,579,599,620,639,659,679,699,720,738,759,778,799,819,838,859,878,899,919,939,960,979,998,1018,1039,1059,1078,1098,1118,1139,1158,1179,1200,1218,1239,1259,1278,1299,1319,1339,1358,1378,1398,1419,1440,1459,1479,1500,1519,1540,1558,1578,1599,1618,1639,1659,1678,1699,1719,1739,1758,1779,1799,1820,1839,1858,1879,1900,1919,1939,1959,1979,1998,2020,2038,2059,2079,2098,2119,2139,2160,2179,2198,2219,2240,2259,2280,2299,2319,2339,2360,2379,2399,2418,2440,2458,2478,2499,2518,2540,2558,2578,2600,2618,2638,2658,2678,2699,2718,2738,2758,2778,2799,2818,2839,2858,2878,2900,2918,2938,2959,2979,2999,3018,3038,3058],"xSR":741.5,"ySR":447.2,"xT1":424.9,"yT1":0,"xT2":1058.1,"yT2":0,"toosoon":0,"cond_shown":"Incongruent","ratio_trial":100,"L_num":17,"L_den":30,"R_num":10,"R_den":15,"correct_side":2,"subjID":"IsauraHernandezGomez23","gender":"1","school":"6","age":"11"},{"start_time":1551800658229,"click_time":1551800660457,"finger_time":1551800659739,"fix_duration":1111.1706917048657,"trial":16,"RT":1510,"MT":718,"sideResp":1,"stimulus":[],"xmouse":[795,795,795,795,795,795,795,795,795,795,795,795,795,795,795,795,795,795,795,795,795,795,795,795,795,795,795,795,795,795,795,795,795,795,795,795,795,795,795,795,795,795,795,795,795,795,795,795,795,795,795,795,795,795,795,795,795,795,795,795,795,795,795,795,795,795,795,795,795,795,795,795,795,791,784,779,766,698,664,625,619,609,606,593,582,558,537,533,533,533,533,533,533,533,533,533,533,533,533,533,533,533,533,533,533,533,533,532,532,531,529,519],"ymouse":[493,493,493,493,493,493,493,493,493,493,493,493,493,493,493,493,493,493,493,493,493,493,493,493,493,493,493,493,493,493,493,493,493,493,493,493,493,493,493,493,493,493,493,493,493,493,493,493,493,493,493,493,493,493,493,493,493,493,493,493,493,493,493,493,493,493,493,493,493,493,493,490,485,468,453,435,400,266,210,150,135,114,108,92,81,65,54,51,51,51,51,51,51,51,51,51,51,51,51,51,51,51,51,51,51,51,51,51,51,51,51,51],"timestamp_mouse":[9,36,49,68,89,108,128,149,168,188,209,228,248,269,289,310,329,350,369,389,410,429,448,468,489,509,528,550,568,588,609,628,649,668,688,708,728,748,768,789,808,830,848,868,888,909,928,948,968,990,1008,1029,1048,1068,1088,1108,1128,1149,1168,1188,1210,1240,1249,1270,1290,1310,1328,1349,1370,1389,1409,1430,1448,1469,1488,1510,1529,1549,1568,1589,1609,1628,1648,1668,1689,1708,1729,1749,1770,1789,1809,1828,1850,1868,1888,1908,1928,1950,1970,1990,2008,2028,2050,2068,2089,2108,2129,2150,2168,2189,2208,2228],"xSR":741.5,"ySR":447.2,"xT1":424.9,"yT1":0,"xT2":1058.1,"yT2":0,"toosoon":0,"cond_shown":"Incongruent","ratio_trial":200,"L_num":4,"L_den":5,"R_num":6,"R_den":10,"correct_side":1,"subjID":"IsauraHernandezGomez23","gender":"1","school":"6","age":"11"},{"start_time":1551800662530,"click_time":1551800663977,"finger_time":1551800663878,"fix_duration":432.82343238056154,"trial":17,"RT":1348,"MT":99,"sideResp":1,"stimulus":[],"xmouse":[794,794,794,794,795,795,795,795,795,795,795,795,795,795,795,795,795,795,795,795,795,795,795,795,795,795,795,795,795,795,795,795,795,795,795,795,795,795,795,795,795,795,795,796,796,796,796,796,796,796,796,796,796,796,796,796,796,796,796,796,796,796,796,796,794,791,780,754,622,543,479,451,443],"ymouse":[499,499,499,499,498,498,498,498,498,498,498,498,498,498,498,498,498,498,498,498,498,498,498,498,498,498,497,496,495,495,495,495,495,495,495,495,495,495,495,494,494,494,493,491,491,491,491,490,490,490,490,490,490,489,489,489,489,489,489,489,489,489,488,485,480,476,456,417,278,198,133,104,96],"timestamp_mouse":[9,36,48,68,88,107,128,148,167,188,208,229,247,269,287,308,328,347,368,388,407,428,447,469,488,507,528,548,567,588,607,628,647,667,687,708,728,749,768,787,808,828,847,867,887,907,928,948,969,987,1007,1028,1048,1067,1087,1107,1128,1149,1167,1187,1208,1227,1248,1267,1288,1307,1328,1348,1367,1387,1407,1427,1447],"xSR":741.5,"ySR":447.2,"xT1":424.9,"yT1":0,"xT2":1058.1,"yT2":0,"toosoon":0,"cond_shown":"Congruent","ratio_trial":200,"L_num":7,"L_den":21,"R_num":2,"R_den":15,"correct_side":1,"subjID":"IsauraHernandezGomez23","gender":"1","school":"6","age":"11"},{"start_time":1551800673242,"click_time":1551800675638,"finger_time":1551800674978,"fix_duration":723.204433681306,"trial":18,"RT":1736,"MT":660,"sideResp":1,"stimulus":[],"xmouse":[778,778,778,778,778,778,778,778,778,778,778,778,778,778,778,778,778,778,778,778,778,778,778,778,778,778,778,778,778,778,778,778,778,778,778,778,778,778,778,778,778,778,778,778,778,778,778,778,778,778,778,778,778,778,778,778,778,778,778,778,778,778,778,778,778,778,778,778,778,778,778,778,778,778,778,778,778,778,778,778,778,778,778,774,770,759,735,681,654,641,641,641,641,641,641,641,641,641,641,641,641,641,641,641,641,641,641,641,641,641,641,641,641,641,641,641,641,641,504,504],"ymouse":[500,500,500,500,500,500,500,500,500,500,500,500,500,500,500,500,500,500,500,500,500,500,500,500,500,500,500,500,500,500,500,500,500,500,500,500,500,500,500,500,500,500,500,500,500,500,500,500,500,500,500,500,500,500,500,500,500,500,500,500,500,500,500,500,500,500,500,500,500,500,500,500,500,500,500,500,500,500,500,500,500,500,500,498,487,450,369,174,85,39,39,39,39,39,39,39,39,39,39,39,39,39,39,39,39,39,39,39,39,39,39,39,39,39,39,39,39,39,0,5],"timestamp_mouse":[16,35,55,75,95,116,136,157,175,196,216,235,256,276,295,316,335,356,376,395,416,436,455,476,497,515,535,556,576,596,616,637,655,675,696,716,737,755,775,797,815,836,857,876,897,916,936,956,976,997,1017,1036,1056,1075,1096,1115,1136,1155,1176,1195,1217,1235,1255,1276,1296,1315,1336,1355,1376,1395,1415,1435,1457,1475,1497,1516,1535,1555,1577,1595,1616,1635,1657,1675,1695,1715,1736,1755,1775,1795,1816,1835,1856,1875,1896,1917,1935,1956,1975,1995,2016,2037,2056,2077,2096,2116,2136,2156,2176,2195,2215,2236,2256,2275,2296,2315,2336,2355,2376,2395],"xSR":741.5,"ySR":447.2,"xT1":424.9,"yT1":0,"xT2":1058.1,"yT2":0,"toosoon":0,"cond_shown":"Congruent","ratio_trial":300,"L_num":11,"L_den":22,"R_num":1,"R_den":5,"correct_side":1,"subjID":"IsauraHernandezGomez23","gender":"1","school":"6","age":"11"},{"start_time":1551800678550,"click_time":1551800680897,"finger_time":1551800680256,"fix_duration":1411.0750721641339,"trial":19,"RT":1706,"MT":641,"sideResp":1,"stimulus":[],"xmouse":[780,780,780,780,780,780,780,780,780,780,780,780,780,780,780,780,780,780,780,780,780,780,780,780,780,780,780,780,780,780,780,780,780,780,780,780,780,780,780,780,780,780,780,780,780,780,780,780,780,780,780,780,780,780,780,780,780,780,780,780,780,780,780,780,780,780,780,780,780,780,780,780,780,780,780,780,780,780,780,780,780,780,780,780,775,735,665,621,590,590,590,590,590,590,590,590,590,590,590,590,590,590,590,590,590,590,590,590,590,590,590,590,590,590,590,590,590,476],"ymouse":[485,485,485,485,485,485,485,485,485,485,485,485,485,485,485,485,485,485,485,485,485,485,485,485,485,485,485,485,485,485,485,485,485,485,485,485,485,485,485,485,485,485,485,485,485,485,485,485,485,485,485,485,485,485,485,485,485,485,485,485,485,485,485,485,485,485,485,485,485,485,485,485,485,485,485,485,485,485,485,485,485,485,485,481,467,366,207,105,52,52,52,52,52,52,52,52,52,52,52,52,52,52,52,52,52,52,52,52,52,52,52,52,52,52,52,52,52,3],"timestamp_mouse":[8,26,47,67,86,106,126,148,166,187,207,226,246,267,286,306,326,347,367,387,407,426,446,467,486,506,526,547,567,586,607,627,647,666,687,706,726,746,766,786,806,827,847,867,887,907,926,947,967,987,1006,1026,1047,1066,1086,1106,1126,1147,1166,1187,1206,1226,1247,1267,1286,1307,1326,1346,1366,1387,1406,1427,1447,1466,1486,1506,1527,1547,1566,1586,1607,1626,1647,1666,1687,1706,1728,1746,1766,1788,1806,1827,1848,1868,1886,1907,1927,1947,1967,1986,2006,2027,2047,2067,2086,2107,2126,2147,2166,2186,2207,2227,2247,2267,2287,2306,2326,2347],"xSR":741.5,"ySR":447.2,"xT1":424.9,"yT1":0,"xT2":1058.1,"yT2":0,"toosoon":0,"cond_shown":"Incongruent","ratio_trial":100,"L_num":10,"L_den":25,"R_num":8,"R_den":16,"correct_side":2,"subjID":"IsauraHernandezGomez23","gender":"1","school":"6","age":"11"},{"start_time":1551800685326,"click_time":1551800687816,"finger_time":1551800687697,"fix_duration":628.531287216488,"trial":20,"RT":2371,"MT":119,"sideResp":2,"stimulus":[],"xmouse":[780,780,780,780,780,780,780,780,780,780,780,780,780,780,780,780,780,780,780,780,780,780,780,780,780,780,780,780,780,780,780,780,780,780,780,780,780,780,780,780,780,780,780,780,780,780,780,780,780,780,780,780,780,780,780,780,780,780,780,780,780,780,780,780,780,780,780,780,780,780,780,780,780,780,780,780,780,780,780,780,780,780,780,780,780,780,780,780,780,780,780,780,780,780,780,780,780,780,780,780,780,780,780,780,780,780,780,780,780,780,780,780,780,781,782,790,795,817,863,899,941,981,1031,1119,1149],"ymouse":[496,496,496,496,496,496,496,496,496,496,496,496,496,496,496,496,496,496,496,496,496,496,496,496,496,496,496,496,496,496,496,496,496,496,496,496,496,496,496,496,496,496,496,496,496,496,496,496,496,496,496,496,496,496,496,496,496,496,496,496,496,496,496,496,496,496,496,496,496,496,496,496,496,496,496,496,496,496,496,496,496,496,496,496,496,496,496,496,496,496,496,496,496,496,496,496,496,496,496,496,496,496,496,496,496,496,496,496,496,496,496,496,496,495,493,484,479,457,397,360,312,264,205,111,84],"timestamp_mouse":[11,42,51,70,90,111,131,150,171,191,211,230,250,271,290,311,330,351,371,390,410,430,452,471,492,510,531,550,570,591,611,630,651,671,690,711,730,750,771,790,810,830,851,871,890,911,931,950,970,991,1011,1030,1051,1071,1090,1111,1130,1150,1170,1191,1211,1230,1250,1270,1290,1310,1331,1351,1370,1390,1410,1431,1450,1470,1490,1510,1530,1551,1570,1591,1611,1631,1650,1670,1691,1712,1730,1751,1770,1791,1810,1830,1850,1870,1890,1910,1930,1951,1972,1990,2010,2030,2050,2071,2091,2110,2130,2150,2170,2191,2211,2230,2250,2271,2291,2310,2330,2350,2371,2391,2410,2430,2451,2470,2490],"xSR":741.5,"ySR":447.2,"xT1":424.9,"yT1":0,"xT2":1058.1,"yT2":0,"toosoon":0,"cond_shown":"Congruent","ratio_trial":300,"L_num":1,"L_den":5,"R_num":3,"R_den":6,"correct_side":2,"subjID":"IsauraHernandezGomez23","gender":"1","school":"6","age":"11"},{"start_time":1551800690942,"click_time":1551800694496,"finger_time":1551800693896,"fix_duration":684.9589775610738,"trial":21,"RT":2954,"MT":600,"sideResp":2,"stimulus":[],"xmouse":[802,802,802,802,802,802,802,802,802,802,802,802,802,802,802,802,802,802,802,802,802,802,802,802,802,802,802,802,802,802,802,802,802,802,802,802,802,802,802,802,802,802,802,802,802,802,802,802,802,802,802,802,802,802,802,802,802,802,802,802,802,802,802,802,802,802,802,802,802,802,802,802,802,802,802,802,802,802,802,802,802,802,802,802,802,802,802,802,802,802,802,802,802,802,802,802,802,802,802,802,802,802,800,797,791,780,773,761,759,759,759,759,759,759,759,759,759,759,759,759,759,759,759,759,759,759,759,759,759,759,759,759,759,759,759,759,759,759,759,759,759,759,759,759,761,769,790,849,869,885,907,924,953,963,970,987,994,997,1000,1002,1002,1005,1019,1027,1039,1048,1053,1059,1061,1063,1066,1079,1092,1097,1102,1105,1108,1114],"ymouse":[498,498,498,498,498,498,498,498,498,498,498,498,498,498,498,498,498,498,498,498,498,498,498,498,498,498,498,498,498,498,498,498,498,498,498,498,498,498,498,498,498,498,498,498,498,498,498,498,498,498,498,498,498,498,498,498,498,498,498,498,498,498,498,498,498,498,498,498,498,498,498,498,498,498,498,498,498,498,498,498,498,498,498,498,498,498,498,498,498,498,498,498,498,498,498,498,498,498,498,498,498,498,498,498,498,498,498,499,499,499,499,499,499,499,499,499,499,499,499,499,499,499,499,499,499,499,499,499,499,499,499,499,499,499,499,499,499,499,499,499,499,499,499,499,498,493,480,427,404,381,353,328,289,275,267,253,248,245,241,238,235,230,213,207,197,189,183,175,170,167,162,148,139,133,125,118,112,99],"timestamp_mouse":[15,34,54,74,94,114,135,154,174,194,214,234,254,274,294,315,334,354,374,394,415,435,454,474,494,514,535,554,574,594,614,634,656,674,694,714,734,755,774,794,814,835,854,875,894,914,935,954,974,994,1015,1034,1055,1075,1095,1114,1134,1155,1174,1194,1214,1234,1254,1274,1294,1315,1335,1355,1374,1394,1415,1434,1455,1474,1495,1515,1534,1554,1575,1595,1615,1635,1655,1675,1695,1714,1735,1755,1774,1795,1815,1834,1854,1874,1894,1914,1935,1954,1974,1995,2014,2034,2055,2074,2096,2114,2134,2154,2175,2194,2214,2234,2255,2274,2295,2315,2335,2354,2374,2394,2414,2434,2455,2474,2495,2515,2534,2554,2575,2595,2614,2635,2656,2674,2694,2716,2735,2754,2776,2794,2814,2835,2855,2874,2894,2915,2934,2954,2974,2994,3014,3035,3055,3075,3094,3114,3134,3154,3175,3194,3215,3234,3254,3274,3294,3314,3334,3354,3375,3394,3414,3435,3454,3475,3494,3515,3534,3554],"xSR":741.5,"ySR":447.2,"xT1":424.9,"yT1":0,"xT2":1058.1,"yT2":0,"toosoon":0,"cond_shown":"Incongruent","ratio_trial":100,"L_num":1,"L_den":2,"R_num":8,"R_den":20,"correct_side":1,"subjID":"IsauraHernandezGomez23","gender":"1","school":"6","age":"11"},{"start_time":1551800698269,"click_time":1551800700577,"finger_time":1551800699896,"fix_duration":250,"trial":22,"RT":1627,"MT":681,"sideResp":1,"stimulus":[],"xmouse":[778,778,778,778,778,778,778,778,778,778,778,778,778,778,778,778,778,778,778,778,778,778,778,778,778,778,778,778,778,778,778,778,778,778,778,778,778,778,778,778,778,778,778,778,778,778,778,778,778,778,778,778,778,778,778,778,778,778,778,778,778,778,778,778,778,778,778,778,778,778,778,778,778,778,778,778,778,778,778,778,778,774,754,733,720,720,720,719,719,719,719,718,706,682,654,622,619,617,608,585,514,443,435,435,438,448,449,449,449,449,449,449,451,453,454,456],"ymouse":[506,506,506,506,506,506,506,506,506,506,506,506,506,506,506,506,506,506,506,506,506,506,506,506,506,506,506,506,506,506,506,506,506,506,506,506,506,506,506,506,506,506,506,506,506,506,506,506,506,506,506,506,506,506,506,506,506,506,506,506,506,506,506,506,506,506,506,506,506,506,506,506,506,506,506,506,506,506,506,506,503,444,371,303,242,213,212,210,210,210,210,210,210,210,207,202,200,199,193,183,158,126,120,120,115,110,109,109,109,109,109,109,106,105,102,95],"timestamp_mouse":[10,41,47,68,87,108,127,149,168,187,207,228,247,267,288,307,328,348,368,388,408,427,448,467,488,508,528,547,568,587,607,627,649,668,688,708,729,747,768,787,808,828,848,868,888,908,927,947,967,987,1008,1027,1047,1068,1087,1108,1128,1147,1168,1188,1208,1227,1248,1267,1288,1307,1327,1347,1368,1388,1408,1428,1447,1468,1487,1508,1528,1547,1567,1588,1607,1627,1647,1668,1687,1709,1727,1747,1767,1787,1808,1827,1848,1867,1887,1908,1927,1947,1967,1988,2007,2027,2048,2067,2087,2107,2127,2147,2168,2188,2208,2228,2247,2267,2287,2308],"xSR":741.5,"ySR":447.2,"xT1":424.9,"yT1":0,"xT2":1058.1,"yT2":0,"toosoon":0,"cond_shown":"Incongruent","ratio_trial":200,"L_num":4,"L_den":5,"R_num":6,"R_den":10,"correct_side":1,"subjID":"IsauraHernandezGomez23","gender":"1","school":"6","age":"11"},{"start_time":1551800701647,"click_time":1551800703538,"finger_time":1551800703196,"fix_duration":250,"trial":23,"RT":1549,"MT":342,"sideResp":2,"stimulus":[],"xmouse":[786,786,786,786,786,786,786,786,786,786,786,786,786,786,786,786,786,786,786,786,786,786,786,786,786,786,786,786,786,786,786,786,786,786,786,786,786,786,786,786,786,786,786,786,786,786,786,786,786,786,786,786,786,786,786,786,786,786,786,786,786,786,786,786,786,786,786,786,786,786,786,786,786,786,786,790,822,848,878,914,969,987,1026,1029,1031,1032,1041,1054,1058,1065,1067,1072,1076,1082,1088],"ymouse":[507,507,507,507,507,507,507,507,507,507,507,507,507,507,507,507,507,507,507,507,507,507,507,507,507,507,507,507,507,507,507,507,507,507,507,507,507,507,507,507,507,507,507,507,507,507,507,507,507,507,507,507,507,507,507,507,507,507,507,507,507,507,507,507,507,507,507,507,507,507,507,507,507,507,506,502,458,422,378,328,260,238,187,182,176,172,156,139,133,122,118,112,107,101,97],"timestamp_mouse":[9,37,50,69,89,110,129,149,169,189,209,229,250,269,289,309,329,349,369,389,409,429,449,470,491,509,529,549,569,590,610,630,650,669,689,709,729,749,770,790,809,829,849,869,889,910,929,950,969,989,1009,1031,1049,1070,1091,1110,1129,1150,1169,1189,1209,1229,1250,1269,1289,1310,1329,1349,1369,1389,1410,1430,1449,1469,1489,1509,1530,1549,1571,1589,1609,1629,1649,1670,1689,1709,1730,1749,1769,1789,1809,1830,1849,1869,1891],"xSR":741.5,"ySR":447.2,"xT1":424.9,"yT1":0,"xT2":1058.1,"yT2":0,"toosoon":0,"cond_shown":"Incongruent","ratio_trial":200,"L_num":4,"L_den":30,"R_num":1,"R_den":3,"correct_side":2,"subjID":"IsauraHernandezGomez23","gender":"1","school":"6","age":"11"},{"start_time":1551800705040,"click_time":1551800706856,"finger_time":1551800706457,"fix_duration":461.8244092908923,"trial":24,"RT":1417,"MT":399,"sideResp":2,"stimulus":[],"xmouse":[793,793,793,793,793,793,793,793,793,793,793,793,793,793,793,793,793,793,793,793,793,793,793,793,793,793,793,793,793,793,793,793,793,793,793,793,793,793,793,793,793,793,793,793,793,793,793,793,793,793,793,793,793,793,793,793,793,793,793,793,793,793,793,793,793,793,793,793,784,764,735,709,706,706,706,706,706,710,722,743,769,832,872,921,974,1039,1101,1113,1117,1118,1118],"ymouse":[503,503,503,503,503,503,503,503,503,503,503,503,503,503,503,503,503,503,503,503,503,503,503,503,503,503,503,503,503,503,503,503,503,503,503,503,503,503,503,503,503,503,503,503,503,503,503,503,503,503,503,503,503,503,503,503,503,503,503,503,503,503,503,503,503,503,503,503,495,473,449,436,435,435,435,435,434,425,417,412,409,401,393,379,358,318,228,182,141,100,26],"timestamp_mouse":[16,36,56,77,96,116,137,157,176,197,216,237,256,276,296,316,336,356,376,396,417,437,456,476,497,516,537,557,576,596,616,637,656,676,696,716,737,756,776,797,817,836,858,877,896,916,936,956,976,996,1016,1037,1056,1076,1096,1116,1136,1156,1176,1197,1218,1236,1257,1277,1296,1317,1336,1356,1377,1398,1417,1437,1456,1477,1496,1516,1537,1556,1576,1596,1617,1638,1656,1677,1697,1717,1737,1756,1777,1796,1816],"xSR":741.5,"ySR":447.2,"xT1":424.9,"yT1":0,"xT2":1058.1,"yT2":0,"toosoon":0,"cond_shown":"Incongruent","ratio_trial":300,"L_num":4,"L_den":20,"R_num":2,"R_den":4,"correct_side":2,"subjID":"IsauraHernandezGomez23","gender":"1","school":"6","age":"11"},{"start_time":1551800709163,"click_time":1551800711077,"finger_time":1551800710636,"fix_duration":1026.3183011138813,"trial":25,"RT":1473,"MT":441,"sideResp":1,"stimulus":[],"xmouse":[818,818,818,818,818,818,818,818,818,818,818,818,818,818,818,818,818,818,818,818,818,818,818,818,818,818,818,818,818,818,818,818,818,818,818,818,818,818,818,818,818,818,818,818,818,818,818,818,818,818,818,818,818,818,818,818,818,818,818,818,818,818,818,818,818,818,818,818,818,818,818,816,811,796,758,716,706,702,701,701,700,698,690,682,669,664,631,614,599,592,580,571,558,539,505,481],"ymouse":[484,484,484,484,484,484,484,484,484,484,484,484,484,484,484,484,484,484,484,484,484,484,484,484,484,484,484,484,484,484,484,484,484,484,484,484,484,484,484,484,484,484,484,484,484,484,484,484,484,484,484,484,484,484,484,484,484,484,484,484,484,484,484,484,484,484,484,484,484,484,484,481,465,421,336,259,244,236,234,234,233,230,227,221,215,211,188,175,164,157,148,142,132,120,100,84],"timestamp_mouse":[14,33,62,73,93,114,133,153,174,193,213,233,254,273,294,313,334,353,374,394,413,433,454,473,493,514,533,554,574,593,613,634,653,673,693,713,735,753,773,795,814,833,854,873,894,914,934,955,973,994,1014,1033,1053,1074,1093,1113,1135,1154,1173,1194,1214,1234,1254,1273,1295,1315,1333,1354,1373,1394,1413,1433,1453,1473,1493,1514,1533,1554,1574,1593,1615,1633,1653,1673,1694,1713,1733,1753,1773,1793,1814,1833,1853,1873,1894,1914],"xSR":741.5,"ySR":447.2,"xT1":424.9,"yT1":0,"xT2":1058.1,"yT2":0,"toosoon":0,"cond_shown":"Incongruent","ratio_trial":300,"L_num":8,"L_den":10,"R_num":9,"R_den":18,"correct_side":1,"subjID":"IsauraHernandezGomez23","gender":"1","school":"6","age":"11"},{"start_time":1551800713214,"click_time":1551800715876,"finger_time":1551800715716,"fix_duration":957.1202266687897,"trial":26,"RT":2502,"MT":160,"sideResp":1,"stimulus":[],"xmouse":[776,776,776,776,776,776,776,776,776,776,776,776,776,776,776,776,776,776,776,776,776,776,776,776,776,776,776,776,776,776,776,776,776,776,776,776,776,776,776,776,776,776,776,776,776,776,776,776,776,776,776,776,776,776,776,776,776,776,776,776,776,776,776,776,776,776,776,776,776,776,776,776,776,776,776,776,776,776,776,776,776,776,776,776,776,776,776,776,776,782,784,790,795,803,803,803,803,803,801,797,794,793,793,793,793,793,793,793,793,793,793,792,792,794,794,799,818,825,825,825,825,825,825,827,809,734,656,611,589,584,578,568,537,477],"ymouse":[496,496,496,496,496,496,496,496,496,496,496,496,496,496,496,496,496,496,496,496,496,496,496,496,496,496,496,496,496,496,496,496,496,496,496,496,496,496,496,496,496,496,496,496,496,496,496,496,496,496,496,496,496,496,496,496,496,496,496,496,496,496,496,496,496,496,496,496,496,496,496,496,496,496,496,496,496,496,496,496,496,496,496,496,496,496,496,496,496,492,490,484,479,471,471,471,471,472,474,481,485,487,487,487,487,487,487,487,487,487,487,492,494,495,495,496,494,492,492,492,492,492,492,491,474,411,322,264,228,214,194,176,129,22],"timestamp_mouse":[8,22,42,63,82,104,122,143,162,182,202,222,243,263,282,302,323,342,363,383,402,423,442,462,482,502,523,544,563,583,602,623,644,663,682,703,722,742,762,783,804,822,843,862,882,902,923,944,962,983,1002,1023,1042,1062,1082,1102,1122,1142,1163,1183,1202,1222,1243,1263,1283,1302,1322,1342,1362,1382,1403,1423,1442,1462,1482,1503,1522,1542,1562,1582,1603,1623,1642,1663,1683,1703,1722,1742,1762,1782,1803,1822,1843,1864,1883,1902,1923,1942,1962,1982,2002,2024,2042,2063,2083,2103,2123,2142,2163,2184,2203,2222,2242,2262,2282,2302,2323,2342,2362,2383,2403,2422,2443,2462,2483,2502,2523,2543,2564,2582,2604,2622,2642,2662],"xSR":741.5,"ySR":447.2,"xT1":424.9,"yT1":0,"xT2":1058.1,"yT2":0,"toosoon":0,"cond_shown":"Incongruent","ratio_trial":200,"L_num":1,"L_den":2,"R_num":3,"R_den":10,"correct_side":1,"subjID":"IsauraHernandezGomez23","gender":"1","school":"6","age":"11"},{"start_time":1551800717823,"click_time":1551800719596,"finger_time":1551800719276,"fix_duration":844.8873657617669,"trial":27,"RT":1453,"MT":320,"sideResp":1,"stimulus":[],"xmouse":[788,787,784,784,784,784,784,784,784,784,784,784,784,784,784,784,784,784,784,784,784,784,784,784,784,784,784,784,784,784,784,784,784,784,784,784,784,784,784,784,784,784,784,784,784,784,783,782,782,782,782,782,783,783,783,783,783,783,783,783,783,784,784,784,784,784,784,784,784,784,784,774,713,677,641,614,604,598,597,594,591,586,576,575,574,571,561,531,510],"ymouse":[523,524,526,526,526,526,526,526,526,526,526,526,526,526,526,526,526,526,526,526,526,526,526,526,526,526,526,526,526,526,526,526,526,526,526,526,526,526,526,526,526,526,526,526,526,526,527,527,527,527,527,527,527,527,527,527,527,527,527,527,527,527,527,527,527,527,527,527,527,527,517,473,318,237,148,91,66,45,37,29,24,18,10,10,10,10,12,16,19],"timestamp_mouse":[14,34,54,74,93,113,134,154,174,193,213,233,253,273,293,313,334,353,373,393,414,434,453,473,493,514,534,554,574,593,613,634,653,674,693,714,734,754,773,794,813,833,853,874,893,914,934,953,973,993,1013,1033,1054,1074,1093,1113,1133,1153,1174,1193,1215,1234,1253,1273,1294,1313,1334,1354,1373,1393,1413,1433,1453,1473,1493,1513,1533,1554,1573,1593,1613,1633,1654,1673,1693,1713,1733,1754,1773],"xSR":741.5,"ySR":447.2,"xT1":424.9,"yT1":0,"xT2":1058.1,"yT2":0,"toosoon":0,"cond_shown":"Congruent","ratio_trial":300,"L_num":20,"L_den":25,"R_num":9,"R_den":18,"correct_side":1,"subjID":"IsauraHernandezGomez23","gender":"1","school":"6","age":"11"},{"start_time":1551800723536,"click_time":1551800725777,"finger_time":1551800725237,"fix_duration":719.5186346913171,"trial":28,"RT":1701,"MT":540,"sideResp":2,"stimulus":[],"xmouse":[788,788,788,788,788,788,788,788,788,788,788,788,788,788,788,788,788,788,788,788,788,788,788,788,788,788,788,788,788,788,788,788,788,788,788,788,788,788,788,788,788,788,788,788,788,788,788,788,788,788,788,788,788,788,788,788,788,788,788,788,788,788,788,788,788,788,788,788,788,788,788,788,788,788,788,788,788,788,788,788,788,788,788,799,826,837,881,938,947,951,955,961,977,984,988,993,994,994,994,994,994,994,994,994,994,994,1000,1012,1019,1026,1034,1044,1059],"ymouse":[498,498,498,498,498,498,498,498,498,498,498,498,498,498,498,498,498,498,498,498,498,498,498,498,498,498,498,498,498,498,498,498,498,498,498,498,498,498,498,498,498,498,498,498,498,498,498,498,498,498,498,498,498,498,498,498,498,498,498,498,498,498,498,498,498,498,498,498,498,498,498,498,498,498,498,498,498,498,498,498,498,498,496,485,458,442,343,204,174,153,135,116,78,64,55,42,39,39,39,39,39,39,39,39,39,39,39,39,39,39,39,38,38],"timestamp_mouse":[12,25,43,61,81,101,120,140,160,181,201,220,241,260,280,300,321,341,360,380,401,420,440,460,480,501,520,540,561,580,601,622,640,660,681,700,720,740,760,780,801,821,841,860,880,900,921,941,962,980,1001,1021,1040,1060,1081,1101,1121,1140,1160,1180,1200,1221,1240,1260,1280,1300,1320,1340,1361,1380,1400,1422,1441,1460,1480,1501,1521,1540,1560,1580,1600,1620,1640,1660,1680,1701,1721,1741,1760,1781,1800,1820,1841,1860,1880,1900,1920,1941,1960,1980,2001,2020,2041,2060,2081,2100,2121,2141,2160,2181,2201,2222,2241],"xSR":741.5,"ySR":447.2,"xT1":424.9,"yT1":0,"xT2":1058.1,"yT2":0,"toosoon":0,"cond_shown":"Incongruent","ratio_trial":100,"L_num":13,"L_den":26,"R_num":12,"R_den":20,"correct_side":2,"subjID":"IsauraHernandezGomez23","gender":"1","school":"6","age":"11"},{"start_time":1551800728880,"click_time":1551800730397,"finger_time":1551800729856,"fix_duration":1200.331900353388,"trial":29,"RT":976,"MT":541,"sideResp":2,"stimulus":[],"xmouse":[800,797,797,792,792,792,792,792,792,792,792,792,792,792,792,792,792,792,792,792,792,792,792,792,792,792,792,792,792,792,792,792,792,792,792,792,792,792,792,792,792,792,792,792,792,792,801,821,852,888,939,951,959,963,967,968,970,974,985,1005,1011,1016,1019,1024,1040,1043,1043,1043,1043,1043,1043,1044,1047,1052,1055,1066],"ymouse":[457,464,464,478,490,494,498,499,501,501,501,501,501,501,501,501,501,501,501,501,501,501,501,501,501,501,501,501,501,501,501,501,501,501,501,501,501,501,501,501,501,501,501,501,501,501,492,476,447,411,339,314,292,275,250,243,233,209,162,86,63,52,49,38,12,7,6,6,6,6,6,6,6,9,12,20],"timestamp_mouse":[22,47,57,76,97,116,136,156,176,197,217,237,256,276,296,317,336,357,376,397,416,436,456,477,496,517,538,556,576,597,616,637,656,677,696,717,737,756,777,796,817,837,857,878,896,917,936,957,976,996,1016,1036,1056,1076,1097,1116,1137,1156,1177,1197,1216,1237,1256,1277,1297,1316,1336,1356,1377,1397,1416,1436,1456,1476,1496,1517],"xSR":741.5,"ySR":447.2,"xT1":424.9,"yT1":0,"xT2":1058.1,"yT2":0,"toosoon":0,"cond_shown":"Incongruent","ratio_trial":100,"L_num":9,"L_den":10,"R_num":20,"R_den":25,"correct_side":1,"subjID":"IsauraHernandezGomez23","gender":"1","school":"6","age":"11"},{"start_time":1551800740549,"click_time":1551800742537,"finger_time":1551800741956,"fix_duration":250,"trial":30,"RT":1407,"MT":581,"sideResp":1,"stimulus":[],"xmouse":[824,824,824,824,817,799,789,783,783,783,783,783,783,783,783,783,783,783,783,783,783,783,783,783,783,783,783,783,783,783,784,787,788,788,788,788,788,788,788,788,789,790,790,790,790,790,790,790,790,790,790,790,790,790,790,790,790,790,792,794,796,798,798,798,798,798,798,798,799,797,785,749,732,717,706,691,688,672,667,662,657,632,613,585,561,550,550,550,550,549,549,547,545,545,545,545,544,541,530,518],"ymouse":[522,522,522,522,513,501,496,493,493,493,493,493,493,493,493,493,493,493,493,493,493,493,493,493,493,493,493,493,493,493,493,493,492,492,492,492,492,492,492,492,492,492,492,492,492,492,492,492,492,492,492,492,492,492,492,492,492,492,492,492,492,492,492,492,492,492,492,492,485,460,430,360,327,294,260,214,202,153,142,132,126,105,93,84,82,82,82,82,82,83,83,83,84,84,84,84,84,85,85,84],"timestamp_mouse":[9,44,48,67,87,107,128,149,167,189,207,228,248,268,289,308,327,348,367,389,407,429,448,467,488,507,528,548,568,588,607,628,648,668,687,707,727,749,768,787,807,828,849,867,887,908,927,949,967,988,1008,1028,1047,1069,1087,1108,1128,1148,1167,1188,1209,1227,1249,1269,1287,1309,1329,1349,1367,1388,1407,1429,1448,1467,1487,1508,1527,1547,1567,1587,1608,1628,1648,1669,1688,1707,1727,1748,1767,1788,1808,1828,1848,1868,1889,1909,1928,1947,1967,1988],"xSR":741.5,"ySR":447.2,"xT1":424.9,"yT1":0,"xT2":1058.1,"yT2":0,"toosoon":0,"cond_shown":"Congruent","ratio_trial":300,"L_num":11,"L_den":22,"R_num":4,"R_den":20,"correct_side":1,"subjID":"IsauraHernandezGomez23","gender":"1","school":"6","age":"11"},{"start_time":1551800744876,"click_time":1551800746377,"finger_time":1551800746257,"fix_duration":1077.198987293349,"trial":31,"RT":1381,"MT":120,"sideResp":1,"stimulus":[],"xmouse":[785,785,785,785,785,785,785,785,785,785,785,785,785,785,785,785,785,785,785,785,785,785,785,785,785,785,785,785,785,785,785,785,785,785,785,785,785,785,785,785,785,785,785,785,785,785,785,785,785,785,785,785,785,785,785,785,785,794,823,841,841,841,841,841,841,841,841,840,836,818,786,752,699,641,579,515],"ymouse":[500,500,500,500,500,500,500,500,500,500,500,500,500,500,500,500,500,500,500,500,500,500,500,500,500,500,500,500,500,500,500,500,500,500,500,500,500,500,500,500,500,500,500,500,500,500,500,500,500,500,500,500,500,500,500,500,500,500,495,481,461,461,461,461,461,461,461,459,456,439,379,323,252,194,139,86],"timestamp_mouse":[9,31,40,61,81,101,122,140,162,181,201,220,240,261,282,300,322,340,361,382,400,422,441,460,481,501,522,540,562,581,600,622,641,660,681,700,722,740,760,780,800,822,840,861,881,900,922,940,960,981,1001,1021,1040,1061,1082,1101,1121,1140,1160,1181,1201,1220,1240,1261,1282,1302,1320,1340,1360,1381,1401,1420,1440,1461,1481,1501],"xSR":741.5,"ySR":447.2,"xT1":424.9,"yT1":0,"xT2":1058.1,"yT2":0,"toosoon":0,"cond_shown":"Incongruent","ratio_trial":200,"L_num":4,"L_den":5,"R_num":6,"R_den":10,"correct_side":1,"subjID":"IsauraHernandezGomez23","gender":"1","school":"6","age":"11"},{"start_time":1551800750209,"click_time":1551800758717,"finger_time":1551800756676,"fix_duration":1171.9234722748627,"trial":32,"RT":6467,"MT":2041,"sideResp":1,"stimulus":[],"xmouse":[810,810,810,810,810,810,810,810,810,810,810,810,810,810,810,810,810,810,810,810,810,810,810,810,810,810,810,810,810,810,810,810,810,810,810,810,810,810,810,810,810,810,810,810,810,810,810,810,810,810,810,810,810,810,810,810,810,810,810,810,810,810,810,810,810,810,810,810,810,810,810,810,810,810,810,810,810,810,810,810,810,810,810,810,810,810,810,810,810,810,810,810,810,810,810,810,810,810,810,810,810,810,810,810,810,810,810,810,810,810,810,810,810,810,810,810,810,810,810,810,810,810,810,810,810,810,810,810,810,810,810,810,810,810,810,810,810,810,810,810,810,810,810,810,810,810,810,810,810,810,810,810,810,810,810,810,810,810,810,810,810,810,810,810,810,810,810,810,810,810,810,810,810,810,810,810,810,810,810,810,810,810,810,810,810,810,810,810,810,810,810,810,810,810,810,810,810,810,810,810,810,810,810,810,810,810,810,810,810,810,810,810,810,810,810,810,810,810,810,810,810,810,810,810,810,810,810,810,810,810,810,810,810,810,810,810,810,810,810,810,810,810,810,810,810,810,810,810,810,810,810,810,810,810,810,810,810,810,810,810,810,810,810,810,810,810,810,810,810,810,810,810,810,810,810,810,810,810,810,810,810,810,810,810,810,810,810,810,810,810,810,810,810,810,810,810,810,810,810,810,810,810,810,810,810,810,810,810,810,810,810,810,810,810,810,810,810,810,810,810,810,810,811,819,796,777,769,768,768,768,768,768,768,768,768,768,768,755,727,721,717,717,727,730,730,730,730,730,730,730,730,732,739,755,755,755,755,755,755,755,755,756,757,761,777,788,798,808,814,814,814,814,814,814,814,814,814,814,814,812,806,801,799,796,795,795,795,795,795,795,795,795,795,795,795,795,795,795,791,789,789,789,787,773,756,734,701,663,560,507,455,408,376,371,371,371,371,371,378,390,404,409,412,415,424,426],"ymouse":[483,483,483,483,483,483,483,483,483,483,483,483,483,483,483,483,483,483,483,483,483,483,483,483,483,483,483,483,483,483,483,483,483,483,483,483,483,483,483,483,483,483,483,483,483,483,483,483,483,483,483,483,483,483,483,483,483,483,483,483,483,483,483,483,483,483,483,483,483,483,483,483,483,483,483,483,483,483,483,483,483,483,483,483,483,483,483,483,483,483,483,483,483,483,483,483,483,483,483,483,483,483,483,483,483,483,483,483,483,483,483,483,483,483,483,483,483,483,483,483,483,483,483,483,483,483,483,483,483,483,483,483,483,483,483,483,483,483,483,483,483,483,483,483,483,483,483,483,483,483,483,483,483,483,483,483,483,483,483,483,483,483,483,483,483,483,483,483,483,483,483,483,483,483,483,483,483,483,483,483,483,483,483,483,483,483,483,483,483,483,483,483,483,483,483,483,483,483,483,483,483,483,483,483,483,483,483,483,483,483,483,483,483,483,483,483,483,483,483,483,483,483,483,483,483,483,483,483,483,483,483,483,483,483,483,483,483,483,483,483,483,483,483,483,483,483,483,483,483,483,483,483,483,483,483,483,483,483,483,483,483,483,483,483,483,483,483,483,483,483,483,483,483,483,483,483,483,483,483,483,483,483,483,483,483,483,483,483,483,483,483,483,483,483,483,483,483,483,483,483,483,483,483,483,483,483,483,483,483,483,483,483,483,483,483,483,483,483,483,483,483,482,473,399,223,158,124,120,120,120,120,120,120,120,120,120,120,139,239,285,336,388,424,431,431,431,431,431,431,431,431,431,429,428,428,428,428,428,428,428,428,428,439,451,493,516,543,561,574,574,574,574,574,574,573,570,564,558,542,528,514,495,485,479,476,476,476,476,476,476,476,476,476,476,476,475,475,475,473,473,473,473,471,461,447,427,387,343,232,177,127,82,44,33,32,31,31,31,30,29,29,29,29,29,31,32],"timestamp_mouse":[11,42,48,68,89,108,127,149,168,187,208,229,248,267,288,308,329,349,368,389,408,427,448,467,488,507,529,549,568,588,609,627,649,667,688,707,728,748,768,789,807,829,849,869,887,907,928,947,968,989,1007,1028,1047,1067,1088,1108,1129,1148,1168,1188,1207,1228,1247,1267,1287,1309,1328,1347,1368,1387,1408,1429,1448,1468,1488,1509,1529,1548,1568,1589,1608,1628,1649,1667,1688,1709,1729,1748,1769,1788,1808,1828,1849,1869,1887,1908,1929,1947,1968,1989,2008,2027,2048,2067,2089,2109,2128,2147,2168,2188,2209,2227,2248,2269,2287,2307,2328,2348,2369,2389,2408,2428,2448,2467,2489,2508,2527,2548,2567,2589,2607,2628,2648,2667,2689,2707,2729,2747,2767,2789,2807,2829,2848,2868,2887,2907,2929,2947,2969,2988,3009,3028,3048,3067,3088,3107,3128,3147,3168,3187,3207,3229,3247,3267,3289,3307,3328,3347,3369,3387,3407,3428,3447,3468,3488,3507,3529,3548,3567,3589,3607,3627,3648,3668,3688,3709,3727,3747,3769,3789,3807,3827,3848,3868,3888,3909,3927,3947,3968,3987,4008,4029,4048,4068,4087,4109,4128,4148,4169,4187,4208,4229,4248,4268,4289,4307,4327,4348,4367,4388,4407,4429,4449,4467,4488,4507,4528,4549,4568,4588,4609,4628,4647,4668,4687,4708,4727,4747,4769,4787,4808,4828,4847,4868,4888,4908,4927,4947,4968,4987,5008,5029,5048,5068,5088,5108,5129,5149,5168,5188,5208,5228,5247,5268,5288,5308,5328,5348,5367,5388,5408,5428,5447,5469,5489,5508,5528,5547,5568,5589,5608,5628,5649,5667,5688,5708,5728,5748,5769,5789,5807,5828,5847,5868,5889,5909,5927,5947,5968,5987,6009,6028,6047,6068,6087,6108,6128,6147,6168,6187,6208,6227,6248,6268,6288,6307,6328,6347,6368,6387,6407,6428,6448,6467,6487,6508,6528,6548,6568,6589,6608,6627,6647,6669,6687,6707,6728,6749,6768,6788,6807,6827,6848,6869,6889,6907,6928,6947,6969,6989,7009,7029,7048,7068,7087,7108,7128,7147,7169,7189,7208,7228,7247,7267,7288,7309,7329,7347,7368,7387,7408,7428,7448,7469,7488,7508,7528,7549,7568,7587,7607,7629,7648,7668,7688,7708,7729,7749,7769,7788,7808,7828,7847,7867,7887,7907,7928,7949,7968,7987,8007,8028,8048,8068,8088,8107,8129,8149,8168,8188,8207,8227,8248,8269,8287,8307,8328,8349,8368,8388,8407,8427,8449,8467,8487,8508],"xSR":741.5,"ySR":447.2,"xT1":424.9,"yT1":0,"xT2":1058.1,"yT2":0,"toosoon":0,"cond_shown":"Incongruent","ratio_trial":100,"L_num":11,"L_den":22,"R_num":9,"R_den":15,"correct_side":2,"subjID":"IsauraHernandezGomez23","gender":"1","school":"6","age":"11"},{"start_time":1551800762474,"click_time":1551800764018,"finger_time":1551800763657,"fix_duration":956.9373764354139,"trial":33,"RT":1183,"MT":361,"sideResp":2,"stimulus":[],"xmouse":[782,782,782,782,782,782,782,782,782,782,782,782,782,782,782,782,782,782,782,782,782,782,782,782,782,782,782,782,782,782,782,782,782,782,782,782,782,782,782,782,782,782,782,782,782,782,782,782,782,782,782,782,782,782,782,782,782,782,782,794,806,830,838,843,849,858,887,909,934,964,974,977,977,979,990,1007,1052,1068],"ymouse":[495,495,495,495,495,495,495,495,495,495,495,495,495,495,495,495,495,495,495,495,495,495,495,495,495,495,495,495,495,495,495,495,495,495,495,495,495,495,495,495,495,495,495,495,495,495,495,495,495,495,495,495,495,495,495,495,490,482,458,362,291,198,171,145,126,105,64,49,41,32,31,30,30,30,33,38,50,52],"timestamp_mouse":[8,23,43,62,83,103,123,143,163,183,203,222,242,262,282,304,322,342,362,383,402,424,443,464,483,502,522,543,563,582,603,624,642,662,683,703,723,743,762,782,802,822,842,862,883,903,922,943,962,983,1003,1024,1042,1062,1083,1103,1122,1142,1163,1183,1202,1224,1243,1264,1282,1302,1323,1343,1363,1383,1402,1423,1442,1463,1483,1502,1522,1544],"xSR":741.5,"ySR":447.2,"xT1":424.9,"yT1":0,"xT2":1058.1,"yT2":0,"toosoon":0,"cond_shown":"Incongruent","ratio_trial":200,"L_num":7,"L_den":15,"R_num":4,"R_den":6,"correct_side":2,"subjID":"IsauraHernandezGomez23","gender":"1","school":"6","age":"11"},{"start_time":1551800767356,"click_time":1551800769056,"finger_time":1551800768777,"fix_duration":1437.1035490020602,"trial":34,"RT":1421,"MT":279,"sideResp":1,"stimulus":[],"xmouse":[781,781,781,781,781,781,781,781,781,781,781,781,781,781,781,781,781,781,781,781,781,781,781,781,781,781,781,781,781,781,781,781,781,781,781,781,781,781,781,781,781,781,781,781,781,781,781,781,781,781,781,781,781,781,781,781,781,781,780,779,779,779,779,779,779,779,779,779,779,777,777,771,749,716,681,626,543,524,512,512,512,512,510,506,502,501],"ymouse":[490,490,490,490,490,490,490,490,490,490,490,490,490,490,490,490,490,490,490,490,490,490,490,490,490,490,490,490,490,490,490,490,490,490,490,490,490,490,490,490,490,490,490,490,490,490,490,490,490,490,490,490,490,490,490,490,490,490,490,490,490,490,490,490,490,490,490,490,490,487,473,315,231,168,131,106,93,100,106,106,106,106,106,104,100,98],"timestamp_mouse":[9,37,42,61,80,102,121,141,160,181,201,220,241,261,281,302,321,341,360,381,402,421,441,462,482,501,522,540,561,581,601,621,641,661,681,700,720,740,761,781,800,821,842,860,881,902,920,941,961,980,1001,1022,1041,1061,1082,1101,1120,1142,1160,1181,1202,1221,1242,1260,1280,1302,1321,1340,1361,1380,1402,1421,1440,1460,1480,1501,1521,1541,1561,1580,1601,1622,1641,1662,1682,1700],"xSR":741.5,"ySR":447.2,"xT1":424.9,"yT1":0,"xT2":1058.1,"yT2":0,"toosoon":0,"cond_shown":"Incongruent","ratio_trial":100,"L_num":17,"L_den":30,"R_num":10,"R_den":15,"correct_side":2,"subjID":"IsauraHernandezGomez23","gender":"1","school":"6","age":"11"},{"start_time":1551800771312,"click_time":1551800773578,"finger_time":1551800772336,"fix_duration":273.1684096251682,"trial":35,"RT":1024,"MT":1242,"sideResp":2,"stimulus":[],"xmouse":[793,793,793,793,793,793,793,793,793,793,793,793,793,793,793,793,793,793,793,793,793,793,793,793,793,793,793,793,793,793,793,793,793,793,793,793,793,793,793,793,793,793,793,793,793,793,793,796,804,808,808,808,808,808,808,808,808,808,808,808,808,808,808,808,808,808,808,808,808,808,808,808,808,808,808,808,808,808,808,808,808,808,808,808,808,808,804,797,773,761,751,744,739,737,735,735,735,735,735,735,735,735,735,735,735,735,735,735,753,811,877,954,1028,1143],"ymouse":[515,515,515,515,515,515,515,515,515,515,515,515,515,515,515,515,515,515,515,515,515,515,515,515,515,515,515,515,515,515,515,515,515,515,515,515,515,515,515,515,515,515,515,515,515,515,515,511,483,451,449,447,447,447,447,447,447,447,447,447,447,447,447,447,447,447,447,447,447,447,447,447,447,447,447,447,447,447,447,447,447,447,447,447,447,447,432,404,334,307,287,275,266,263,262,262,262,262,262,262,262,262,262,262,262,262,262,262,246,202,151,95,56,26],"timestamp_mouse":[10,25,52,65,86,104,126,144,166,185,205,225,244,264,285,305,324,346,365,385,405,425,444,465,484,505,524,546,564,584,605,625,644,665,684,705,724,746,765,785,805,824,844,865,885,905,924,945,964,985,1004,1024,1045,1066,1086,1104,1125,1144,1166,1186,1206,1224,1244,1265,1285,1304,1326,1345,1366,1385,1406,1424,1444,1465,1485,1504,1524,1545,1565,1585,1604,1625,1645,1665,1684,1705,1725,1746,1765,1785,1806,1824,1844,1864,1885,1904,1924,1946,1966,1985,2004,2024,2044,2066,2084,2104,2125,2144,2165,2185,2205,2226,2244,2266],"xSR":741.5,"ySR":447.2,"xT1":424.9,"yT1":0,"xT2":1058.1,"yT2":0,"toosoon":0,"cond_shown":"Congruent","ratio_trial":100,"L_num":3,"L_den":20,"R_num":4,"R_den":16,"correct_side":2,"subjID":"IsauraHernandezGomez23","gender":"1","school":"6","age":"11"},{"start_time":1551800776044,"click_time":1551800777897,"finger_time":1551800777537,"fix_duration":685.7397585342893,"trial":36,"RT":1493,"MT":360,"sideResp":1,"stimulus":[],"xmouse":[768,770,777,781,783,785,787,787,787,787,787,787,787,787,787,787,787,787,787,787,787,787,787,787,787,787,787,787,787,787,787,787,787,787,787,787,787,787,787,787,787,787,787,787,787,787,787,787,787,787,787,787,787,787,787,787,787,787,787,787,787,787,787,787,787,787,787,787,787,787,787,787,789,769,712,631,455,400,378,369,368,368,368,368,368,368,368,368,368,373,395,409,430],"ymouse":[522,522,522,522,522,522,522,522,522,522,522,522,522,522,522,522,522,522,522,522,522,522,522,522,522,522,522,522,522,522,522,522,522,522,522,522,522,522,522,522,522,522,522,522,522,522,522,522,522,522,522,522,522,522,522,522,522,522,522,522,522,522,522,522,522,522,522,522,522,522,522,522,519,476,402,313,166,127,111,105,104,104,104,104,104,104,104,104,104,103,98,95,88],"timestamp_mouse":[13,33,53,72,93,114,133,153,173,192,213,232,254,272,293,312,332,352,373,393,413,433,454,472,493,513,533,553,572,594,612,632,654,673,694,714,732,753,773,793,813,833,853,873,892,912,933,952,973,992,1013,1034,1053,1073,1092,1113,1133,1152,1174,1193,1213,1234,1254,1272,1293,1314,1333,1353,1373,1393,1414,1432,1453,1474,1493,1513,1533,1552,1572,1593,1613,1633,1653,1673,1693,1712,1733,1753,1773,1792,1813,1832,1852],"xSR":741.5,"ySR":447.2,"xT1":424.9,"yT1":0,"xT2":1058.1,"yT2":0,"toosoon":0,"cond_shown":"Incongruent","ratio_trial":200,"L_num":7,"L_den":10,"R_num":8,"R_den":16,"correct_side":1,"subjID":"IsauraHernandezGomez23","gender":"1","school":"6","age":"11"},{"start_time":1551800780153,"click_time":1551800783177,"finger_time":1551800782618,"fix_duration":854.6372276969539,"trial":37,"RT":2465,"MT":559,"sideResp":1,"stimulus":[],"xmouse":[755,755,755,755,755,755,755,755,755,755,755,755,755,755,755,755,755,755,755,755,755,755,755,755,755,755,755,755,755,755,755,755,755,755,755,755,755,755,755,755,755,755,755,755,755,755,755,755,755,755,755,755,755,755,755,755,755,755,755,755,755,755,755,755,755,755,755,755,755,755,755,755,755,755,755,755,755,755,755,755,755,755,755,755,755,755,755,755,755,755,755,755,755,755,755,755,755,755,755,755,755,755,755,755,755,755,755,755,755,755,755,755,755,755,755,755,755,755,755,755,755,755,754,751,747,743,743,743,740,738,734,727,726,726,726,726,719,710,698,683,669,643,632,622,610,586,567,538,527,512,495,477],"ymouse":[465,465,465,465,465,465,465,465,465,465,465,465,465,465,465,465,465,465,465,465,465,465,465,465,465,465,465,465,465,465,465,465,465,465,465,465,465,465,465,465,465,465,465,465,465,465,465,465,465,465,465,465,465,465,465,465,465,465,465,465,465,465,465,465,465,465,465,465,465,465,465,465,465,465,465,465,465,465,465,465,465,465,465,465,465,465,465,465,465,465,465,465,465,465,465,465,465,465,465,465,465,465,465,465,465,465,465,465,465,465,465,465,465,465,465,465,465,465,465,465,465,465,460,438,410,361,317,292,264,239,214,188,185,185,185,185,179,174,167,161,155,146,144,142,141,138,135,127,121,115,106,97],"timestamp_mouse":[10,23,44,63,84,103,125,144,164,184,205,224,243,265,283,303,325,344,364,385,403,424,445,464,483,504,523,543,563,583,604,623,645,663,683,703,723,743,765,783,805,823,843,864,883,903,924,943,963,984,1005,1024,1045,1064,1084,1105,1123,1144,1164,1183,1203,1224,1243,1264,1284,1303,1324,1345,1363,1384,1404,1423,1444,1465,1483,1504,1525,1544,1564,1583,1605,1624,1643,1665,1684,1705,1724,1743,1763,1784,1804,1825,1844,1865,1885,1904,1924,1944,1964,1983,2004,2023,2045,2063,2084,2104,2123,2143,2163,2184,2205,2223,2243,2265,2283,2305,2323,2344,2364,2384,2403,2424,2443,2465,2485,2504,2524,2543,2564,2585,2605,2624,2644,2663,2683,2704,2724,2744,2764,2783,2805,2824,2843,2864,2884,2905,2923,2943,2963,2983,3004,3024],"xSR":741.5,"ySR":447.2,"xT1":424.9,"yT1":0,"xT2":1058.1,"yT2":0,"toosoon":0,"cond_shown":"Congruent","ratio_trial":100,"L_num":9,"L_den":15,"R_num":8,"R_den":16,"correct_side":1,"subjID":"IsauraHernandezGomez23","gender":"1","school":"6","age":"11"},{"start_time":1551800786188,"click_time":1551800788196,"finger_time":1551800787596,"fix_duration":250,"trial":38,"RT":1408,"MT":600,"sideResp":1,"stimulus":[],"xmouse":[806,806,806,806,806,806,806,806,806,806,806,806,806,806,806,806,806,806,806,806,806,806,806,806,806,806,806,806,806,806,806,806,806,806,806,806,806,806,806,806,806,806,806,806,806,806,806,806,806,806,806,806,806,806,806,806,806,806,806,806,806,806,806,806,806,806,806,806,805,800,735,696,647,616,592,550,537,529,526,526,531,541,558,577,585,586,586,580,571,567,565,563,557,543,535,535,535,535,535,528,516],"ymouse":[491,491,491,491,491,491,491,491,491,491,491,491,491,491,491,491,491,491,491,491,491,491,491,491,491,491,491,491,491,491,491,491,491,491,491,491,491,491,491,491,491,491,491,491,491,491,491,491,491,491,491,491,491,491,491,491,491,491,491,491,491,491,491,491,491,491,491,491,491,491,462,433,388,350,315,238,208,190,181,178,174,168,162,154,141,132,125,113,103,100,100,100,100,92,87,87,87,87,87,84,80],"timestamp_mouse":[9,38,49,68,90,110,128,149,168,190,208,230,249,268,289,310,330,348,369,389,410,429,449,470,490,508,528,550,570,590,608,628,650,670,689,709,730,750,768,789,810,829,849,869,889,908,928,948,970,989,1008,1029,1050,1068,1090,1109,1128,1149,1169,1189,1210,1230,1248,1269,1289,1309,1329,1350,1370,1388,1408,1429,1448,1469,1488,1510,1530,1549,1569,1589,1609,1629,1649,1668,1689,1708,1728,1748,1769,1788,1808,1829,1848,1868,1890,1908,1930,1950,1968,1989,2008],"xSR":741.5,"ySR":447.2,"xT1":424.9,"yT1":0,"xT2":1058.1,"yT2":0,"toosoon":0,"cond_shown":"Congruent","ratio_trial":200,"L_num":16,"L_den":20,"R_num":12,"R_den":20,"correct_side":1,"subjID":"IsauraHernandezGomez23","gender":"1","school":"6","age":"11"},{"start_time":1551800793981,"click_time":1551800795658,"finger_time":1551800795577,"fix_duration":1102.163825203341,"trial":39,"RT":1596,"MT":81,"sideResp":1,"stimulus":[],"xmouse":[780,780,780,780,780,780,780,780,780,780,780,780,780,780,780,780,780,780,780,780,780,780,780,780,780,780,780,780,780,780,780,780,780,780,780,780,780,780,780,780,780,780,780,780,780,780,780,780,780,780,780,780,780,780,780,780,780,780,780,780,780,780,780,780,780,780,785,787,787,787,787,787,787,787,787,787,788,788,783,699,627,558,511,473],"ymouse":[506,506,506,506,506,506,506,506,506,506,506,506,506,506,506,506,506,506,506,506,506,506,506,506,506,506,506,506,506,506,506,506,506,506,506,506,506,506,506,506,506,506,506,506,506,506,506,506,506,506,506,506,506,506,506,506,506,506,506,506,506,506,506,506,506,506,506,505,505,505,505,505,505,505,505,505,504,503,498,418,330,217,109,3],"timestamp_mouse":[15,36,56,75,96,117,136,155,176,196,216,236,255,275,297,315,335,357,375,396,416,435,456,475,495,517,536,556,575,597,616,635,655,676,696,715,736,755,777,795,815,836,855,876,895,916,935,956,977,995,1015,1036,1055,1076,1096,1115,1135,1156,1175,1195,1216,1235,1257,1275,1295,1315,1335,1355,1375,1397,1415,1435,1457,1475,1497,1515,1535,1556,1575,1596,1616,1636,1656,1677],"xSR":741.5,"ySR":447.2,"xT1":424.9,"yT1":0,"xT2":1058.1,"yT2":0,"toosoon":0,"cond_shown":"Incongruent","ratio_trial":300,"L_num":2,"L_den":4,"R_num":6,"R_den":30,"correct_side":1,"subjID":"IsauraHernandezGomez23","gender":"1","school":"6","age":"11"},{"start_time":1551800798201,"click_time":1551800801336,"finger_time":1551800799958,"fix_duration":642.5736962011051,"trial":40,"RT":1757,"MT":1378,"sideResp":1,"stimulus":[],"xmouse":[764,764,764,764,764,764,764,764,764,764,764,764,764,764,764,764,764,764,764,764,764,764,764,764,764,764,764,764,764,764,764,765,766,768,768,768,768,768,768,768,768,768,768,768,768,768,768,768,768,768,768,768,768,768,768,768,768,768,768,768,768,768,768,768,768,770,771,773,775,775,775,775,775,775,774,774,774,774,774,773,773,773,773,773,771,766,754,741,729,727,726,726,726,726,726,725,724,722,720,719,719,719,719,719,719,717,714,708,687,673,662,627,557,420,352,352,352,352,352,352,352,352,352,352,352,352,352,352,352,352,352,352,352,352,352,352,352,352,352,379,391,394,394,395,395,395,395,397,400,408,409,409,409,412,416,421,431],"ymouse":[515,515,515,515,515,515,515,515,515,515,515,515,515,515,515,515,515,515,515,515,515,515,515,515,515,515,515,515,515,515,515,516,516,516,516,516,516,516,516,516,516,516,516,516,516,516,516,516,516,516,516,516,516,516,516,516,516,516,516,516,516,516,516,516,516,515,514,513,512,512,512,512,514,516,521,522,522,522,522,523,523,523,524,524,526,529,535,540,544,544,545,545,545,545,545,545,545,545,545,545,545,545,545,545,545,544,538,525,483,458,429,361,243,85,23,23,23,23,23,23,23,23,23,23,23,23,23,23,23,23,23,23,23,23,23,23,23,23,23,12,31,35,37,37,37,37,37,37,37,37,37,37,37,37,37,39,42],"timestamp_mouse":[16,46,56,76,96,117,135,156,175,196,216,236,257,275,297,317,335,356,376,395,415,436,457,477,497,515,535,556,577,596,616,635,655,676,696,715,735,756,776,796,815,835,855,877,896,916,935,955,975,996,1016,1035,1056,1077,1095,1116,1136,1156,1177,1197,1215,1235,1257,1275,1297,1315,1335,1357,1375,1395,1417,1435,1455,1475,1497,1515,1535,1557,1576,1595,1616,1635,1656,1675,1697,1715,1737,1757,1776,1795,1815,1836,1856,1877,1895,1916,1936,1955,1977,1995,2016,2036,2056,2076,2097,2117,2136,2155,2177,2195,2216,2237,2257,2277,2295,2315,2336,2355,2374,2395,2415,2436,2456,2475,2495,2516,2536,2555,2575,2595,2615,2636,2656,2675,2696,2715,2737,2755,2776,2796,2815,2835,2856,2875,2894,2915,2935,2955,2976,2996,3016,3036,3055,3075,3095,3115,3135],"xSR":741.