[{"start_time":1551790927813,"click_time":1551790933205,"finger_time":1551790927826,"fix_duration":1123.001760992157,"trial":0,"RT":13,"MT":5379,"sideResp":1,"stimulus":"img/750/equaldotanddens/R/7_Ratio_750_L_3_R_4.png","xmouse":[1070,1072,1073,1074,1075,1076,1076,1076,1076,1076,1076,1077,1077,1081,1083,1090,1091,1091,1091,1091,1091,1091,1091,1091,1091,1089,1080,1065,1051,1035,1022,1022,1022,1022,1022,1022,1022,1027,1035,1041,1045,1045,1045,1042,1038,1034,1034,1033,1033,1033,1033,1033,1033,1033,1033,1033,1033,1033,1033,1033,1033,1033,1033,1033,1033,1033,1033,1033,1033,1033,1033,1033,1033,1033,1033,1033,1033,1033,1033,1033,1033,1033,1033,1033,1033,1033,1033,1033,1033,1033,1033,1033,1033,1033,1033,1033,1033,1033,1033,1033,1033,1033,1033,1032,1031,1030,1029,1029,1029,1029,1029,1029,1029,1029,1029,1027,1009,989,971,951,936,926,926,926,926,926,920,904,867,826,803,793,793,793,793,793,793,793,793,793,793,793,793,796,800,802,803,803,803,803,803,803,803,803,803,803,803,803,803,803,803,803,803,803,803,803,803,803,803,803,803,803,803,803,803,803,803,803,803,803,803,803,803,803,803,803,803,803,803,803,803,803,803,803,803,803,803,803,803,803,803,803,803,803,803,803,805,806,808,808,809,810,811,811,811,812,812,812,812,812,812,812,812,812,812,813,813,813,813,813,813,813,813,813,813,813,813,813,813,813,813,782,722,676,634,606,587,587,587,587,587,586,586,583,565,531,359,288,265,260,260,289,317,330,336,337,353,372,399,425],"ymouse":[406,409,410,411,412,412,412,412,412,412,412,412,414,427,431,439,439,439,439,439,439,439,439,439,439,439,439,439,439,439,439,439,439,439,439,439,439,438,438,438,441,446,451,458,465,475,477,478,478,478,478,478,478,478,478,478,478,478,478,478,478,478,478,478,478,478,478,478,478,478,478,478,478,478,478,478,478,478,478,478,478,478,478,478,478,478,478,478,478,478,478,478,478,478,478,478,478,478,478,478,479,483,488,492,498,500,503,503,503,503,503,503,503,503,505,509,534,546,555,562,567,570,570,570,570,570,570,572,576,576,578,580,580,580,580,580,580,580,580,579,578,575,569,559,547,538,529,529,529,529,529,529,529,529,529,529,529,529,529,529,529,529,529,529,529,529,529,529,529,529,529,529,529,529,529,527,525,524,523,523,523,522,517,516,509,504,500,500,500,500,500,500,500,500,500,500,500,500,500,500,500,500,500,500,500,497,489,485,482,480,480,477,476,475,475,474,474,474,474,474,474,474,474,474,473,469,469,469,469,469,469,469,469,469,469,469,469,469,469,468,468,387,273,193,123,87,61,61,60,60,60,60,60,60,62,67,95,105,108,108,108,96,91,90,90,90,79,63,47,37],"timestamp_mouse":[12,32,52,72,93,112,132,153,172,193,212,233,252,272,293,313,332,352,372,392,412,432,453,472,492,512,533,551,572,592,613,632,652,673,691,712,732,752,773,792,813,831,853,872,892,913,931,952,973,992,1011,1033,1053,1073,1092,1113,1132,1151,1172,1192,1213,1233,1252,1272,1292,1312,1333,1352,1372,1391,1412,1432,1452,1473,1493,1513,1533,1552,1571,1592,1612,1632,1652,1673,1693,1711,1731,1752,1773,1793,1812,1832,1852,1872,1892,1913,1932,1952,1971,1991,2012,2033,2052,2072,2093,2112,2133,2152,2173,2192,2212,2233,2252,2272,2292,2312,2332,2351,2372,2392,2412,2432,2452,2471,2492,2512,2532,2552,2572,2593,2613,2632,2652,2672,2693,2712,2732,2752,2772,2792,2813,2832,2853,2872,2892,2912,2932,2952,2972,2992,3012,3033,3053,3071,3093,3113,3133,3153,3171,3192,3212,3233,3253,3271,3292,3312,3333,3352,3372,3392,3413,3433,3452,3473,3491,3512,3532,3552,3571,3592,3612,3632,3652,3672,3693,3712,3732,3751,3772,3792,3812,3832,3853,3872,3891,3911,3932,3951,3973,3992,4012,4032,4052,4072,4093,4112,4132,4152,4172,4192,4213,4232,4252,4272,4292,4313,4332,4352,4373,4391,4412,4433,4451,4472,4493,4513,4532,4552,4572,4592,4612,4632,4652,4672,4691,4713,4733,4753,4772,4791,4812,4832,4853,4872,4892,4912,4932,4952,4973,4993,5012,5032,5052,5072,5093,5112,5132,5152,5173,5191,5213,5232,5252,5273,5292,5313,5332,5352,5372,5392],"xSR":741.5,"ySR":469.95,"xT1":424.9,"yT1":0,"xT2":1058.1,"yT2":0,"toosoon":0,"cond_shown":"equaldotanddens","ratio_trial":750,"smaller_num":"3","larger_num":"4","correct_side":2,"subjID":"ivandanielrocharodelo31","gender":"0","age":"11","school":"6","test":{"fix_dur":[250,1500],"timestim":300,"targets_dim":[100,100],"targets_relative_coord":[0.3,0.7],"size_stim":[880,420],"start_dim":[100,100],"size_start":[300,300],"size_fix":60,"samplingrate":20,"img_types":["equaldotsize","equaldotanddens","randomdotsizeEA"],"ratios":[250,500,750,900],"rep_conds":9,"nTrials":120,"trials_to_rest":500,"Trials_order":[67,35,40,89,53,118,56,95,29,3,69,96,102,31,98,38,74,28,104,70,11,48,101,8,0,19,63,80,36,60,54,21,107,27,87,73,51,49,47,78,115,110,13,92,105,75,37,16,58,68,91,62,20,108,57,39,90,9,46,33,82,45,117,66,25,81,55,116,44,100,50,119,14,41,5,26,24,99,4,111,65,106,10,12,42,1,79,52,23,22,103,71,7,2,59,85,34,88,32,84,83,15,30,43,61,64,76,97,17,18,112,94,6,113,114,93,86,77,72,109],"cond_shown":["equaldotanddens","randomdotsizeEA","equaldotanddens","randomdotsizeEA","randomdotsizeEA","equaldotanddens","randomdotsizeEA","randomdotsizeEA","randomdotsizeEA","equaldotsize","equaldotsize","equaldotsize","equaldotsize","equaldotanddens","randomdotsizeEA","randomdotsizeEA","randomdotsizeEA","equaldotanddens","randomdotsizeEA","equaldotanddens","randomdotsizeEA","equaldotsize","randomdotsizeEA","randomdotsizeEA","equaldotsize","equaldotanddens","equaldotsize","randomdotsizeEA","equaldotsize","equaldotsize","equaldotsize","equaldotsize","randomdotsizeEA","equaldotsize","equaldotsize","equaldotanddens","equaldotsize","equaldotanddens","randomdotsizeEA","equaldotsize","equaldotanddens","randomdotsizeEA","equaldotanddens","randomdotsizeEA","equaldotsize","equaldotsize","equaldotanddens","equaldotanddens","equaldotanddens","randomdotsizeEA","equaldotanddens","randomdotsizeEA","randomdotsizeEA","equaldotsize","equaldotsize","equaldotsize","equaldotsize","equaldotsize","equaldotanddens","equaldotsize","equaldotanddens","equaldotsize","equaldotsize","equaldotsize","equaldotanddens","equaldotsize","equaldotanddens","randomdotsizeEA","randomdotsizeEA","equaldotanddens","randomdotsizeEA","randomdotsizeEA","randomdotsizeEA","randomdotsizeEA","randomdotsizeEA","randomdotsizeEA","equaldotsize","equaldotsize","equaldotanddens","equaldotsize","randomdotsizeEA","equaldotanddens","equaldotanddens","equaldotsize","equaldotsize","equaldotanddens","equaldotanddens","equaldotanddens","randomdotsizeEA","equaldotanddens","equaldotanddens","randomdotsizeEA","equaldotanddens","randomdotsizeEA","randomdotsizeEA","equaldotanddens","equaldotanddens","equaldotanddens","randomdotsizeEA","equaldotsize","randomdotsizeEA","equaldotsize","equaldotsize","equaldotanddens","equaldotanddens","equaldotanddens","equaldotanddens","equaldotanddens","randomdotsizeEA","equaldotsize","equaldotanddens","equaldotanddens","equaldotsize","randomdotsizeEA","equaldotsize","equaldotsize","randomdotsizeEA","randomdotsizeEA","equaldotsize","equaldotanddens"],"ratio_trial":[750,900,500,500,500,900,750,900,500,500,900,250,750,750,250,250,250,500,750,900,900,250,500,750,250,750,500,750,250,250,750,900,900,500,500,250,500,250,900,750,750,250,250,750,900,500,250,500,900,750,750,250,750,250,900,500,750,900,900,900,900,900,900,750,250,900,750,750,750,500,250,900,250,500,500,250,250,500,500,500,500,900,900,250,750,250,750,500,900,900,750,900,750,250,900,250,900,500,750,250,900,500,750,750,250,500,500,250,500,750,500,900,750,500,750,900,250,500,250,250],"smaller_num":["3","9","1","9","6","18","3","18","4","3","18","2","3","3","3","1","2","9","3","18","18","2","1","18","6","15","5","15","2","4","15","9","18","2","2","3","4","2","9","9","12","5","3","18","18","2","4","2","18","3","3","3","6","2","18","2","3","9","18","18","18","18","18","12","6","18","18","3","6","6","2","18","3","9","6","2","4","1","10","2","5","9","18","3","15","5","3","9","18","9","18","18","3","2","18","3","9","9","15","3","18","9","3","3","2","2","1","4","9","15","4","9","15","2","6","18","3","2","5","2"],"larger_num":["4","10","2","18","12","20","4","20","8","6","20","8","4","4","12","4","8","18","4","20","20","8","2","24","24","20","10","20","8","16","20","10","20","4","4","12","8","8","10","12","16","20","12","24","20","4","16","4","20","4","4","12","8","8","20","4","4","10","20","20","20","20","20","16","24","20","24","4","8","12","8","20","12","18","12","8","16","2","20","4","10","10","20","12","20","20","4","18","20","10","24","20","4","8","20","12","10","18","20","12","20","18","4","4","8","4","2","16","18","20","8","10","20","4","8","20","12","4","20","8"],"correct_side":[2,2,2,2,1,1,1,1,1,2,1,2,1,2,1,2,1,2,1,1,1,2,2,1,2,2,2,2,1,1,1,1,2,1,2,2,1,2,2,2,2,2,2,1,2,1,2,1,1,2,1,2,1,1,2,1,1,2,2,2,1,1,2,2,2,2,1,1,1,1,1,2,2,2,1,1,1,2,2,1,1,1,1,1,2,2,1,1,1,2,1,1,1,1,2,1,2,1,2,2,1,1,2,1,1,1,2,1,1,2,1,2,2,1,1,1,2,1,2,1],"img_shown":["img/750/equaldotanddens/R/7_Ratio_750_L_3_R_4.png","img/900/randomdotsizeEA/R/6_Ratio_900_L_9_R_10.png","img/500/equaldotanddens/R/15_Ratio_500_L_1_R_2.png","img/500/randomdotsizeEA/R/6_Ratio_500_L_9_R_18.png","img/500/randomdotsizeEA/L/11_Ratio_500_L_12_R_6.png","img/900/equaldotanddens/L/8_Ratio_900_L_20_R_18.png","img/750/randomdotsizeEA/L/9_Ratio_750_L_4_R_3.png","img/900/randomdotsizeEA/L/2_Ratio_900_L_20_R_18.png","img/500/randomdotsizeEA/L/8_Ratio_500_L_8_R_4.png","img/500/equaldotsize/R/2_Ratio_500_L_3_R_6.png","img/900/equaldotsize/L/4_Ratio_900_L_20_R_18.png","img/250/equaldotsize/R/13_Ratio_250_L_2_R_8.png","img/750/equaldotsize/L/8_Ratio_750_L_4_R_3.png","img/750/equaldotanddens/R/12_Ratio_750_L_3_R_4.png","img/250/randomdotsizeEA/L/14_Ratio_250_L_12_R_3.png","img/250/randomdotsizeEA/R/8_Ratio_250_L_1_R_4.png","img/250/randomdotsizeEA/L/1_Ratio_250_L_8_R_2.png","img/500/equaldotanddens/R/1_Ratio_500_L_9_R_18.png","img/750/randomdotsizeEA/L/8_Ratio_750_L_4_R_3.png","img/900/equaldotanddens/L/2_Ratio_900_L_20_R_18.png","img/900/randomdotsizeEA/L/8_Ratio_900_L_20_R_18.png","img/250/equaldotsize/R/13_Ratio_250_L_2_R_8.png","img/500/randomdotsizeEA/R/15_Ratio_500_L_1_R_2.png","img/750/randomdotsizeEA/L/6_Ratio_750_L_24_R_18.png","img/250/equaldotsize/R/6_Ratio_250_L_6_R_24.png","img/750/equaldotanddens/R/4_Ratio_750_L_15_R_20.png","img/500/equaldotsize/R/14_Ratio_500_L_5_R_10.png","img/750/randomdotsizeEA/R/4_Ratio_750_L_15_R_20.png","img/250/equaldotsize/L/1_Ratio_250_L_8_R_2.png","img/250/equaldotsize/L/2_Ratio_250_L_16_R_4.png","img/750/equaldotsize/L/1_Ratio_750_L_20_R_15.png","img/900/equaldotsize/L/1_Ratio_900_L_10_R_9.png","img/900/randomdotsizeEA/R/9_Ratio_900_L_18_R_20.png","img/500/equaldotsize/L/5_Ratio_500_L_4_R_2.png","img/500/equaldotsize/R/9_Ratio_500_L_2_R_4.png","img/250/equaldotanddens/R/9_Ratio_250_L_3_R_12.png","img/500/equaldotsize/L/8_Ratio_500_L_8_R_4.png","img/250/equaldotanddens/R/13_Ratio_250_L_2_R_8.png","img/900/randomdotsizeEA/R/7_Ratio_900_L_9_R_10.png","img/750/equaldotsize/R/15_Ratio_750_L_9_R_12.png","img/750/equaldotanddens/R/11_Ratio_750_L_12_R_16.png","img/250/randomdotsizeEA/R/12_Ratio_250_L_5_R_20.png","img/250/equaldotanddens/R/4_Ratio_250_L_3_R_12.png","img/750/randomdotsizeEA/L/6_Ratio_750_L_24_R_18.png","img/900/equaldotsize/R/14_Ratio_900_L_18_R_20.png","img/500/equaldotsize/L/10_Ratio_500_L_4_R_2.png","img/250/equaldotanddens/R/10_Ratio_250_L_4_R_16.png","img/500/equaldotanddens/L/10_Ratio_500_L_4_R_2.png","img/900/equaldotanddens/L/2_Ratio_900_L_20_R_18.png","img/750/randomdotsizeEA/R/7_Ratio_750_L_3_R_4.png","img/750/equaldotanddens/L/10_Ratio_750_L_4_R_3.png","img/250/randomdotsizeEA/R/9_Ratio_250_L_3_R_12.png","img/750/randomdotsizeEA/L/14_Ratio_750_L_8_R_6.png","img/250/equaldotsize/L/7_Ratio_250_L_8_R_2.png","img/900/equaldotsize/R/9_Ratio_900_L_18_R_20.png","img/500/equaldotsize/L/10_Ratio_500_L_4_R_2.png","img/750/equaldotsize/L/10_Ratio_750_L_4_R_3.png","img/900/equaldotsize/R/7_Ratio_900_L_9_R_10.png","img/900/equaldotanddens/R/11_Ratio_900_L_18_R_20.png","img/900/equaldotsize/R/12_Ratio_900_L_18_R_20.png","img/900/equaldotanddens/L/2_Ratio_900_L_20_R_18.png","img/900/equaldotsize/L/4_Ratio_900_L_20_R_18.png","img/900/equaldotsize/R/9_Ratio_900_L_18_R_20.png","img/750/equaldotsize/R/11_Ratio_750_L_12_R_16.png","img/250/equaldotanddens/R/6_Ratio_250_L_6_R_24.png","img/900/equaldotsize/R/11_Ratio_900_L_18_R_20.png","img/750/equaldotanddens/L/6_Ratio_750_L_24_R_18.png","img/750/randomdotsizeEA/L/9_Ratio_750_L_4_R_3.png","img/750/randomdotsizeEA/L/14_Ratio_750_L_8_R_6.png","img/500/equaldotanddens/L/13_Ratio_500_L_12_R_6.png","img/250/randomdotsizeEA/L/7_Ratio_250_L_8_R_2.png","img/900/randomdotsizeEA/R/12_Ratio_900_L_18_R_20.png","img/250/randomdotsizeEA/R/9_Ratio_250_L_3_R_12.png","img/500/randomdotsizeEA/R/1_Ratio_500_L_9_R_18.png","img/500/randomdotsizeEA/L/11_Ratio_500_L_12_R_6.png","img/250/randomdotsizeEA/L/3_Ratio_250_L_8_R_2.png","img/250/equaldotsize/L/2_Ratio_250_L_16_R_4.png","img/500/equaldotsize/R/15_Ratio_500_L_1_R_2.png","img/500/equaldotanddens/R/3_Ratio_500_L_10_R_20.png","img/500/equaldotsize/L/10_Ratio_500_L_4_R_2.png","img/500/randomdotsizeEA/L/7_Ratio_500_L_10_R_5.png","img/900/equaldotanddens/L/1_Ratio_900_L_10_R_9.png","img/900/equaldotanddens/L/10_Ratio_900_L_20_R_18.png","img/250/equaldotsize/L/14_Ratio_250_L_12_R_3.png","img/750/equaldotsize/R/4_Ratio_750_L_15_R_20.png","img/250/equaldotanddens/R/12_Ratio_250_L_5_R_20.png","img/750/equaldotanddens/L/9_Ratio_750_L_4_R_3.png","img/500/equaldotanddens/L/4_Ratio_500_L_18_R_9.png","img/900/randomdotsizeEA/L/4_Ratio_900_L_20_R_18.png","img/900/equaldotanddens/R/6_Ratio_900_L_9_R_10.png","img/750/equaldotanddens/L/6_Ratio_750_L_24_R_18.png","img/900/randomdotsizeEA/L/8_Ratio_900_L_20_R_18.png","img/750/equaldotanddens/L/10_Ratio_750_L_4_R_3.png","img/250/randomdotsizeEA/L/3_Ratio_250_L_8_R_2.png","img/900/randomdotsizeEA/R/14_Ratio_900_L_18_R_20.png","img/250/equaldotanddens/L/14_Ratio_250_L_12_R_3.png","img/900/equaldotanddens/R/6_Ratio_900_L_9_R_10.png","img/500/equaldotanddens/L/4_Ratio_500_L_18_R_9.png","img/750/randomdotsizeEA/R/3_Ratio_750_L_15_R_20.png","img/250/equaldotsize/R/11_Ratio_250_L_3_R_12.png","img/900/randomdotsizeEA/L/4_Ratio_900_L_20_R_18.png","img/500/equaldotsize/L/4_Ratio_500_L_18_R_9.png","img/750/equaldotsize/R/7_Ratio_750_L_3_R_4.png","img/750/equaldotanddens/L/9_Ratio_750_L_4_R_3.png","img/250/equaldotanddens/L/3_Ratio_250_L_8_R_2.png","img/500/equaldotanddens/L/5_Ratio_500_L_4_R_2.png","img/500/equaldotanddens/R/15_Ratio_500_L_1_R_2.png","img/250/equaldotanddens/L/2_Ratio_250_L_16_R_4.png","img/500/randomdotsizeEA/L/4_Ratio_500_L_18_R_9.png","img/750/equaldotsize/R/5_Ratio_750_L_15_R_20.png","img/500/equaldotanddens/L/8_Ratio_500_L_8_R_4.png","img/900/equaldotanddens/R/5_Ratio_900_L_9_R_10.png","img/750/equaldotsize/R/3_Ratio_750_L_15_R_20.png","img/500/randomdotsizeEA/L/5_Ratio_500_L_4_R_2.png","img/750/equaldotsize/L/14_Ratio_750_L_8_R_6.png","img/900/equaldotsize/L/2_Ratio_900_L_20_R_18.png","img/250/randomdotsizeEA/R/9_Ratio_250_L_3_R_12.png","img/500/randomdotsizeEA/L/10_Ratio_500_L_4_R_2.png","img/250/equaldotsize/R/12_Ratio_250_L_5_R_20.png","img/250/equaldotanddens/L/3_Ratio_250_L_8_R_2.png"],"Rat0":[["12_Ratio_0_L_9_R_0.png","13_Ratio_0_L_6_R_0.png","5_Ratio_0_L_2_R_0.png","6_Ratio_0_L_4_R_0.png","8_Ratio_0_L_6_R_0.png"],["1_Ratio_0_L_0_R_17.png","10_Ratio_0_L_0_R_22.png","11_Ratio_0_L_0_R_1.png","14_Ratio_0_L_0_R_24.png","15_Ratio_0_L_0_R_4.png","2_Ratio_0_L_0_R_5.png","3_Ratio_0_L_0_R_17.png","4_Ratio_0_L_0_R_7.png","7_Ratio_0_L_0_R_19.png","9_Ratio_0_L_0_R_15.png"]],"Rat250":[["1_Ratio_250_L_8_R_2.png","14_Ratio_250_L_12_R_3.png","15_Ratio_250_L_12_R_3.png","2_Ratio_250_L_16_R_4.png","3_Ratio_250_L_8_R_2.png","5_Ratio_250_L_24_R_6.png","7_Ratio_250_L_8_R_2.png"],["10_Ratio_250_L_4_R_16.png","11_Ratio_250_L_3_R_12.png","12_Ratio_250_L_5_R_20.png","13_Ratio_250_L_2_R_8.png","4_Ratio_250_L_3_R_12.png","6_Ratio_250_L_6_R_24.png","8_Ratio_250_L_1_R_4.png","9_Ratio_250_L_3_R_12.png"]],"Rat500":[["10_Ratio_500_L_4_R_2.png","11_Ratio_500_L_12_R_6.png","13_Ratio_500_L_12_R_6.png","4_Ratio_500_L_18_R_9.png","5_Ratio_500_L_4_R_2.png","7_Ratio_500_L_10_R_5.png","8_Ratio_500_L_8_R_4.png"],["1_Ratio_500_L_9_R_18.png","12_Ratio_500_L_1_R_2.png","14_Ratio_500_L_5_R_10.png","15_Ratio_500_L_1_R_2.png","2_Ratio_500_L_3_R_6.png","3_Ratio_500_L_10_R_20.png","6_Ratio_500_L_9_R_18.png","9_Ratio_500_L_2_R_4.png"]],"Rat750":[["1_Ratio_750_L_20_R_15.png","10_Ratio_750_L_4_R_3.png","13_Ratio_750_L_8_R_6.png","14_Ratio_750_L_8_R_6.png","6_Ratio_750_L_24_R_18.png","8_Ratio_750_L_4_R_3.png","9_Ratio_750_L_4_R_3.png"],["11_Ratio_750_L_12_R_16.png","12_Ratio_750_L_3_R_4.png","15_Ratio_750_L_9_R_12.png","2_Ratio_750_L_6_R_8.png","3_Ratio_750_L_15_R_20.png","4_Ratio_750_L_15_R_20.png","5_Ratio_750_L_15_R_20.png","7_Ratio_750_L_3_R_4.png"]],"Rat900":[["1_Ratio_900_L_10_R_9.png","10_Ratio_900_L_20_R_18.png","2_Ratio_900_L_20_R_18.png","4_Ratio_900_L_20_R_18.png","8_Ratio_900_L_20_R_18.png"],["11_Ratio_900_L_18_R_20.png","12_Ratio_900_L_18_R_20.png","13_Ratio_900_L_18_R_20.png","14_Ratio_900_L_18_R_20.png","15_Ratio_900_L_9_R_10.png","3_Ratio_900_L_9_R_10.png","5_Ratio_900_L_9_R_10.png","6_Ratio_900_L_9_R_10.png","7_Ratio_900_L_9_R_10.png","9_Ratio_900_L_18_R_20.png"]],"Rat1000":[["10_Ratio_1000_L_16_R_16.png","11_Ratio_1000_L_6_R_6.png","12_Ratio_1000_L_14_R_14.png","13_Ratio_1000_L_20_R_20.png","15_Ratio_1000_L_15_R_15.png","2_Ratio_1000_L_17_R_17.png","4_Ratio_1000_L_9_R_9.png","5_Ratio_1000_L_6_R_6.png","6_Ratio_1000_L_19_R_19.png","8_Ratio_1000_L_14_R_14.png","9_Ratio_1000_L_25_R_25.png"],["1_Ratio_1000_L_1_R_1.png","14_Ratio_1000_L_17_R_17.png","3_Ratio_1000_L_17_R_17.png","7_Ratio_1000_L_6_R_6.png"]]}},{"start_time":1551790935115,"click_time":1551790939966,"finger_time":1551790935905,"fix_duration":707.4441313220744,"trial":1,"RT":790,"MT":4061,"sideResp":1,"stimulus":"img/900/randomdotsizeEA/R/6_Ratio_900_L_9_R_10.png","xmouse":[809,809,809,809,809,809,809,809,809,809,809,809,809,809,809,809,809,809,809,809,809,809,809,809,809,809,809,809,809,809,809,809,809,809,809,809,816,827,849,866,882,883,883,883,883,883,883,883,883,883,883,883,883,883,883,883,883,883,883,883,883,883,883,883,883,883,883,883,883,883,882,881,881,881,878,876,868,867,867,867,867,867,867,867,867,867,867,867,867,867,867,867,865,865,862,858,856,856,856,856,856,856,856,856,856,856,856,856,856,856,856,856,856,856,856,856,856,856,856,856,856,856,856,856,856,856,856,856,856,856,858,911,994,994,994,994,994,994,994,994,994,994,994,994,994,994,994,994,994,994,994,994,994,994,994,994,994,994,994,994,994,994,994,994,994,994,994,994,994,994,994,994,994,994,994,994,994,994,994,994,994,994,994,994,994,994,994,994,994,994,994,994,994,994,994,994,994,994,1081,1081,1074,1050,1030,991,987,984,983,982,981,981,977,954,926,917,902,898,898,897,897,897,893,848,796,742,705,652,634,623,611,604,598,587,577,568,565,564,560,557,553,548,542,517],"ymouse":[523,523,523,523,523,523,523,523,523,523,523,523,523,523,523,523,523,523,523,523,523,523,523,523,523,523,523,523,523,523,523,523,523,523,523,523,510,498,479,465,454,453,453,453,453,453,453,453,453,453,453,453,453,453,453,453,453,453,453,453,453,453,453,453,453,453,453,453,453,453,453,453,453,453,453,454,456,457,457,457,457,457,457,457,457,457,457,457,457,457,457,457,457,457,457,456,455,455,455,455,455,455,455,455,455,455,455,455,455,455,455,455,455,455,455,455,455,455,455,455,455,455,455,455,455,455,455,455,455,455,465,551,647,647,647,647,647,647,647,647,647,647,647,647,647,647,647,647,647,647,647,647,647,647,647,647,647,647,647,647,647,647,647,647,647,647,647,647,647,647,647,647,647,647,647,647,647,647,647,647,647,647,647,647,647,647,647,647,647,647,647,647,647,647,647,647,647,647,714,674,614,497,442,373,367,363,360,359,356,347,330,302,281,275,266,262,262,262,262,262,258,224,198,179,164,144,136,125,114,104,97,90,88,86,85,84,80,77,75,71,68,54],"timestamp_mouse":[11,53,71,90,109,130,151,170,190,210,229,251,270,290,310,330,350,370,389,410,430,450,470,489,510,530,550,571,589,610,630,650,671,690,709,730,751,770,790,810,831,850,870,890,909,931,951,970,989,1010,1031,1050,1069,1090,1110,1131,1150,1171,1190,1212,1231,1250,1272,1292,1311,1331,1350,1371,1390,1410,1432,1450,1471,1491,1510,1530,1550,1571,1592,1612,1632,1652,1671,1690,1710,1732,1751,1771,1791,1812,1830,1852,1871,1890,1912,1932,1950,1972,1991,2012,2032,2050,2071,2091,2111,2131,2150,2171,2192,2212,2231,2250,2271,2291,2312,2332,2352,2371,2390,2412,2432,2452,2470,2491,2511,2532,2551,2571,2592,2612,2632,2651,2670,2692,2711,2731,2750,2772,2790,2810,2831,2851,2871,2890,2911,2931,2951,2970,2991,3010,3032,3051,3071,3090,3111,3132,3150,3171,3192,3210,3231,3250,3270,3291,3311,3332,3350,3371,3390,3411,3432,3451,3472,3491,3510,3531,3551,3571,3592,3610,3632,3651,3670,3692,3711,3731,3750,3772,3790,3812,3831,3850,3870,3891,3911,3930,3951,3971,3992,4011,4031,4051,4071,4091,4112,4132,4151,4171,4190,4211,4231,4251,4272,4291,4310,4331,4350,4370,4391,4411,4430,4450,4470,4491,4512,4531,4550,4570,4591,4612,4631,4651,4672,4691,4712,4732,4751,4772,4790,4810,4830,4850],"xSR":741.5,"ySR":469.95,"xT1":424.9,"yT1":0,"xT2":1058.1,"yT2":0,"toosoon":0,"cond_shown":"randomdotsizeEA","ratio_trial":900,"smaller_num":"9","larger_num":"10","correct_side":2,"subjID":"ivandanielrocharodelo31","gender":"0","age":"11","school":"6"},{"start_time":1551790942090,"click_time":1551790943626,"finger_time":1551790943265,"fix_duration":1003.928200522352,"trial":2,"RT":1175,"MT":361,"sideResp":2,"stimulus":"img/500/equaldotanddens/R/15_Ratio_500_L_1_R_2.png","xmouse":[799,799,799,799,799,799,799,799,799,799,799,799,799,799,799,799,799,799,799,799,799,799,799,799,799,799,799,799,799,799,799,799,799,799,799,799,799,799,799,799,799,799,799,799,799,799,799,799,799,799,799,799,799,799,799,801,813,829,857,870,880,890,907,938,953,969,984,1001,1051,1075,1091,1103,1112,1128,1134,1140,1153],"ymouse":[547,547,547,547,547,547,547,547,547,547,547,547,547,547,547,547,547,547,547,547,547,547,547,547,547,547,547,547,547,547,547,547,547,547,547,547,547,547,547,547,547,547,547,547,547,547,547,547,547,547,547,547,547,547,547,541,525,506,465,445,428,412,392,368,354,339,323,304,249,209,184,166,152,128,121,112,95],"timestamp_mouse":[16,46,56,76,96,117,135,157,177,195,217,237,257,277,295,315,336,356,375,397,417,435,457,475,496,516,535,556,576,595,615,635,656,675,697,715,735,755,775,797,815,835,856,876,896,915,936,956,976,996,1016,1036,1055,1076,1095,1116,1136,1156,1175,1195,1215,1236,1256,1276,1297,1316,1336,1356,1375,1396,1416,1436,1456,1475,1497,1515,1536],"xSR":741.5,"ySR":469.95,"xT1":424.9,"yT1":0,"xT2":1058.1,"yT2":0,"toosoon":0,"cond_shown":"equaldotanddens","ratio_trial":500,"smaller_num":"1","larger_num":"2","correct_side":2,"subjID":"ivandanielrocharodelo31","gender":"0","age":"11","school":"6"},{"start_time":1551790947949,"click_time":1551790949705,"finger_time":1551790949025,"fix_duration":1162.9145132738824,"trial":3,"RT":1076,"MT":680,"sideResp":1,"stimulus":"img/500/randomdotsizeEA/R/6_Ratio_500_L_9_R_18.png","xmouse":[831,831,831,831,831,831,831,831,831,831,831,831,831,831,831,831,831,831,831,831,831,831,831,831,831,831,831,831,831,831,831,831,831,831,831,831,831,831,831,831,831,831,831,831,831,831,831,831,831,831,831,833,839,852,863,873,883,888,891,891,885,837,811,789,768,745,698,688,688,688,688,688,688,686,665,603,446,388,379,376,376,376,376,376,377,377,411,428],"ymouse":[518,518,518,518,518,518,518,518,518,518,518,518,518,518,518,518,518,518,518,518,518,518,518,518,518,518,518,518,518,518,518,518,518,518,518,518,518,518,518,518,518,518,518,518,518,518,518,518,518,518,518,515,501,476,456,438,417,399,380,358,303,218,186,166,152,141,123,118,118,118,118,118,118,118,128,143,152,140,136,132,124,119,119,119,119,119,99,87],"timestamp_mouse":[16,39,57,77,96,117,137,157,178,197,218,237,258,277,296,317,338,356,377,396,416,437,456,477,498,516,537,556,578,596,616,638,656,678,696,716,737,756,776,798,817,838,856,877,898,917,936,958,976,998,1018,1036,1057,1076,1097,1118,1136,1158,1177,1198,1217,1236,1257,1277,1297,1317,1336,1356,1377,1396,1417,1437,1457,1476,1498,1517,1536,1556,1578,1596,1617,1637,1656,1676,1696,1718,1736,1756],"xSR":741.5,"ySR":469.95,"xT1":424.9,"yT1":0,"xT2":1058.1,"yT2":0,"toosoon":0,"cond_shown":"randomdotsizeEA","ratio_trial":500,"smaller_num":"9","larger_num":"18","correct_side":2,"subjID":"ivandanielrocharodelo31","gender":"0","age":"11","school":"6"},{"start_time":1551790952809,"click_time":1551790953966,"finger_time":1551790953626,"fix_duration":400.24852599552077,"trial":4,"RT":817,"MT":340,"sideResp":1,"stimulus":"img/500/randomdotsizeEA/L/11_Ratio_500_L_12_R_6.png","xmouse":[808,808,808,807,807,807,807,807,807,807,807,807,807,807,807,807,807,809,812,812,812,812,812,812,812,812,812,812,812,812,812,815,815,816,816,816,816,816,816,816,811,802,759,663,618,604,603,603,602,600,600,600,597,597,586,574,553,519],"ymouse":[504,504,504,504,504,504,504,504,504,504,504,504,504,504,504,504,504,500,498,498,498,498,498,498,498,498,498,498,498,498,498,498,498,498,498,498,498,498,497,484,460,428,322,176,129,119,118,118,113,101,98,97,93,92,67,53,40,25],"timestamp_mouse":[16,41,57,77,97,116,136,158,178,196,216,237,257,276,296,317,338,356,378,396,416,436,457,476,498,516,536,556,577,596,616,636,657,677,696,717,737,757,778,797,817,836,856,878,896,916,938,956,978,997,1017,1036,1056,1076,1096,1117,1138,1157],"xSR":741.5,"ySR":469.95,"xT1":424.9,"yT1":0,"xT2":1058.1,"yT2":0,"toosoon":0,"cond_shown":"randomdotsizeEA","ratio_trial":500,"smaller_num":"6","larger_num":"12","correct_side":1,"subjID":"ivandanielrocharodelo31","gender":"0","age":"11","school":"6"},{"start_time":1551790958816,"click_time":1551790960406,"finger_time":1551790959606,"fix_duration":1427.8825130508324,"trial":5,"RT":790,"MT":800,"sideResp":1,"stimulus":"img/900/equaldotanddens/L/8_Ratio_900_L_20_R_18.png","xmouse":[786,786,786,786,786,786,786,786,786,786,786,786,786,786,786,786,786,786,786,786,786,786,786,786,786,786,786,786,786,786,786,786,786,786,786,786,786,786,786,824,860,897,929,954,969,970,970,970,968,967,967,967,967,967,967,966,963,959,945,898,813,738,654,587,551,545,545,545,545,544,543,528,520,513,508,507,502,499,497,493],"ymouse":[496,496,496,496,496,496,496,496,496,496,496,496,496,496,496,496,496,496,496,496,496,496,496,496,496,496,496,496,496,496,496,496,496,496,496,496,496,496,495,453,410,367,318,282,255,255,255,255,255,255,255,255,255,255,255,255,255,254,248,229,213,197,173,155,144,140,140,140,140,140,140,130,125,121,119,118,114,108,104,97],"timestamp_mouse":[11,42,50,70,90,110,129,150,171,189,210,229,250,270,289,310,330,349,369,389,410,430,450,469,490,510,531,549,569,589,610,631,649,669,690,709,731,749,770,790,809,829,850,870,889,909,930,950,969,990,1010,1031,1050,1069,1091,1110,1131,1149,1169,1190,1209,1229,1250,1270,1290,1310,1331,1350,1371,1390,1411,1429,1451,1469,1490,1510,1530,1549,1571,1590],"xSR":741.5,"ySR":469.95,"xT1":424.9,"yT1":0,"xT2":1058.1,"yT2":0,"toosoon":0,"cond_shown":"equaldotanddens","ratio_trial":900,"smaller_num":"18","larger_num":"20","correct_side":1,"subjID":"ivandanielrocharodelo31","gender":"0","age":"11","school":"6"},{"start_time":1551790965541,"click_time":1551790966606,"finger_time":1551790966266,"fix_duration":653.1645422319676,"trial":6,"RT":725,"MT":340,"sideResp":2,"stimulus":"img/750/randomdotsizeEA/L/9_Ratio_750_L_4_R_3.png","xmouse":[785,785,785,785,785,785,785,785,785,785,785,785,785,785,785,785,785,785,785,785,785,785,785,785,785,786,786,786,787,788,788,788,788,789,804,814,829,850,872,920,941,955,965,973,979,981,982,983,984,990,1008,1034,1057,1076],"ymouse":[546,546,546,546,546,546,546,546,546,546,546,546,546,546,546,546,546,544,543,543,543,543,543,543,541,539,538,535,532,529,529,529,529,527,502,479,438,390,341,238,195,171,154,138,122,118,117,117,117,115,108,100,93,88],"timestamp_mouse":[9,37,44,65,85,105,124,144,165,186,206,224,244,265,285,305,325,345,366,385,404,426,444,464,484,505,524,545,565,584,605,624,645,665,685,704,725,745,766,784,805,824,844,864,884,904,925,945,965,985,1006,1024,1045,1065],"xSR":741.5,"ySR":469.95,"xT1":424.9,"yT1":0,"xT2":1058.1,"yT2":0,"toosoon":0,"cond_shown":"randomdotsizeEA","ratio_trial":750,"smaller_num":"3","larger_num":"4","correct_side":1,"subjID":"ivandanielrocharodelo31","gender":"0","age":"11","school":"6"},{"start_time":1551790974818,"click_time":1551790976426,"finger_time":1551790975466,"fix_duration":390.9656135730121,"trial":7,"RT":648,"MT":960,"sideResp":1,"stimulus":"img/900/randomdotsizeEA/L/2_Ratio_900_L_20_R_18.png","xmouse":[795,795,795,795,795,795,795,795,795,795,795,795,795,795,795,795,795,795,795,795,795,795,795,795,795,795,795,795,795,795,795,795,795,799,802,805,811,811,810,800,789,721,627,554,471,381,263,249,249,251,251,251,251,251,251,251,327,352,369,378,380,380,380,383,386,391,407,409,409,409,409,409,409,409,409,409,410,415,420,424,426],"ymouse":[509,509,509,509,509,509,509,509,509,509,509,509,509,509,509,508,505,504,504,504,504,504,504,504,504,504,504,504,504,504,502,481,465,458,454,450,442,440,433,421,408,375,345,325,291,240,102,48,17,6,6,6,6,6,6,6,26,43,55,64,66,73,75,77,78,79,78,76,76,76,76,76,76,76,76,76,76,76,76,76,76],"timestamp_mouse":[9,44,47,69,88,107,128,148,168,189,207,228,249,267,289,308,327,348,369,388,407,429,448,467,488,508,528,548,569,588,608,627,648,668,687,708,727,747,767,787,809,827,848,867,888,908,928,947,967,987,1009,1029,1048,1069,1087,1108,1127,1147,1168,1188,1208,1227,1248,1268,1287,1308,1327,1347,1369,1389,1409,1428,1448,1468,1487,1507,1527,1548,1567,1588,1608],"xSR":741.5,"ySR":469.95,"xT1":424.9,"yT1":0,"xT2":1058.1,"yT2":0,"toosoon":0,"cond_shown":"randomdotsizeEA","ratio_trial":900,"smaller_num":"18","larger_num":"20","correct_side":1,"subjID":"ivandanielrocharodelo31","gender":"0","age":"11","school":"6"},{"start_time":1551790980238,"click_time":1551790981686,"finger_time":1551790980945,"fix_duration":250,"trial":8,"RT":707,"MT":741,"sideResp":1,"stimulus":"img/500/randomdotsizeEA/L/8_Ratio_500_L_8_R_4.png","xmouse":[831,831,831,831,831,831,831,831,831,831,831,831,831,831,831,831,831,831,831,831,831,831,831,831,831,831,831,831,831,831,831,831,831,832,836,846,864,873,875,881,905,915,923,927,930,932,925,861,712,507,182,0,0,0,0,10,20,35,63,115,222,345,365,372,372,372,376,389,412,424,445,454,463],"ymouse":[545,545,545,545,545,545,545,545,545,545,545,545,545,545,545,545,545,545,545,545,545,545,545,545,545,545,545,545,545,545,545,545,545,540,533,518,491,469,462,444,405,390,380,374,365,357,339,316,275,246,198,167,161,161,161,154,150,146,144,137,123,123,123,123,123,123,122,119,115,111,104,101,98],"timestamp_mouse":[8,39,48,68,89,108,127,147,169,187,208,227,249,268,287,308,327,349,369,389,407,428,447,468,488,508,528,548,567,587,609,627,647,668,688,707,727,749,769,788,808,827,847,868,887,908,927,947,968,988,1009,1028,1048,1068,1087,1109,1128,1149,1168,1187,1207,1227,1248,1269,1288,1308,1328,1347,1367,1388,1409,1427,1448],"xSR":741.5,"ySR":469.95,"xT1":424.9,"yT1":0,"xT2":1058.1,"yT2":0,"toosoon":0,"cond_shown":"randomdotsizeEA","ratio_trial":500,"smaller_num":"4","larger_num":"8","correct_side":1,"subjID":"ivandanielrocharodelo31","gender":"0","age":"11","school":"6"},{"start_time":1551790983481,"click_time":1551790984506,"finger_time":1551790984146,"fix_duration":653.2041233327819,"trial":9,"RT":665,"MT":360,"sideResp":2,"stimulus":"img/500/equaldotsize/R/2_Ratio_500_L_3_R_6.png","xmouse":[792,793,793,793,793,793,793,793,793,793,793,793,793,793,793,793,794,794,794,794,794,794,794,794,794,794,794,794,794,794,796,802,832,887,1053,1128,1137,1139,1139,1139,1139,1139,1139,1139,1139,1139,1139,1139,1139,1139,1140,1141],"ymouse":[535,537,538,538,538,538,538,538,538,538,538,538,538,538,538,538,539,539,539,539,539,539,539,539,539,539,539,539,539,539,538,532,498,440,304,228,205,186,178,175,175,173,173,171,170,165,160,154,147,118,100,84],"timestamp_mouse":[8,25,50,65,84,106,124,146,164,185,205,225,244,265,286,304,325,345,365,384,405,426,444,464,485,505,524,546,565,584,605,625,645,665,685,704,724,745,765,784,805,825,844,864,884,905,925,945,965,985,1005,1025],"xSR":741.5,"ySR":469.95,"xT1":424.9,"yT1":0,"xT2":1058.1,"yT2":0,"toosoon":0,"cond_shown":"equaldotsize","ratio_trial":500,"smaller_num":"3","larger_num":"6","correct_side":2,"subjID":"ivandanielrocharodelo31","gender":"0","age":"11","school":"6"},{"start_time":1551790985858,"click_time":1551790986766,"finger_time":1551790986606,"fix_duration":371.4057091293473,"trial":10,"RT":748,"MT":160,"sideResp":2,"stimulus":"img/900/equaldotsize/L/4_Ratio_900_L_20_R_18.png","xmouse":[825,825,825,825,825,825,825,825,825,825,825,825,825,825,825,825,825,825,825,825,825,825,825,825,825,825,825,825,825,825,825,825,825,824,824,824,830,842,863,892,967,996,1017,1034,1048,1060],"ymouse":[511,511,511,511,511,511,511,511,511,511,511,511,511,511,511,511,511,511,511,511,511,511,511,511,511,511,511,511,511,511,511,511,511,512,511,504,491,471,435,384,254,187,128,90,67,51],"timestamp_mouse":[8,38,48,68,88,107,128,147,167,187,208,227,247,269,287,308,329,348,368,388,407,428,449,467,487,508,527,547,568,588,608,628,647,667,687,707,728,748,767,787,809,829,848,869,888,907],"xSR":741.5,"ySR":469.95,"xT1":424.9,"yT1":0,"xT2":1058.1,"yT2":0,"toosoon":0,"cond_shown":"equaldotsize","ratio_trial":900,"smaller_num":"18","larger_num":"20","correct_side":1,"subjID":"ivandanielrocharodelo31","gender":"0","age":"11","school":"6"},{"start_time":1551790988365,"click_time":1551790989026,"finger_time":1551790988866,"fix_duration":559.7990263971959,"trial":11,"RT":501,"MT":160,"sideResp":2,"stimulus":"img/250/equaldotsize/R/13_Ratio_250_L_2_R_8.png","xmouse":[806,806,806,806,806,806,804,804,804,804,804,804,804,804,804,804,804,804,806,806,806,806,806,807,807,813,817,827,848,881,982,1016,1045,1085],"ymouse":[524,524,524,524,524,524,519,514,507,500,498,498,498,498,498,498,498,498,496,494,490,484,482,480,476,466,456,443,421,389,244,178,118,74],"timestamp_mouse":[9,36,42,61,80,100,120,142,161,181,202,221,242,261,282,302,321,340,361,382,400,420,440,460,481,501,521,540,561,580,601,620,641,661],"xSR":741.5,"ySR":469.95,"xT1":424.9,"yT1":0,"xT2":1058.1,"yT2":0,"toosoon":0,"cond_shown":"equaldotsize","ratio_trial":250,"smaller_num":"2","larger_num":"8","correct_side":2,"subjID":"ivandanielrocharodelo31","gender":"0","age":"11","school":"6"},{"start_time":1551790991068,"click_time":1551790992246,"finger_time":1551790991845,"fix_duration":1340.3324811967889,"trial":12,"RT":777,"MT":401,"sideResp":1,"stimulus":"img/750/equaldotsize/L/8_Ratio_750_L_4_R_3.png","xmouse":[801,801,801,801,801,801,801,801,801,801,801,801,801,801,801,801,801,801,801,801,801,801,801,801,801,801,801,801,801,801,801,801,801,801,801,801,794,779,725,642,447,344,334,326,326,334,335,335,335,335,341,346,350,357,363,381,397,418,446],"ymouse":[513,513,513,513,513,513,513,513,513,513,513,513,513,513,513,513,513,513,513,513,513,513,513,513,513,513,513,513,513,513,513,513,513,513,513,513,498,482,433,362,184,85,64,38,26,17,16,16,16,16,15,14,14,14,14,22,31,43,58],"timestamp_mouse":[20,38,58,78,99,118,138,158,178,198,218,238,258,277,299,318,338,357,379,398,418,437,457,479,497,517,538,557,577,599,618,638,657,678,697,719,737,757,777,798,817,839,858,877,897,918,939,959,977,999,1018,1037,1057,1078,1099,1118,1137,1157,1178],"xSR":741.5,"ySR":469.95,"xT1":424.9,"yT1":0,"xT2":1058.1,"yT2":0,"toosoon":0,"cond_shown":"equaldotsize","ratio_trial":750,"smaller_num":"3","larger_num":"4","correct_side":1,"subjID":"ivandanielrocharodelo31","gender":"0","age":"11","school":"6"},{"start_time":1551790993853,"click_time":1551790995086,"finger_time":1551790994585,"fix_duration":666.4228664899144,"trial":13,"RT":732,"MT":501,"sideResp":2,"stimulus":"img/750/equaldotanddens/R/12_Ratio_750_L_3_R_4.png","xmouse":[771,771,771,771,771,771,771,771,771,771,771,771,771,771,771,771,771,771,771,771,771,771,771,771,771,771,771,771,771,771,771,771,771,779,792,806,825,831,838,851,867,897,901,902,902,902,901,889,860,814,756,703,703,703,702,713,747,891,956,1008,1034,1075],"ymouse":[490,490,490,490,490,490,490,490,490,490,490,490,490,490,490,490,490,490,490,490,490,490,490,490,490,490,490,490,490,490,490,490,491,488,480,472,450,434,421,405,389,354,347,345,345,345,345,345,342,331,310,281,281,281,280,277,269,228,196,159,127,61],"timestamp_mouse":[13,41,54,73,93,113,132,153,172,192,212,233,253,273,294,312,332,354,373,393,414,432,452,472,493,513,533,552,574,593,612,633,652,672,692,713,732,754,773,792,813,833,852,873,893,913,934,952,973,992,1014,1033,1052,1073,1092,1112,1132,1152,1173,1193,1213,1233],"xSR":741.5,"ySR":469.95,"xT1":424.9,"yT1":0,"xT2":1058.1,"yT2":0,"toosoon":0,"cond_shown":"equaldotanddens","ratio_trial":750,"smaller_num":"3","larger_num":"4","correct_side":2,"subjID":"ivandanielrocharodelo31","gender":"0","age":"11","school":"6"},{"start_time":1551790996544,"click_time":1551790997525,"finger_time":1551790997225,"fix_duration":537.7197517485075,"trial":14,"RT":681,"MT":300,"sideResp":1,"stimulus":"img/250/randomdotsizeEA/L/14_Ratio_250_L_12_R_3.png","xmouse":[819,819,819,819,819,819,819,819,819,819,819,819,819,819,819,819,819,819,819,819,819,819,819,819,819,819,819,819,819,819,819,819,802,762,700,598,568,498,497,497,497,497,504,507,512,515,516,516,508,489],"ymouse":[533,533,533,533,533,533,533,533,533,533,533,533,533,533,533,533,533,533,533,533,533,533,533,533,533,533,533,533,533,533,533,532,513,477,428,360,343,305,303,298,294,290,278,272,264,256,246,213,136,88],"timestamp_mouse":[8,20,41,61,82,100,122,142,161,181,201,221,240,262,280,301,322,342,362,380,401,422,441,462,481,502,522,541,561,580,601,621,641,661,681,700,721,741,760,780,802,821,842,861,882,900,921,942,962,981],"xSR":741.5,"ySR":469.95,"xT1":424.9,"yT1":0,"xT2":1058.1,"yT2":0,"toosoon":0,"cond_shown":"randomdotsizeEA","ratio_trial":250,"smaller_num":"3","larger_num":"12","correct_side":1,"subjID":"ivandanielrocharodelo31","gender":"0","age":"11","school":"6"},{"start_time":1551790999914,"click_time":1551791000906,"finger_time":1551791000404,"fix_duration":1326.4370766242878,"trial":15,"RT":490,"MT":502,"sideResp":2,"stimulus":"img/250/randomdotsizeEA/R/8_Ratio_250_L_1_R_4.png","xmouse":[805,805,805,805,805,805,805,805,805,805,805,805,805,805,805,805,805,805,805,805,805,806,809,817,852,884,942,961,973,987,992,1000,1014,1031,1065,1077,1079,1079,1079,1081,1083,1085,1088,1088,1088,1088,1088,1088,1088,1090],"ymouse":[525,525,525,525,525,525,525,525,525,525,525,525,525,525,525,525,525,525,525,522,519,513,507,493,448,416,367,323,298,270,263,255,242,227,188,157,141,131,127,123,118,111,106,102,102,102,102,102,102,98],"timestamp_mouse":[13,41,51,70,92,110,130,152,172,192,212,231,251,271,290,311,332,351,372,390,411,432,451,471,490,511,531,552,571,591,611,631,652,671,690,711,731,750,771,791,811,830,851,871,891,911,932,950,971,992],"xSR":741.5,"ySR":469.95,"xT1":424.9,"yT1":0,"xT2":1058.1,"yT2":0,"toosoon":0,"cond_shown":"randomdotsizeEA","ratio_trial":250,"smaller_num":"1","larger_num":"4","correct_side":2,"subjID":"ivandanielrocharodelo31","gender":"0","age":"11","school":"6"},{"start_time":1551791005237,"click_time":1551791005925,"finger_time":1551791005865,"fix_duration":250,"trial":16,"RT":628,"MT":60,"sideResp":1,"stimulus":"img/250/randomdotsizeEA/L/1_Ratio_250_L_8_R_2.png","xmouse":[818,818,818,818,818,818,818,818,818,818,818,818,818,818,818,818,818,818,818,818,818,818,818,818,818,818,818,818,818,805,779,735,671,530,484],"ymouse":[543,543,543,543,543,543,543,543,543,543,543,543,543,543,543,543,543,543,543,543,543,543,543,543,543,543,543,543,541,519,483,418,326,140,74],"timestamp_mouse":[11,37,48,68,88,108,129,148,168,188,208,228,248,268,289,308,328,349,367,388,407,428,448,468,489,507,528,548,568,589,608,628,648,668,688],"xSR":741.5,"ySR":469.95,"xT1":424.9,"yT1":0,"xT2":1058.1,"yT2":0,"toosoon":0,"cond_shown":"randomdotsizeEA","ratio_trial":250,"smaller_num":"2","larger_num":"8","correct_side":1,"subjID":"ivandanielrocharodelo31","gender":"0","age":"11","school":"6"},{"start_time":1551791007433,"click_time":1551791008467,"finger_time":1551791008125,"fix_duration":507.21023387334117,"trial":17,"RT":692,"MT":342,"sideResp":2,"stimulus":"img/500/equaldotanddens/R/1_Ratio_500_L_9_R_18.png","xmouse":[756,756,756,756,756,756,756,756,756,756,756,756,756,756,756,756,756,756,756,756,756,756,756,756,756,756,756,756,756,756,756,756,762,770,812,835,896,919,929,944,953,964,973,980,982,986,991,997,1009,1041,1056,1066],"ymouse":[499,499,499,499,499,499,499,499,499,499,499,499,499,499,499,499,499,499,499,499,499,499,499,499,499,499,499,499,499,499,499,499,491,482,438,417,357,320,293,259,248,234,218,202,181,173,168,163,152,116,98,86],"timestamp_mouse":[12,39,53,72,92,111,133,152,172,192,212,233,253,271,292,313,332,352,372,392,413,433,452,473,493,512,532,552,571,592,612,632,651,673,692,713,731,752,773,792,812,832,852,872,892,912,932,952,971,992,1013,1033],"xSR":741.5,"ySR":469.95,"xT1":424.9,"yT1":0,"xT2":1058.1,"yT2":0,"toosoon":0,"cond_shown":"equaldotanddens","ratio_trial":500,"smaller_num":"9","larger_num":"18","correct_side":2,"subjID":"ivandanielrocharodelo31","gender":"0","age":"11","school":"6"},{"start_time":1551791011457,"click_time":1551791012306,"finger_time":1551791012125,"fix_duration":731.7097622012448,"trial":18,"RT":668,"MT":181,"sideResp":1,"stimulus":"img/750/randomdotsizeEA/L/8_Ratio_750_L_4_R_3.png","xmouse":[783,783,783,783,783,783,783,783,783,783,783,783,783,783,783,783,783,783,783,783,783,783,783,783,783,783,783,783,783,783,783,783,783,756,720,685,651,627,595,575,544,513,487],"ymouse":[518,518,518,518,518,518,518,518,518,518,518,518,518,518,518,518,518,518,518,518,518,518,518,518,518,518,518,518,518,518,518,512,504,418,377,345,319,299,249,210,164,123,91],"timestamp_mouse":[11,37,49,68,88,108,127,148,168,189,207,229,247,268,287,309,328,349,368,388,408,429,449,469,488,509,529,549,569,587,608,628,648,668,689,707,728,748,769,789,808,828,849],"xSR":741.5,"ySR":469.95,"xT1":424.9,"yT1":0,"xT2":1058.1,"yT2":0,"toosoon":0,"cond_shown":"randomdotsizeEA","ratio_trial":750,"smaller_num":"3","larger_num":"4","correct_side":1,"subjID":"ivandanielrocharodelo31","gender":"0","age":"11","school":"6"},{"start_time":1551791013576,"click_time":1551791014325,"finger_time":1551791014165,"fix_duration":250,"trial":19,"RT":589,"MT":160,"sideResp":2,"stimulus":"img/900/equaldotanddens/L/2_Ratio_900_L_20_R_18.png","xmouse":[816,816,816,816,816,816,816,816,816,816,816,816,816,816,816,816,816,816,816,816,816,816,816,816,816,816,816,818,823,834,851,884,964,998,1027,1052,1081,1098],"ymouse":[537,537,537,537,537,537,537,537,537,537,537,537,537,537,537,535,532,525,524,522,522,522,522,521,520,517,512,498,480,453,413,354,228,185,153,129,103,87],"timestamp_mouse":[8,39,50,68,89,109,129,149,169,189,209,228,250,269,289,308,329,349,369,389,409,430,449,469,489,509,529,549,570,589,609,629,649,669,689,709,728,748],"xSR":741.5,"ySR":469.95,"xT1":424.9,"yT1":0,"xT2":1058.1,"yT2":0,"toosoon":0,"cond_shown":"equaldotanddens","ratio_trial":900,"smaller_num":"18","larger_num":"20","correct_side":1,"subjID":"ivandanielrocharodelo31","gender":"0","age":"11","school":"6"},{"start_time":1551791018697,"click_time":1551791019865,"finger_time":1551791019444,"fix_duration":250,"trial":20,"RT":747,"MT":421,"sideResp":1,"stimulus":"img/900/randomdotsizeEA/L/8_Ratio_900_L_20_R_18.png","xmouse":[805,805,805,805,805,805,805,805,805,805,805,805,805,805,805,805,805,805,805,805,805,805,805,805,805,805,805,805,805,805,805,805,805,805,805,805,805,776,734,675,624,591,572,571,571,571,571,569,562,558,555,552,550,550,549,546,542,525,514],"ymouse":[549,548,548,548,548,548,548,548,548,548,548,548,548,548,548,548,548,548,548,548,548,548,548,548,548,548,548,548,548,548,548,548,548,548,548,545,538,438,353,266,190,142,98,89,87,86,86,82,71,68,65,63,62,62,62,62,62,69,74],"timestamp_mouse":[10,28,47,68,88,108,128,147,169,188,209,228,248,268,288,308,328,347,367,389,408,428,448,468,487,508,528,549,568,588,608,627,649,667,688,707,729,747,769,787,808,827,847,869,888,908,928,947,967,988,1009,1027,1047,1069,1088,1108,1129,1148,1167],"xSR":741.5,"ySR":469.95,"xT1":424.9,"yT1":0,"xT2":1058.1,"yT2":0,"toosoon":0,"cond_shown":"randomdotsizeEA","ratio_trial":900,"smaller_num":"18","larger_num":"20","correct_side":1,"subjID":"ivandanielrocharodelo31","gender":"0","age":"11","school":"6"},{"start_time":1551791022324,"click_time":1551791023346,"finger_time":1551791023145,"fix_duration":1137.4472580758365,"trial":21,"RT":821,"MT":201,"sideResp":2,"stimulus":"img/250/equaldotsize/R/13_Ratio_250_L_2_R_8.png","xmouse":[783,783,783,783,783,783,783,783,783,783,783,783,783,783,783,783,783,783,783,783,783,783,783,783,783,783,783,783,783,783,783,783,783,783,783,783,783,783,783,783,796,806,872,909,941,970,982,1008,1025,1043,1067,1103],"ymouse":[484,484,484,484,484,484,484,484,484,484,484,484,484,484,484,484,484,484,484,484,484,484,484,484,484,484,484,484,484,484,484,484,484,484,484,484,484,484,484,484,477,469,412,366,313,237,205,172,153,132,114,79],"timestamp_mouse":[9,37,42,61,82,102,120,142,160,182,200,221,241,261,280,302,322,341,362,381,400,421,442,461,481,502,520,542,561,580,601,621,640,661,682,701,720,741,761,780,801,821,841,861,881,900,920,941,960,981,1002,1021],"xSR":741.5,"ySR":469.95,"xT1":424.9,"yT1":0,"xT2":1058.1,"yT2":0,"toosoon":0,"cond_shown":"equaldotsize","ratio_trial":250,"smaller_num":"2","larger_num":"8","correct_side":2,"subjID":"ivandanielrocharodelo31","gender":"0","age":"11","school":"6"},{"start_time":1551791025123,"click_time":1551791026185,"finger_time":1551791026005,"fix_duration":1116.8266602644003,"trial":22,"RT":882,"MT":180,"sideResp":2,"stimulus":"img/500/randomdotsizeEA/R/15_Ratio_500_L_1_R_2.png","xmouse":[804,804,804,804,804,804,804,804,804,804,804,804,804,804,804,804,804,804,804,804,804,804,804,804,804,804,804,804,804,804,804,804,804,804,804,804,804,804,804,804,804,805,811,821,844,870,908,971,999,1020,1037,1046,1055,1063],"ymouse":[532,532,532,532,532,532,532,532,532,532,532,532,532,532,532,532,532,532,532,532,532,532,532,532,532,532,531,528,528,528,526,525,524,524,524,524,524,524,524,524,524,520,511,493,455,409,343,214,162,120,91,68,30,11],"timestamp_mouse":[8,21,42,62,83,102,121,143,163,182,203,222,242,263,282,301,323,341,362,383,402,421,443,462,483,502,521,541,563,582,602,621,641,662,682,703,721,743,763,782,801,823,842,861,882,901,922,942,962,981,1001,1022,1041,1062],"xSR":741.5,"ySR":469.95,"xT1":424.9,"yT1":0,"xT2":1058.1,"yT2":0,"toosoon":0,"cond_shown":"randomdotsizeEA","ratio_trial":500,"smaller_num":"1","larger_num":"2","correct_side":2,"subjID":"ivandanielrocharodelo31","gender":"0","age":"11","school":"6"},{"start_time":1551791027363,"click_time":1551791031686,"finger_time":1551791028465,"fix_duration":356.53214181777037,"trial":23,"RT":1102,"MT":3221,"sideResp":1,"stimulus":"img/750/randomdotsizeEA/L/6_Ratio_750_L_24_R_18.png","xmouse":[791,791,791,791,791,791,791,791,791,791,791,791,791,791,791,791,790,790,790,790,790,790,790,790,790,790,790,790,790,790,790,790,790,790,790,790,790,790,790,790,790,790,790,790,790,790,790,790,790,790,790,790,790,790,788,771,753,729,701,676,649,635,635,635,635,635,635,635,635,635,635,635,635,635,635,635,635,635,634,642,659,667,676,692,711,754,773,783,788,791,801,838,848,850,850,850,851,852,852,852,852,852,844,820,788,735,725,724,724,724,723,714,692,667,637,590,570,557,545,543,543,543,543,543,543,543,548,572,602,633,705,729,751,774,791,830,853,876,902,927,976,986,992,994,994,995,997,998,998,999,999,999,998,993,973,947,885,847,815,756,647,613,594,579,564,516,483,442,403,383,386,402,422,432,434,434,434,434,435,437,451,544,603,660,720,788,804,808,808,808,808,808,808,809,811,820,852,873,891,911,965,984,992,993,993,993,993,993,991,983,936,911,871,791,689,600,517],"ymouse":[526,526,526,526,526,526,526,526,526,526,526,526,526,526,526,526,526,524,523,523,523,523,523,523,523,523,523,523,523,523,523,523,523,523,523,523,523,523,523,523,523,523,523,523,523,523,523,523,523,523,523,523,522,513,500,443,395,334,271,212,162,135,134,134,134,134,134,134,134,134,134,134,134,134,134,134,134,134,133,132,132,132,132,132,133,139,142,142,142,142,143,148,149,149,149,149,150,150,151,151,151,151,151,151,158,170,172,172,172,172,172,174,177,177,177,177,178,178,175,174,174,174,174,174,174,174,174,174,174,174,180,184,188,192,194,194,194,194,194,194,194,194,192,191,191,189,185,184,184,184,183,183,183,183,183,183,189,192,192,192,192,197,204,211,219,227,231,231,231,231,231,221,212,207,206,206,206,206,206,206,206,192,187,185,185,180,178,178,178,178,178,178,178,177,176,172,160,149,137,126,114,114,114,114,114,114,114,114,113,113,113,113,113,106,100,98,98],"timestamp_mouse":[8,36,42,62,83,102,122,142,161,181,201,222,241,263,283,302,322,342,363,382,402,422,442,462,482,502,522,542,562,582,602,622,641,661,682,702,721,742,761,782,802,821,843,861,882,902,923,941,962,982,1003,1023,1041,1062,1081,1102,1123,1142,1163,1183,1201,1222,1242,1262,1283,1303,1323,1342,1361,1383,1402,1421,1442,1462,1482,1502,1521,1542,1562,1583,1601,1622,1641,1663,1682,1702,1721,1742,1761,1782,1802,1822,1842,1862,1881,1902,1922,1942,1962,1982,2002,2021,2042,2063,2081,2101,2123,2141,2162,2182,2202,2222,2242,2261,2283,2301,2322,2341,2362,2382,2402,2423,2442,2462,2482,2503,2523,2541,2561,2582,2602,2623,2642,2663,2682,2702,2722,2743,2761,2783,2801,2822,2841,2862,2882,2902,2923,2942,2962,2982,3003,3022,3041,3062,3081,3102,3121,3142,3161,3183,3202,3223,3242,3261,3281,3302,3323,3341,3362,3383,3402,3421,3442,3462,3481,3502,3522,3542,3562,3583,3602,3621,3641,3661,3682,3702,3722,3742,3762,3783,3803,3822,3842,3862,3882,3901,3922,3942,3961,3983,4002,4021,4042,4062,4083,4102,4122,4141,4162,4182,4202,4221,4242,4261,4281,4303,4323],"xSR":741.5,"ySR":469.95,"xT1":424.9,"yT1":0,"xT2":1058.1,"yT2":0,"toosoon":0,"cond_shown":"randomdotsizeEA","ratio_trial":750,"smaller_num":"18","larger_num":"24","correct_side":1,"subjID":"ivandanielrocharodelo31","gender":"0","age":"11","school":"6"},{"start_time":1551791038876,"click_time":1551791039784,"finger_time":1551791039445,"fix_duration":250,"trial":24,"RT":569,"MT":339,"sideResp":2,"stimulus":"img/250/equaldotsize/R/6_Ratio_250_L_6_R_24.png","xmouse":[802,802,802,802,802,802,802,802,802,802,802,802,802,802,802,802,802,802,802,802,802,802,802,802,802,802,802,826,863,960,1217,1282,1282,1282,1282,1282,1282,1282,1282,1282,1282,1282,1237,1232,1212,1132],"ymouse":[533,533,533,533,533,533,533,533,533,533,533,533,533,533,533,533,533,533,533,533,533,533,533,533,533,533,533,520,497,410,116,16,16,16,16,16,16,16,16,16,16,16,3,4,5,8],"timestamp_mouse":[9,40,50,68,90,109,129,149,169,190,209,229,249,269,289,309,328,350,369,389,410,429,449,469,489,509,528,549,569,589,609,628,648,670,690,710,729,748,768,788,810,829,849,868,888,908],"xSR":741.5,"ySR":469.95,"xT1":424.9,"yT1":0,"xT2":1058.1,"yT2":0,"toosoon":0,"cond_shown":"equaldotsize","ratio_trial":250,"smaller_num":"6","larger_num":"24","correct_side":2,"subjID":"ivandanielrocharodelo31","gender":"0","age":"11","school":"6"},{"start_time":1551791042297,"click_time":1551791043345,"finger_time":1551791042904,"fix_duration":1451.9663002434477,"trial":25,"RT":607,"MT":441,"sideResp":2,"stimulus":"img/750/equaldotanddens/R/4_Ratio_750_L_15_R_20.png","xmouse":[797,797,797,797,797,797,797,797,797,797,797,797,797,797,797,797,797,797,797,797,797,797,797,797,797,797,797,797,798,802,850,878,907,930,977,1007,1007,1007,1007,1007,1007,1007,1007,1007,1007,1007,1007,1007,1058,1057,1056,1056,1060],"ymouse":[525,525,525,525,525,525,525,525,525,525,525,525,525,525,525,525,525,525,525,525,525,525,525,525,525,525,525,525,524,517,446,393,324,252,82,15,15,15,15,15,15,15,15,15,15,15,15,15,13,24,36,44,54],"timestamp_mouse":[9,40,47,68,89,108,128,149,168,189,209,228,248,268,289,308,327,348,367,389,408,427,449,469,487,508,529,549,568,588,607,627,648,668,689,708,728,747,769,789,809,829,849,869,887,908,928,947,968,987,1008,1028,1048],"xSR":741.5,"ySR":469.95,"xT1":424.9,"yT1":0,"xT2":1058.1,"yT2":0,"toosoon":0,"cond_shown":"equaldotanddens","ratio_trial":750,"smaller_num":"15","larger_num":"20","correct_side":2,"subjID":"ivandanielrocharodelo31","gender":"0","age":"11","school":"6"},{"start_time":1551791047061,"click_time":1551791047724,"finger_time":1551791047605,"fix_duration":935.5736913963433,"trial":26,"RT":544,"MT":119,"sideResp":2,"stimulus":"img/500/equaldotsize/R/14_Ratio_500_L_5_R_10.png","xmouse":[792,792,792,792,792,792,792,792,792,792,792,792,792,792,792,792,792,792,792,792,792,792,792,792,798,808,828,930,976,1012,1049,1072,1097,1104],"ymouse":[525,525,525,525,525,525,525,525,525,525,525,525,525,525,525,525,525,525,525,525,525,525,525,523,519,511,497,386,325,271,207,160,112,97],"timestamp_mouse":[9,25,44,64,84,103,124,144,163,183,204,223,244,263,285,303,324,345,363,384,404,424,444,464,484,504,524,544,564,583,603,623,644,663],"xSR":741.5,"ySR":469.95,"xT1":424.9,"yT1":0,"xT2":1058.1,"yT2":0,"toosoon":0,"cond_shown":"equaldotsize","ratio_trial":500,"smaller_num":"5","larger_num":"10","correct_side":2,"subjID":"ivandanielrocharodelo31","gender":"0","age":"11","school":"6"},{"start_time":1551791050402,"click_time":1551791062245,"finger_time":1551791051244,"fix_duration":356.4349249527589,"trial":27,"RT":842,"MT":11001,"sideResp":1,"stimulus":"img/750/randomdotsizeEA/R/4_Ratio_750_L_15_R_20.png","xmouse":[822,822,822,822,822,822,822,822,822,822,822,822,822,822,822,822,822,822,822,822,822,822,822,822,822,822,822,822,822,822,822,822,822,822,822,822,822,826,831,836,839,841,842,842,842,842,842,842,842,842,842,842,842,842,842,842,842,842,842,842,842,836,833,828,825,817,812,807,803,802,802,802,802,802,802,800,775,754,713,679,624,616,616,616,616,616,616,616,616,616,616,616,616,616,610,606,601,601,601,601,601,601,601,601,601,601,601,606,618,644,677,689,703,719,742,766,811,814,820,820,821,830,836,841,846,851,876,880,886,886,886,886,886,886,886,886,886,886,886,878,849,745,688,631,593,571,565,565,565,565,565,565,565,565,564,564,601,655,771,860,917,952,952,952,953,958,981,997,1002,1004,1005,1009,1009,1009,1009,1009,1009,1009,1004,993,977,922,891,854,816,784,710,687,667,652,639,626,626,626,626,626,623,590,547,497,457,428,428,428,428,428,428,430,456,515,597,765,833,867,888,894,896,899,906,916,937,990,1015,1033,1039,1039,1039,1039,1037,1035,1032,1012,994,966,917,874,809,782,770,760,756,755,752,735,705,670,625,620,620,620,614,573,544,521,502,488,458,456,456,456,456,456,456,460,472,524,763,863,945,1016,1076,1147,1163,1172,1177,1184,1232,1255,1269,1271,1271,1271,1270,1261,1249,1233,1214,1098,1034,965,888,791,770,755,740,723,677,658,636,612,589,549,529,515,508,507,507,507,506,510,519,599,696,799,902,994,1120,1138,1146,1151,1158,1169,1171,1171,1171,1171,1171,1171,1163,1132,1072,908,824,756,717,696,656,618,563,519,485,465,465,465,465,465,452,447,447,447,447,446,487,539,606,685,909,987,1042,1080,1111,1155,1169,1176,1180,1180,1181,1181,1180,1174,1144,1087,938,868,813,759,665,543,496,472,458,454,454,454,454,454,454,454,460,482,522,650,718,777,830,896,940,1001,1017,1025,1025,1028,1038,1042,1044,1044,1044,1044,1044,1044,1035,1035,880,780,689,584,543,517,516,516,516,503,490,472,462,455,455,455,455,459,464,474,580,674,772,919,1081,1143,1189,1225,1251,1287,1292,1293,1294,1298,1302,1310,1310,1310,1310,1303,1278,1238,1155,1091,929,858,793,730,681,626,616,610,607,604,586,563,539,519,507,505,505,505,504,504,505,540,611,714,835,956,1114,1146,1164,1178,1188,1201,1203,1205,1206,1206,1206,1206,1206,1206,1206,1200,1186,1164,1118,1047,873,737,704,665,631,612,596,580,564,554,547,538,534,510,491,482,482,482,482,488,535,665,803,957,1207,1277,1303,1309,1309,1309,1309,1309,1309,1309,1309,1299,1270,1207,1119,870,753,675,638,637,637,631,610,567,504,443,403,403,403,403,403,403,403,403,403,403,403,403,403,403,403,403,403,403,403,403,403,403,403,403,403,403,403,403,403,403,403,403,403,403,403,426,439,452,462,472,483],"ymouse":[517,517,517,517,517,517,517,517,517,517,517,517,517,517,517,517,517,517,517,517,517,517,517,517,517,517,517,517,517,517,517,517,517,517,517,517,517,507,496,485,479,473,472,472,472,472,472,472,472,472,472,472,472,472,472,472,472,472,472,472,472,428,404,377,351,294,274,258,245,235,227,222,222,222,221,221,221,220,218,215,205,203,203,203,203,203,203,203,203,203,203,203,203,203,202,200,196,196,196,196,196,196,195,192,191,189,186,181,173,163,155,151,147,144,142,142,142,142,142,141,141,137,135,132,130,128,125,125,125,125,125,125,125,125,125,125,125,125,125,125,129,137,137,137,137,137,137,137,137,137,137,137,137,137,137,137,142,150,179,204,218,222,222,222,222,220,213,208,206,206,205,202,202,202,202,202,202,202,202,204,206,207,207,205,200,196,186,183,178,178,178,179,179,179,179,179,179,179,179,179,171,163,163,163,163,163,163,162,162,162,172,197,214,221,224,224,224,223,220,217,214,211,211,211,211,211,211,211,211,212,215,224,229,233,238,238,238,238,238,238,238,238,238,241,242,242,242,242,241,241,241,237,232,226,220,215,206,204,204,204,204,204,204,202,201,201,201,201,206,216,224,228,228,227,223,218,190,180,174,174,174,174,175,182,189,196,204,241,265,292,316,342,343,344,343,337,321,313,305,295,286,275,269,265,262,262,262,262,261,257,254,252,252,252,262,276,281,281,277,272,263,248,243,242,241,241,241,241,240,240,240,248,259,266,266,266,254,249,241,234,230,226,226,226,226,226,226,226,226,226,226,226,224,231,240,252,284,293,293,293,287,266,257,252,249,247,246,246,246,246,253,261,278,289,289,289,276,241,227,219,216,215,215,215,215,215,215,214,212,212,216,234,243,251,254,254,254,254,250,247,247,245,242,239,238,238,238,238,238,238,241,241,265,276,288,303,307,307,307,307,307,307,305,298,293,286,285,279,275,270,266,259,251,251,251,254,274,280,280,280,280,274,272,271,270,267,263,256,256,256,256,256,259,264,269,272,272,272,272,272,272,269,266,264,263,262,261,257,252,247,246,245,245,245,244,244,241,235,235,238,252,260,262,262,255,245,236,223,221,219,218,218,218,218,218,218,218,217,222,228,238,248,248,232,224,213,210,210,210,210,210,210,210,210,211,212,212,208,208,208,207,201,189,187,188,210,249,257,260,260,260,260,260,260,260,260,260,260,255,253,250,231,211,202,200,200,200,200,200,200,197,188,176,176,176,176,176,176,176,176,176,176,176,176,176,176,176,176,176,176,176,176,176,176,176,176,176,176,176,176,176,176,176,176,176,176,174,154,145,134,123,109,80],"timestamp_mouse":[8,37,43,63,82,103,123,143,163,184,203,222,243,264,282,303,322,343,364,382,403,424,443,462,483,502,524,544,563,583,603,624,642,663,684,703,723,744,764,783,803,822,842,863,883,902,922,942,963,984,1004,1023,1043,1063,1083,1104,1123,1143,1164,1184,1204,1222,1243,1262,1282,1304,1323,1343,1362,1382,1403,1423,1443,1463,1483,1503,1523,1543,1562,1584,1604,1623,1643,1663,1684,1703,1723,1743,1763,1784,1804,1822,1842,1864,1882,1903,1923,1943,1962,1984,2003,2023,2042,2062,2082,2104,2122,2144,2163,2183,2204,2223,2243,2262,2282,2304,2323,2344,2363,2384,2402,2422,2443,2463,2483,2503,2523,2543,2564,2583,2604,2623,2642,2662,2683,2702,2723,2743,2764,2784,2802,2822,2842,2862,2882,2903,2923,2942,2962,2984,3003,3023,3043,3064,3083,3102,3123,3144,3163,3183,3203,3222,3242,3263,3283,3304,3323,3342,3362,3383,3404,3423,3443,3462,3482,3503,3523,3543,3562,3582,3604,3622,3642,3662,3683,3704,3723,3742,3763,3782,3803,3823,3843,3862,3882,3903,3923,3942,3962,3983,4003,4023,4043,4063,4082,4102,4122,4143,4163,4183,4203,4223,4242,4262,4282,4304,4323,4344,4363,4383,4403,4423,4443,4463,4483,4503,4523,4542,4562,4582,4603,4623,4642,4663,4682,4703,4722,4743,4763,4783,4804,4824,4843,4863,4882,4904,4924,4944,4963,4983,5004,5023,5042,5063,5082,5103,5123,5144,5164,5184,5204,5223,5243,5262,5282,5303,5323,5343,5363,5384,5403,5423,5443,5463,5483,5502,5523,5543,5563,5583,5604,5623,5643,5662,5682,5703,5723,5743,5763,5783,5802,5823,5844,5863,5883,5903,5923,5943,5962,5984,6003,6023,6043,6062,6083,6104,6123,6143,6163,6184,6204,6223,6243,6263,6283,6305,6324,6343,6363,6383,6404,6424,6443,6463,6484,6504,6523,6544,6563,6583,6604,6623,6643,6663,6683,6705,6724,6744,6763,6783,6803,6824,6844,6863,6884,6904,6924,6944,6964,6984,7005,7024,7043,7063,7083,7103,7123,7143,7164,7183,7205,7224,7244,7263,7284,7304,7323,7343,7363,7383,7404,7423,7443,7463,7483,7504,7524,7544,7564,7583,7603,7623,7644,7665,7684,7705,7723,7744,7763,7784,7804,7823,7843,7865,7884,7904,7923,7943,7963,7984,8004,8023,8043,8064,8084,8104,8123,8144,8163,8184,8204,8223,8243,8265,8284,8304,8323,8344,8364,8384,8403,8423,8443,8463,8483,8504,8523,8543,8563,8583,8603,8624,8643,8663,8683,8703,8724,8744,8764,8783,8805,8824,8843,8863,8883,8905,8924,8944,8963,8984,9003,9024,9043,9063,9085,9103,9124,9143,9164,9183,9203,9225,9243,9263,9283,9304,9325,9343,9363,9383,9404,9423,9444,9463,9483,9503,9523,9543,9563,9583,9604,9625,9644,9664,9683,9704,9725,9743,9763,9783,9803,9823,9844,9864,9884,9903,9924,9943,9963,9984,10004,10024,10043,10063,10083,10104,10125,10144,10163,10183,10204,10223,10243,10264,10284,10304,10323,10343,10363,10385,10404,10423,10443,10464,10483,10503,10525,10543,10563,10583,10604,10624,10644,10664,10683,10703,10723,10743,10764,10783,10804,10824,10843,10863,10884,10904,10924,10945,10963,10984,11003,11024,11044,11064,11084,11103,11124,11143,11163,11184,11205,11225,11245,11263,11283,11304,11323,11343,11363,11384,11404,11424,11444,11464,11484,11504,11524,11543,11564,11584,11603,11624,11643,11664,11684,11703,11724,11744,11764,11783,11805,11824,11843],"xSR":741.5,"ySR":469.95,"xT1":424.9,"yT1":0,"xT2":1058.1,"yT2":0,"toosoon":0,"cond_shown":"randomdotsizeEA","ratio_trial":750,"smaller_num":"15","larger_num":"20","correct_side":2,"subjID":"ivandanielrocharodelo31","gender":"0","age":"11","school":"6"},{"start_time":1551791066287,"click_time":1551791066945,"finger_time":1551791066746,"fix_duration":780.3710005084546,"trial":28,"RT":459,"MT":199,"sideResp":2,"stimulus":"img/250/equaldotsize/L/1_Ratio_250_L_8_R_2.png","xmouse":[829,829,829,829,829,829,829,829,829,829,829,829,831,834,834,834,834,834,834,834,834,834,838,842,844,850,859,928,981,1030,1080,1113,1129],"ymouse":[508,508,508,508,508,508,508,508,508,508,508,508,505,501,500,499,497,496,492,490,486,481,463,451,443,435,424,370,325,275,204,146,35],"timestamp_mouse":[18,38,59,80,98,119,139,159,178,198,219,239,258,278,298,318,340,358,378,398,418,438,459,478,498,518,538,559,578,598,619,638,658],"xSR":741.5,"ySR":469.95,"xT1":424.9,"yT1":0,"xT2":1058.1,"yT2":0,"toosoon":0,"cond_shown":"equaldotsize","ratio_trial":250,"smaller_num":"2","larger_num":"8","correct_side":1,"subjID":"ivandanielrocharodelo31","gender":"0","age":"11","school":"6"},{"start_time":1551791074676,"click_time":1551791075627,"finger_time":1551791075306,"fix_duration":789.4830825491638,"trial":29,"RT":630,"MT":321,"sideResp":1,"stimulus":"img/250/equaldotsize/L/2_Ratio_250_L_16_R_4.png","xmouse":[809,809,809,809,809,809,809,809,809,809,809,809,809,809,809,809,809,809,809,809,809,809,809,809,809,809,809,809,809,810,803,783,722,673,622,578,577,577,577,577,576,573,566,564,562,540,529,519],"ymouse":[521,521,521,521,521,521,521,521,521,521,521,521,521,521,521,521,521,521,521,521,521,521,521,521,521,521,521,521,521,518,485,429,285,183,94,28,27,27,27,27,26,26,25,25,25,43,48,54],"timestamp_mouse":[9,39,49,70,89,109,130,149,169,189,211,229,249,270,289,309,329,350,369,389,409,430,449,471,489,511,530,550,569,589,609,630,650,669,689,710,730,749,769,790,809,829,849,869,889,910,929,951],"xSR":741.5,"ySR":469.95,"xT1":424.9,"yT1":0,"xT2":1058.1,"yT2":0,"toosoon":0,"cond_shown":"equaldotsize","ratio_trial":250,"smaller_num":"4","larger_num":"16","correct_side":1,"subjID":"ivandanielrocharodelo31","gender":"0","age":"11","school":"6"},{"start_time":1551791077890,"click_time":1551791078945,"finger_time":1551791078586,"fix_duration":1423.567875894066,"trial":30,"RT":696,"MT":359,"sideResp":1,"stimulus":"img/750/equaldotsize/L/1_Ratio_750_L_20_R_15.png","xmouse":[791,791,791,791,791,791,791,791,791,791,791,791,791,791,791,791,791,791,791,791,791,791,791,791,791,791,791,791,791,791,791,791,790,788,768,745,718,680,655,637,637,637,637,634,607,595,588,582,566,553,540,524,520],"ymouse":[513,513,513,513,513,513,513,513,513,513,513,513,513,513,513,513,513,513,513,513,513,513,513,513,513,513,513,513,513,513,513,513,512,506,459,421,376,328,294,273,273,273,273,267,231,214,200,184,155,139,121,102,98],"timestamp_mouse":[15,45,55,77,95,116,135,155,176,197,215,235,255,276,296,315,337,355,375,395,416,435,456,475,495,516,535,556,575,595,617,635,656,675,696,716,736,755,776,795,816,835,855,876,896,917,935,955,977,995,1015,1036,1055],"xSR":741.5,"ySR":469.95,"xT1":424.9,"yT1":0,"xT2":1058.1,"yT2":0,"toosoon":0,"cond_shown":"equaldotsize","ratio_trial":750,"smaller_num":"15","larger_num":"20","correct_side":1,"subjID":"ivandanielrocharodelo31","gender":"0","age":"11","school":"6"},{"start_time":1551791081277,"click_time":1551791082245,"finger_time":1551791082025,"fix_duration":1230.3426231044557,"trial":31,"RT":748,"MT":220,"sideResp":1,"stimulus":"img/900/equaldotsize/L/1_Ratio_900_L_10_R_9.png","xmouse":[821,821,821,821,821,821,821,821,821,821,821,821,821,821,821,821,821,821,821,821,821,821,821,821,821,821,821,821,821,821,821,821,821,821,820,814,802,786,761,732,667,660,659,658,653,612,573,521,469],"ymouse":[517,517,517,517,517,517,517,517,517,517,517,517,517,517,517,517,517,517,517,517,517,517,517,517,517,517,517,517,517,517,517,517,517,517,517,507,489,466,435,396,317,308,304,302,292,239,195,145,97],"timestamp_mouse":[9,40,48,68,89,109,129,149,168,188,209,228,249,268,288,308,328,348,368,388,409,429,449,468,488,509,529,550,568,589,608,628,648,668,688,708,728,748,768,790,810,828,848,868,890,908,928,948,968],"xSR":741.5,"ySR":469.95,"xT1":424.9,"yT1":0,"xT2":1058.1,"yT2":0,"toosoon":0,"cond_shown":"equaldotsize","ratio_trial":900,"smaller_num":"9","larger_num":"10","correct_side":1,"subjID":"ivandanielrocharodelo31","gender":"0","age":"11","school":"6"},{"start_time":1551791084092,"click_time":1551791085626,"finger_time":1551791084110,"fix_duration":665.2653197721119,"trial":32,"RT":18,"MT":1516,"sideResp":2,"stimulus":"img/900/randomdotsizeEA/R/9_Ratio_900_L_18_R_20.png","xmouse":[793,789,789,787,787,787,787,787,787,787,787,787,787,787,787,787,787,787,787,787,787,787,787,787,787,787,787,785,782,780,780,783,788,793,794,794,794,794,794,794,794,794,794,793,793,793,793,793,793,793,793,793,793,793,793,793,793,793,793,793,793,793,793,793,812,844,881,920,965,981,1000,1013,1024,1035,1047,1082,1097],"ymouse":[464,462,462,462,462,462,462,462,462,462,462,462,462,462,462,462,462,462,462,462,462,462,462,462,462,462,462,462,467,482,501,519,532,541,545,545,545,545,545,546,545,542,542,541,541,541,541,541,541,541,541,540,539,538,538,538,538,538,538,538,538,538,538,535,510,467,413,360,297,274,249,232,218,199,175,108,77],"timestamp_mouse":[18,43,54,74,94,113,134,154,173,193,214,235,254,273,294,313,333,353,373,393,414,434,453,474,494,514,535,555,574,594,613,634,653,674,694,713,733,753,773,794,813,834,853,874,893,914,933,954,975,994,1013,1033,1055,1074,1093,1114,1133,1155,1173,1195,1214,1234,1253,1273,1294,1313,1333,1353,1373,1393,1413,1433,1453,1473,1495,1513,1533],"xSR":741.5,"ySR":469.95,"xT1":424.9,"yT1":0,"xT2":1058.1,"yT2":0,"toosoon":0,"cond_shown":"randomdotsizeEA","ratio_trial":900,"smaller_num":"18","larger_num":"20","correct_side":2,"subjID":"ivandanielrocharodelo31","gender":"0","age":"11","school":"6"},{"start_time":1551791088098,"click_time":1551791089125,"finger_time":1551791088705,"fix_duration":250,"trial":33,"RT":607,"MT":420,"sideResp":1,"stimulus":"img/500/equaldotsize/L/5_Ratio_500_L_4_R_2.png","xmouse":[802,802,802,802,802,802,802,802,802,802,802,802,802,802,802,802,802,802,802,802,802,802,802,802,802,802,802,801,797,777,699,671,647,631,626,625,622,614,608,602,588,572,546,498,414,323,319,324,334,349,396,432],"ymouse":[525,525,525,525,525,525,525,525,525,525,525,525,525,525,525,525,525,525,525,525,525,525,525,525,525,525,525,524,516,488,396,362,326,300,292,290,288,285,281,276,250,230,202,166,110,41,36,31,29,29,41,51],"timestamp_mouse":[8,39,47,67,87,107,127,147,167,187,207,227,249,267,288,309,328,347,367,389,407,427,448,467,487,508,529,547,567,587,607,628,647,669,688,707,728,748,767,788,807,828,848,868,887,907,927,947,967,987,1007,1027],"xSR":741.5,"ySR":469.95,"xT1":424.9,"yT1":0,"xT2":1058.1,"yT2":0,"toosoon":0,"cond_shown":"equaldotsize","ratio_trial":500,"smaller_num":"2","larger_num":"4","correct_side":1,"subjID":"ivandanielrocharodelo31","gender":"0","age":"11","school":"6"},{"start_time":1551791090797,"click_time":1551791091925,"finger_time":1551791091345,"fix_duration":949.8326985063426,"trial":34,"RT":548,"MT":580,"sideResp":2,"stimulus":"img/500/equaldotsize/R/9_Ratio_500_L_2_R_4.png","xmouse":[784,784,784,784,784,784,784,784,784,784,784,784,784,784,784,784,784,784,784,784,784,784,784,784,784,795,816,851,891,933,998,1007,1013,1015,1016,1017,1021,1029,1041,1052,1075,1078,1080,1081,1081,1081,1082,1084,1084,1086,1087,1087,1087,1087,1088,1088,1090],"ymouse":[509,509,509,509,509,509,509,509,509,509,509,509,509,509,509,509,509,509,509,509,509,509,509,509,509,508,495,474,451,420,356,342,331,329,327,324,320,311,289,263,216,204,195,191,190,187,183,177,171,160,141,132,124,117,110,100,96],"timestamp_mouse":[10,37,49,68,89,110,128,149,170,189,209,229,248,268,289,308,329,349,370,388,410,428,448,468,488,509,528,548,569,590,609,628,648,668,688,709,728,748,768,788,808,828,848,870,888,908,928,948,969,989,1009,1029,1049,1070,1088,1109,1128],"xSR":741.5,"ySR":469.95,"xT1":424.9,"yT1":0,"xT2":1058.1,"yT2":0,"toosoon":0,"cond_shown":"equaldotsize","ratio_trial":500,"smaller_num":"2","larger_num":"4","correct_side":2,"subjID":"ivandanielrocharodelo31","gender":"0","age":"11","school":"6"},{"start_time":1551791094703,"click_time":1551791095625,"finger_time":1551791095225,"fix_duration":575.7897111609504,"trial":35,"RT":522,"MT":400,"sideResp":2,"stimulus":"img/250/equaldotanddens/R/9_Ratio_250_L_3_R_12.png","xmouse":[822,822,822,822,822,822,822,822,822,822,822,822,822,822,822,822,822,822,822,822,822,822,822,822,823,832,851,888,948,1007,1098,1114,1122,1124,1124,1124,1115,1108,1106,1106,1109,1110,1110,1113,1117,1120,1126],"ymouse":[528,528,528,528,528,528,528,528,528,528,528,528,528,528,528,528,528,528,528,528,528,528,528,528,527,520,508,483,439,389,305,282,267,262,262,262,257,248,237,222,204,173,160,139,127,108,63],"timestamp_mouse":[2,36,42,63,83,102,122,143,162,183,202,222,243,264,283,302,322,343,364,383,403,422,444,462,483,504,522,542,562,582,603,622,643,662,683,702,722,743,762,783,803,823,842,863,882,902,922],"xSR":741.5,"ySR":469.95,"xT1":424.9,"yT1":0,"xT2":1058.1,"yT2":0,"toosoon":0,"cond_shown":"equaldotanddens","ratio_trial":250,"smaller_num":"3","larger_num":"12","correct_side":2,"subjID":"ivandanielrocharodelo31","gender":"0","age":"11","school":"6"},{"start_time":1551791098285,"click_time":1551791099325,"finger_time":1551791098746,"fix_duration":737.0332490799108,"trial":36,"RT":461,"MT":579,"sideResp":1,"stimulus":"img/500/equaldotsize/L/8_Ratio_500_L_8_R_4.png","xmouse":[819,819,819,819,819,819,819,819,819,819,819,819,819,819,819,819,819,819,819,819,819,818,820,824,827,827,827,807,802,793,785,777,770,768,764,750,728,652,605,543,483,450,430,426,426,426,426,426,426,426,428,437,456],"ymouse":[507,507,507,507,507,507,507,507,507,507,507,507,507,507,507,507,507,507,507,507,507,506,489,467,429,370,302,171,130,101,77,64,59,59,59,61,62,67,75,93,110,121,127,129,129,129,129,129,129,129,128,120,94],"timestamp_mouse":[10,20,40,60,81,100,120,141,161,181,201,220,241,261,281,301,320,342,360,380,400,420,441,461,480,502,522,540,561,580,601,620,642,660,680,701,721,740,760,781,801,820,840,861,880,900,921,941,961,981,1000,1020,1040],"xSR":741.5,"ySR":469.95,"xT1":424.9,"yT1":0,"xT2":1058.1,"yT2":0,"toosoon":0,"cond_shown":"equaldotsize","ratio_trial":500,"smaller_num":"4","larger_num":"8","correct_side":1,"subjID":"ivandanielrocharodelo31","gender":"0","age":"11","school":"6"},{"start_time":1551791101346,"click_time":1551791102285,"finger_time":1551791101785,"fix_duration":1019.2316825248007,"trial":37,"RT":439,"MT":500,"sideResp":2,"stimulus":"img/250/equaldotanddens/R/13_Ratio_250_L_2_R_8.png","xmouse":[770,770,770,770,770,770,770,770,770,770,770,770,770,770,770,770,770,770,770,770,778,803,861,941,1185,1308,1384,1415,1424,1425,1425,1425,1425,1423,1405,1377,1337,1291,1247,1201,1181,1175,1167,1157,1145,1122,1110,1100],"ymouse":[505,505,505,505,505,505,505,505,505,505,505,505,505,505,505,505,505,505,505,505,502,485,455,411,309,263,230,216,212,212,212,212,212,211,209,206,206,206,206,203,199,196,190,180,164,124,100,78],"timestamp_mouse":[1,35,39,59,79,100,120,141,159,179,201,219,241,261,279,300,320,339,360,379,400,419,439,460,480,499,519,539,559,579,601,619,640,660,680,700,720,739,759,779,800,819,839,860,879,899,919,939],"xSR":741.5,"ySR":469.95,"xT1":424.9,"yT1":0,"xT2":1058.1,"yT2":0,"toosoon":0,"cond_shown":"equaldotanddens","ratio_trial":250,"smaller_num":"2","larger_num":"8","correct_side":2,"subjID":"ivandanielrocharodelo31","gender":"0","age":"11","school":"6"},{"start_time":1551791105497,"click_time":1551791106765,"finger_time":1551791106005,"fix_duration":409.5895822716915,"trial":38,"RT":508,"MT":760,"sideResp":2,"stimulus":"img/900/randomdotsizeEA/R/7_Ratio_900_L_9_R_10.png","xmouse":[775,775,775,775,775,775,775,775,775,775,775,775,775,775,775,775,775,775,775,775,774,774,782,785,787,789,789,795,801,809,819,834,876,888,894,895,898,915,928,941,954,966,983,989,992,994,995,1004,1016,1023,1027,1028,1029,1029,1029,1031,1034,1041,1046,1049,1051,1051,1058,1064],"ymouse":[495,495,495,495,495,495,495,495,495,495,495,495,495,495,495,495,495,495,495,495,495,493,482,476,471,466,463,456,445,431,413,387,322,304,293,286,281,252,234,216,197,177,142,129,118,105,95,72,57,49,46,44,43,43,43,42,42,40,38,37,37,37,35,35],"timestamp_mouse":[11,37,48,68,88,109,129,148,168,188,209,228,249,269,288,309,329,348,368,388,409,430,450,468,490,508,528,548,568,589,608,630,649,669,688,709,729,749,769,789,808,828,849,870,888,909,928,948,968,989,1009,1028,1049,1068,1089,1108,1130,1148,1168,1189,1209,1228,1248,1268],"xSR":741.5,"ySR":469.95,"xT1":424.9,"yT1":0,"xT2":1058.1,"yT2":0,"toosoon":0,"cond_shown":"randomdotsizeEA","ratio_trial":900,"smaller_num":"9","larger_num":"10","correct_side":2,"subjID":"ivandanielrocharodelo31","gender":"0","age":"11","school":"6"},{"start_time":1551791109030,"click_time":1551791109986,"finger_time":1551791109665,"fix_duration":1383.3907333034626,"trial":39,"RT":635,"MT":321,"sideResp":2,"stimulus":"img/750/equaldotsize/R/15_Ratio_750_L_9_R_12.png","xmouse":[783,783,783,783,783,783,783,783,783,783,783,783,783,783,783,783,783,783,783,783,783,783,783,783,783,783,783,783,784,798,819,888,942,996,1037,1065,1066,1066,1066,1066,1066,1068,1076,1086,1094,1109,1109,1109],"ymouse":[533,533,533,533,533,533,533,533,533,533,533,533,533,533,533,533,533,533,533,533,533,533,533,533,533,533,533,533,532,518,500,432,383,336,302,276,275,275,275,275,275,268,252,228,200,135,109,85],"timestamp_mouse":[15,35,56,76,96,116,136,156,176,197,215,235,255,275,296,316,336,356,376,395,415,436,455,475,495,516,535,555,576,597,615,635,656,676,695,716,735,755,777,795,816,835,855,876,897,916,935,956],"xSR":741.5,"ySR":469.95,"xT1":424.9,"yT1":0,"xT2":1058.1,"yT2":0,"toosoon":0,"cond_shown":"equaldotsize","ratio_trial":750,"smaller_num":"9","larger_num":"12","correct_side":2,"subjID":"ivandanielrocharodelo31","gender":"0","age":"11","school":"6"},{"start_time":1551791111771,"click_time":1551791112765,"finger_time":1551791112445,"fix_duration":463.51556216560607,"trial":40,"RT":674,"MT":320,"sideResp":2,"stimulus":"img/750/equaldotanddens/R/11_Ratio_750_L_12_R_16.png","xmouse":[812,812,812,812,812,812,812,812,812,812,812,812,812,812,812,812,812,812,812,812,812,812,812,812,812,812,812,812,812,812,813,816,826,842,887,910,926,938,949,969,985,994,1001,1008,1026,1040,1055,1070,1087,1114],"ymouse":[547,547,547,547,547,547,547,547,547,547,547,547,547,547,547,547,547,547,547,547,547,547,547,547,547,547,547,547,547,547,545,543,531,513,457,430,405,379,351,306,277,259,248,236,210,193,174,153,130,89],"timestamp_mouse":[15,39,55,75,94,115,134,155,174,195,216,234,255,274,294,314,336,354,374,395,416,435,455,475,495,515,536,556,576,595,614,635,654,674,694,714,734,755,775,794,814,835,854,874,894,915,934,954,974,994],"xSR":741.5,"ySR":469.95,"xT1":424.9,"yT1":0,"xT2":1058.1,"yT2":0,"toosoon":0,"cond_shown":"equaldotanddens","ratio_trial":750,"smaller_num":"12","larger_num":"16","correct_side":2,"subjID":"ivandanielrocharodelo31","gender":"0","age":"11","school":"6"},{"start_time":1551791115860,"click_time":1551791117145,"finger_time":1551791116846,"fix_duration":732.1750140378057,"trial":41,"RT":986,"MT":299,"sideResp":2,"stimulus":"img/250/randomdotsizeEA/R/12_Ratio_250_L_5_R_20.png","xmouse":[800,800,800,800,800,800,800,800,800,800,800,800,800,800,800,800,800,800,800,800,800,800,800,800,800,800,800,800,800,800,800,800,800,800,800,800,800,800,800,800,800,800,800,800,800,800,800,798,789,775,762,761,761,761,761,761,765,773,788,816,919,975,1025,1069,1104],"ymouse":[543,543,543,543,543,543,543,543,543,543,543,543,543,543,543,543,543,543,543,543,543,543,543,543,543,543,543,543,543,543,543,543,543,543,543,543,543,543,543,543,543,543,543,543,543,543,538,517,492,469,446,444,444,444,444,440,436,430,420,400,314,259,197,142,97],"timestamp_mouse":[8,25,45,66,85,105,125,145,165,186,205,226,246,266,286,307,325,345,365,385,405,426,446,465,486,507,525,545,565,585,606,625,645,666,685,704,726,745,764,785,804,824,845,865,885,904,924,946,966,986,1005,1026,1044,1065,1084,1105,1125,1145,1165,1185,1204,1224,1244,1266,1284],"xSR":741.5,"ySR":469.95,"xT1":424.9,"yT1":0,"xT2":1058.1,"yT2":0,"toosoon":0,"cond_shown":"randomdotsizeEA","ratio_trial":250,"smaller_num":"5","larger_num":"20","correct_side":2,"subjID":"ivandanielrocharodelo31","gender":"0","age":"11","school":"6"},{"start_time":1551791120640,"click_time":1551791121684,"finger_time":1551791121205,"fix_duration":1254.2708015010387,"trial":42,"RT":565,"MT":479,"sideResp":2,"stimulus":"img/250/equaldotanddens/R/4_Ratio_250_L_3_R_12.png","xmouse":[813,813,813,813,813,813,813,813,813,813,813,813,813,813,813,813,813,813,813,813,813,813,813,813,815,816,820,836,844,852,859,864,878,894,906,923,945,985,996,1001,1002,1002,1002,1002,1002,1006,1012,1012,1016,1020,1027,1043,1075],"ymouse":[520,520,520,520,520,520,520,520,520,520,520,520,520,520,520,520,520,520,520,520,520,520,520,520,518,514,507,487,475,464,454,444,420,397,376,350,317,259,239,229,225,225,225,225,224,219,206,197,181,164,142,115,68],"timestamp_mouse":[12,24,45,65,85,106,125,145,166,184,205,226,244,266,284,305,326,345,365,386,405,425,444,466,484,506,524,545,565,585,604,624,644,665,685,706,724,745,765,784,805,825,844,865,886,904,926,945,965,986,1006,1025,1044],"xSR":741.5,"ySR":469.95,"xT1":424.9,"yT1":0,"xT2":1058.1,"yT2":0,"toosoon":0,"cond_shown":"equaldotanddens","ratio_trial":250,"smaller_num":"3","larger_num":"12","correct_side":2,"subjID":"ivandanielrocharodelo31","gender":"0","age":"11","school":"6"},{"start_time":1551791122736,"click_time":1551791123885,"finger_time":1551791123525,"fix_duration":250,"trial":43,"RT":789,"MT":360,"sideResp":1,"stimulus":"img/750/randomdotsizeEA/L/6_Ratio_750_L_24_R_18.png","xmouse":[813,813,813,813,813,813,813,813,813,813,813,813,813,813,813,813,813,813,813,813,813,813,813,813,813,813,813,813,813,813,813,813,813,813,813,813,813,807,795,780,761,727,675,659,644,625,607,567,553,551,546,541,527,516,505,495,490,488],"ymouse":[494,494,494,494,494,494,494,494,494,494,494,494,494,494,494,494,494,494,494,494,494,494,494,494,494,494,494,494,494,494,494,494,494,494,494,494,494,489,470,449,426,390,329,306,283,261,242,212,202,197,187,178,154,140,125,110,102,90],"timestamp_mouse":[10,34,48,68,89,109,129,148,170,188,208,229,249,270,290,309,330,348,369,388,409,428,448,469,488,510,529,549,569,589,609,629,648,669,688,708,729,748,769,789,810,828,848,868,888,909,929,948,969,988,1009,1029,1049,1068,1088,1109,1129,1149],"xSR":741.5,"ySR":469.95,"xT1":424.9,"yT1":0,"xT2":1058.1,"yT2":0,"toosoon":0,"cond_shown":"randomdotsizeEA","ratio_trial":750,"smaller_num":"18","larger_num":"24","correct_side":1,"subjID":"ivandanielrocharodelo31","gender":"0","age":"11","school":"6"},{"start_time":1551791125342,"click_time":1551791126566,"finger_time":1551791126126,"fix_duration":576.2478818854031,"trial":44,"RT":784,"MT":440,"sideResp":2,"stimulus":"img/900/equaldotsize/R/14_Ratio_900_L_18_R_20.png","xmouse":[812,812,812,812,812,812,812,812,812,812,812,812,812,812,812,812,812,812,812,812,812,812,812,812,812,812,812,812,812,812,812,812,812,812,812,812,812,812,821,831,842,853,878,891,903,915,930,954,983,988,992,994,999,1003,1007,1011,1024,1042,1049,1058,1068,1079],"ymouse":[479,479,479,479,479,479,479,479,479,479,479,479,479,479,479,479,479,479,479,479,479,479,479,479,479,479,479,479,479,479,479,479,479,479,479,479,479,479,472,463,452,441,415,399,385,368,348,318,275,259,245,235,223,217,211,205,188,155,138,120,102,82],"timestamp_mouse":[8,22,52,63,83,102,124,143,163,183,202,223,243,263,284,302,323,343,362,383,404,422,442,463,483,503,523,542,562,583,603,623,642,663,682,702,723,742,763,784,803,824,843,863,883,904,922,943,963,984,1002,1024,1042,1063,1083,1103,1122,1143,1163,1182,1203,1224],"xSR":741.5,"ySR":469.95,"xT1":424.9,"yT1":0,"xT2":1058.1,"yT2":0,"toosoon":0,"cond_shown":"equaldotsize","ratio_trial":900,"smaller_num":"18","larger_num":"20","correct_side":2,"subjID":"ivandanielrocharodelo31","gender":"0","age":"11","school":"6"},{"start_time":1551791128776,"click_time":1551791129665,"finger_time":1551791129345,"fix_duration":1188.658771027572,"trial":45,"RT":569,"MT":320,"sideResp":1,"stimulus":"img/500/equaldotsize/L/10_Ratio_500_L_4_R_2.png","xmouse":[789,789,789,789,789,789,789,789,789,789,789,789,789,789,789,789,789,789,789,789,789,789,789,789,789,789,789,786,773,742,697,612,590,577,574,573,572,572,572,572,572,571,563,547,499],"ymouse":[499,499,499,499,499,499,499,499,499,499,499,499,499,499,499,499,499,499,499,499,499,499,499,499,499,499,497,483,469,443,410,315,278,237,223,216,211,209,209,209,205,195,176,144,76],"timestamp_mouse":[9,42,50,68,88,109,130,149,169,189,209,229,249,270,290,310,330,348,369,389,409,429,449,469,489,509,530,549,569,590,609,629,649,669,689,708,728,748,770,790,811,829,848,869,889],"xSR":741.5,"ySR":469.95,"xT1":424.9,"yT1":0,"xT2":1058.1,"yT2":0,"toosoon":0,"cond_shown":"equaldotsize","ratio_trial":500,"smaller_num":"2","larger_num":"4","correct_side":1,"subjID":"ivandanielrocharodelo31","gender":"0","age":"11","school":"6"},{"start_time":1551791130776,"click_time":1551791132224,"finger_time":1551791131385,"fix_duration":250,"trial":46,"RT":609,"MT":839,"sideResp":2,"stimulus":"img/250/equaldotanddens/R/10_Ratio_250_L_4_R_16.png","xmouse":[833,833,833,833,833,833,833,833,833,833,833,833,833,833,833,833,833,833,833,833,833,833,833,833,833,833,833,833,833,838,845,878,899,940,978,1013,1092,1125,1142,1151,1156,1159,1160,1160,1160,1160,1160,1160,1160,1160,1160,1160,1160,1160,1160,1160,1160,1160,1160,1160,1160,1160,1160,1160,1160,1160,1160,1160,1160,1160,1160,1157,1150],"ymouse":[495,495,495,495,495,495,495,495,495,495,495,495,495,495,495,495,495,495,495,495,495,495,495,495,495,495,495,495,495,493,485,448,424,372,325,282,188,151,130,118,111,107,107,105,104,104,104,104,104,104,104,104,104,104,104,104,104,104,104,104,104,104,104,104,104,104,104,104,104,103,103,101,99],"timestamp_mouse":[9,41,49,69,89,109,128,149,169,189,208,228,249,268,288,309,330,349,369,389,409,430,450,468,488,509,528,550,569,589,609,628,649,669,690,709,729,749,769,789,808,829,848,869,889,910,928,948,968,990,1010,1029,1049,1070,1088,1109,1129,1149,1169,1189,1210,1230,1249,1270,1288,1309,1329,1348,1370,1389,1409,1429,1448],"xSR":741.5,"ySR":469.95,"xT1":424.9,"yT1":0,"xT2":1058.1,"yT2":0,"toosoon":0,"cond_shown":"equaldotanddens","ratio_trial":250,"smaller_num":"4","larger_num":"16","correct_side":2,"subjID":"ivandanielrocharodelo31","gender":"0","age":"11","school":"6"},{"start_time":1551791134065,"click_time":1551791134706,"finger_time":1551791134585,"fix_duration":979.8802281894901,"trial":47,"RT":520,"MT":121,"sideResp":1,"stimulus":"img/500/equaldotanddens/L/10_Ratio_500_L_4_R_2.png","xmouse":[791,791,791,791,791,791,791,791,791,791,791,791,791,791,791,791,791,791,791,791,791,791,790,788,784,773,754,669,630,595,566,537,483],"ymouse":[535,535,535,535,535,535,535,535,535,535,535,535,535,535,535,535,535,535,535,535,535,535,535,525,506,477,434,297,242,190,149,108,52],"timestamp_mouse":[12,20,40,60,79,101,120,139,160,181,200,219,241,261,280,300,320,340,359,380,399,420,441,459,480,501,520,539,559,581,600,619,641],"xSR":741.5,"ySR":469.95,"xT1":424.9,"yT1":0,"xT2":1058.1,"yT2":0,"toosoon":0,"cond_shown":"equaldotanddens","ratio_trial":500,"smaller_num":"2","larger_num":"4","correct_side":1,"subjID":"ivandanielrocharodelo31","gender":"0","age":"11","school":"6"},{"start_time":1551791137070,"click_time":1551791138225,"finger_time":1551791138025,"fix_duration":1284.455803173279,"trial":48,"RT":955,"MT":200,"sideResp":2,"stimulus":"img/900/equaldotanddens/L/2_Ratio_900_L_20_R_18.png","xmouse":[795,795,795,795,795,795,795,795,795,795,795,795,795,795,795,795,795,795,795,795,795,795,795,795,795,795,795,795,795,795,795,795,795,795,795,795,795,795,795,795,796,796,797,797,798,801,808,837,869,909,948,1013,1035,1051,1066,1074,1082,1097],"ymouse":[510,510,510,510,510,510,510,510,510,510,510,510,510,510,510,510,510,510,510,510,510,510,510,510,510,510,510,510,510,510,510,510,510,510,510,510,510,510,510,510,508,507,505,503,500,493,479,434,388,331,278,189,161,141,122,112,102,79],"timestamp_mouse":[16,35,55,75,95,114,136,155,175,194,216,235,254,276,294,315,336,356,374,394,416,435,456,475,496,514,535,556,574,595,614,636,655,675,695,715,735,754,775,795,814,835,855,875,895,915,935,955,974,996,1014,1035,1054,1075,1094,1116,1134,1154],"xSR":741.5,"ySR":469.95,"xT1":424.9,"yT1":0,"xT2":1058.1,"yT2":0,"toosoon":0,"cond_shown":"equaldotanddens","ratio_trial":900,"smaller_num":"18","larger_num":"20","correct_side":1,"subjID":"ivandanielrocharodelo31","gender":"0","age":"11","school":"6"},{"start_time":1551791144050,"click_time":1551791145125,"finger_time":1551791144565,"fix_duration":482.65009024339923,"trial":49,"RT":515,"MT":560,"sideResp":2,"stimulus":"img/750/randomdotsizeEA/R/7_Ratio_750_L_3_R_4.png","xmouse":[788,788,788,788,788,788,788,788,788,788,788,788,788,788,788,788,788,788,788,788,784,774,769,760,760,760,760,765,778,785,793,805,821,913,968,1022,1068,1101,1151,1180,1209,1233,1251,1254,1254,1254,1254,1254,1239,1227,1214,1197,1173,1101],"ymouse":[536,536,536,536,536,536,536,536,536,536,536,536,536,536,536,536,536,534,532,525,514,495,487,475,474,469,459,444,406,389,373,355,338,295,279,265,251,242,217,201,185,167,143,128,127,126,126,126,126,127,127,124,116,95],"timestamp_mouse":[15,40,55,75,95,114,136,154,174,195,216,235,255,276,295,315,334,354,374,395,416,434,456,475,494,515,534,556,575,595,615,634,655,675,695,714,735,756,775,794,814,836,856,875,895,915,935,956,976,994,1015,1036,1055,1075],"xSR":741.5,"ySR":469.95,"xT1":424.9,"yT1":0,"xT2":1058.1,"yT2":0,"toosoon":0,"cond_shown":"randomdotsizeEA","ratio_trial":750,"smaller_num":"3","larger_num":"4","correct_side":2,"subjID":"ivandanielrocharodelo31","gender":"0","age":"11","school":"6"},{"start_time":1551791148604,"click_time":1551791149745,"finger_time":1551791149105,"fix_duration":1336.479970235473,"trial":50,"RT":501,"MT":640,"sideResp":1,"stimulus":"img/750/equaldotanddens/L/10_Ratio_750_L_4_R_3.png","xmouse":[824,824,824,824,824,824,824,824,824,824,824,824,824,824,824,824,824,824,824,824,824,824,824,823,794,710,591,331,222,153,120,109,115,124,127,129,129,133,136,143,150,162,192,264,332,399,448,488,491,491,491,491,491,491,490,487,479,474],"ymouse":[543,543,543,543,543,543,543,543,543,543,543,543,543,543,543,543,543,543,543,543,543,543,543,538,524,488,432,304,242,194,162,144,113,97,90,85,81,75,73,69,66,63,62,91,121,149,173,196,197,197,197,197,197,191,174,151,122,76],"timestamp_mouse":[8,21,41,61,81,101,122,140,161,181,201,221,242,261,282,300,320,341,360,382,402,421,440,461,481,501,522,541,561,580,601,622,640,662,681,701,722,741,762,781,802,822,840,860,880,901,921,941,962,981,1001,1020,1041,1062,1082,1101,1121,1140],"xSR":741.5,"ySR":469.95,"xT1":424.9,"yT1":0,"xT2":1058.1,"yT2":0,"toosoon":0,"cond_shown":"equaldotanddens","ratio_trial":750,"smaller_num":"3","larger_num":"4","correct_side":1,"subjID":"ivandanielrocharodelo31","gender":"0","age":"11","school":"6"},{"start_time":1551791151936,"click_time":1551791153124,"finger_time":1551791152645,"fix_duration":1090.91741509324,"trial":51,"RT":709,"MT":479,"sideResp":2,"stimulus":"img/250/randomdotsizeEA/R/9_Ratio_250_L_3_R_12.png","xmouse":[807,807,807,807,807,807,807,807,807,807,807,807,807,807,807,807,807,807,807,807,807,807,807,807,807,807,807,807,807,807,807,807,807,808,811,839,862,890,916,935,946,959,962,962,962,968,974,981,988,993,998,1003,1010,1024,1034,1035,1040,1049,1058,1060],"ymouse":[511,511,511,511,511,510,510,510,510,510,510,510,510,510,510,510,510,510,510,510,510,510,510,510,510,504,501,500,500,500,500,498,494,484,477,419,365,300,236,185,147,115,109,109,109,102,97,90,88,86,86,86,86,86,86,86,86,87,90,90],"timestamp_mouse":[9,41,50,70,89,109,129,149,169,188,208,229,249,269,288,309,330,349,369,389,408,428,449,469,488,509,529,548,569,588,608,629,649,668,689,709,728,750,768,789,809,828,849,870,888,909,929,949,969,990,1010,1028,1049,1069,1089,1109,1130,1148,1168,1188],"xSR":741.5,"ySR":469.95,"xT1":424.9,"yT1":0,"xT2":1058.1,"yT2":0,"toosoon":0,"cond_shown":"randomdotsizeEA","ratio_trial":250,"smaller_num":"3","larger_num":"12","correct_side":2,"subjID":"ivandanielrocharodelo31","gender":"0","age":"11","school":"6"},{"start_time":1551791158111,"click_time":1551791169125,"finger_time":1551791168905,"fix_duration":1444.9872800448782,"trial":52,"RT":10794,"MT":220,"sideResp":2,"stimulus":"img/750/randomdotsizeEA/L/14_Ratio_750_L_8_R_6.png","xmouse":[830,830,830,830,830,830,830,830,830,830,830,830,830,830,830,830,830,830,830,830,830,830,830,830,830,830,830,830,830,830,830,830,830,830,830,830,830,830,830,830,830,830,830,830,830,830,830,830,830,830,830,830,830,830,830,830,830,830,830,830,830,830,830,830,830,830,830,830,830,830,830,830,830,830,830,830,830,830,830,830,830,830,830,830,830,830,830,830,830,830,830,830,830,830,830,830,830,830,830,830,830,830,830,830,830,830,830,830,830,830,830,830,830,830,830,830,830,830,830,830,830,830,830,830,830,830,830,830,830,830,830,830,830,830,830,830,830,830,830,830,830,830,830,830,830,830,830,830,830,830,830,830,830,830,830,830,830,830,830,830,830,830,830,830,830,830,830,830,830,830,830,830,830,830,830,830,830,830,830,830,830,830,830,830,830,830,830,830,830,830,830,830,830,830,830,830,830,830,830,830,830,830,830,830,830,830,830,830,830,830,830,830,830,830,830,830,830,830,830,830,830,830,830,830,830,830,830,830,830,830,830,830,830,830,830,830,830,830,830,830,830,830,830,830,830,830,830,830,830,830,830,830,830,830,830,830,830,830,830,830,830,830,830,830,830,830,830,830,830,830,830,830,830,830,830,830,830,830,830,830,830,830,830,830,830,830,830,830,830,830,830,830,830,830,830,830,830,830,830,830,830,830,830,830,830,830,830,830,830,830,830,830,830,830,830,830,830,830,830,830,830,830,830,830,830,830,830,830,830,830,830,830,830,830,830,830,830,830,830,830,830,830,830,830,830,830,830,830,830,830,830,830,830,830,830,830,830,830,830,830,830,830,830,830,830,830,830,830,830,830,830,830,830,830,830,830,830,830,830,830,830,830,830,830,830,830,830,830,830,830,830,830,830,830,830,830,830,830,830,830,830,830,830,830,830,830,830,830,830,830,830,830,830,830,830,830,830,830,830,830,830,830,830,830,830,830,830,830,830,830,830,830,830,830,830,830,830,830,830,830,830,830,830,830,830,830,830,830,830,830,830,830,830,830,830,830,830,830,830,831,831,831,831,831,831,832,832,832,832,832,832,832,832,832,832,832,832,832,832,832,832,832,832,832,832,832,832,832,832,832,832,832,832,832,832,832,832,832,832,832,832,832,832,832,832,832,832,832,832,832,832,832,832,832,832,832,832,832,832,832,832,832,832,832,832,832,832,832,832,832,832,832,832,832,832,832,832,832,832,853,897,919,923,927,950,979,994,1008,1049,1063,1069],"ymouse":[529,529,529,529,529,529,529,529,529,529,529,529,529,529,529,529,529,529,529,529,529,529,529,529,529,529,529,529,529,529,529,529,529,529,529,529,529,529,529,529,529,529,529,529,529,529,529,529,529,529,529,529,529,529,529,529,529,529,529,529,529,529,529,529,529,529,529,529,529,529,529,529,529,529,529,529,529,529,529,529,529,529,529,529,529,529,529,529,529,529,529,529,529,529,529,529,529,529,529,529,529,529,529,529,529,529,529,529,529,529,529,529,529,529,529,529,529,529,529,529,529,529,529,529,529,529,529,529,529,529,529,529,529,529,529,529,529,529,529,529,529,529,529,529,529,529,529,529,529,529,529,529,529,529,529,529,529,529,529,529,529,529,529,529,529,529,529,529,529,529,529,529,529,529,529,529,529,529,529,529,529,529,529,529,529,529,529,529,529,529,529,529,529,529,529,529,529,529,529,529,529,529,529,529,529,529,529,529,529,529,529,529,529,529,529,529,529,529,529,529,529,529,529,529,529,529,529,529,529,529,529,529,529,529,529,529,529,529,529,529,529,529,529,529,529,529,529,529,529,529,529,529,529,529,529,529,529,529,529,529,529,529,529,529,529,529,529,529,529,529,529,529,529,529,529,529,529,529,529,529,529,529,529,529,529,529,529,529,529,529,529,529,529,529,529,529,529,529,529,529,529,529,529,529,529,529,529,529,529,529,529,529,529,529,529,529,529,529,529,529,529,529,529,529,529,529,529,529,529,529,529,529,529,529,529,529,529,529,529,529,529,529,529,529,529,529,529,529,529,529,529,529,529,529,529,529,529,529,529,529,529,529,529,529,529,529,529,529,529,529,529,529,529,529,529,529,529,529,529,529,529,529,529,529,529,529,529,529,529,529,529,529,529,529,529,529,529,529,529,529,529,529,529,529,529,529,529,529,529,529,529,529,529,529,529,529,529,529,529,529,529,529,529,529,529,529,529,529,529,529,529,529,529,529,529,529,529,529,529,529,529,529,529,529,529,529,529,529,529,529,529,529,529,529,529,529,529,529,528,527,527,527,527,527,527,527,528,532,533,533,533,533,533,533,533,533,533,533,533,533,533,533,533,533,533,533,533,533,533,533,533,533,533,533,533,533,533,533,533,533,533,533,533,533,533,533,533,533,533,533,533,533,533,533,533,533,533,533,533,533,533,533,533,533,533,533,533,533,533,533,533,533,533,533,533,533,533,533,524,456,386,357,352,351,339,323,309,293,181,124,86],"timestamp_mouse":[15,36,54,74,94,113,133,154,173,194,214,233,255,275,295,315,333,354,375,394,414,433,454,473,495,515,534,555,573,595,613,634,653,675,693,715,734,753,775,793,814,833,853,875,894,913,934,954,973,994,1015,1034,1053,1074,1095,1114,1134,1154,1173,1195,1214,1234,1254,1274,1294,1314,1334,1354,1375,1395,1413,1435,1454,1473,1494,1514,1533,1554,1574,1593,1613,1634,1653,1673,1693,1714,1734,1754,1774,1795,1814,1833,1855,1874,1894,1914,1933,1954,1974,1993,2014,2034,2053,2074,2095,2115,2134,2153,2174,2193,2213,2233,2253,2274,2294,2313,2334,2354,2375,2393,2413,2435,2454,2473,2494,2513,2534,2553,2574,2594,2614,2635,2654,2674,2694,2713,2733,2753,2774,2794,2815,2833,2854,2873,2894,2913,2935,2954,2973,2995,3013,3035,3053,3073,3095,3113,3134,3153,3173,3194,3214,3234,3253,3275,3295,3313,3334,3353,3375,3394,3414,3434,3455,3475,3494,3514,3534,3555,3573,3595,3614,3634,3653,3674,3694,3713,3734,3754,3773,3795,3814,3835,3854,3874,3894,3915,3934,3953,3975,3993,4015,4034,4054,4074,4095,4114,4134,4153,4174,4194,4214,4234,4254,4275,4293,4315,4334,4354,4375,4393,4413,4435,4453,4473,4495,4515,4533,4554,4574,4594,4613,4633,4655,4674,4693,4713,4734,4754,4774,4793,4813,4834,4854,4874,4895,4913,4934,4954,4974,4994,5013,5034,5054,5073,5094,5113,5133,5154,5175,5195,5214,5233,5255,5273,5293,5313,5334,5354,5375,5393,5413,5435,5454,5474,5494,5513,5534,5553,5575,5593,5614,5634,5654,5673,5694,5713,5734,5754,5773,5794,5813,5833,5854,5874,5895,5914,5935,5953,5974,5994,6013,6035,6055,6074,6093,6115,6133,6155,6173,6193,6214,6234,6253,6274,6294,6314,6333,6355,6374,6395,6415,6435,6454,6475,6493,6513,6534,6555,6574,6593,6615,6634,6654,6674,6694,6715,6733,6753,6773,6794,6814,6833,6854,6874,6895,6914,6934,6954,6974,6994,7013,7033,7054,7074,7095,7114,7134,7154,7173,7193,7215,7234,7254,7275,7293,7314,7333,7355,7374,7394,7414,7435,7453,7474,7495,7514,7533,7553,7575,7595,7613,7633,7654,7674,7694,7714,7734,7754,7774,7795,7813,7833,7854,7874,7894,7914,7934,7953,7974,7993,8015,8034,8053,8074,8093,8114,8134,8154,8175,8195,8214,8234,8253,8275,8295,8314,8333,8355,8373,8393,8414,8435,8454,8475,8493,8514,8533,8554,8575,8593,8615,8634,8654,8673,8694,8714,8734,8754,8773,8794,8815,8835,8854,8873,8893,8914,8934,8954,8973,8995,9015,9033,9055,9075,9093,9113,9133,9154,9174,9193,9215,9235,9253,9274,9294,9314,9335,9354,9374,9394,9413,9434,9454,9474,9493,9513,9535,9554,9573,9593,9614,9634,9654,9673,9694,9713,9733,9754,9774,9794,9814,9834,9854,9874,9894,9914,9934,9954,9974,9995,10013,10035,10054,10075,10095,10114,10135,10155,10173,10194,10214,10235,10254,10274,10293,10315,10335,10353,10373,10394,10415,10435,10453,10474,10494,10514,10535,10555,10574,10595,10614,10634,10653,10674,10693,10713,10733,10754,10773,10794,10813,10833,10853,10873,10894,10914,10934,10954,10974,10995,11014],"xSR":741.5,"ySR":469.95,"xT1":424.9,"yT1":0,"xT2":1058.1,"yT2":0,"toosoon":0,"cond_shown":"randomdotsizeEA","ratio_trial":750,"smaller_num":"6","larger_num":"8","correct_side":1,"subjID":"ivandanielrocharodelo31","gender":"0","age":"11","school":"6"},{"start_time":1551791173306,"click_time":1551791173864,"finger_time":1551791173805,"fix_duration":1418.0332755587372,"trial":53,"RT":499,"MT":59,"sideResp":1,"stimulus":"img/250/equaldotsize/L/7_Ratio_250_L_8_R_2.png","xmouse":[801,801,801,801,801,801,801,801,801,801,801,801,801,801,801,801,801,801,801,801,801,802,803,803,803,753,655,573,493],"ymouse":[512,512,512,512,512,512,512,512,512,512,512,512,512,512,512,512,512,512,512,512,512,508,503,490,472,370,237,140,41],"timestamp_mouse":[1,31,39,59,78,98,119,138,159,179,200,219,240,258,278,300,320,338,360,380,399,419,440,458,479,499,519,539,558],"xSR":741.5,"ySR":469.95,"xT1":424.9,"yT1":0,"xT2":1058.1,"yT2":0,"toosoon":0,"cond_shown":"equaldotsize","ratio_trial":250,"smaller_num":"2","larger_num":"8","correct_side":1,"subjID":"ivandanielrocharodelo31","gender":"0","age":"11","school":"6"},{"start_time":1551791176751,"click_time":1551791177763,"finger_time":1551791177343,"fix_duration":1045.803615052565,"trial":54,"RT":592,"MT":420,"sideResp":2,"stimulus":"img/900/equaldotsize/R/9_Ratio_900_L_18_R_20.png","xmouse":[814,814,814,814,814,814,814,814,814,814,814,814,814,814,814,814,814,814,814,814,814,814,814,814,814,814,814,824,836,853,873,893,918,930,936,943,955,998,1018,1041,1058,1063,1065,1065,1065,1067,1069,1071,1082,1096,1113],"ymouse":[552,552,552,552,552,552,552,552,552,552,552,552,552,552,552,552,552,552,552,552,552,552,552,552,552,552,550,521,492,452,401,355,296,270,254,239,221,184,169,154,144,141,139,139,139,138,138,137,126,112,94],"timestamp_mouse":[12,33,54,73,92,113,132,154,173,193,212,234,252,273,294,313,334,353,372,392,414,432,453,474,492,513,532,553,572,592,613,634,652,673,693,713,734,752,772,792,812,833,853,873,894,913,933,952,973,993,1012],"xSR":741.5,"ySR":469.95,"xT1":424.9,"yT1":0,"xT2":1058.1,"yT2":0,"toosoon":0,"cond_shown":"equaldotsize","ratio_trial":900,"smaller_num":"18","larger_num":"20","correct_side":2,"subjID":"ivandanielrocharodelo31","gender":"0","age":"11","school":"6"},{"start_time":1551791179865,"click_time":1551791181063,"finger_time":1551791180424,"fix_duration":1099.4684071274664,"trial":55,"RT":559,"MT":639,"sideResp":1,"stimulus":"img/500/equaldotsize/L/10_Ratio_500_L_4_R_2.png","xmouse":[795,795,795,795,795,795,795,795,795,795,795,795,795,795,795,795,795,795,795,795,795,795,795,797,797,797,797,788,771,733,680,567,535,525,525,525,528,533,540,541,541,541,542,543,543,543,542,542,542,542,542,542,542,542,542,542,537,530,525,520],"ymouse":[507,507,507,507,507,507,507,507,507,507,507,507,507,507,507,507,507,507,507,507,507,507,507,506,501,494,486,447,406,340,266,143,117,110,110,110,118,123,126,127,127,127,127,124,118,112,105,105,105,105,105,105,105,105,105,105,105,101,98,94],"timestamp_mouse":[19,39,59,79,98,118,138,158,178,198,219,238,259,279,300,318,339,359,379,398,419,439,458,478,499,519,538,559,579,598,618,640,658,678,698,720,739,758,779,798,818,839,859,878,898,919,939,958,978,1000,1019,1039,1059,1078,1098,1119,1139,1158,1178,1198],"xSR":741.5,"ySR":469.95,"xT1":424.9,"yT1":0,"xT2":1058.1,"yT2":0,"toosoon":0,"cond_shown":"equaldotsize","ratio_trial":500,"smaller_num":"2","larger_num":"4","correct_side":1,"subjID":"ivandanielrocharodelo31","gender":