[{"start_time":1551789947327,"click_time":1551789952660,"finger_time":1551789949619,"fix_duration":404.9167411482204,"trial":0,"RT":2292,"MT":3041,"sideResp":2,"stimulus":[],"xmouse":[800,805,805,805,805,805,807,807,807,807,807,807,807,807,807,809,811,812,814,814,814,814,814,814,814,814,814,814,814,814,814,814,814,814,814,814,814,814,814,814,814,814,814,814,814,814,814,814,814,814,814,814,814,814,814,814,814,814,814,814,814,814,814,814,814,814,814,814,814,814,814,814,814,814,814,814,814,814,812,808,805,801,801,801,801,801,801,801,801,801,801,801,801,801,801,800,798,794,791,790,790,790,790,790,789,787,785,782,776,776,776,777,789,814,844,884,919,942,954,954,954,955,953,943,910,890,873,864,863,861,859,854,851,846,846,846,846,846,846,846,846,847,852,852,852,852,852,852,852,852,852,852,852,850,843,825,810,797,790,790,790,790,790,790,790,790,790,790,790,790,790,790,790,790,790,790,790,790,790,790,790,790,790,790,790,790,790,790,790,790,790,790,790,790,790,790,790,790,790,790,790,790,790,790,790,790,790,790,790,790,790,790,790,790,790,790,790,790,790,790,790,790,790,790,790,790,790,790,790,790,789,789,791,798,802,807,815,831,881,919,930,949,956,960,988,1015,1045,1081,1136,1156,1174,1187,1195,1203,1212,1223,1227,1227,1227,1225,1222,1215,1200,1184,1160,1156],"ymouse":[545,552,552,552,552,552,552,552,552,552,552,552,552,552,552,551,548,539,521,512,508,508,508,507,507,507,507,507,507,507,507,507,507,507,507,507,507,507,507,507,507,507,507,507,507,507,507,507,507,507,507,507,507,507,507,507,507,507,507,507,507,507,507,507,507,507,507,507,507,507,507,507,507,507,507,507,507,507,508,514,521,530,531,531,531,531,531,531,531,531,531,531,531,531,531,531,531,531,531,531,531,531,531,531,531,531,531,534,541,544,549,557,574,611,644,678,700,717,721,721,721,721,709,695,666,653,643,639,639,639,639,646,651,655,656,656,656,656,656,656,655,636,597,572,546,545,545,545,545,545,545,545,545,544,544,545,545,544,543,543,543,543,543,543,543,543,543,543,543,543,543,543,543,543,543,543,543,543,543,543,543,543,543,543,543,543,543,543,543,543,543,543,543,543,543,543,543,543,543,543,543,543,543,543,543,543,543,543,543,543,543,543,543,543,543,543,543,543,543,543,543,543,543,543,543,543,543,543,543,543,548,557,565,583,589,599,612,633,690,724,733,746,748,749,749,749,749,749,746,738,710,672,599,500,297,214,142,103,83,76,76,76,76,76,76,76],"timestamp_mouse":[36,53,72,92,112,132,152,173,192,213,232,252,273,292,313,332,352,372,392,413,432,452,472,492,513,533,553,572,593,613,633,652,672,691,712,731,753,772,792,812,833,853,872,892,912,932,952,973,992,1013,1032,1052,1071,1092,1112,1131,1153,1173,1191,1213,1232,1253,1272,1292,1312,1332,1352,1372,1393,1412,1432,1453,1471,1492,1512,1533,1553,1573,1592,1613,1632,1652,1673,1693,1713,1732,1752,1772,1792,1813,1832,1853,1872,1892,1912,1932,1952,1972,1992,2013,2031,2052,2071,2092,2113,2132,2152,2172,2192,2212,2232,2252,2272,2292,2312,2332,2352,2372,2393,2412,2432,2453,2472,2492,2512,2532,2552,2572,2593,2612,2632,2652,2673,2692,2712,2732,2753,2773,2793,2813,2832,2853,2872,2892,2912,2932,2953,2972,2992,3012,3031,3052,3072,3093,3111,3133,3152,3173,3193,3212,3231,3253,3273,3292,3312,3332,3353,3372,3392,3412,3432,3453,3473,3492,3513,3532,3553,3572,3592,3612,3633,3652,3672,3693,3712,3733,3751,3772,3792,3812,3832,3853,3872,3892,3912,3932,3952,3972,3992,4013,4032,4052,4073,4093,4113,4132,4151,4173,4192,4212,4231,4253,4272,4292,4312,4332,4353,4373,4392,4413,4431,4453,4473,4492,4511,4533,4553,4573,4592,4613,4632,4653,4672,4693,4712,4732,4752,4773,4793,4812,4833,4852,4873,4892,4912,4932,4952,4972,4993,5011,5032,5052,5072,5092,5112,5132,5153,5172,5192,5213,5232,5253,5272,5291,5313,5332],"xSR":741.5,"ySR":501.8,"xT1":424.9,"yT1":0,"xT2":1058.1,"yT2":0,"toosoon":0,"cond_shown":"Congruent","ratio_trial":200,"L_num":8,"L_den":15,"R_num":2,"R_den":6,"correct_side":1,"subjID":"ivandanielrocharodelo31","gender":"6","age":"11","school":"cafam","test":{"fix_dur":[250,1500],"timestim":1000,"targets_dim":[100,100],"targets_relative_coord":[0.3,0.7],"size_stim":[880,420],"start_dim":[100,100],"size_start":[300,300],"size_fix":60,"samplingrate":20,"img_types":["Congruent","Incongruent"],"ratios":[100,200,300],"rep_conds":19,"nTrials":120,"trials_to_rest":500,"Trials_order":[20,49,8,30,29,106,81,59,2,22,63,96,82,74,34,76,107,71,72,110,54,83,112,32,84,87,78,7,115,23,98,116,40,33,45,108,104,44,105,26,93,58,97,70,14,88,57,60,55,17,37,117,75,28,13,5,46,12,113,39,69,95,47,118,42,86,89,65,6,91,101,68,77,11,10,73,53,50,18,9,52,56,100,35,114,102,61,0,67,24,99,85,64,38,66,41,90,25,1,27,19,92,3,79,94,62,31,21,4,48,119,15,111,16,109,103,43,36,80,51],"cond_shown":["Congruent","Incongruent","Congruent","Congruent","Incongruent","Congruent","Incongruent","Incongruent","Congruent","Congruent","Incongruent","Congruent","Congruent","Congruent","Congruent","Congruent","Incongruent","Incongruent","Congruent","Congruent","Congruent","Incongruent","Congruent","Congruent","Congruent","Incongruent","Congruent","Incongruent","Incongruent","Incongruent","Congruent","Congruent","Congruent","Incongruent","Incongruent","Congruent","Congruent","Congruent","Incongruent","Congruent","Incongruent","Congruent","Incongruent","Congruent","Congruent","Congruent","Incongruent","Congruent","Incongruent","Incongruent","Incongruent","Incongruent","Incongruent","Congruent","Incongruent","Incongruent","Congruent","Congruent","Incongruent","Incongruent","Incongruent","Incongruent","Incongruent","Congruent","Congruent","Congruent","Incongruent","Incongruent","Congruent","Incongruent","Incongruent","Congruent","Incongruent","Incongruent","Congruent","Incongruent","Incongruent","Congruent","Congruent","Incongruent","Congruent","Congruent","Congruent","Incongruent","Congruent","Congruent","Incongruent","Congruent","Incongruent","Congruent","Incongruent","Incongruent","Congruent","Congruent","Congruent","Incongruent","Congruent","Incongruent","Incongruent","Incongruent","Incongruent","Congruent","Incongruent","Incongruent","Congruent","Congruent","Incongruent","Incongruent","Congruent","Congruent","Incongruent","Incongruent","Incongruent","Congruent","Incongruent","Incongruent","Incongruent","Congruent","Congruent","Incongruent"],"ratio_trial":[200,100,200,100,300,300,200,300,200,300,200,100,300,200,300,300,300,300,100,200,100,300,300,200,100,200,100,100,100,300,200,200,300,200,200,100,200,200,200,200,200,300,100,300,200,300,200,100,100,300,100,200,200,300,100,300,300,100,300,200,200,300,300,300,100,200,300,300,100,100,300,200,300,300,300,100,300,200,100,200,300,200,300,300,100,100,100,100,100,100,200,100,300,200,100,300,100,100,100,200,100,200,200,100,300,200,100,200,300,100,300,200,200,300,100,100,100,100,200,200],"left_num":[8,10,16,8,4,20,1,4,6,9,3,6,3,7,20,1,3,4,8,4,3,13,2,21,8,7,15,3,8,4,6,9,5,14,4,11,15,8,1,16,1,5,6,2,3,3,7,3,17,13,6,1,3,1,6,4,4,4,1,14,6,4,4,18,11,3,4,13,6,8,7,6,4,7,24,13,4,1,3,7,4,4,18,13,4,2,13,3,9,6,7,17,5,15,10,4,3,13,10,7,10,3,3,1,11,13,2,4,2,1,4,7,14,18,3,6,12,12,1,7],"right_num":[2,8,12,2,2,14,2,2,7,3,11,5,11,18,9,3,4,2,2,3,4,12,10,2,2,14,13,4,6,2,3,13,6,12,14,4,4,3,3,9,2,6,13,12,14,4,8,4,10,12,13,2,1,7,3,2,2,15,2,6,3,2,6,9,6,14,2,12,15,1,8,7,2,8,2,12,2,21,4,12,13,3,9,12,6,6,6,2,13,15,12,10,6,4,3,6,2,12,8,14,9,11,1,8,4,14,6,14,12,18,8,8,12,9,7,11,2,13,21,8],"left_den":[15,25,20,16,20,25,3,20,12,10,4,20,12,15,25,5,6,20,16,8,20,26,20,30,16,10,25,6,16,20,15,30,25,30,6,22,25,15,2,30,3,25,10,10,10,6,10,20,30,26,10,3,10,20,12,20,5,10,2,30,20,20,5,20,22,10,20,26,12,20,10,12,20,10,30,26,20,2,20,10,20,8,20,26,8,5,26,6,15,12,10,30,25,25,25,5,6,26,25,10,25,10,10,2,22,26,4,6,10,2,5,10,30,20,9,10,30,30,2,10],"right_den":[6,16,20,5,4,28,15,4,10,5,20,25,20,27,18,6,20,4,5,10,16,15,25,4,5,28,26,10,10,4,15,26,12,18,30,10,10,9,10,27,15,12,26,24,28,5,16,16,15,15,26,15,2,20,5,4,4,30,10,9,6,4,12,15,15,28,4,15,25,2,20,10,4,20,4,20,4,30,16,24,26,10,15,15,10,12,10,5,26,25,24,15,12,10,10,12,5,20,16,28,18,22,2,20,20,20,15,30,24,30,16,16,18,15,30,22,4,26,30,16],"correct_side":[1,2,1,1,2,1,1,2,2,1,1,1,2,2,1,2,1,2,1,1,2,2,2,1,1,1,1,1,2,2,1,2,2,2,1,1,1,1,1,1,1,2,1,2,2,2,1,2,2,2,1,1,2,2,2,2,1,2,1,2,2,2,1,1,1,2,2,2,2,2,1,2,2,1,1,2,2,2,2,1,2,1,1,2,2,2,2,1,1,2,1,2,2,1,1,1,1,2,2,1,2,2,2,1,1,2,1,1,2,2,1,1,2,1,1,1,2,2,2,1],"img_shown":["img2/200/Congruent/L/C_Dist_200_LN_8_LD_15_RN_2_RD_6_0.png","img2/100/Incongruent/R/I_Dist_100_LN_10_LD_25_RN_8_RD_16_1.png","img2/200/Congruent/L/C_Dist_200_LN_16_LD_20_RN_12_RD_20_0.png","img2/100/Congruent/L/C_Dist_100_LN_8_LD_16_RN_2_RD_5_0.png","img2/300/Incongruent/R/I_Dist_300_LN_4_LD_20_RN_2_RD_4_1.png","img2/300/Congruent/L/C_Dist_300_LN_20_LD_25_RN_14_RD_28_0.png","img2/200/Incongruent/L/I_Dist_200_LN_1_LD_3_RN_2_RD_15_0.png","img2/300/Incongruent/R/I_Dist_300_LN_4_LD_20_RN_2_RD_4_1.png","img2/200/Congruent/R/C_Dist_200_LN_6_LD_12_RN_7_RD_10_1.png","img2/300/Congruent/L/C_Dist_300_LN_9_LD_10_RN_3_RD_5_0.png","img2/200/Incongruent/L/I_Dist_200_LN_3_LD_4_RN_11_RD_20_0.png","img2/100/Congruent/L/C_Dist_100_LN_6_LD_20_RN_5_RD_25_0.png","img2/300/Congruent/R/C_Dist_300_LN_3_LD_12_RN_11_RD_20_1.png","img2/200/Congruent/R/C_Dist_200_LN_7_LD_15_RN_18_RD_27_1.png","img2/300/Congruent/L/C_Dist_300_LN_20_LD_25_RN_9_RD_18_0.png","img2/300/Congruent/R/C_Dist_300_LN_1_LD_5_RN_3_RD_6_1.png","img2/300/Incongruent/L/I_Dist_300_LN_3_LD_6_RN_4_RD_20_0.png","img2/300/Incongruent/R/I_Dist_300_LN_4_LD_20_RN_2_RD_4_1.png","img2/100/Congruent/L/C_Dist_100_LN_8_LD_16_RN_2_RD_5_0.png","img2/200/Congruent/L/C_Dist_200_LN_4_LD_8_RN_3_RD_10_0.png","img2/100/Congruent/R/C_Dist_100_LN_3_LD_20_RN_4_RD_16_1.png","img2/300/Incongruent/R/I_Dist_300_LN_13_LD_26_RN_12_RD_15_1.png","img2/300/Congruent/R/C_Dist_300_LN_2_LD_20_RN_10_RD_25_1.png","img2/200/Congruent/L/C_Dist_200_LN_21_LD_30_RN_2_RD_4_0.png","img2/100/Congruent/L/C_Dist_100_LN_8_LD_16_RN_2_RD_5_0.png","img2/200/Incongruent/L/I_Dist_200_LN_7_LD_10_RN_14_RD_28_0.png","img2/100/Congruent/L/C_Dist_100_LN_15_LD_25_RN_13_RD_26_0.png","img2/100/Incongruent/L/I_Dist_100_LN_3_LD_6_RN_4_RD_10_0.png","img2/100/Incongruent/R/I_Dist_100_LN_8_LD_16_RN_6_RD_10_1.png","img2/300/Incongruent/R/I_Dist_300_LN_4_LD_20_RN_2_RD_4_1.png","img2/200/Congruent/L/C_Dist_200_LN_6_LD_15_RN_3_RD_15_0.png","img2/200/Congruent/R/C_Dist_200_LN_9_LD_30_RN_13_RD_26_1.png","img2/300/Congruent/R/C_Dist_300_LN_5_LD_25_RN_6_RD_12_1.png","img2/200/Incongruent/R/I_Dist_200_LN_14_LD_30_RN_12_RD_18_1.png","img2/200/Incongruent/L/I_Dist_200_LN_4_LD_6_RN_14_RD_30_0.png","img2/100/Congruent/L/C_Dist_100_LN_11_LD_22_RN_4_RD_10_0.png","img2/200/Congruent/L/C_Dist_200_LN_15_LD_25_RN_4_RD_10_0.png","img2/200/Congruent/L/C_Dist_200_LN_8_LD_15_RN_3_RD_9_0.png","img2/200/Incongruent/L/I_Dist_200_LN_1_LD_2_RN_3_RD_10_0.png","img2/200/Congruent/L/C_Dist_200_LN_16_LD_30_RN_9_RD_27_0.png","img2/200/Incongruent/L/I_Dist_200_LN_1_LD_3_RN_2_RD_15_0.png","img2/300/Congruent/R/C_Dist_300_LN_5_LD_25_RN_6_RD_12_1.png","img2/100/Incongruent/L/I_Dist_100_LN_6_LD_10_RN_13_RD_26_0.png","img2/300/Congruent/R/C_Dist_300_LN_2_LD_10_RN_12_RD_24_1.png","img2/200/Congruent/R/C_Dist_200_LN_3_LD_10_RN_14_RD_28_1.png","img2/300/Congruent/R/C_Dist_300_LN_3_LD_6_RN_4_RD_5_1.png","img2/200/Incongruent/L/I_Dist_200_LN_7_LD_10_RN_8_RD_16_0.png","img2/100/Congruent/R/C_Dist_100_LN_3_LD_20_RN_4_RD_16_1.png","img2/100/Incongruent/R/I_Dist_100_LN_17_LD_30_RN_10_RD_15_1.png","img2/300/Incongruent/R/I_Dist_300_LN_13_LD_26_RN_12_RD_15_1.png","img2/100/Incongruent/L/I_Dist_100_LN_6_LD_10_RN_13_RD_26_0.png","img2/200/Incongruent/L/I_Dist_200_LN_1_LD_3_RN_2_RD_15_0.png","img2/200/Incongruent/R/I_Dist_200_LN_3_LD_10_RN_1_RD_2_1.png","img2/300/Congruent/R/C_Dist_300_LN_1_LD_20_RN_7_RD_20_1.png","img2/100/Incongruent/R/I_Dist_100_LN_6_LD_12_RN_3_RD_5_1.png","img2/300/Incongruent/R/I_Dist_300_LN_4_LD_20_RN_2_RD_4_1.png","img2/300/Congruent/L/C_Dist_300_LN_4_LD_5_RN_2_RD_4_0.png","img2/100/Congruent/R/C_Dist_100_LN_4_LD_10_RN_15_RD_30_1.png","img2/300/Incongruent/L/I_Dist_300_LN_1_LD_2_RN_2_RD_10_0.png","img2/200/Incongruent/R/I_Dist_200_LN_14_LD_30_RN_6_RD_9_1.png","img2/200/Incongruent/R/I_Dist_200_LN_6_LD_20_RN_3_RD_6_1.png","img2/300/Incongruent/R/I_Dist_300_LN_4_LD_20_RN_2_RD_4_1.png","img2/300/Incongruent/L/I_Dist_300_LN_4_LD_5_RN_6_RD_12_0.png","img2/300/Congruent/L/C_Dist_300_LN_18_LD_20_RN_9_RD_15_0.png","img2/100/Congruent/L/C_Dist_100_LN_11_LD_22_RN_6_RD_15_0.png","img2/200/Congruent/R/C_Dist_200_LN_3_LD_10_RN_14_RD_28_1.png","img2/300/Incongruent/R/I_Dist_300_LN_4_LD_20_RN_2_RD_4_1.png","img2/300/Incongruent/R/I_Dist_300_LN_13_LD_26_RN_12_RD_15_1.png","img2/100/Congruent/R/C_Dist_100_LN_6_LD_12_RN_15_RD_25_1.png","img2/100/Incongruent/R/I_Dist_100_LN_8_LD_20_RN_1_RD_2_1.png","img2/300/Incongruent/L/I_Dist_300_LN_7_LD_10_RN_8_RD_20_0.png","img2/200/Congruent/R/C_Dist_200_LN_6_LD_12_RN_7_RD_10_1.png","img2/300/Incongruent/R/I_Dist_300_LN_4_LD_20_RN_2_RD_4_1.png","img2/300/Incongruent/L/I_Dist_300_LN_7_LD_10_RN_8_RD_20_0.png","img2/300/Congruent/L/C_Dist_300_LN_24_LD_30_RN_2_RD_4_0.png","img2/100/Incongruent/R/I_Dist_100_LN_13_LD_26_RN_12_RD_20_1.png","img2/300/Incongruent/R/I_Dist_300_LN_4_LD_20_RN_2_RD_4_1.png","img2/200/Congruent/R/C_Dist_200_LN_1_LD_2_RN_21_RD_30_1.png","img2/100/Congruent/R/C_Dist_100_LN_3_LD_20_RN_4_RD_16_1.png","img2/200/Incongruent/L/I_Dist_200_LN_7_LD_10_RN_12_RD_24_0.png","img2/300/Congruent/R/C_Dist_300_LN_4_LD_20_RN_13_RD_26_1.png","img2/200/Congruent/L/C_Dist_200_LN_4_LD_8_RN_3_RD_10_0.png","img2/300/Congruent/L/C_Dist_300_LN_18_LD_20_RN_9_RD_15_0.png","img2/300/Incongruent/R/I_Dist_300_LN_13_LD_26_RN_12_RD_15_1.png","img2/100/Congruent/R/C_Dist_100_LN_4_LD_8_RN_6_RD_10_1.png","img2/100/Congruent/R/C_Dist_100_LN_2_LD_5_RN_6_RD_12_1.png","img2/100/Incongruent/R/I_Dist_100_LN_13_LD_26_RN_6_RD_10_1.png","img2/100/Congruent/L/C_Dist_100_LN_3_LD_6_RN_2_RD_5_0.png","img2/100/Incongruent/L/I_Dist_100_LN_9_LD_15_RN_13_RD_26_0.png","img2/100/Congruent/R/C_Dist_100_LN_6_LD_12_RN_15_RD_25_1.png","img2/200/Incongruent/L/I_Dist_200_LN_7_LD_10_RN_12_RD_24_0.png","img2/100/Incongruent/R/I_Dist_100_LN_17_LD_30_RN_10_RD_15_1.png","img2/300/Congruent/R/C_Dist_300_LN_5_LD_25_RN_6_RD_12_1.png","img2/200/Congruent/L/C_Dist_200_LN_15_LD_25_RN_4_RD_10_0.png","img2/100/Congruent/L/C_Dist_100_LN_10_LD_25_RN_3_RD_10_0.png","img2/300/Incongruent/L/I_Dist_300_LN_4_LD_5_RN_6_RD_12_0.png","img2/100/Congruent/L/C_Dist_100_LN_3_LD_6_RN_2_RD_5_0.png","img2/100/Incongruent/R/I_Dist_100_LN_13_LD_26_RN_12_RD_20_1.png","img2/100/Incongruent/R/I_Dist_100_LN_10_LD_25_RN_8_RD_16_1.png","img2/200/Incongruent/L/I_Dist_200_LN_7_LD_10_RN_14_RD_28_0.png","img2/100/Incongruent/R/I_Dist_100_LN_10_LD_25_RN_9_RD_18_1.png","img2/200/Congruent/R/C_Dist_200_LN_3_LD_10_RN_11_RD_22_1.png","img2/200/Incongruent/R/I_Dist_200_LN_3_LD_10_RN_1_RD_2_1.png","img2/100/Incongruent/L/I_Dist_100_LN_1_LD_2_RN_8_RD_20_0.png","img2/300/Congruent/L/C_Dist_300_LN_11_LD_22_RN_4_RD_20_0.png","img2/200/Congruent/R/C_Dist_200_LN_13_LD_26_RN_14_RD_20_1.png","img2/100/Incongruent/L/I_Dist_100_LN_2_LD_4_RN_6_RD_15_0.png","img2/200/Incongruent/L/I_Dist_200_LN_4_LD_6_RN_14_RD_30_0.png","img2/300/Congruent/R/C_Dist_300_LN_2_LD_10_RN_12_RD_24_1.png","img2/100/Congruent/R/C_Dist_100_LN_1_LD_2_RN_18_RD_30_1.png","img2/300/Incongruent/L/I_Dist_300_LN_4_LD_5_RN_8_RD_16_0.png","img2/200/Incongruent/L/I_Dist_200_LN_7_LD_10_RN_8_RD_16_0.png","img2/200/Incongruent/R/I_Dist_200_LN_14_LD_30_RN_12_RD_18_1.png","img2/300/Congruent/L/C_Dist_300_LN_18_LD_20_RN_9_RD_15_0.png","img2/100/Incongruent/L/I_Dist_100_LN_3_LD_9_RN_7_RD_30_0.png","img2/100/Incongruent/L/I_Dist_100_LN_6_LD_10_RN_11_RD_22_0.png","img2/100/Incongruent/R/I_Dist_100_LN_12_LD_30_RN_2_RD_4_1.png","img2/100/Congruent/R/C_Dist_100_LN_12_LD_30_RN_13_RD_26_1.png","img2/200/Congruent/R/C_Dist_200_LN_1_LD_2_RN_21_RD_30_1.png","img2/200/Incongruent/L/I_Dist_200_LN_7_LD_10_RN_8_RD_16_0.png"],"dist100_C":[["C_Dist_100_LN_10_LD_25_RN_3_RD_10_0.png","C_Dist_100_LN_11_LD_22_RN_4_RD_10_0.png","C_Dist_100_LN_11_LD_22_RN_6_RD_15_0.png","C_Dist_100_LN_15_LD_25_RN_13_RD_26_0.png","C_Dist_100_LN_3_LD_6_RN_2_RD_5_0.png","C_Dist_100_LN_6_LD_20_RN_5_RD_25_0.png","C_Dist_100_LN_8_LD_16_RN_2_RD_5_0.png","C_Dist_100_LN_9_LD_15_RN_8_RD_16_0.png"],["C_Dist_100_LN_1_LD_2_RN_18_RD_30_1.png","C_Dist_100_LN_1_LD_2_RN_3_RD_5_1.png","C_Dist_100_LN_12_LD_30_RN_13_RD_26_1.png","C_Dist_100_LN_2_LD_5_RN_11_RD_22_1.png","C_Dist_100_LN_2_LD_5_RN_6_RD_12_1.png","C_Dist_100_LN_3_LD_20_RN_4_RD_16_1.png","C_Dist_100_LN_4_LD_10_RN_15_RD_30_1.png","C_Dist_100_LN_4_LD_8_RN_6_RD_10_1.png","C_Dist_100_LN_6_LD_12_RN_15_RD_25_1.png","C_Dist_100_LN_7_LD_14_RN_15_RD_25_1.png","C_Dist_100_LN_7_LD_14_RN_9_RD_15_1.png"]],"dist100_I":[["I_Dist_100_LN_1_LD_2_RN_8_RD_20_0.png","I_Dist_100_LN_2_LD_4_RN_6_RD_15_0.png","I_Dist_100_LN_2_LD_4_RN_8_RD_20_0.png","I_Dist_100_LN_3_LD_5_RN_11_RD_22_0.png","I_Dist_100_LN_3_LD_5_RN_8_RD_16_0.png","I_Dist_100_LN_3_LD_6_RN_4_RD_10_0.png","I_Dist_100_LN_3_LD_9_RN_7_RD_30_0.png","I_Dist_100_LN_4_LD_8_RN_8_RD_20_0.png","I_Dist_100_LN_6_LD_10_RN_11_RD_22_0.png","I_Dist_100_LN_6_LD_10_RN_13_RD_26_0.png","I_Dist_100_LN_6_LD_10_RN_7_RD_14_0.png","I_Dist_100_LN_9_LD_10_RN_20_RD_25_0.png","I_Dist_100_LN_9_LD_15_RN_13_RD_26_0.png","I_Dist_100_LN_9_LD_15_RN_14_RD_28_0.png"],["I_Dist_100_LN_10_LD_25_RN_8_RD_16_1.png","I_Dist_100_LN_10_LD_25_RN_9_RD_18_1.png","I_Dist_100_LN_11_LD_22_RN_9_RD_15_1.png","I_Dist_100_LN_12_LD_24_RN_9_RD_15_1.png","I_Dist_100_LN_12_LD_30_RN_2_RD_4_1.png","I_Dist_100_LN_13_LD_26_RN_12_RD_20_1.png","I_Dist_100_LN_13_LD_26_RN_6_RD_10_1.png","I_Dist_100_LN_17_LD_30_RN_10_RD_15_1.png","I_Dist_100_LN_6_LD_12_RN_3_RD_5_1.png","I_Dist_100_LN_8_LD_16_RN_6_RD_10_1.png","I_Dist_100_LN_8_LD_20_RN_1_RD_2_1.png","I_Dist_100_LN_9_LD_18_RN_6_RD_10_1.png"]],"dist100_S":[["E_Dist_100_LN_2_LD_12_RN_2_RD_30_0.png","E_Dist_100_LN_6_LD_10_RN_6_RD_12_0.png"],["E_Dist_100_LN_6_LD_12_RN_6_RD_10_1.png"]],"dist200_C":[["C_Dist_200_LN_11_LD_22_RN_3_RD_10_0.png","C_Dist_200_LN_12_LD_15_RN_6_RD_10_0.png","C_Dist_200_LN_12_LD_20_RN_6_RD_15_0.png","C_Dist_200_LN_14_LD_28_RN_6_RD_20_0.png","C_Dist_200_LN_15_LD_25_RN_4_RD_10_0.png","C_Dist_200_LN_16_LD_20_RN_12_RD_20_0.png","C_Dist_200_LN_16_LD_30_RN_9_RD_27_0.png","C_Dist_200_LN_20_LD_25_RN_9_RD_15_0.png","C_Dist_200_LN_21_LD_30_RN_2_RD_4_0.png","C_Dist_200_LN_4_LD_10_RN_3_RD_15_0.png","C_Dist_200_LN_4_LD_8_RN_3_RD_10_0.png","C_Dist_200_LN_6_LD_15_RN_3_RD_15_0.png","C_Dist_200_LN_7_LD_21_RN_2_RD_15_0.png","C_Dist_200_LN_8_LD_15_RN_2_RD_6_0.png","C_Dist_200_LN_8_LD_15_RN_3_RD_9_0.png","C_Dist_200_LN_8_LD_15_RN_7_RD_21_0.png","C_Dist_200_LN_9_LD_20_RN_4_RD_16_0.png"],["C_Dist_200_LN_1_LD_2_RN_21_RD_30_1.png","C_Dist_200_LN_13_LD_26_RN_14_RD_20_1.png","C_Dist_200_LN_3_LD_10_RN_11_RD_22_1.png","C_Dist_200_LN_3_LD_10_RN_14_RD_28_1.png","C_Dist_200_LN_3_LD_10_RN_7_RD_14_1.png","C_Dist_200_LN_3_LD_12_RN_9_RD_20_1.png","C_Dist_200_LN_3_LD_6_RN_14_RD_20_1.png","C_Dist_200_LN_5_LD_10_RN_14_RD_20_1.png","C_Dist_200_LN_6_LD_12_RN_7_RD_10_1.png","C_Dist_200_LN_6_LD_20_RN_11_RD_22_1.png","C_Dist_200_LN_7_LD_15_RN_18_RD_27_1.png","C_Dist_200_LN_9_LD_30_RN_13_RD_26_1.png"]],"dist200_I":[["I_Dist_200_LN_1_LD_2_RN_3_RD_10_0.png","I_Dist_200_LN_1_LD_3_RN_2_RD_15_0.png","I_Dist_200_LN_3_LD_4_RN_11_RD_20_0.png","I_Dist_200_LN_4_LD_5_RN_6_RD_10_0.png","I_Dist_200_LN_4_LD_6_RN_14_RD_30_0.png","I_Dist_200_LN_7_LD_10_RN_12_RD_24_0.png","I_Dist_200_LN_7_LD_10_RN_14_RD_28_0.png","I_Dist_200_LN_7_LD_10_RN_8_RD_16_0.png"],["I_Dist_200_LN_11_LD_20_RN_3_RD_4_1.png","I_Dist_200_LN_14_LD_30_RN_12_RD_18_1.png","I_Dist_200_LN_14_LD_30_RN_6_RD_9_1.png","I_Dist_200_LN_3_LD_10_RN_1_RD_2_1.png","I_Dist_200_LN_4_LD_30_RN_1_RD_3_1.png","I_Dist_200_LN_6_LD_20_RN_3_RD_6_1.png","I_Dist_200_LN_7_LD_15_RN_4_RD_6_1.png","I_Dist_200_LN_7_LD_15_RN_6_RD_9_1.png","I_Dist_200_LN_9_LD_15_RN_8_RD_10_1.png"]],"dist200_S":[["E_Dist_200_LN_3_LD_6_RN_3_RD_10_0.png"],["E_Dist_200_LN_3_LD_10_RN_3_RD_6_1.png"]],"dist300_C":[["C_Dist_300_LN_11_LD_22_RN_1_RD_5_0.png","C_Dist_300_LN_11_LD_22_RN_2_RD_10_0.png","C_Dist_300_LN_11_LD_22_RN_4_RD_20_0.png","C_Dist_300_LN_12_LD_24_RN_2_RD_10_0.png","C_Dist_300_LN_18_LD_20_RN_9_RD_15_0.png","C_Dist_300_LN_20_LD_25_RN_13_RD_26_0.png","C_Dist_300_LN_20_LD_25_RN_14_RD_28_0.png","C_Dist_300_LN_20_LD_25_RN_5_RD_10_0.png","C_Dist_300_LN_20_LD_25_RN_8_RD_16_0.png","C_Dist_300_LN_20_LD_25_RN_9_RD_18_0.png","C_Dist_300_LN_24_LD_30_RN_2_RD_4_0.png","C_Dist_300_LN_24_LD_30_RN_8_RD_16_0.png","C_Dist_300_LN_3_LD_6_RN_2_RD_10_0.png","C_Dist_300_LN_4_LD_10_RN_1_RD_10_0.png","C_Dist_300_LN_4_LD_5_RN_2_RD_4_0.png","C_Dist_300_LN_8_LD_16_RN_1_RD_5_0.png","C_Dist_300_LN_9_LD_10_RN_3_RD_5_0.png"],["C_Dist_300_LN_1_LD_20_RN_7_RD_20_1.png","C_Dist_300_LN_1_LD_3_RN_19_RD_30_1.png","C_Dist_300_LN_1_LD_30_RN_8_RD_24_1.png","C_Dist_300_LN_1_LD_5_RN_11_RD_22_1.png","C_Dist_300_LN_1_LD_5_RN_3_RD_6_1.png","C_Dist_300_LN_1_LD_5_RN_6_RD_12_1.png","C_Dist_300_LN_2_LD_10_RN_12_RD_24_1.png","C_Dist_300_LN_2_LD_20_RN_10_RD_25_1.png","C_Dist_300_LN_3_LD_12_RN_11_RD_20_1.png","C_Dist_300_LN_3_LD_6_RN_4_RD_5_1.png","C_Dist_300_LN_4_LD_20_RN_13_RD_26_1.png","C_Dist_300_LN_5_LD_25_RN_6_RD_12_1.png","C_Dist_300_LN_5_LD_25_RN_7_RD_14_1.png","C_Dist_300_LN_7_LD_14_RN_20_RD_25_1.png","C_Dist_300_LN_8_LD_15_RN_10_RD_12_1.png"]],"dist300_I":[["I_Dist_300_LN_1_LD_2_RN_2_RD_10_0.png","I_Dist_300_LN_1_LD_2_RN_3_RD_15_0.png","I_Dist_300_LN_2_LD_4_RN_6_RD_30_0.png","I_Dist_300_LN_3_LD_6_RN_4_RD_20_0.png","I_Dist_300_LN_4_LD_5_RN_6_RD_12_0.png","I_Dist_300_LN_4_LD_5_RN_8_RD_16_0.png","I_Dist_300_LN_7_LD_10_RN_8_RD_20_0.png","I_Dist_300_LN_8_LD_10_RN_14_RD_28_0.png","I_Dist_300_LN_8_LD_10_RN_9_RD_18_0.png"],["I_Dist_300_LN_13_LD_26_RN_12_RD_15_1.png","I_Dist_300_LN_4_LD_20_RN_2_RD_4_1.png"]],"dist300_S":[["E_Dist_300_LN_9_LD_12_RN_9_RD_20_0.png"],["E_Dist_300_LN_18_LD_30_RN_18_RD_20_1.png","E_Dist_300_LN_3_LD_10_RN_3_RD_5_1.png","E_Dist_300_LN_9_LD_20_RN_9_RD_12_1.png"]],"dist500_C":[["C_Dist_500_LN_10_LD_13_RN_7_RD_26_0.png","C_Dist_500_LN_10_LD_15_RN_4_RD_24_0.png","C_Dist_500_LN_12_LD_16_RN_3_RD_12_0.png","C_Dist_500_LN_12_LD_18_RN_4_RD_24_0.png","C_Dist_500_LN_15_LD_18_RN_5_RD_15_0.png","C_Dist_500_LN_15_LD_20_RN_1_RD_4_0.png","C_Dist_500_LN_18_LD_27_RN_1_RD_6_0.png","C_Dist_500_LN_20_LD_24_RN_1_RD_3_0.png","C_Dist_500_LN_20_LD_24_RN_3_RD_9_0.png","C_Dist_500_LN_20_LD_24_RN_7_RD_21_0.png","C_Dist_500_LN_20_LD_28_RN_3_RD_14_0.png","C_Dist_500_LN_21_LD_28_RN_6_RD_24_0.png","C_Dist_500_LN_22_LD_28_RN_2_RD_7_0.png","C_Dist_500_LN_25_LD_30_RN_9_RD_27_0.png","C_Dist_500_LN_4_LD_6_RN_1_RD_6_0.png","C_Dist_500_LN_5_LD_6_RN_2_RD_6_0.png","C_Dist_500_LN_6_LD_9_RN_1_RD_6_0.png","C_Dist_500_LN_7_LD_10_RN_1_RD_5_0.png","C_Dist_500_LN_8_LD_12_RN_1_RD_6_0.png","C_Dist_500_LN_8_LD_12_RN_4_RD_24_0.png"],["C_Dist_500_LN_1_LD_4_RN_12_RD_16_1.png","C_Dist_500_LN_1_LD_4_RN_9_RD_12_1.png","C_Dist_500_LN_1_LD_9_RN_11_RD_18_1.png","C_Dist_500_LN_10_LD_24_RN_22_RD_24_1.png","C_Dist_500_LN_2_LD_12_RN_10_RD_15_1.png","C_Dist_500_LN_2_LD_12_RN_12_RD_18_1.png","C_Dist_500_LN_2_LD_12_RN_4_RD_6_1.png","C_Dist_500_LN_2_LD_24_RN_7_RD_12_1.png","C_Dist_500_LN_2_LD_5_RN_18_RD_20_1.png","C_Dist_500_LN_2_LD_5_RN_9_RD_10_1.png","C_Dist_500_LN_2_LD_8_RN_12_RD_16_1.png","C_Dist_500_LN_2_LD_8_RN_21_RD_28_1.png","C_Dist_500_LN_3_LD_10_RN_4_RD_5_1.png","C_Dist_500_LN_3_LD_12_RN_15_RD_20_1.png","C_Dist_500_LN_3_LD_30_RN_6_RD_10_1.png","C_Dist_500_LN_3_LD_8_RN_14_RD_16_1.png","C_Dist_500_LN_4_LD_16_RN_15_RD_20_1.png","C_Dist_500_LN_4_LD_24_RN_12_RD_18_1.png","C_Dist_500_LN_5_LD_14_RN_6_RD_7_1.png","C_Dist_500_LN_7_LD_21_RN_20_RD_24_1.png","C_Dist_500_LN_7_LD_28_RN_12_RD_16_1.png","C_Dist_500_LN_7_LD_28_RN_9_RD_12_1.png","C_Dist_500_LN_9_LD_27_RN_20_RD_24_1.png"]],"dist500_I":[["I_Dist_500_LN_2_LD_3_RN_4_RD_24_0.png","I_Dist_500_LN_5_LD_6_RN_6_RD_18_0.png","I_Dist_500_LN_7_LD_8_RN_9_RD_24_0.png"],["I_Dist_500_LN_7_LD_21_RN_5_RD_6_1.png"]],"dist500_S":[["E_Dist_500_LN_6_LD_8_RN_6_RD_24_0.png"],["E_Dist_500_LN_2_LD_12_RN_2_RD_3_1.png","E_Dist_500_LN_6_LD_24_RN_6_RD_8_1.png"]]}},{"start_time":1551789954153,"click_time":1551789955900,"finger_time":1551789955579,"fix_duration":250,"trial":1,"RT":1426,"MT":321,"sideResp":1,"stimulus":[],"xmouse":[812,812,812,812,812,812,812,812,812,812,812,812,812,812,812,812,812,812,812,812,812,812,812,812,812,812,812,812,812,812,812,812,812,812,812,812,812,812,812,812,812,812,812,812,812,812,812,812,812,812,812,812,812,812,812,812,812,812,812,812,812,812,812,812,812,812,812,812,812,811,804,785,766,739,699,692,688,686,686,674,663,646,621,589,550,537,527,521],"ymouse":[565,565,565,565,565,565,565,565,565,565,565,565,565,565,565,565,565,565,565,565,565,565,565,565,565,565,565,565,565,565,565,565,565,565,565,565,565,565,565,565,565,565,565,565,565,565,565,565,565,565,565,565,565,565,565,565,565,565,565,565,565,565,565,565,565,565,565,565,565,554,509,449,387,322,233,213,203,199,197,184,175,164,145,118,79,64,52,45],"timestamp_mouse":[9,26,46,66,86,106,126,146,167,187,206,227,246,267,286,306,326,346,367,386,406,425,447,466,485,506,527,547,566,586,606,627,647,666,686,706,726,746,766,786,806,827,846,866,887,906,926,947,966,987,1006,1026,1046,1067,1085,1106,1126,1147,1165,1186,1206,1226,1247,1266,1286,1307,1326,1346,1367,1387,1406,1426,1446,1467,1486,1507,1526,1546,1566,1586,1606,1626,1646,1667,1686,1706,1726,1746],"xSR":741.5,"ySR":501.8,"xT1":424.9,"yT1":0,"xT2":1058.1,"yT2":0,"toosoon":0,"cond_shown":"Incongruent","ratio_trial":100,"L_num":10,"L_den":25,"R_num":8,"R_den":16,"correct_side":2,"subjID":"ivandanielrocharodelo31","gender":"6","school":"cafam","age":"11"},{"start_time":1551789958243,"click_time":1551789959959,"finger_time":1551789958398,"fix_duration":1442.8215146269686,"trial":2,"RT":155,"MT":1561,"sideResp":2,"stimulus":[],"xmouse":[805,805,810,820,827,832,832,832,832,831,829,827,823,819,818,818,818,818,818,818,818,818,818,814,801,798,797,797,797,797,797,797,797,797,797,797,797,797,797,797,797,797,797,797,797,797,797,797,797,797,797,797,799,806,835,853,874,901,939,1026,1052,1075,1082,1095,1103,1105,1108,1111,1116,1121,1127,1129,1129,1129,1129,1129,1129,1129,1129,1124,1124,1124,1124,1123,1123,1121],"ymouse":[572,572,569,555,540,511,502,501,501,500,500,500,501,503,503,503,503,503,503,503,503,503,504,511,548,565,576,580,581,581,581,581,581,581,581,581,581,581,581,581,581,581,581,581,581,581,581,581,581,581,581,581,578,563,523,503,487,468,444,376,350,316,305,280,265,261,253,241,227,211,183,173,171,171,171,171,169,161,147,122,119,117,111,104,101,96],"timestamp_mouse":[21,42,56,77,96,116,136,155,176,196,216,236,257,276,296,316,335,357,376,396,416,437,457,476,496,516,536,556,576,596,617,636,657,676,696,716,737,756,776,797,815,837,857,877,896,917,936,956,975,996,1017,1036,1056,1076,1097,1116,1136,1157,1176,1198,1216,1236,1255,1277,1297,1316,1337,1356,1376,1397,1417,1436,1457,1476,1496,1517,1536,1556,1577,1597,1616,1636,1656,1676,1697,1716],"xSR":741.5,"ySR":501.8,"xT1":424.9,"yT1":0,"xT2":1058.1,"yT2":0,"toosoon":0,"cond_shown":"Congruent","ratio_trial":200,"L_num":16,"L_den":20,"R_num":12,"R_den":20,"correct_side":1,"subjID":"ivandanielrocharodelo31","gender":"6","school":"cafam","age":"11"},{"start_time":1551789961928,"click_time":1551789963240,"finger_time":1551789962699,"fix_duration":1207.8581198483955,"trial":3,"RT":771,"MT":541,"sideResp":1,"stimulus":[],"xmouse":[807,807,807,807,807,807,807,807,807,807,807,807,807,807,807,807,807,807,807,807,807,807,807,807,807,807,807,807,807,807,807,807,807,807,807,807,807,807,804,797,779,722,703,689,678,675,670,666,654,636,614,584,569,558,547,535,510,509,509,509,509,509,509,509,509,507],"ymouse":[553,551,551,551,551,551,551,551,551,551,551,551,551,551,551,551,551,551,551,551,551,551,551,551,551,551,551,551,551,551,551,551,551,551,551,551,546,518,494,463,420,316,289,269,255,249,242,235,217,193,164,132,124,120,116,111,100,100,100,100,100,100,100,100,100,98],"timestamp_mouse":[20,31,59,70,90,111,132,151,171,191,211,232,251,271,291,311,331,351,371,391,412,431,452,471,492,512,532,551,571,591,611,631,650,672,691,712,731,751,771,791,812,831,851,871,892,912,931,952,971,991,1012,1031,1051,1071,1091,1111,1131,1151,1172,1192,1212,1231,1252,1271,1291,1311],"xSR":741.5,"ySR":501.8,"xT1":424.9,"yT1":0,"xT2":1058.1,"yT2":0,"toosoon":0,"cond_shown":"Congruent","ratio_trial":100,"L_num":8,"L_den":16,"R_num":2,"R_den":5,"correct_side":1,"subjID":"ivandanielrocharodelo31","gender":"6","school":"cafam","age":"11"},{"start_time":1551789966372,"click_time":1551790014440,"finger_time":1551790013159,"fix_duration":1351.3079647847508,"trial":4,"RT":46787,"MT":1281,"sideResp":2,"stimulus":[],"xmouse":[775,775,775,775,775,775,775,775,775,775,775,775,775,775,775,775,775,775,775,775,775,775,775,775,775,775,775,775,775,775,775,775,775,775,775,775,775,775,775,775,775,775,775,775,775,775,775,775,775,775,775,775,775,775,775,775,775,775,775,775,775,775,775,775,775,775,775,775,775,775,775,775,775,775,775,775,775,775,775,775,775,775,775,775,775,775,775,775,775,775,775,775,775,775,775,775,775,775,775,775,775,775,775,775,775,775,775,775,775,775,775,775,775,775,775,775,775,775,775,775,775,775,775,775,775,775,775,775,775,775,775,775,775,775,775,775,775,775,775,775,775,775,775,775,775,775,775,775,775,775,775,775,775,775,775,775,775,775,775,775,775,775,775,775,775,775,775,775,775,775,775,775,775,775,775,775,775,775,775,775,775,775,775,775,775,775,775,775,775,775,775,775,775,775,775,775,775,775,775,775,775,775,775,775,775,775,775,775,775,775,775,775,775,775,775,775,775,775,775,775,775,775,775,775,775,775,775,775,775,775,775,775,775,775,775,775,775,775,775,775,775,775,775,775,775,775,775,775,775,775,775,775,775,775,775,775,775,775,775,775,775,775,775,775,775,775,775,775,775,775,775,775,775,775,775,775,775,775,775,775,775,775,775,775,775,775,775,775,775,775,775,775,775,775,775,775,775,775,775,775,775,775,775,775,775,775,775,775,775,775,775,775,775,775,775,775,775,775,775,775,775,775,775,775,775,775,775,775,775,775,775,775,775,775,775,775,775,775,775,775,775,775,775,775,775,775,775,775,775,775,775,775,775,775,775,775,775,775,775,775,775,775,775,775,775,775,775,775,775,775,775,775,775,775,775,775,775,775,775,775,775,775,775,775,775,775,775,775,775,775,775,775,775,775,775,775,775,775,775,775,775,775,775,775,775,775,775,775,775,775,775,775,775,775,775,775,775,775,775,775,775,775,775,775,775,775,775,775,775,775,775,775,775,775,775,775,775,775,775,775,775,775,775,775,775,775,775,775,775,775,775,775,775,775,775,775,775,775,775,775,775,775,775,775,775,775,775,775,775,775,775,775,775,775,775,775,775,775,775,775,775,775,775,775,775,775,775,775,775,775,775,775,775,775,775,775,775,775,775,775,775,775,775,775,775,775,775,775,775,775,775,775,775,775,775,775,775,775,775,775,775,775,775,775,775,775,775,775,775,775,775,775,775,775,775,775,775,775,775,775,775,775,775,775,775,775,775,775,775,775,775,775,775,775,775,775,775,775,775,775,775,775,775,775,775,775,775,775,775,775,775,775,775,775,775,775,775,775,775,775,775,775,775,775,775,775,775,775,775,775,775,775,775,775,775,775,775,775,775,775,775,775,775,775,775,775,775,775,775,775,775,775,775,775,775,775,775,775,775,775,775,775,775,775,775,775,775,775,775,775,775,775,775,775,775,775,775,775,775,775,775,775,775,775,775,775,775,775,775,775,775,775,775,775,775,775,775,775,775,775,775,775,775,775,775,775,775,775,775,775,775,775,775,775,775,775,775,775,775,775,775,775,775,775,775,775,775,775,775,775,775,775,775,775,775,775,775,775,775,775,775,775,775,775,775,775,775,775,775,775,775,775,775,775,775,775,775,775,775,775,775,775,775,775,775,775,775,775,775,775,775,775,775,775,775,775,775,775,775,775,775,775,775,775,775,775,775,775,775,775,775,775,775,775,775,775,775,775,775,775,775,775,775,775,775,775,775,775,775,775,775,775,775,775,775,775,775,775,775,775,775,775,775,775,775,775,775,775,775,775,775,775,775,775,775,775,775,775,775,775,775,775,775,775,775,775,775,775,775,775,775,775,775,775,775,775,775,775,775,775,775,775,775,775,775,775,775,775,775,775,775,775,775,775,775,775,775,775,775,775,775,775,775,775,775,775,775,775,775,775,775,775,775,775,775,775,775,775,775,775,775,775,775,775,775,775,775,775,775,775,775,775,775,775,775,775,775,775,775,775,775,775,775,775,775,775,775,775,775,775,775,775,775,775,775,775,775,775,775,775,775,775,775,775,775,775,775,775,775,775,775,775,775,775,775,775,775,775,775,775,775,775,775,775,775,775,775,775,775,775,775,775,775,775,775,775,775,775,775,775,775,775,775,775,775,775,775,775,775,775,775,775,775,775,775,775,775,775,775,775,775,775,775,775,775,775,775,775,775,775,775,775,775,775,775,775,775,775,775,775,775,775,775,775,775,775,775,775,775,775,775,775,775,775,775,775,775,775,775,775,775,775,775,775,775,775,775,775,775,775,775,775,775,775,775,775,775,775,775,775,775,775,775,775,775,775,775,775,775,775,775,775,775,775,775,775,775,775,775,775,775,775,775,775,775,775,775,775,775,775,775,775,775,775,775,775,775,775,775,775,775,775,775,775,775,775,775,775,775,775,775,775,775,775,775,775,775,775,775,775,775,775,775,775,775,775,775,775,775,775,775,775,775,775,775,775,775,775,775,775,775,775,775,775,775,775,775,775,775,775,775,775,775,775,775,775,775,775,775,775,775,775,775,775,775,775,775,775,775,775,775,775,775,775,775,775,775,775,775,775,775,775,775,775,775,775,775,775,775,775,775,775,775,775,775,775,775,775,775,775,775,775,775,775,775,775,775,775,775,775,775,775,775,775,775,775,775,775,775,775,775,775,775,775,775,775,775,775,775,775,775,775,775,775,775,775,775,775,775,775,775,775,775,775,775,775,775,775,775,775,775,775,775,775,775,775,775,775,775,775,775,775,775,775,775,775,775,775,775,775,775,775,775,775,775,775,775,775,775,775,775,775,775,775,775,775,775,775,775,775,775,775,775,775,775,775,775,775,775,775,775,775,775,775,775,775,775,775,775,775,775,775,775,775,775,775,775,775,775,775,775,775,775,775,775,775,775,775,775,775,775,775,775,775,775,775,775,775,775,775,775,775,775,775,775,775,775,775,775,775,775,775,775,775,775,775,775,775,775,775,775,775,775,775,775,775,775,775,775,775,775,775,775,775,775,775,775,775,775,775,775,775,775,775,775,775,775,775,775,775,775,775,775,775,775,775,775,775,775,775,775,775,775,775,775,775,775,775,775,775,775,775,775,775,775,775,775,775,775,775,775,775,775,775,775,775,775,775,775,775,775,775,775,775,775,775,775,775,775,775,775,775,775,775,775,775,775,775,775,775,775,775,775,775,775,775,775,775,775,775,775,775,775,775,775,775,775,775,775,775,775,775,775,775,775,775,775,775,775,775,775,775,775,775,775,775,775,775,775,775,775,775,775,775,775,775,775,775,775,775,775,775,775,775,775,775,775,775,775,775,775,775,775,775,775,775,775,775,775,775,775,775,775,775,775,775,775,775,775,775,775,775,775,775,775,775,775,775,775,775,775,775,775,775,775,775,775,775,775,775,775,775,775,775,775,775,775,775,775,775,775,775,775,775,775,775,775,775,775,775,775,775,775,775,775,775,775,775,775,775,775,775,775,775,775,775,775,775,775,775,775,775,775,775,775,775,775,775,775,775,775,775,775,775,775,775,775,775,775,775,775,775,775,775,775,775,775,775,775,775,775,775,775,775,775,775,775,775,775,775,775,775,775,775,775,775,775,775,775,775,775,775,775,775,775,775,775,775,775,775,775,775,775,775,775,775,775,775,775,775,775,775,775,775,775,775,775,775,775,775,775,775,775,775,775,775,775,775,775,775,775,775,775,775,775,775,775,775,775,775,775,775,775,775,775,775,775,775,775,775,775,775,775,775,775,775,775,775,775,775,775,775,775,775,775,775,775,775,775,775,775,775,775,775,775,775,775,775,775,775,775,775,775,775,775,775,775,775,775,775,775,775,775,775,775,775,775,775,775,775,775,775,775,775,775,775,775,775,775,775,775,775,775,775,775,775,775,775,775,775,775,775,775,775,775,775,775,775,775,775,775,775,775,775,775,775,775,775,775,775,775,775,775,775,775,775,775,775,775,775,775,775,775,775,775,775,775,775,775,775,775,775,775,775,775,775,775,775,775,775,775,775,775,775,775,775,775,775,775,775,775,775,775,775,775,775,775,775,775,775,775,775,775,775,775,775,775,775,775,775,775,775,775,775,775,775,775,775,775,775,775,775,775,775,775,775,775,775,775,775,775,775,775,775,775,775,775,775,775,775,775,775,775,775,775,775,775,775,775,775,775,775,775,775,775,775,775,775,775,775,775,775,775,775,775,775,775,775,775,775,775,775,775,775,775,775,775,775,775,775,775,775,775,775,775,775,775,775,775,775,775,775,775,775,775,775,775,775,775,775,775,775,775,775,775,775,775,775,775,775,775,775,775,775,775,775,775,775,775,775,775,775,775,775,775,775,775,775,775,775,775,775,775,775,775,775,775,775,775,775,775,775,775,775,775,775,775,775,775,775,775,775,775,775,775,775,775,775,775,775,775,775,775,775,775,775,775,775,775,775,775,775,775,775,775,775,775,775,775,775,775,775,775,775,775,775,775,775,775,775,775,775,775,775,775,775,775,775,775,775,775,775,775,775,775,775,775,775,775,775,775,775,775,775,775,775,775,775,775,775,775,775,775,775,775,775,775,775,775,775,775,775,775,775,775,775,775,775,775,775,775,775,775,775,775,775,775,775,775,775,775,775,775,775,775,775,775,775,775,775,775,775,775,775,775,775,775,775,775,775,775,775,775,775,775,775,775,775,775,775,775,775,775,775,775,775,775,775,775,775,775,775,775,775,775,775,775,775,775,775,775,775,775,775,775,775,775,775,775,775,775,775,775,775,775,775,775,775,775,775,775,775,775,775,775,775,775,775,775,775,775,775,775,775,775,775,775,775,775,775,775,775,775,775,775,775,775,775,775,775,775,775,775,775,775,775,775,775,775,775,775,775,775,775,775,775,775,775,775,775,775,775,775,775,775,775,775,775,775,775,775,775,775,775,775,775,775,775,775,775,775,775,775,775,775,775,775,775,775,775,775,775,775,775,775,775,775,775,775,775,775,775,775,775,775,775,775,775,775,775,775,775,775,775,775,775,775,775,775,775,775,775,775,775,775,775,775,775,775,775,775,775,775,775,775,775,775,775,775,775,775,775,775,775,775,775,775,775,775,775,775,775,775,775,775,775,775,775,775,775,775,775,775,775,775,775,775,775,775,775,775,775,775,775,775,775,775,775,775,775,775,775,775,775,775,775,775,775,775,775,775,775,775,775,775,775,775,775,775,775,775,775,775,775,775,775,775,775,775,775,775,775,775,775,775,775,775,775,775,775,775,775,776,782,788,791,805,823,834,845,846,846,846,846,846,846,846,846,846,843,828,817,809,805,804,804,804,804,804,804,804,804,804,804,804,804,804,804,804,804,804,804,804,803,809,923,1005,1063,1096,1118,1144,1145,1145,1145,1145,1146,1149,1159,1169,1174,1174,1187,1192,1192,1192,1192,1192,1192,1192,1192,1192,1192,1192,1117],"ymouse":[538,538,538,538,538,538,538,538,538,538,538,538,538,538,538,538,538,538,538,538,538,538,538,538,538,538,538,538,538,538,538,538,538,538,538,538,538,538,538,538,538,538,538,538,538,538,538,538,538,538,538,538,538,538,538,538,538,538,538,538,538,538,538,538,538,538,538,538,538,538,538,538,538,538,538,538,538,538,538,538,538,538,538,538,538,538,538,538,538,538,538,538,538,538,538,538,538,538,538,538,538,538,538,538,538,538,538,538,538,538,538,538,538,538,538,538,538,538,538,538,538,538,538,538,538,538,538,538,538,538,538,538,538,538,538,538,538,538,538,538,538,538,538,538,538,538,538,538,538,538,538,538,538,538,538,538,538,538,538,538,538,538,538,538,538,538,538,538,538,538,538,538,538,538,538,538,538,538,538,538,538,538,538,538,538,538,538,538,538,538,538,538,538,538,538,538,538,538,538,538,538,538,538,538,538,538,538,538,538,538,538,538,538,538,538,538,538,538,538,538,538,538,538,538,538,538,538,538,538,538,538,538,538,538,538,538,538,538,538,538,538,538,538,538,538,538,538,538,538,538,538,538,538,538,538,538,538,538,538,538,538,538,538,538,538,538,538,538,538,538,538,538,538,538,538,538,538,538,538,538,538,538,538,538,538,538,538,538,538,538,538,538,538,538,538,538,538,538,538,538,538,538,538,538,538,538,538,538,538,538,538,538,538,538,538,538,538,538,538,538,538,538,538,538,538,538,538,538,538,538,538,538,538,538,538,538,538,538,538,538,538,538,538,538,538,538,538,538,538,538,538,538,538,538,538,538,538,538,538,538,538,538,538,538,538,538,538,538,538,538,538,538,538,538,538,538,538,538,538,538,538,538,538,538,538,538,538,538,538,538,538,538,538,538,538,538,538,538,538,538,538,538,538,538,538,538,538,538,538,538,538,538,538,538,538,538,538,538,538,538,538,538,538,538,538,538,538,538,538,538,538,538,538,538,538,538,538,538,538,538,538,538,538,538,538,538,538,538,538,538,538,538,538,538,538,538,538,538,538,538,538,538,538,538,538,538,538,538,538,538,538,538,538,538,538,538,538,538,538,538,538,538,538,538,538,538,538,538,538,538,538,538,538,538,538,538,538,538,538,538,538,538,538,538,538,538,538,538,538,538,538,538,538,538,538,538,538,538,538,538,538,538,538,538,538,538,538,538,538,538,538,538,538,538,538,538,538,538,538,538,538,538,538,538,538,538,538,538,538,538,538,538,538,538,538,538,538,538,538,538,538,538,538,538,538,538,538,538,538,538,538,538,538,538,538,538,538,538,538,538,538,538,538,538,538,538,538,538,538,538,538,538,538,538,538,538,538,538,538,538,538,538,538,538,538,538,538,538,538,538,538,538,538,538,538,538,538,538,538,538,538,538,538,538,538,538,538,538,538,538,538,538,538,538,538,538,538,538,538,538,538,538,538,538,538,538,538,538,538,538,538,538,538,538,538,538,538,538,538,538,538,538,538,538,538,538,538,538,538,538,538,538,538,538,538,538,538,538,538,538,538,538,538,538,538,538,538,538,538,538,538,538,538,538,538,538,538,538,538,538,538,538,538,538,538,538,538,538,538,538,538,538,538,538,538,538,538,538,538,538,538,538,538,538,538,538,538,538,538,538,538,538,538,538,538,538,538,538,538,538,538,538,538,538,538,538,538,538,538,538,538,538,538,538,538,538,538,538,538,538,538,538,538,538,538,538,538,538,538,538,538,538,538,538,538,538,538,538,538,538,538,538,538,538,538,538,538,538,538,538,538,538,538,538,538,538,538,538,538,538,538,538,538,538,538,538,538,538,538,538,538,538,538,538,538,538,538,538,538,538,538,538,538,538,538,538,538,538,538,538,538,538,538,538,538,538,538,538,538,538,538,538,538,538,538,538,538,538,538,538,538,538,538,538,538,538,538,538,538,538,538,538,538,538,538,538,538,538,538,538,538,538,538,538,538,538,538,538,538,538,538,538,538,538,538,538,538,538,538,538,538,538,538,538,538,538,538,538,538,538,538,538,538,538,538,538,538,538,538,538,538,538,538,538,538,538,538,538,538,538,538,538,538,538,538,538,538,538,538,538,538,538,538,538,538,538,538,538,538,538,538,538,538,538,538,538,538,538,538,538,538,538,538,538,538,538,538,538,538,538,538,538,538,538,538,538,538,538,538,538,538,538,538,538,538,538,538,538,538,538,538,538,538,538,538,538,538,538,538,538,538,538,538,538,538,538,538,538,538,538,538,538,538,538,538,538,538,538,538,538,538,538,538,538,538,538,538,538,538,538,538,538,538,538,538,538,538,538,538,538,538,538,538,538,538,538,538,538,538,538,538,538,538,538,538,538,538,538,538,538,538,538,538,538,538,538,538,538,538,538,538,538,538,538,538,538,538,538,538,538,538,538,538,538,538,538,538,538,538,538,538,538,538,538,538,538,538,538,538,538,538,538,538,538,538,538,538,538,538,538,538,538,538,538,538,538,538,538,538,538,538,538,538,538,538,538,538,538,538,538,538,538,538,538,538,538,538,538,538,538,538,538,538,538,538,538,538,538,538,538,538,538,538,538,538,538,538,538,538,538,538,538,538,538,538,538,538,538,538,538,538,538,538,538,538,538,538,538,538,538,538,538,538,538,538,538,538,538,538,538,538,538,538,538,538,538,538,538,538,538,538,538,538,538,538,538,538,538,538,538,538,538,538,538,538,538,538,538,538,538,538,538,538,538,538,538,538,538,538,538,538,538,538,538,538,538,538,538,538,538,538,538,538,538,538,538,538,538,538,538,538,538,538,538,538,538,538,538,538,538,538,538,538,538,538,538,538,538,538,538,538,538,538,538,538,538,538,538,538,538,538,538,538,538,538,538,538,538,538,538,538,538,538,538,538,538,538,538,538,538,538,538,538,538,538,538,538,538,538,538,538,538,538,538,538,538,538,538,538,538,538,538,538,538,538,538,538,538,538,538,538,538,538,538,538,538,538,538,538,538,538,538,538,538,538,538,538,538,538,538,538,538,538,538,538,538,538,538,538,538,538,538,538,538,538,538,538,538,538,538,538,538,538,538,538,538,538,538,538,538,538,538,538,538,538,538,538,538,538,538,538,538,538,538,538,538,538,538,538,538,538,538,538,538,538,538,538,538,538,538,538,538,538,538,538,538,538,538,538,538,538,538,538,538,538,538,538,538,538,538,538,538,538,538,538,538,538,538,538,538,538,538,538,538,538,538,538,538,538,538,538,538,538,538,538,538,538,538,538,538,538,538,538,538,538,538,538,538,538,538,538,538,538,538,538,538,538,538,538,538,538,538,538,538,538,538,538,538,538,538,538,538,538,538,538,538,538,538,538,538,538,538,538,538,538,538,538,538,538,538,538,538,538,538,538,538,538,538,538,538,538,538,538,538,538,538,538,538,538,538,538,538,538,538,538,538,538,538,538,538,538,538,538,538,538,538,538,538,538,538,538,538,538,538,538,538,538,538,538,538,538,538,538,538,538,538,538,538,538,538,538,538,538,538,538,538,538,538,538,538,538,538,538,538,538,538,538,538,538,538,538,538,538,538,538,538,538,538,538,538,538,538,538,538,538,538,538,538,538,538,538,538,538,538,538,538,538,538,538,538,538,538,538,538,538,538,538,538,538,538,538,538,538,538,538,538,538,538,538,538,538,538,538,538,538,538,538,538,538,538,538,538,538,538,538,538,538,538,538,538,538,538,538,538,538,538,538,538,538,538,538,538,538,538,538,538,538,538,538,538,538,538,538,538,538,538,538,538,538,538,538,538,538,538,538,538,538,538,538,538,538,538,538,538,538,538,538,538,538,538,538,538,538,538,538,538,538,538,538,538,538,538,538,538,538,538,538,538,538,538,538,538,538,538,538,538,538,538,538,538,538,538,538,538,538,538,538,538,538,538,538,538,538,538,538,538,538,538,538,538,538,538,538,538,538,538,538,538,538,538,538,538,538,538,538,538,538,538,538,538,538,538,538,538,538,538,538,538,538,538,538,538,538,538,538,538,538,538,538,538,538,538,538,538,538,538,538,538,538,538,538,538,538,538,538,538,538,538,538,538,538,538,538,538,538,538,538,538,538,538,538,538,538,538,538,538,538,538,538,538,538,538,538,538,538,538,538,538,538,538,538,538,538,538,538,538,538,538,538,538,538,538,538,538,538,538,538,538,538,538,538,538,538,538,538,538,538,538,538,538,538,538,538,538,538,538,538,538,538,538,538,538,538,538,538,538,538,538,538,538,538,538,538,538,538,538,538,538,538,538,538,538,538,538,538,538,538,538,538,538,538,538,538,538,538,538,538,538,538,538,538,538,538,538,538,538,538,538,538,538,538,538,538,538,538,538,538,538,538,538,538,538,538,538,538,538,538,538,538,538,538,538,538,538,538,538,538,538,538,538,538,538,538,538,538,538,538,538,538,538,538,538,538,538,538,538,538,538,538,538,538,538,538,538,538,538,538,538,538,538,538,538,538,538,538,538,538,538,538,538,538,538,538,538,538,538,538,538,538,538,538,538,538,538,538,538,538,538,538,538,538,538,538,538,538,538,538,538,538,538,538,538,538,538,538,538,538,538,538,538,538,538,538,538,538,538,538,538,538,538,538,538,538,538,538,538,538,538,538,538,538,538,538,538,538,538,538,538,538,538,538,538,538,538,538,538,538,538,538,538,538,538,538,538,538,538,538,538,538,538,538,538,538,538,538,538,538,538,538,538,538,538,538,538,538,538,538,538,538,538,538,538,538,538,538,538,538,538,538,538,538,538,538,538,538,538,538,538,538,538,538,538,538,538,538,538,538,538,538,538,538,538,538,538,538,538,538,538,538,538,538,538,538,538,538,538,538,538,538,538,538,538,538,538,538,538,538,538,538,538,538,538,538,538,538,538,538,538,538,538,538,538,538,538,538,538,538,538,538,538,538,538,538,538,538,538,538,538,538,538,538,538,538,538,538,538,538,538,538,538,538,538,538,538,538,538,538,538,538,538,538,538,538,538,538,538,538,538,538,538,538,538,538,538,538,538,538,538,538,538,538,538,538,538,538,538,538,538,538,538,538,538,538,538,538,538,538,538,538,538,538,538,538,538,538,538,538,538,538,538,538,538,538,538,538,538,538,538,538,538,538,538,538,538,538,538,538,538,538,538,538,538,538,538,538,538,538,538,538,538,538,538,538,538,538,538,538,538,538,538,538,538,538,538,538,538,538,538,538,538,538,538,538,538,538,538,538,538,538,538,538,539,539,541,544,545,548,549,549,547,547,547,547,547,547,547,547,547,547,547,547,547,547,547,547,547,547,547,547,547,547,547,547,547,547,547,547,547,547,547,547,547,547,547,547,547,559,570,575,578,583,584,584,584,584,584,579,542,479,288,137,52,13,13,13,13,13,13,13,13,13,13,13,1],"timestamp_mouse":[10,27,47,71,88,107,127,147,167,187,208,227,248,268,288,307,327,347,367,388,407,428,447,468,488,507,527,547,567,587,610,627,646,667,688,708,727,747,768,787,807,827,848,868,888,908,927,947,967,988,1007,1027,1048,1067,1087,1108,1128,1148,1167,1187,1207,1227,1247,1268,1288,1307,1327,1348,1367,1387,1407,1428,1447,1467,1487,1508,1527,1548,1568,1587,1608,1626,1647,1667,1687,1708,1728,1748,1768,1787,1807,1828,1848,1868,1888,1907,1928,1948,1967,1986,2007,2027,2047,2067,2088,2108,2128,2147,2168,2187,2207,2228,2248,2268,2288,2307,2327,2347,2368,2387,2408,2427,2446,2468,2487,2508,2528,2548,2567,2588,2607,2628,2648,2668,2688,2708,2727,2748,2768,2787,2808,2828,2848,2867,2887,2907,2928,2947,2968,2987,3008,3028,3047,3067,3086,3108,3128,3147,3168,3188,3207,3227,3248,3268,3288,3308,3327,3348,3368,3388,3407,3428,3447,3467,3488,3508,3527,3548,3567,3588,3607,3627,3647,3668,3687,3707,3728,3747,3768,3788,3807,3827,3848,3867,3888,3908,3927,3947,3968,3986,4008,4028,4047,4068,4087,4107,4128,4148,4168,4188,4206,4227,4248,4268,4287,4307,4326,4348,4368,4388,4407,4427,4447,4467,4488,4508,4527,4547,4566,4587,4607,4627,4648,4666,4687,4707,4728,4747,4767,4788,4807,4827,4847,4867,4887,4907,4927,4947,4968,4988,5008,5027,5048,5067,5087,5107,5128,5147,5167,5186,5208,5226,5247,5268,5288,5307,5327,5348,5368,5387,5407,5428,5447,5467,5487,5507,5527,5547,5568,5586,5607,5627,5647,5668,5687,5707,5726,5747,5768,5787,5808,5827,5847,5867,5887,5908,5927,5946,5968,5988,6007,6027,6047,6067,6087,6108,6128,6147,6168,6187,6207,6228,6247,6268,6288,6307,6327,6346,6368,6387,6408,6427,6447,6468,6486,6507,6527,6548,6568,6588,6607,6627,6647,6667,6687,6707,6727,6748,6767,6788,6807,6828,6847,6867,6888,6907,6927,6948,6968,6987,7007,7027,7048,7067,7088,7107,7127,7148,7167,7188,7207,7227,7248,7268,7288,7307,7327,7348,7368,7388,7407,7427,7447,7468,7487,7507,7527,7547,7567,7587,7608,7627,7648,7666,7687,7707,7728,7747,7767,7787,7807,7827,7848,7868,7888,7907,7928,7947,7968,7987,8007,8027,8047,8067,8088,8108,8127,8148,8168,8188,8207,8227,8248,8268,8289,8307,8327,8347,8366,8388,8407,8426,8448,8468,8488,8507,8527,8548,8568,8587,8607,8628,8647,8668,8687,8707,8728,8748,8767,8788,8807,8828,8847,8868,8887,8907,8927,8947,8968,8987,9008,9027,9048,9067,9087,9108,9127,9148,9168,9187,9207,9226,9247,9268,9287,9307,9327,9348,9367,9388,9407,9427,9447,9468,9487,9507,9527,9547,9567,9588,9608,9627,9647,9667,9688,9707,9728,9748,9767,9788,9807,9827,9848,9868,9887,9908,9927,9948,9968,9988,10007,10027,10048,10067,10087,10106,10128,10147,10168,10188,10207,10228,10248,10268,10288,10308,10328,10348,10368,10388,10408,10428,10448,10467,10488,10508,10528,10547,10568,10588,10607,10627,10648,10667,10687,10707,10727,10747,10768,10788,10808,10827,10848,10868,10888,10907,10927,10947,10967,10987,11007,11027,11048,11068,11088,11107,11128,11147,11168,11187,11208,11228,11247,11268,11288,11307,11327,11348,11367,11387,11407,11428,11446,11467,11487,11508,11527,11547,11567,11588,11608,11626,11647,11668,11686,11708,11726,11747,11768,11787,11807,11827,11846,11867,11887,11908,11927,11947,11967,11987,12006,12028,12048,12067,12087,12107,12128,12147,12167,12187,12207,12227,12248,12268,12288,12306,12327,12348,12367,12388,12407,12427,12447,12468,12488,12507,12528,12547,12568,12587,12607,12627,12648,12668,12687,12707,12727,12747,12766,12788,12807,12826,12847,12867,12888,12907,12927,12947,12968,12987,13008,13027,13047,13067,13086,13107,13127,13147,13167,13187,13207,13227,13247,13268,13287,13308,13327,13347,13367,13388,13408,13428,13447,13467,13487,13507,13527,13547,13567,13587,13606,13627,13647,13666,13687,13707,13727,13748,13767,13787,13807,13827,13848,13866,13888,13906,13928,13947,13968,13987,14007,14027,14048,14068,14087,14107,14127,14147,14167,14187,14207,14228,14247,14268,14287,14307,14327,14347,14367,14388,14407,14427,14447,14467,14487,14507,14527,14548,14567,14588,14607,14627,14647,14667,14687,14707,14727,14747,14767,14788,14807,14827,14847,14867,14887,14907,14927,14947,14967,14987,15008,15027,15047,15067,15087,15108,15127,15147,15167,15187,15206,15227,15247,15268,15287,15307,15327,15347,15367,15387,15407,15427,15447,15467,15487,15507,15527,15548,15567,15587,15607,15627,15648,15668,15687,15707,15727,15747,15768,15787,15807,15827,15848,15868,15888,15907,15927,15948,15967,15987,16008,16027,16047,16067,16088,16107,16127,16148,16168,16187,16206,16227,16247,16268,16288,16308,16327,16347,16367,16387,16408,16427,16447,16467,16487,16507,16527,16548,16567,16587,16607,16627,16647,16668,16686,16707,16727,16747,16768,16788,16806,16826,16847,16867,16887,16907,16927,16947,16968,16986,17008,17027,17047,17068,17087,17106,17127,17148,17167,17187,17208,17227,17247,17268,17288,17308,17327,17347,17366,17388,17407,17427,17448,17467,17488,17508,17526,17547,17567,17588,17608,17626,17646,17668,17688,17707,17727,17747,17766,17788,17807,17827,17847,17867,17888,17906,17926,17947,17967,17987,18007,18027,18048,18066,18087,18108,18127,18146,18168,18187,18206,18228,18247,18268,18288,18308,18327,18348,18366,18387,18407,18428,18447,18466,18487,18508,18527,18547,18568,18588,18608,18627,18647,18666,18686,18706,18727,18747,18766,18788,18807,18827,18847,18868,18888,18907,18927,18948,18967,18986,19008,19026,19048,19066,19086,19107,19127,19147,19167,19187,19207,19226,19248,19268,19288,19307,19326,19347,19368,19387,19407,19427,19447,19467,19487,19507,19527,19548,19566,19587,19607,19626,19646,19666,19687,19707,19727,19746,19768,19787,19807,19827,19847,19867,19887,19908,19927,19947,19968,19986,20007,20027,20046,20067,20087,20107,20127,20147,20167,20188,20206,20227,20247,20266,20288,20308,20326,20347,20367,20386,20407,20428,20447,20466,20487,20507,20528,20548,20568,20586,20607,20626,20648,20668,20687,20706,20727,20746,20767,20786,20807,20827,20848,20867,20888,20907,20927,20947,20968,20988,21007,21027,21047,21067,21088,21108,21126,21147,21167,21187,21206,21226,21247,21267,21288,21306,21327,21348,21367,21388,21406,21428,21447,21466,21488,21506,21527,21547,21567,21586,21608,21627,21647,21668,21687,21708,21727,21747,21768,21787,21808,21826,21846,21867,21888,21906,21926,21947,21967,21988,22008,22027,22047,22067,22087,22107,22127,22147,22168,22187,22206,22227,22246,22267,22288,22307,22327,22347,22367,22388,22406,22427,22447,22467,22488,22506,22527,22548,22568,22587,22607,22626,22646,22668,22687,22707,22726,22747,22767,22787,22807,22827,22847,22867,22887,22906,22927,22948,22967,22987,23008,23027,23048,23067,23087,23107,23127,23148,23166,23186,23207,23227,23247,23266,23288,23307,23327,23346,23367,23388,23407,23428,23447,23468,23487,23526,23528,23547,23567,23587,23607,23627,23647,23667,23688,23708,23727,23747,23767,23787,23806,23826,23847,23867,23887,23906,23926,23947,23967,23987,24008,24027,24048,24066,24087,24107,24127,24147,24167,24187,24207,24226,24247,24266,24288,24307,24327,24347,24367,24387,24407,24427,24447,24468,24487,24508,24527,24547,24566,24586,24606,24627,24646,24667,24688,24706,24727,24747,24766,24787,24807,24827,24847,24866,24886,24907,24927,24946,24967,24987,25006,25027,25046,25066,25087,25107,25128,25147,25167,25187,25207,25228,25247,25267,25286,25306,25327,25346,25367,25388,25406,25427,25447,25467,25488,25508,25527,25547,25568,25587,25607,25627,25647,25666,25687,25707,25727,25747,25767,25787,25807,25827,25846,25868,25886,25908,25928,25946,25967,25988,26006,26026,26047,26066,26088,26107,26127,26146,26168,26186,26208,26227,26247,26268,26286,26306,26327,26346,26367,26388,26406,26427,26447,26466,26488,26507,26527,26547,26566,26588,26607,26627,26646,26668,26687,26707,26727,26746,26768,26786,26806,26826,26848,26866,26887,26906,26927,26947,26966,26987,27007,27026,27047,27066,27087,27106,27128,27148,27167,27186,27206,27228,27246,27268,27288,27307,27328,27347,27367,27386,27407,27426,27448,27468,27486,27508,27527,27547,27567,27587,27607,27627,27647,27668,27687,27707,27727,27747,27767,27788,27807,27827,27847,27866,27887,27907,27928,27947,27968,27987,28008,28028,28047,28068,28088,28106,28128,28147,28167,28187,28208,28227,28246,28268,28286,28306,28327,28348,28367,28388,28407,28427,28447,28467,28487,28508,28527,28547,28567,28588,28606,28626,28647,28667,28688,28708,28726,28746,28767,28787,28806,28827,28847,28868,28887,28907,28927,28948,28966,28987,29007,29026,29047,29068,29086,29106,29128,29146,29167,29186,29206,29227,29247,29267,29287,29307,29327,29348,29368,29387,29407,29427,29446,29468,29487,29507,29526,29548,29566,29588,29607,29627,29647,29666,29687,29707,29727,29746,29768,29787,29806,29828,29847,29867,29886,29908,29926,29947,29968,29986,30008,30027,30046,30067,30087,30107,30126,30147,30168,30187,30207,30228,30246,30267,30287,30308,30326,30348,30368,30388,30408,30428,30446,30468,30488,30506,30527,30548,30566,30586,30607,30628,30648,30668,30688,30707,30727,30748,30768,30787,30807,30827,30847,30867,30887,30907,30926,30947,30968,30988,31006,31027,31047,31067,31088,31106,31128,31146,31168,31187,31206,31227,31246,31268,31287,31307,31328,31346,31368,31387,31407,31428,31446,31467,31487,31507,31527,31546,31567,31588,31606,31627,31647,31667,31687,31706,31727,31746,31768,31786,31808,31826,31847,31867,31886,31907,31928,31947,31967,31987,32007,32028,32046,32067,32087,32107,32127,32147,32168,32186,32208,32226,32246,32268,32287,32306,32327,32346,32368,32387,32406,32427,32447,32468,32486,32508,32527,32547,32567,32588,32606,32626,32647,32667,32687,32706,32727,32746,32768,32787,32807,32827,32847,32866,32888,32907,32927,32947,32966,32987,33007,33027,33046,33067,33086,33108,33127,33147,33167,33187,33206,33228,33246,33268,33287,33307,33327,33347,33367,33387,33407,33428,33446,33467,33486,33508,33527,33548,33567,33587,33608,33627,33646,33667,33687,33707,33727,33746,33767,33788,33807,33827,33847,33867,33887,33908,33927,33947,33966,33987,34006,34027,34047,34067,34088,34107,34127,34147,34166,34187,34206,34227,34246,34268,34288,34308,34326,34347,34367,34388,34407,34428,34446,34466,34487,34506,34527,34547,34567,34588,34606,34627,34648,34666,34687,34708,34726,34746,34767,34787,34807,34827,34847,34867,34888,34906,34927,34947,34967,34988,35008,35027,35046,35067,35086,35107,35126,35148,35166,35188,35208,35226,35248,35266,35287,35307,35326,35348,35366,35388,35406,35426,35447,35467,35488,35508,35527,35547,35567,35587,35607,35628,35647,35667,35687,35706,35727,35747,35767,35788,35807,35827,35848,35868,35887,35907,35927,35947,35968,35987,36008,36027,36048,36068,36087,36106,36128,36146,36167,36187,36206,36228,36248,36267,36288,36307,36327,36347,36367,36387,36407,36427,36448,36468,36487,36508,36527,36547,36568,36586,36608,36626,36646,36667,36687,36706,36726,36747,36767,36787,36806,36828,36848,36868,36887,36908,36927,36947,36966,36988,37006,37027,37048,37068,37086,37107,37127,37147,37168,37188,37207,37227,37247,37266,37287,37308,37328,37347,37367,37387,37408,37428,37447,37468,37488,37508,37528,37548,37568,37587,37607,37628,37647,37666,37687,37708,37728,37747,37767,37787,37807,37827,37847,37867,37886,37908,37926,37948,37968,37986,38008,38027,38046,38067,38086,38108,38127,38147,38167,38188,38206,38226,38248,38266,38287,38306,38328,38348,38366,38388,38408,38427,38448,38467,38488,38507,38528,38547,38567,38586,38607,38628,38648,38667,38688,38707,38727,38746,38767,38788,38808,38828,38848,38867,38888,38907,38927,38948,38967,38988,39007,39028,39048,39067,39087,39108,39127,39146,39168,39187,39206,39227,39246,39267,39288,39307,39328,39347,39367,39388,39407,39428,39448,39467,39486,39507,39528,39547,39567,39587,39607,39627,39647,39667,39687,39706,39727,39748,39766,39787,39808,39828,39847,39867,39888,39908,39926,39947,39967,39988,40007,40028,40046,40067,40088,40107,40127,40148,40166,40187,40207,40228,40246,40268,40288,40308,40327,40347,40367,40387,40408,40426,40447,40467,40486,40508,40527,40548,40567,40586,40607,40628,40648,40667,40687,40707,40728,40747,40767,40788,40807,40828,40848,40866,40888,40907,40926,40948,40966,40987,41008,41027,41047,41068,41087,41107,41127,41147,41168,41186,41207,41227,41247,41266,41287,41307,41327,41347,41367,41387,41407,41428,41446,41468,41487,41507,41527,41546,41567,41587,41607,41627,41647,41668,41687,41707,41727,41748,41768,41787,41807,41826,41847,41866,41887,41907,41927,41947,41966,41987,42008,42027,42047,42067,42087,42106,42127,42147,42168,42187,42208,42227,42247,42267,42287,42307,42327,42346,42367,42387,42406,42426,42448,42466,42486,42508,42526,42548,42566,42587,42608,42626,42648,42666,42687,42708,42727,42747,42768,42787,42807,42828,42846,42867,42887,42908,42927,42946,42967,42988,43007,43028,43048,43067,43087,43107,43127,43146,43167,43187,43206,43226,43247,43267,43287,43306,43328,43348,43367,43387,43406,43428,43448,43466,43487,43508,43526,43547,43567,43588,43608,43627,43647,43668,43687,43707,43726,43746,43768,43787,43807,43827,43847,43867,43887,43907,43927,43947,43968,43988,44008,44026,44047,44066,44088,44107,44126,44148,44168,44188,44207,44227,44247,44268,44287,44307,44328,44347,44368,44387,44407,44427,44446,44467,44487,44508,44526,44548,44567,44587,44607,44627,44648,44666,44687,44708,44728,44746,44767,44787,44806,44827,44847,44867,44886,44907,44928,44947,44966,44988,45007,45028,45048,45068,45088,45108,45126,45146,45168,45187,45207,45226,45247,45267,45287,45307,45327,45348,45366,45387,45407,45427,45447,45468,45486,45508,45528,45546,45567,45588,45608,45626,45647,45666,45687,45708,45726,45748,45767,45786,45807,45826,45848,45868,45887,45907,45927,45946,45968,45986,46008,46027,46048,46067,46088,46108,46128,46147,46167,46187,46208,46226,46247,46266,46288,46308,46327,46346,46367,46386,46408,46428,46447,46466,46488,46507,46527,46547,46568,46588,46607,46627,46648,46668,46686,46708,46727,46748,46768,46787,46807,46828,46847,46866,46888,46907,46927,46947,46968,46988,47007,47027,47048,47067,47087,47107,47127,47146,47168,47186,47208,47226,47247,47268,47287,47306,47327,47347,47366,47387,47408,47428,47446,47467,47487,47506,47527,47547,47568,47588,47607,47627,47647,47668,47687,47707,47728,47747,47767,47788,47806,47826,47847,47866,47886,47907,47928,47947,47967,47988,48008,48027,48047,48068],"xSR":741.5,"ySR":501.8,"xT1":424.9,"yT1":0,"xT2":1058.1,"yT2":0,"toosoon":0,"cond_shown":"Incongruent","ratio_trial":300,"L_num":4,"L_den":20,"R_num":2,"R_den":4,"correct_side":2,"subjID":"ivandanielrocharodelo31","gender":"6","school":"cafam","age":"11"},{"start_time":1551790015999,"click_time":1551790017719,"finger_time":1551790017379,"fix_duration":399.85235165232115,"trial":5,"RT":1380,"MT":340,"sideResp":1,"stimulus":[],"xmouse":[795,795,795,795,795,795,795,795,795,795,795,795,795,795,795,795,795,795,795,795,795,795,795,795,795,795,795,795,795,795,795,795,795,795,795,795,795,795,795,795,795,795,795,795,795,795,795,795,795,795,795,795,795,795,795,795,795,795,795,790,788,785,782,779,777,777,777,777,776,765,753,732,710,687,649,640,635,630,626,619,614,610,602,587,547,531,524],"ymouse":[532,532,532,532,532,532,532,532,532,532,532,532,532,532,532,532,532,532,532,532,532,532,532,532,532,532,532,532,532,532,532,532,532,532,532,532,532,532,532,532,532,532,532,532,532,532,532,532,532,532,532,532,532,532,532,532,532,532,531,523,519,516,512,509,509,509,509,509,507,464,425,357,281,207,74,43,24,13,9,9,9,11,12,14,24,32,38],"timestamp_mouse":[1,20,40,61,80,101,120,141,159,179,200,221,250,260,281,300,321,340,360,381,401,419,440,461,480,501,520,539,560,581,600,620,641,660,681,700,720,741,761,780,800,820,840,860,881,900,920,941,961,979,1001,1019,1040,1059,1079,1100,1120,1141,1160,1180,1201,1219,1240,1261,1281,1300,1320,1340,1360,1380,1401,1419,1440,1461,1479,1500,1520,1540,1561,1580,1600,1620,1640,1659,1679,1700,1720],"xSR":741.5,"ySR":501.8,"xT1":424.9,"yT1":0,"xT2":1058.1,"yT2":0,"toosoon":0,"cond_shown":"Congruent","ratio_trial":300,"L_num":20,"L_den":25,"R_num":14,"R_den":28,"correct_side":1,"subjID":"ivandanielrocharodelo31","gender":"6","school":"cafam","age":"11"},{"start_time":1551790019766,"click_time":1551790021281,"finger_time":1551790020798,"fix_duration":1164.54977829743,"trial":6,"RT":1032,"MT":483,"sideResp":2,"stimulus":[],"xmouse":[743,743,743,743,743,743,743,743,743,743,743,743,743,743,743,743,743,743,743,743,743,743,743,743,743,743,743,743,743,743,743,743,743,743,743,743,743,743,743,743,743,743,743,743,743,743,743,743,743,743,743,794,846,897,956,1012,1062,1066,1068,1068,1068,1068,1068,1068,1068,1070,1071,1072,1073,1073,1073,1074,1077,1079,1082,1088],"ymouse":[563,563,563,563,563,563,563,563,563,563,563,563,563,563,563,563,563,563,563,563,563,563,563,563,563,563,563,563,563,563,563,563,563,563,563,563,563,563,563,563,563,563,563,563,563,563,563,563,563,563,563,496,443,382,319,259,187,175,173,173,173,173,173,173,173,172,165,159,156,152,141,137,126,120,110,99],"timestamp_mouse":[13,45,54,73,93,113,134,153,173,193,214,234,254,274,294,313,333,353,374,393,414,432,453,473,493,512,534,552,573,593,613,633,653,674,692,713,734,753,772,793,814,833,854,872,893,913,934,954,973,993,1012,1032,1052,1073,1093,1114,1132,1152,1173,1193,1214,1233,1253,1273,1292,1314,1332,1353,1374,1393,1414,1432,1453,1473,1494,1514],"xSR":741.5,"ySR":501.8,"xT1":424.9,"yT1":0,"xT2":1058.1,"yT2":0,"toosoon":0,"cond_shown":"Incongruent","ratio_trial":200,"L_num":1,"L_den":3,"R_num":2,"R_den":15,"correct_side":1,"subjID":"ivandanielrocharodelo31","gender":"6","school":"cafam","age":"11"},{"start_time":1551790024320,"click_time":1551790028860,"finger_time":1551790027978,"fix_duration":558.4883238306423,"trial":7,"RT":3658,"MT":882,"sideResp":2,"stimulus":[],"xmouse":[769,769,769,769,769,769,769,769,769,769,769,769,769,769,769,769,769,769,769,769,769,769,769,769,769,769,769,769,769,769,769,769,769,769,769,769,769,769,769,769,769,769,769,769,769,769,769,769,769,769,769,769,769,769,769,769,769,769,769,769,769,769,769,769,769,769,769,769,769,769,769,769,769,769,769,769,769,769,769,769,769,769,769,769,769,769,769,769,769,769,769,769,769,769,769,769,769,769,769,769,769,769,769,769,769,769,769,769,769,769,769,769,769,769,769,769,769,769,769,769,769,769,769,769,769,769,769,769,769,769,769,769,769,769,769,769,769,769,769,769,769,769,769,769,769,769,769,769,769,769,769,769,769,769,769,769,769,769,769,769,769,769,769,769,769,769,769,769,769,769,769,769,769,769,769,769,769,769,769,773,780,787,789,790,790,787,779,772,747,672,606,542,488,447,426,407,407,407,407,407,419,448,493,524,542,542,542,542,542,542,543,542,537,536,536,536,536,543,556,572,625,656,684,717,816,878,954,1060],"ymouse":[558,558,558,558,558,558,558,558,558,558,558,558,558,558,558,558,558,558,558,558,558,558,558,558,558,558,558,558,558,558,558,558,558,558,558,558,558,558,558,558,558,558,558,558,558,558,558,558,558,558,558,558,558,558,558,558,558,558,558,558,558,558,558,558,558,558,558,558,558,558,558,558,558,558,558,558,558,558,558,558,558,558,558,558,558,558,558,558,558,558,558,558,558,558,558,558,558,558,558,558,558,558,558,558,558,558,558,558,558,558,558,558,558,558,558,558,558,558,558,558,558,558,558,558,558,558,558,558,558,558,558,558,558,558,558,558,558,558,558,558,558,558,558,558,558,558,558,558,558,558,558,558,558,558,558,558,558,558,558,558,558,558,558,558,558,558,558,558,558,558,558,558,558,558,558,558,558,558,558,556,548,531,513,497,482,468,455,445,417,350,300,251,206,164,140,116,116,116,116,116,115,120,130,133,133,133,133,133,133,133,133,129,124,122,122,122,123,135,146,151,158,158,155,151,134,117,97,76],"timestamp_mouse":[1,32,40,58,78,99,120,139,160,179,199,219,238,259,280,299,319,339,359,379,399,419,439,460,478,500,518,539,560,580,599,618,640,658,678,699,720,739,759,780,800,820,840,858,879,899,919,938,960,979,1000,1019,1039,1060,1078,1100,1120,1140,1159,1180,1200,1218,1240,1259,1280,1300,1320,1339,1360,1379,1400,1418,1439,1460,1479,1500,1519,1540,1558,1579,1599,1619,1639,1660,1679,1699,1719,1739,1758,1779,1798,1819,1839,1860,1880,1898,1919,1940,1960,1980,1998,2020,2040,2059,2078,2099,2120,2140,2158,2180,2198,2219,2239,2259,2280,2299,2319,2339,2360,2379,2398,2419,2439,2459,2479,2500,2519,2538,2558,2579,2599,2619,2639,2659,2679,2700,2718,2740,2759,2779,2800,2820,2839,2859,2879,2899,2918,2940,2960,2980,3000,3020,3038,3059,3078,3100,3119,3140,3159,3180,3200,3219,3239,3259,3279,3300,3318,3339,3359,3380,3398,3419,3439,3459,3480,3500,3518,3539,3559,3578,3599,3619,3639,3658,3680,3698,3719,3739,3759,3780,3798,3819,3838,3859,3880,3899,3919,3939,3959,3979,3998,4019,4038,4060,4079,4100,4119,4139,4158,4180,4200,4219,4239,4259,4280,4299,4319,4339,4359,4378,4398,4419,4440,4459,4481,4498,4519,4540],"xSR":741.5,"ySR":501.8,"xT1":424.9,"yT1":0,"xT2":1058.1,"yT2":0,"toosoon":0,"cond_shown":"Incongruent","ratio_trial":300,"L_num":4,"L_den":20,"R_num":2,"R_den":4,"correct_side":2,"subjID":"ivandanielrocharodelo31","gender":"6","school":"cafam","age":"11"},{"start_time":1551790033104,"click_time":1551790034719,"finger_time":1551790034618,"fix_duration":922.122938961562,"trial":8,"RT":1514,"MT":101,"sideResp":1,"stimulus":[],"xmouse":[778,778,778,778,778,778,778,778,778,778,778,778,778,778,778,778,778,778,778,778,778,778,778,778,778,778,778,778,778,778,778,778,778,778,778,778,778,778,778,778,778,778,778,778,778,778,778,778,778,778,778,778,778,778,778,778,778,778,778,778,778,778,778,778,778,778,778,778,778,778,778,778,778,773,764,583,492,434,417,417,438],"ymouse":[523,523,523,523,523,523,523,523,523,523,523,523,523,523,523,523,523,523,523,523,523,523,523,523,523,523,523,523,523,523,523,523,523,523,523,523,523,523,523,523,523,523,523,523,523,523,523,523,523,523,523,523,523,523,523,523,523,523,523,523,523,523,523,523,523,523,523,523,523,523,523,523,523,518,508,348,266,190,133,104,64],"timestamp_mouse":[15,41,56,75,95,116,134,155,174,195,214,236,255,274,295,315,335,356,374,395,416,436,455,474,495,516,535,555,575,596,615,636,656,675,694,715,735,754,776,796,814,835,855,876,895,915,936,954,975,996,1015,1036,1056,1074,1096,1115,1136,1156,1174,1195,1215,1235,1255,1276,1294,1314,1336,1356,1375,1395,1415,1435,1456,1475,1495,1514,1534,1554,1574,1594,1614],"xSR":741.5,"ySR":501.8,"xT1":424.9,"yT1":0,"xT2":1058.1,"yT2":0,"toosoon":0,"cond_shown":"Congruent","ratio_trial":200,"L_num":6,"L_den":12,"R_num":7,"R_den":10,"correct_side":2,"subjID":"ivandanielrocharodelo31","gender":"6","school":"cafam","age":"11"},{"start_time":1551790036566,"click_time":1551790038800,"finger_time":1551790037039,"fix_duration":885.7294248259395,"trial":9,"RT":473,"MT":1761,"sideResp":2,"stimulus":[],"xmouse":[792,792,792,792,792,792,792,792,792,792,792,792,792,792,792,792,794,795,795,796,798,804,822,901,941,961,966,966,966,966,966,966,966,966,966,966,966,952,929,894,827,774,731,693,690,690,690,690,690,690,694,736,795,812,816,816,816,816,816,816,816,816,816,816,816,816,816,816,816,816,816,816,816,816,816,816,816,816,823,849,922,975,1013,1042,1048,1051,1054,1056,1056,1056,1056,1059,1075,1083,1090,1097,1099,1101,1101,1101,1101,1101,1101,1101,1101,1101,1101,1101,1109,1123,1133,1145],"ymouse":[529,529,529,529,529,530,531,533,534,535,537,537,537,537,537,537,537,537,537,537,537,537,544,581,599,606,608,608,608,608,608,608,608,608,608,608,608,602,594,585,567,558,548,542,541,541,541,541,541,541,541,550,558,560,561,561,561,561,561,561,561,561,561,561,561,561,561,561,561,561,561,561,561,561,561,561,561,561,538,474,331,257,216,189,183,181,180,179,179,179,179,177,163,155,144,136,131,124,124,124,124,124,124,124,124,124,123,123,115,106,100,93],"timestamp_mouse":[14,33,52,72,93,113,132,153,174,194,212,233,253,273,293,314,334,354,372,394,414,432,453,473,493,514,532,554,573,593,613,633,654,673,693,714,732,754,772,793,814,833,853,873,893,912,934,953,973,993,1013,1032,1054,1073,1094,1113,1134,1153,1173,1193,1212,1233,1253,1273,1293,1312,1333,1354,1372,1394,1412,1433,1453,1474,1494,1513,1533,1552,1574,1594,1614,1634,1652,1673,1693,1713,1733,1754,1772,1793,1812,1833,1854,1873,1892,1913,1934,1954,1973,1992,2013,2034,2053,2073,2093,2113,2132,2152,2173,2193,2213,2234],"xSR":741.5,"ySR":501.8,"xT1":424.9,"yT1":0,"xT2":1058.1,"yT2":0,"toosoon":0,"cond_shown":"Congruent","ratio_trial":300,"L_num":9,"L_den":10,"R_num":3,"R_den":5,"correct_side":1,"subjID":"ivandanielrocharodelo31","gender":"6","school":"cafam","age":"11"},{"start_time":1551790040536,"click_time":1551790042519,"finger_time":1551790041919,"fix_duration":896.9724611654011,"trial":10,"RT":1383,"MT":600,"sideResp":2,"stimulus":[],"xmouse":[789,789,789,789,789,789,789,789,789,789,789,789,789,789,789,789,789,789,789,789,789,789,789,789,789,789,789,789,789,789,789,789,789,789,789,789,789,789,789,789,789,789,789,789,789,789,789,789,789,789,789,789,789,789,789,789,789,789,789,789,789,789,789,789,789,789,790,797,830,947,1121,1168,1186,1195,1198,1205,1210,1215,1218,1222,1232,1233,1235,1235,1232,1214,1206,1202,1201,1201,1199,1198,1197,1195,1193,1188,1184,1178,1166,1153],"ymouse":[540,540,540,540,540,540,540,540,540,540,540,540,540,540,540,540,540,540,540,540,540,540,540,540,540,540,540,540,540,540,540,540,540,540,540,540,540,540,540,540,540,540,540,540,540,540,540,540,540,540,540,540,540,540,540,540,540,540,540,540,540,540,540,540,540,540,540,540,524,448,344,319,307,301,298,284,271,253,241,228,187,170,154,137,120,82,69,63,62,62,62,62,63,65,66,72,75,79,83,88],"timestamp_mouse":[9,38,44,64,83,103,124,143,162,182,203,223,243,263,283,302,324,343,363,383,403,423,443,462,484,502,523,543,563,583,604,624,642,664,683,704,723,742,764,784,804,824,844,864,882,903,924,942,964,984,1003,1024,1042,1063,1083,1104,1123,1143,1162,1183,1204,1224,1243,1263,1283,1302,1323,1343,1364,1383,1403,1423,1443,1464,1482,1502,1523,1543,1562,1582,1602,1624,1643,1664,1682,1703,1723,1743,1763,1783,1803,1823,1843,1864,1882,1903,1922,1942,1963,1983],"xSR":741.5,"ySR":501.8,"xT1":424.9,"yT1":0,"xT2":1058.1,"yT2":0,"toosoon":0,"cond_shown":"Incongruent","ratio_trial":200,"L_num":3,"L_den":4,"R_num":11,"R_den":20,"correct_side":1,"subjID":"ivandanielrocharodelo31","gender":"6","school":"cafam","age":"11"},{"start_time":1551790045798,"click_time":1551790048901,"finger_time":1551790048280,"fix_duration":336.38377462243176,"trial":11,"RT":2482,"MT":621,"sideResp":1,"stimulus":[],"xmouse":[772,772,772,772,772,772,772,772,772,772,772,772,772,772,772,772,772,772,772,772,772,772,772,772,772,772,772,772,772,772,772,772,772,772,772,772,772,772,772,772,772,772,772,772,772,772,772,772,772,772,772,772,772,772,772,772,772,772,772,772,772,772,772,772,772,772,772,772,772,772,772,772,772,772,772,772,772,772,772,772,772,772,772,772,772,772,772,772,772,772,772,772,772,772,772,772,772,772,772,772,772,772,772,772,772,772,772,772,772,772,772,772,772,772,772,772,772,772,772,772,778,786,800,829,845,860,888,958,983,1005,1020,1032,1042,1048,1048,1048,1048,1046,1043,1043,1041,1031,1009,828,636,525,525,525,525,525,525,525,525,525,525,456],"ymouse":[551,551,551,551,551,551,551,551,551,551,551,551,551,551,551,551,551,551,551,551,551,551,551,551,551,551,551,551,551,551,551,551,551,551,551,551,551,551,551,551,551,551,551,551,551,551,551,551,551,551,551,551,551,551,551,551,551,551,551,551,551,551,551,551,551,551,551,551,551,551,551,551,551,551,551,551,551,551,551,551,551,551,551,551,551,551,551,551,551,551,551,551,551,551,551,551,551,551,551,551,551,551,551,551,551,551,551,551,551,551,551,551,551,551,551,551,551,551,551,551,551,556,565,565,552,533,501,406,366,326,289,262,238,220,220,220,218,215,208,208,203,187,166,91,33,1,1,1,1,1,1,1,1,1,1,25],"timestamp_mouse":[8,21,46,62,81,100,122,142,162,180,201,221,242,262,281,301,321,341,362,381,402,421,441,462,481,501,521,542,562,582,601,621,641,661,681,701,721,741,761,781,802,821,841,862,881,901,921,941,961,981,1001,1021,1042,1061,1081,1101,1121,1141,1161,1181,1201,1221,1241,1262,1281,1301,1322,1341,1361,1381,1401,1421,1442,1462,1481,1501,1522,1542,1561,1582,1601,1621,1641,1662,1682,1702,1722,1743,1762,1781,1802,1821,1841,1861,1881,1901,1921,1942,1961,1981,2001,2021,2041,2062,2081,2102,2122,2141,2161,2182,2202,2221,2242,2261,2281,2301,2321,2342,2361,2381,2402,2421,2441,2462,2482,2501,2522,2542,2561,2581,2601,2621,2641,2661,2681,2701,2722,2741,2762,2782,2801,2821,2841,2861,2882,2901,2921,2941,2961,2982,3001,3021,3042,3061,3082,3102],"xSR":741.5,"ySR":501.8,"xT1":424.9,"yT1":0,"xT2":1058.1,"yT2":0,"toosoon":0,"cond_shown":"Congruent","ratio_trial":100,"L_num":6,"L_den":20,"R_num":5,"R_den":25,"correct_side":1,"subjID":"ivandanielrocharodelo31","gender":"6","school":"cafam","age":"11"},{"start_time":1551790051034,"click_time":1551790085819,"finger_time":1551790051239,"fix_duration":1134.2243310960419,"trial":12,"RT":205,"MT":34580,"sideResp":2,"stimulus":[],"xmouse":[806,806,806,806,806,806,806,806,810,814,821,827,827,827,827,827,827,827,827,827,827,827,827,827,827,827,827,827,827,827,827,827,827,827,827,827,827,827,827,827,827,827,827,827,827,827,827,827,827,827,827,827,827,827,827,827,827,827,827,827,827,827,827,827,827,827,827,827,827,827,827,827,827,827,827,827,827,827,827,827,827,827,827,827,827,827,827,827,827,827,827,827,827,827,827,827,827,827,827,827,827,827,827,827,827,827,827,827,827,827,827,827,827,827,827,827,827,827,827,827,827,827,827,827,827,827,827,827,827,827,827,827,827,827,827,827,827,827,827,827,827,827,827,827,827,827,827,827,827,827,827,827,827,827,827,827,827,827,827,827,827,827,827,827,827,827,827,827,827,827,827,827,827,827,827,827,827,827,827,827,827,827,827,827,827,827,827,827,827,827,827,827,827,827,827,827,827,827,827,827,827,827,827,827,827,827,827,827,827,827,827,827,827,827,827,827,827,827,827,827,827,827,827,827,827,827,827,827,827,827,827,827,827,827,827,827,827,827,827,827,827,827,827,827,827,827,827,827,827,827,827,827,827,827,827,827,827,827,827,827,827,827,827,827,827,827,827,827,827,827,827,827,827,827,827,827,827,827,827,827,827,827,827,827,827,827,827,827,827,827,827,827,827,827,827,827,827,827,827,827,827,827,827,827,827,827,827,827,827,827,827,827,827,827,827,827,827,827,827,827,827,827,827,827,827,827,827,827,827,827,827,827,827,827,827,827,827,827,827,827,827,827,827,827,827,827,827,827,827,827,827,827,827,827,827,827,827,827,827,827,827,827,827,827,827,827,827,827,827,827,827,827,827,827,827,827,827,827,827,827,827,827,827,827,827,827,827,827,827,827,827,827,827,827,827,827,827,827,827,827,827,827,827,827,827,827,827,827,827,827,827,827,827,827,827,827,827,827,827,827,827,827,827,827,827,827,827,827,827,827,827,827,827,827,827,827,827,827,827,827,827,827,827,827,827,827,827,827,827,827,827,827,827,827,827,827,827,827,827,827,827,827,827,827,827,827,827,827,827,827,827,827,827,827,827,827,827,827,827,827,827,827,827,827,827,827,827,827,827,827,827,827,827,827,827,827,827,827,827,827,827,827,827,827,827,827,827,827,827,827,827,827,827,827,827,827,827,827,827,827,827,827,827,827,827,827,827,827,827,827,827,827,827,827,827,827,827,827,827,827,827,827,827,827,827,827,827,827,827,827,827,827,827,827,827,827,827,827,827,827,827,827,827,827,827,827,827,827,827,827,827,827,827,827,827,827,827,827,827,827,827,827,827,827,827,827,827,827,827,827,827,827,827,827,827,827,827,827,827,827,827,827,827,827,827,827,827,827,827,827,827,827,827,827,827,827,827,827,827,827,827,827,827,827,827,827,827,827,827,827,827,827,827,827,827,827,827,827,827,827,827,827,827,827,827,827,827,827,827,827,827,827,827,827,827,827,827,827,827,827,827,827,827,827,827,827,827,827,827,827,827,827,827,827,827,827,827,827,827,827,827,827,827,827,827,827,827,827,827,827,827,827,827,827,827,827,827,827,827,827,827,827,827,827,827,827,827,827,827,827,827,827,827,827,827,827,827,827,827,827,827,827,827,827,827,827,827,827,827,827,827,827,827,827,827,827,827,827,827,827,827,827,827,827,827,827,827,827,827,827,827,827,827,827,827,827,827,827,827,827,827,827,827,827,827,827,827,827,827,827,827,827,827,827,827,827,827,827,827,827,827,827,827,827,827,827,827,827,827,827,827,827,827,827,827,827,827,827,827,827,827,827,827,827,827,827,827,827,827,827,827,827,827,827,827,827,827,827,827,827,827,827,827,827,827,827,827,827,827,827,827,827,827,827,827,827,827,827,827,827,827,827,827,827,827,827,827,827,827,827,827,827,827,827,827,827,827,827,827,827,827,827,827,827,827,827,827,827,827,827,827,827,827,827,827,827,827,827,827,827,827,827,827,827,827,827,827,827,827,827,827,827,827,827,827,827,827,827,827,827,827,827,827,827,827,827,827,827,827,827,827,827,827,827,827,827,827,827,827,827,827,827,827,827,827,827,827,827,827,827,827,827,827,827,827,827,827,827,827,827,827,827,827,827,827,827,827,827,827,827,827,827,827,827,827,827,827,827,827,827,827,827,827,827,827,827,827,827,827,827,827,827,827,827,827,827,827,827,827,827,827,827,827,827,827,827,827,827,827,827,827,827,827,827,827,827,827,827,827,827,827,827,827,827,827,827,827,827,827,827,827,827,827,827,827,827,827,827,827,827,827,827,827,827,827,827,827,827,827,827,827,827,827,827,827,827,827,827,827,827,827,827,827,827,827,827,827,827,827,827,827,827,827,827,827,827,827,827,827,827,827,827,827,827,827,827,827,827,827,827,827,827,827,827,827,827,827,827,827,827,827,827,827,827,827,827,827,827,827,827,827,827,827,827,827,827,827,827,827,827,827,827,827,827,827,827,827,827,827,827,827,827,827,827,827,827,827,827,827,827,827,827,827,827,827,827,827,827,827,827,827,827,827,827,827,827,827,827,827,827,827,827,827,827,827,827,827,827,827,827,827,827,827,827,827,827,827,827,827,827,827,827,827,827,827,827,827,827,827,827,827,827,827,827,827,827,827,827,827,827,827,827,827,827,827,827,827,827,827,827,827,827,827,827,827,827,827,827,827,827,827,827,827,827,827,827,827,827,827,827,827,827,827,827,827,827,827,827,827,827,827,827,827,827,827,827,827,827,827,827,827,827,827,827,827,827,827,827,827,827,827,827,827,827,827,827,827,827,827,827,827,827,827,827,827,827,827,827,827,827,827,827,827,827,827,827,827,827,827,827,827,827,827,827,827,827,827,827,827,827,827,827,827,827,827,827,827,827,827,827,827,827,827,827,827,827,827,827,827,827,827,827,827,827,827,827,827,827,827,827,827,827,827,827,827,827,827,827,827,827,827,827,827,827,827,827,827,827,827,827,827,827,827,827,827,827,827,827,827,827,827,827,827,827,827,827,827,827,827,827,827,827,827,827,827,827,827,827,827,827,827,827,827,827,827,827,827,827,827,827,827,827,827,827,827,827,827,827,827,827,827,827,827,827,827,827,827,827,827,827,827,827,827,827,827,827,827,827,827,827,827,827,827,827,827,827,827,827,827,827,827,827,827,827,827,827,827,827,827,827,827,827,827,827,827,827,827,827,827,827,827,827,827,827,827,827,827,827,827,827,827,827,827,827,827,827,827,827,827,827,827,827,827,827,827,827,827,827,827,827,827,827,827,827,827,827,827,827,827,827,827,827,827,827,827,827,827,827,827,827,827,827,827,827,827,827,827,827,827,827,827,827,827,827,827,827,827,827,827,827,827,827,827,827,827,827,827,827,827,827,827,827,827,827,827,827,827,827,827,827,827,827,827,827,827,827,827,827,827,827,827,827,827,827,827,827,827,827,827,827,827,827,827,827,827,827,827,827,827,827,827,827,827,827,827,827,827,827,827,827,827,827,827,827,827,827,827,827,827,827,827,827,827,827,827,827,827,827,827,827,827,827,827,827,827,827,827,827,827,827,827,827,827,827,827,827,827,827,827,827,827,827,827,827,827,827,827,827,827,827,827,827,827,827,827,827,827,827,827,827,827,827,827,827,827,827,827,827,827,827,827,827,827,827,827,827,827,827,827,827,827,827,827,827,827,827,827,827,827,827,827,827,827,827,827,827,827,827,827,827,827,827,827,827,827,827,827,827,827,827,827,827,827,827,828,861,887,894,896,891,868,864,864,864,864,864,864,864,864,864,864,864,865,869,874,886,890,897,904,912,926,930,933,933,933,933,934,934,935,942,961,977,998,1027,1035,1042,1042,1043,1043,1043,1035,1034,1033,1033,1033,1033,1033,1036,1043,1054,1074,1079,1084,1086,1087,1088,1088,1090,1091,1092],"ymouse":[561,561,561,561,561,561,564,571,583,598,618,634,634,634,634,634,634,634,634,634,634,634,634,634,634,634,634,634,634,634,634,634,634,634,634,634,634,634,634,634,634,634,634,634,634,634,634,634,634,634,634,634,634,634,634,634,634,634,634,634,634,634,634,634,634,634,634,634,634,634,634,634,634,634,634,634,634,634,634,634,634,634,634,634,634,634,634,634,634,634,634,634,634,634,634,634,634,634,634,634,634,634,634,634,634,634,634,634,634,634,634,634,634,634,634,634,634,634,634,634,634,634,634,634,634,634,634,634,634,634,634,634,634,634,634,634,634,634,634,634,634,634,634,634,634,634,634,634,634,634,634,634,634,634,634,634,634,634,634,634,634,634,634,634,634,634,634,634,634,634,634,634,634,634,634,634,634,634,634,634,634,634,634,634,634,634,634,634,634,634,634,634,634,634,634,634,634,634,634,634,634,634,634,634,634,634,634,634,634,634,634,634,634,634,634,634,634,634,634,634,634,634,634,634,634,634,634,634,634,634,634,634,634,634,634,634,634,634,634,634,634,634,634,634,634,634,634,634,634,634,634,634,634,634,634,634,634,634,634,634,634,634,634,634,634,634,634,634,634,634,634,634,634,634,634,634,634,634,634,634,634,634,634,634,634,634,634,634,634,634,634,634,634,634,634,634,634,634,634,634,634,634,634,634,634,634,634,634,634,634,634,634,634,634,634,634,634,634,634,634,634,634,634,634,634,634,634,634,634,634,634,634,634,634,634,634,634,634,634,634,634,634,634,634,634,634,634,634,634,634,634,634,634,634,634,634,634,634,634,634,634,634,634,634,634,634,634,634,634,634,634,634,634,634,634,634,634,634,634,634,634,634,634,634,634,634,634,634,634,634,634,634,634,634,634,634,634,634,634,634,634,634,634,634,634,634,634,634,634,634,634,634,634,634,634,634,634,634,634,634,634,634,634,634,634,634,634,634,634,634,634,634,634,634,634,634,634,634,634,634,634,634,634,634,634,634,634,634,634,634,634,634,634,634,634,634,634,634,634,634,634,634,634,634,634,634,634,634,634,634,634,634,634,634,634,634,634,634,634,634,634,634,634,634,634,634,634,634,634,634,634,634,634,634,634,634,634,634,634,634,634,634,634,634,634,634,634,634,634,634,634,634,634,634,634,634,634,634,634,634,634,634,634,634,634,634,634,634,634,634,634,634,634,634,634,634,634,634,634,634,634,634,634,634,634,634,634,634,634,634,634,634,634,634,634,634,634,634,634,634,634,634,634,634,634,634,634,634,634,634,634,634,634,634,634,634,634,634,634,634,634,634,634,634,634,634,634,634,634,634,634,634,634,634,634,634,634,634,634,634,634,634,634,634,634,634,634,634,634,634,634,634,634,634,634,634,634,634,634,634,634,634,634,634,634,634,634,634,634,634,634,634,634,634,634,634,634,634,634,634,634,634,634,634,634,634,634,634,634,634,634,634,634,634,634,634,634,634,634,634,634,634,634,634,634,634,634,634,634,634,634,634,634,634,634,634,634,634,634,634,634,634,634,634,634,634,634,634,634,634,634,634,634,634,634,634,634,634,634,634,634,634,634,634,634,634,634,634,634,634,634,634,634,634,634,634,634,634,634,634,634,634,634,634,634,634,634,634,634,634,634,634,634,634,634,634,634,634,634,634,634,634,634,634,634,634,634,634,634,634,634,634,634,634,634,634,634,634,634,634,634,634,634,634,634,634,634,634,634,634,634,634,634,634,634,634,634,634,634,634,634,634,634,634,634,634,634,634,634,634,634,634,634,634,634,634,634,634,634,634,634,634,634,634,634,634,634,634,634,634,634,634,634,634,634,634,634,634,634,634,634,634,634,634,634,634,634,634,634,634,634,634,634,634,634,634,634,634,634,634,634,634,634,634,634,634,634,634,634,634,634,634,634,634,634,634,634,634,634,634,634,634,634,634,634,634,634,634,634,634,634,634,634,634,634,634,634,634,634,634,634,634,634,634,634,634,634,634,634,634,634,634,634,634,634,634,634,634,634,634,634,634,634,634,634,634,634,634,634,634,634,634,634,634,634,634,634,634,634,634,634,634,634,634,634,634,634,634,634,634,634,634,634,634,634,634,634,634,634,634,634,634,634,634,634,634,634,634,634,634,634,634,634,634,634,634,634,634,634,634,634,634,634,634,634,634,634,634,634,634,634,634,634,634,634,634,634,634,634,634,634,634,634,634,634,634,634,634,634,634,634,634,634,634,634,634,634,634,634,634,634,634,634,634,634,634,634,634,634,634,634,634,634,634,634,634,634,634,634,634,634,634,634,634,634,634,634,634,634,634,634,634,634,634,634,634,634,634,634,634,634,634,634,634,634,634,634,634,634,634,634,634,634,634,634,634,634,634,634,634,634,634,634,634,634,634,634,634,634,634,634,634,634,634,634,634,634,634,634,634,634,634,634,634,634,634,634,634,634,634,634,634,634,634,634,634,634,634,634,634,634,634,634,634,634,634,634,634,634,634,634,634,634,634,634,634,634,634,634,634,634,634,634,634,634,634,634,634,634,634,634,634,634,634,634,634,634,634,634,634,634,634,634,634,634,634,634,634,634,634,634,634,634,634,634,634,634,634,634,634,634,634,634,634,634,634,634,634,634,634,634,634,634,634,634,634,634,634,634,634,634,634,634,634,634,634,634,634,634,634,634,634,634,634,634,634,634,634,634,634,634,634,634,634,634,634,634,634,634,634,634,634,634,634,634,634,634,634,634,634,634,634,634,634,634,634,634,634,634,634,634,634,634,634,634,634,634,634,634,634,634,634,634,634,634,634,634,634,634,634,634,634,634,634,634,634,634,634,634,634,634,634,634,634,634,634,634,634,634,634,634,634,634,634,634,634,634,634,634,634,634,634,634,634,634,634,634,634,634,634,634,634,634,634,634,634,634,634,634,634,634,634,634,634,634,634,634,634,634,634,634,634,634,634,634,634,634,634,634,634,634,634,634,634,634,634,634,634,634,634,634,634,634,634,634,634,634,634,634,634,634,634,634,634,634,634,634,634,634,634,634,634,634,634,634,634,634,634,634,634,634,634,634,634,634,634,634,634,634,634,634,634,634,634,634,634,634,634,634,634,634,634,634,634,634,634,634,634,634,634,634,634,634,634,634,634,634,634,634,634,634,634,634,634,634,634,634,634,634,634,634,634,634,634,634,634,634,634,634,634,634,634,634,634,634,634,634,634,634,634,634,634,634,634,634,634,634,634,634,634,634,634,634,634,634,634,634,634,634,634,634,634,634,634,634,634,634,634,634,634,634,634,634,634,634,634,634,634,634,634,634,634,634,634,634,634,634,634,634,634,634,634,634,634,634,634,634,634,634,634,634,634,634,634,634,634,634,634,634,634,634,634,634,634,634,634,634,634,634,634,634,634,634,634,634,634,634,634,634,634,634,634,634,634,634,634,634,634,634,634,634,634,634,634,634,634,634,634,634,634,634,634,634,634,634,634,634,634,634,634,634,634,634,634,634,634,634,634,634,634,634,634,634,634,634,634,634,634,634,634,634,634,634,634,634,634,634,634,634,634,634,634,634,634,634,634,634,634,634,634,634,634,634,634,634,634,634,634,634,634,634,634,634,634,634,634,634,634,634,634,634,634,634,634,634,634,634,634,634,634,634,634,634,634,634,634,634,634,634,634,634,634,634,634,634,634,634,634,634,634,634,634,634,634,634,634,634,634,634,634,634,634,634,634,634,634,634,634,634,634,634,634,634,634,634,634,634,634,634,634,634,634,634,634,631,517,460,408,347,270,112,72,52,47,47,47,47,47,47,47,47,47,47,56,70,112,135,161,183,201,234,250,261,267,273,279,282,282,285,290,297,297,290,280,277,268,265,262,257,252,243,243,242,241,235,216,206,194,182,169,143,134,125,118,117,114,111,108,103,98],"timestamp_mouse":[9,41,45,65,85,105,126,146,166,185,205,225,245,265,285,305,325,346,365,386,405,425,446,465,485,506,526,545,566,585,605,625,644,665,686,705,725,745,765,785,805,825,845,866,885,905,926,945,965,985,1005,1025,1045,1065,1086,1105,1126,1145,1166,1186,1206,1226,1244,1266,1285,1305,1325,1345,1364,1385,1406,1425,1445,1465,1486,1505,1525,1545,1566,1585,1605,1626,1645,1665,1685,1705,1725,1745,1766,1785,1806,1825,1845,1866,1885,1905,1926,1945,1965,1986,2005,2025,2045,2065,2086,2105,2126,2145,2165,2186,2205,2226,2245,2265,2286,2306,2326,2345,2365,2386,2406,2426,2445,2466,2485,2506,2526,2545,2566,2586,2606,2625,2645,2665,2685,2706,2726,2746,2765,2785,2805,2826,2846,2865,2885,2904,2926,2945,2965,2985,3006,3026,3045,3065,3085,3105,3126,3145,3166,3186,3205,3226,3246,3266,3285,3306,3325,3346,3365,3385,3405,3425,3445,3465,3485,3505,3526,3545,3565,3584,3606,3626,3646,3665,3685,3705,3726,3746,3765,3785,3805,3826,3845,3865,3886,3905,3926,3944,3965,3985,4005,4026,4045,4065,4085,4104,4126,4146,4165,4184,4205,4226,4246,4265,4285,4305,4325,4346,4365,4386,4404,4426,4445,4465,4485,4505,4526,4546,4565,4586,4605,4625,4645,4665,4685,4705,4725,4745,4765,4785,4806,4825,4845,4865,4885,4905,4927,4945,4965,4985,5005,5026,5046,5065,5086,5105,5125,5145,5165,5185,5205,5226,5245,5265,5286,5306,5325,5345,5365,5385,5405,5425,5445,5465,5486,5506,5526,5545,5565,5586,5606,5626,5645,5665,5685,5706,5726,5745,5765,5785,5805,5826,5846,5865,5886,5905,5926,5945,5965,5985,6005,6026,6044,6066,6086,6106,6126,6145,6165,6186,6204,6226,6245,6265,6285,6305,6325,6345,6365,6385,6405,6425,6445,6465,6486,6506,6526,6545,6566,6586,6606,6626,6645,6665,6686,6705,6726,6745,6765,6785,6806,6825,6845,6865,6886,6906,6926,6945,6966,6985,7005,7026,7045,7065,7085,7105,7124,7145,7165,7185,7205,7225,7245,7265,7286,7305,7325,7345,7365,7385,7405,7426,7445,7466,7485,7506,7526,7545,7566,7585,7617,7626,7645,7667,7685,7705,7725,7745,7765,7785,7806,7824,7845,7864,7885,7905,7925,7945,7965,7985,8004,8024,8045,8065,8086,8104,8125,8145,8165,8184,8205,8225,8245,8265,8285,8304,8325,8345,8365,8386,8406,8426,8445,8466,8485,8505,8525,8545,8564,8585,8605,8625,8645,8665,8685,8705,8726,8745,8765,8785,8806,8826,8845,8865,8885,8905,8925,8945,8965,8985,9005,9025,9045,9064,9085,9105,9126,9145,9165,9184,9205,9225,9245,9266,9284,9305,9326,9345,9366,9386,9405,9425,9446,9465,9486,9506,9525,9546,9565,9586,9604,9626,9645,9665,9685,9705,9726,9746,9765,9785,9805,9826,9846,9865,9885,9905,9926,9945,9966,9985,10005,10025,10044,10066,10085,10105,10126,10145,10166,10185,10205,10226,10245,10265,10284,10306,10325,10345,10365,10385,10405,10425,10445,10466,10486,10506,10524,10545,10565,10586,10605,10626,10645,10665,10685,10705,10726,10746,10765,10785,10806,10826,10846,10866,10885,10905,10926,10946,10966,10986,11005,11025,11046,11066,11085,11106,11125,11145,11165,11185,11206,11225,11246,11265,11285,11306,11325,11346,11365,11385,11406,11425,11445,11466,11486,11506,11526,11546,11565,11586,11605,11625,11646,11666,11685,11705,11725,11745,11765,11785,11805,11826,11846,11866,11886,11905,11925,11945,11965,11985,12005,12026,12045,12065,12086,12105,12125,12144,12165,12185,12205,12225,12245,12265,12286,12304,12325,12346,12365,12386,12406,12425,12445,12465,12485,12505,12525,12545,12565,12585,12606,12626,12646,12665,12684,12706,12725,12746,12765,12785,12806,12825,12846,12865,12885,12906,12925,12946,12966,12985,13006,13025,13045,13066,13086,13106,13125,13146,13165,13186,13205,13225,13246,13266,13285,13306,13325,13345,13364,13385,13405,13425,13445,13465,13485,13505,13524,13544,13565,13585,13606,13625,13646,13666,13685,13705,13725,13746,13765,13785,13805,13825,13846,13865,13885,13905,13925,13945,13966,13985,14005,14026,14044,14065,14085,14105,14125,14146,14164,14184,14205,14225,14245,14265,14285,14306,14325,14345,14365,14385,14406,14425,14445,14466,14485,14506,14525,14546,14565,14585,14606,14625,14645,14665,14684,14706,14726,14746,14764,14784,14806,14825,14846,14866,14884,14905,14925,14946,14965,14985,15005,15026,15045,15066,15085,15105,15125,15146,15165,15185,15205,15225,15246,15265,15285,15306,15325,15346,15366,15386,15406,15426,15446,15465,15486,15505,15525,15545,15564,15585,15605,15625,15646,15666,15685,15705,15726,15746,15766,15785,15806,15825,15844,15866,15885,15906,15925,15946,15965,15986,16006,16025,16046,16065,16085,16106,16125,16146,16165,16185,16206,16226,16246,16266,16285,16306,16325,16346,16366,16386,16406,16425,16446,16465,16485,16505,16525,16545,16565,16585,16605,16626,16646,16665,16685,16705,16726,16746,16766,16786,16806,16826,16846,16866,16885,16906,16925,16945,16965,16985,17006,17026,17045,17066,17086,17106,17125,17146,17165,17185,17205,17226,17245,17266,17285,17305,17325,17346,17365,17385,17405,17425,17445,17465,17485,17506,17525,17546,17565,17585,17606,17625,17645,17665,17685,17705,17726,17745,17766,17785,17806,17825,17846,17865,17886,17905,17925,17945,17965,17985,18005,18025,18045,18066,18085,18105,18125,18146,18165,18185,18205,18225,18246,18266,18284,18305,18325,18345,18366,18385,18405,18425,18445,18466,18486,18506,18525,18545,18565,18586,18604,18626,18646,18665,18685,18705,18725,18746,18765,18785,18806,18824,18846,18866,18885,18905,18925,18945,18966,18985,19005,19025,19046,19065,19085,19105,19125,19145,19166,19186,19205,19226,19246,19265,19285,19305,19326,19345,19366,19385,19405,19426,19446,19465,19485,19505,19525,19545,19565,19585,19605,19624,19645,19665,19686,19705,19725,19746,19766,19785,19806,19825,19845,19865,19885,19905,19926,19945,19966,19986,20005,20025,20046,20065,20085,20104,20125,20145,20166,20185,20205,20225,20244,20265,20286,20305,20325,20346,20365,20385,20406,20426,20446,20465,20486,20505,20526,20545,20566,20585,20606,20625,20646,20665,20685,20706,20725,20745,20766,20785,20806,20825,20846,20865,20886,20906,20926,20945,20966,20985,21005,21025,21045,21065,21084,21106,21126,21146,21165,21186,21204,21225,21245,21265,21285,21305,21325,21344,21365,21385,21406,21425,21445,21465,21486,21505,21525,21545,21566,21586,21606,21626,21645,21666,21686,21706,21725,21745,21766,21785,21806,21825,21845,21866,21885,21905,21926,21945,21965,21985,22005,22024,22044,22066,22085,22105,22126,22145,22165,22186,22205,22225,22245,22265,22285,22305,22325,22345,22366,22386,22406,22426,22446,22466,22485,22505,22525,22545,22565,22585,22604,22626,22645,22665,22685,22704,22725,22746,22765,22785,22806,22826,22845,22866,22886,22905,22925,22945,22965,22986,23005,23026,23045,23065,23085,23105,23126,23145,23165,23185,23205,23225,23245,23264,23285,23306,23326,23345,23365,23385,23405,23425,23445,23466,23485,23506,23526,23546,23566,23585,23604,23625,23645,23666,23686,23705,23725,23746,23765,23786,23806,23825,23845,23865,23885,23906,23926,23945,23965,23986,24005,24025,24044,24066,24086,24105,24126,24145,24164,24185,24205,24225,24245,24266,24285,24305,24326,24345,24366,24385,24406,24425,24445,24465,24485,24505,24526,24545,24565,24585,24604,24626,24645,24665,24685,24705,24725,24745,24765,24786,24806,24826,24845,24866,24885,24905,24926,24945,24965,24985,25006,25026,25045,25066,25084,25105,25126,25145,25165,25186,25205,25225,25245,25265,25286,25305,25326,25345,25365,25385,25405,25426,25445,25465,25485,25505,25524,25545,25566,25585,25605,25626,25645,25666,25686,25706,25725,25745,25765,25785,25805,25826,25846,25866,25885,25905,25925,25946,25966,25985,26006,26026,26045,26064,26085,26105,26125,26145,26166,26186,26205,26226,26246,26266,26286,26305,26325,26345,26365,26386,26405,26425,26445,26466,26486,26505,26525,26545,26564,26585,26605,26626,26645,26666,26686,26704,26725,26745,26766,26785,26806,26825,26846,26866,26886,26904,26925,26945,26966,26986,27005,27025,27045,27066,27086,27106,27125,27146,27166,27185,27205,27225,27245,27265,27286,27306,27325,27346,27366,27386,27404,27424,27446,27465,27486,27506,27526,27545,27566,27586,27605,27625,27645,27666,27685,27705,27724,27745,27766,27786,27806,27826,27845,27865,27886,27905,27926,27945,27965,27986,28006,28026,28045,28066,28086,28106,28126,28146,28166,28186,28205,28225,28245,28266,28285,28306,28326,28345,28365,28386,28405,28426,28446,28465,28485,28505,28525,28545,28566,28586,28606,28626,28645,28666,28686,28705,28725,28745,28765,28786,28805,28825,28845,28865,28885,28905,28925,28945,28966,28985,29006,29025,29046,29065,29085,29105,29125,29146,29165,29185,29206,29225,29245,29264,29286,29306,29325,29344,29365,29386,29406,29425,29445,29465,29486,29506,29525,29545,29565,29585,29606,29625,29645,29666,29685,29705,29724,29745,29765,29786,29806,29825,29846,29865,29885,29906,29925,29944,29964,29985,30005,30025,30046,30065,30084,30105,30125,30145,30165,30185,30205,30225,30246,30265,30285,30306,30325,30346,30365,30385,30405,30425,30444,30465,30485,30506,30525,30545,30565,30586,30604,30625,30646,30665,30686,30706,30725,30746,30765,30786,30806,30825,30845,30864,30886,30906,30924,30946,30966,30985,31005,31025,31044,31064,31086,31106,31126,31145,31166,31185,31205,31226,31245,31265,31285,31305,31325,31345,31365,31385,31405,31425,31445,31466,31486,31505,31526,31545,31565,31586,31605,31625,31646,31665,31686,31705,31725,31745,31766,31785,31806,31825,31846,31865,31884,31905,31925,31945,31965,31985,32005,32025,32046,32065,32085,32105,32125,32145,32165,32185,32205,32226,32245,32265,32285,32306,32325,32345,32365,32384,32406,32425,32446,32465,32485,32505,32526,32545,32566,32586,32606,32625,32645,32665,32684,32705,32725,32746,32765,32785,32806,32826,32845,32865,32886,32905,32925,32946,32965,32985,33005,33025,33044,33064,33084,33106,33125,33146,33165,33185,33206,33224,33244,33266,33286,33305,33325,33345,33365,33386,33405,33426,33445,33465,33486,33505,33525,33545,33565,33585,33605,33626,33646,33665,33686,33705,33724,33746,33765,33786,33805,33825,33845,33865,33885,33905,33925,33946,33965,33985,34005,34025,34045,34065,34085,34104,34126,34145,34165,34186,34205,34225,34245,34265,34285,34305,34326,34346,34366,34386,34406,34426,34445,34465,34485,34505,34526,34545,34565,34585,34605,34624,34646,34666,34685,34705,34726,34745,34765,34785],"xSR":741.5,"ySR":501.8,"xT1":424.9,"yT1":0,"xT2":1058.1,"yT2":0,"toosoon":0,"cond_shown":"Congruent","ratio_trial":300,"L_num":3,"L_den":12,"R_num":11,"R_den":20,"correct_side":2,"subjID":"ivandanielro