[{"start_time":1551794165319,"click_time":1551794167873,"finger_time":1551794167393,"fix_duration":1063.7351747673536,"trial":0,"RT":2074,"MT":480,"sideResp":2,"stimulus":[],"xmouse":[642,642,642,642,642,642,642,642,642,642,642,642,642,642,642,642,642,642,642,642,642,642,642,642,642,642,642,642,642,642,642,642,642,642,642,642,642,642,642,642,642,642,642,642,642,642,642,642,642,642,642,642,642,642,642,642,642,642,642,642,642,642,642,642,642,642,642,642,642,642,642,642,642,642,642,642,642,642,642,642,642,642,642,642,642,642,642,642,642,642,642,642,642,642,642,642,642,642,642,642,642,659,671,713,729,747,754,768,797,802,805,806,808,809,812,812,812,813,821,847,866,874,891,902,908,909,911,914],"ymouse":[420,420,420,420,420,420,420,420,420,420,420,420,420,420,420,420,420,420,420,420,420,420,420,420,420,420,420,420,420,420,420,420,420,420,420,420,420,420,420,420,420,420,420,420,420,420,420,420,420,420,420,420,420,420,420,420,420,420,420,420,420,420,420,420,420,420,420,420,420,420,420,420,420,420,420,420,420,420,420,420,420,420,420,420,420,420,420,420,420,420,420,420,420,420,420,420,420,420,420,420,420,409,404,384,368,343,323,275,185,170,157,151,141,135,129,129,128,127,127,127,127,124,120,118,113,112,108,99],"timestamp_mouse":[13,35,53,73,93,113,133,153,173,193,213,233,253,273,294,313,334,354,374,394,414,434,454,473,494,514,534,554,574,594,614,634,653,674,694,713,734,754,774,794,813,833,854,874,894,914,933,954,974,994,1013,1033,1053,1073,1093,1113,1134,1153,1174,1193,1213,1234,1254,1274,1294,1313,1334,1354,1374,1394,1414,1434,1453,1474,1494,1514,1534,1554,1574,1594,1614,1634,1654,1674,1694,1714,1734,1754,1774,1794,1814,1834,1854,1874,1894,1914,1934,1954,1974,1994,2014,2033,2054,2074,2094,2114,2134,2154,2174,2194,2214,2234,2254,2274,2294,2314,2334,2354,2374,2393,2414,2434,2454,2474,2494,2514,2534,2554],"xSR":622,"ySR":384.15000000000003,"xT1":353.2,"yT1":0,"xT2":890.8,"yT2":0,"toosoon":0,"cond_shown":"Congruent","ratio_trial":100,"L_num":6,"L_den":12,"R_num":15,"R_den":25,"correct_side":2,"subjID":"javierandrescastroramirez24","gender":"0","age":"12","school":"6","test":{"fix_dur":[250,1500],"timestim":1000,"targets_dim":[100,100],"targets_relative_coord":[0.3,0.7],"size_stim":[880,420],"start_dim":[100,100],"size_start":[300,300],"size_fix":60,"samplingrate":20,"img_types":["Congruent","Incongruent"],"ratios":[100,200,300],"rep_conds":19,"nTrials":120,"trials_to_rest":500,"Trials_order":[48,70,35,32,107,64,78,89,40,108,19,0,30,13,63,83,103,8,92,80,3,5,26,50,18,46,57,31,21,59,86,115,104,17,53,84,91,71,28,41,114,68,102,23,58,29,14,79,109,88,74,10,16,62,22,44,38,77,76,55,96,34,95,1,117,82,85,39,100,37,60,45,101,43,47,25,113,97,112,118,15,72,106,9,110,111,90,99,66,51,7,119,2,81,61,54,75,67,65,11,27,33,94,56,20,93,49,105,73,116,87,36,6,98,4,52,42,12,24,69],"cond_shown":["Congruent","Congruent","Incongruent","Congruent","Incongruent","Congruent","Congruent","Incongruent","Congruent","Congruent","Incongruent","Congruent","Congruent","Incongruent","Incongruent","Incongruent","Incongruent","Congruent","Congruent","Congruent","Incongruent","Incongruent","Congruent","Congruent","Congruent","Congruent","Incongruent","Incongruent","Incongruent","Incongruent","Congruent","Incongruent","Congruent","Incongruent","Incongruent","Congruent","Incongruent","Incongruent","Congruent","Incongruent","Congruent","Congruent","Congruent","Incongruent","Congruent","Incongruent","Congruent","Incongruent","Incongruent","Congruent","Congruent","Congruent","Congruent","Congruent","Congruent","Congruent","Congruent","Incongruent","Congruent","Incongruent","Congruent","Congruent","Incongruent","Incongruent","Incongruent","Congruent","Incongruent","Incongruent","Congruent","Incongruent","Congruent","Incongruent","Incongruent","Incongruent","Incongruent","Incongruent","Incongruent","Incongruent","Congruent","Congruent","Incongruent","Congruent","Congruent","Incongruent","Congruent","Incongruent","Congruent","Incongruent","Congruent","Incongruent","Incongruent","Incongruent","Congruent","Incongruent","Incongruent","Congruent","Incongruent","Incongruent","Incongruent","Incongruent","Incongruent","Incongruent","Congruent","Congruent","Congruent","Incongruent","Incongruent","Incongruent","Incongruent","Congruent","Incongruent","Congruent","Congruent","Congruent","Congruent","Congruent","Congruent","Congruent","Congruent","Incongruent"],"ratio_trial":[100,300,300,200,300,300,100,300,300,100,100,100,100,100,200,300,100,200,200,200,200,300,200,200,100,300,200,100,200,300,200,100,200,300,300,100,100,300,300,300,100,200,100,300,300,300,200,100,100,300,200,300,300,200,300,200,200,300,300,100,100,300,300,100,200,300,100,200,300,100,100,200,300,100,300,100,300,100,300,300,200,100,300,200,200,200,100,200,100,200,100,300,200,200,100,100,200,100,300,300,200,200,300,200,200,200,100,200,100,200,200,100,100,200,300,300,100,100,100,200],"left_num":[6,11,4,4,4,20,12,8,7,15,8,1,11,10,9,13,3,3,5,1,3,4,15,9,7,5,6,12,1,13,7,2,13,4,13,10,6,4,1,13,9,7,7,8,24,4,6,6,12,18,6,2,20,4,18,7,8,3,1,9,9,20,4,2,4,20,8,4,8,10,1,4,4,6,4,3,4,9,2,11,9,6,12,3,20,7,12,9,11,7,2,4,21,1,1,2,7,6,4,4,1,6,4,12,21,3,9,7,4,4,7,1,8,4,1,4,4,11,12,7],"right_num":[15,2,2,3,2,8,13,14,20,13,6,18,6,8,8,12,7,14,14,21,11,6,4,13,9,6,3,2,3,12,18,6,14,2,12,3,7,2,19,12,8,2,9,14,8,8,3,11,9,9,11,10,13,3,9,18,7,4,3,14,8,8,2,8,14,14,6,14,1,9,3,6,2,11,6,8,6,6,10,2,8,5,2,1,9,12,13,8,6,8,6,2,2,2,8,6,12,13,2,8,3,3,2,6,2,11,14,6,8,3,4,18,2,3,7,13,15,4,13,6],"left_den":[12,22,20,10,20,25,30,10,14,25,16,2,22,25,15,26,9,10,10,2,4,5,25,30,14,25,20,30,2,26,15,4,26,20,26,25,10,20,3,26,15,21,14,10,30,5,15,10,24,20,20,20,25,10,20,15,15,6,5,15,15,25,20,4,6,25,16,6,16,25,2,5,20,10,5,5,5,18,20,22,15,20,24,10,25,10,30,15,22,10,4,20,30,3,2,5,10,10,20,5,2,20,5,15,30,4,15,15,8,8,15,2,16,10,20,20,10,22,30,15],"right_den":[25,10,4,15,4,16,26,28,25,26,10,30,15,16,10,15,30,28,20,30,20,12,10,26,15,12,6,4,10,15,27,15,20,4,15,10,14,4,30,15,16,15,15,28,16,16,15,22,15,15,22,25,26,15,15,27,21,20,6,28,16,16,4,20,30,28,10,30,5,18,5,10,4,22,12,16,12,10,25,10,10,25,10,2,15,24,26,10,15,16,15,4,4,15,20,12,24,26,4,16,10,6,4,10,4,20,28,9,20,10,6,30,5,15,20,26,30,10,26,9],"correct_side":[2,1,2,1,2,1,2,1,2,1,2,2,1,2,2,2,1,2,2,2,1,1,1,2,2,2,2,2,1,2,2,1,2,2,2,1,1,2,2,2,1,1,2,1,1,1,1,1,2,1,2,2,1,1,1,2,1,1,2,1,1,1,2,1,1,1,2,1,1,2,2,1,2,1,1,1,1,2,2,1,2,1,1,2,1,1,2,2,1,1,1,2,1,1,1,2,1,1,2,1,1,2,1,1,1,1,1,2,1,1,2,2,1,1,2,2,2,1,2,2],"img_shown":["img2/100/Congruent/R/C_Dist_100_LN_6_LD_12_RN_15_RD_25_1.png","img2/300/Congruent/L/C_Dist_300_LN_11_LD_22_RN_2_RD_10_0.png","img2/300/Incongruent/R/I_Dist_300_LN_4_LD_20_RN_2_RD_4_1.png","img2/200/Congruent/L/C_Dist_200_LN_4_LD_10_RN_3_RD_15_0.png","img2/300/Incongruent/R/I_Dist_300_LN_4_LD_20_RN_2_RD_4_1.png","img2/300/Congruent/L/C_Dist_300_LN_20_LD_25_RN_8_RD_16_0.png","img2/100/Congruent/R/C_Dist_100_LN_12_LD_30_RN_13_RD_26_1.png","img2/300/Incongruent/L/I_Dist_300_LN_8_LD_10_RN_14_RD_28_0.png","img2/300/Congruent/R/C_Dist_300_LN_7_LD_14_RN_20_RD_25_1.png","img2/100/Congruent/L/C_Dist_100_LN_15_LD_25_RN_13_RD_26_0.png","img2/100/Incongruent/R/I_Dist_100_LN_8_LD_16_RN_6_RD_10_1.png","img2/100/Congruent/R/C_Dist_100_LN_1_LD_2_RN_18_RD_30_1.png","img2/100/Congruent/L/C_Dist_100_LN_11_LD_22_RN_6_RD_15_0.png","img2/100/Incongruent/R/I_Dist_100_LN_10_LD_25_RN_8_RD_16_1.png","img2/200/Incongruent/R/I_Dist_200_LN_9_LD_15_RN_8_RD_10_1.png","img2/300/Incongruent/R/I_Dist_300_LN_13_LD_26_RN_12_RD_15_1.png","img2/100/Incongruent/L/I_Dist_100_LN_3_LD_9_RN_7_RD_30_0.png","img2/200/Congruent/R/C_Dist_200_LN_3_LD_10_RN_14_RD_28_1.png","img2/200/Congruent/R/C_Dist_200_LN_5_LD_10_RN_14_RD_20_1.png","img2/200/Congruent/R/C_Dist_200_LN_1_LD_2_RN_21_RD_30_1.png","img2/200/Incongruent/L/I_Dist_200_LN_3_LD_4_RN_11_RD_20_0.png","img2/300/Incongruent/L/I_Dist_300_LN_4_LD_5_RN_6_RD_12_0.png","img2/200/Congruent/L/C_Dist_200_LN_15_LD_25_RN_4_RD_10_0.png","img2/200/Congruent/R/C_Dist_200_LN_9_LD_30_RN_13_RD_26_1.png","img2/100/Congruent/R/C_Dist_100_LN_7_LD_14_RN_9_RD_15_1.png","img2/300/Congruent/R/C_Dist_300_LN_5_LD_25_RN_6_RD_12_1.png","img2/200/Incongruent/R/I_Dist_200_LN_6_LD_20_RN_3_RD_6_1.png","img2/100/Incongruent/R/I_Dist_100_LN_12_LD_30_RN_2_RD_4_1.png","img2/200/Incongruent/L/I_Dist_200_LN_1_LD_2_RN_3_RD_10_0.png","img2/300/Incongruent/R/I_Dist_300_LN_13_LD_26_RN_12_RD_15_1.png","img2/200/Congruent/R/C_Dist_200_LN_7_LD_15_RN_18_RD_27_1.png","img2/100/Incongruent/L/I_Dist_100_LN_2_LD_4_RN_6_RD_15_0.png","img2/200/Congruent/R/C_Dist_200_LN_13_LD_26_RN_14_RD_20_1.png","img2/300/Incongruent/R/I_Dist_300_LN_4_LD_20_RN_2_RD_4_1.png","img2/300/Incongruent/R/I_Dist_300_LN_13_LD_26_RN_12_RD_15_1.png","img2/100/Congruent/L/C_Dist_100_LN_10_LD_25_RN_3_RD_10_0.png","img2/100/Incongruent/L/I_Dist_100_LN_6_LD_10_RN_7_RD_14_0.png","img2/300/Incongruent/R/I_Dist_300_LN_4_LD_20_RN_2_RD_4_1.png","img2/300/Congruent/R/C_Dist_300_LN_1_LD_3_RN_19_RD_30_1.png","img2/300/Incongruent/R/I_Dist_300_LN_13_LD_26_RN_12_RD_15_1.png","img2/100/Congruent/L/C_Dist_100_LN_9_LD_15_RN_8_RD_16_0.png","img2/200/Congruent/L/C_Dist_200_LN_7_LD_21_RN_2_RD_15_0.png","img2/100/Congruent/R/C_Dist_100_LN_7_LD_14_RN_9_RD_15_1.png","img2/300/Incongruent/L/I_Dist_300_LN_8_LD_10_RN_14_RD_28_0.png","img2/300/Congruent/L/C_Dist_300_LN_24_LD_30_RN_8_RD_16_0.png","img2/300/Incongruent/L/I_Dist_300_LN_4_LD_5_RN_8_RD_16_0.png","img2/200/Congruent/L/C_Dist_200_LN_6_LD_15_RN_3_RD_15_0.png","img2/100/Incongruent/L/I_Dist_100_LN_6_LD_10_RN_11_RD_22_0.png","img2/100/Incongruent/R/I_Dist_100_LN_12_LD_24_RN_9_RD_15_1.png","img2/300/Congruent/L/C_Dist_300_LN_18_LD_20_RN_9_RD_15_0.png","img2/200/Congruent/R/C_Dist_200_LN_6_LD_20_RN_11_RD_22_1.png","img2/300/Congruent/R/C_Dist_300_LN_2_LD_20_RN_10_RD_25_1.png","img2/300/Congruent/L/C_Dist_300_LN_20_LD_25_RN_13_RD_26_0.png","img2/200/Congruent/L/C_Dist_200_LN_4_LD_10_RN_3_RD_15_0.png","img2/300/Congruent/L/C_Dist_300_LN_18_LD_20_RN_9_RD_15_0.png","img2/200/Congruent/R/C_Dist_200_LN_7_LD_15_RN_18_RD_27_1.png","img2/200/Congruent/L/C_Dist_200_LN_8_LD_15_RN_7_RD_21_0.png","img2/300/Incongruent/L/I_Dist_300_LN_3_LD_6_RN_4_RD_20_0.png","img2/300/Congruent/R/C_Dist_300_LN_1_LD_5_RN_3_RD_6_1.png","img2/100/Incongruent/L/I_Dist_100_LN_9_LD_15_RN_14_RD_28_0.png","img2/100/Congruent/L/C_Dist_100_LN_9_LD_15_RN_8_RD_16_0.png","img2/300/Congruent/L/C_Dist_300_LN_20_LD_25_RN_8_RD_16_0.png","img2/300/Incongruent/R/I_Dist_300_LN_4_LD_20_RN_2_RD_4_1.png","img2/100/Incongruent/L/I_Dist_100_LN_2_LD_4_RN_8_RD_20_0.png","img2/200/Incongruent/L/I_Dist_200_LN_4_LD_6_RN_14_RD_30_0.png","img2/300/Congruent/L/C_Dist_300_LN_20_LD_25_RN_14_RD_28_0.png","img2/100/Incongruent/R/I_Dist_100_LN_8_LD_16_RN_6_RD_10_1.png","img2/200/Incongruent/L/I_Dist_200_LN_4_LD_6_RN_14_RD_30_0.png","img2/300/Congruent/L/C_Dist_300_LN_8_LD_16_RN_1_RD_5_0.png","img2/100/Incongruent/R/I_Dist_100_LN_10_LD_25_RN_9_RD_18_1.png","img2/100/Congruent/R/C_Dist_100_LN_1_LD_2_RN_3_RD_5_1.png","img2/200/Incongruent/L/I_Dist_200_LN_4_LD_5_RN_6_RD_10_0.png","img2/300/Incongruent/R/I_Dist_300_LN_4_LD_20_RN_2_RD_4_1.png","img2/100/Incongruent/L/I_Dist_100_LN_6_LD_10_RN_11_RD_22_0.png","img2/300/Incongruent/L/I_Dist_300_LN_4_LD_5_RN_6_RD_12_0.png","img2/100/Incongruent/L/I_Dist_100_LN_3_LD_5_RN_8_RD_16_0.png","img2/300/Incongruent/L/I_Dist_300_LN_4_LD_5_RN_6_RD_12_0.png","img2/100/Incongruent/R/I_Dist_100_LN_9_LD_18_RN_6_RD_10_1.png","img2/300/Congruent/R/C_Dist_300_LN_2_LD_20_RN_10_RD_25_1.png","img2/300/Congruent/L/C_Dist_300_LN_11_LD_22_RN_2_RD_10_0.png","img2/200/Incongruent/R/I_Dist_200_LN_9_LD_15_RN_8_RD_10_1.png","img2/100/Congruent/L/C_Dist_100_LN_6_LD_20_RN_5_RD_25_0.png","img2/300/Congruent/L/C_Dist_300_LN_12_LD_24_RN_2_RD_10_0.png","img2/200/Incongruent/R/I_Dist_200_LN_3_LD_10_RN_1_RD_2_1.png","img2/200/Congruent/L/C_Dist_200_LN_20_LD_25_RN_9_RD_15_0.png","img2/200/Incongruent/L/I_Dist_200_LN_7_LD_10_RN_12_RD_24_0.png","img2/100/Congruent/R/C_Dist_100_LN_12_LD_30_RN_13_RD_26_1.png","img2/200/Incongruent/R/I_Dist_200_LN_9_LD_15_RN_8_RD_10_1.png","img2/100/Congruent/L/C_Dist_100_LN_11_LD_22_RN_6_RD_15_0.png","img2/200/Incongruent/L/I_Dist_200_LN_7_LD_10_RN_8_RD_16_0.png","img2/100/Incongruent/L/I_Dist_100_LN_2_LD_4_RN_6_RD_15_0.png","img2/300/Incongruent/R/I_Dist_300_LN_4_LD_20_RN_2_RD_4_1.png","img2/200/Congruent/L/C_Dist_200_LN_21_LD_30_RN_2_RD_4_0.png","img2/200/Incongruent/L/I_Dist_200_LN_1_LD_3_RN_2_RD_15_0.png","img2/100/Incongruent/L/I_Dist_100_LN_1_LD_2_RN_8_RD_20_0.png","img2/100/Congruent/R/C_Dist_100_LN_2_LD_5_RN_6_RD_12_1.png","img2/200/Incongruent/L/I_Dist_200_LN_7_LD_10_RN_12_RD_24_0.png","img2/100/Incongruent/L/I_Dist_100_LN_6_LD_10_RN_13_RD_26_0.png","img2/300/Incongruent/R/I_Dist_300_LN_4_LD_20_RN_2_RD_4_1.png","img2/300/Incongruent/L/I_Dist_300_LN_4_LD_5_RN_8_RD_16_0.png","img2/200/Incongruent/L/I_Dist_200_LN_1_LD_2_RN_3_RD_10_0.png","img2/200/Incongruent/R/I_Dist_200_LN_6_LD_20_RN_3_RD_6_1.png","img2/300/Congruent/L/C_Dist_300_LN_4_LD_5_RN_2_RD_4_0.png","img2/200/Congruent/L/C_Dist_200_LN_12_LD_15_RN_6_RD_10_0.png","img2/200/Congruent/L/C_Dist_200_LN_21_LD_30_RN_2_RD_4_0.png","img2/200/Incongruent/L/I_Dist_200_LN_3_LD_4_RN_11_RD_20_0.png","img2/100/Incongruent/L/I_Dist_100_LN_9_LD_15_RN_14_RD_28_0.png","img2/200/Incongruent/R/I_Dist_200_LN_7_LD_15_RN_6_RD_9_1.png","img2/100/Incongruent/L/I_Dist_100_LN_4_LD_8_RN_8_RD_20_0.png","img2/200/Congruent/L/C_Dist_200_LN_4_LD_8_RN_3_RD_10_0.png","img2/200/Incongruent/R/I_Dist_200_LN_7_LD_15_RN_4_RD_6_1.png","img2/100/Congruent/R/C_Dist_100_LN_1_LD_2_RN_18_RD_30_1.png","img2/100/Congruent/L/C_Dist_100_LN_8_LD_16_RN_2_RD_5_0.png","img2/200/Congruent/L/C_Dist_200_LN_4_LD_10_RN_3_RD_15_0.png","img2/300/Congruent/R/C_Dist_300_LN_1_LD_20_RN_7_RD_20_1.png","img2/300/Congruent/R/C_Dist_300_LN_4_LD_20_RN_13_RD_26_1.png","img2/100/Congruent/R/C_Dist_100_LN_4_LD_10_RN_15_RD_30_1.png","img2/100/Congruent/L/C_Dist_100_LN_11_LD_22_RN_4_RD_10_0.png","img2/100/Congruent/R/C_Dist_100_LN_12_LD_30_RN_13_RD_26_1.png","img2/200/Incongruent/R/I_Dist_200_LN_7_LD_15_RN_6_RD_9_1.png"],"dist100_C":[["C_Dist_100_LN_10_LD_25_RN_3_RD_10_0.png","C_Dist_100_LN_11_LD_22_RN_4_RD_10_0.png","C_Dist_100_LN_11_LD_22_RN_6_RD_15_0.png","C_Dist_100_LN_15_LD_25_RN_13_RD_26_0.png","C_Dist_100_LN_3_LD_6_RN_2_RD_5_0.png","C_Dist_100_LN_6_LD_20_RN_5_RD_25_0.png","C_Dist_100_LN_8_LD_16_RN_2_RD_5_0.png","C_Dist_100_LN_9_LD_15_RN_8_RD_16_0.png"],["C_Dist_100_LN_1_LD_2_RN_18_RD_30_1.png","C_Dist_100_LN_1_LD_2_RN_3_RD_5_1.png","C_Dist_100_LN_12_LD_30_RN_13_RD_26_1.png","C_Dist_100_LN_2_LD_5_RN_11_RD_22_1.png","C_Dist_100_LN_2_LD_5_RN_6_RD_12_1.png","C_Dist_100_LN_3_LD_20_RN_4_RD_16_1.png","C_Dist_100_LN_4_LD_10_RN_15_RD_30_1.png","C_Dist_100_LN_4_LD_8_RN_6_RD_10_1.png","C_Dist_100_LN_6_LD_12_RN_15_RD_25_1.png","C_Dist_100_LN_7_LD_14_RN_15_RD_25_1.png","C_Dist_100_LN_7_LD_14_RN_9_RD_15_1.png"]],"dist100_I":[["I_Dist_100_LN_1_LD_2_RN_8_RD_20_0.png","I_Dist_100_LN_2_LD_4_RN_6_RD_15_0.png","I_Dist_100_LN_2_LD_4_RN_8_RD_20_0.png","I_Dist_100_LN_3_LD_5_RN_11_RD_22_0.png","I_Dist_100_LN_3_LD_5_RN_8_RD_16_0.png","I_Dist_100_LN_3_LD_6_RN_4_RD_10_0.png","I_Dist_100_LN_3_LD_9_RN_7_RD_30_0.png","I_Dist_100_LN_4_LD_8_RN_8_RD_20_0.png","I_Dist_100_LN_6_LD_10_RN_11_RD_22_0.png","I_Dist_100_LN_6_LD_10_RN_13_RD_26_0.png","I_Dist_100_LN_6_LD_10_RN_7_RD_14_0.png","I_Dist_100_LN_9_LD_10_RN_20_RD_25_0.png","I_Dist_100_LN_9_LD_15_RN_13_RD_26_0.png","I_Dist_100_LN_9_LD_15_RN_14_RD_28_0.png"],["I_Dist_100_LN_10_LD_25_RN_8_RD_16_1.png","I_Dist_100_LN_10_LD_25_RN_9_RD_18_1.png","I_Dist_100_LN_11_LD_22_RN_9_RD_15_1.png","I_Dist_100_LN_12_LD_24_RN_9_RD_15_1.png","I_Dist_100_LN_12_LD_30_RN_2_RD_4_1.png","I_Dist_100_LN_13_LD_26_RN_12_RD_20_1.png","I_Dist_100_LN_13_LD_26_RN_6_RD_10_1.png","I_Dist_100_LN_17_LD_30_RN_10_RD_15_1.png","I_Dist_100_LN_6_LD_12_RN_3_RD_5_1.png","I_Dist_100_LN_8_LD_16_RN_6_RD_10_1.png","I_Dist_100_LN_8_LD_20_RN_1_RD_2_1.png","I_Dist_100_LN_9_LD_18_RN_6_RD_10_1.png"]],"dist100_S":[["E_Dist_100_LN_2_LD_12_RN_2_RD_30_0.png","E_Dist_100_LN_6_LD_10_RN_6_RD_12_0.png"],["E_Dist_100_LN_6_LD_12_RN_6_RD_10_1.png"]],"dist200_C":[["C_Dist_200_LN_11_LD_22_RN_3_RD_10_0.png","C_Dist_200_LN_12_LD_15_RN_6_RD_10_0.png","C_Dist_200_LN_12_LD_20_RN_6_RD_15_0.png","C_Dist_200_LN_14_LD_28_RN_6_RD_20_0.png","C_Dist_200_LN_15_LD_25_RN_4_RD_10_0.png","C_Dist_200_LN_16_LD_20_RN_12_RD_20_0.png","C_Dist_200_LN_16_LD_30_RN_9_RD_27_0.png","C_Dist_200_LN_20_LD_25_RN_9_RD_15_0.png","C_Dist_200_LN_21_LD_30_RN_2_RD_4_0.png","C_Dist_200_LN_4_LD_10_RN_3_RD_15_0.png","C_Dist_200_LN_4_LD_8_RN_3_RD_10_0.png","C_Dist_200_LN_6_LD_15_RN_3_RD_15_0.png","C_Dist_200_LN_7_LD_21_RN_2_RD_15_0.png","C_Dist_200_LN_8_LD_15_RN_2_RD_6_0.png","C_Dist_200_LN_8_LD_15_RN_3_RD_9_0.png","C_Dist_200_LN_8_LD_15_RN_7_RD_21_0.png","C_Dist_200_LN_9_LD_20_RN_4_RD_16_0.png"],["C_Dist_200_LN_1_LD_2_RN_21_RD_30_1.png","C_Dist_200_LN_13_LD_26_RN_14_RD_20_1.png","C_Dist_200_LN_3_LD_10_RN_11_RD_22_1.png","C_Dist_200_LN_3_LD_10_RN_14_RD_28_1.png","C_Dist_200_LN_3_LD_10_RN_7_RD_14_1.png","C_Dist_200_LN_3_LD_12_RN_9_RD_20_1.png","C_Dist_200_LN_3_LD_6_RN_14_RD_20_1.png","C_Dist_200_LN_5_LD_10_RN_14_RD_20_1.png","C_Dist_200_LN_6_LD_12_RN_7_RD_10_1.png","C_Dist_200_LN_6_LD_20_RN_11_RD_22_1.png","C_Dist_200_LN_7_LD_15_RN_18_RD_27_1.png","C_Dist_200_LN_9_LD_30_RN_13_RD_26_1.png"]],"dist200_I":[["I_Dist_200_LN_1_LD_2_RN_3_RD_10_0.png","I_Dist_200_LN_1_LD_3_RN_2_RD_15_0.png","I_Dist_200_LN_3_LD_4_RN_11_RD_20_0.png","I_Dist_200_LN_4_LD_5_RN_6_RD_10_0.png","I_Dist_200_LN_4_LD_6_RN_14_RD_30_0.png","I_Dist_200_LN_7_LD_10_RN_12_RD_24_0.png","I_Dist_200_LN_7_LD_10_RN_14_RD_28_0.png","I_Dist_200_LN_7_LD_10_RN_8_RD_16_0.png"],["I_Dist_200_LN_11_LD_20_RN_3_RD_4_1.png","I_Dist_200_LN_14_LD_30_RN_12_RD_18_1.png","I_Dist_200_LN_14_LD_30_RN_6_RD_9_1.png","I_Dist_200_LN_3_LD_10_RN_1_RD_2_1.png","I_Dist_200_LN_4_LD_30_RN_1_RD_3_1.png","I_Dist_200_LN_6_LD_20_RN_3_RD_6_1.png","I_Dist_200_LN_7_LD_15_RN_4_RD_6_1.png","I_Dist_200_LN_7_LD_15_RN_6_RD_9_1.png","I_Dist_200_LN_9_LD_15_RN_8_RD_10_1.png"]],"dist200_S":[["E_Dist_200_LN_3_LD_6_RN_3_RD_10_0.png"],["E_Dist_200_LN_3_LD_10_RN_3_RD_6_1.png"]],"dist300_C":[["C_Dist_300_LN_11_LD_22_RN_1_RD_5_0.png","C_Dist_300_LN_11_LD_22_RN_2_RD_10_0.png","C_Dist_300_LN_11_LD_22_RN_4_RD_20_0.png","C_Dist_300_LN_12_LD_24_RN_2_RD_10_0.png","C_Dist_300_LN_18_LD_20_RN_9_RD_15_0.png","C_Dist_300_LN_20_LD_25_RN_13_RD_26_0.png","C_Dist_300_LN_20_LD_25_RN_14_RD_28_0.png","C_Dist_300_LN_20_LD_25_RN_5_RD_10_0.png","C_Dist_300_LN_20_LD_25_RN_8_RD_16_0.png","C_Dist_300_LN_20_LD_25_RN_9_RD_18_0.png","C_Dist_300_LN_24_LD_30_RN_2_RD_4_0.png","C_Dist_300_LN_24_LD_30_RN_8_RD_16_0.png","C_Dist_300_LN_3_LD_6_RN_2_RD_10_0.png","C_Dist_300_LN_4_LD_10_RN_1_RD_10_0.png","C_Dist_300_LN_4_LD_5_RN_2_RD_4_0.png","C_Dist_300_LN_8_LD_16_RN_1_RD_5_0.png","C_Dist_300_LN_9_LD_10_RN_3_RD_5_0.png"],["C_Dist_300_LN_1_LD_20_RN_7_RD_20_1.png","C_Dist_300_LN_1_LD_3_RN_19_RD_30_1.png","C_Dist_300_LN_1_LD_30_RN_8_RD_24_1.png","C_Dist_300_LN_1_LD_5_RN_11_RD_22_1.png","C_Dist_300_LN_1_LD_5_RN_3_RD_6_1.png","C_Dist_300_LN_1_LD_5_RN_6_RD_12_1.png","C_Dist_300_LN_2_LD_10_RN_12_RD_24_1.png","C_Dist_300_LN_2_LD_20_RN_10_RD_25_1.png","C_Dist_300_LN_3_LD_12_RN_11_RD_20_1.png","C_Dist_300_LN_3_LD_6_RN_4_RD_5_1.png","C_Dist_300_LN_4_LD_20_RN_13_RD_26_1.png","C_Dist_300_LN_5_LD_25_RN_6_RD_12_1.png","C_Dist_300_LN_5_LD_25_RN_7_RD_14_1.png","C_Dist_300_LN_7_LD_14_RN_20_RD_25_1.png","C_Dist_300_LN_8_LD_15_RN_10_RD_12_1.png"]],"dist300_I":[["I_Dist_300_LN_1_LD_2_RN_2_RD_10_0.png","I_Dist_300_LN_1_LD_2_RN_3_RD_15_0.png","I_Dist_300_LN_2_LD_4_RN_6_RD_30_0.png","I_Dist_300_LN_3_LD_6_RN_4_RD_20_0.png","I_Dist_300_LN_4_LD_5_RN_6_RD_12_0.png","I_Dist_300_LN_4_LD_5_RN_8_RD_16_0.png","I_Dist_300_LN_7_LD_10_RN_8_RD_20_0.png","I_Dist_300_LN_8_LD_10_RN_14_RD_28_0.png","I_Dist_300_LN_8_LD_10_RN_9_RD_18_0.png"],["I_Dist_300_LN_13_LD_26_RN_12_RD_15_1.png","I_Dist_300_LN_4_LD_20_RN_2_RD_4_1.png"]],"dist300_S":[["E_Dist_300_LN_9_LD_12_RN_9_RD_20_0.png"],["E_Dist_300_LN_18_LD_30_RN_18_RD_20_1.png","E_Dist_300_LN_3_LD_10_RN_3_RD_5_1.png","E_Dist_300_LN_9_LD_20_RN_9_RD_12_1.png"]],"dist500_C":[["C_Dist_500_LN_10_LD_13_RN_7_RD_26_0.png","C_Dist_500_LN_10_LD_15_RN_4_RD_24_0.png","C_Dist_500_LN_12_LD_16_RN_3_RD_12_0.png","C_Dist_500_LN_12_LD_18_RN_4_RD_24_0.png","C_Dist_500_LN_15_LD_18_RN_5_RD_15_0.png","C_Dist_500_LN_15_LD_20_RN_1_RD_4_0.png","C_Dist_500_LN_18_LD_27_RN_1_RD_6_0.png","C_Dist_500_LN_20_LD_24_RN_1_RD_3_0.png","C_Dist_500_LN_20_LD_24_RN_3_RD_9_0.png","C_Dist_500_LN_20_LD_24_RN_7_RD_21_0.png","C_Dist_500_LN_20_LD_28_RN_3_RD_14_0.png","C_Dist_500_LN_21_LD_28_RN_6_RD_24_0.png","C_Dist_500_LN_22_LD_28_RN_2_RD_7_0.png","C_Dist_500_LN_25_LD_30_RN_9_RD_27_0.png","C_Dist_500_LN_4_LD_6_RN_1_RD_6_0.png","C_Dist_500_LN_5_LD_6_RN_2_RD_6_0.png","C_Dist_500_LN_6_LD_9_RN_1_RD_6_0.png","C_Dist_500_LN_7_LD_10_RN_1_RD_5_0.png","C_Dist_500_LN_8_LD_12_RN_1_RD_6_0.png","C_Dist_500_LN_8_LD_12_RN_4_RD_24_0.png"],["C_Dist_500_LN_1_LD_4_RN_12_RD_16_1.png","C_Dist_500_LN_1_LD_4_RN_9_RD_12_1.png","C_Dist_500_LN_1_LD_9_RN_11_RD_18_1.png","C_Dist_500_LN_10_LD_24_RN_22_RD_24_1.png","C_Dist_500_LN_2_LD_12_RN_10_RD_15_1.png","C_Dist_500_LN_2_LD_12_RN_12_RD_18_1.png","C_Dist_500_LN_2_LD_12_RN_4_RD_6_1.png","C_Dist_500_LN_2_LD_24_RN_7_RD_12_1.png","C_Dist_500_LN_2_LD_5_RN_18_RD_20_1.png","C_Dist_500_LN_2_LD_5_RN_9_RD_10_1.png","C_Dist_500_LN_2_LD_8_RN_12_RD_16_1.png","C_Dist_500_LN_2_LD_8_RN_21_RD_28_1.png","C_Dist_500_LN_3_LD_10_RN_4_RD_5_1.png","C_Dist_500_LN_3_LD_12_RN_15_RD_20_1.png","C_Dist_500_LN_3_LD_30_RN_6_RD_10_1.png","C_Dist_500_LN_3_LD_8_RN_14_RD_16_1.png","C_Dist_500_LN_4_LD_16_RN_15_RD_20_1.png","C_Dist_500_LN_4_LD_24_RN_12_RD_18_1.png","C_Dist_500_LN_5_LD_14_RN_6_RD_7_1.png","C_Dist_500_LN_7_LD_21_RN_20_RD_24_1.png","C_Dist_500_LN_7_LD_28_RN_12_RD_16_1.png","C_Dist_500_LN_7_LD_28_RN_9_RD_12_1.png","C_Dist_500_LN_9_LD_27_RN_20_RD_24_1.png"]],"dist500_I":[["I_Dist_500_LN_2_LD_3_RN_4_RD_24_0.png","I_Dist_500_LN_5_LD_6_RN_6_RD_18_0.png","I_Dist_500_LN_7_LD_8_RN_9_RD_24_0.png"],["I_Dist_500_LN_7_LD_21_RN_5_RD_6_1.png"]],"dist500_S":[["E_Dist_500_LN_6_LD_8_RN_6_RD_24_0.png"],["E_Dist_500_LN_2_LD_12_RN_2_RD_3_1.png","E_Dist_500_LN_6_LD_24_RN_6_RD_8_1.png"]]}},{"start_time":1551794170652,"click_time":1551794172093,"finger_time":1551794171493,"fix_duration":977.7572870217432,"trial":1,"RT":841,"MT":600,"sideResp":1,"stimulus":[],"xmouse":[660,660,660,660,660,660,660,660,660,660,660,660,660,660,660,660,660,660,660,660,660,660,660,660,660,660,660,660,660,660,660,660,660,660,660,660,660,660,660,660,660,657,624,618,616,611,611,611,611,606,603,596,592,591,590,587,586,581,575,563,555,502,420,404,397,386,383,370,369,364,362,361,361],"ymouse":[444,444,444,444,444,444,444,444,444,444,444,444,444,444,444,444,444,444,444,444,444,444,444,444,444,444,444,444,444,444,444,444,444,444,444,444,444,444,444,444,444,432,369,359,351,336,331,325,318,304,297,284,277,274,271,264,263,258,249,235,227,189,152,146,142,136,135,128,126,122,120,114,97],"timestamp_mouse":[8,31,41,61,81,101,121,141,161,181,201,221,241,261,281,301,321,341,361,381,401,421,441,461,481,501,521,541,561,581,601,621,641,661,681,701,721,741,761,781,801,821,841,861,881,901,921,941,961,981,1001,1021,1041,1061,1081,1101,1121,1141,1160,1181,1201,1221,1241,1261,1281,1301,1321,1341,1361,1381,1401,1421,1441],"xSR":622,"ySR":384.15000000000003,"xT1":353.2,"yT1":0,"xT2":890.8,"yT2":0,"toosoon":0,"cond_shown":"Congruent","ratio_trial":300,"L_num":11,"L_den":22,"R_num":2,"R_den":10,"correct_side":1,"subjID":"javierandrescastroramirez24","gender":"0","school":"6","age":"12"},{"start_time":1551794174511,"click_time":1551794178013,"finger_time":1551794176593,"fix_duration":536.1360820254471,"trial":2,"RT":2082,"MT":1420,"sideResp":2,"stimulus":[],"xmouse":[667,667,667,667,667,667,667,667,667,667,667,667,667,667,667,667,667,667,667,667,667,667,667,667,667,667,667,667,667,667,667,667,667,667,667,667,667,667,667,667,667,667,667,667,667,667,667,667,667,667,667,667,667,667,667,667,667,667,667,667,667,667,667,667,667,667,667,667,667,667,667,667,667,667,667,667,667,667,667,667,667,667,667,666,666,666,666,666,666,666,666,666,666,666,666,666,666,666,666,665,665,664,663,663,667,670,670,671,672,673,673,673,673,673,662,656,655,655,655,655,655,655,655,655,655,655,655,655,655,655,655,655,655,655,655,655,655,655,655,655,655,655,655,655,655,655,655,655,655,655,655,655,655,655,655,655,655,655,660,669,683,690,712,723,786,798,813,828,834,847,854,884,890,900,903,906],"ymouse":[406,406,406,406,406,406,406,406,406,406,406,406,406,406,406,406,406,406,406,406,406,406,406,406,406,406,406,406,406,406,406,406,406,406,406,406,406,406,406,406,406,406,406,406,406,406,406,406,406,406,406,406,406,406,406,406,406,406,406,406,406,406,406,406,406,406,406,406,406,406,406,406,406,406,406,406,406,406,406,406,407,407,408,410,410,410,410,410,410,410,410,410,410,410,410,410,410,410,410,413,422,446,457,482,504,512,512,513,516,517,517,517,517,514,485,468,464,458,454,454,454,453,452,450,445,443,440,440,440,440,440,440,440,440,440,440,440,440,440,440,440,440,440,440,440,440,440,440,440,440,440,440,440,440,440,440,440,440,426,415,400,391,358,341,265,250,231,211,201,179,169,127,119,105,102,98],"timestamp_mouse":[6,22,42,62,82,102,122,142,162,182,202,222,242,262,282,302,322,342,362,382,402,422,442,462,482,502,522,542,562,582,602,622,642,662,682,702,722,742,762,782,802,822,842,862,882,902,922,942,962,982,1001,1022,1042,1062,1082,1102,1122,1142,1162,1182,1202,1222,1242,1262,1281,1302,1322,1342,1362,1382,1402,1422,1442,1462,1482,1502,1522,1542,1562,1582,1602,1622,1642,1662,1682,1702,1722,1742,1762,1782,1802,1822,1842,1862,1882,1902,1922,1942,1962,1981,2002,2022,2042,2062,2082,2102,2122,2142,2162,2182,2202,2222,2242,2262,2281,2302,2322,2342,2362,2382,2402,2422,2442,2462,2481,2501,2521,2542,2562,2582,2602,2621,2641,2662,2682,2701,2721,2741,2761,2781,2801,2821,2841,2861,2881,2902,2921,2941,2961,2982,3002,3022,3042,3062,3081,3101,3121,3142,3162,3182,3202,3222,3242,3261,3282,3302,3322,3342,3361,3381,3401,3421,3442,3461,3481,3502],"xSR":622,"ySR":384.15000000000003,"xT1":353.2,"yT1":0,"xT2":890.8,"yT2":0,"toosoon":0,"cond_shown":"Incongruent","ratio_trial":300,"L_num":4,"L_den":20,"R_num":2,"R_den":4,"correct_side":2,"subjID":"javierandrescastroramirez24","gender":"0","school":"6","age":"12"},{"start_time":1551794181649,"click_time":1551794183472,"finger_time":1551794183252,"fix_duration":1155.0561462696155,"trial":3,"RT":1603,"MT":220,"sideResp":1,"stimulus":[],"xmouse":[681,681,681,681,681,681,681,681,681,681,681,681,681,681,681,681,681,681,681,681,681,681,681,681,681,681,681,681,681,681,681,681,681,681,681,681,681,681,681,681,681,681,681,681,681,681,681,681,681,681,681,681,681,681,681,681,681,681,681,681,681,681,681,681,681,681,681,681,681,681,681,681,681,681,681,681,681,681,681,681,654,584,559,521,497,495,492,487,484,465,455,453],"ymouse":[422,422,422,422,422,422,422,422,422,422,422,422,422,422,422,422,422,422,422,422,422,422,422,422,422,422,422,422,422,422,422,422,422,422,422,422,422,422,422,422,422,422,422,422,422,422,422,422,422,422,422,422,422,422,422,422,422,422,422,422,422,422,422,422,422,422,422,422,422,422,422,422,422,422,422,422,422,422,422,422,371,303,278,232,194,188,170,139,125,82,68,66],"timestamp_mouse":[9,23,43,63,83,103,123,143,163,183,203,223,243,263,283,303,323,343,363,383,403,423,443,463,483,503,523,543,563,583,603,623,643,663,683,703,723,743,763,783,803,823,843,863,883,903,923,943,963,983,1003,1023,1043,1063,1083,1103,1123,1143,1163,1183,1203,1223,1243,1263,1283,1303,1323,1343,1363,1383,1403,1423,1443,1463,1483,1503,1523,1543,1563,1583,1603,1623,1643,1663,1683,1703,1723,1743,1763,1783,1803,1823],"xSR":622,"ySR":384.15000000000003,"xT1":353.2,"yT1":0,"xT2":890.8,"yT2":0,"toosoon":0,"cond_shown":"Congruent","ratio_trial":200,"L_num":4,"L_den":10,"R_num":3,"R_den":15,"correct_side":1,"subjID":"javierandrescastroramirez24","gender":"0","school":"6","age":"12"},{"start_time":1551794186878,"click_time":1551794188473,"finger_time":1551794188152,"fix_duration":1044.4616247468732,"trial":4,"RT":1274,"MT":321,"sideResp":1,"stimulus":[],"xmouse":[653,653,653,653,653,653,653,653,653,653,653,653,653,653,653,653,653,653,653,653,653,653,653,653,653,653,653,653,653,653,653,653,653,653,653,653,653,653,653,653,653,653,653,653,653,653,653,653,653,653,653,653,653,653,653,653,653,653,653,653,653,653,641,619,598,586,567,511,489,460,449,447,446,445,445,445,444,443,442,441],"ymouse":[442,442,442,442,442,442,442,442,442,442,442,442,442,442,442,442,442,442,442,442,442,442,442,442,442,442,442,442,442,442,442,442,442,442,442,442,442,442,442,442,442,442,442,442,442,442,442,442,442,442,442,442,442,442,442,442,442,442,442,442,442,441,412,376,338,319,286,210,186,153,139,135,127,123,119,117,112,106,100,97],"timestamp_mouse":[14,34,54,74,94,114,134,154,174,194,214,234,254,274,294,314,334,354,374,394,414,434,454,474,494,514,534,554,574,594,614,634,654,674,694,714,734,754,774,794,815,834,854,874,894,914,934,954,974,994,1014,1034,1054,1074,1094,1114,1134,1154,1174,1194,1214,1234,1254,1274,1294,1314,1334,1354,1374,1394,1414,1434,1455,1474,1494,1514,1534,1555,1574,1594],"xSR":622,"ySR":384.15000000000003,"xT1":353.2,"yT1":0,"xT2":890.8,"yT2":0,"toosoon":0,"cond_shown":"Incongruent","ratio_trial":300,"L_num":4,"L_den":20,"R_num":2,"R_den":4,"correct_side":2,"subjID":"javierandrescastroramirez24","gender":"0","school":"6","age":"12"},{"start_time":1551794190157,"click_time":1551794191733,"finger_time":1551794191673,"fix_duration":523.1547421997499,"trial":5,"RT":1516,"MT":60,"sideResp":1,"stimulus":[],"xmouse":[649,649,649,649,649,649,649,649,649,649,649,649,649,649,649,649,649,649,650,651,652,653,653,653,653,654,654,654,654,655,655,655,655,655,655,655,655,655,655,655,655,655,655,655,655,655,655,654,654,654,654,654,656,659,661,664,669,669,669,669,669,669,669,669,669,669,669,669,669,669,669,669,669,669,645,608,569,435,357],"ymouse":[428,428,428,428,428,428,428,428,428,428,428,428,428,428,428,428,428,428,428,427,425,421,418,414,411,408,405,405,404,403,403,403,403,403,403,403,403,403,403,403,403,403,403,403,403,403,403,403,403,403,403,410,412,415,416,417,417,417,417,417,417,417,417,417,417,417,417,417,417,417,417,417,417,417,391,358,315,172,84],"timestamp_mouse":[29,36,55,75,95,115,135,155,176,195,215,235,255,276,296,315,335,355,375,396,416,436,456,476,496,516,536,556,576,596,616,636,656,676,696,716,736,756,776,796,816,836,856,876,896,916,936,956,976,996,1016,1036,1056,1076,1095,1116,1135,1156,1176,1196,1216,1236,1256,1276,1296,1316,1336,1356,1376,1396,1416,1436,1456,1476,1495,1515,1536,1556,1576],"xSR":622,"ySR":384.15000000000003,"xT1":353.2,"yT1":0,"xT2":890.8,"yT2":0,"toosoon":0,"cond_shown":"Congruent","ratio_trial":300,"L_num":20,"L_den":25,"R_num":8,"R_den":16,"correct_side":1,"subjID":"javierandrescastroramirez24","gender":"0","school":"6","age":"12"},{"start_time":1551794195437,"click_time":1551794197313,"finger_time":1551794197053,"fix_duration":923.9607868388086,"trial":6,"RT":1616,"MT":260,"sideResp":2,"stimulus":[],"xmouse":[661,661,661,661,661,661,661,661,661,661,661,661,661,661,661,661,661,661,661,661,661,661,661,661,661,661,661,661,661,661,661,661,661,661,661,661,661,661,661,661,661,661,661,661,661,661,661,661,661,661,661,661,661,661,661,661,661,661,661,661,661,661,661,661,661,661,661,661,661,661,661,661,661,661,661,661,661,661,662,683,692,711,720,740,748,751,753,758,760,786,801,848,871,925],"ymouse":[419,419,419,419,419,419,419,419,419,419,419,419,419,419,419,419,419,419,419,419,419,419,419,419,419,419,419,419,419,419,419,419,419,419,419,419,419,419,419,419,419,419,419,419,419,419,419,419,419,419,419,419,419,419,419,419,419,419,419,419,419,419,419,419,419,419,419,419,419,419,419,419,419,419,419,419,419,419,416,391,382,365,356,329,312,299,293,277,269,207,182,122,94,40],"timestamp_mouse":[16,36,56,76,96,116,136,156,176,196,216,236,256,276,296,316,336,356,376,396,416,436,456,476,496,516,536,556,576,596,616,636,656,676,696,716,736,756,776,796,816,836,856,876,896,916,936,956,976,996,1016,1036,1056,1076,1096,1116,1136,1156,1176,1196,1216,1236,1256,1276,1296,1316,1336,1356,1376,1396,1416,1436,1456,1476,1496,1516,1536,1556,1576,1596,1616,1635,1656,1676,1695,1716,1736,1756,1776,1796,1816,1836,1856,1876],"xSR":622,"ySR":384.15000000000003,"xT1":353.2,"yT1":0,"xT2":890.8,"yT2":0,"toosoon":0,"cond_shown":"Congruent","ratio_trial":100,"L_num":12,"L_den":30,"R_num":13,"R_den":26,"correct_side":2,"subjID":"javierandrescastroramirez24","gender":"0","school":"6","age":"12"},{"start_time":1551794198665,"click_time":1551794200052,"finger_time":1551794199533,"fix_duration":250,"trial":7,"RT":868,"MT":519,"sideResp":2,"stimulus":[],"xmouse":[689,689,689,689,689,689,689,689,689,689,689,689,689,689,689,689,689,689,689,689,689,689,689,689,689,689,689,689,689,689,689,689,689,689,689,689,689,689,689,689,689,689,698,713,736,854,947,1007,1007,1007,1007,1007,1007,1007,1007,1007,1007,1007,1007,1007,1007,1007,1007,1007,1007,1007,1007,1007,1007,982],"ymouse":[427,427,427,427,427,427,427,427,427,427,427,427,427,427,427,427,427,427,427,427,427,427,427,427,427,427,427,427,427,427,427,427,427,427,427,427,427,427,427,427,427,427,403,383,356,215,105,19,19,19,19,19,19,19,19,19,19,19,19,19,19,19,19,19,19,19,19,19,19,1],"timestamp_mouse":[8,29,48,68,88,108,128,148,168,188,208,228,248,268,288,308,328,348,368,388,408,428,448,468,488,508,528,548,568,588,608,628,648,668,688,708,728,748,768,788,808,828,848,868,888,907,928,948,968,988,1009,1028,1048,1067,1088,1108,1128,1148,1168,1188,1208,1228,1248,1268,1288,1308,1328,1348,1368,1387],"xSR":622,"ySR":384.15000000000003,"xT1":353.2,"yT1":0,"xT2":890.8,"yT2":0,"toosoon":0,"cond_shown":"Incongruent","ratio_trial":300,"L_num":8,"L_den":10,"R_num":14,"R_den":28,"correct_side":1,"subjID":"javierandrescastroramirez24","gender":"0","school":"6","age":"12"},{"start_time":1551794203806,"click_time":1551794205352,"finger_time":1551794204792,"fix_duration":832.7597072812051,"trial":8,"RT":986,"MT":560,"sideResp":2,"stimulus":[],"xmouse":[669,669,669,669,669,669,669,669,669,669,669,669,669,669,669,669,669,669,669,669,669,669,669,669,668,666,664,664,664,664,664,664,664,664,664,664,664,664,664,664,664,664,664,664,664,664,666,677,715,782,818,832,852,859,869,884,890,890,890,890,890,890,890,890,891,894,898,899,902,907,909,910,911,911,911,912,913,914],"ymouse":[456,456,456,456,456,456,456,456,456,456,456,456,456,456,456,456,456,456,456,456,456,456,456,456,456,456,456,456,456,456,456,456,456,456,456,456,456,456,456,456,456,456,456,456,456,456,456,452,433,386,349,329,285,264,231,209,202,202,202,202,202,202,202,202,201,191,176,171,155,135,126,124,120,118,110,108,101,97],"timestamp_mouse":[8,27,46,66,86,106,126,149,166,186,206,226,246,266,286,306,326,346,366,386,406,426,446,466,486,506,526,546,566,586,606,626,646,666,686,706,726,746,766,786,806,826,846,866,886,906,926,946,966,986,1006,1026,1046,1066,1086,1106,1126,1146,1166,1186,1206,1226,1246,1266,1286,1306,1326,1346,1366,1386,1406,1426,1446,1466,1486,1507,1526,1546],"xSR":622,"ySR":384.15000000000003,"xT1":353.2,"yT1":0,"xT2":890.8,"yT2":0,"toosoon":0,"cond_shown":"Congruent","ratio_trial":300,"L_num":7,"L_den":14,"R_num":20,"R_den":25,"correct_side":2,"subjID":"javierandrescastroramirez24","gender":"0","school":"6","age":"12"},{"start_time":1551794207477,"click_time":1551794209192,"finger_time":1551794208972,"fix_duration":1043.8283764489063,"trial":9,"RT":1495,"MT":220,"sideResp":2,"stimulus":[],"xmouse":[679,679,679,679,679,679,679,679,679,679,679,679,679,679,679,679,679,679,679,679,679,679,679,679,679,679,679,679,679,679,679,679,679,679,679,679,679,679,679,679,679,679,679,679,679,679,679,679,679,679,679,679,679,679,679,679,679,679,679,679,679,679,679,679,679,679,679,679,679,679,679,679,690,703,742,757,785,793,810,827,838,844,861,871,925,934],"ymouse":[431,431,431,431,431,431,431,431,431,431,431,431,431,431,431,431,431,431,431,431,431,431,431,431,431,431,431,431,431,431,431,431,431,431,431,431,431,431,431,431,431,431,431,431,431,431,431,431,431,431,431,431,431,431,431,431,431,431,431,431,431,431,431,431,431,431,431,431,431,431,431,431,410,393,346,334,310,300,278,257,242,233,211,196,113,92],"timestamp_mouse":[15,37,56,75,95,115,135,155,175,195,215,235,255,275,295,315,335,355,375,395,415,435,455,475,495,515,535,555,575,595,615,635,655,675,695,715,735,755,775,795,815,835,855,875,895,915,935,955,975,995,1015,1035,1055,1075,1095,1115,1135,1155,1175,1195,1215,1235,1255,1275,1295,1315,1335,1355,1375,1395,1415,1435,1455,1475,1495,1515,1535,1555,1575,1595,1615,1635,1655,1675,1695,1715],"xSR":622,"ySR":384.15000000000003,"xT1":353.2,"yT1":0,"xT2":890.8,"yT2":0,"toosoon":0,"cond_shown":"Congruent","ratio_trial":100,"L_num":15,"L_den":25,"R_num":13,"R_den":26,"correct_side":1,"subjID":"javierandrescastroramirez24","gender":"0","school":"6","age":"12"},{"start_time":1551794211449,"click_time":1551794213153,"finger_time":1551794212872,"fix_duration":515.8877476530274,"trial":10,"RT":1423,"MT":281,"sideResp":1,"stimulus":[],"xmouse":[675,675,675,675,675,675,675,675,675,675,675,675,675,675,675,675,675,675,675,675,675,675,675,675,675,675,675,675,675,675,675,675,675,675,675,675,675,675,675,675,675,675,675,675,675,675,675,675,675,675,675,675,675,675,675,675,675,675,675,675,675,675,675,675,675,675,675,675,675,675,647,618,555,528,490,457,446,442,432,430,425,424,424,423,419,404],"ymouse":[434,434,434,434,434,434,434,434,434,434,434,434,434,434,434,434,434,434,434,434,434,434,434,434,434,434,434,434,434,434,434,434,434,434,434,434,434,434,434,434,434,434,434,434,434,434,434,434,434,434,434,434,434,434,434,434,434,434,434,434,434,434,434,434,434,434,434,434,434,433,406,378,322,297,260,216,197,187,168,163,151,150,147,144,131,95],"timestamp_mouse":[8,27,43,63,83,103,123,143,163,183,203,223,244,263,283,303,323,343,363,383,403,423,443,463,483,503,523,543,563,583,603,623,643,663,683,703,723,743,763,783,803,823,843,863,883,903,923,943,963,983,1003,1023,1043,1063,1083,1103,1123,1143,1163,1183,1203,1223,1244,1263,1283,1303,1323,1343,1363,1383,1403,1423,1443,1463,1483,1503,1523,1543,1563,1583,1603,1623,1643,1663,1683,1704],"xSR":622,"ySR":384.15000000000003,"xT1":353.2,"yT1":0,"xT2":890.8,"yT2":0,"toosoon":0,"cond_shown":"Incongruent","ratio_trial":100,"L_num":8,"L_den":16,"R_num":6,"R_den":10,"correct_side":2,"subjID":"javierandrescastroramirez24","gender":"0","school":"6","age":"12"},{"start_time":1551794216306,"click_time":1551794217853,"finger_time":1551794217273,"fix_duration":1153.908702607289,"trial":11,"RT":967,"MT":580,"sideResp":2,"stimulus":[],"xmouse":[698,698,698,698,698,698,698,698,698,698,698,698,698,698,698,698,698,698,698,698,698,698,698,698,698,698,698,698,698,698,698,698,698,698,698,698,698,698,698,698,698,698,698,698,698,702,706,720,728,732,741,745,771,778,794,800,815,834,844,847,852,854,860,861,867,870,876,885,890,892,893,893,894,894,896,897,898,901],"ymouse":[455,455,455,455,455,455,455,455,455,455,455,455,455,455,455,455,455,455,455,455,455,455,455,455,455,455,455,455,455,455,455,455,455,455,455,455,455,455,455,455,455,455,455,455,455,454,449,432,419,412,396,388,350,340,318,308,289,261,242,235,224,220,206,204,195,190,179,160,145,141,132,127,123,121,117,112,109,97],"timestamp_mouse":[10,38,47,67,87,107,127,147,167,187,207,227,247,267,287,307,327,347,367,387,407,427,447,467,487,507,527,547,567,587,607,627,647,667,687,707,727,747,767,787,807,827,847,867,886,907,927,947,967,987,1007,1027,1047,1067,1087,1107,1127,1147,1167,1187,1207,1227,1247,1267,1287,1307,1327,1347,1367,1387,1407,1427,1447,1467,1487,1506,1527,1547],"xSR":622,"ySR":384.15000000000003,"xT1":353.2,"yT1":0,"xT2":890.8,"yT2":0,"toosoon":0,"cond_shown":"Congruent","ratio_trial":100,"L_num":1,"L_den":2,"R_num":18,"R_den":30,"correct_side":2,"subjID":"javierandrescastroramirez24","gender":"0","school":"6","age":"12"},{"start_time":1551794221083,"click_time":1551794222257,"finger_time":1551794222076,"fix_duration":709.5691564282778,"trial":12,"RT":993,"MT":181,"sideResp":1,"stimulus":[],"xmouse":[680,680,680,680,680,680,680,680,680,680,680,680,680,680,680,680,680,680,680,680,680,680,680,680,680,680,680,680,680,680,680,680,680,680,680,680,680,680,680,680,680,680,680,680,680,680,680,680,679,620,579,502,427,419,406,398,395,381,363],"ymouse":[404,404,404,404,404,404,404,404,404,404,404,404,404,404,404,404,404,404,404,404,404,404,404,404,404,404,404,404,404,404,404,404,404,404,404,404,404,404,404,404,404,404,404,404,404,404,404,404,400,359,336,294,244,234,210,182,169,132,89],"timestamp_mouse":[9,31,50,70,90,110,130,150,170,190,210,230,250,270,290,310,330,350,370,390,410,430,450,470,490,510,530,550,570,590,610,630,650,670,690,710,730,750,770,790,810,830,850,870,893,913,933,953,973,993,1013,1033,1053,1073,1093,1113,1133,1153,1173],"xSR":622,"ySR":384.15000000000003,"xT1":353.2,"yT1":0,"xT2":890.8,"yT2":0,"toosoon":0,"cond_shown":"Congruent","ratio_trial":100,"L_num":11,"L_den":22,"R_num":6,"R_den":15,"correct_side":1,"subjID":"javierandrescastroramirez24","gender":"0","school":"6","age":"12"},{"start_time":1551794224813,"click_time":1551794226196,"finger_time":1551794225516,"fix_duration":356.6378971051271,"trial":13,"RT":703,"MT":680,"sideResp":1,"stimulus":[],"xmouse":[689,689,689,689,689,689,689,689,689,689,689,689,689,689,689,689,689,689,689,689,689,689,689,689,689,689,689,689,689,689,689,689,689,689,688,643,602,583,571,559,558,553,551,545,538,492,487,477,471,463,461,460,460,460,460,459,458,457,457,457,457,457,457,457,457,457,457,457,455,453],"ymouse":[443,443,443,443,443,443,443,443,443,443,443,443,443,443,443,443,443,443,443,443,443,443,443,443,443,443,443,443,443,443,443,443,443,443,427,343,284,252,233,202,199,175,167,153,141,88,83,70,63,52,48,47,47,47,47,47,47,47,47,47,47,47,47,47,47,47,47,47,47,47],"timestamp_mouse":[10,28,43,64,83,103,123,143,163,183,203,223,244,263,283,304,323,344,364,383,403,424,443,463,484,503,523,544,563,583,604,623,644,664,684,703,723,743,763,783,803,823,843,863,883,903,923,943,964,983,1003,1023,1043,1063,1083,1103,1123,1143,1164,1183,1203,1223,1243,1263,1283,1303,1323,1343,1363,1383],"xSR":622,"ySR":384.15000000000003,"xT1":353.2,"yT1":0,"xT2":890.8,"yT2":0,"toosoon":0,"cond_shown":"Incongruent","ratio_trial":100,"L_num":10,"L_den":25,"R_num":8,"R_den":16,"correct_side":2,"subjID":"javierandrescastroramirez24","gender":"0","school":"6","age":"12"},{"start_time":1551794231885,"click_time":1551794233976,"finger_time":1551794233376,"fix_duration":749.4323066193278,"trial":14,"RT":1491,"MT":600,"sideResp":2,"stimulus":[],"xmouse":[656,656,656,656,656,656,656,656,656,656,656,656,656,656,656,656,656,656,656,656,656,656,656,656,656,656,656,656,656,656,656,656,656,656,656,656,656,656,656,656,656,656,656,656,656,656,656,656,656,656,656,656,656,656,656,656,656,656,656,656,656,656,656,656,656,656,656,656,656,660,669,674,682,688,710,720,741,752,776,796,818,822,830,837,840,847,851,853,853,853,854,860,867,881,887,906,908,912,913,917,919,920,921,923,924],"ymouse":[448,448,448,448,448,448,448,448,448,448,448,448,448,448,448,448,448,448,448,448,448,448,448,448,448,448,448,448,448,448,448,448,448,448,448,448,448,448,448,448,448,448,448,448,448,448,448,448,448,448,448,448,448,448,448,448,448,448,448,448,448,448,448,448,448,448,448,448,448,440,426,419,405,398,356,337,299,278,240,200,171,165,154,144,141,133,129,128,128,128,127,127,125,121,119,113,111,109,108,106,103,102,102,100,99],"timestamp_mouse":[10,32,51,71,91,111,131,151,171,191,211,231,251,271,291,311,331,351,371,391,411,431,451,471,491,511,531,551,571,591,611,631,651,671,691,711,731,751,771,791,811,831,851,871,891,911,931,951,971,991,1011,1031,1051,1071,1091,1111,1131,1151,1171,1191,1211,1231,1251,1271,1291,1311,1331,1351,1371,1391,1411,1431,1451,1471,1491,1511,1531,1551,1571,1591,1611,1631,1651,1671,1691,1711,1731,1751,1771,1791,1811,1831,1851,1871,1891,1911,1931,1951,1971,1991,2011,2031,2051,2071,2091],"xSR":622,"ySR":384.15000000000003,"xT1":353.2,"yT1":0,"xT2":890.8,"yT2":0,"toosoon":0,"cond_shown":"Incongruent","ratio_trial":200,"L_num":9,"L_den":15,"R_num":8,"R_den":10,"correct_side":2,"subjID":"javierandrescastroramirez24","gender":"0","school":"6","age":"12"},{"start_time":1551794236164,"click_time":1551794237476,"finger_time":1551794237236,"fix_duration":606.4261454008638,"trial":15,"RT":1072,"MT":240,"sideResp":1,"stimulus":[],"xmouse":[654,654,654,654,654,654,654,654,654,654,654,654,654,654,654,654,654,654,654,654,654,654,654,654,654,654,654,654,654,654,654,654,654,654,654,654,654,654,654,654,654,654,654,654,654,654,652,650,647,644,643,641,634,612,579,502,477,443,434,423,414,408,406,402,399,394],"ymouse":[411,411,411,411,411,411,411,411,411,411,411,411,411,411,411,411,411,411,411,411,411,411,411,411,411,411,411,411,411,411,411,411,411,411,411,411,411,411,411,411,411,411,411,411,411,411,411,411,408,407,406,403,395,372,336,268,248,215,207,192,161,142,135,123,109,90],"timestamp_mouse":[12,38,52,72,92,112,132,152,172,192,212,232,252,272,292,312,332,352,372,392,412,432,452,472,492,512,532,552,572,592,612,632,652,672,692,712,732,752,772,792,812,832,852,872,892,912,932,952,972,992,1012,1032,1052,1072,1092,1112,1132,1152,1172,1192,1212,1232,1252,1272,1292,1312],"xSR":622,"ySR":384.15000000000003,"xT1":353.2,"yT1":0,"xT2":890.8,"yT2":0,"toosoon":0,"cond_shown":"Incongruent","ratio_trial":300,"L_num":13,"L_den":26,"R_num":12,"R_den":15,"correct_side":2,"subjID":"javierandrescastroramirez24","gender":"0","school":"6","age":"12"},{"start_time":1551794238908,"click_time":1551794240596,"finger_time":1551794240476,"fix_duration":650.3457767073334,"trial":16,"RT":1568,"MT":120,"sideResp":2,"stimulus":[],"xmouse":[680,680,680,680,680,680,680,680,680,680,680,680,680,680,680,680,680,680,680,680,680,680,680,680,680,680,680,680,680,680,680,680,680,680,680,680,680,680,680,680,680,680,680,680,680,680,680,680,680,680,680,680,680,680,680,680,680,680,680,680,680,680,680,680,680,680,680,680,680,680,680,680,680,680,680,681,688,707,718,754,789,835,847,871,894],"ymouse":[425,425,425,425,425,425,425,425,425,425,425,425,425,425,425,425,425,425,425,425,425,425,425,425,425,425,425,425,425,425,425,425,425,425,425,425,425,425,425,425,425,425,425,425,425,425,425,425,425,425,425,425,425,425,425,425,425,425,425,425,425,425,425,425,425,425,425,425,425,425,425,425,425,425,425,425,417,396,382,336,279,175,141,83,28],"timestamp_mouse":[8,35,48,68,88,108,128,148,168,188,208,228,248,268,288,308,328,348,368,388,408,428,448,468,488,508,528,548,568,588,608,628,648,668,688,708,728,748,768,788,808,828,848,868,888,908,928,948,968,988,1008,1028,1048,1068,1088,1108,1128,1148,1168,1188,1208,1228,1248,1268,1288,1308,1328,1348,1368,1388,1408,1428,1448,1468,1488,1508,1528,1548,1568,1588,1608,1628,1648,1668,1688],"xSR":622,"ySR":384.15000000000003,"xT1":353.2,"yT1":0,"xT2":890.8,"yT2":0,"toosoon":0,"cond_shown":"Incongruent","ratio_trial":100,"L_num":3,"L_den":9,"R_num":7,"R_den":30,"correct_side":1,"subjID":"javierandrescastroramirez24","gender":"0","school":"6","age":"12"},{"start_time":1551794249649,"click_time":1551794252156,"finger_time":1551794251516,"fix_duration":1491.9019216168108,"trial":17,"RT":1867,"MT":640,"sideResp":2,"stimulus":[],"xmouse":[659,659,659,659,659,659,659,659,659,659,659,662,668,673,674,674,674,674,674,674,674,674,674,674,674,674,674,674,674,674,674,674,674,674,674,674,674,674,674,674,674,674,674,674,674,674,674,674,674,674,674,674,674,674,674,674,674,674,674,674,674,674,674,674,674,674,674,674,674,674,674,674,674,674,674,674,674,674,674,674,674,674,674,674,674,674,674,674,675,676,677,682,694,702,710,724,758,771,809,841,861,897,908,911,913,913,915,916,916,917,917,917,917,917,917,917,917,917,917,917,917,917,917,917,917,917],"ymouse":[404,404,404,404,404,404,404,404,404,404,424,434,450,459,461,461,461,461,461,461,461,461,461,461,461,461,461,461,461,461,461,461,461,461,461,461,461,461,461,461,461,461,461,461,461,461,461,461,461,461,461,461,461,461,461,461,461,461,461,461,461,461,461,461,461,461,461,461,461,461,461,461,461,461,461,461,461,461,461,461,461,461,461,461,461,461,461,461,460,455,448,431,398,382,371,355,323,312,278,245,230,193,177,170,167,165,161,157,155,151,151,149,148,148,148,148,140,136,134,128,126,116,113,105,101,90],"timestamp_mouse":[9,34,47,67,87,107,139,147,167,187,207,227,247,267,287,307,327,347,367,387,407,427,447,467,487,507,527,547,567,587,607,627,648,667,687,707,727,747,767,787,807,827,847,867,887,907,927,947,967,987,1006,1027,1047,1067,1087,1107,1127,1147,1167,1187,1207,1227,1247,1267,1287,1307,1327,1347,1367,1387,1407,1427,1447,1467,1487,1507,1527,1547,1567,1587,1607,1627,1647,1667,1687,1707,1727,1747,1767,1787,1807,1827,1847,1867,1887,1907,1927,1947,1967,1987,2007,2027,2047,2067,2087,2107,2127,2147,2167,2187,2207,2227,2247,2267,2287,2307,2327,2347,2367,2387,2407,2426,2447,2467,2487,2507],"xSR":622,"ySR":384.15000000000003,"xT1":353.2,"yT1":0,"xT2":890.8,"yT2":0,"toosoon":0,"cond_shown":"Congruent","ratio_trial":200,"L_num":3,"L_den":10,"R_num":14,"R_den":28,"correct_side":2,"subjID":"javierandrescastroramirez24","gender":"0","school":"6","age":"12"},{"start_time":1551794254764,"click_time":1551794256156,"finger_time":1551794256016,"fix_duration":707.3583005504823,"trial":18,"RT":1252,"MT":140,"sideResp":2,"stimulus":[],"xmouse":[670,670,670,670,670,670,670,670,670,670,670,670,670,670,670,670,670,670,670,670,670,670,670,670,670,670,670,670,670,670,670,670,670,670,670,670,670,670,670,670,670,672,672,672,672,672,672,672,672,672,672,672,672,672,672,672,673,675,678,680,695,702,723,729,748,786,822,844,879,894],"ymouse":[457,457,457,457,457,457,457,457,457,457,457,457,457,457,457,457,457,457,457,457,457,457,457,457,457,457,457,457,457,457,457,457,457,457,457,456,456,456,456,456,456,454,454,454,454,453,453,453,453,453,453,453,453,453,453,452,450,448,443,439,412,401,357,339,295,213,153,117,72,45],"timestamp_mouse":[12,33,52,72,92,112,132,152,172,192,212,232,252,272,292,312,332,352,372,392,412,432,452,472,492,512,532,552,572,592,612,632,652,672,692,712,732,752,772,792,812,832,852,872,892,912,932,952,972,992,1012,1032,1052,1072,1093,1112,1132,1152,1172,1192,1212,1232,1252,1272,1292,1312,1332,1352,1372,1392],"xSR":622,"ySR":384.15000000000003,"xT1":353.2,"yT1":0,"xT2":890.8,"yT2":0,"toosoon":0,"cond_shown":"Congruent","ratio_trial":200,"L_num":5,"L_den":10,"R_num":14,"R_den":20,"correct_side":2,"subjID":"javierandrescastroramirez24","gender":"0","school":"6","age":"12"},{"start_time":1551794257328,"click_time":1551794258316,"finger_time":1551794258196,"fix_duration":250,"trial":19,"RT":868,"MT":120,"sideResp":2,"stimulus":[],"xmouse":[677,677,677,677,677,677,677,677,677,677,677,677,677,677,677,677,677,677,677,677,677,677,677,677,677,677,677,677,677,677,677,677,677,677,677,677,677,677,677,677,678,689,700,732,804,827,875,911,919,933],"ymouse":[427,427,427,427,427,427,427,427,427,427,427,427,427,427,427,427,427,427,427,427,427,427,427,427,427,427,427,427,427,427,427,427,427,427,427,427,427,427,427,427,427,409,391,346,260,231,183,140,128,99],"timestamp_mouse":[8,29,48,68,88,108,128,148,168,188,208,228,248,268,288,308,328,348,368,388,408,428,448,468,488,508,528,548,568,588,608,628,648,668,688,708,728,748,768,788,808,828,848,868,888,908,928,948,968,988],"xSR":622,"ySR":384.15000000000003,"xT1":353.2,"yT1":0,"xT2":890.8,"yT2":0,"toosoon":0,"cond_shown":"Congruent","ratio_trial":200,"L_num":1,"L_den":2,"R_num":21,"R_den":30,"correct_side":2,"subjID":"javierandrescastroramirez24","gender":"0","school":"6","age":"12"},{"start_time":1551794260031,"click_time":1551794261296,"finger_time":1551794261056,"fix_duration":393.41428398371283,"trial":20,"RT":1025,"MT":240,"sideResp":2,"stimulus":[],"xmouse":[706,706,706,706,706,706,706,706,706,706,706,706,706,706,706,706,706,706,706,706,706,706,706,706,706,706,706,706,706,706,706,706,706,706,706,706,706,706,706,706,706,706,706,706,706,706,706,706,705,706,711,733,795,824,834,850,857,881,888,899,910,914,918,918],"ymouse":[468,468,468,468,468,468,468,468,468,468,468,468,468,468,468,468,468,468,468,468,468,468,468,468,468,468,468,468,468,468,468,468,468,468,468,468,468,468,468,468,468,468,468,468,468,468,468,468,467,465,461,452,426,405,393,356,339,276,259,222,188,169,125,99],"timestamp_mouse":[9,35,45,65,85,105,125,145,165,185,205,225,245,265,285,305,325,345,365,385,405,425,445,465,485,505,525,545,565,585,605,625,645,665,685,705,725,745,765,785,805,825,845,865,885,905,925,945,965,985,1005,1025,1045,1065,1085,1105,1125,1145,1165,1185,1205,1225,1245,1265],"xSR":622,"ySR":384.15000000000003,"xT1":353.2,"yT1":0,"xT2":890.8,"yT2":0,"toosoon":0,"cond_shown":"Incongruent","ratio_trial":200,"L_num":3,"L_den":4,"R_num":11,"R_den":20,"correct_side":1,"subjID":"javierandrescastroramirez24","gender":"0","school":"6","age":"12"},{"start_time":1551794270479,"click_time":1551794272717,"finger_time":1551794272016,"fix_duration":1262.09870821575,"trial":21,"RT":1537,"MT":701,"sideResp":2,"stimulus":[],"xmouse":[663,663,663,663,663,663,663,663,663,663,663,663,663,663,663,663,663,663,663,663,663,663,663,663,663,663,663,663,663,663,663,663,663,663,663,663,663,663,663,663,663,663,663,663,663,663,663,663,663,663,663,663,663,663,663,663,663,663,663,663,663,663,663,663,663,663,663,663,663,663,663,663,663,663,669,722,740,785,807,833,865,880,885,895,905,918,921,923,923,923,915,858,761,699,651,641,633,637,643,651,668,735,780,792,806,810,823,824,832,838,858,894],"ymouse":[433,433,433,433,433,433,433,433,433,433,433,433,433,433,433,433,433,433,433,433,433,433,433,433,433,433,433,433,433,433,433,433,433,433,433,433,433,433,433,433,433,433,433,433,433,433,433,433,433,433,433,433,433,433,433,433,433,433,433,433,433,433,433,433,433,433,433,433,433,433,433,433,433,433,428,395,380,336,312,285,245,226,219,203,189,169,164,158,155,154,141,132,133,139,150,156,162,162,159,154,142,119,108,103,97,95,86,86,81,79,77,72],"timestamp_mouse":[25,37,57,77,97,117,137,157,177,197,218,237,257,277,297,317,337,357,377,397,417,437,457,477,497,517,537,557,577,597,617,637,657,677,697,717,737,757,777,797,817,837,857,877,897,917,937,957,977,997,1017,1037,1057,1077,1097,1117,1137,1157,1177,1197,1218,1237,1257,1277,1297,1317,1337,1357,1377,1397,1417,1437,1457,1477,1498,1517,1537,1557,1577,1596,1617,1638,1657,1677,1697,1717,1737,1756,1778,1797,1818,1837,1857,1877,1896,1917,1937,1957,1977,1997,2017,2037,2057,2077,2097,2118,2136,2158,2177,2197,2217,2237],"xSR":622,"ySR":384.15000000000003,"xT1":353.2,"yT1":0,"xT2":890.8,"yT2":0,"toosoon":0,"cond_shown":"Incongruent","ratio_trial":300,"L_num":4,"L_den":5,"R_num":6,"R_den":12,"correct_side":1,"subjID":"javierandrescastroramirez24","gender":"0","school":"6","age":"12"},{"start_time":1551794276727,"click_time":1551794278136,"finger_time":1551794277856,"fix_duration":1230.3590796110486,"trial":22,"RT":1129,"MT":280,"sideResp":1,"stimulus":[],"xmouse":[687,687,687,687,687,687,687,687,687,687,687,687,687,687,687,687,687,687,687,687,687,687,687,687,687,687,687,687,687,687,687,687,687,687,687,687,687,687,687,687,687,687,687,687,687,687,687,687,687,687,687,687,687,687,686,658,624,607,574,561,531,520,507,503,491,473,461,456,452,450,443],"ymouse":[441,441,441,441,441,441,441,441,441,441,441,441,441,441,441,441,441,441,441,441,441,441,441,441,441,441,441,441,441,441,441,441,441,441,441,441,441,441,441,441,441,441,441,441,441,441,441,441,441,441,441,441,441,441,438,392,353,335,294,277,231,212,189,182,163,138,121,115,110,108,94],"timestamp_mouse":[9,32,49,69,89,109,129,149,169,189,209,229,249,269,289,309,329,349,369,389,409,429,449,469,489,509,529,549,569,589,609,629,649,669,689,709,729,749,769,789,809,829,849,869,889,909,929,949,969,989,1009,1029,1049,1069,1089,1109,1129,1149,1169,1189,1209,1229,1249,1269,1289,1309,1329,1349,1369,1389,1409],"xSR":622,"ySR":384.15000000000003,"xT1":353.2,"yT1":0,"xT2":890.8,"yT2":0,"toosoon":0,"cond_shown":"Congruent","ratio_trial":200,"L_num":15,"L_den":25,"R_num":4,"R_den":10,"correct_side":1,"subjID":"javierandrescastroramirez24","gender":"0","school":"6","age":"12"},{"start_time":1551794280419,"click_time":1551794282159,"finger_time":1551794281956,"fix_duration":1321.213533062058,"trial":23,"RT":1537,"MT":203,"sideResp":2,"stimulus":[],"xmouse":[696,696,696,696,696,696,696,696,696,696,696,696,696,696,696,696,696,696,696,696,696,696,696,696,696,696,696,696,696,696,696,696,696,696,696,696,696,696,696,696,696,696,696,696,696,696,696,696,696,696,696,696,696,696,696,696,696,696,696,696,696,696,696,696,696,696,696,696,696,696,696,696,696,696,696,715,735,769,789,841,845,852,856,864,878,886,891],"ymouse":[422,422,422,422,422,422,422,422,422,422,422,422,422,422,422,422,422,422,422,422,422,422,422,422,422,422,422,422,422,422,422,422,422,422,422,422,422,422,422,422,422,422,422,422,422,422,422,422,422,422,422,422,422,422,422,422,422,422,422,422,422,422,422,422,422,422,422,422,422,422,422,422,422,422,422,391,360,293,252,126,110,90,84,71,59,54,52],"timestamp_mouse":[17,38,57,77,97,117,137,157,177,197,217,237,257,277,297,317,337,357,377,397,417,437,457,477,497,517,537,557,577,597,617,637,657,677,697,717,737,757,777,797,817,837,857,877,897,917,937,957,977,997,1017,1037,1057,1077,1097,1117,1137,1157,1177,1197,1217,1237,1257,1277,1297,1317,1337,1357,1377,1397,1417,1437,1457,1477,1497,1517,1537,1557,1580,1600,1620,1640,1660,1680,1700,1720,1740],"xSR":622,"ySR":384.15000000000003,"xT1":353.2,"yT1":0,"xT2":890.8,"yT2":0,"toosoon":0,"cond_shown":"Congruent","ratio_trial":200,"L_num":9,"L_den":30,"R_num":13,"R_den":26,"correct_side":2,"subjID":"javierandrescastroramirez24","gender":"0","school":"6","age":"12"},{"start_time":1551794285011,"click_time":1551794290199,"finger_time":1551794289500,"fix_duration":250,"trial":24,"RT":4489,"MT":699,"sideResp":1,"stimulus":[],"xmouse":[633,633,633,633,633,633,633,633,633,633,633,633,633,633,633,633,633,633,633,633,633,633,633,633,633,633,633,633,633,633,633,633,633,633,633,633,633,633,633,633,633,633,633,633,633,633,633,633,633,633,633,633,633,633,633,633,633,633,633,633,633,633,633,633,633,633,633,633,633,633,633,633,633,633,633,633,633,633,633,633,633,633,633,633,633,633,633,633,633,633,633,633,633,633,633,633,633,633,633,633,633,633,633,633,633,633,633,633,633,633,633,633,633,633,633,633,633,633,633,633,633,633,633,633,633,633,633,633,633,636,639,656,661,666,667,669,670,670,670,670,670,670,670,670,670,670,670,670,670,670,670,670,670,670,670,670,670,670,670,670,670,670,670,670,670,670,670,670,670,670,670,670,670,670,670,670,670,670,670,670,670,670,670,670,670,670,670,670,670,670,670,670,670,670,670,670,670,670,670,670,670,670,670,670,670,670,670,670,670,670,670,670,670,670,670,670,670,670,670,670,670,670,670,670,671,671,671,671,671,671,671,671,671,671,671,671,671,671,671,671,671,671,671,670,670,668,667,665,650,637,628,595,527,436,420,400,398,398,391,376],"ymouse":[441,441,441,441,441,441,441,441,441,441,441,441,441,441,441,441,441,441,441,441,441,441,441,441,441,441,441,441,441,441,441,441,441,441,441,441,441,441,441,441,441,441,441,441,441,441,441,441,441,441,441,441,441,441,441,441,441,441,441,441,441,441,441,441,441,441,441,441,441,441,441,441,441,441,441,441,441,441,441,441,441,441,441,441,441,441,441,441,441,441,441,441,441,441,441,441,441,441,441,441,441,441,441,441,441,441,441,441,441,441,441,441,441,441,441,441,441,441,441,441,441,441,441,441,441,441,441,441,441,438,438,437,437,437,437,436,436,436,436,436,436,436,436,436,436,436,436,436,436,436,436,436,436,436,436,436,436,436,436,436,436,436,436,436,436,436,436,436,436,436,436,436,436,436,436,436,436,436,436,436,436,436,436,436,436,436,436,436,436,436,436,436,436,436,436,436,436,436,436,436,436,436,436,436,436,436,436,436,436,436,436,436,436,436,436,436,436,436,436,436,436,436,439,475,486,504,511,517,519,519,519,519,519,519,519,519,519,519,511,504,501,494,490,482,478,469,463,442,387,345,324,267,197,128,119,107,106,106,101,93],"timestamp_mouse":[9,29,48,69,88,108,128,149,168,189,209,229,249,268,289,309,328,348,369,389,409,429,449,469,489,509,529,549,569,589,609,629,649,669,689,709,729,749,769,789,809,829,849,869,889,909,929,949,969,989,1009,1029,1049,1069,1089,1109,1129,1149,1169,1189,1209,1229,1249,1269,1289,1309,1329,1349,1369,1389,1409,1429,1449,1469,1489,1509,1529,1549,1569,1589,1609,1629,1649,1669,1689,1709,1729,1749,1769,1789,1809,1829,1849,1869,1889,1909,1929,1949,1969,1989,2009,2029,2049,2069,2089,2109,2129,2149,2169,2189,2209,2229,2249,2269,2289,2309,2329,2349,2369,2389,2409,2429,2449,2469,2489,2509,2529,2549,2569,2589,2609,2629,2649,2669,2689,2709,2729,2749,2769,2789,2809,2829,2849,2869,2889,2909,2929,2949,2969,2989,3009,3029,3049,3069,3089,3109,3129,3149,3169,3189,3209,3229,3249,3269,3289,3309,3329,3349,3369,3389,3409,3429,3449,3469,3489,3509,3529,3549,3569,3589,3609,3629,3649,3669,3689,3709,3729,3749,3769,3789,3809,3829,3849,3869,3889,3909,3929,3949,3969,3989,4009,4029,4049,4069,4089,4109,4129,4149,4169,4189,4209,4229,4249,4269,4289,4309,4329,4349,4369,4389,4409,4429,4449,4469,4489,4509,4529,4549,4569,4589,4609,4629,4649,4668,4689,4709,4729,4749,4769,4789,4809,4829,4849,4869,4889,4909,4929,4949,4969,4989,5009,5029,5049,5068,5089,5109,5129,5149,5169,5188],"xSR":622,"ySR":384.15000000000003,"xT1":353.2,"yT1":0,"xT2":890.8,"yT2":0,"toosoon":0,"cond_shown":"Congruent","ratio_trial":100,"L_num":7,"L_den":14,"R_num":9,"R_den":15,"correct_side":2,"subjID":"javierandrescastroramirez24","gender":"0","school":"6","age":"12"},{"start_time":1551794292458,"click_time":1551794296500,"finger_time":1551794294640,"fix_duration":1436.0267346722603,"trial":25,"RT":2182,"MT":1860,"sideResp":2,"stimulus":[],"xmouse":[654,654,654,654,654,654,654,654,654,654,654,654,654,654,654,654,654,654,654,654,654,654,654,654,654,654,654,654,654,654,654,654,654,654,654,654,654,654,654,654,654,654,654,654,654,654,654,654,654,654,654,654,654,654,654,654,654,654,654,654,654,654,654,654,654,654,654,654,654,654,654,654,654,654,654,654,654,654,654,654,654,654,654,654,654,654,654,654,654,654,654,654,654,654,654,654,654,654,654,654,654,654,654,654,654,654,654,656,657,657,642,626,611,608,597,587,484,448,389,371,353,333,315,301,272,259,197,184,165,156,141,140,146,154,193,274,337,539,642,687,694,696,696,697,697,697,697,697,697,697,697,697,697,697,697,697,697,697,697,697,697,697,697,697,697,697,697,697,697,697,697,697,697,697,697,697,697,697,697,697,697,698,702,749,776,776,776,776,776,776,776,776,776,776,776,776,776,776,776,776,776,776,974],"ymouse":[423,423,423,423,423,423,423,423,423,423,423,423,423,423,423,423,423,423,423,423,423,423,423,423,423,423,423,423,423,423,423,423,423,423,423,423,423,423,423,423,423,423,423,423,423,423,423,423,423,423,423,423,423,423,423,423,423,423,423,423,423,423,423,423,423,423,423,423,423,423,423,423,423,423,423,423,423,423,423,423,423,423,423,423,423,423,423,423,423,423,423,423,423,423,423,423,423,423,423,423,423,423,423,423,423,423,423,416,392,377,345,321,306,303,297,295,280,280,287,294,309,348,383,402,442,455,488,489,489,486,475,471,453,445,427,416,416,432,448,455,456,456,456,456,456,456,456,456,456,456,456,456,456,456,456,456,456,456,456,456,456,456,456,456,456,456,456,456,456,456,456,456,456,456,456,456,456,456,456,456,456,420,364,118,29,29,29,29,29,29,29,29,29,29,29,29,29,29,29,29,29,29,3],"timestamp_mouse":[8,27,42,62,82,102,122,142,162,182,202,222,242,262,282,302,322,342,362,382,402,422,442,462,482,502,522,542,562,582,602,622,642,662,682,702,722,742,762,782,802,822,842,862,882,902,922,942,962,982,1001,1022,1042,1062,1082,1102,1122,1142,1162,1182,1202,1222,1242,1262,1282,1302,1322,1342,1362,1382,1402,1422,1442,1462,1482,1502,1522,1542,1562,1582,1602,1622,1642,1662,1682,1702,1722,1742,1762,1782,1802,1822,1842,1862,1882,1902,1922,1942,1962,1982,2002,2022,2042,2062,2082,2102,2122,2141,2162,2182,2202,2221,2242,2262,2282,2302,2322,2342,2362,2382,2402,2422,2442,2462,2482,2502,2522,2542,2562,2582,2602,2621,2642,2662,2682,2702,2721,2742,2761,2782,2802,2822,2842,2862,2882,2902,2922,2942,2962,2982,3002,3022,3042,3062,3082,3102,3122,3142,3162,3182,3202,3222,3242,3262,3282,3302,3322,3342,3362,3381,3402,3421,3442,3462,3482,3501,3522,3542,3561,3581,3602,3622,3641,3661,3682,3702,3722,3742,3762,3781,3802,3822,3842,3862,3882,3902,3922,3942,3962,3981,4002,4022,4042],"xSR":622,"ySR":384.15000000000003,"xT1":353.2,"yT1":0,"xT2":890.8,"yT2":0,"toosoon":0,"cond_shown":"Congruent","ratio_trial":300,"L_num":5,"L_den":25,"R_num":6,"R_den":12,"correct_side":2,"subjID":"javierandrescastroramirez24","gender":"0","school":"6","age":"12"},{"start_time":1551794297791,"click_time":1551794298839,"finger_time":1551794298479,"fix_duration":250,"trial":26,"RT":688,"MT":360,"sideResp":1,"stimulus":[],"xmouse":[677,677,677,677,677,677,677,677,677,677,677,677,677,677,677,677,677,677,677,677,677,677,677,677,677,677,677,677,677,677,677,677,677,653,615,519,405,360,259,238,233,233,233,233,233,233,234,235,253,276,316,339,377],"ymouse":[430,430,430,430,430,430,430,430,430,430,430,430,430,430,430,430,430,430,430,430,430,430,430,430,430,430,430,430,430,430,430,430,430,408,375,296,212,172,87,58,47,47,47,45,45,45,44,44,39,32,30,30,34],"timestamp_mouse":[8,28,49,68,88,108,128,148,168,188,208,228,248,268,288,308,328,348,368,388,408,428,448,468,488,508,528,548,568,588,608,628,648,669,688,708,728,749,768,788,808,828,848,868,889,908,928,948,968,988,1008,1028,1048],"xSR":622,"ySR":384.15000000000003,"xT1":353.2,"yT1":0,"xT2":890.8,"yT2":0,"toosoon":0,"cond_shown":"Incongruent","ratio_trial":200,"L_num":6,"L_den":20,"R_num":3,"R_den":6,"correct_side":2,"subjID":"javierandrescastroramirez24","gender":"0","school":"6","age":"12"},{"start_time":1551794301182,"click_time":1551794302459,"finger_time":1551794302039,"fix_duration":981.5176167245862,"trial":27,"RT":857,"MT":420,"sideResp":1,"stimulus":[],"xmouse":[660,660,660,660,660,660,660,660,660,660,660,660,660,660,660,660,660,660,660,660,660,660,660,660,660,660,660,660,660,660,660,660,660,660,660,660,660,660,660,660,657,637,555,499,437,406,369,333,321,302,295,295,295,295,295,295,295,295,295,297,301,306,350,360],"ymouse":[414,414,414,414,414,414,414,414,414,414,414,414,414,414,414,414,414,414,414,414,414,414,414,414,414,414,414,414,414,414,414,414,414,414,414,414,414,414,414,414,414,402,352,314,268,242,194,117,91,51,39,38,37,37,37,37,37,37,37,37,37,37,37,38],"timestamp_mouse":[17,37,57,77,97,117,137,157,177,197,217,237,257,277,297,317,337,357,377,397,417,437,457,477,497,517,537,557,577,597,617,637,657,677,697,717,737,757,777,797,817,837,857,877,897,917,937,957,977,997,1017,1037,1057,1077,1097,1117,1137,1157,1177,1197,1217,1237,1257,1277],"xSR":622,"ySR":384.15000000000003,"xT1":353.2,"yT1":0,"xT2":890.8,"yT2":0,"toosoon":0,"cond_shown":"Incongruent","ratio_trial":100,"L_num":12,"L_den":30,"R_num":2,"R_den":4,"correct_side":2,"subjID":"javierandrescastroramirez24","gender":"0","school":"6","age":"12"},{"start_time":1551794303611,"click_time":1551794304879,"finger_time":1551794304799,"fix_duration":250,"trial":28,"RT":1188,"MT":80,"sideResp":2,"stimulus":[],"xmouse":[663,663,663,663,663,663,663,663,663,663,663,663,663,663,663,663,663,663,663,663,663,663,663,663,663,663,663,663,663,663,663,663,663,663,663,663,663,663,663,663,663,663,663,663,663,663,663,663,663,663,663,663,663,663,663,667,674,682,699,750,810,849,924,953],"ymouse":[436,436,436,436,436,436,436,436,436,436,436,436,436,436,436,436,436,436,436,436,436,436,436,436,436,436,436,436,436,436,436,436,436,436,436,436,436,436,436,436,436,436,436,436,436,436,436,436,436,436,436,436,436,435,435,431,426,422,413,343,257,211,118,79],"timestamp_mouse":[8,28,49,68,88,108,128,148,168,188,208,228,248,268,288,308,328,348,368,388,408,428,448,468,488,508,528,548,568,588,608,628,648,668,688,708,728,748,768,788,808,828,848,868,888,908,928,948,968,988,1008,1028,1048,1068,1088,1108,1128,1148,1168,1188,1208,1228,1248,1268],"xSR":622,"ySR":384.15000000000003,"xT1":353.2,"yT1":0,"xT2":890.8,"yT2":0,"toosoon":0,"cond_shown":"Incongruent","ratio_trial":200,"L_num":1,"L_den":2,"R_num":3,"R_den":10,"correct_side":1,"subjID":"javierandrescastroramirez24","gender":"0","school":"6","age":"12"},{"start_time":1551794306191,"click_time":1551794313440,"finger_time":1551794308799,"fix_duration":250,"trial":29,"RT":2608,"MT":4641,"sideResp":2,"stimulus":[],"xmouse":[698,697,697,696,696,696,696,696,696,696,696,696,696,696,696,696,696,696,696,696,696,696,696,696,696,696,696,696,696,696,696,696,696,696,696,696,696,696,696,696,696,696,696,696,696,696,696,696,696,696,696,696,696,696,696,696,696,696,696,696,696,696,696,696,696,696,696,696,696,696,696,696,696,696,696,696,696,696,696,696,696,696,696,696,696,696,696,696,696,696,696,696,696,696,696,696,696,696,696,696,696,696,696,696,696,696,696,696,696,696,696,696,696,696,696,696,696,696,696,696,696,696,696,696,696,696,696,696,697,721,730,761,776,809,838,848,850,853,854,855,855,857,859,864,871,874,874,875,877,882,883,885,886,887,889,889,890,891,892,893,894,895,896,897,898,899,899,900,901,901,901,901,901,901,901,901,902,902,902,902,902,902,902,902,902,902,902,902,902,902,902,902,902,902,902,902,902,902,902,902,902,902,902,902,902,902,902,902,902,902,902,902,902,902,902,902,902,902,902,902,902,885,877,857,847,823,768,723,700,661,644,613,609,604,597,579,544,523,513,503,498,498,498,498,498,498,498,498,498,498,497,497,497,499,515,526,553,597,623,634,656,663,680,683,692,700,741,753,770,778,793,815,849,861,879,883,884,884,884,884,884,884,884,880,856,797,768,675,635,615,607,601,599,599,599,598,598,597,597,597,597,597,597,597,597,597,597,597,597,597,597,597,597,597,596,596,595,595,595,595,595,595,595,595,595,595,595,595,595,595,595,595,595,595,595,595,595,595,595,595,595,595,595,595,595,595,595,595,595,595,595,595,595,595,595,595,595,595,615,655,752,816,954],"ymouse":[478,476,475,474,474,474,474,474,474,474,474,474,474,474,474,474,474,474,474,474,474,474,474,474,474,474,474,474,474,474,474,474,474,474,474,474,474,474,474,474,474,474,474,474,474,474,474,474,474,474,474,474,474,474,474,474,474,474,474,474,474,474,474,474,474,474,474,474,474,474,474,474,474,474,474,474,474,474,474,474,474,474,474,474,474,474,474,474,474,474,474,474,474,474,474,474,474,474,474,474,474,474,474,474,474,474,474,474,474,474,474,474,474,474,474,474,474,474,474,474,474,474,474,474,474,474,474,474,471,448,440,415,397,342,275,236,224,205,198,192,191,188,186,179,167,164,164,162,161,155,154,151,150,148,146,144,143,141,139,136,135,133,130,129,126,124,123,122,120,120,117,117,117,117,117,116,115,115,115,115,115,115,115,115,115,115,115,115,115,115,115,114,113,113,113,113,112,112,112,112,112,111,110,110,109,109,109,109,109,109,109,109,109,109,109,109,109,109,109,109,108,108,108,108,108,108,108,108,108,108,108,108,108,107,107,104,102,102,102,103,104,104,104,104,104,104,104,104,104,104,105,105,105,105,105,105,105,98,93,92,90,89,86,85,83,83,83,83,83,83,84,85,85,85,85,85,85,85,85,85,85,85,85,86,91,99,102,107,107,108,109,111,111,111,111,111,111,111,111,111,111,111,111,111,111,111,111,111,111,111,111,111,111,111,111,111,111,111,111,111,111,111,111,111,111,111,111,111,111,111,111,111,111,111,111,111,111,111,111,111,111,111,111,111,111,111,111,111,111,111,111,111,111,111,111,111,111,111,106,93,61,42,1],"timestamp_mouse":[8,31,48,68,88,108,128,148,168,188,208,228,248,268,288,308,328,348,368,388,408,428,448,468,488,509,528,548,568,588,608,628,648,668,688,708,728,748,768,788,808,828,848,868,888,908,928,948,968,988,1008,1028,1048,1068,1088,1108,1128,1148,1168,1188,1208,1228,1248,1268,1288,1308,1328,1348,1368,1388,1408,1428,1448,1468,1488,1509,1528,1548,1568,1588,1608,1628,1648,1668,1688,1708,1728,1748,1768,1788,1808,1828,1848,1868,1888,1908,1928,1948,1968,1988,2008,2028,2048,2068,2088,2108,2128,2148,2168,2188,2208,2228,2248,2268,2288,2308,2328,2348,2368,2388,2408,2428,2448,2468,2488,2509,2528,2548,2569,2589,2608,2628,2648,2669,2688,2708,2729,2749,2768,2788,2809,2828,2848,2869,2888,2909,2929,2949,2969,2989,3008,3028,3048,3069,3089,3108,3129,3149,3169,3188,3208,3229,3249,3269,3289,3308,3329,3349,3369,3389,3409,3429,3449,3469,3489,3509,3529,3549,3569,3589,3609,3629,3649,3669,3689,3709,3729,3749,3769,3789,3809,3829,3849,3869,3889,3909,3929,3949,3969,3989,4008,4029,4049,4068,4089,4108,4129,4149,4169,4189,4209,4228,4249,4269,4289,4309,4329,4349,4369,4389,4409,4429,4449,4469,4489,4509,4529,4549,4569,4589,4609,4628,4649,4669,4689,4709,4729,4749,4769,4789,4809,4829,4849,4869,4889,4909,4929,4949,4969,4989,5009,5029,5049,5069,5089,5109,5129,5149,5169,5189,5209,5229,5249,5269,5289,5309,5330,5348,5369,5389,5409,5429,5449,5469,5489,5509,5529,5549,5569,5589,5609,5629,5649,5669,5689,5709,5729,5749,5769,5789,5809,5829,5849,5869,5889,5909,5928,5949,5969,5989,6009,6029,6049,6069,6089,6109,6129,6149,6169,6189,6209,6229,6249,6269,6289,6309,6329,6349,6369,6389,6409,6429,6449,6469,6489,6509,6529,6549,6569,6589,6609,6629,6649,6669,6689,6709,6729,6749,6769,6789,6809,6829,6849,6869,6889,6909,6929,6949,6968,6989,7009,7029,7049,7069,7089,7109,7129,7149,7168,7189,7209,7229,7249],"xSR":622,"ySR":384.15000000000003,"xT1":353.2,"yT1":0,"xT2":890.8,"yT2":0,"toosoon":0,"cond_shown":"Incongruent","ratio_trial":300,"L_num":13,"L_den":26,"R_num":12,"R_den":15,"correct_side":2,"subjID":"javierandrescastroramirez24","gender":"0","school":"6","age":"12"},{"start_time":1551794316032,"click_time":1551794317540,"finger_time":1551794317041,"fix_duration":1030.3667644882378,"trial":30,"RT":1009,"MT":499,"sideResp":2,"stimulus":[],"xmouse":[706,706,706,706,706,706,706,706,706,706,706,706,706,706,706,706,706,706,706,706,706,706,706,706,706,706,706,706,706,706,706,706,706,706,706,706,706,706,706,706,706,706,706,706,706,706,706,705,705,705,711,717,726,731,743,761,792,803,821,829,844,862,865,865,869,882,920,931,943,951,953,953,953,953,953,955],"ymouse":[419,419,419,419,419,419,419,419,419,419,419,419,419,419,419,419,419,419,419,419,419,419,419,419,419,419,419,419,419,419,419,419,419,419,419,419,419,419,419,419,419,419,419,419,419,419,419,411,403,396,375,356,339,330,315,297,278,272,261,256,247,235,231,229,223,206,168,160,148,134,128,115,111,106,103,95],"timestamp_mouse":[8,35,48,68,88,108,128,148,168,188,208,228,248,268,288,308,328,348,368,388,408,428,448,468,488,508,528,548,568,588,608,628,648,668,688,708,728,748,768,788,808,828,848,868,888,908,928,948,968,988,1009,1027,1048,1068,1088,1108,1128,1148,1168,1188,1208,1228,1248,1268,1288,1308,1328,1348,1368,1388,1408,1427,1448,1468,1488,1508],"xSR":622,"ySR":384.15000000000003,"xT1":353.2,"yT1":0,"xT2":890.8,"yT2":0,"toosoon":0,"cond_shown":"Congruent","ratio_trial":200,"L_num":7,"L_den":15,"R_num":18,"R_den":27,"correct_side":2,"subjID":"javierandrescastroramirez24","gender":"0","school":"6","age":"12"},{"start_time":1551794319298,"click_time":1551794320879,"finger_time":1551794320340,"fix_duration":696.4051344257182,"trial":31,"RT":1042,"MT":539,"sideResp":2,"stimulus":[],"xmouse":[674,674,674,674,674,674,674,674,674,674,674,674,674,674,674,674,674,674,674,674,674,674,674,674,674,674,674,674,674,674,674,674,674,674,674,674,674,674,674,674,674,674,674,674,674,674,674,674,674,674,674,674,685,703,710,722,737,741,748,754,758,774,803,825,836,854,867,872,877,883,885,896,898,902,904,907,910,914,916,916],"ymouse":[389,389,389,389,389,389,389,389,389,389,389,389,389,389,389,389,389,389,389,389,389,389,389,389,389,389,389,389,389,389,389,389,389,389,389,389,389,389,389,389,389,389,389,389,389,389,389,389,389,389,389,389,379,369,366,359,343,338,331,323,318,291,255,239,232,223,213,207,202,195,192,176,172,167,163,156,146,122,111,88],"timestamp_mouse":[7,30,42,62,82,102,122,142,162,182,202,222,242,262,282,302,322,342,362,382,402,422,441,462,482,502,522,542,562,582,601,622,641,661,681,701,721,741,761,781,801,821,841,861,881,901,921,942,961,981,1001,1021,1042,1062,1082,1101,1121,1142,1162,1181,1201,1221,1241,1262,1282,1301,1321,1342,1361,1381,1402,1422,1441,1462,1481,1501,1521,1541,1561,1581],"xSR":622,"ySR":384.15000000000003,"xT1":353.2,"yT1":0,"xT2":890.8,"yT2":0,"toosoon":0,"cond_shown":"Incongruent","ratio_trial":100,"L_num":2,"L_den":4,"R_num":6,"R_den":15,"correct_side":1,"subjID":"javierandrescastroramirez24","gender":"0","school":"6","age":"12"},{"start_time":1551794324676,"click_time":1551794326799,"finger_time":1551794326339,"fix_duration":755.1238904723832,"trial":32,"RT":1663,"MT":460,"sideResp":2,"stimulus":[],"xmouse":[662,662,662,662,662,662,662,662,662,662,662,662,662,662,662,662,662,662,662,662,662,662,662,662,662,662,662,662,662,662,662,662,662,662,662,662,662,662,662,662,662,662,662,662,662,662,662,662,662,662,662,662,662,662,662,662,662,662,662,662,662,662,662,662,662,662,662,662,662,662,662,662,662,662,662,662,662,662,665,671,674,681,690,695,707,715,720,725,732,754,760,774,783,788,802,819,841,850,868,882,885,885,887,887,888,890,893],"ymouse":[433,433,433,433,433,433,433,433,433,433,433,433,433,433,433,433,433,433,433,433,433,433,433,433,433,433,433,433,433,433,433,433,433,433,433,433,433,433,433,433,433,433,433,433,433,433,433,433,433,433,433,433,433,433,433,433,433,433,433,433,433,433,433,433,433,433,433,433,433,433,433,433,433,433,433,433,433,433,431,419,414,403,385,377,346,324,307,299,277,227,205,171,150,142,126,122,115,111,103,97,95,95,95,95,93,92,91],"timestamp_mouse":[7,23,43,63,83,103,123,143,163,183,203,223,243,263,283,303,323,343,363,383,403,423,443,463,483,503,523,543,563,583,603,623,643,663,683,703,723,743,763,783,803,823,843,863,883,903,923,943,963,983,1003,1023,1043,1063,1083,1103,1123,1143,1163,1183,1203,1223,1243,1263,1283,1303,1323,1343,1363,1383,1403,1423,1443,1463,1483,1503,1523,1543,1563,1583,1603,1623,1643,1663,1683,1703,1723,1743,1763,1783,1803,1823,1843,1863,1883,1903,1923,1943,1963,1983,2003,2023,2043,2063,2083,2103,2123],"xSR":622,"ySR":384.15000000000003,"xT1":353.2,"yT1":0,"xT2":890.8,"yT2":0,"toosoon":0,"cond_shown":"Congruent","ratio_trial":200,"L_num":13,"L_den":26,"R_num":14,"R_den":20,"correct_side":2,"subjID":"javierandrescastroramirez24","gender":"0","school":"6","age":"12"},{"start_time":1551794332668,"click_time":1551794335220,"finger_time":1551794333660,"fix_duration":1447.7474158199116,"trial":33,"RT":992,"MT":1560,"sideResp":1,"stimulus":[],"xmouse":[670,670,670,670,670,670,670,670,670,670,670,670,670,670,670,670,670,670,670,670,670,670,670,670,670,670,670,670,670,670,670,670,670,670,670,670,670,670,670,670,670,670,670,670,670,670,670,670,655,638,618,551,503,480,480,480,480,480,480,480,480,480,480,480,480,480,480,480,480,480,480,480,479,477,475,475,475,475,475,475,475,475,475,475,475,475,475,475,475,475,475,475,475,475,475,475,475,472,470,470,470,470,470,470,470,470,470,470,470,470,470,470,470,470,470,470,470,470,470,470,470,470,470,467,453,429,415,386],"ymouse":[414,414,414,414,414,414,414,414,414,414,414,414,414,414,414,414,414,414,414,414,414,414,414,414,414,414,414,414,414,414,414,414,414,414,414,414,414,414,414,414,414,414,414,414,414,414,414,414,390,369,348,281,226,199,199,199,199,199,199,199,199,199,199,199,199,199,199,199,199,199,199,199,199,199,201,202,202,202,202,202,202,202,202,202,202,202,202,202,202,202,202,202,202,202,202,202,202,202,203,203,203,203,203,203,203,203,203,203,203,203,203,203,203,203,203,203,203,203,203,203,203,203,203,203,183,153,134,96],"timestamp_mouse":[12,40,51,71,91,111,131,151,171,191,211,232,251,272,292,312,332,352,372,392,412,432,452,472,492,512,532,552,572,592,612,632,652,672,692,712,732,752,772,792,812,832,852,872,892,912,932,952,972,992,1012,1031,1051,1072,1092,1112,1132,1152,1172,1192,1212,1232,1252,1272,1292,1312,1331,1352,1372,1392,1412,1431,1451,1471,1492,1512,1532,1552,1572,1592,1612,1632,1651,1672,1692,1712,1732,1752,1772,1792,1812,1832,1852,1872,1892,1912,1932,1952,1972,1992,2012,2032,2052,2072,2092,2112,2132,2152,2172,2192,2212,2232,2252,2272,2292,2312,2332,2351,2371,2392,2412,2432,2452,2472,2492,2512,2532,2552],"xSR":622,"ySR":384.15000000000003,"xT1":353.2,"yT1":0,"xT2":890.8,"yT2":0,"toosoon":0,"cond_shown":"Incongruent","ratio_trial":300,"L_num":4,"L_den":20,"R_num":2,"R_den":4,"correct_side":2,"subjID":"javierandrescastroramirez24","gender":"0","school":"6","age":"12"},{"start_time":1551794349887,"click_time":1551794352023,"finger_time":1551794351283,"fix_duration":1062.0329651718946,"trial":34,"RT":1396,"MT":740,"sideResp":2,"stimulus":[],"xmouse":[685,685,685,685,685,685,685,685,685,685,685,685,685,685,685,685,685,685,685,685,685,685,685,685,685,685,685,685,685,685,685,685,685,685,685,685,685,685,685,685,685,685,685,685,685,685,685,685,685,685,685,685,685,685,685,685,685,685,685,685,685,685,685,686,687,689,690,697,701,719,724,733,738,747,772,796,804,821,830,839,841,846,848,854,860,862,864,867,869,870,870,870,870,870,873,875,875,876,878,881,883,884,886,887,889,890,891],"ymouse":[441,441,441,441,441,441,441,441,441,441,441,441,441,441,441,441,441,441,441,441,441,441,441,441,441,441,441,441,441,441,441,441,441,441,441,441,441,441,441,441,441,441,441,441,441,441,441,441,441,441,441,441,441,441,441,441,441,441,441,441,441,441,439,435,430,426,423,412,403,378,372,360,353,340,301,269,259,237,222,202,194,184,180,172,164,159,156,150,147,145,145,145,145,144,141,136,135,133,130,124,119,118,113,111,105,102,99],"timestamp_mouse":[16,36,56,76,96,116,136,156,176,196,216,236,256,276,296,316,336,356,376,396,416,436,456,476,496,516,536,556,576,596,616,636,656,676,696,716,736,756,776,796,816,836,856,876,896,916,936,956,976,996,1016,1036,1056,1076,1096,1116,1136,1156,1176,1196,1216,1236,1256,1276,1296,1316,1336,1356,1376,1396,1416,1436,1456,1476,1496,1516,1536,1556,1576,1596,1616,1636,1656,1676,1696,1716,1736,1756,1776,1796,1816,1836,1856,1876,1896,1916,1936,1956,1976,1996,2016,2036,2056,2076,2096,2116,2136],"xSR":622,"ySR":384.15000000000003,"xT1":353.2,"yT1":0,"xT2":890.8,"yT2":0,"toosoon":0,"cond_shown":"Incongruent","ratio_trial":300,"L_num":13,"L_den":26,"R_num":12,"R_den":15,"correct_side":2,"subjID":"javierandrescastroramirez24","gender":"0","school":"6","age":"12"},{"start_time":1551794353395,"click_time":1551794355563,"finger_time":1551794355283,"fix_duration":250,"trial":35,"RT":1888,"MT":280,"sideResp":2,"stimulus":[],"xmouse":[660,660,660,660,660,660,660,660,660,660,660,660,660,660,660,660,660,660,660,660,660,660,660,660,660,660,660,660,660,660,660,660,660,660,660,660,660,660,660,660,660,660,660,660,660,660,660,660,660,660,660,660,660,660,660,660,660,660,660,660,660,660,660,660,660,660,660,660,660,660,660,660,660,660,660,660,660,660,660,660,660,660,660,660,660,660,660,660,660,660,659,660,663,681,698,705,722,750,809,824,851,860,870,877,879,880,886,896,909],"ymouse":[439,439,439,439,439,439,439,439,439,439,439,439,439,439,439,439,439,439,439,439,439,439,439,439,439,439,439,439,439,439,439,439,439,439,439,439,439,439,439,439,439,439,439,439,439,439,439,439,439,439,439,439,439,439,439,439,439,439,439,439,439,439,439,439,439,439,439,439,439,439,439,439,439,439,439,439,439,439,439,439,439,439,439,439,439,439,439,439,439,439,434,428,422,397,378,371,358,342,301,289,264,248,223,190,174,167,150,128,84],"timestamp_mouse":[8,40,48,68,88,108,128,148,168,188,208,228,248,268,288,308,328,348,368,388,408,428,448,468,488,508,528,548,568,588,608,628,648,668,688,708,728,748,768,788,808,828,848,868,888,908,928,948,968,988,1008,1028,1048,1068,1088,1108,1128,1148,1168,1188,1208,1228,1248,1268,1288,1308,1328,1348,1368,1388,1408,1428,1448,1468,1488,1508,1528,1548,1568,1588,1608,1628,1648,1668,1688,1708,1728,1748,1768,1788,1808,1828,1848,1868,1888,1908,1928,1948,1968,1988,2008,2028,2048,2068,2088,2108,2128,2148,2168],"xSR":622,"ySR":384.15000000000003,"xT1":353.2,"yT1":0,"xT2":890.8,"yT2":0,"toosoon":0,"cond_shown":"Congruent","ratio_trial":100,"L_num":10,"L_den":25,"R_num":3,"R_den":10,"correct_side":1,"subjID":"javierandrescastroramirez24","gender":"0","school":"6","age":"12"},{"start_time":1551794357235,"click_time":1551794361143,"finger_time":1551794358863,"fix_duration":250,"trial":36,"RT":1628,"MT":2280,"sideResp":2,"stimulus":[],"xmouse":[656,656,656,656,656,656,656,656,656,656,656,656,656,656,656,656,656,656,656,656,656,656,656,656,656,656,656,656,656,656,656,656,655,655,655,655,654,653,652,652,652,652,652,652,652,652,652,652,652,652,652,652,652,652,652,652,652,652,652,652,652,652,652,652,652,652,652,652,652,652,652,652,652,652,652,652,652,656,659,666,683,691,712,747,764,813,822,825,825,825,825,825,826,828,830,842,853,863,867,873,879,882,882,885,886,889,889,889,889,889,889,889,889,888,887,886,886,886,886,886,885,885,885,885,885,885,885,885,885,885,885,885,885,885,885,885,885,885,885,885,885,885,885,885,885,885,885,885,885,885,885,885,885,885,885,885,885,885,885,885,885,885,885,885,885,885,885,885,885,885,885,885,885,885,885,885,885,885,885,885,885,886,889,889,889,889,889,890,890,890,890,890,890,890,890,891],"ymouse":[459,459,459,459,459,459,459,459,459,459,459,459,459,459,459,459,459,459,459,459,459,459,459,459,459,459,459,459,459,459,459,459,458,456,455,451,448,444,443,443,443,443,443,443,443,443,443,443,443,442,441,440,440,440,440,440,440,440,440,440,440,440,440,440,440,440,440,440,440,440,440,440,440,440,440,440,438,430,424,413,391,381,365,342,329,291,276,263,259,256,256,256,255,249,244,215,193,177,170,159,146,142,141,137,135,123,120,120,120,120,120,119,119,115,113,109,108,105,105,104,102,102,102,102,102,102,102,102,102,102,102,102,102,102,102,102,102,102,102,102,102,102,102,102,102,102,102,102,102,102,102,102,102,102,102,102,102,101,101,100,100,99,99,99,99,99,99,99,99,99,99,99,99,99,99,99,99,99,99,98,98,98,97,97,97,97,97,97,97,97,97,97,97,97,97,96],"timestamp_mouse":[9,28,48,68,88,108,128,148,168,188,208,228,248,268,288,308,328,348,368,388,408,428,448,468,488,508,528,548,568,588,608,628,648,668,688,708,728,748,768,788,808,828,848,868,888,908,928,948,968,988,1008,1028,1048,1068,1088,1108,1128,1148,1168,1188,1208,1228,1248,1268,1288,1308,1328,1348,1368,1388,1408,1428,1448,1468,1488,1508,1528,1548,1568,1588,1608,1628,1648,1668,1688,1708,1728,1748,1768,1788,1808,1828,1848,1868,1888,1908,1928,1948,1968,1988,2008,2028,2048,2068,2088,2108,2128,2148,2168,2188,2208,2228,2248,2268,2288,2308,2328,2348,2368,2388,2408,2428,2448,2468,2488,2508,2528,2548,2568,2588,2608,2628,2648,2668,2688,2708,2728,2748,2768,2788,2809,2828,2848,2868,2888,2908,2928,2948,2968,2988,3008,3028,3048,3068,3088,3108,3128,3148,3168,3188,3208,3228,3248,3268,3288,3308,3328,3348,3368,3388,3408,3428,3448,3468,3488,3508,3528,3548,3568,3588,3608,3628,3648,3668,3688,3708,3728,3748,3768,3788,3808,3829,3848,3868,3888,3908],"xSR":622,"ySR":384.15000000000003,"xT1":353.2,"yT1":0,"xT2":890.8,"yT2":0,"toosoon":0,"cond_shown":"Incongruent","ratio_trial":100,"L_num":6,"L_den":10,"R_num":7,"R_den":14,"correct_side":1,"subjID":"javierandrescastroramirez24","gender":"0","school":"6","age":"12"},{"start_time":1551794365738,"click_time":1551794367224,"finger_time":1551794366803,"fix_duration":1473.2062356781464,"trial":37,"RT":1065,"MT":421,"sideResp":1,"stimulus":[],"xmouse":[667,667,667,667,667,667,667,667,667,667,667,667,667,667,667,667,667,667,667,667,667,667,667,667,667,667,667,667,667,667,667,667,667,667,667,667,667,667,667,667,667,667,667,667,667,667,667,667,667,667,667,667,667,614,584,508,405,343,343,343,343,343,343,343,343,343,343,343,343,343,343,343,343,343,379],"ymouse":[443,443,443,443,443,443,443,443,443,443,443,443,443,443,443,443,443,443,443,443,443,443,443,443,443,443,443,443,443,443,443,443,443,443,443,443,443,443,443,443,443,443,443,443,443,443,443,443,443,443,443,443,443,370,338,250,114,15,15,15,15,15,15,15,15,15,15,15,15,15,15,15,15,15,8],"timestamp_mouse":[9,25,45,65,85,105,125,145,165,185,205,225,245,265,286,306,325,345,365,385,406,425,446,465,486,506,525,545,566,586,606,626,646,666,686,706,726,746,766,786,805,826,846,866,886,906,926,946,966,986,1006,1025,1046,1065,1086,1106,1126,1145,1165,1186,1205,1225,1246,1265,1285,1306,1326,1346,1365,1385,1406,1425,1446,1465,1486],"xSR":622,"ySR":384.15000000000003,"xT1":353.2,"yT1":0,"xT2":890.8,"yT2":0,"toosoon":0,"cond_shown":"Incongruent","ratio_trial":300,"L_num":4,"L_den":20,"R_num":2,"R_den":4,"correct_side":2,"subjID":"javierandrescastroramirez24","gender":"0","school":"6","age":"12"},{"start_time":1551794369555,"click_time":1551794370743,"finger_time":1551794370663,"fix_duration":1371.2682067072897,"trial":38,"RT":1108,"MT":80,"sideResp":2,"stimulus":[],"xmouse":[682,682,682,682,682,682,682,682,682,682,682,682,682,682,683,683,684,684,685,685,686,686,686,686,686,686,689,692,695,697,697,697,697,697,697,697,697,697,697,697,697,697,697,697,697,697,697,697,697,697,697,697,697,699,701,713,758,819,860,979],"ymouse":[445,445,445,445,445,445,445,445,445,445,445,443,440,439,436,434,433,432,430,429,426,426,426,424,424,424,420,418,414,413,413,413,413,413,413,413,413,413,413,413,413,413,413,413,413,413,413,413,413,413,413,410,407,400,395,380,333,266,223,96],"timestamp_mouse":[9,35,48,69,88,108,128,148,168,188,208,228,248,268,288,308,328,348,368,388,408,429,448,468,488,508,528,548,568,588,608,628,648,668,688,708,728,748,768,788,808,828,848,868,888,908,928,948,968,988,1008,1028,1048,1068,1088,1108,1128,1148,1168,1188],"xSR":622,"ySR":384.15000000000003,"xT1":353.2,"yT1":0,"xT2":890.8,"yT2":0,"toosoon":0,"cond_shown":"Congruent","ratio_trial":300,"L_num":1,"L_den":3,"R_num":19,"R_den":30,"correct_side":2,"subjID":"javierandrescastroramirez24","gender":"0","school":"6","age":"12"},{"start_time":1551794373252,"click_time":1551794374663,"finger_time":1551794374223,"fix_duration":1288.6034472646188,"trial":39,"RT":971,"MT":440,"sideResp":1,"stimulus":[],"xmouse":[651,651,651,651,651,651,651,651,651,651,651,651,651,651,651,651,651,651,651,651,651,651,651,651,651,651,651,651,651,651,651,651,651,651,651,651,651,651,651,651,651,651,651,651,651,651,648,624,545,518,479,456,425,409,390,383,380,379,376,375,374,374,374,374,374,376,377,378,380,380,381],"ymouse":[450,450,450,450,450,450,450,450,450,450,450,450,450,450,450,450,450,450,450,450,450,450,450,450,450,450,450,450,450,450,450,450,450,450,450,450,450,450,450,450,450,450,450,450,450,450,450,444,415,402,373,345,298,275,247,219,195,186,169,161,145,143,141,140,139,134,130,127,119,115,99],"timestamp_mouse":[11,36,51,71,91,111,131,151,171,191,211,231,251,271,291,311,331,351,371,391,411,431,451,471,491,511,531,551,571,591,611,631,651,671,691,711,731,751,771,791,811,831,851,871,891,911,931,951,971,991,1011,1031,1051,1071,1091,1111,1131,1151,1171,1191,1211,1231,1251,1271,1291,1311,1331,1351,1371,1391,1411],"xSR":622,"ySR":384.15000000000003,"xT1":353.2,"yT1":0,"xT2":890.8,"yT2":0,"toosoon":0,"cond_shown":"Incongruent","ratio_trial":300,"L_num":13,"L_den":26,"R_num":12,"R_den":15,"correct_side":2,"subjID":"javierandrescastroramirez24","gender":"0","school":"6","age":"12"},{"start_time":1551794375744,"click_time":1551794377803,"finger_time":1551794376563,"fix_duration":299.68786434410146,"trial":40,"RT":819,"MT":1240,"sideResp":1,"stimulus":[],"xmouse":[664,665,665,665,665,665,665,665,665,665,665,665,665,665,665,665,665,665,665,665,665,665,665,672,681,684,687,688,688,688,688,688,688,688,688,690,693,697,699,700,700,700,700,700,700,700,700,700,700,700,700,700,700,700,700,700,700,700,700,700,700,700,700,700,697,692,692,687,686,683,682,681,679,677,677,677,677,677,677,677,677,677,675,669,642,603,582,541,507,466,454,454,454,454,454,454,454,454,454,454,454,454,454,432],"ymouse":[427,426,426,426,426,426,426,426,426,426,426,426,426,426,426,426,426,426,426,426,426,426,426,416,410,407,404,404,403,403,403,403,403,403,403,402,399,393,389,387,385,384,384,384,384,384,384,384,384,384,384,384,384,384,384,384,384,384,384,384,384,384,384,384,393,402,404,411,415,419,421,422,425,428,428,428,428,428,428,428,428,428,418,403,357,296,260,189,125,27,1,1,1,1,1,1,1,1,1,1,1,1,1,2],"timestamp_mouse":[1,19,39,59,79,99,119,139,159,179,199,219,239,259,279,299,319,339,359,379,399,419,439,459,479,499,519,539,559,579,599,619,639,659,679,699,719,739,759,779,799,819,839,859,879,899,919,939,959,979,999,1019,1039,1059,1079,1099,1119,1139,1159,1179,1199,1219,1239,1259,1279,1299,1319,1339,1359,1379,1399,1419,1439,1459,1479,1499,1519,1539,1559,1579,1599,1619,1639,1659,1679,1699,1719,1739,1759,1779,1799,1819,1839,1859,1879,1899,1919,1939,1959,1979,1999,2019,2039,2059],"xSR":622,"ySR":384.15000000000003,"xT1":353.2,"yT1":0,"xT2":890.8,"yT2":0,"toosoon":0,"cond_shown":"Congruent","ratio_trial":100,"L_num":9,"L_den":15,"R_num":8,"R_den":16,"correct_side":1,"subjID":"javierandrescastroramirez24","gender":"0","school":"6","age":"12"},{"start_time":1551794378983,"click_time":1551794380363,"finger_time":1551794380223,"fix_duration":298.5596989009908,"trial":41,"RT":1240,"MT":140,"sideResp":1,"stimulus":[],"xmouse":[684,684,684,684,684,684,684,684,684,684,684,684,684,684,684,684,684,684,684,684,684,684,684,684,684,684,684,684,684,684,684,684,684,684,684,684,684,684,684,684,684,684,684,684,684,684,684,684,684,684,684,684,684,684,684,684,684,684,684,685,662,637,590,542,515,458,443,429,426,422],"ymouse":[439,439,439,439,439,439,439,439,439,439,439,439,439,439,439,439,439,439,439,439,439,439,439,439,439,439,439,439,439,439,439,439,439,439,439,439,439,439,439,439,439,439,439,439,439,439,439,439,439,439,439,439,439,439,439,439,439,439,439,439,417,400,360,307,278,190,151,119,107,93],"timestamp_mouse":[6,25,40,60,80,100,120,140,160,180,200,220,240,260,280,300,320,340,360,380,400,420,440,460,480,500,520,540,560,580,600,620,640,660,680,700,720,740,760,780,800,820,840,860,880,900,920,940,960,980,1001,1020,1040,1060,1080,1100,1120,1140,1160,1180,1200,1220,1240,1260,1280,1300,1320,1340,1360,1380],"xSR":622,"ySR":384.15000000000003,"xT1":353.2,"yT1":0,"xT2":890.8,"yT2":0,"toosoon":0,"cond_shown":"Congruent","ratio_trial":200,"L_num":7,"L_den":21,"R_num":2,"R_den":15,"correct_side":1,"subjID":"javierandrescastroramirez24","gender":"0","school":"6","age":"12"},{"start_time":1551794382235,"click_time":1551794383823,"finger_time":1551794383663,"fix_duration":610.0214862760911,"trial":42,"RT":1428,"MT":160,"sideResp":2,"stimulus":[],"xmouse":[651,651,651,651,651,651,651,651,651,651,651,651,651,651,651,651,651,651,651,651,651,651,651,651,651,651,651,651,651,651,651,651,651,651,651,651,651,651,651,651,651,651,651,651,651,651,651,651,651,651,651,651,651,651,651,651,651,651,651,651,651,651,651,651,651,651,651,651,651,651,652,662,667,689,728,752,828,868,893,905],"ymouse":[397,397,397,397,397,397,397,397,397,397,397,397,397,397,397,397,397,397,397,397,397,397,397,397,397,397,397,397,397,397,397,397,397,397,397,397,397,397,397,397,397,397,397,397,397,397,397,397,397,397,397,397,397,397,397,397,397,397,397,397,397,397,397,397,397,397,397,397,397,397,397,384,377,355,310,279,195,148,111,94],"timestamp_mouse":[8,33,48,68,88,108,128,148,168,188,208,228,248,268,288,308,328,348,368,388,408,428,448,468,488,508,528,548,568,588,608,628,648,668,688,708,728,748,768,788,808,828,848,868,888,908,928,948,968,988,1008,1028,1048,1068,1088,1108,1128,1148,1168,1188,1208,1228,1248,1268,1288,1308,1328,1348,1368,1388,1408,1428,1448,1468,1488,1508,1528,1548,1568,1588],"xSR":622,"ySR":384.15000000000003,"xT1":353.2,"yT1":0,"xT2":890.8,"yT2":0,"toosoon":0,"cond_shown":"Congruent","ratio_trial":100,"L_num":7,"L_den":14,"R_num":9,"R_den":15,"correct_side":2,"subjID":"javierandrescastroramirez24","gender":"0","school":"6","age":"12"},{"start_time":1551794385440,"click_time":1551794387564,"finger_time":1551794387183,"fix_duration":655.3609742736453,"trial":43,"RT":1743,"MT":381,"sideResp":2,"stimulus":[],"xmouse":[677,677,677,677,677,677,677,677,677,677,677,677,677,677,677,677,677,677,677,677,677,677,677,677,677,677,677,677,677,677,677,677,677,677,677,677,677,677,677,677,677,677,677,677,677,677,677,677,677,677,677,677,677,677,677,677,677,677,677,677,677,677,677,677,677,677,677,677,677,677,677,677,677,677,677,677,677,677,677,677,677,677,677,677,677,677,681,694,709,751,770,809,844,857,876,887,901,913,945,957,957,957,955,952,950,950,950],"ymouse":[406,406,406,406,406,406,406,406,406,406,406,406,406,406,406,406,406,406,406,406,406,406,406,406,406,406,406,406,406,406,406,406,406,406,406,406,406,406,406,406,406,406,406,406,406,406,406,406,406,406,406,406,406,406,406,406,406,406,406,406,406,406,406,406,406,406,406,406,406,406,406,406,406,406,406,406,406,406,406,406,406,406,406,406,405,404,397,379,362,303,282,240,214,207,196,189,180,170,145,129,127,122,114,107,101,100,98],"timestamp_mouse":[8,23,43,63,83,103,123,143,163,183,203,223,243,263,283,303,323,343,363,383,403,423,443,463,483,503,523,543,563,583,603,623,643,663,683,703,723,743,763,783,803,823,843,863,883,903,923,943,963,983,1003,1023,1043,1063,1083,1103,1123,1143,1163,1183,1203,1223,1243,1263,1283,1303,1323,1343,1363,1383,1403,1423,1443,1463,1483,1503,1523,1543,1563,1583,1603,1623,1643,1663,1683,1703,1723,1743,1763,1783,1803,1823,1843,1863,1883,1903,1923,1943,1963,1983,2003,2023,2043,2063,2083,2103,2123],"xSR":622,"ySR":384.15000000000003,"xT1":353.2,"yT1":0,"xT2":890.8,"yT2":0,"toosoon":0,"cond_shown":"Incongruent","ratio_trial":300,"L_num":8,"L_den":10,"R_num":14,"R_den":28,"correct_side":1,"subjID":"javierandrescastroramirez24","gender":"0","school":"6","age":"12"},{"start_time":1551794390353,"click_time":1551794392663,"finger_time":1551794392323,"fix_duration":408.87235006677525,"trial":44,"RT":1970,"MT":340,"sideResp":1,"stimulus":[],"xmouse":[674,674,674,674,674,674,674,674,674,674,674,674,674,674,674,674,674,674,674,674,674,674,674,674,674,674,674,674,674,674,674,674,674,674,674,674,674,674,674,674,674,674,674,674,674,674,674,674,674,674,674,674,674,674,674,674,674,674,674,674,674,674,674,674,674,674,674,674,674,674,674,674,674,674,674,674,674,674,674,674,674,674,674,674,674,674,674,674,674,674,674,674,674,674,669,665,648,638,614,597,562,538,495,463,443,437,428,414,409,395,390,389,389,390,395,396],"ymouse":[458,458,458,458,458,458,458,458,458,458,458,458,458,458,458,458,458,458,458,458,458,458,458,458,458,458,458,458,458,458,458,458,458,458,458,458,458,458,458,458,458,458,458,458,458,458,458,458,458,458,458,458,458,458,458,458,458,458,458,458,458,458,458,458,458,458,458,458,458,458,458,458,458,458,458,458,458,458,458,458,458,458,458,458,458,458,458,458,458,458,458,458,458,448,432,428,408,399,374,350,305,281,249,232,221,217,205,184,176,149,138,132,130,117,100,89],"timestamp_mouse":[10,31,50,71,91,111,131,151,171,191,211,230,251,271,291,311,331,351,371,391,411,431,451,471,491,511,531,551,571,591,611,631,651,671,691,711,731,751,771,791,811,831,851,871,891,911,931,951,971,991,1011,1031,1051,1071,1091,1110,1130,1150,1170,1190,1210,1230,1250,1270,1290,1310,1330,1350,1370,1390,1410,1430,1450,1470,1490,1511,1530,1550,1570,1590,1611,1631,1651,1671,1691,1710,1730,1750,1770,1790,1810,1830,1850,1870,1890,1911,1931,1951,1970,1990,2010,2031,2050,2070,2090,2110,2130,2150,2170,2191,2210,2230,2250,2270,2291,2310],"xSR":622,"ySR":384.15000000000003,"xT1":353.2,"yT1":0,"xT2":890.8,"yT2":0,"toosoon":0,"cond_shown":"Congruent","ratio_trial":300,"L_num":24,"L_den":30,"R_num":8,"R_den":16,"correct_side":1,"subjID":"javierandrescastroramirez24","gender":"0","school":"6","age":"12"},{"start_time":1551794396230,"click_time":1551794412367,"finger_time":1551794411967,"fix_duration":926.8047915137716,"trial":45,"RT":15737,"MT":400,"sideResp":2,"stimulus":[],"xmouse":[698,698,698,698,698,698,698,698,698,698,698,698,698,698,698,698,698,698,698,698,698,698,698,698,698,698,698,698,698,698,698,698,698,698,698,698,698,698,698,698,698,698,698,698,698,698,698,698,698,698,698,698,698,698,698,698,698,698,698,698,698,698,698,698,698,698,698,698,698,698,698,698,698,698,698,698,698,698,698,698,698,698,698,698,698,698,698,698,698,698,698,698,698,698,698,698,698,698,698,698,698,698,698,698,698,698,698,698,698,698,698,698,698,698,698,698,698,698,698,698,698,698,698,698,698,698,698,698,698,698,698,698,698,698,698,698,698,698,698,698,698,698,698,698,698,698,698,698,698,698,698,698,698,698,698,698,698,698,698,698,698,698,698,698,698,698,698,698,698,698,698,698,698,698,698,698,698,698,698,698,698,698,698,698,698,698,698,698,698,698,698,698,698,698,698,698,698,698,698,698,698,698,698,698,698,698,698,698,698,698,698,698,698,698,698,698,698,698,698,698,698,698,698,698,698,698,698,698,698,698,698,698,698,698,698,698,698,698,698,698,698,698,698,698,698,698,698,698,698,698,698,698,698,698,698,698,698,698,698,698,698,698,698,698,698,698,698,698,698,698,698,698,698,698,698,698,698,698,698,698,698,698,698,698,698,698,698,698,698,698,698,698,698,698,698,698,698,698,698,698,698,698,698,698,698,698,698,698,698,698,698,698,698,698,698,698,698,698,698,698,698,698,698,698,698,698,698,698,698,698,698,698,698,698,698,698,698,698,698,698,698,698,698,698,698,698,698,698,698,698,698,698,698,698,698,6