[{"start_time":1551795400761,"click_time":1551795402176,"finger_time":1551795401735,"fix_duration":382.5108568248663,"trial":0,"RT":974,"MT":441,"sideResp":1,"stimulus":"img/900/randomdotsizeEA/L/1_Ratio_900_L_10_R_9.png","xmouse":[690,690,690,690,690,690,690,690,690,690,690,690,690,690,690,690,690,690,690,690,690,690,690,690,690,690,690,690,690,690,690,690,690,690,690,690,690,690,690,690,690,690,690,690,687,687,685,683,654,638,609,593,591,590,589,589,589,589,588,586,577,554,536,524,522,522,522,519,507,430,375],"ymouse":[388,388,388,388,388,388,388,388,388,388,388,388,388,388,388,388,388,388,388,388,388,388,388,388,388,388,388,388,388,388,388,388,388,388,388,388,388,388,388,388,388,388,388,388,388,388,387,376,306,279,230,203,197,188,180,179,178,177,176,175,170,164,156,148,148,148,148,145,138,110,94],"timestamp_mouse":[14,34,54,74,94,114,134,154,174,194,214,234,254,274,294,314,334,354,374,394,414,434,454,474,494,514,534,554,574,594,614,634,654,674,694,714,734,754,774,794,814,834,854,874,894,914,934,954,974,994,1014,1034,1054,1074,1094,1114,1134,1154,1174,1194,1214,1234,1254,1274,1294,1314,1334,1354,1374,1394,1414],"xSR":622,"ySR":352.3,"xT1":353.2,"yT1":0,"xT2":890.8,"yT2":0,"toosoon":0,"cond_shown":"randomdotsizeEA","ratio_trial":900,"smaller_num":"9","larger_num":"10","correct_side":1,"subjID":"javiercastro","gender":"0","age":"12","school":"6","test":{"fix_dur":[250,1500],"timestim":300,"targets_dim":[100,100],"targets_relative_coord":[0.3,0.7],"size_stim":[880,420],"start_dim":[100,100],"size_start":[300,300],"size_fix":60,"samplingrate":20,"img_types":["equaldotsize","equaldotanddens","randomdotsizeEA"],"ratios":[250,500,750,900],"rep_conds":9,"nTrials":120,"trials_to_rest":500,"Trials_order":[119,118,42,77,2,45,38,9,102,48,85,40,13,53,50,61,47,106,64,24,52,72,78,29,39,99,73,84,62,107,54,81,27,104,15,20,71,32,67,23,94,115,93,80,59,37,88,8,98,116,95,75,16,100,49,65,108,101,28,41,91,46,83,58,113,25,117,33,19,26,22,11,10,86,30,69,34,43,14,63,17,36,79,31,35,4,74,12,114,89,87,21,18,103,56,112,3,68,76,51,110,57,44,70,1,60,6,82,55,109,96,5,90,66,7,105,97,111,0,92],"cond_shown":["randomdotsizeEA","equaldotanddens","equaldotsize","randomdotsizeEA","randomdotsizeEA","equaldotsize","randomdotsizeEA","equaldotsize","equaldotsize","equaldotsize","equaldotanddens","equaldotanddens","equaldotanddens","randomdotsizeEA","randomdotsizeEA","equaldotanddens","randomdotsizeEA","equaldotanddens","equaldotanddens","equaldotsize","equaldotanddens","equaldotsize","equaldotsize","randomdotsizeEA","equaldotsize","equaldotsize","equaldotanddens","equaldotsize","randomdotsizeEA","randomdotsizeEA","equaldotsize","equaldotsize","equaldotsize","randomdotsizeEA","equaldotsize","randomdotsizeEA","randomdotsizeEA","randomdotsizeEA","equaldotanddens","randomdotsizeEA","equaldotanddens","equaldotanddens","equaldotsize","randomdotsizeEA","randomdotsizeEA","equaldotanddens","equaldotanddens","randomdotsizeEA","randomdotsizeEA","randomdotsizeEA","randomdotsizeEA","equaldotsize","equaldotanddens","equaldotanddens","equaldotanddens","randomdotsizeEA","equaldotsize","randomdotsizeEA","equaldotanddens","randomdotsizeEA","equaldotanddens","equaldotanddens","randomdotsizeEA","equaldotanddens","randomdotsizeEA","equaldotanddens","equaldotsize","equaldotsize","equaldotanddens","randomdotsizeEA","equaldotanddens","randomdotsizeEA","equaldotanddens","randomdotsizeEA","equaldotsize","equaldotsize","equaldotanddens","equaldotanddens","randomdotsizeEA","equaldotsize","randomdotsizeEA","equaldotsize","equaldotanddens","equaldotanddens","randomdotsizeEA","equaldotanddens","randomdotsizeEA","equaldotsize","equaldotsize","randomdotsizeEA","equaldotsize","equaldotsize","equaldotsize","equaldotanddens","randomdotsizeEA","equaldotanddens","equaldotsize","randomdotsizeEA","equaldotanddens","equaldotsize","randomdotsizeEA","equaldotsize","randomdotsizeEA","equaldotanddens","equaldotanddens","equaldotsize","equaldotsize","equaldotanddens","equaldotanddens","equaldotanddens","equaldotsize","randomdotsizeEA","equaldotsize","equaldotsize","equaldotanddens","equaldotsize","equaldotanddens","equaldotsize","equaldotsize","randomdotsizeEA"],"ratio_trial":[900,900,750,500,250,900,250,900,750,250,250,500,250,500,250,250,900,900,500,250,500,250,750,500,500,500,250,250,250,900,750,900,500,750,500,750,900,750,750,900,900,750,900,750,900,250,500,750,250,750,900,500,500,500,250,500,250,500,500,500,750,900,900,900,500,250,900,900,750,250,900,900,900,250,750,900,900,750,250,500,500,250,750,750,900,500,250,250,750,500,500,900,750,750,750,500,500,750,500,500,250,900,750,900,250,250,750,900,750,250,250,500,750,750,750,900,250,500,250,750],"smaller_num":["9","18","15","9","3","18","4","9","15","5","2","2","3","2","3","4","9","9","6","3","6","5","12","5","6","6","3","3","5","18","3","18","2","12","6","3","9","15","15","18","18","3","9","18","9","6","1","6","3","3","18","9","6","5","2","5","4","9","1","10","6","9","9","9","3","5","9","9","3","6","9","18","9","6","3","18","18","9","6","6","9","3","3","15","9","9","2","1","6","9","9","18","3","3","18","1","6","3","1","6","3","18","3","18","3","1","9","18","6","3","2","5","15","18","15","9","3","1","4","3"],"larger_num":["10","20","20","18","12","20","16","10","20","20","8","4","12","4","12","16","10","10","12","12","12","20","16","10","12","12","12","12","20","20","4","20","4","16","12","4","10","20","20","20","20","4","10","24","10","24","2","8","12","4","20","18","12","10","8","10","16","18","2","20","8","10","10","10","6","20","10","10","4","24","10","20","10","24","4","20","20","12","24","12","18","12","4","20","10","18","8","4","8","18","18","20","4","4","24","2","12","4","2","12","12","20","4","20","12","4","12","20","8","12","8","10","20","24","20","10","12","2","16","4"],"correct_side":[1,2,2,1,2,1,1,2,1,2,1,1,2,1,1,1,1,2,1,1,1,2,2,2,1,1,2,1,2,2,1,1,1,2,1,1,2,2,2,2,1,1,2,1,2,2,2,1,1,1,1,2,1,2,1,2,2,1,2,2,1,2,2,1,2,2,1,2,2,1,2,2,2,1,2,1,2,2,2,1,2,1,1,2,2,1,1,2,2,2,2,1,1,1,1,2,1,2,2,1,1,2,1,2,1,2,2,1,1,2,1,1,2,1,1,2,2,2,2,1],"img_shown":["img/900/randomdotsizeEA/L/1_Ratio_900_L_10_R_9.png","img/900/equaldotanddens/R/12_Ratio_900_L_18_R_20.png","img/750/equaldotsize/R/4_Ratio_750_L_15_R_20.png","img/500/randomdotsizeEA/L/4_Ratio_500_L_18_R_9.png","img/250/randomdotsizeEA/R/9_Ratio_250_L_3_R_12.png","img/900/equaldotsize/L/4_Ratio_900_L_20_R_18.png","img/250/randomdotsizeEA/L/2_Ratio_250_L_16_R_4.png","img/900/equaldotsize/R/7_Ratio_900_L_9_R_10.png","img/750/equaldotsize/L/1_Ratio_750_L_20_R_15.png","img/250/equaldotsize/R/12_Ratio_250_L_5_R_20.png","img/250/equaldotanddens/L/1_Ratio_250_L_8_R_2.png","img/500/equaldotanddens/L/10_Ratio_500_L_4_R_2.png","img/250/equaldotanddens/R/4_Ratio_250_L_3_R_12.png","img/500/randomdotsizeEA/L/10_Ratio_500_L_4_R_2.png","img/250/randomdotsizeEA/L/14_Ratio_250_L_12_R_3.png","img/250/equaldotanddens/L/2_Ratio_250_L_16_R_4.png","img/900/randomdotsizeEA/L/1_Ratio_900_L_10_R_9.png","img/900/equaldotanddens/R/3_Ratio_900_L_9_R_10.png","img/500/equaldotanddens/L/11_Ratio_500_L_12_R_6.png","img/250/equaldotsize/L/15_Ratio_250_L_12_R_3.png","img/500/equaldotanddens/L/13_Ratio_500_L_12_R_6.png","img/250/equaldotsize/R/12_Ratio_250_L_5_R_20.png","img/750/equaldotsize/R/11_Ratio_750_L_12_R_16.png","img/500/randomdotsizeEA/R/14_Ratio_500_L_5_R_10.png","img/500/equaldotsize/L/13_Ratio_500_L_12_R_6.png","img/500/equaldotsize/L/11_Ratio_500_L_12_R_6.png","img/250/equaldotanddens/R/9_Ratio_250_L_3_R_12.png","img/250/equaldotsize/L/14_Ratio_250_L_12_R_3.png","img/250/randomdotsizeEA/R/12_Ratio_250_L_5_R_20.png","img/900/randomdotsizeEA/R/11_Ratio_900_L_18_R_20.png","img/750/equaldotsize/L/9_Ratio_750_L_4_R_3.png","img/900/equaldotsize/L/4_Ratio_900_L_20_R_18.png","img/500/equaldotsize/L/5_Ratio_500_L_4_R_2.png","img/750/randomdotsizeEA/R/11_Ratio_750_L_12_R_16.png","img/500/equaldotsize/L/13_Ratio_500_L_12_R_6.png","img/750/randomdotsizeEA/L/8_Ratio_750_L_4_R_3.png","img/900/randomdotsizeEA/R/5_Ratio_900_L_9_R_10.png","img/750/randomdotsizeEA/R/3_Ratio_750_L_15_R_20.png","img/750/equaldotanddens/R/3_Ratio_750_L_15_R_20.png","img/900/randomdotsizeEA/R/11_Ratio_900_L_18_R_20.png","img/900/equaldotanddens/L/8_Ratio_900_L_20_R_18.png","img/750/equaldotanddens/L/10_Ratio_750_L_4_R_3.png","img/900/equaldotsize/R/3_Ratio_900_L_9_R_10.png","img/750/randomdotsizeEA/L/6_Ratio_750_L_24_R_18.png","img/900/randomdotsizeEA/R/5_Ratio_900_L_9_R_10.png","img/250/equaldotanddens/R/6_Ratio_250_L_6_R_24.png","img/500/equaldotanddens/R/12_Ratio_500_L_1_R_2.png","img/750/randomdotsizeEA/L/13_Ratio_750_L_8_R_6.png","img/250/randomdotsizeEA/L/14_Ratio_250_L_12_R_3.png","img/750/randomdotsizeEA/L/10_Ratio_750_L_4_R_3.png","img/900/randomdotsizeEA/L/2_Ratio_900_L_20_R_18.png","img/500/equaldotsize/R/1_Ratio_500_L_9_R_18.png","img/500/equaldotanddens/L/13_Ratio_500_L_12_R_6.png","img/500/equaldotanddens/R/14_Ratio_500_L_5_R_10.png","img/250/equaldotanddens/L/3_Ratio_250_L_8_R_2.png","img/500/randomdotsizeEA/R/14_Ratio_500_L_5_R_10.png","img/250/equaldotsize/R/10_Ratio_250_L_4_R_16.png","img/500/randomdotsizeEA/L/4_Ratio_500_L_18_R_9.png","img/500/equaldotanddens/R/15_Ratio_500_L_1_R_2.png","img/500/randomdotsizeEA/R/3_Ratio_500_L_10_R_20.png","img/750/equaldotanddens/L/13_Ratio_750_L_8_R_6.png","img/900/equaldotanddens/R/7_Ratio_900_L_9_R_10.png","img/900/randomdotsizeEA/R/6_Ratio_900_L_9_R_10.png","img/900/equaldotanddens/L/1_Ratio_900_L_10_R_9.png","img/500/randomdotsizeEA/R/2_Ratio_500_L_3_R_6.png","img/250/equaldotanddens/R/12_Ratio_250_L_5_R_20.png","img/900/equaldotsize/L/1_Ratio_900_L_10_R_9.png","img/900/equaldotsize/R/5_Ratio_900_L_9_R_10.png","img/750/equaldotanddens/R/12_Ratio_750_L_3_R_4.png","img/250/randomdotsizeEA/L/5_Ratio_250_L_24_R_6.png","img/900/equaldotanddens/R/15_Ratio_900_L_9_R_10.png","img/900/randomdotsizeEA/R/9_Ratio_900_L_18_R_20.png","img/900/equaldotanddens/R/7_Ratio_900_L_9_R_10.png","img/250/randomdotsizeEA/L/5_Ratio_250_L_24_R_6.png","img/750/equaldotsize/R/7_Ratio_750_L_3_R_4.png","img/900/equaldotsize/L/2_Ratio_900_L_20_R_18.png","img/900/equaldotanddens/R/9_Ratio_900_L_18_R_20.png","img/750/equaldotanddens/R/15_Ratio_750_L_9_R_12.png","img/250/randomdotsizeEA/R/6_Ratio_250_L_6_R_24.png","img/500/equaldotsize/L/11_Ratio_500_L_12_R_6.png","img/500/randomdotsizeEA/R/1_Ratio_500_L_9_R_18.png","img/250/equaldotsize/L/15_Ratio_250_L_12_R_3.png","img/750/equaldotanddens/L/8_Ratio_750_L_4_R_3.png","img/750/equaldotanddens/R/5_Ratio_750_L_15_R_20.png","img/900/randomdotsizeEA/R/6_Ratio_900_L_9_R_10.png","img/500/equaldotanddens/L/4_Ratio_500_L_18_R_9.png","img/250/randomdotsizeEA/L/7_Ratio_250_L_8_R_2.png","img/250/equaldotsize/R/8_Ratio_250_L_1_R_4.png","img/750/equaldotsize/R/2_Ratio_750_L_6_R_8.png","img/500/randomdotsizeEA/R/1_Ratio_500_L_9_R_18.png","img/500/equaldotsize/R/6_Ratio_500_L_9_R_18.png","img/900/equaldotsize/L/4_Ratio_900_L_20_R_18.png","img/750/equaldotsize/L/10_Ratio_750_L_4_R_3.png","img/750/equaldotanddens/L/10_Ratio_750_L_4_R_3.png","img/750/randomdotsizeEA/L/6_Ratio_750_L_24_R_18.png","img/500/equaldotanddens/R/12_Ratio_500_L_1_R_2.png","img/500/equaldotsize/L/11_Ratio_500_L_12_R_6.png","img/750/randomdotsizeEA/R/7_Ratio_750_L_3_R_4.png","img/500/equaldotanddens/R/12_Ratio_500_L_1_R_2.png","img/500/equaldotsize/L/11_Ratio_500_L_12_R_6.png","img/250/randomdotsizeEA/L/15_Ratio_250_L_12_R_3.png","img/900/equaldotsize/R/13_Ratio_900_L_18_R_20.png","img/750/randomdotsizeEA/L/8_Ratio_750_L_4_R_3.png","img/900/equaldotanddens/R/9_Ratio_900_L_18_R_20.png","img/250/equaldotanddens/L/15_Ratio_250_L_12_R_3.png","img/250/equaldotsize/R/8_Ratio_250_L_1_R_4.png","img/750/equaldotsize/R/15_Ratio_750_L_9_R_12.png","img/900/equaldotanddens/L/10_Ratio_900_L_20_R_18.png","img/750/equaldotanddens/L/13_Ratio_750_L_8_R_6.png","img/250/equaldotanddens/R/4_Ratio_250_L_3_R_12.png","img/250/equaldotsize/L/1_Ratio_250_L_8_R_2.png","img/500/randomdotsizeEA/L/7_Ratio_500_L_10_R_5.png","img/750/equaldotsize/R/5_Ratio_750_L_15_R_20.png","img/750/equaldotsize/L/6_Ratio_750_L_24_R_18.png","img/750/equaldotanddens/L/1_Ratio_750_L_20_R_15.png","img/900/equaldotsize/R/3_Ratio_900_L_9_R_10.png","img/250/equaldotanddens/R/9_Ratio_250_L_3_R_12.png","img/500/equaldotsize/R/15_Ratio_500_L_1_R_2.png","img/250/equaldotsize/R/10_Ratio_250_L_4_R_16.png","img/750/randomdotsizeEA/L/8_Ratio_750_L_4_R_3.png"],"Rat0":[["12_Ratio_0_L_9_R_0.png","13_Ratio_0_L_6_R_0.png","5_Ratio_0_L_2_R_0.png","6_Ratio_0_L_4_R_0.png","8_Ratio_0_L_6_R_0.png"],["1_Ratio_0_L_0_R_17.png","10_Ratio_0_L_0_R_22.png","11_Ratio_0_L_0_R_1.png","14_Ratio_0_L_0_R_24.png","15_Ratio_0_L_0_R_4.png","2_Ratio_0_L_0_R_5.png","3_Ratio_0_L_0_R_17.png","4_Ratio_0_L_0_R_7.png","7_Ratio_0_L_0_R_19.png","9_Ratio_0_L_0_R_15.png"]],"Rat250":[["1_Ratio_250_L_8_R_2.png","14_Ratio_250_L_12_R_3.png","15_Ratio_250_L_12_R_3.png","2_Ratio_250_L_16_R_4.png","3_Ratio_250_L_8_R_2.png","5_Ratio_250_L_24_R_6.png","7_Ratio_250_L_8_R_2.png"],["10_Ratio_250_L_4_R_16.png","11_Ratio_250_L_3_R_12.png","12_Ratio_250_L_5_R_20.png","13_Ratio_250_L_2_R_8.png","4_Ratio_250_L_3_R_12.png","6_Ratio_250_L_6_R_24.png","8_Ratio_250_L_1_R_4.png","9_Ratio_250_L_3_R_12.png"]],"Rat500":[["10_Ratio_500_L_4_R_2.png","11_Ratio_500_L_12_R_6.png","13_Ratio_500_L_12_R_6.png","4_Ratio_500_L_18_R_9.png","5_Ratio_500_L_4_R_2.png","7_Ratio_500_L_10_R_5.png","8_Ratio_500_L_8_R_4.png"],["1_Ratio_500_L_9_R_18.png","12_Ratio_500_L_1_R_2.png","14_Ratio_500_L_5_R_10.png","15_Ratio_500_L_1_R_2.png","2_Ratio_500_L_3_R_6.png","3_Ratio_500_L_10_R_20.png","6_Ratio_500_L_9_R_18.png","9_Ratio_500_L_2_R_4.png"]],"Rat750":[["1_Ratio_750_L_20_R_15.png","10_Ratio_750_L_4_R_3.png","13_Ratio_750_L_8_R_6.png","14_Ratio_750_L_8_R_6.png","6_Ratio_750_L_24_R_18.png","8_Ratio_750_L_4_R_3.png","9_Ratio_750_L_4_R_3.png"],["11_Ratio_750_L_12_R_16.png","12_Ratio_750_L_3_R_4.png","15_Ratio_750_L_9_R_12.png","2_Ratio_750_L_6_R_8.png","3_Ratio_750_L_15_R_20.png","4_Ratio_750_L_15_R_20.png","5_Ratio_750_L_15_R_20.png","7_Ratio_750_L_3_R_4.png"]],"Rat900":[["1_Ratio_900_L_10_R_9.png","10_Ratio_900_L_20_R_18.png","2_Ratio_900_L_20_R_18.png","4_Ratio_900_L_20_R_18.png","8_Ratio_900_L_20_R_18.png"],["11_Ratio_900_L_18_R_20.png","12_Ratio_900_L_18_R_20.png","13_Ratio_900_L_18_R_20.png","14_Ratio_900_L_18_R_20.png","15_Ratio_900_L_9_R_10.png","3_Ratio_900_L_9_R_10.png","5_Ratio_900_L_9_R_10.png","6_Ratio_900_L_9_R_10.png","7_Ratio_900_L_9_R_10.png","9_Ratio_900_L_18_R_20.png"]],"Rat1000":[["10_Ratio_1000_L_16_R_16.png","11_Ratio_1000_L_6_R_6.png","12_Ratio_1000_L_14_R_14.png","13_Ratio_1000_L_20_R_20.png","15_Ratio_1000_L_15_R_15.png","2_Ratio_1000_L_17_R_17.png","4_Ratio_1000_L_9_R_9.png","5_Ratio_1000_L_6_R_6.png","6_Ratio_1000_L_19_R_19.png","8_Ratio_1000_L_14_R_14.png","9_Ratio_1000_L_25_R_25.png"],["1_Ratio_1000_L_1_R_1.png","14_Ratio_1000_L_17_R_17.png","3_Ratio_1000_L_17_R_17.png","7_Ratio_1000_L_6_R_6.png"]]}},{"start_time":1551795404820,"click_time":1551795406176,"finger_time":1551795405554,"fix_duration":1163.1972212014489,"trial":1,"RT":734,"MT":622,"sideResp":2,"stimulus":"img/900/equaldotanddens/R/12_Ratio_900_L_18_R_20.png","xmouse":[656,656,656,656,656,656,656,656,656,656,656,656,656,656,656,656,656,656,656,656,656,656,656,656,656,656,656,656,656,656,656,656,656,658,698,717,761,789,839,903,949,974,1025,1046,1081,1083,1086,1088,1088,1088,1088,1088,1088,1080,1059,1046,1026,1015,1004,1003,1003,1003,1003,1003,1003,1002,997,989],"ymouse":[416,416,416,416,416,416,416,416,416,416,416,416,416,416,416,416,416,416,416,416,416,416,416,416,416,416,416,416,416,416,416,416,416,416,409,405,387,368,323,236,171,142,91,74,43,41,40,39,39,39,39,39,39,39,39,39,39,39,40,41,41,41,41,41,41,41,44,46],"timestamp_mouse":[15,37,55,75,95,115,135,155,175,195,215,235,255,275,295,315,335,355,375,395,415,435,455,475,495,515,535,555,575,595,615,635,655,674,695,715,734,755,775,795,815,835,854,875,895,915,935,954,975,995,1015,1035,1055,1074,1095,1115,1135,1155,1174,1195,1215,1235,1255,1275,1295,1315,1335,1355],"xSR":622,"ySR":352.3,"xT1":353.2,"yT1":0,"xT2":890.8,"yT2":0,"toosoon":0,"cond_shown":"equaldotanddens","ratio_trial":900,"smaller_num":"18","larger_num":"20","correct_side":2,"subjID":"javiercastro","gender":"0","age":"12","school":"6"},{"start_time":1551795408072,"click_time":1551795408875,"finger_time":1551795408695,"fix_duration":856.3928757053334,"trial":2,"RT":623,"MT":180,"sideResp":2,"stimulus":"img/750/equaldotsize/R/4_Ratio_750_L_15_R_20.png","xmouse":[663,663,663,663,663,663,663,663,663,663,663,663,663,663,663,663,663,663,663,663,663,663,663,663,663,663,663,663,663,664,678,701,719,754,783,877,893,919,926,937,949],"ymouse":[393,393,393,393,393,393,393,393,393,393,393,393,393,393,393,393,393,393,393,393,393,393,393,393,393,393,393,393,393,393,378,352,329,279,242,151,140,122,117,109,93],"timestamp_mouse":[3,22,42,63,82,103,123,142,162,182,202,222,242,263,283,302,323,342,363,383,403,423,443,463,483,503,523,543,563,583,602,623,642,663,683,703,722,742,763,783,803],"xSR":622,"ySR":352.3,"xT1":353.2,"yT1":0,"xT2":890.8,"yT2":0,"toosoon":0,"cond_shown":"equaldotsize","ratio_trial":750,"smaller_num":"15","larger_num":"20","correct_side":2,"subjID":"javiercastro","gender":"0","age":"12","school":"6"},{"start_time":1551795411461,"click_time":1551795412435,"finger_time":1551795412135,"fix_duration":1304.2279851342955,"trial":3,"RT":674,"MT":300,"sideResp":1,"stimulus":"img/500/randomdotsizeEA/L/4_Ratio_500_L_18_R_9.png","xmouse":[685,685,685,685,685,685,685,685,685,685,685,685,685,685,685,685,685,685,685,685,685,685,685,685,685,685,685,685,685,682,677,665,659,646,625,610,601,587,580,555,550,536,522,513,497,491,482,462,437],"ymouse":[390,390,390,390,390,390,390,390,390,390,390,390,390,390,390,390,390,390,390,390,390,390,390,390,390,390,390,390,389,385,379,366,359,342,309,283,263,229,214,163,154,137,120,113,102,99,95,84,73],"timestamp_mouse":[14,40,54,74,94,114,134,154,174,194,214,234,254,274,294,314,334,354,374,394,414,434,454,474,494,514,534,554,574,594,614,634,654,674,694,714,734,754,774,794,814,834,854,874,894,914,934,954,974],"xSR":622,"ySR":352.3,"xT1":353.2,"yT1":0,"xT2":890.8,"yT2":0,"toosoon":0,"cond_shown":"randomdotsizeEA","ratio_trial":500,"smaller_num":"9","larger_num":"18","correct_side":1,"subjID":"javiercastro","gender":"0","age":"12","school":"6"},{"start_time":1551795415903,"click_time":1551795416715,"finger_time":1551795416535,"fix_duration":1306.2937049630273,"trial":4,"RT":632,"MT":180,"sideResp":2,"stimulus":"img/250/randomdotsizeEA/R/9_Ratio_250_L_3_R_12.png","xmouse":[667,667,667,667,667,667,667,667,667,667,667,667,667,667,667,667,667,668,670,672,674,683,691,692,694,694,694,695,695,698,701,721,740,759,771,794,814,846,856,877,894],"ymouse":[421,421,421,421,421,421,421,421,421,421,421,421,421,421,421,421,421,419,416,415,413,406,395,392,389,386,382,381,380,371,362,316,276,241,224,199,174,141,130,113,99],"timestamp_mouse":[12,32,52,72,92,112,132,152,172,192,212,232,252,272,292,312,332,352,372,392,412,432,452,472,492,512,532,552,572,592,612,632,652,672,692,712,732,752,772,792,812],"xSR":622,"ySR":352.3,"xT1":353.2,"yT1":0,"xT2":890.8,"yT2":0,"toosoon":0,"cond_shown":"randomdotsizeEA","ratio_trial":250,"smaller_num":"3","larger_num":"12","correct_side":2,"subjID":"javiercastro","gender":"0","age":"12","school":"6"},{"start_time":1551795418760,"click_time":1551795419835,"finger_time":1551795419375,"fix_duration":963.0109559270195,"trial":5,"RT":615,"MT":460,"sideResp":2,"stimulus":"img/900/equaldotsize/L/4_Ratio_900_L_20_R_18.png","xmouse":[644,644,644,644,644,644,644,644,644,644,644,644,644,644,644,644,644,644,644,644,644,644,644,644,644,644,644,665,677,703,721,728,741,750,755,766,777,796,801,815,834,848,895,920,936,942,946,951,955,955,957,957,959,959],"ymouse":[413,413,413,413,413,413,413,413,413,413,413,413,413,413,413,413,413,413,413,413,413,413,413,413,413,413,412,392,383,364,351,346,332,318,311,292,273,247,240,225,210,202,183,173,162,157,151,141,134,133,125,122,103,96],"timestamp_mouse":[15,35,55,75,95,115,135,155,175,195,215,235,255,275,295,315,335,355,375,395,415,435,455,475,495,515,535,555,575,595,615,635,655,675,695,715,735,755,775,795,815,835,855,875,895,915,935,955,975,995,1015,1035,1055,1075],"xSR":622,"ySR":352.3,"xT1":353.2,"yT1":0,"xT2":890.8,"yT2":0,"toosoon":0,"cond_shown":"equaldotsize","ratio_trial":900,"smaller_num":"18","larger_num":"20","correct_side":1,"subjID":"javiercastro","gender":"0","age":"12","school":"6"},{"start_time":1551795422929,"click_time":1551795423655,"finger_time":1551795423595,"fix_duration":392.1384346560059,"trial":6,"RT":666,"MT":60,"sideResp":1,"stimulus":"img/250/randomdotsizeEA/L/2_Ratio_250_L_16_R_4.png","xmouse":[670,670,670,670,670,670,670,670,670,670,670,670,670,670,670,670,670,670,670,670,670,670,670,670,670,670,670,670,670,670,670,669,658,567,522,442,398],"ymouse":[404,404,404,404,404,404,404,404,404,404,404,404,404,404,404,404,404,404,404,404,404,404,404,404,404,404,404,404,404,404,405,405,384,246,190,104,42],"timestamp_mouse":[8,26,46,66,86,106,126,146,166,186,206,226,246,266,286,306,326,346,366,386,406,426,446,466,486,506,526,546,566,586,606,626,646,666,686,706,726],"xSR":622,"ySR":352.3,"xT1":353.2,"yT1":0,"xT2":890.8,"yT2":0,"toosoon":0,"cond_shown":"randomdotsizeEA","ratio_trial":250,"smaller_num":"4","larger_num":"16","correct_side":1,"subjID":"javiercastro","gender":"0","age":"12","school":"6"},{"start_time":1551795425157,"click_time":1551795426195,"finger_time":1551795425735,"fix_duration":440.13029166613927,"trial":7,"RT":578,"MT":460,"sideResp":2,"stimulus":"img/900/equaldotsize/R/7_Ratio_900_L_9_R_10.png","xmouse":[655,655,655,655,655,655,655,655,655,655,655,655,655,655,655,655,655,655,655,655,655,655,655,658,663,665,670,674,695,703,723,736,764,810,829,837,850,859,874,879,884,886,888,888,888,888,888,888,888,888,890,893],"ymouse":[388,388,388,388,388,388,388,388,388,388,388,388,388,388,388,388,388,388,388,388,388,388,388,388,384,381,373,368,340,331,309,294,261,203,176,161,138,117,83,66,44,34,16,11,11,11,11,11,11,14,25,38],"timestamp_mouse":[18,37,58,79,98,118,138,158,178,198,218,238,258,278,298,318,338,358,378,398,418,438,458,478,498,518,538,558,578,598,618,638,658,678,698,718,738,758,778,798,818,838,858,878,898,918,938,958,977,998,1018,1038],"xSR":622,"ySR":352.3,"xT1":353.2,"yT1":0,"xT2":890.8,"yT2":0,"toosoon":0,"cond_shown":"equaldotsize","ratio_trial":900,"smaller_num":"9","larger_num":"10","correct_side":2,"subjID":"javiercastro","gender":"0","age":"12","school":"6"},{"start_time":1551795427864,"click_time":1551795428955,"finger_time":1551795428494,"fix_duration":827.7930948303643,"trial":8,"RT":630,"MT":461,"sideResp":1,"stimulus":"img/750/equaldotsize/L/1_Ratio_750_L_20_R_15.png","xmouse":[677,677,677,677,677,677,677,677,677,677,677,677,677,677,677,677,677,677,677,677,677,677,678,678,678,678,675,673,664,659,644,622,608,602,587,578,561,554,531,504,493,457,438,407,395,370,349,345,344,344,344,344,344,351,357],"ymouse":[431,431,431,431,431,431,431,431,431,431,431,431,431,431,431,431,431,431,431,431,431,431,430,430,427,422,416,413,399,392,371,344,327,318,300,289,269,261,242,222,213,188,173,149,141,123,107,104,103,103,103,103,100,97,94],"timestamp_mouse":[25,31,51,71,91,111,131,151,171,191,211,231,251,271,291,311,331,351,371,391,411,431,451,471,491,511,531,551,571,591,611,630,651,671,691,711,731,751,771,791,811,831,851,871,891,911,931,951,971,991,1011,1031,1051,1071,1091],"xSR":622,"ySR":352.3,"xT1":353.2,"yT1":0,"xT2":890.8,"yT2":0,"toosoon":0,"cond_shown":"equaldotsize","ratio_trial":750,"smaller_num":"15","larger_num":"20","correct_side":1,"subjID":"javiercastro","gender":"0","age":"12","school":"6"},{"start_time":1551795430040,"click_time":1551795430755,"finger_time":1551795430654,"fix_duration":264.07830460871105,"trial":9,"RT":614,"MT":101,"sideResp":2,"stimulus":"img/250/equaldotsize/R/12_Ratio_250_L_5_R_20.png","xmouse":[654,654,654,654,654,654,654,654,654,654,654,658,661,662,662,662,662,662,662,662,662,662,662,662,662,662,662,669,678,695,701,725,750,769,823,927],"ymouse":[385,385,385,385,385,385,385,385,385,385,385,385,385,384,384,384,384,384,384,384,384,384,384,384,384,384,384,383,382,365,350,302,259,231,155,54],"timestamp_mouse":[15,38,54,74,94,115,134,155,174,194,215,235,254,274,294,315,334,354,374,394,414,434,454,474,494,514,534,554,575,594,614,634,654,674,695,714],"xSR":622,"ySR":352.3,"xT1":353.2,"yT1":0,"xT2":890.8,"yT2":0,"toosoon":0,"cond_shown":"equaldotsize","ratio_trial":250,"smaller_num":"5","larger_num":"20","correct_side":2,"subjID":"javiercastro","gender":"0","age":"12","school":"6"},{"start_time":1551795432031,"click_time":1551795432738,"finger_time":1551795432578,"fix_duration":251.90011411974822,"trial":10,"RT":547,"MT":160,"sideResp":1,"stimulus":"img/250/equaldotanddens/L/1_Ratio_250_L_8_R_2.png","xmouse":[710,710,710,710,710,710,710,710,710,710,710,710,710,710,710,710,710,710,710,710,710,710,710,710,710,680,645,568,547,511,494,465,447,426,420,407],"ymouse":[415,415,415,415,415,415,415,415,415,415,415,415,415,415,415,415,415,415,415,415,415,415,415,415,415,410,394,336,316,279,258,214,177,133,117,87],"timestamp_mouse":[8,27,47,67,87,107,127,147,167,187,207,227,247,267,287,307,327,347,367,387,407,427,447,467,487,507,527,547,567,588,607,627,647,667,687,707],"xSR":622,"ySR":352.3,"xT1":353.2,"yT1":0,"xT2":890.8,"yT2":0,"toosoon":0,"cond_shown":"equaldotanddens","ratio_trial":250,"smaller_num":"2","larger_num":"8","correct_side":1,"subjID":"javiercastro","gender":"0","age":"12","school":"6"},{"start_time":1551795435170,"click_time":1551795436099,"finger_time":1551795435698,"fix_duration":250,"trial":11,"RT":528,"MT":401,"sideResp":1,"stimulus":"img/500/equaldotanddens/L/10_Ratio_500_L_4_R_2.png","xmouse":[686,686,686,686,686,686,686,686,686,686,686,686,686,686,686,686,686,686,686,686,676,664,653,652,641,631,621,617,597,571,553,541,522,516,504,501,494,488,477,468,468,467,464,462,457,456,451],"ymouse":[415,415,415,415,415,415,415,415,415,415,415,415,415,415,415,415,415,415,415,415,412,403,394,392,378,361,342,328,284,205,151,125,83,70,47,42,33,26,16,11,11,11,11,12,14,14,17],"timestamp_mouse":[8,30,48,68,88,108,128,148,168,188,208,228,248,268,288,308,328,348,368,388,408,428,449,468,488,508,528,548,569,588,608,628,648,668,688,708,728,748,768,788,808,828,848,868,888,908,928],"xSR":622,"ySR":352.3,"xT1":353.2,"yT1":0,"xT2":890.8,"yT2":0,"toosoon":0,"cond_shown":"equaldotanddens","ratio_trial":500,"smaller_num":"2","larger_num":"4","correct_side":1,"subjID":"javiercastro","gender":"0","age":"12","school":"6"},{"start_time":1551795439418,"click_time":1551795440039,"finger_time":1551795439779,"fix_duration":1018.8899642420863,"trial":12,"RT":361,"MT":260,"sideResp":2,"stimulus":"img/250/equaldotanddens/R/4_Ratio_250_L_3_R_12.png","xmouse":[637,637,637,637,637,637,637,637,637,637,637,637,637,639,639,640,641,641,643,650,658,694,724,744,778,796,824,833,856,876,888,919],"ymouse":[410,410,410,410,410,410,410,410,410,410,410,410,410,408,399,381,362,354,334,311,292,232,189,166,133,116,95,88,72,57,49,27],"timestamp_mouse":[7,31,40,61,81,101,121,141,161,181,201,221,241,261,281,301,321,341,361,381,401,420,441,461,481,501,521,540,561,581,601,620],"xSR":622,"ySR":352.3,"xT1":353.2,"yT1":0,"xT2":890.8,"yT2":0,"toosoon":0,"cond_shown":"equaldotanddens","ratio_trial":250,"smaller_num":"3","larger_num":"12","correct_side":2,"subjID":"javiercastro","gender":"0","age":"12","school":"6"},{"start_time":1551795443909,"click_time":1551795445259,"finger_time":1551795444739,"fix_duration":1428.0672900684256,"trial":13,"RT":830,"MT":520,"sideResp":1,"stimulus":"img/500/randomdotsizeEA/L/10_Ratio_500_L_4_R_2.png","xmouse":[674,674,674,674,674,674,674,674,674,674,674,674,674,674,674,674,674,674,674,674,674,674,674,674,674,674,674,674,674,674,674,674,674,674,674,674,674,674,674,674,671,587,478,429,319,271,197,196,195,195,195,201,215,221,236,246,309,324,343,345,345,345,345,345,345,345,353,358],"ymouse":[424,424,424,424,424,424,424,424,424,424,424,424,424,424,424,424,424,424,424,424,424,424,424,424,424,424,424,424,424,424,424,424,424,424,424,424,424,424,424,424,416,368,305,276,208,173,83,74,62,62,61,54,47,46,41,39,37,39,45,47,47,47,47,47,47,47,47,48],"timestamp_mouse":[10,37,50,70,90,110,130,150,170,190,210,230,250,270,290,310,330,350,370,390,410,430,450,470,490,510,530,550,570,590,610,630,650,670,690,710,730,750,770,790,810,830,850,870,890,910,929,949,970,990,1010,1030,1050,1070,1090,1110,1130,1150,1170,1190,1210,1229,1250,1270,1290,1310,1331,1349],"xSR":622,"ySR":352.3,"xT1":353.2,"yT1":0,"xT2":890.8,"yT2":0,"toosoon":0,"cond_shown":"randomdotsizeEA","ratio_trial":500,"smaller_num":"2","larger_num":"4","correct_side":1,"subjID":"javiercastro","gender":"0","age":"12","school":"6"},{"start_time":1551795446168,"click_time":1551795447019,"finger_time":1551795446939,"fix_duration":327.4796123924384,"trial":14,"RT":771,"MT":80,"sideResp":1,"stimulus":"img/250/randomdotsizeEA/L/14_Ratio_250_L_12_R_3.png","xmouse":[669,669,669,669,669,669,669,669,669,669,669,669,669,669,669,669,669,669,669,669,669,669,669,669,669,669,669,669,669,669,669,669,669,669,669,669,669,662,627,602,490,412,374],"ymouse":[373,373,373,373,373,373,373,373,373,373,373,373,373,373,373,373,373,373,373,373,373,373,373,373,373,373,373,373,373,373,373,373,373,373,373,373,373,365,321,295,195,121,87],"timestamp_mouse":[11,38,51,71,91,111,131,151,171,191,211,231,251,271,291,311,331,351,371,391,411,431,451,471,491,511,531,551,571,591,611,631,651,671,691,711,731,750,771,791,811,831,851],"xSR":622,"ySR":352.3,"xT1":353.2,"yT1":0,"xT2":890.8,"yT2":0,"toosoon":0,"cond_shown":"randomdotsizeEA","ratio_trial":250,"smaller_num":"3","larger_num":"12","correct_side":1,"subjID":"javiercastro","gender":"0","age":"12","school":"6"},{"start_time":1551795449370,"click_time":1551795450140,"finger_time":1551795450059,"fix_duration":250,"trial":15,"RT":689,"MT":81,"sideResp":1,"stimulus":"img/250/equaldotanddens/L/2_Ratio_250_L_16_R_4.png","xmouse":[701,701,701,701,701,701,701,701,701,701,701,701,701,701,701,701,701,701,701,701,701,701,701,701,701,701,701,701,701,701,701,699,692,641,532,496,448,434,426],"ymouse":[414,414,414,414,414,414,414,414,414,414,414,414,414,414,414,414,414,414,414,414,414,414,414,414,414,414,414,414,414,414,414,413,406,366,273,235,168,126,77],"timestamp_mouse":[16,29,49,69,89,109,129,149,169,189,209,229,249,269,289,309,329,349,369,389,409,429,449,469,489,509,529,549,569,589,609,629,649,669,689,709,729,749,770],"xSR":622,"ySR":352.3,"xT1":353.2,"yT1":0,"xT2":890.8,"yT2":0,"toosoon":0,"cond_shown":"equaldotanddens","ratio_trial":250,"smaller_num":"4","larger_num":"16","correct_side":1,"subjID":"javiercastro","gender":"0","age":"12","school":"6"},{"start_time":1551795451289,"click_time":1551795452199,"finger_time":1551795452099,"fix_duration":368.3612696858962,"trial":16,"RT":810,"MT":100,"sideResp":2,"stimulus":"img/900/randomdotsizeEA/L/1_Ratio_900_L_10_R_9.png","xmouse":[646,646,646,646,646,646,646,646,646,646,646,646,646,646,646,646,646,646,646,646,646,646,646,646,646,646,646,646,646,646,646,646,646,646,646,646,646,657,682,704,776,826,846,882,895,931],"ymouse":[396,396,396,396,396,396,396,396,396,396,396,396,396,396,396,396,396,396,396,396,396,396,396,396,396,396,396,396,396,396,396,396,396,396,396,396,396,390,375,359,302,251,227,181,162,98],"timestamp_mouse":[9,35,50,70,90,110,130,150,170,190,210,230,250,270,290,310,330,350,370,390,410,430,450,470,490,510,530,550,570,590,610,630,650,670,690,710,730,750,770,790,810,830,850,870,890,910],"xSR":622,"ySR":352.3,"xT1":353.2,"yT1":0,"xT2":890.8,"yT2":0,"toosoon":0,"cond_shown":"randomdotsizeEA","ratio_trial":900,"smaller_num":"9","larger_num":"10","correct_side":1,"subjID":"javiercastro","gender":"0","age":"12","school":"6"},{"start_time":1551795453736,"click_time":1551795454538,"finger_time":1551795454378,"fix_duration":815.5415581917326,"trial":17,"RT":642,"MT":160,"sideResp":1,"stimulus":"img/900/equaldotanddens/R/3_Ratio_900_L_9_R_10.png","xmouse":[709,709,709,709,709,709,709,709,709,709,709,709,709,709,709,709,709,709,709,709,709,709,709,709,709,709,709,709,709,706,693,672,659,633,605,563,548,518,486,468,435],"ymouse":[400,400,400,400,400,400,400,400,400,400,400,400,400,400,400,400,400,400,400,400,400,400,400,400,400,400,400,400,400,400,383,360,347,321,290,233,215,173,134,111,71],"timestamp_mouse":[8,29,42,63,83,111,122,143,162,182,202,222,243,262,282,302,323,343,362,382,402,422,442,462,482,502,522,542,562,582,602,622,642,662,682,702,723,742,762,782,802],"xSR":622,"ySR":352.3,"xT1":353.2,"yT1":0,"xT2":890.8,"yT2":0,"toosoon":0,"cond_shown":"equaldotanddens","ratio_trial":900,"smaller_num":"9","larger_num":"10","correct_side":2,"subjID":"javiercastro","gender":"0","age":"12","school":"6"},{"start_time":1551795456527,"click_time":1551795457619,"finger_time":1551795457318,"fix_duration":1267.0384479207612,"trial":18,"RT":791,"MT":301,"sideResp":1,"stimulus":"img/500/equaldotanddens/L/11_Ratio_500_L_12_R_6.png","xmouse":[668,668,668,668,668,668,668,668,668,668,668,668,668,668,668,668,668,668,668,668,668,668,668,668,668,668,668,668,668,668,668,668,668,668,668,668,668,662,654,618,593,577,551,526,514,511,509,509,509,508,508,508,508,498,453],"ymouse":[418,418,418,418,418,418,418,418,418,418,418,418,418,418,418,418,418,418,418,418,418,418,418,418,418,418,418,418,418,418,418,418,418,418,418,418,401,381,363,277,218,189,140,98,81,77,75,74,74,74,74,74,74,71,56],"timestamp_mouse":[11,32,52,71,91,111,131,151,171,191,211,231,251,271,291,311,331,351,371,391,411,431,451,471,491,511,531,551,571,591,611,631,651,671,691,711,731,751,771,791,811,831,851,871,891,911,931,951,971,991,1011,1031,1051,1071,1091],"xSR":622,"ySR":352.3,"xT1":353.2,"yT1":0,"xT2":890.8,"yT2":0,"toosoon":0,"cond_shown":"equaldotanddens","ratio_trial":500,"smaller_num":"6","larger_num":"12","correct_side":1,"subjID":"javiercastro","gender":"0","age":"12","school":"6"},{"start_time":1551795459542,"click_time":1551795460579,"finger_time":1551795460358,"fix_duration":1202.089301004267,"trial":19,"RT":816,"MT":221,"sideResp":1,"stimulus":"img/250/equaldotsize/L/15_Ratio_250_L_12_R_3.png","xmouse":[697,697,697,697,697,697,697,697,697,697,697,697,697,697,697,697,697,697,697,697,697,697,697,697,697,697,697,697,697,697,697,697,697,697,697,697,697,688,672,661,642,640,638,635,626,602,548,534,506,477,462,417],"ymouse":[399,399,399,399,399,399,399,399,399,399,399,399,399,399,399,399,399,399,399,399,399,399,399,399,399,399,399,399,399,399,399,399,399,399,399,399,399,390,372,362,336,329,312,302,280,243,183,166,137,101,84,35],"timestamp_mouse":[26,36,56,77,96,116,136,156,176,196,216,236,256,276,296,316,336,356,376,396,416,436,456,476,496,516,536,556,576,596,616,636,656,676,697,716,736,756,776,796,816,836,856,876,896,916,936,956,976,996,1016,1036],"xSR":622,"ySR":352.3,"xT1":353.2,"yT1":0,"xT2":890.8,"yT2":0,"toosoon":0,"cond_shown":"equaldotsize","ratio_trial":250,"smaller_num":"3","larger_num":"12","correct_side":1,"subjID":"javiercastro","gender":"0","age":"12","school":"6"},{"start_time":1551795461839,"click_time":1551795462839,"finger_time":1551795462539,"fix_duration":620.3360237138293,"trial":20,"RT":700,"MT":300,"sideResp":1,"stimulus":"img/500/equaldotanddens/L/13_Ratio_500_L_12_R_6.png","xmouse":[661,661,661,661,661,661,661,661,661,661,661,661,661,661,661,661,661,661,661,661,661,661,661,661,661,661,661,661,661,661,661,661,661,659,637,629,613,605,571,540,508,497,474,448,440,439,437,436,416,406],"ymouse":[378,378,378,378,378,378,378,378,378,378,378,378,378,378,378,378,378,378,378,378,378,378,378,378,378,378,378,378,378,378,378,378,378,373,339,329,305,295,249,211,173,160,138,117,112,112,111,111,104,98],"timestamp_mouse":[20,40,59,79,99,119,139,159,179,199,219,239,259,279,300,319,339,359,379,400,420,439,460,480,500,520,540,560,580,600,620,640,660,679,700,720,740,760,780,800,819,840,860,880,900,920,940,960,980,999],"xSR":622,"ySR":352.3,"xT1":353.2,"yT1":0,"xT2":890.8,"yT2":0,"toosoon":0,"cond_shown":"equaldotanddens","ratio_trial":500,"smaller_num":"6","larger_num":"12","correct_side":1,"subjID":"javiercastro","gender":"0","age":"12","school":"6"},{"start_time":1551795464406,"click_time":1551795465359,"finger_time":1551795465059,"fix_duration":1006.0354577863079,"trial":21,"RT":653,"MT":300,"sideResp":2,"stimulus":"img/250/equaldotsize/R/12_Ratio_250_L_5_R_20.png","xmouse":[711,711,711,711,711,711,711,711,711,711,711,711,711,711,711,711,711,711,711,711,711,711,711,711,711,711,711,711,711,711,711,713,726,789,821,837,855,867,873,875,876,878,879,882,885,888,890,894],"ymouse":[427,427,427,427,427,427,427,427,427,427,427,427,427,427,427,427,427,427,427,427,427,427,427,427,427,427,427,427,427,427,427,423,411,361,323,301,259,215,170,162,147,136,133,119,104,86,78,63],"timestamp_mouse":[13,33,53,73,93,113,133,153,173,193,213,233,253,273,293,313,333,353,373,393,413,433,453,473,493,513,533,553,573,593,613,633,653,673,692,713,733,753,773,793,813,833,853,873,893,913,933,953],"xSR":622,"ySR":352.3,"xT1":353.2,"yT1":0,"xT2":890.8,"yT2":0,"toosoon":0,"cond_shown":"equaldotsize","ratio_trial":250,"smaller_num":"5","larger_num":"20","correct_side":2,"subjID":"javiercastro","gender":"0","age":"12","school":"6"},{"start_time":1551795466969,"click_time":1551795470519,"finger_time":1551795467619,"fix_duration":729.118241472241,"trial":22,"RT":650,"MT":2900,"sideResp":2,"stimulus":"img/750/equaldotsize/R/11_Ratio_750_L_12_R_16.png","xmouse":[660,660,660,660,660,660,660,660,660,660,660,660,660,660,660,660,660,660,660,660,660,660,660,660,660,660,660,662,664,670,677,702,736,772,790,827,861,890,895,895,895,895,895,895,895,895,895,895,895,895,895,895,895,895,895,895,895,895,895,895,895,895,895,895,895,895,895,895,895,895,895,895,895,895,895,893,890,860,787,762,701,653,642,615,596,574,562,541,509,499,483,476,476,476,474,474,474,473,473,473,473,473,473,473,473,473,473,473,473,492,508,538,552,582,639,687,708,749,786,795,795,795,795,795,795,796,796,796,796,797,797,798,799,800,801,801,801,798,767,694,635,633,633,633,633,633,633,633,633,633,633,633,633,633,634,636,648,668,742,853,1029,1063,1096,1108,1115,1129,1133,1135,1135,1135,1135,1135,1135,1135,1128,1094,1041,974],"ymouse":[419,419,419,419,419,419,419,419,419,419,419,419,419,419,419,419,419,419,419,419,419,419,419,419,419,419,419,410,403,392,386,370,339,289,263,215,176,139,133,132,132,132,132,132,131,131,131,131,130,129,129,129,129,129,129,129,129,129,129,129,129,129,129,129,129,129,129,129,129,129,129,129,129,129,129,129,129,134,142,142,136,122,118,107,99,90,85,80,71,68,66,66,66,66,66,66,66,66,66,66,66,66,66,66,66,66,66,66,66,66,66,63,60,55,47,39,36,33,33,33,33,33,33,33,33,34,34,34,34,35,35,36,38,39,41,43,44,51,72,114,153,156,156,156,156,156,156,156,156,156,156,156,156,156,151,150,143,137,121,102,61,50,39,34,32,28,27,26,26,26,26,26,26,26,26,26,26,26],"timestamp_mouse":[10,31,60,70,90,110,130,150,170,190,210,230,250,270,290,310,330,350,370,390,410,430,450,470,490,510,530,550,570,590,610,630,650,670,690,710,730,750,770,790,810,830,850,870,890,910,930,950,970,990,1010,1030,1050,1070,1090,1110,1130,1150,1170,1190,1210,1229,1251,1270,1290,1310,1330,1350,1370,1390,1410,1430,1450,1470,1490,1510,1530,1550,1570,1590,1610,1630,1650,1670,1690,1710,1730,1750,1770,1790,1810,1830,1850,1870,1890,1910,1930,1950,1970,1990,2010,2030,2050,2070,2090,2110,2130,2150,2170,2190,2210,2230,2250,2270,2290,2310,2330,2350,2370,2390,2410,2430,2450,2470,2490,2510,2530,2550,2570,2590,2610,2630,2650,2670,2690,2710,2730,2750,2770,2790,2810,2830,2850,2870,2889,2910,2930,2950,2970,2990,3010,3030,3050,3070,3090,3110,3130,3150,3170,3190,3210,3230,3250,3270,3290,3310,3330,3350,3370,3390,3410,3430,3450,3470,3490,3509,3530,3550],"xSR":622,"ySR":352.3,"xT1":353.2,"yT1":0,"xT2":890.8,"yT2":0,"toosoon":0,"cond_shown":"equaldotsize","ratio_trial":750,"smaller_num":"12","larger_num":"16","correct_side":2,"subjID":"javiercastro","gender":"0","age":"12","school":"6"},{"start_time":1551795472978,"click_time":1551795474379,"finger_time":1551795474019,"fix_duration":1477.6039430438325,"trial":23,"RT":1041,"MT":360,"sideResp":2,"stimulus":"img/500/randomdotsizeEA/R/14_Ratio_500_L_5_R_10.png","xmouse":[677,677,677,677,677,677,677,677,677,677,677,677,677,677,677,677,677,677,677,677,677,677,677,677,677,677,677,677,677,677,677,677,677,677,677,677,677,677,677,677,677,677,677,677,677,677,677,677,677,677,677,685,694,705,756,769,799,812,830,854,868,876,890,897,916,922,933,937,944,953,956],"ymouse":[372,372,372,372,372,372,372,372,372,372,372,372,372,372,372,372,372,372,372,372,372,372,372,372,372,372,372,372,372,372,372,372,372,372,372,372,372,372,372,372,372,372,372,372,372,372,372,372,372,372,372,359,350,341,288,274,248,237,218,191,174,165,155,150,137,134,128,125,120,108,97],"timestamp_mouse":[6,21,41,61,81,101,121,141,161,181,201,221,241,261,281,301,321,341,361,381,401,421,441,461,481,501,521,541,561,581,601,621,641,661,681,701,721,741,761,781,801,821,841,861,881,901,921,941,961,981,1001,1021,1041,1061,1081,1101,1121,1141,1161,1181,1201,1221,1241,1261,1281,1301,1320,1341,1361,1380,1401],"xSR":622,"ySR":352.3,"xT1":353.2,"yT1":0,"xT2":890.8,"yT2":0,"toosoon":0,"cond_shown":"randomdotsizeEA","ratio_trial":500,"smaller_num":"5","larger_num":"10","correct_side":2,"subjID":"javiercastro","gender":"0","age":"12","school":"6"},{"start_time":1551795477352,"click_time":1551795478139,"finger_time":1551795477978,"fix_duration":531.493867740884,"trial":24,"RT":626,"MT":161,"sideResp":1,"stimulus":"img/500/equaldotsize/L/13_Ratio_500_L_12_R_6.png","xmouse":[717,717,715,705,677,673,672,671,670,667,667,667,667,667,667,667,665,662,659,654,653,653,653,649,643,643,643,644,644,641,636,613,589,538,502,479,445,428,397,373],"ymouse":[430,430,429,429,429,429,429,429,429,429,429,429,429,429,429,429,429,429,429,428,427,427,427,425,423,421,417,403,388,366,357,326,304,265,232,202,164,145,113,91],"timestamp_mouse":[7,28,47,66,86,107,126,146,166,187,207,227,247,266,287,307,326,346,366,386,407,427,446,466,486,506,527,546,566,586,606,626,646,667,686,707,726,746,766,786],"xSR":622,"ySR":352.3,"xT1":353.2,"yT1":0,"xT2":890.8,"yT2":0,"toosoon":0,"cond_shown":"equaldotsize","ratio_trial":500,"smaller_num":"6","larger_num":"12","correct_side":1,"subjID":"javiercastro","gender":"0","age":"12","school":"6"},{"start_time":1551795481526,"click_time":1551795482378,"finger_time":1551795482319,"fix_duration":1086.1389870987832,"trial":25,"RT":793,"MT":59,"sideResp":1,"stimulus":"img/500/equaldotsize/L/11_Ratio_500_L_12_R_6.png","xmouse":[667,667,667,667,667,667,667,667,667,667,667,667,667,667,667,667,667,667,667,667,667,667,667,667,667,667,667,667,667,667,667,667,667,667,667,667,667,661,648,584,526,464,440],"ymouse":[409,409,409,409,409,409,409,409,409,409,409,409,409,409,409,409,409,409,409,409,409,409,409,409,409,409,409,409,409,409,409,409,409,409,409,409,409,401,383,284,198,116,85],"timestamp_mouse":[12,36,52,72,92,112,132,152,172,192,212,232,252,272,292,312,332,352,372,392,412,432,452,472,492,512,532,552,572,592,612,632,652,672,692,712,732,752,772,793,812,832,852],"xSR":622,"ySR":352.3,"xT1":353.2,"yT1":0,"xT2":890.8,"yT2":0,"toosoon":0,"cond_shown":"equaldotsize","ratio_trial":500,"smaller_num":"6","larger_num":"12","correct_side":1,"subjID":"javiercastro","gender":"0","age":"12","school":"6"},{"start_time":1551795483834,"click_time":1551795484719,"finger_time":1551795484478,"fix_duration":834.8635971373403,"trial":26,"RT":644,"MT":241,"sideResp":2,"stimulus":"img/250/equaldotanddens/R/9_Ratio_250_L_3_R_12.png","xmouse":[681,681,681,681,681,681,681,681,681,681,681,681,681,681,681,681,681,681,681,681,681,681,681,681,681,681,681,681,681,681,681,687,758,795,868,902,952,981,987,987,987,988,988,988,988],"ymouse":[419,419,419,419,419,419,419,419,419,419,419,419,419,419,419,419,419,419,419,419,419,419,419,419,419,419,419,419,419,419,419,402,334,305,251,227,180,138,122,118,115,112,103,100,89],"timestamp_mouse":[8,37,44,64,84,104,124,144,164,184,204,224,244,264,284,305,325,344,364,384,405,424,444,464,484,504,524,544,564,584,604,624,644,664,684,704,724,744,764,785,804,824,844,864,884],"xSR":622,"ySR":352.3,"xT1":353.2,"yT1":0,"xT2":890.8,"yT2":0,"toosoon":0,"cond_shown":"equaldotanddens","ratio_trial":250,"smaller_num":"3","larger_num":"12","correct_side":2,"subjID":"javiercastro","gender":"0","age":"12","school":"6"},{"start_time":1551795486614,"click_time":1551795487459,"finger_time":1551795487319,"fix_duration":994.4439445892192,"trial":27,"RT":705,"MT":140,"sideResp":1,"stimulus":"img/250/equaldotsize/L/14_Ratio_250_L_12_R_3.png","xmouse":[651,651,651,651,651,651,651,651,651,651,651,651,651,651,651,651,651,651,651,651,651,651,651,651,651,651,651,651,651,651,651,651,651,646,628,576,487,456,402,385,370,360,357],"ymouse":[415,415,415,415,415,415,415,415,415,415,415,415,415,415,415,415,415,415,415,415,415,415,415,415,415,415,415,415,415,415,415,415,415,407,385,333,256,233,179,161,137,108,93],"timestamp_mouse":[8,32,45,65,85,105,125,145,165,185,205,225,245,265,285,305,325,345,365,385,405,425,445,465,485,505,525,545,565,585,605,625,645,665,685,705,725,745,765,785,805,825,845],"xSR":622,"ySR":352.3,"xT1":353.2,"yT1":0,"xT2":890.8,"yT2":0,"toosoon":0,"cond_shown":"equaldotsize","ratio_trial":250,"smaller_num":"3","larger_num":"12","correct_side":1,"subjID":"javiercastro","gender":"0","age":"12","school":"6"},{"start_time":1551795489811,"click_time":1551795490959,"finger_time":1551795490579,"fix_duration":250,"trial":28,"RT":768,"MT":380,"sideResp":2,"stimulus":"img/250/randomdotsizeEA/R/12_Ratio_250_L_5_R_20.png","xmouse":[676,676,676,676,676,676,676,676,676,676,676,676,676,676,676,676,676,676,676,676,676,676,676,676,676,676,676,676,676,676,676,676,676,676,676,675,675,676,686,741,816,857,857,857,857,857,857,857,857,857,857,857,857,857,857,857,857,957],"ymouse":[409,409,409,409,409,409,409,409,409,409,409,409,409,409,409,409,409,409,409,409,409,409,409,409,409,409,409,409,409,409,409,409,409,409,409,406,394,382,329,198,85,24,24,24,24,24,24,24,24,24,24,24,24,24,24,24,24,8],"timestamp_mouse":[15,33,48,68,88,108,128,148,168,188,208,228,248,268,288,308,334,348,368,388,408,428,448,468,488,508,528,548,568,588,608,628,648,668,688,708,728,748,768,788,808,828,848,868,888,908,928,948,968,988,1008,1028,1048,1068,1088,1108,1128,1148],"xSR":622,"ySR":352.3,"xT1":353.2,"yT1":0,"xT2":890.8,"yT2":0,"toosoon":0,"cond_shown":"randomdotsizeEA","ratio_trial":250,"smaller_num":"5","larger_num":"20","correct_side":2,"subjID":"javiercastro","gender":"0","age":"12","school":"6"},{"start_time":1551795493912,"click_time":1551795494742,"finger_time":1551795494642,"fix_duration":549.0435467856596,"trial":29,"RT":730,"MT":100,"sideResp":1,"stimulus":"img/900/randomdotsizeEA/R/11_Ratio_900_L_18_R_20.png","xmouse":[674,674,674,674,674,674,674,674,674,674,674,674,674,674,674,674,674,674,674,674,674,674,674,674,674,674,674,674,674,674,674,674,674,674,674,674,661,641,563,527,465,415],"ymouse":[412,412,412,412,412,412,412,412,412,412,412,412,412,412,412,412,412,412,412,412,412,412,412,412,412,412,412,412,412,412,412,412,412,412,412,412,341,296,174,137,75,30],"timestamp_mouse":[9,29,50,69,89,109,129,149,169,189,209,229,249,269,289,309,329,349,369,389,409,429,449,469,489,510,529,549,570,590,610,630,650,669,689,710,730,750,770,789,810,830],"xSR":622,"ySR":352.3,"xT1":353.2,"yT1":0,"xT2":890.8,"yT2":0,"toosoon":0,"cond_shown":"randomdotsizeEA","ratio_trial":900,"smaller_num":"18","larger_num":"20","correct_side":2,"subjID":"javiercastro","gender":"0","age":"12","school":"6"},{"start_time":1551795496361,"click_time":1551795497946,"finger_time":1551795497262,"fix_duration":898.4866531158564,"trial":30,"RT":901,"MT":684,"sideResp":1,"stimulus":"img/750/equaldotsize/L/9_Ratio_750_L_4_R_3.png","xmouse":[690,690,690,690,690,690,690,690,690,690,690,690,690,690,690,690,690,690,690,690,690,690,690,690,690,690,690,690,690,690,690,690,690,690,690,690,690,690,690,690,690,690,690,687,652,596,538,507,432,398,394,390,379,371,349,345,340,339,339,339,339,339,339,339,339,339,339,339,339,339,339,339,339,339,339,340,344,349,353,370],"ymouse":[397,397,397,397,397,397,397,397,397,397,397,397,397,397,397,397,397,397,397,397,397,397,397,397,397,397,397,397,397,397,397,397,397,397,397,397,397,397,397,397,397,397,397,396,356,304,255,229,179,154,150,143,131,123,102,97,91,89,89,89,89,87,85,84,84,84,84,82,81,76,68,67,65,62,62,60,59,59,59,59],"timestamp_mouse":[2,21,41,60,81,101,121,141,161,181,201,221,241,261,281,300,321,341,361,381,401,421,441,461,481,501,521,541,561,581,601,621,641,661,681,701,721,741,761,781,801,821,841,861,880,901,921,941,961,981,1001,1021,1041,1061,1081,1101,1121,1141,1161,1181,1201,1221,1241,1261,1281,1301,1321,1341,1361,1381,1401,1421,1441,1461,1481,1500,1521,1541,1561,1585],"xSR":622,"ySR":352.3,"xT1":353.2,"yT1":0,"xT2":890.8,"yT2":0,"toosoon":0,"cond_shown":"equaldotsize","ratio_trial":750,"smaller_num":"3","larger_num":"4","correct_side":1,"subjID":"javiercastro","gender":"0","age":"12","school":"6"},{"start_time":1551795499839,"click_time":1551795500881,"finger_time":1551795500582,"fix_duration":1157.5625548802361,"trial":31,"RT":743,"MT":299,"sideResp":1,"stimulus":"img/900/equaldotsize/L/4_Ratio_900_L_20_R_18.png","xmouse":[677,677,677,677,677,677,677,677,677,677,677,677,677,677,677,677,677,677,677,677,677,677,677,677,677,677,677,677,677,677,677,677,678,678,672,668,665,659,652,645,641,627,591,577,506,463,433,422,403,383,373,371,365],"ymouse":[394,394,394,394,394,394,394,394,394,394,394,394,394,394,394,394,394,394,394,394,394,394,394,394,394,394,394,394,394,394,394,394,394,389,373,364,356,346,332,318,311,293,268,259,219,194,175,167,150,126,110,107,96],"timestamp_mouse":[8,24,43,63,83,103,123,143,163,183,203,223,243,263,283,302,323,343,363,383,402,423,443,463,483,503,523,543,563,583,602,623,643,662,683,703,723,743,762,783,803,822,843,862,883,902,923,943,962,983,1003,1023,1042],"xSR":622,"ySR":352.3,"xT1":353.2,"yT1":0,"xT2":890.8,"yT2":0,"toosoon":0,"cond_shown":"equaldotsize","ratio_trial":900,"smaller_num":"18","larger_num":"20","correct_side":1,"subjID":"javiercastro","gender":"0","age":"12","school":"6"},{"start_time":1551795502041,"click_time":1551795503041,"finger_time":1551795502661,"fix_duration":318.9919739916529,"trial":32,"RT":620,"MT":380,"sideResp":1,"stimulus":"img/500/equaldotsize/L/5_Ratio_500_L_4_R_2.png","xmouse":[700,700,700,700,700,696,678,671,664,653,648,646,646,646,646,646,646,646,646,646,646,646,646,645,645,644,641,638,635,633,627,585,539,516,460,429,331,322,309,306,302,299,298,298,298,298,301,304,319,330,355],"ymouse":[404,404,404,404,404,404,404,404,404,403,401,401,401,401,401,401,401,401,401,401,401,401,401,401,401,399,395,392,388,386,378,342,304,284,236,210,131,123,106,103,96,89,84,81,78,73,66,62,56,54,50],"timestamp_mouse":[5,30,40,60,80,101,121,140,160,180,200,220,240,260,280,301,320,340,360,380,400,420,440,460,480,500,520,541,561,580,600,620,640,660,680,700,720,741,760,780,800,820,840,860,880,900,920,940,960,980,1000],"xSR":622,"ySR":352.3,"xT1":353.2,"yT1":0,"xT2":890.8,"yT2":0,"toosoon":0,"cond_shown":"equaldotsize","ratio_trial":500,"smaller_num":"2","larger_num":"4","correct_side":1,"subjID":"javiercastro","gender":"0","age":"12","school":"6"},{"start_time":1551795504084,"click_time":1551795505881,"finger_time":1551795504701,"fix_duration":262.6842627077074,"trial":33,"RT":617,"MT":1180,"sideResp":1,"stimulus":"img/750/randomdotsizeEA/R/11_Ratio_750_L_12_R_16.png","xmouse":[655,655,639,632,631,631,631,631,631,631,631,631,631,631,631,631,631,631,631,631,631,631,631,631,631,631,630,628,627,624,620,617,616,611,604,587,579,557,521,509,471,435,417,376,332,272,255,220,202,197,190,187,187,187,191,200,306,350,454,491,544,560,560,560,560,560,560,560,560,560,560,560,560,560,560,560,560,560,560,560,560,560,560,560,560,560,555,544,486,389],"ymouse":[394,394,397,397,398,398,398,398,398,398,398,398,398,398,398,398,398,398,398,398,398,398,398,398,398,398,398,397,396,392,388,385,383,379,374,361,354,339,315,305,271,240,225,190,157,112,97,72,55,48,37,27,24,23,19,17,30,38,60,65,73,77,77,77,77,77,77,77,77,77,77,77,77,77,77,77,77,77,77,77,77,77,77,77,77,77,77,77,76,64],"timestamp_mouse":[30,37,57,77,97,117,137,157,177,197,217,237,257,277,297,317,337,357,377,397,417,437,457,477,497,517,537,557,577,597,617,637,657,677,697,717,737,757,777,797,817,837,857,877,897,917,937,957,977,997,1017,1037,1057,1077,1097,1117,1137,1157,1177,1197,1217,1237,1257,1277,1297,1317,1337,1357,1377,1397,1417,1437,1457,1477,1497,1517,1537,1557,1577,1597,1617,1637,1657,1677,1697,1717,1737,1757,1777,1797],"xSR":622,"ySR":352.3,"xT1":353.2,"yT1":0,"xT2":890.8,"yT2":0,"toosoon":0,"cond_shown":"randomdotsizeEA","ratio_trial":750,"smaller_num":"12","larger_num":"16","correct_side":2,"subjID":"javiercastro","gender":"0","age":"12","school":"6"},{"start_time":1551795507566,"click_time":1551795512301,"finger_time":1551795511861,"fix_duration":523.9003774267135,"trial":34,"RT":4295,"MT":440,"sideResp":2,"stimulus":"img/500/equaldotsize/L/13_Ratio_500_L_12_R_6.png","xmouse":[688,688,688,688,688,687,683,681,680,680,680,679,679,679,679,679,679,679,679,679,679,679,679,679,679,679,679,679,679,679,679,679,679,679,679,679,679,679,679,679,679,679,679,679,679,679,679,679,679,679,679,679,679,679,679,679,679,679,679,679,679,679,679,679,679,679,679,679,679,679,679,679,679,679,679,679,679,679,679,679,679,679,679,679,679,679,679,679,679,679,679,679,679,679,679,679,679,679,679,679,679,679,679,679,679,679,679,679,679,679,679,679,679,679,679,679,679,679,679,679,679,679,679,679,679,679,679,679,679,679,679,679,679,679,679,679,679,679,679,679,679,679,679,679,679,679,679,679,679,679,679,679,679,679,679,679,679,679,679,679,679,679,679,679,679,679,679,679,679,679,679,679,679,679,679,679,679,679,679,679,679,679,679,679,679,679,679,679,679,679,679,679,679,679,679,679,679,679,679,679,679,679,679,679,679,679,679,679,679,679,679,679,694,702,710,749,760,767,787,791,801,807,818,824,845,848,856,859,866,873,877,878,880,882,888,890,899],"ymouse":[386,386,386,386,386,386,386,386,386,386,386,386,386,386,386,386,386,386,386,386,386,386,386,386,386,386,386,386,386,386,386,386,386,386,386,386,386,386,386,386,386,386,386,386,386,386,386,386,386,386,386,386,386,386,386,386,386,386,386,386,386,386,386,386,386,386,386,386,386,386,386,386,386,386,386,386,386,386,386,386,386,386,386,386,386,386,386,386,386,386,386,386,386,386,386,386,386,386,386,386,386,386,386,386,386,386,386,386,386,386,386,386,386,386,386,386,386,386,386,386,386,386,386,386,386,386,386,386,386,386,386,386,386,386,386,386,386,386,386,386,386,386,386,386,386,386,386,386,386,386,386,386,386,386,386,386,386,386,386,386,386,386,386,386,386,386,386,386,386,386,386,386,386,386,386,386,386,386,386,386,386,386,386,386,386,386,386,386,386,386,386,386,386,386,386,386,386,386,386,386,386,386,386,386,386,386,386,386,386,386,386,386,369,359,348,296,278,264,217,208,195,189,178,173,149,143,126,122,109,99,93,91,88,85,81,80,76],"timestamp_mouse":[25,35,55,75,95,115,135,155,175,195,215,235,255,275,295,315,335,355,375,395,415,435,455,475,495,515,535,555,575,595,615,635,655,675,695,715,735,755,775,795,815,835,855,875,895,915,935,955,975,995,1015,1035,1055,1075,1095,1115,1135,1155,1175,1195,1215,1235,1255,1275,1295,1315,1335,1355,1375,1395,1415,1435,1455,1475,1495,1515,1535,1555,1575,1595,1615,1635,1655,1675,1695,1715,1735,1755,1775,1795,1815,1835,1855,1875,1895,1915,1935,1955,1975,1995,2015,2035,2055,2075,2095,2115,2135,2155,2175,2195,2215,2235,2255,2275,2295,2315,2335,2355,2375,2395,2415,2435,2455,2475,2495,2515,2535,2555,2575,2595,2615,2635,2655,2675,2695,2715,2735,2755,2775,2795,2815,2835,2855,2875,2895,2915,2935,2955,2975,2995,3015,3035,3055,3075,3095,3115,3135,3155,3175,3195,3215,3235,3255,3275,3295,3315,3335,3355,3375,3395,3415,3435,3455,3475,3495,3515,3535,3555,3575,3595,3615,3635,3655,3675,3695,3715,3735,3755,3775,3795,3815,3835,3855,3875,3895,3915,3935,3955,3975,3995,4015,4035,4055,4075,4095,4115,4135,4155,4175,4195,4215,4235,4255,4275,4295,4315,4335,4355,4377,4395,4415,4435,4455,4475,4495,4515,4535,4555,4575,4595,4615,4635,4655,4675,4695,4715,4735],"xSR":622,"ySR":352.3,"xT1":353.2,"yT1":0,"xT2":890.8,"yT2":0,"toosoon":0,"cond_shown":"equaldotsize","ratio_trial":500,"smaller_num":"6","larger_num":"12","correct_side":1,"subjID":"javiercastro","gender":"0","age":"12","school":"6"},{"start_time":1551795513629,"click_time":1551795514981,"finger_time":1551795514421,"fix_duration":506.28557325380916,"trial":35,"RT":792,"MT":560,"sideResp":1,"stimulus":"img/750/randomdotsizeEA/L/8_Ratio_750_L_4_R_3.png","xmouse":[687,682,681,681,681,681,681,681,681,682,684,684,684,684,684,684,684,684,684,684,684,684,684,684,684,684,684,684,684,684,684,684,684,684,684,684,684,682,669,600,567,556,544,530,517,507,488,478,463,461,459,459,459,459,459,458,455,455,453,449,443,439,431,423,410,405,397,392],"ymouse":[417,418,418,418,418,418,418,418,418,418,418,418,418,418,418,418,418,418,418,418,418,418,418,418,418,418,418,418,418,418,418,418,418,418,418,418,417,410,398,354,332,325,315,300,288,280,266,259,242,238,234,231,227,221,211,208,203,201,195,185,177,171,160,146,125,116,102,87],"timestamp_mouse":[12,32,52,72,92,112,132,152,172,192,212,232,252,272,292,312,332,352,372,392,412,432,452,472,492,512,532,552,572,592,612,632,652,672,692,712,732,752,772,792,812,832,852,873,892,912,932,952,973,992,1012,1032,1052,1072,1092,1112,1132,1152,1172,1192,1212,1232,1252,1272,1292,1312,1332,1352],"xSR":622,"ySR":352.3,"xT1":353.2,"yT1":0,"xT2":890.8,"yT2":0,"toosoon":0,"cond_shown":"randomdotsizeEA","ratio_trial":750,"smaller_num":"3","larger_num":"4","correct_side":1,"subjID":"javiercastro","gender":"0","age":"12","school":"6"},{"start_time":1551795516118,"click_time":1551795518182,"finger_time":1551795517602,"fix_duration":295.93674668235604,"trial":36,"RT":1484,"MT":580,"sideResp":2,"stimulus":"img/900/randomdotsizeEA/R/5_Ratio_900_L_9_R_10.png","xmouse":[666,666,666,666,666,666,666,666,666,666,666,666,666,666,666,666,666,666,666,666,666,666,666,666,666,666,666,666,666,666,666,666,666,666,666,666,666,666,666,666,666,666,666,666,666,666,665,659,657,655,654,653,653,653,653,653,653,653,653,653,653,653,653,653,653,653,653,653,653,653,653,653,653,703,728,785,825,839,855,857,857,857,858,859,859,859,860,860,863,868,872,873,876,880,881,882,883,883,886,887,888,888,890,893],"ymouse":[416,416,416,416,416,416,416,416,416,416,416,416,416,416,416,416,416,416,416,416,416,416,416,416,416,416,416,416,416,416,416,416,416,416,416,416,416,416,416,416,416,416,416,416,416,416,413,404,399,397,395,393,393,393,393,393,393,393,393,393,393,393,393,393,393,393,393,393,393,393,393,393,391,368,351,307,262,238,201,192,188,186,183,176,169,166,158,156,147,136,128,126,120,114,111,110,109,109,105,104,103,103,101,99],"timestamp_mouse":[8,36,43,63,83,103,123,143,163,183,203,223,243,263,283,303,323,343,363,383,403,423,443,463,483,504,523,543,563,583,603,623,643,663,683,703,723,743,763,783,803,823,843,863,883,903,923,943,963,984,1003,1023,1043,1063,1083,1103,1123,1143,1163,1183,1203,1223,1243,1263,1283,1303,1323,1343,1363,1383,1403,1423,1444,1463,1484,1504,1523,1544,1563,1583,1604,1623,1644,1663,1683,1703,1723,1743,1763,1783,1803,1823,1844,1864,1883,1903,1923,1943,1964,1983,2003,2023,2043,2064],"xSR":622,"ySR":352.3,"xT1":353.2,"yT1":0,"xT2":890.8,"yT2":0,"toosoon":0,"cond_shown":"randomdotsizeEA","ratio_trial":900,"smaller_num":"9","larger_num":"10","correct_side":2,"subjID":"javiercastro","gender":"0","age":"12","school":"6"},{"start_time":1551795520703,"click_time":1551795521822,"finger_time":1551795521622,"fix_duration":1000.2085815658913,"trial":37,"RT":919,"MT":200,"sideResp":1,"stimulus":"img/750/randomdotsizeEA/R/3_Ratio_750_L_15_R_20.png","xmouse":[663,663,663,663,664,664,664,664,664,664,664,664,664,664,664,664,664,664,664,664,664,664,664,664,664,664,664,664,664,664,664,664,664,664,664,664,664,664,665,666,666,666,664,658,651,647,633,617,593,579,548,522,487,474,459,452],"ymouse":[395,395,395,395,395,395,395,395,395,395,395,395,395,395,395,395,395,395,395,395,395,395,395,395,395,395,395,395,395,395,395,395,395,395,395,395,395,395,395,394,393,383,379,370,359,351,329,300,268,250,212,182,142,125,103,92],"timestamp_mouse":[19,39,59,79,99,119,139,159,179,199,219,239,259,279,299,319,339,359,379,399,419,439,459,479,499,519,539,559,579,599,619,639,659,679,699,719,739,759,779,799,819,839,859,879,899,919,939,959,979,999,1019,1039,1059,1079,1099,1119],"xSR":622,"ySR":352.3,"xT1":353.2,"yT1":0,"xT2":890.8,"yT2":0,"toosoon":0,"cond_shown":"randomdotsizeEA","ratio_trial":750,"smaller_num":"15","larger_num":"20","correct_side":2,"subjID":"javiercastro","gender":"0","age":"12","school":"6"},{"start_time":1551795523998,"click_time":1551795525141,"finger_time":1551795524722,"fix_duration":1415.0411032811228,"trial":38,"RT":724,"MT":419,"sideResp":2,"stimulus":"img/750/equaldotanddens/R/3_Ratio_750_L_15_R_20.png","xmouse":[688,688,688,688,688,688,688,688,688,688,688,688,688,688,688,688,688,688,688,688,688,688,688,688,688,688,688,688,688,688,688,688,688,688,691,696,727,756,777,825,854,950,973,992,997,1004,1008,1008,1008,1008,1008,1008,1008,1006,1002,1001,994,987],"ymouse":[399,399,399,399,399,399,399,399,399,399,399,399,399,399,399,399,399,399,399,399,399,399,399,399,399,399,399,399,399,399,399,399,399,399,398,392,356,327,312,273,252,171,151,127,116,101,79,67,64,61,61,61,60,59,58,58,58,58],"timestamp_mouse":[8,33,43,64,84,104,124,144,164,184,204,224,243,263,284,303,324,344,364,384,404,424,444,464,484,504,524,543,564,584,604,623,643,663,684,703,724,744,764,783,804,823,844,863,884,903,923,944,964,983,1004,1023,1043,1064,1084,1104,1124,1143],"xSR":622,"ySR":352.3,"xT1":353.2,"yT1":0,"xT2":890.8,"yT2":0,"toosoon":0,"cond_shown":"equaldotanddens","ratio_trial":750,"smaller_num":"15","larger_num":"20","correct_side":2,"subjID":"javiercastro","gender":"0","age":"12","school":"6"},{"start_time":1551795529132,"click_time":1551795530341,"finger_time":1551795529981,"fix_duration":1449.2526750666318,"trial":39,"RT":849,"MT":360,"sideResp":2,"stimulus":"img/900/randomdotsizeEA/R/11_Ratio_900_L_18_R_20.png","xmouse":[653,653,653,653,653,653,653,653,653,653,653,653,653,653,653,653,653,653,653,653,653,653,653,653,653,653,653,653,653,653,653,653,653,653,653,653,654,656,659,661,686,695,721,738,766,808,829,835,851,856,872,888,901,906,911,916,918,918,919,919,921],"ymouse":[417,417,417,417,417,417,417,417,417,417,417,417,417,417,417,417,417,417,417,417,417,417,417,417,417,417,417,417,417,417,417,417,417,417,417,417,417,416,412,410,389,380,350,325,294,258,241,235,222,217,199,184,167,158,148,132,120,116,106,102,84],"timestamp_mouse":[9,31,49,69,89,109,129,149,169,189,209,229,249,269,289,309,329,349,369,389,409,429,449,469,489,509,529,549,569,589,609,629,649,669,689,709,729,749,769,789,809,829,849,869,889,909,929,949,969,989,1009,1029,1049,1069,1089,1109,1129,1149,1169,1189,1209],"xSR":622,"ySR":352.3,"xT1":353.2,"yT1":0,"xT2":890.8,"yT2":0,"toosoon":0,"cond_shown":"randomdotsizeEA","ratio_trial":900,"smaller_num":"18","larger_num":"20","correct_side":2,"subjID":"javiercastro","gender":"0","age":"12","school":"6"},{"start_time":1551795531433,"click_time":1551795532941,"finger_time":1551795532681,"fix_duration":250,"trial":40,"RT":1248,"MT":260,"sideResp":2,"stimulus":"img/900/equaldotanddens/L/8_Ratio_900_L_20_R_18.png","xmouse":[695,695,694,694,694,694,694,694,694,694,694,693,693,693,693,693,693,693,693,693,693,693,693,693,693,693,693,693,693,693,693,690,685,683,683,683,683,683,683,683,683,683,683,683,683,683,683,683,682,676,670,663,646,646,646,646,646,646,646,647,655,661,681,752,810,836,879,891,910,912,913,913,916,917,917,917],"ymouse":[413,413,413,413,413,413,413,413,413,413,413,413,413,413,413,413,413,414,414,414,414,414,414,414,414,414,414,414,414,414,414,414,414,414,414,414,414,414,414,414,414,414,414,414,414,414,414,414,414,412,411,408,404,404,404,404,404,403,398,394,375,365,337,275,236,217,184,174,152,148,143,140,132,116,103,98],"timestamp_mouse":[8,28,48,68,88,108,128,148,168,188,208,228,248,268,288,308,328,348,368,388,408,428,448,468,488,508,528,548,568,588,608,628,648,668,688,708,728,748,768,788,808,828,848,868,888,908,928,948,968,988,1008,1028,1048,1068,1088,1108,1128,1148,1168,1188,1208,1228,1248,1268,1288,1308,1328,1348,1368,1388,1408,1428,1448,1468,1488,1508],"xSR":622,"ySR":352.3,"xT1":353.2,"yT1":0,"xT2":890.8,"yT2":0,"toosoon":0,"cond_shown":"equaldotanddens","ratio_trial":900,"smaller_num":"18","larger_num":"20","correct_side":1,"subjID":"javiercastro","gender":"0","age":"12","school":"6"},{"start_time":1551795535010,"click_time":1551795535981,"finger_time":1551795535701,"fix_duration":1187.6304895302333,"trial":41,"RT":691,"MT":280,"sideResp":1,"stimulus":"img/750/equaldotanddens/L/10_Ratio_750_L_4_R_3.png","xmouse":[688,688,688,688,688,688,688,688,688,688,688,688,688,688,688,688,688,688,688,688,688,688,688,688,688,688,688,688,688,688,685,677,642,626,593,573,560,544,535,531,521,510,493,488,477,461,453,419,408],"ymouse":[426,426,426,426,426,426,426,426,426,426,426,426,426,426,426,426,426,426,426,426,426,426,426,426,426,426,426,426,426,426,423,415,395,385,364,351,340,314,293,283,263,242,208,198,174,148,136,102,93],"timestamp_mouse":[11,31,51,71,91,111,131,151,171,191,211,231,251,271,291,311,331,351,371,391,411,431,451,471,491,511,531,551,571,591,611,631,651,671,691,711,731,751,771,791,811,831,851,871,891,911,931,951,971],"xSR":622,"ySR":352.3,"xT1":353.2,"yT1":0,"xT2":890.8,"yT2":0,"toosoon":0,"cond_shown":"equaldotanddens","ratio_trial":750,"smaller_num":"3","larger_num":"4","correct_side":1,"subjID":"javiercastro","gender":"0","age":"12","school":"6"},{"start_time":1551795537113,"click_time":1551795538021,"finger_time":1551795537761,"fix_duration":250,"trial":42,"RT":648,"MT":260,"sideResp":2,"stimulus":"img/900/equaldotsize/R/3_Ratio_900_L_9_R_10.png","xmouse":[671,671,671,671,671,671,671,671,671,671,671,671,671,671,671,671,671,671,671,671,671,671,671,671,671,671,671,671,671,671,677,692,733,762,863,908,922,925,931,936,938,940,941,942,944,945],"ymouse":[382,382,382,382,382,382,382,382,382,382,382,382,382,382,382,382,382,382,382,382,382,382,382,382,382,382,382,382,382,382,377,359,323,297,224,192,177,171,156,137,133,125,117,112,101,95],"timestamp_mouse":[8,29,48,68,88,108,128,148,168,188,208,228,248,268,288,308,328,348,368,388,408,428,448,468,488,508,528,548,568,588,608,628,648,668,688,708,728,748,768,788,808,828,848,868,888,908],"xSR":622,"ySR":352.3,"xT1":353.2,"yT1":0,"xT2":890.8,"yT2":0,"toosoon":0,"cond_shown":"equaldotsize","ratio_trial":900,"smaller_num":"9","larger_num":"10","correct_side":2,"subjID":"javiercastro","gender":"0","age":"12","school":"6"},{"start_time":1551795539133,"click_time":1551795540181,"finger_time":1551795539841,"fix_duration":250,"trial":43,"RT":708,"MT":340,"sideResp":1,"stimulus":"img/750/randomdotsizeEA/L/6_Ratio_750_L_24_R_18.png","xmouse":[698,698,698,698,698,698,698,698,698,698,698,698,698,698,698,698,698,698,698,698,698,698,698,698,698,698,698,698,698,698,698,694,687,673,668,643,633,621,614,603,586,573,567,554,546,517,512,507,507,500,477,460,452],"ymouse":[396,396,396,396,396,396,396,396,396,396,396,396,396,396,396,396,396,396,396,396,396,396,396,396,396,396,396,396,396,396,396,394,384,366,358,324,311,289,277,255,227,204,194,172,161,123,116,107,104,87,59,47,44],"timestamp_mouse":[8,34,48,68,88,108,128,148,168,188,208,228,248,268,288,308,328,348,368,388,408,428,448,468,489,508,528,548,568,588,608,628,648,668,688,708,728,748,768,788,808,828,848,868,888,908,928,948,968,988,1008,1028,1048],"xSR":622,"ySR":352.3,"xT1":353.2,"yT1":0,"xT2":890.8,"yT2":0,"toosoon":0,"cond_shown":"randomdotsizeEA","ratio_trial":750,"smaller_num":"18","larger_num":"24","correct_side":1,"subjID":"javiercastro","gender":"0","age":"12","school":"6"},{"start_time":1551795541636,"click_time":1551795542642,"finger_time":1551795542422,"fix_duration":833.0752711545111,"trial":44,"RT":786,"MT":220,"sideResp":2,"stimulus":"img/900/randomdotsizeEA/R/5_Ratio_900_L_9_R_10.png","xmouse":[688,688,688,688,688,688,688,688,688,688,688,688,688,688,688,688,688,688,688,688,688,688,688,688,688,688,688,688,688,688,688,688,688,688,688,688,688,694,722,741,756,799,817,871,877,886,896,919,957,975,982],"ymouse":[421,421,421,421,421,421,421,421,421,421,421,421,421,421,421,421,421,421,421,421,421,421,421,421,421,421,421,421,421,421,421,421,421,421,421,421,421,411,360,314,286,227,204,151,142,132,127,119,109,101,98],"timestamp_mouse":[8,25,45,65,85,105,125,145,165,185,205,225,246,266,286,305,325,345,365,385,405,425,445,465,485,505,526,546,566,585,606,625,646,666,686,706,726,745,765,786,805,826,845,866,886,906,925,946,966,986,1006],"xSR":622,"ySR":352.3,"xT1":353.2,"yT1":0,"xT2":890.8,"yT2":0,"toosoon":0,"cond_shown":"randomdotsizeEA","ratio_trial":900,"smaller_num":"9","larger_num":"10","correct_side":2,"subjID":"javiercastro","gender":"0","age":"12","school":"6"},{"start_time":1551795545633,"click_time":1551795546422,"finger_time":1551795546222,"fix_duration":689.2132155741987,"trial":45,"RT":589,"MT":200,"sideResp":2,"stimulus":"img/250/equaldotanddens/R/6_Ratio_250_L_6_R_24.png","xmouse":[663,663,663,663,663,663,663,663,663,663,663,663,663,663,663,663,663,663,663,663,663,663,663,663,663,663,663,663,664,704,726,778,858,877,891,901,908,911,920,927],"ymouse":[396,396,396,396,396,396,396,396,396,396,396,396,396,396,396,396,396,396,396,396,396,396,396,396,396,396,396,396,388,336,312,269,202,186,168,152,130,121,103,90],"timestamp_mouse":[8,29,49,69,89,109,129,149,169,189,209,229,249,269,289,309,329,349,369,389,409,429,449,469,489,509,529,549,569,589,609,629,649,669,689,709,730,748,769,789],"xSR":622,"ySR":352.3,"xT1":353.2,"yT1":0,"xT2":890.8,"yT2":0,"toosoon":0,"cond_shown":"equaldotanddens","ratio_trial":250,"smaller_num":"6","larger_num":"24","correct_side":2,"subjID":"javiercastro","gender":"0","age":"12","school":"6"},{"start_time":1551795547634,"click_time":1551795548742,"finger_time":1551795548422,"fix_duration":451.29533115247733,"trial":46,"RT":788,"MT":320,"sideResp":2,"stimulus":"img/500/equaldotanddens/R/12_Ratio_500_L_1_R_2.png","xmouse":[645,645,645,645,645,645,645,645,645,645,645,645,645,645,645,645,645,645,645,645,645,645,645,645,645,645,645,645,645,645,645,645,645,645,646,654,661,677,683,714,724,752,770,802,827,833,834,836,839,857,863,873,876,881,889,900],"ymouse":[401,401,401,401,401,401,401,401,401,401,401,401,401,401,401,401,401,401,401,401,401,401,401,401,401,401,401,401,401,401,401,401,401,401,398,389,383,370,364,327,318,290,272,236,205,194,191,184,178,142,133,120,115,107,96,84],"timestamp_mouse":[8,30,48,68,88,108,128,148,168,188,208,228,248,268,288,308,328,348,368,388,408,428,448,468,488,508,528,548,568,588,608,628,648,668,688,708,728,748,768,788,807,828,848,868,888,907,927,947,968,987,1008,1028,1048,1068,1087,1108],"xSR":622,"ySR":352.3,"xT1":353.2,"yT1":0,"xT2":890.8,"yT2":0,"toosoon":0,"cond_shown":"equaldotanddens","ratio_trial":500,"smaller_num":"1","larger_num":"2","correct_side":2,"subjID":"javiercastro","gender":"0","age":"12","school":"6"},{"start_time":1551795550281,"click_time":1551795551181,"finger_time":1551795550961,"fix_duration":718.0551156591681,"trial":47,"RT":680,"MT":220,"sideResp":1,"stimulus":"img/750/randomdotsizeEA/L/13_Ratio_750_L_8_R_6.png","xmouse":[663,663,663,663,663,663,663,663,663,663,663,663,663,663,663,663,663,663,663,663,663,663,663,663,663,663,663,663,663,663,663,660,645,636,620,608,599,579,564,557,533,514,496,481,456,432],"ymouse":[412,412,412,412,412,412,412,412,412,412,412,412,412,412,412,412,412,412,412,412,412,412,412,412,412,412,412,412,412,412,412,409,384,366,327,293,270,235,213,203,178,161,143,129,106,86],"timestamp_mouse":[5,24,40,60,80,100,120,140,161,180,200,220,240,260,280,301,320,340,360,380,400,420,440,460,480,500,520,540,560,580,600,620,640,660,680,700,720,740,760,780,800,820,840,860,880,900],"xSR":622,"ySR":352.3,"xT1":353.2,"yT1":0,"xT2":890.8,"yT2":0,"toosoon":0,"cond_shown":"randomdotsizeEA","ratio_trial":750,"smaller_num":"6","larger_num":"8","correct_side":1,"subjID":"javiercastro","gender":"0","age":"12","school":"6"},{"start_time":1551795552337,"click_time":1551795553221,"finger_time":1551795553081,"fix_duration":374.8941480507312,"trial":48,"RT":744,"MT":140,"sideResp":1,"stimulus":"img/250/randomdotsizeEA/L/14_Ratio_250_L_12_R_3.png","xmouse":[650,650,650,650,650,650,650,650,650,650,650,650,650,650,650,650,650,650,650,650,650,650,650,650,650,650,650,650,650,650,650,650,650,650,650,650,642,627,610,560,533,501,489,468,449],"ymouse":[392,392,392,392,392,392,392,392,392,392,392,392,392,392,392,392,392,392,392,392,392,392,392,392,392,392,392,392,392,392,392,392,392,392,392,392,372,343,317,233,189,137,117,86,60],"timestamp_mouse":[7,26,44,64,84,104,124,144,164,184,204,224,244,264,284,304,324,344,364,384,404,424,444,464,484,504,524,544,564,584,604,624,644,664,684,704,724,744,764,784,804,824,844,864,884],"xSR":622,"ySR":352.3,"xT1":353.2,"yT1":0,"xT2":890.8,"yT2":0,"toosoon":0,"cond_shown":"randomdotsizeEA","ratio_trial":250,"smaller_num":"3","larger_num":"12","correct_side":1,"subjID":"javiercastro","gender":"0","age":"12","school":"6"},{"start_time":1551795554316,"click_time":1551795555185,"finger_time":1551795554965,"fix_duration":250,"trial":49,"RT":649,"MT":220,"sideResp":2,"stimulus":"img/750/randomdotsizeEA/L/10_Ratio_750_L_4_R_3.png","xmouse":[675,675,675,675,675,675,675,675,675,675,675,675,675,675,675,675,675,675,675,675,675,675,675,676,681,683,686,687,688,694,696,702,721,728,745,761,789,832,853,861,873,882,905,914],"ymouse":[386,386,386,386,386,386,386,386,386,386,386,386,386,386,386,386,386,386,386,386,386,386,387,387,383,382,380,379,377,370,368,361,339,332,311,293,262,214,189,179,157,140,100,87],"timestamp_mouse":[9,28,49,69,89,109,129,149,169,189,209,229,249,269,289,309,329,349,369,389,409,429,449,469,489,509,529,549,569,589,609,629,649,669,689,709,729,749,769,789,809,829,849,869],"xSR":622,"ySR":352.3,"xT1":353.2,"yT1":0,"xT2":890.8,"yT2":0,"toosoon":0,"cond_shown":"randomdotsizeEA","ratio_trial":750,"smaller_num":"3","larger_num":"4","correct_side":1,"subjID":"javiercastro","gender":"0","age":"12","school":"6"},{"start_time":1551795557221,"click_time":1551795558205,"finger_time":1551795558025,"fix_duration":1234.00923006,"trial":50,"RT":804,"MT":180,"sideResp":1,"stimulus":"img/900/randomdotsizeEA/L/2_Ratio_900_L_20_R_18.png","xmouse":[680,680,680,680,680,680,680,680,680,680,680,680,680,680,680,680,680,680,680,680,680,680,680,680,680,680,680,680,680,680,680,680,680,680,680,680,678,667,658,642,618,610,589,572,541,482,439,426,407,398],"ymouse":[403,403,403,403,403,403,403,403,403,403,403,403,403,403,403,403,403,403,403,403,403,403,403,403,403,403,403,403,403,403,403,403,403,403,403,403,403,391,383,370,342,330,304,286,252,191,148,131,108,90],"timestamp_mouse":[7,31,44,64,84,104,124,144,164,184,204,224,244,264,284,304,324,344,364,384,404,424,444,464,484,504,524,544,564,584,604,624,644,664,684,704,724,744,764,784,804,824,844,864,884,904,924,944,964,984],"xSR":622,"ySR":352.3,"xT1":353.2,"yT1":0,"xT2":890.8,"yT2":0,"toosoon":0,"cond_shown":"randomdotsizeEA","ratio_trial":900,"smaller_num":"18","larger_num":"20","correct_side":1,"subjID":"javiercastro","gender":"0","age":"12","school":"6"},{"start_time":1551795559257,"click_time":1551795560005,"finger_time":1551795559845,"fix_duration":250,"trial":51,"RT":588,"MT":160,"sideResp":2,"stimulus":"img/500/equaldotsize/R/1_Ratio_500_L_9_R_18.png","xmouse":[672,672,672,672,672,672,672,672,672,672,672,672,672,672,672,672,672,672,672,672,672,672,672,672,672,672,677,685,710,747,816,833,858,870,885,901,919,932],"ymouse":[390,390,390,390,390,390,390,390,390,390,390,390,390,390,390,390,390,390,390,390,390,390,390,390,390,390,387,379,357,320,246,225,191,176,154,124,101,88],"timestamp_mouse":[7,34,48,68,88,108,128,148,168,188,208,228,248,268,288,308,328,348,368,388,408,428,448,468,488,508,528,548,568,588,608,628,648,668,688,708,728,748],"xSR":622,"ySR":352.3,"xT1":353.2,"yT1":0,"xT2":890.8,"yT2":0,"toosoon":0,"cond_shown":"equaldotsize","ratio_trial":500,"smaller_num":"9","larger_num":"18","correct_side":2,"subjID":"javiercastro","gender":"0","age":"12","school":"6"},{"start_time":1551795561789,"click_time":1551795562565,"finger_time":1551795562445,"fix_duration":1022.441876021492,"trial":52,"RT":656,"MT":120,"sideResp":1,"stimulus":"img/500/equaldotanddens/L/13_Ratio_500_L_12_R_6.png","xmouse":[653,653,653,653,653,653,653,653,653,654,654,654,654,654,654,654,654,654,654,654,654,654,654,654,654,654,655,652,651,648,641,626,612,604,573,515,422,400,379],"ymouse":[402,402,402,402,402,402,402,402,402,402,402,402,402,402,402,402,402,402,402,402,402,402,402,402,402,402,402,397,392,387,376,356,336,323,287,225,131,107,78],"timestamp_mouse":[28,36,56,76,96,116,136,156,176,196,216,236,256,276,296,316,336,356,376,396,416,436,456,476,496,516,536,556,576,596,616,636,656,676,696,716,736,756,776],"xSR":622,"ySR":352.3,"xT1":353.2,"yT1":0,"xT2":890.8,"yT2":0,"toosoon":0,"cond_shown":"equaldotanddens","ratio_trial":500,"smaller_num":"6","larger_num":"12","correct_side":1,"subjID":"javiercastro","gender":"0","age":"12","school":"6"},{"start_time":1551795563637,"click_time":1551795564347,"finger_time":1551795564165,"fix_duration":250,"trial":53,"RT":528,"MT":182,"sideResp":2,"stimulus":"img/500/equaldotanddens/R/14_Ratio_500_L_5_R_10.png","xmouse":[666,666,666,666,666,666,666,666,666,666,666,666,666,666,666,665,665,665,665,665,665,665,666,668,673,684,710,718,741,769,785,838,872,890,911,932],"ymouse":[427,427,427,427,427,427,427,427,427,427,427,427,427,427,427,426,426,426,425,424,420,419,414,410,402,384,349,333,297,262,244,186,148,127,100,64],"timestamp_mouse":[7,35,48,68,88,108,128,148,168,188,208,228,248,268,288,308,328,348,368,388,408,428,448,468,488,508,528,548,568,588,608,628,648,668,688,709],"xSR":622,"ySR":352.3,"xT1":353.2,"yT1":0,"xT2":890.8,"yT2":0,"toosoon":0,"cond_shown":"equaldotanddens","ratio_trial":500,"smaller_num":"5","larger_num":"10","correct_side":2,"subjID":"javiercastro","gender":"0","age":"12","school":"6"},{"start_time":1551795567777,"click_time":1551795568825,"finger_time":1551795568545,"fix_duration":1130.4207410442195,"trial":54,"RT":768,"MT":280,"sideResp":1,"stimulus":"img/250/equaldotanddens/L/3_Ratio_250_L_8_R_2.png","xmouse":[671,671,671,671,671,671,671,671,671,671,671,671,671,671,671,671,671,671,671,671,671,671,671,671,671,671,671,671,671,671,671,671,671,671,671,671,671,671,648,628,601,582,556,521,503,495,484,480,469,466,459,456,448],"ymouse":[405,405,405,405,405,405,405,405,405,405,405,405,405,405,405,405,405,405,405,405,405,405,405,405,405,405,405,405,405,405,405,405,405,405,405,405,404,392,343,308,271,250,215,171,149,140,125,119,99,92,80,76,67],"timestamp_mouse":[8,28,48,68,88,108,128,148,168,188,208,228,248,268,288,308,328,351,368,388,408,428,448,468,488,508,528,548,568,588,608,628,648,668,688,708,728,748,768,788,808,828,848,868,888,908,928,948,968,988,1008,1028,1048],"xSR":622,"ySR":352.3,"xT1":353.2,"yT1":0,"xT2":890.8,"yT2":0,"toosoon":0,"cond_shown":"equaldotanddens","ratio_trial":250,"smaller_num":"2","larger_num":"8","correct_side":1,"subjID":"javiercastro","gender":"0","age":"12","school":"6"},{"start_time":1551795569733,"click_time":1551795570485,"finger_time":1551795570325,"fix_duration":306.6340572714332,"trial":55,"RT":592,"MT":160,"sideResp":2,"stimulus":"img/500/randomdotsizeEA/R/14_Ratio_500_L_5_R_10.png","xmouse":[653,653,653,653,653,653,653,653,653,653,653,653,653,653,653,653,653,653,653,653,653,653,653,653,653,653,653,656,675,694,744,767,858,879,910,919,934,958],"ymouse":[392,392,392,392,392,392,392,392,392,392,392,392,392,392,392,392,392,392,392,392,392,392,392,392,392,392,392,392,367,350,303,285,206,186,153,142,122,91],"timestamp_mouse":[12,32,51,72,92,112,132,152,172,192,212,232,252,272,292,312,332,352,372,392,412,432,452,472,492,512,532,552,572,592,612,632,652,672,692,712,732,752],"xSR":622,"ySR":352.3,"xT1":353.2,"yT1":0,"xT2":890.8,"yT2":0,"toosoon":0,"cond_shown":"randomdotsizeEA","ratio_trial":500,"smaller_num":"5","larger_num":"10","correct_side":2,"subjID":"javiercastro","gender":"0","age":"12","school":"6"},{"start_time":1551795571537,"click_time":1551795572645,"finger_time":1551795572145,"fix_duration":250,"trial":56,"RT":608,"MT":500,"sideResp":2,"stimulus":"img/250/equaldotsize/R/10_Ratio_250_L_4_R_16.png","xmouse":[656,656,656,656,656,656,656,656,656,656,656,656,656,656,656,656,656,656,656,656,656,656,656,658,665,669,679,684,697,722,762,785,845,869,952,983,996,999,1003,1007,1010,1011,1011,1011,1011,1011,1011,1011,1011,1011,1011,1011,1006,1000,992,958],"ymouse":[417,417,417,417,417,417,417,417,417,417,417,417,417,417,417,417,417,417,417,417,417,417,417,417,412,410,401,396,384,353,304,280,227,205,135,109,95,92,86,76,70,68,66,66,66,66,66,66,66,66,66,66,66,66,66,68],"timestamp_mouse":[8,31,48,68,89,108,128,148,168,188,208,228,248,268,288,308,328,348,368,388,408,428,448,468,488,508,528,548,568,588,608,628,648,668,688,708,728,748,768,788,808,828,848,868,888,908,928,948,968,988,1008,1028,1047,1067,1088,1108],"xSR":622,"ySR":352.3,"xT1":353.2,"yT1":0,"xT2":890.8,"yT2":0,"toosoon":0,"cond_shown":"equaldotsize","ratio_trial":250,"smaller_num":"4","larger_num":"16","correct_side":2,"subjID":"javiercastro","gender":"0","age":"12","school":"6"},{"start_time":1551795573817,"click_time":1551795574726,"finger_time":1551795574464,"fix_duration":330.18011971602556,"trial":57,"RT":647,"MT":262,"sideResp":1,"stimulus":"img/500/randomdotsizeEA/L/4_Ratio_500_L_18_R_9.png","xmouse":[676,676,676,676,676,676,676,676,676,676,676,676,676,676,676,676,676,676,676,676,676,676,675,675,675,675,675,675,675,675,668,658,613,598,572,562,545,532,514,507,495,481,475,439,432,415],"ymouse":[391,391,391,391,391,391,391,391,391,391,391,391,391,391,391,391,391,391,391,391,391,391,391,391,391,391,391,391,391,391,386,383,370,364,350,342,326,308,280,270,250,220,205,122,102,63],"timestamp_mouse":[8,28,47,68,88,108,128,148,168,188,208,228,248,268,288,308,328,348,368,388,408,428,448,468,488,508,528,548,568,588,608,629,647,668,688,708,728,748,768,788,808,828,848,868,888,909],"xSR":622,"ySR":352.3,"xT1":353.2,"yT1":0,"xT2":890.8,"yT2":0,"toosoon":0,"cond_shown":"randomdotsizeEA","ratio_trial":500,"smaller_num":"9","larger_num":"18","correct_side":1,"subjID":"javiercastro","gender":"0","age":"12","school":"6"},{"start_time":1551795576643,"click_time":1551795577545,"finger_time":1551795577265,"fix_duration":1237.8138738510313,"trial":58,"RT":622,"MT":280,"sideResp":2,"stimulus":"img/500/equaldotanddens/R/15_Ratio_500_L_1_R_2.png","xmouse":[654,654,654,654,654,654,654,654,654,654,654,654,654,654,654,654,654,654,654,654,654,654,654,654,654,654,654,654,656,661,684,699,709,727,762,773,798,816,822,835,848,857,859,871,875,894],"ymouse":[393,393,393,393,393,393,393,393,393,393,393,393,393,393,393,393,393,393,393,393,393,393,393,393,393,393,393,393,391,385,366,349,335,311,256,235,189,150,133,102,74,59,55,44,41,28],"timestamp_mouse":[15,22,42,62,82,102,122,142,162,182,202,222,242,262,282,302,322,342,362,382,402,422,442,462,482,502,522,542,562,582,602,622,642,662,682,702,722,742,762,782,802,822,842,862,882,902],"xSR":622,"ySR":352.3,"xT1":353.2,"yT1":0,"xT2":890.8,"yT2":0,"toosoon":0,"cond_shown":"equaldotanddens","ratio_trial":500,"smaller_num":"1","larger_num":"2","correct_side":2,"subjID":"javiercastro","gender":"0","age":"12","school":"6"},{"start_time":1551795579001,"click_time":1551795579765,"finger_time":1551795579585,"fix_duration":775.8624736033468,"trial":59,"RT":584,"MT":180,"sideResp":2,"stimulus":"img/500/randomdotsizeEA/R/3_Ratio_500_L_10_R_20.png","xmouse":[671,671,671,671,671,671,671,671,671,671,671,671,671,671,671,671,671,671,671,671,671,671,671,671,673,680,685,697,716,731,739,769,786,813,851,868,875,892,907],"ymouse":[409,409,409,409,409,409,409,409,409,409,409,409,409,409,409,409,409,409,409,409,409,409,409,409,401,393,386,375,355,334,323,278,256,214,163,139,129,109,91],"timestamp_mouse":[9,26,44,64,84,104,124,144,164,184,204,224,244,264,284,304,324,344,364,384,404,424,444,464,484,504,524,544,564,584,604,624,644,664,684,704,724,744,764],"xSR":622,"ySR":352.3,"xT1":353.2,"yT1":0,"xT2":890.8,"yT2":0,"toosoon":0,"cond_shown":"randomdotsizeEA","ratio_trial":500,"smaller_num":"10","larger_num":"20","correct_side":2,"subjID":"javiercastro","gender":"0","age":"12","school":"6"},{"start_time":1551795581677,"click_time":1551795582365,"finger_time":1551795582085,"fix_duration":1270.1862863718136,"trial":60,"RT":408,"MT":280,"sideResp":1,"stimulus":"img/750/equaldotanddens/L/13_Ratio_750_L_8_R_6.png","xmouse":[672,672,672,672,672,672,672,672,672,672,672,672,672,672,672,672,672,674,679,684,695,700,728,740,758,763,768,767,756,751,717,641,501,454,384],"ymouse":[381,381,381,381,381,381,381,381,381,381,381,381,381,381,381,381,381,379,369,363,345,336,291,272,237,225,204,187,172,167,154,138,119,107,87],"timestamp_mouse":[8,39,48,68,88,108,128,148,168,188,208,228,248,268,288,308,328,348,368,388,408,428,448,468,488,508,528,548,568,588,608,628,649,668,688],"xSR":622,"ySR":352.3,"xT1":353.2,"yT1":0,"xT2":890.8,"yT2":0,"toosoon":0,"cond_shown":"equaldotanddens","ratio_trial":750,"smaller_num":"6","larger_num":"8","correct_side":1,"subjID":"javiercastro","gender":"0","age":"12","school":"6"},{"start_time":1551795583989,"click_time":1551795584885,"finger_time":1551795584585,"fix_duration":862.988378781966,"trial":61,"RT":596,"MT":300,"sideResp":2,"stimulus":"img/900/equaldotanddens/R/7_Ratio_900_L_9_R_10.png","xmouse":[691,691,691,691,691,691,691,691,691,691,691,691,691,691,691,691,691,691,691,691,691,691,691,692,693,694,697,705,713,745,751,760,763,772,785,798,804,818,823,839,841,851,856,869,891],"ymouse":[399,399,399,399,399,399,399,399,399,399,399,399,399,399,399,399,399,399,399,399,399,399,399,397,393,388,382,365,353,304,292,273,264,245,219,199,189,171,162,139,137,127,123,111,93],"timestamp_mouse":[25,36,56,76,96,116,136,156,176,196,216,236,256,276,296,316,336,356,376,396,416,436,456,476,496,516,536,556,576,596,616,636,656,676,696,716,736,756,777,796,816,836,856,876,896],"xSR":622,"ySR":352.3,"xT1":353.2,"yT1":0,"xT2":890.8,"yT2":0,"toosoon":0,"cond_shown":"equaldotanddens","ratio_trial":900,"smaller_num":"9","larger_num":"10","correct_side":2,"subjID":"javiercastro","gender":"0","age":"12","school":"6"},{"start_time":1551795587102,"click_time":1551795588245,"finger_time":1551795588064,"fix_duration":1175.217481644513,"trial":62,"RT":962,"MT":181,"sideResp":1,"stimulus":"img/900/randomdotsizeEA/R/6_Ratio_900_L_9_R_10.png","xmouse":[690,690,690,690,690,690,690,690,690,690,690,690,690,690,690,690,690,690,690,690,690,690,690,690,690,690,690,690,690,690,690,690,690,690,690,690,690,690,690,690,690,690,690,690,685,674,653,644,612,578,535,507,460,419,416,414,414,414],"ymouse":[405,405,405,405,405,405,405,405,405,405,405,405,405,405,405,405,405,405,405,405,405,405,405,405,405,405,405,405,405,405,405,405,405,405,405,405,405,405,405,405,405,405,405,405,404,399,394,388,367,332,283,253,201,137,129,112,101,97],"timestamp_mouse":[8,23,43,63,83,103,123,143,163,183,203,223,243,263,283,303,323,343,363,383,403,423,443,463,483,503,523,543,563,583,603,623,643,663,683,703,723,743,763,783,803,823,843,863,883,903,923,943,962,983,1003,1023,1043,1063,1083,1103,1123,1143],"xSR":622,"ySR":352.3,"xT1":353.2,"yT1":0,"xT2":890.8,"yT2":0,"toosoon":0,"cond_shown":"randomdotsizeEA","ratio_trial":900,"smaller_num":"9","larger_num":"10","correct_side":2,"subjID":"javiercastro","gender":"0","age":"12","school":"6"},{"start_time":1551795589839,"click_time":1551795590585,"finger_time":1551795590465,"fix_duration":873.1224789641009,"trial":63,"RT":626,"MT":120,"sideResp":2,"stimulus":"img/900/equaldotanddens/L/1_Ratio_900_L_10_R_9.png","xmouse":[698,698,698,698,698,698,698,698,698,698,698,698,698,698,698,698,698,698,698,698,698,698,698,698,698,698,698,698,698,702,710,730,747,813,829,860,878,898],"ymouse":[414,414,414,414,414,414,414,414,414,414,414,414,414,414,414,414,414,414,414,414,414,414,414,414,414,414,414,414,414,414,409,391,370,256,221,149,122,84],"timestamp_mouse":[8,26,47,66,86,106,126,146,166,186,206,226,246,266,286,306,326,346,366,386,406,426,446,466,486,506,526,546,566,586,606,626,646,666,686,706,726,746],"xSR":622,"ySR":352.3,"xT1":353.2,"yT1":0,"xT2":890.8,"yT2":0,"toosoon":0,"cond_shown":"equaldotanddens","ratio_trial":900,"smaller_num":"9","larger_num":"10","correct_side":1,"subjID":"javiercastro","gender":"0","age":"12","school":"6"},{"start_time":1551795591687,"click_time":1551795593025,"finger_time":1551795592545,"fix_duration":280.25033111013073,"trial":64,"RT":858,"MT":480,"sideResp":2,"stimulus":"img/500/randomdotsizeEA/R/2_Ratio_500_L_3_R_6.png","xmouse":[659,659,659,659,659,659,659,659,659,659,659,659,659,659,659,659,659,659,659,659,659,659,659,659,659,659,659,659,659,659,659,659,659,659,659,659,659,659,660,663,668,674,747,773,813,836,860,869,871,871,872,874,877,878,878,878,878,878,878,878,878,878,878,878,879,890,899],"ymouse":[408,408,408,408,408,408,408,408,408,408,408,408,408,408,408,408,408,408,408,408,408,408,408,408,408,408,408,408,408,408,408,408,408,408,408,408,408,408,407,401,393,384,304,273,217,181,126,94,89,87,82,78,69,67,66,66,66,66,66,66,66,66,66,66,66,63,61],"timestamp_mouse":[18,44,58,78,98,118,138,158,178,198,218,238,258,278,298,318,338,358,378,398,418,438,458,478,498,518,538,558,578,598,618,638,658,678,698,718,738,758,778,798,818,838,858,878,898,918,938,958,978,998,1018,1038,1058,1078,1098,1118,1138,1158,1178,1198,1218,1238,1259,1278,1298,1318,1338],"xSR":622,"ySR":352.3,"xT1":353.2,"yT1":0,"xT2":890.8,"yT2":0,"toosoon":0,"cond_shown":"randomdotsizeEA","ratio_trial":500,"smaller_num":"3","larger_num":"6","correct_side":2,"subjID":"javiercastro","gender":"0","age":"12","school":"6"},{"start_time":1551795594739,"click_time":1551795595405,"finger_time":1551795595305,"fix_duration":852.4666733599021,"trial":65,"RT":566,"MT":100,"sideResp":2,"stimulus":"img/250/equaldotanddens/R/12_Ratio_250_L_5_R_20.png","xmouse":[691,691,691,691,691,691,691,691,691,691,691,691,691,691,691,691,691,691,691,691,691,691,691,691,691,691,691,692,717,756,782,836,884,903],"ymouse":[380,380,380,380,380,380,380,380,380,380,380,380,380,380,380,380,380,380,380,380,380,380,380,380,380,380,380,374,334,278,247,181,116,88],"timestamp_mouse":[7,26,47,66,86,106,126,146,166,186,206,226,246,266,286,306,326,346,366,386,406,426,446,466,486,506,526,546,566,586,606,626,646,666],"xSR":622,"ySR":352.3,"xT1":353.2,"yT1":0,"xT2":890.8,"yT2":0,"toosoon":0,"cond_shown":"equaldotanddens","ratio_trial":250,"smaller_num":"5","larger_num":"20","correct_side":2,"subjID":"javiercastro","gender":"0","age":"12","school":"6"},{"start_time":1551795596377,"click_time":1551795597445,"finger_time":1551795597145,"fix_duration":250,"trial":66,"RT":768,"MT":300,"sideResp":1,"stimulus":"img/900/equaldotsize/L/1_Ratio_900_L_10_R_9.png","xmouse":[688,688,688,688,688,688,688,688,688,688,688,688,688,688,688,688,688,688,688,688,689,692,695,696,696,696,696,696,696,696,696,696,696,696,693,691,677,668,637,602,551,525,475,435,424,421,411,406,381,375,370,369,369,369],"ymouse":[414,414,414,414,414,414,414,414,414,414,414,414,414,414,414,414,414,414,414,414,407,400,394,391,391,391,391,391,391,391,391,391,391,391,390,390,384,377,349,320,278,260,228,204,197,195,187,182,151,141,124,118,105,99],"timestamp_mouse":[8,28,48,68,88,108,128,148,168,188,208,228,248,267,288,309,328,348,368,388,408,428,448,468,488,508,528,548,568,588,608,628,648,668,687,708,728,748,768,788,808,827,848,868,888,908,928,948,968,988,1008,1028,1048,1068],"xSR":622,"ySR":352.3,"xT1":353.2,"yT1":0,"xT2":890.8,"yT2":0,"toosoon":0,"cond_shown":"equaldotsize","ratio_trial":900,"smaller_num":"9","larger_num":"10","correct_side":1,"subjID":"javiercastro","gender":"0","age":"12","school":"6"},{"start_time":1551795599268,"click_time":1551795599965,"finger_time":1551795599825,"fix_duration":1202.6233901235412,"trial":67,"RT":557,"MT":140,"sideResp":2,"stimulus":"img/900/equaldotsize/R/5_Ratio_900_L_9_R_10.png","xmouse":[662,662,662,662,662,662,662,662,662,662,662,662,662,662,662,662,662,662,662,662,662,662,662,662,662,662,674,706,754,783,842,903,910,917,921],"ymouse":[392,392,392,392,392,392,392,392,392,392,392,392,392,392,392,392,392,392,392,392,392,392,392,392,392,392,372,327,274,247,188,124,115,100,91],"timestamp_mouse":[17,37,57,77,97,117,137,157,177,197,217,237,257,277,297,317,337,357,377,397,417,437,457,477,497,517,537,557,577,597,617,636,657,677,697],"xSR":622,"ySR":352.3,"xT1":353.2,"yT1":0,"xT2":890.8,"yT2":0,"toosoon":0,"cond_shown":"equaldotsize","ratio_trial":900,"smaller_num":"9","larger_num":"10","correct_side":2,"subjID":"javiercastro","gender":"0","age":"12","school":"6"},{"start_time":1551795602011,"click_time":1551795604265,"finger_time":1551795603845,"fix_duration":1385.3414717056683,"trial":68,"RT":1834,"MT":420,"sideResp":1,"stimulus":"img/750/equaldotanddens/R/12_Ratio_750_L_3_R_4.png","xmouse":[661,661,661,661,661,661,661,661,661,661,661,661,661,661,661,661,661,661,661,661,661,661,661,661,661,661,661,661,661,661,661,661,661,661,661,661,661,661,661,661,661,661,661,661,661,661,661,661,661,661,661,661,661,661,661,661,661,661,661,661,661,661,661,661,661,661,661,661,661,661,661,661,661,661,661,661,661,661,661,661,661,661,661,661,661,661,661,661,654,636,626,603,578,536,525,495,486,470,457,452,450,447,447,445,442,440,438,437,435,430,428,424,423],"ymouse":[428,428,428,428,428,428,428,428,428,428,428,428,428,428,428,428,428,428,428,428,428,428,428,428,428,428,428,428,428,428,428,428,428,428,428,428,428,428,428,428,428,428,428,428,428,428,428,428,428,428,428,428,428,428,428,428,428,428,428,428,428,428,428,428,428,428,428,428,428,428,428,428,428,428,428,428,428,428,428,428,428,428,428,428,428,428,428,428,418,403,395,378,360,318,306,270,260,241,220,209,204,197,193,188,172,159,146,141,130,113,109,101,95],"timestamp_mouse":[14,34,54,74,94,114,134,154,174,194,214,234,254,274,294,314,334,354,374,394,414,434,454,474,494,514,534,554,574,594,614,634,654,674,694,714,734,754,774,794,814,834,854,874,894,914,934,954,974,994,1014,1034,1054,1074,1094,1114,1134,1154,1174,1194,1214,1234,1254,1274,1294,1314,1334,1354,1374,1394,1414,1434,1454,1474,1494,1514,1534,1554,1574,1594,1614,1634,1654,1674,1694,1714,1734,1754,1774,1794,1814,1834,1854,1874,1894,1914,1934,1954,1974,1994,2014,2034,2054,2074,2094,2114,2139,2154,2174,2194,2214,2234,2254],"xSR":622,"ySR":352.3,"xT1":353.2,"yT1":0,"xT2":890.8,"yT2":0,"toosoon":0,"cond_shown":"equaldotanddens","ratio_trial":750,"smaller_num":"3","larger_num":"4","correct_side":2,"subjID":"javiercastro","gender":"0","age":"12","school":"6"},{"start_time":1551795606371,"click_time":1551795607565,"finger_time":1551795607165,"fix_duration":1384.0334061942337,"trial":69,"RT":794,"MT":400,"sideResp":1,"stimulus":"img/250/randomdotsizeEA/L/5_Ratio_250_L_24_R_6.png","xmouse":[687,687,687,687,687,687,687,687,687,687,687,687,687,687,687,687,687,687,687,687,687,687,687,687,687,687,687,687,687,687,687,687,687,687,687,687,687,686,671,606,574,561,542,534,529,527,521,512,507,501,501,501,501,501,495,491,475,461,457,448],"ymouse":[421,421,421,421,421,421,421,421,421,421,421,421,421,421,421,421,421,421,421,421,421,421,421,421,421,421,421,421,421,421,421,421,421,421,421,421,421,412,375,217,165,147,121,110,99,94,85,75,70,64,64,64,64,64,64,65,68,72,72,72],"timestamp_mouse":[14,35,54,74,94,114,134,154,174,194,214,234,254,274,294,314,334,354,374,394,414,434,454,474,494,514,534,554,574,594,614,634,654,674,694,714,734,754,774,794,814,834,854,874,894,914,934,954,974,994,1014,1034,1054,1074,1094,1114,1134,1154,1174,1194],"xSR":622,"ySR":352.3,"xT1":353.2,"yT1":0,"xT2":890.8,"yT2":0,"toosoon":0,"cond_shown":"randomdotsizeEA","ratio_trial":250,"smaller_num":"6","larger_num":"24","correct_side":1,"subjID":"javiercastro","gender":"0","age":"12","school":"6"},{"start_time":1551795608688,"click_time":1551795609405,"finger_time":1551795609225,"fix_duration":261.1495569296425,"trial":70,"RT":537,"MT":180,"sideResp":2,"stimulus":"img/900/equaldotanddens/R/15_Ratio_900_L_9_R_10.png","xmouse":[685,685,683,683,682,681,681,681,681,681,681,681,681,681,681,681,681,681,681,681,681,681,681,684,688,702,716,723,746,772,817,833,864,886,896,946],"ymouse":[441,439,434,431,429,427,425,425,424,424,423,423,422,422,422,422,422,422,422,422,420,418,413,404,398,371,349,337,305,268,208,192,164,145,135,91],"timestamp_mouse":[18,44,57,77,97,117,137,157,177,197,217,237,257,277,297,317,337,357,377,397,417,437,457,477,497,517,537,557,577,597,617,637,657,677,697,716],"xSR":622,"ySR":352.3,"xT1":353.2,"yT1":0,"xT2":890.8,"yT2":0,"toosoon":0,"cond_shown":"equaldotanddens","ratio_trial":900,"smaller_num":"9","larger_num":"10","correct_side":2,"subjID":"javiercastro","gender":"0","age":"12","school":"6"},{"start_time":1551795611107,"click_time":1551795612105,"finger_time":1551795611725,"fix_duration":861.7360580533232,"trial":71,"RT":618,"MT":380,"sideResp":2,"stimulus":"img/900/randomdotsizeEA/R/9_Ratio_900_L_18_R_20.png","xmouse":[659,659,659,659,659,659,659,659,659,659,659,659,659,659,659,659,659,659,659,659,659,659,659,663,664,666,667,669,670,671,673,676,685,690,703,719,727,751,767,773,784,796,812,817,827,838,844,870,887,902],"ymouse":[370,370,370,370,370,370,370,370,370,370,370,370,370,370,370,370,370,370,370,370,370,370,370,367,365,364,361,359,357,356,352,344,324,314,292,264,250,215,194,187,173,159,141,135,123,110,102,83,74,67],"timestamp_mouse":[18,38,58,78,98,118,138,158,178,198,218,238,258,278,298,318,338,358,378,398,418,438,458,478,498,518,538,558,578,598,618,638,658,678,698,718,738,758,778,798,818,838,858,878,898,918,938,958,978,998],"xSR":622,"ySR":352.3,"xT1":353.2,"yT1":0,"xT2":890.8,"yT2":0,"toosoon":0,"cond_shown":"randomdotsizeEA","ratio_trial":900,"smaller_num":"18","larger_num":"20","correct_side":2,"subjID":"javiercastro","gender":"0","age":"12","school":"6"},{"start_time":1551795613217,"click_time":1551795614125,"finger_time":1551795613965,"fix_duration":250,"trial":72,"RT":748,"MT":160,"sideResp":2,"stimulus":"img/900/equaldotanddens/R/7_Ratio_900_L_9_R_10.png","xmouse":[681,681,681,681,681,681,681,681,681,681,681,681,681,681,681,681,681,681,681,681,681,681,681,681,681,681,681,681,681,681,681,681,681,681,682,686,696,704,728,781,831,855,899,915,942,943],"ymouse":[387,387,387,387,387,387,387,387,387,387,387,387,387,387,387,387,387,387,387,387,387,387,387,387,387,387,387,387,387,387,387,387,387,387,386,378,359,349,320,260,207,185,143,129,102,99],"timestamp_mouse":[15,34,48,68,88,108,128,148,168,188,208,228,248,268,288,308,328,348,368,388,408,428,448,468,488,508,528,548,568,588,608,628,648,668,688,708,728,748,768,788,808,828,848,868,888,908],"xSR":622,"ySR":352.3,"xT1":353.2,"yT1":0,"xT2":890.8,"yT2":0,"toosoon":0,"cond_shown":"equaldotanddens","ratio_trial":900,"smaller_num":"9","larger_num":"10","correct_side":2,"subjID":"javiercastro","gender":"0","age":"12","school":"6"},{"start_time":1551795616334,"click_time":1551795616988,"finger_time":1551795616889,"fix_duration":1383.260132866232,"trial":73,"RT":555,"MT":99,"sideResp":1,"stimulus":"img/250/randomdotsizeEA/L/5_Ratio_250_L_24_R_6.png","xmouse":[677,677,677,677,677,677,677,677,677,677,677,677,677,677,677,677,677,677,677,677,677,677,677,677,677,677,672,629,600,532,498,380,368],"ymouse":[383,383,383,383,383,383,383,383,383,383,383,383,383,383,383,383,383,383,383,383,383,383,383,383,383,383,381,340,319,266,240,121,96],"timestamp_mouse":[27,35,55,75,95,115,135,155,175,195,215,235,255,275,295,315,335,355,375,395,415,435,455,475,495,515,535,555,575,595,615,635,654],"xSR":622,"ySR":352.3,"xT1":353.2,"yT1":0,"xT2":890.8,"yT2":0,"toosoon":0,"cond_shown":"randomdotsizeEA","ratio_trial":250,"smaller_num":"6","larger_num":"24","correct_side":1,"subjID":"javiercastro","gender":"0","age":"12","school":"6"},{"start_time":1551795618041,"click_time":1551795619209,"finger_time":1551795618809,"fix_duration":250,"trial":74,"RT":768,"MT":400,"sideResp":2,"stimulus":"img/750/equaldotsize/R/7_Ratio_750_L_3_R_4.png","xmouse":[660,660,660,660,660,660,660,660,660,660,660,660,660,660,660,660,660,660,660,660,660,660,660,660,660,660,660,660,660,660,660,660,660,660,660,662,671,682,781,809,868,889,910,929,940,946,962,979,999,1004,1007,1008,1008,1008,1008,1008,1008,1000,973],"ymouse":[414,414,414,414,414,414,414,414,414,414,414,414,414,414,414,414,414,414,414,414,414,414,414,