[{"start_time":1551794061927,"click_time":1551794068094,"finger_time":1551794061937,"fix_duration":647.4280227915715,"trial":0,"RT":10,"MT":6157,"sideResp":2,"stimulus":[],"xmouse":[801,801,801,801,801,801,801,801,801,801,801,801,801,801,801,801,801,801,801,801,801,801,801,801,801,801,801,801,801,801,801,801,801,801,801,801,801,801,801,801,801,801,801,801,801,801,801,801,801,801,801,801,801,801,801,801,801,801,801,801,801,801,801,801,801,801,801,801,801,801,801,801,801,799,795,794,793,792,792,791,791,791,791,791,791,791,791,791,791,791,791,791,791,791,791,791,791,791,791,791,791,791,791,791,791,791,790,789,789,789,789,789,789,789,789,789,789,789,789,789,789,789,789,789,789,789,789,789,789,789,789,789,789,789,789,789,789,789,789,789,789,789,789,789,789,789,789,789,789,789,789,789,789,789,789,789,789,789,789,789,789,789,789,789,789,789,789,789,789,789,789,789,789,789,789,789,789,789,789,789,789,789,790,792,794,794,795,796,798,800,803,809,820,830,855,887,945,1100,1181,1240,1268,1286,1362,1398,1415,1421,1421,1416,1404,1388,1372,1355,1319,1283,1261,1238,1219,1194,1184,1176,1163,1146,1117,1106,1098,1092,1076,1021,984,961,941,928,910,893,876,862,858,858,858,858,858,858,858,858,858,857,855,836,820,806,803,802,800,799,799,799,799,799,799,799,799,799,799,800,800,800,800,800,800,800,800,800,801,801,801,802,804,811,828,863,910,959,1024,1031,1051,1061,1070,1077,1089,1093,1094,1096,1097,1097,1096,1096,1096,1097,1098,1099,1099,1099,1097,1094,1087,1086,1086,1086,1085],"ymouse":[578,578,578,578,578,578,578,578,578,578,578,578,578,578,578,578,578,578,578,578,578,578,578,578,578,578,578,578,578,578,578,578,578,575,574,572,571,571,571,571,571,571,571,570,567,566,565,564,564,564,564,563,561,561,561,559,559,559,559,559,559,559,559,559,559,559,559,559,559,559,559,559,555,538,516,505,497,486,482,480,476,475,475,475,475,475,475,475,475,475,475,475,475,475,475,475,475,475,475,475,475,475,475,475,475,475,476,477,477,477,477,477,477,477,477,477,477,477,477,477,477,477,477,477,477,477,477,477,477,477,477,477,477,477,477,477,477,477,477,477,477,477,477,477,477,477,477,477,477,477,477,477,477,477,477,477,477,477,477,477,477,477,477,477,477,477,477,477,477,477,477,477,477,477,477,477,477,476,475,475,475,475,474,471,469,469,468,467,465,462,460,457,452,450,446,442,438,438,445,459,474,487,548,574,586,589,589,595,599,601,603,606,606,606,606,606,608,612,614,615,617,619,621,623,623,623,620,596,584,577,572,568,562,556,550,546,545,545,545,545,545,545,545,545,545,545,544,542,540,538,537,537,536,536,536,536,536,536,536,534,533,532,532,531,531,531,531,531,531,531,531,530,528,527,527,526,524,519,514,504,487,463,415,405,375,354,333,314,270,249,235,223,189,182,176,170,164,143,136,127,122,118,107,105,100,100,100,100,99],"timestamp_mouse":[9,27,49,68,87,108,127,147,168,189,207,228,248,268,288,307,328,347,368,388,409,428,448,467,488,507,527,547,569,588,608,628,648,668,687,708,729,747,768,787,808,828,847,867,887,907,928,948,967,987,1007,1029,1047,1068,1089,1107,1127,1148,1167,1188,1208,1228,1247,1268,1287,1307,1328,1348,1368,1388,1407,1427,1447,1467,1487,1507,1528,1547,1567,1587,1607,1628,1648,1667,1687,1709,1727,1747,1769,1787,1808,1829,1847,1867,1888,1907,1927,1947,1969,1988,2009,2029,2048,2068,2087,2108,2127,2147,2168,2188,2207,2227,2248,2268,2289,2308,2327,2348,2367,2388,2407,2427,2448,2469,2488,2508,2528,2547,2567,2588,2607,2629,2649,2667,2687,2709,2728,2747,2768,2789,2808,2827,2848,2867,2888,2907,2927,2948,2969,2987,3007,3027,3047,3068,3088,3107,3127,3148,3167,3187,3208,3227,3247,3267,3289,3309,3328,3347,3369,3387,3409,3428,3447,3467,3488,3508,3528,3548,3568,3588,3607,3628,3647,3668,3688,3707,3728,3747,3767,3787,3808,3827,3847,3868,3887,3908,3927,3947,3967,3987,4007,4028,4048,4068,4087,4107,4127,4147,4167,4187,4208,4228,4247,4267,4287,4307,4328,4347,4367,4387,4408,4427,4448,4467,4487,4507,4527,4547,4567,4587,4607,4628,4647,4667,4687,4707,4728,4748,4767,4787,4807,4828,4848,4868,4887,4908,4928,4947,4967,4987,5008,5027,5047,5069,5087,5107,5129,5147,5167,5188,5208,5227,5247,5267,5287,5308,5328,5349,5367,5387,5408,5428,5448,5468,5488,5507,5528,5547,5567,5587,5607,5628,5648,5668,5687,5707,5727,5747,5767,5787,5808,5829,5848,5869,5887,5907,5928,5947,5967,5988,6007,6028,6047,6068,6087,6107,6128,6147,6167],"xSR":741.5,"ySR":501.8,"xT1":424.9,"yT1":0,"xT2":1058.1,"yT2":0,"toosoon":0,"cond_shown":"Incongruent","ratio_trial":300,"L_num":3,"L_den":6,"R_num":4,"R_den":20,"correct_side":1,"subjID":"jhoansantiagocortescortes1","gender":"0","age":"11","school":"6","test":{"fix_dur":[250,1500],"timestim":1000,"targets_dim":[100,100],"targets_relative_coord":[0.3,0.7],"size_stim":[880,420],"start_dim":[100,100],"size_start":[300,300],"size_fix":60,"samplingrate":20,"img_types":["Congruent","Incongruent"],"ratios":[100,200,300],"rep_conds":19,"nTrials":120,"trials_to_rest":500,"Trials_order":[5,16,27,25,53,71,119,63,4,92,97,80,54,0,7,111,85,26,98,8,110,23,39,67,47,36,116,112,76,35,42,86,56,52,48,12,81,61,90,24,109,17,96,73,11,118,95,30,21,74,6,50,113,58,3,115,93,2,40,65,32,108,51,14,45,20,18,37,13,60,41,59,62,9,70,33,103,89,107,99,88,106,79,94,43,55,105,31,75,114,57,78,84,101,66,44,72,77,29,34,49,117,38,87,15,91,64,69,46,100,104,22,1,19,83,68,102,10,28,82],"cond_shown":["Incongruent","Congruent","Incongruent","Incongruent","Incongruent","Incongruent","Incongruent","Incongruent","Congruent","Congruent","Incongruent","Congruent","Congruent","Congruent","Incongruent","Incongruent","Incongruent","Congruent","Congruent","Congruent","Congruent","Incongruent","Incongruent","Incongruent","Incongruent","Congruent","Congruent","Congruent","Congruent","Incongruent","Congruent","Congruent","Congruent","Congruent","Congruent","Congruent","Incongruent","Incongruent","Congruent","Congruent","Incongruent","Incongruent","Congruent","Incongruent","Incongruent","Congruent","Incongruent","Congruent","Incongruent","Congruent","Congruent","Congruent","Incongruent","Congruent","Incongruent","Incongruent","Incongruent","Congruent","Congruent","Incongruent","Congruent","Congruent","Incongruent","Congruent","Incongruent","Congruent","Congruent","Incongruent","Incongruent","Congruent","Incongruent","Incongruent","Congruent","Incongruent","Congruent","Incongruent","Incongruent","Incongruent","Incongruent","Incongruent","Congruent","Congruent","Incongruent","Congruent","Incongruent","Incongruent","Incongruent","Incongruent","Incongruent","Congruent","Incongruent","Congruent","Congruent","Incongruent","Congruent","Congruent","Congruent","Incongruent","Incongruent","Congruent","Incongruent","Incongruent","Congruent","Incongruent","Incongruent","Incongruent","Congruent","Incongruent","Congruent","Congruent","Congruent","Congruent","Incongruent","Incongruent","Incongruent","Congruent","Congruent","Congruent","Congruent","Congruent"],"ratio_trial":[300,300,200,100,300,300,300,200,300,200,100,200,100,100,100,200,100,200,200,200,200,300,200,100,300,100,200,300,300,300,100,200,200,300,100,100,200,100,100,100,100,300,100,100,300,300,300,100,200,200,100,200,300,300,200,100,200,200,300,300,200,100,200,200,200,200,100,100,100,100,300,300,200,200,300,200,100,300,300,200,300,300,100,300,100,100,200,100,200,100,200,100,100,300,100,200,100,300,300,300,100,200,200,200,200,100,300,200,300,300,200,300,100,100,300,200,100,300,300,300],"left_num":[3,12,4,8,13,1,4,4,8,1,17,16,4,15,6,1,9,12,1,1,7,4,4,3,13,8,3,2,3,4,4,4,20,4,2,11,7,8,10,3,8,7,4,13,4,4,4,11,7,4,8,4,4,20,4,13,4,6,3,4,16,15,7,14,7,16,15,9,3,10,1,1,3,4,5,4,17,13,4,3,24,9,8,11,6,9,3,2,7,2,14,2,10,13,15,16,12,3,4,5,9,7,7,4,7,11,4,3,12,4,14,8,13,10,13,3,8,1,3,2],"right_num":[4,2,6,1,12,2,2,1,1,21,10,12,15,13,13,2,6,6,21,21,18,2,6,8,12,2,14,10,2,2,15,3,9,2,11,6,6,6,3,2,6,8,6,12,2,1,8,4,14,3,2,3,2,13,14,6,14,11,2,2,9,13,14,6,6,12,13,6,7,3,2,2,7,1,6,1,10,12,8,1,8,3,6,2,11,14,1,8,6,6,6,11,3,12,13,12,13,4,2,7,14,6,18,1,12,9,13,11,2,1,6,1,12,9,12,7,2,6,2,10],"left_den":[6,24,5,20,26,2,20,30,16,2,30,20,10,25,10,3,18,20,2,2,15,20,5,5,26,16,6,20,6,20,10,10,25,5,5,22,15,16,25,6,16,10,8,26,20,10,5,22,10,10,16,10,20,25,6,26,6,20,6,20,30,25,10,28,15,20,25,18,9,25,2,2,10,30,25,30,30,26,5,10,30,10,16,22,10,15,10,4,15,5,30,5,25,26,25,20,30,6,20,25,15,15,15,30,10,22,20,4,24,10,28,16,26,25,26,10,16,5,6,20],"right_den":[20,10,10,2,15,10,4,3,5,30,15,20,30,26,26,15,10,15,30,30,27,4,10,16,15,5,20,25,10,4,30,15,15,4,22,15,9,10,10,5,10,20,10,20,4,10,16,10,28,15,5,15,4,26,30,10,30,22,10,4,27,26,28,20,9,20,26,10,30,10,10,10,14,3,12,3,15,15,16,2,16,5,10,10,22,28,2,20,9,12,9,22,10,15,26,20,26,20,4,14,28,9,27,3,24,15,26,20,10,10,20,5,20,18,15,14,5,12,10,25],"correct_side":[1,1,1,2,2,1,2,2,1,2,2,1,2,1,1,1,2,1,2,2,2,2,1,1,2,1,2,2,1,2,2,1,1,1,2,1,2,2,1,1,2,1,2,2,2,1,1,1,1,1,1,1,2,1,1,2,1,2,1,2,1,1,1,1,2,1,1,2,1,1,1,1,2,2,2,2,2,2,1,2,1,1,2,1,1,1,2,1,2,2,2,2,1,2,1,1,2,1,2,2,1,2,2,2,1,2,2,1,1,1,1,1,2,2,2,2,1,2,1,2],"img_shown":["img2/300/Incongruent/L/I_Dist_300_LN_3_LD_6_RN_4_RD_20_0.png","img2/300/Congruent/L/C_Dist_300_LN_12_LD_24_RN_2_RD_10_0.png","img2/200/Incongruent/L/I_Dist_200_LN_4_LD_5_RN_6_RD_10_0.png","img2/100/Incongruent/R/I_Dist_100_LN_8_LD_20_RN_1_RD_2_1.png","img2/300/Incongruent/R/I_Dist_300_LN_13_LD_26_RN_12_RD_15_1.png","img2/300/Incongruent/L/I_Dist_300_LN_1_LD_2_RN_2_RD_10_0.png","img2/300/Incongruent/R/I_Dist_300_LN_4_LD_20_RN_2_RD_4_1.png","img2/200/Incongruent/R/I_Dist_200_LN_4_LD_30_RN_1_RD_3_1.png","img2/300/Congruent/L/C_Dist_300_LN_8_LD_16_RN_1_RD_5_0.png","img2/200/Congruent/R/C_Dist_200_LN_1_LD_2_RN_21_RD_30_1.png","img2/100/Incongruent/R/I_Dist_100_LN_17_LD_30_RN_10_RD_15_1.png","img2/200/Congruent/L/C_Dist_200_LN_16_LD_20_RN_12_RD_20_0.png","img2/100/Congruent/R/C_Dist_100_LN_4_LD_10_RN_15_RD_30_1.png","img2/100/Congruent/L/C_Dist_100_LN_15_LD_25_RN_13_RD_26_0.png","img2/100/Incongruent/L/I_Dist_100_LN_6_LD_10_RN_13_RD_26_0.png","img2/200/Incongruent/L/I_Dist_200_LN_1_LD_3_RN_2_RD_15_0.png","img2/100/Incongruent/R/I_Dist_100_LN_9_LD_18_RN_6_RD_10_1.png","img2/200/Congruent/L/C_Dist_200_LN_12_LD_20_RN_6_RD_15_0.png","img2/200/Congruent/R/C_Dist_200_LN_1_LD_2_RN_21_RD_30_1.png","img2/200/Congruent/R/C_Dist_200_LN_1_LD_2_RN_21_RD_30_1.png","img2/200/Congruent/R/C_Dist_200_LN_7_LD_15_RN_18_RD_27_1.png","img2/300/Incongruent/R/I_Dist_300_LN_4_LD_20_RN_2_RD_4_1.png","img2/200/Incongruent/L/I_Dist_200_LN_4_LD_5_RN_6_RD_10_0.png","img2/100/Incongruent/L/I_Dist_100_LN_3_LD_5_RN_8_RD_16_0.png","img2/300/Incongruent/R/I_Dist_300_LN_13_LD_26_RN_12_RD_15_1.png","img2/100/Congruent/L/C_Dist_100_LN_8_LD_16_RN_2_RD_5_0.png","img2/200/Congruent/R/C_Dist_200_LN_3_LD_6_RN_14_RD_20_1.png","img2/300/Congruent/R/C_Dist_300_LN_2_LD_20_RN_10_RD_25_1.png","img2/300/Congruent/L/C_Dist_300_LN_3_LD_6_RN_2_RD_10_0.png","img2/300/Incongruent/R/I_Dist_300_LN_4_LD_20_RN_2_RD_4_1.png","img2/100/Congruent/R/C_Dist_100_LN_4_LD_10_RN_15_RD_30_1.png","img2/200/Congruent/L/C_Dist_200_LN_4_LD_10_RN_3_RD_15_0.png","img2/200/Congruent/L/C_Dist_200_LN_20_LD_25_RN_9_RD_15_0.png","img2/300/Congruent/L/C_Dist_300_LN_4_LD_5_RN_2_RD_4_0.png","img2/100/Congruent/R/C_Dist_100_LN_2_LD_5_RN_11_RD_22_1.png","img2/100/Congruent/L/C_Dist_100_LN_11_LD_22_RN_6_RD_15_0.png","img2/200/Incongruent/R/I_Dist_200_LN_7_LD_15_RN_6_RD_9_1.png","img2/100/Incongruent/R/I_Dist_100_LN_8_LD_16_RN_6_RD_10_1.png","img2/100/Congruent/L/C_Dist_100_LN_10_LD_25_RN_3_RD_10_0.png","img2/100/Congruent/L/C_Dist_100_LN_3_LD_6_RN_2_RD_5_0.png","img2/100/Incongruent/R/I_Dist_100_LN_8_LD_16_RN_6_RD_10_1.png","img2/300/Incongruent/L/I_Dist_300_LN_7_LD_10_RN_8_RD_20_0.png","img2/100/Congruent/R/C_Dist_100_LN_4_LD_8_RN_6_RD_10_1.png","img2/100/Incongruent/R/I_Dist_100_LN_13_LD_26_RN_12_RD_20_1.png","img2/300/Incongruent/R/I_Dist_300_LN_4_LD_20_RN_2_RD_4_1.png","img2/300/Congruent/L/C_Dist_300_LN_4_LD_10_RN_1_RD_10_0.png","img2/300/Incongruent/L/I_Dist_300_LN_4_LD_5_RN_8_RD_16_0.png","img2/100/Congruent/L/C_Dist_100_LN_11_LD_22_RN_4_RD_10_0.png","img2/200/Incongruent/L/I_Dist_200_LN_7_LD_10_RN_14_RD_28_0.png","img2/200/Congruent/L/C_Dist_200_LN_4_LD_10_RN_3_RD_15_0.png","img2/100/Congruent/L/C_Dist_100_LN_8_LD_16_RN_2_RD_5_0.png","img2/200/Congruent/L/C_Dist_200_LN_4_LD_10_RN_3_RD_15_0.png","img2/300/Incongruent/R/I_Dist_300_LN_4_LD_20_RN_2_RD_4_1.png","img2/300/Congruent/L/C_Dist_300_LN_20_LD_25_RN_13_RD_26_0.png","img2/200/Incongruent/L/I_Dist_200_LN_4_LD_6_RN_14_RD_30_0.png","img2/100/Incongruent/R/I_Dist_100_LN_13_LD_26_RN_6_RD_10_1.png","img2/200/Incongruent/L/I_Dist_200_LN_4_LD_6_RN_14_RD_30_0.png","img2/200/Congruent/R/C_Dist_200_LN_6_LD_20_RN_11_RD_22_1.png","img2/300/Congruent/L/C_Dist_300_LN_3_LD_6_RN_2_RD_10_0.png","img2/300/Incongruent/R/I_Dist_300_LN_4_LD_20_RN_2_RD_4_1.png","img2/200/Congruent/L/C_Dist_200_LN_16_LD_30_RN_9_RD_27_0.png","img2/100/Congruent/L/C_Dist_100_LN_15_LD_25_RN_13_RD_26_0.png","img2/200/Incongruent/L/I_Dist_200_LN_7_LD_10_RN_14_RD_28_0.png","img2/200/Congruent/L/C_Dist_200_LN_14_LD_28_RN_6_RD_20_0.png","img2/200/Incongruent/R/I_Dist_200_LN_7_LD_15_RN_6_RD_9_1.png","img2/200/Congruent/L/C_Dist_200_LN_16_LD_20_RN_12_RD_20_0.png","img2/100/Congruent/L/C_Dist_100_LN_15_LD_25_RN_13_RD_26_0.png","img2/100/Incongruent/R/I_Dist_100_LN_9_LD_18_RN_6_RD_10_1.png","img2/100/Incongruent/L/I_Dist_100_LN_3_LD_9_RN_7_RD_30_0.png","img2/100/Congruent/L/C_Dist_100_LN_10_LD_25_RN_3_RD_10_0.png","img2/300/Incongruent/L/I_Dist_300_LN_1_LD_2_RN_2_RD_10_0.png","img2/300/Incongruent/L/I_Dist_300_LN_1_LD_2_RN_2_RD_10_0.png","img2/200/Congruent/R/C_Dist_200_LN_3_LD_10_RN_7_RD_14_1.png","img2/200/Incongruent/R/I_Dist_200_LN_4_LD_30_RN_1_RD_3_1.png","img2/300/Congruent/R/C_Dist_300_LN_5_LD_25_RN_6_RD_12_1.png","img2/200/Incongruent/R/I_Dist_200_LN_4_LD_30_RN_1_RD_3_1.png","img2/100/Incongruent/R/I_Dist_100_LN_17_LD_30_RN_10_RD_15_1.png","img2/300/Incongruent/R/I_Dist_300_LN_13_LD_26_RN_12_RD_15_1.png","img2/300/Incongruent/L/I_Dist_300_LN_4_LD_5_RN_8_RD_16_0.png","img2/200/Incongruent/R/I_Dist_200_LN_3_LD_10_RN_1_RD_2_1.png","img2/300/Congruent/L/C_Dist_300_LN_24_LD_30_RN_8_RD_16_0.png","img2/300/Congruent/L/C_Dist_300_LN_9_LD_10_RN_3_RD_5_0.png","img2/100/Incongruent/R/I_Dist_100_LN_8_LD_16_RN_6_RD_10_1.png","img2/300/Congruent/L/C_Dist_300_LN_11_LD_22_RN_2_RD_10_0.png","img2/100/Incongruent/L/I_Dist_100_LN_6_LD_10_RN_11_RD_22_0.png","img2/100/Incongruent/L/I_Dist_100_LN_9_LD_15_RN_14_RD_28_0.png","img2/200/Incongruent/R/I_Dist_200_LN_3_LD_10_RN_1_RD_2_1.png","img2/100/Incongruent/L/I_Dist_100_LN_2_LD_4_RN_8_RD_20_0.png","img2/200/Incongruent/R/I_Dist_200_LN_7_LD_15_RN_6_RD_9_1.png","img2/100/Congruent/R/C_Dist_100_LN_2_LD_5_RN_6_RD_12_1.png","img2/200/Incongruent/R/I_Dist_200_LN_14_LD_30_RN_6_RD_9_1.png","img2/100/Congruent/R/C_Dist_100_LN_2_LD_5_RN_11_RD_22_1.png","img2/100/Congruent/L/C_Dist_100_LN_10_LD_25_RN_3_RD_10_0.png","img2/300/Incongruent/R/I_Dist_300_LN_13_LD_26_RN_12_RD_15_1.png","img2/100/Congruent/L/C_Dist_100_LN_15_LD_25_RN_13_RD_26_0.png","img2/200/Congruent/L/C_Dist_200_LN_16_LD_20_RN_12_RD_20_0.png","img2/100/Congruent/R/C_Dist_100_LN_12_LD_30_RN_13_RD_26_1.png","img2/300/Incongruent/L/I_Dist_300_LN_3_LD_6_RN_4_RD_20_0.png","img2/300/Incongruent/R/I_Dist_300_LN_4_LD_20_RN_2_RD_4_1.png","img2/300/Congruent/R/C_Dist_300_LN_5_LD_25_RN_7_RD_14_1.png","img2/100/Incongruent/L/I_Dist_100_LN_9_LD_15_RN_14_RD_28_0.png","img2/200/Incongruent/R/I_Dist_200_LN_7_LD_15_RN_6_RD_9_1.png","img2/200/Congruent/R/C_Dist_200_LN_7_LD_15_RN_18_RD_27_1.png","img2/200/Incongruent/R/I_Dist_200_LN_4_LD_30_RN_1_RD_3_1.png","img2/200/Incongruent/L/I_Dist_200_LN_7_LD_10_RN_12_RD_24_0.png","img2/100/Incongruent/R/I_Dist_100_LN_11_LD_22_RN_9_RD_15_1.png","img2/300/Congruent/R/C_Dist_300_LN_4_LD_20_RN_13_RD_26_1.png","img2/200/Incongruent/L/I_Dist_200_LN_3_LD_4_RN_11_RD_20_0.png","img2/300/Congruent/L/C_Dist_300_LN_12_LD_24_RN_2_RD_10_0.png","img2/300/Congruent/L/C_Dist_300_LN_4_LD_10_RN_1_RD_10_0.png","img2/200/Congruent/L/C_Dist_200_LN_14_LD_28_RN_6_RD_20_0.png","img2/300/Congruent/L/C_Dist_300_LN_8_LD_16_RN_1_RD_5_0.png","img2/100/Incongruent/R/I_Dist_100_LN_13_LD_26_RN_12_RD_20_1.png","img2/100/Incongruent/R/I_Dist_100_LN_10_LD_25_RN_9_RD_18_1.png","img2/300/Incongruent/R/I_Dist_300_LN_13_LD_26_RN_12_RD_15_1.png","img2/200/Congruent/R/C_Dist_200_LN_3_LD_10_RN_7_RD_14_1.png","img2/100/Congruent/L/C_Dist_100_LN_8_LD_16_RN_2_RD_5_0.png","img2/300/Congruent/R/C_Dist_300_LN_1_LD_5_RN_6_RD_12_1.png","img2/300/Congruent/L/C_Dist_300_LN_3_LD_6_RN_2_RD_10_0.png","img2/300/Congruent/R/C_Dist_300_LN_2_LD_20_RN_10_RD_25_1.png"],"dist100_C":[["C_Dist_100_LN_10_LD_25_RN_3_RD_10_0.png","C_Dist_100_LN_11_LD_22_RN_4_RD_10_0.png","C_Dist_100_LN_11_LD_22_RN_6_RD_15_0.png","C_Dist_100_LN_15_LD_25_RN_13_RD_26_0.png","C_Dist_100_LN_3_LD_6_RN_2_RD_5_0.png","C_Dist_100_LN_6_LD_20_RN_5_RD_25_0.png","C_Dist_100_LN_8_LD_16_RN_2_RD_5_0.png","C_Dist_100_LN_9_LD_15_RN_8_RD_16_0.png"],["C_Dist_100_LN_1_LD_2_RN_18_RD_30_1.png","C_Dist_100_LN_1_LD_2_RN_3_RD_5_1.png","C_Dist_100_LN_12_LD_30_RN_13_RD_26_1.png","C_Dist_100_LN_2_LD_5_RN_11_RD_22_1.png","C_Dist_100_LN_2_LD_5_RN_6_RD_12_1.png","C_Dist_100_LN_3_LD_20_RN_4_RD_16_1.png","C_Dist_100_LN_4_LD_10_RN_15_RD_30_1.png","C_Dist_100_LN_4_LD_8_RN_6_RD_10_1.png","C_Dist_100_LN_6_LD_12_RN_15_RD_25_1.png","C_Dist_100_LN_7_LD_14_RN_15_RD_25_1.png","C_Dist_100_LN_7_LD_14_RN_9_RD_15_1.png"]],"dist100_I":[["I_Dist_100_LN_1_LD_2_RN_8_RD_20_0.png","I_Dist_100_LN_2_LD_4_RN_6_RD_15_0.png","I_Dist_100_LN_2_LD_4_RN_8_RD_20_0.png","I_Dist_100_LN_3_LD_5_RN_11_RD_22_0.png","I_Dist_100_LN_3_LD_5_RN_8_RD_16_0.png","I_Dist_100_LN_3_LD_6_RN_4_RD_10_0.png","I_Dist_100_LN_3_LD_9_RN_7_RD_30_0.png","I_Dist_100_LN_4_LD_8_RN_8_RD_20_0.png","I_Dist_100_LN_6_LD_10_RN_11_RD_22_0.png","I_Dist_100_LN_6_LD_10_RN_13_RD_26_0.png","I_Dist_100_LN_6_LD_10_RN_7_RD_14_0.png","I_Dist_100_LN_9_LD_10_RN_20_RD_25_0.png","I_Dist_100_LN_9_LD_15_RN_13_RD_26_0.png","I_Dist_100_LN_9_LD_15_RN_14_RD_28_0.png"],["I_Dist_100_LN_10_LD_25_RN_8_RD_16_1.png","I_Dist_100_LN_10_LD_25_RN_9_RD_18_1.png","I_Dist_100_LN_11_LD_22_RN_9_RD_15_1.png","I_Dist_100_LN_12_LD_24_RN_9_RD_15_1.png","I_Dist_100_LN_12_LD_30_RN_2_RD_4_1.png","I_Dist_100_LN_13_LD_26_RN_12_RD_20_1.png","I_Dist_100_LN_13_LD_26_RN_6_RD_10_1.png","I_Dist_100_LN_17_LD_30_RN_10_RD_15_1.png","I_Dist_100_LN_6_LD_12_RN_3_RD_5_1.png","I_Dist_100_LN_8_LD_16_RN_6_RD_10_1.png","I_Dist_100_LN_8_LD_20_RN_1_RD_2_1.png","I_Dist_100_LN_9_LD_18_RN_6_RD_10_1.png"]],"dist100_S":[["E_Dist_100_LN_2_LD_12_RN_2_RD_30_0.png","E_Dist_100_LN_6_LD_10_RN_6_RD_12_0.png"],["E_Dist_100_LN_6_LD_12_RN_6_RD_10_1.png"]],"dist200_C":[["C_Dist_200_LN_11_LD_22_RN_3_RD_10_0.png","C_Dist_200_LN_12_LD_15_RN_6_RD_10_0.png","C_Dist_200_LN_12_LD_20_RN_6_RD_15_0.png","C_Dist_200_LN_14_LD_28_RN_6_RD_20_0.png","C_Dist_200_LN_15_LD_25_RN_4_RD_10_0.png","C_Dist_200_LN_16_LD_20_RN_12_RD_20_0.png","C_Dist_200_LN_16_LD_30_RN_9_RD_27_0.png","C_Dist_200_LN_20_LD_25_RN_9_RD_15_0.png","C_Dist_200_LN_21_LD_30_RN_2_RD_4_0.png","C_Dist_200_LN_4_LD_10_RN_3_RD_15_0.png","C_Dist_200_LN_4_LD_8_RN_3_RD_10_0.png","C_Dist_200_LN_6_LD_15_RN_3_RD_15_0.png","C_Dist_200_LN_7_LD_21_RN_2_RD_15_0.png","C_Dist_200_LN_8_LD_15_RN_2_RD_6_0.png","C_Dist_200_LN_8_LD_15_RN_3_RD_9_0.png","C_Dist_200_LN_8_LD_15_RN_7_RD_21_0.png","C_Dist_200_LN_9_LD_20_RN_4_RD_16_0.png"],["C_Dist_200_LN_1_LD_2_RN_21_RD_30_1.png","C_Dist_200_LN_13_LD_26_RN_14_RD_20_1.png","C_Dist_200_LN_3_LD_10_RN_11_RD_22_1.png","C_Dist_200_LN_3_LD_10_RN_14_RD_28_1.png","C_Dist_200_LN_3_LD_10_RN_7_RD_14_1.png","C_Dist_200_LN_3_LD_12_RN_9_RD_20_1.png","C_Dist_200_LN_3_LD_6_RN_14_RD_20_1.png","C_Dist_200_LN_5_LD_10_RN_14_RD_20_1.png","C_Dist_200_LN_6_LD_12_RN_7_RD_10_1.png","C_Dist_200_LN_6_LD_20_RN_11_RD_22_1.png","C_Dist_200_LN_7_LD_15_RN_18_RD_27_1.png","C_Dist_200_LN_9_LD_30_RN_13_RD_26_1.png"]],"dist200_I":[["I_Dist_200_LN_1_LD_2_RN_3_RD_10_0.png","I_Dist_200_LN_1_LD_3_RN_2_RD_15_0.png","I_Dist_200_LN_3_LD_4_RN_11_RD_20_0.png","I_Dist_200_LN_4_LD_5_RN_6_RD_10_0.png","I_Dist_200_LN_4_LD_6_RN_14_RD_30_0.png","I_Dist_200_LN_7_LD_10_RN_12_RD_24_0.png","I_Dist_200_LN_7_LD_10_RN_14_RD_28_0.png","I_Dist_200_LN_7_LD_10_RN_8_RD_16_0.png"],["I_Dist_200_LN_11_LD_20_RN_3_RD_4_1.png","I_Dist_200_LN_14_LD_30_RN_12_RD_18_1.png","I_Dist_200_LN_14_LD_30_RN_6_RD_9_1.png","I_Dist_200_LN_3_LD_10_RN_1_RD_2_1.png","I_Dist_200_LN_4_LD_30_RN_1_RD_3_1.png","I_Dist_200_LN_6_LD_20_RN_3_RD_6_1.png","I_Dist_200_LN_7_LD_15_RN_4_RD_6_1.png","I_Dist_200_LN_7_LD_15_RN_6_RD_9_1.png","I_Dist_200_LN_9_LD_15_RN_8_RD_10_1.png"]],"dist200_S":[["E_Dist_200_LN_3_LD_6_RN_3_RD_10_0.png"],["E_Dist_200_LN_3_LD_10_RN_3_RD_6_1.png"]],"dist300_C":[["C_Dist_300_LN_11_LD_22_RN_1_RD_5_0.png","C_Dist_300_LN_11_LD_22_RN_2_RD_10_0.png","C_Dist_300_LN_11_LD_22_RN_4_RD_20_0.png","C_Dist_300_LN_12_LD_24_RN_2_RD_10_0.png","C_Dist_300_LN_18_LD_20_RN_9_RD_15_0.png","C_Dist_300_LN_20_LD_25_RN_13_RD_26_0.png","C_Dist_300_LN_20_LD_25_RN_14_RD_28_0.png","C_Dist_300_LN_20_LD_25_RN_5_RD_10_0.png","C_Dist_300_LN_20_LD_25_RN_8_RD_16_0.png","C_Dist_300_LN_20_LD_25_RN_9_RD_18_0.png","C_Dist_300_LN_24_LD_30_RN_2_RD_4_0.png","C_Dist_300_LN_24_LD_30_RN_8_RD_16_0.png","C_Dist_300_LN_3_LD_6_RN_2_RD_10_0.png","C_Dist_300_LN_4_LD_10_RN_1_RD_10_0.png","C_Dist_300_LN_4_LD_5_RN_2_RD_4_0.png","C_Dist_300_LN_8_LD_16_RN_1_RD_5_0.png","C_Dist_300_LN_9_LD_10_RN_3_RD_5_0.png"],["C_Dist_300_LN_1_LD_20_RN_7_RD_20_1.png","C_Dist_300_LN_1_LD_3_RN_19_RD_30_1.png","C_Dist_300_LN_1_LD_30_RN_8_RD_24_1.png","C_Dist_300_LN_1_LD_5_RN_11_RD_22_1.png","C_Dist_300_LN_1_LD_5_RN_3_RD_6_1.png","C_Dist_300_LN_1_LD_5_RN_6_RD_12_1.png","C_Dist_300_LN_2_LD_10_RN_12_RD_24_1.png","C_Dist_300_LN_2_LD_20_RN_10_RD_25_1.png","C_Dist_300_LN_3_LD_12_RN_11_RD_20_1.png","C_Dist_300_LN_3_LD_6_RN_4_RD_5_1.png","C_Dist_300_LN_4_LD_20_RN_13_RD_26_1.png","C_Dist_300_LN_5_LD_25_RN_6_RD_12_1.png","C_Dist_300_LN_5_LD_25_RN_7_RD_14_1.png","C_Dist_300_LN_7_LD_14_RN_20_RD_25_1.png","C_Dist_300_LN_8_LD_15_RN_10_RD_12_1.png"]],"dist300_I":[["I_Dist_300_LN_1_LD_2_RN_2_RD_10_0.png","I_Dist_300_LN_1_LD_2_RN_3_RD_15_0.png","I_Dist_300_LN_2_LD_4_RN_6_RD_30_0.png","I_Dist_300_LN_3_LD_6_RN_4_RD_20_0.png","I_Dist_300_LN_4_LD_5_RN_6_RD_12_0.png","I_Dist_300_LN_4_LD_5_RN_8_RD_16_0.png","I_Dist_300_LN_7_LD_10_RN_8_RD_20_0.png","I_Dist_300_LN_8_LD_10_RN_14_RD_28_0.png","I_Dist_300_LN_8_LD_10_RN_9_RD_18_0.png"],["I_Dist_300_LN_13_LD_26_RN_12_RD_15_1.png","I_Dist_300_LN_4_LD_20_RN_2_RD_4_1.png"]],"dist300_S":[["E_Dist_300_LN_9_LD_12_RN_9_RD_20_0.png"],["E_Dist_300_LN_18_LD_30_RN_18_RD_20_1.png","E_Dist_300_LN_3_LD_10_RN_3_RD_5_1.png","E_Dist_300_LN_9_LD_20_RN_9_RD_12_1.png"]],"dist500_C":[["C_Dist_500_LN_10_LD_13_RN_7_RD_26_0.png","C_Dist_500_LN_10_LD_15_RN_4_RD_24_0.png","C_Dist_500_LN_12_LD_16_RN_3_RD_12_0.png","C_Dist_500_LN_12_LD_18_RN_4_RD_24_0.png","C_Dist_500_LN_15_LD_18_RN_5_RD_15_0.png","C_Dist_500_LN_15_LD_20_RN_1_RD_4_0.png","C_Dist_500_LN_18_LD_27_RN_1_RD_6_0.png","C_Dist_500_LN_20_LD_24_RN_1_RD_3_0.png","C_Dist_500_LN_20_LD_24_RN_3_RD_9_0.png","C_Dist_500_LN_20_LD_24_RN_7_RD_21_0.png","C_Dist_500_LN_20_LD_28_RN_3_RD_14_0.png","C_Dist_500_LN_21_LD_28_RN_6_RD_24_0.png","C_Dist_500_LN_22_LD_28_RN_2_RD_7_0.png","C_Dist_500_LN_25_LD_30_RN_9_RD_27_0.png","C_Dist_500_LN_4_LD_6_RN_1_RD_6_0.png","C_Dist_500_LN_5_LD_6_RN_2_RD_6_0.png","C_Dist_500_LN_6_LD_9_RN_1_RD_6_0.png","C_Dist_500_LN_7_LD_10_RN_1_RD_5_0.png","C_Dist_500_LN_8_LD_12_RN_1_RD_6_0.png","C_Dist_500_LN_8_LD_12_RN_4_RD_24_0.png"],["C_Dist_500_LN_1_LD_4_RN_12_RD_16_1.png","C_Dist_500_LN_1_LD_4_RN_9_RD_12_1.png","C_Dist_500_LN_1_LD_9_RN_11_RD_18_1.png","C_Dist_500_LN_10_LD_24_RN_22_RD_24_1.png","C_Dist_500_LN_2_LD_12_RN_10_RD_15_1.png","C_Dist_500_LN_2_LD_12_RN_12_RD_18_1.png","C_Dist_500_LN_2_LD_12_RN_4_RD_6_1.png","C_Dist_500_LN_2_LD_24_RN_7_RD_12_1.png","C_Dist_500_LN_2_LD_5_RN_18_RD_20_1.png","C_Dist_500_LN_2_LD_5_RN_9_RD_10_1.png","C_Dist_500_LN_2_LD_8_RN_12_RD_16_1.png","C_Dist_500_LN_2_LD_8_RN_21_RD_28_1.png","C_Dist_500_LN_3_LD_10_RN_4_RD_5_1.png","C_Dist_500_LN_3_LD_12_RN_15_RD_20_1.png","C_Dist_500_LN_3_LD_30_RN_6_RD_10_1.png","C_Dist_500_LN_3_LD_8_RN_14_RD_16_1.png","C_Dist_500_LN_4_LD_16_RN_15_RD_20_1.png","C_Dist_500_LN_4_LD_24_RN_12_RD_18_1.png","C_Dist_500_LN_5_LD_14_RN_6_RD_7_1.png","C_Dist_500_LN_7_LD_21_RN_20_RD_24_1.png","C_Dist_500_LN_7_LD_28_RN_12_RD_16_1.png","C_Dist_500_LN_7_LD_28_RN_9_RD_12_1.png","C_Dist_500_LN_9_LD_27_RN_20_RD_24_1.png"]],"dist500_I":[["I_Dist_500_LN_2_LD_3_RN_4_RD_24_0.png","I_Dist_500_LN_5_LD_6_RN_6_RD_18_0.png","I_Dist_500_LN_7_LD_8_RN_9_RD_24_0.png"],["I_Dist_500_LN_7_LD_21_RN_5_RD_6_1.png"]],"dist500_S":[["E_Dist_500_LN_6_LD_8_RN_6_RD_24_0.png"],["E_Dist_500_LN_2_LD_12_RN_2_RD_3_1.png","E_Dist_500_LN_6_LD_24_RN_6_RD_8_1.png"]]}},{"start_time":1551794070712,"click_time":1551794077656,"finger_time":1551794077214,"fix_duration":1136.8272809314883,"trial":1,"RT":6502,"MT":442,"sideResp":1,"stimulus":[],"xmouse":[804,804,804,804,804,804,804,804,804,804,804,804,804,804,804,804,804,804,804,804,804,804,804,804,804,804,804,804,804,804,804,804,804,804,804,804,804,804,804,804,804,804,804,804,804,804,804,804,804,804,804,804,804,804,804,804,804,804,804,804,804,804,804,804,804,804,804,804,804,804,804,804,804,804,804,804,804,804,804,804,804,804,804,804,804,804,804,804,804,804,804,804,804,804,804,804,804,804,804,804,804,804,804,804,804,804,804,804,804,804,804,804,804,804,804,804,804,804,804,804,804,804,804,804,804,804,804,804,804,804,804,804,804,804,804,804,804,804,804,804,804,804,804,804,804,804,804,804,804,804,804,804,804,804,804,804,804,804,804,804,804,804,804,804,804,804,804,804,804,804,804,804,804,804,804,804,804,804,804,804,804,804,804,804,804,804,804,804,804,804,804,804,804,804,804,804,804,804,804,804,804,804,804,804,804,804,804,804,804,804,804,804,804,804,804,804,804,804,804,804,804,804,804,804,804,804,804,804,804,804,804,804,804,804,804,804,804,804,804,804,804,804,804,804,804,804,804,804,804,804,804,804,804,804,804,804,804,804,804,804,804,804,804,804,804,804,804,804,804,804,804,804,804,804,804,804,804,804,804,804,804,804,804,804,804,804,804,804,804,804,804,804,804,804,804,804,804,804,804,804,804,804,804,804,804,804,804,804,804,804,804,804,804,804,804,804,804,804,804,804,804,804,804,801,760,720,668,533,492,476,474,473,473,473,470,470,470,475,479,484,489,491,494,496,498,500,501],"ymouse":[531,531,531,531,531,531,531,531,531,531,531,531,531,531,531,531,531,531,531,531,531,531,531,531,531,531,531,531,531,531,531,531,531,531,531,531,531,531,531,531,531,531,531,531,531,531,531,531,531,531,531,531,531,531,531,531,531,531,531,531,531,531,531,531,531,531,531,531,531,531,531,531,531,531,531,531,531,531,531,531,531,531,531,531,531,531,531,531,531,531,531,531,531,531,531,531,531,531,531,531,531,531,531,531,531,531,531,531,531,531,531,531,531,531,531,531,531,531,531,531,531,531,531,531,531,531,531,531,531,531,531,531,531,531,531,531,531,531,531,531,531,531,531,531,531,531,531,531,531,531,531,531,531,531,531,531,531,531,531,531,531,531,531,531,531,531,531,531,531,531,531,531,531,531,531,531,531,531,531,531,531,531,531,531,531,531,531,531,531,531,531,531,531,531,531,531,531,531,531,531,531,531,531,531,531,531,531,531,531,531,531,531,531,531,531,531,531,531,531,531,531,531,531,531,531,531,531,531,531,531,531,531,531,531,531,531,531,531,531,531,531,531,531,531,531,531,531,531,531,531,531,531,531,531,531,531,531,531,531,531,531,531,531,531,531,531,531,531,531,531,531,531,531,531,531,531,531,531,531,531,531,531,531,531,531,531,531,531,531,531,531,531,531,531,531,531,531,531,531,531,531,531,531,531,531,531,531,531,531,531,531,531,531,531,531,531,531,531,531,531,531,531,531,519,452,402,357,266,239,227,223,219,210,205,191,185,182,176,172,167,162,157,144,138,124,108,92],"timestamp_mouse":[9,45,63,83,103,122,143,163,182,203,223,244,263,283,302,323,342,362,383,402,422,442,463,484,503,523,542,563,583,603,623,643,662,684,703,723,744,763,782,802,822,843,863,882,902,923,942,963,984,1002,1022,1042,1063,1082,1103,1122,1144,1163,1183,1202,1223,1244,1264,1283,1302,1324,1342,1363,1382,1403,1423,1444,1463,1483,1502,1522,1543,1563,1583,1604,1623,1643,1662,1682,1703,1723,1742,1762,1782,1802,1823,1842,1862,1882,1903,1922,1942,1962,1982,2004,2023,2044,2063,2082,2103,2123,2142,2162,2183,2203,2223,2243,2263,2282,2302,2324,2342,2362,2382,2402,2423,2444,2462,2483,2504,2523,2542,2563,2582,2602,2623,2643,2662,2682,2702,2722,2742,2763,2782,2802,2823,2842,2862,2882,2902,2922,2942,2962,2982,3003,3023,3042,3062,3082,3103,3122,3142,3162,3183,3203,3223,3242,3263,3283,3302,3322,3342,3362,3383,3402,3423,3442,3463,3482,3502,3523,3542,3562,3582,3602,3622,3644,3664,3683,3702,3724,3743,3764,3782,3802,3822,3842,3864,3882,3903,3922,3942,3962,3982,4002,4022,4042,4062,4082,4102,4122,4142,4162,4182,4203,4223,4242,4263,4283,4304,4323,4342,4363,4383,4403,4423,4442,4463,4483,4502,4523,4544,4563,4583,4603,4623,4644,4662,4683,4702,4722,4742,4763,4783,4802,4823,4843,4863,4882,4903,4923,4942,4962,4982,5003,5022,5042,5062,5082,5103,5123,5144,5162,5182,5204,5223,5242,5262,5282,5304,5323,5342,5363,5382,5402,5423,5443,5462,5483,5502,5522,5543,5563,5582,5603,5623,5642,5662,5682,5704,5723,5743,5762,5783,5803,5824,5843,5864,5882,5902,5923,5942,5962,5982,6003,6022,6042,6063,6083,6102,6124,6142,6162,6183,6202,6222,6242,6263,6283,6302,6323,6344,6363,6383,6403,6423,6444,6462,6483,6502,6524,6543,6562,6582,6602,6623,6642,6662,6682,6702,6724,6742,6762,6782,6802,6822,6843,6862,6883,6902,6922,6943],"xSR":741.5,"ySR":469.95,"xT1":424.9,"yT1":0,"xT2":1058.1,"yT2":0,"toosoon":0,"cond_shown":"Congruent","ratio_trial":300,"L_num":12,"L_den":24,"R_num":2,"R_den":10,"correct_side":1,"subjID":"jhoansantiagocortescortes1","gender":"0","school":"6","age":"11"},{"start_time":1551794079896,"click_time":1551794082135,"finger_time":1551794081255,"fix_duration":800.1932759651545,"trial":2,"RT":1359,"MT":880,"sideResp":1,"stimulus":[],"xmouse":[817,817,817,817,817,817,817,817,817,817,817,817,817,817,817,817,817,817,817,817,817,817,817,817,817,817,817,817,817,817,817,817,817,817,817,817,817,817,817,817,817,817,817,817,817,817,817,817,817,817,817,817,817,817,817,817,817,817,817,817,817,817,817,817,817,805,777,726,610,592,588,586,584,581,580,578,577,576,573,571,569,567,566,557,549,541,538,536,534,534,533,532,530,528,528,528,528,528,528,528,528,528,528,528,528,528,528,528,528,528,525,521],"ymouse":[531,531,531,531,531,531,531,531,531,531,531,531,531,531,531,531,531,531,531,531,531,531,531,531,531,531,531,531,531,531,531,531,531,531,531,531,531,531,531,531,531,531,531,531,531,531,531,531,531,531,531,531,531,531,531,531,531,531,531,531,531,531,531,531,531,517,487,447,356,335,323,312,303,295,292,286,281,276,257,244,230,216,203,174,147,128,117,111,104,102,100,95,91,88,87,87,87,87,87,87,87,87,87,87,87,87,87,87,87,86,85,82],"timestamp_mouse":[18,42,58,80,99,119,138,158,179,198,218,239,258,279,300,318,339,358,378,398,420,439,460,478,499,519,540,559,578,599,620,640,659,678,699,720,739,759,780,798,819,838,858,880,898,918,938,958,979,999,1020,1038,1059,1078,1098,1119,1138,1158,1178,1200,1218,1240,1259,1279,1298,1318,1338,1359,1378,1398,1419,1439,1458,1479,1498,1518,1539,1558,1578,1598,1618,1639,1659,1678,1699,1718,1738,1759,1778,1798,1819,1838,1859,1878,1898,1918,1938,1958,1978,1998,2019,2040,2059,2079,2098,2119,2138,2159,2178,2198,2219,2239],"xSR":741.5,"ySR":469.95,"xT1":424.9,"yT1":0,"xT2":1058.1,"yT2":0,"toosoon":0,"cond_shown":"Incongruent","ratio_trial":200,"L_num":4,"L_den":5,"R_num":6,"R_den":10,"correct_side":1,"subjID":"jhoansantiagocortescortes1","gender":"0","school":"6","age":"11"},{"start_time":1551794083325,"click_time":1551794085535,"finger_time":1551794084774,"fix_duration":250,"trial":3,"RT":1449,"MT":761,"sideResp":1,"stimulus":[],"xmouse":[804,804,804,804,804,804,804,804,804,804,804,804,804,804,804,804,804,804,804,804,804,804,804,804,804,804,804,804,804,804,804,804,804,804,804,804,804,804,804,804,804,804,804,804,804,804,804,804,804,804,804,804,804,804,804,804,804,804,804,804,804,804,804,804,804,804,804,804,804,804,803,801,780,745,713,679,658,640,639,639,639,639,635,634,633,631,630,626,621,613,604,596,582,567,557,546,536,529,528,528,527,526,524,524,524,524,524,524,524,522,520],"ymouse":[519,519,519,519,519,519,519,519,519,519,519,519,519,519,519,519,519,519,519,519,519,519,519,519,519,519,519,519,519,519,519,519,519,519,519,519,519,519,519,519,519,519,519,519,519,519,519,519,519,519,519,519,519,519,519,519,519,519,519,519,519,519,519,519,519,519,519,519,519,519,513,506,468,423,383,343,317,297,296,296,296,295,294,293,293,292,291,288,282,274,261,245,220,194,177,161,148,134,130,130,129,126,122,122,122,122,122,120,114,106,98],"timestamp_mouse":[10,31,49,70,89,109,129,150,169,190,210,229,249,269,290,309,331,349,370,390,409,429,449,469,489,509,529,550,570,590,609,629,651,669,690,710,729,749,771,790,811,829,850,869,890,909,929,949,969,989,1010,1031,1049,1070,1089,1111,1130,1149,1170,1190,1209,1229,1249,1269,1289,1309,1330,1350,1370,1390,1409,1429,1449,1469,1489,1510,1529,1549,1569,1589,1609,1630,1649,1669,1689,1710,1730,1749,1769,1789,1809,1830,1849,1869,1889,1909,1930,1949,1970,1991,2010,2029,2049,2069,2089,2109,2131,2149,2169,2189,2210],"xSR":741.5,"ySR":469.95,"xT1":424.9,"yT1":0,"xT2":1058.1,"yT2":0,"toosoon":0,"cond_shown":"Incongruent","ratio_trial":100,"L_num":8,"L_den":20,"R_num":1,"R_den":2,"correct_side":2,"subjID":"jhoansantiagocortescortes1","gender":"0","school":"6","age":"11"},{"start_time":1551794088617,"click_time":1551794090474,"finger_time":1551794090055,"fix_duration":480.46609608612965,"trial":4,"RT":1438,"MT":419,"sideResp":2,"stimulus":[],"xmouse":[830,830,830,830,830,830,830,830,830,830,830,829,829,828,828,828,828,828,828,828,828,828,828,828,828,828,828,828,828,828,828,828,828,828,828,828,828,828,828,828,828,828,828,828,828,828,828,828,828,828,828,828,828,828,828,828,828,828,828,828,828,828,828,828,828,828,828,828,828,830,838,848,884,898,910,919,928,942,944,944,944,945,952,958,964,972,984,1012,1029,1053,1066,1072,1079],"ymouse":[553,553,553,553,553,553,553,553,553,553,553,553,553,553,553,553,553,553,553,553,553,553,553,553,553,553,553,553,553,553,553,553,553,553,553,553,553,553,553,553,553,553,553,553,553,553,553,553,553,553,553,553,553,553,553,553,553,553,553,553,553,553,553,553,553,553,553,553,553,544,530,513,448,416,389,362,339,305,300,297,296,294,275,262,248,235,217,179,159,130,115,106,96],"timestamp_mouse":[17,39,58,78,97,117,138,158,177,198,218,237,258,278,297,317,338,358,378,397,417,437,457,477,497,518,537,557,578,599,618,637,658,678,697,719,738,757,778,799,818,838,858,877,898,917,939,957,978,997,1017,1038,1057,1078,1099,1119,1139,1158,1177,1198,1217,1238,1257,1277,1297,1317,1338,1359,1378,1397,1418,1438,1458,1477,1498,1518,1537,1557,1579,1598,1617,1638,1657,1677,1697,1718,1737,1758,1778,1797,1818,1839,1857],"xSR":741.5,"ySR":469.95,"xT1":424.9,"yT1":0,"xT2":1058.1,"yT2":0,"toosoon":0,"cond_shown":"Incongruent","ratio_trial":300,"L_num":13,"L_den":26,"R_num":12,"R_den":15,"correct_side":2,"subjID":"jhoansantiagocortescortes1","gender":"0","school":"6","age":"11"},{"start_time":1551794092167,"click_time":1551794097394,"finger_time":1551794093694,"fix_duration":411.94572005378916,"trial":5,"RT":1527,"MT":3700,"sideResp":1,"stimulus":[],"xmouse":[832,832,832,832,832,832,832,832,832,832,832,832,832,832,832,832,832,832,832,832,832,832,832,832,832,832,832,832,832,832,832,832,832,832,832,832,832,832,832,832,832,832,832,832,832,832,832,832,832,832,832,832,832,832,832,832,832,832,832,832,832,832,832,831,829,822,817,814,812,811,810,810,810,810,810,810,812,822,837,855,900,923,965,987,1001,1015,1018,1024,1031,1042,1052,1052,1052,1052,1052,1053,1053,1053,1053,1053,1053,1053,1053,1053,1053,1053,1053,1053,1053,1053,1053,1053,1053,1053,1053,1040,1027,1013,1003,993,978,967,963,961,959,959,958,958,958,957,957,957,957,957,957,957,957,957,957,957,957,957,957,957,957,957,957,957,957,957,957,957,957,957,957,957,957,957,957,955,951,941,936,934,934,931,930,929,928,924,907,893,888,887,887,880,866,845,825,811,804,804,804,804,804,804,804,804,804,804,804,804,804,804,804,804,804,804,804,804,804,804,804,804,804,808,810,811,811,811,811,811,811,811,811,792,750,693,636,585,547,546,545,543,540,532,532,532,532,532,532,530,530,530,529,529,528,528,527,526,526,526,526,526,526,526,526,526,526,526,526,526,526,526,526,526,526,526,526,526,525,518],"ymouse":[540,540,540,540,540,540,540,540,540,540,540,540,540,540,540,540,540,540,540,540,540,540,540,540,540,540,540,540,540,540,540,540,540,540,540,540,540,540,540,540,540,540,540,540,540,540,540,540,540,540,540,540,540,540,540,540,540,540,540,540,540,540,540,539,533,514,502,494,490,488,485,485,485,485,485,480,468,447,413,370,277,230,158,133,118,102,99,93,87,79,72,71,71,71,71,70,70,70,70,70,70,70,70,70,70,70,70,70,70,70,70,70,70,70,70,90,105,120,135,147,168,183,190,193,196,197,198,199,200,202,203,203,203,203,203,203,203,203,203,203,203,203,203,203,203,203,203,203,203,203,203,203,203,203,203,203,203,203,204,207,211,218,222,222,223,224,225,225,226,227,232,235,236,236,237,238,239,240,240,240,240,240,240,240,240,240,240,240,240,240,240,240,240,240,240,240,240,240,240,240,240,240,240,240,240,240,238,238,238,238,238,238,238,238,238,219,193,166,141,119,105,105,104,104,104,104,104,104,104,104,104,102,99,96,93,89,87,85,82,81,79,79,78,77,77,77,77,77,77,77,77,77,77,77,77,77,77,77,77,77,77,77],"timestamp_mouse":[7,40,47,68,87,107,127,149,168,188,207,228,247,268,287,309,329,348,369,387,407,428,447,468,488,508,527,548,568,587,608,628,647,667,689,709,727,747,769,787,809,827,847,867,889,907,928,947,967,987,1008,1027,1048,1067,1087,1107,1128,1148,1169,1187,1207,1228,1247,1268,1287,1307,1327,1348,1367,1387,1407,1429,1447,1468,1487,1507,1527,1547,1567,1589,1607,1628,1647,1667,1688,1708,1727,1747,1767,1788,1807,1827,1848,1868,1888,1907,1927,1947,1968,1989,2008,2028,2047,2067,2088,2108,2128,2147,2168,2187,2207,2227,2247,2268,2287,2307,2327,2347,2367,2387,2407,2427,2447,2467,2488,2507,2527,2548,2568,2587,2607,2627,2648,2668,2687,2708,2728,2748,2767,2788,2809,2828,2848,2867,2887,2909,2928,2947,2967,2988,3009,3028,3047,3068,3088,3108,3128,3147,3167,3187,3207,3227,3247,3269,3288,3307,3327,3347,3367,3389,3407,3427,3447,3469,3488,3507,3527,3547,3567,3587,3608,3628,3647,3667,3687,3707,3727,3748,3769,3787,3808,3827,3847,3868,3887,3907,3928,3948,3968,3988,4007,4028,4047,4067,4087,4108,4127,4147,4167,4189,4208,4228,4247,4268,4287,4308,4327,4347,4368,4389,4407,4428,4447,4467,4487,4508,4529,4548,4568,4587,4608,4628,4647,4667,4687,4708,4727,4748,4767,4787,4808,4827,4848,4868,4888,4908,4927,4947,4967,4987,5008,5028,5048,5067,5087,5108,5128,5148,5167,5188,5207,5227],"xSR":741.5,"ySR":469.95,"xT1":424.9,"yT1":0,"xT2":1058.1,"yT2":0,"toosoon":0,"cond_shown":"Incongruent","ratio_trial":300,"L_num":1,"L_den":2,"R_num":2,"R_den":10,"correct_side":1,"subjID":"jhoansantiagocortescortes1","gender":"0","school":"6","age":"11"},{"start_time":1551794099459,"click_time":1551794103414,"finger_time":1551794101195,"fix_duration":963.5248843718653,"trial":6,"RT":1736,"MT":2219,"sideResp":1,"stimulus":[],"xmouse":[827,827,827,827,827,827,827,827,827,827,827,827,827,827,827,827,827,827,827,827,827,827,827,827,827,827,827,827,827,827,827,827,827,827,827,827,827,827,827,827,827,827,827,827,827,827,827,827,827,827,827,827,827,827,827,827,832,834,835,835,836,836,836,836,836,836,836,836,836,836,836,836,836,836,836,836,836,836,836,836,836,836,836,836,836,840,843,845,846,846,846,846,846,844,837,804,773,720,695,679,672,672,672,672,672,672,672,672,672,672,672,672,672,672,672,674,674,675,675,675,675,675,676,677,678,683,688,689,689,689,689,689,689,689,689,689,689,689,689,689,689,689,689,689,689,689,689,689,689,689,689,689,689,689,689,689,689,689,689,689,689,689,689,689,689,689,689,689,689,689,689,689,689,689,689,689,667,643,618,592,547,534,519,506,497,487,483,477,477,477,489,499,509,514,518,519,519,517],"ymouse":[515,515,515,515,515,515,515,515,515,515,515,515,515,515,515,515,515,515,515,515,515,515,515,515,515,515,515,515,515,515,515,515,515,515,515,515,515,515,515,515,515,515,515,515,515,515,515,515,515,515,515,515,515,515,515,513,501,497,495,494,493,493,493,493,493,493,493,493,493,493,493,493,493,493,493,493,493,493,493,493,493,493,493,493,492,485,476,471,468,464,460,456,454,450,443,414,394,358,340,328,325,325,325,325,325,325,325,325,325,325,325,325,325,324,324,323,323,323,323,323,323,323,322,321,320,318,318,318,317,317,317,317,317,317,317,317,317,317,317,317,317,317,317,317,317,317,317,317,317,317,317,317,317,317,317,317,317,317,317,317,317,317,317,317,317,317,317,317,317,317,317,317,317,317,317,318,322,322,322,320,303,294,282,273,267,249,240,225,220,216,197,184,169,156,145,120,104,90],"timestamp_mouse":[16,36,57,75,96,115,135,156,175,196,215,236,255,275,295,316,335,356,376,397,415,435,455,477,495,516,536,555,575,595,616,635,655,676,695,715,737,755,775,795,815,835,855,876,896,916,936,956,977,996,1016,1036,1056,1075,1095,1115,1135,1155,1176,1195,1216,1236,1255,1275,1295,1315,1336,1355,1375,1395,1416,1435,1456,1475,1495,1515,1537,1555,1575,1595,1615,1635,1655,1676,1696,1715,1736,1755,1776,1795,1815,1835,1855,1875,1897,1916,1937,1955,1975,1996,2015,2036,2056,2075,2096,2116,2135,2157,2175,2196,2217,2235,2256,2275,2296,2315,2336,2356,2376,2396,2415,2435,2455,2475,2496,2516,2535,2555,2575,2595,2615,2636,2655,2676,2695,2716,2736,2756,2776,2795,2816,2836,2855,2875,2896,2915,2936,2955,2976,2995,3016,3035,3055,3075,3097,3116,3135,3155,3176,3196,3216,3235,3256,3276,3295,3316,3336,3356,3375,3395,3416,3435,3456,3476,3497,3516,3537,3555,3575,3595,3615,3635,3655,3676,3695,3715,3735,3755,3776,3796,3815,3835,3855,3875,3896,3915,3935,3955],"xSR":741.5,"ySR":469.95,"xT1":424.9,"yT1":0,"xT2":1058.1,"yT2":0,"toosoon":0,"cond_shown":"Incongruent","ratio_trial":300,"L_num":4,"L_den":20,"R_num":2,"R_den":4,"correct_side":2,"subjID":"jhoansantiagocortescortes1","gender":"0","school":"6","age":"11"},{"start_time":1551794104546,"click_time":1551794107714,"finger_time":1551794106174,"fix_duration":250,"trial":7,"RT":1628,"MT":1540,"sideResp":1,"stimulus":[],"xmouse":[770,770,770,770,770,770,770,770,770,770,770,770,770,770,770,770,770,770,770,770,770,770,770,770,770,770,770,770,770,770,770,770,770,770,770,770,770,770,770,770,770,770,770,770,770,770,770,770,770,770,770,770,770,770,770,770,770,770,770,770,770,770,770,770,770,770,770,770,770,770,770,770,770,770,770,770,770,770,770,770,778,825,906,959,999,1037,1069,1074,1074,1075,1075,1075,1075,1075,1075,1075,1071,1065,1060,1057,1054,1053,1051,1049,1048,1048,1048,1048,1048,1048,1048,1048,1048,1048,1048,1046,1036,1031,1029,1029,1029,1018,1003,985,974,969,955,933,891,839,796,740,730,729,729,728,709,686,657,628,604,582,579,574,572,571,569,569,568,567,564,560,555,550,547,545,539,530,519],"ymouse":[508,508,508,508,508,508,508,508,508,508,508,508,508,508,508,508,508,508,508,508,508,508,508,508,508,508,508,508,508,508,508,508,508,508,508,508,508,508,508,508,508,508,508,508,508,508,508,508,508,508,508,508,508,508,508,508,508,508,508,508,508,508,508,508,508,508,508,508,508,508,508,508,508,508,508,508,508,508,508,508,494,445,370,323,291,258,222,215,214,213,213,213,213,213,213,213,218,225,231,235,237,239,242,246,248,248,248,248,248,248,248,248,248,248,248,250,258,259,260,260,260,262,264,265,265,265,263,254,238,224,211,197,192,191,191,190,184,179,172,166,163,161,160,158,157,155,143,131,120,107,95,75,62,52,47,46,42,40,39],"timestamp_mouse":[10,44,48,69,89,108,128,148,168,189,209,229,249,269,289,308,329,350,369,388,408,428,449,469,489,508,528,548,570,588,608,628,650,669,689,708,729,748,769,789,808,828,850,869,890,908,929,949,968,989,1009,1028,1048,1069,1089,1108,1128,1148,1169,1189,1208,1228,1248,1269,1289,1310,1329,1350,1369,1389,1408,1429,1449,1468,1488,1508,1528,1548,1569,1588,1609,1628,1648,1668,1690,1709,1729,1748,1768,1788,1809,1828,1849,1868,1888,1908,1929,1948,1970,1990,2008,2028,2048,2068,2089,2109,2129,2149,2168,2190,2208,2228,2249,2270,2289,2308,2328,2348,2368,2389,2408,2429,2448,2468,2489,2509,2528,2548,2568,2588,2609,2628,2649,2668,2689,2708,2728,2748,2768,2788,2808,2828,2849,2868,2888,2909,2928,2948,2969,2988,3008,3028,3049,3068,3088,3109,3129,3149,3168],"xSR":741.5,"ySR":469.95,"xT1":424.9,"yT1":0,"xT2":1058.1,"yT2":0,"toosoon":0,"cond_shown":"Incongruent","ratio_trial":200,"L_num":4,"L_den":30,"R_num":1,"R_den":3,"correct_side":2,"subjID":"jhoansantiagocortescortes1","gender":"0","school":"6","age":"11"},{"start_time":1551794110105,"click_time":1551794111955,"finger_time":1551794111574,"fix_duration":1328.701673049971,"trial":8,"RT":1469,"MT":381,"sideResp":2,"stimulus":[],"xmouse":[830,830,829,829,829,828,828,828,828,828,828,828,827,827,827,827,827,827,826,826,826,825,824,824,823,823,823,823,823,823,823,823,823,823,823,823,823,823,823,822,822,822,822,822,822,822,822,822,822,821,821,820,820,820,820,820,819,819,818,818,816,816,816,814,814,813,813,813,813,813,813,813,814,845,894,921,946,963,988,997,1006,1013,1019,1030,1036,1038,1039,1040,1045,1047,1051,1057,1061],"ymouse":[521,521,521,521,521,521,520,520,520,520,520,520,520,520,520,520,520,520,520,519,519,519,519,519,518,518,518,518,518,518,518,518,518,518,518,518,518,518,518,518,518,518,518,518,518,518,518,518,518,518,518,517,517,517,517,517,516,516,516,516,515,515,515,513,512,509,508,505,498,495,492,487,480,419,346,298,265,239,196,176,162,150,141,124,117,114,112,111,105,103,99,94,91],"timestamp_mouse":[10,32,50,69,91,109,130,150,169,189,209,231,250,270,290,310,329,349,370,391,409,430,449,470,489,509,530,549,570,591,610,631,649,670,690,710,730,749,769,791,810,830,850,869,889,910,929,951,971,990,1010,1029,1049,1070,1089,1109,1131,1149,1170,1191,1210,1229,1249,1270,1290,1309,1330,1350,1369,1389,1410,1430,1450,1469,1489,1509,1529,1550,1570,1589,1609,1630,1650,1670,1689,1709,1730,1750,1769,1789,1809,1830,1850],"xSR":741.5,"ySR":469.95,"xT1":424.9,"yT1":0,"xT2":1058.1,"yT2":0,"toosoon":0,"cond_shown":"Congruent","ratio_trial":300,"L_num":8,"L_den":16,"R_num":1,"R_den":5,"correct_side":1,"subjID":"jhoansantiagocortescortes1","gender":"0","school":"6","age":"11"},{"start_time":1551794114084,"click_time":1551794115796,"finger_time":1551794115074,"fix_duration":947.840155388761,"trial":9,"RT":990,"MT":722,"sideResp":2,"stimulus":[],"xmouse":[814,814,814,814,814,814,814,814,814,814,814,814,814,814,814,814,814,813,813,813,813,813,813,812,812,812,812,812,812,812,812,812,812,812,812,812,812,812,812,812,812,812,812,812,812,812,812,818,825,837,841,843,845,846,859,874,885,897,904,909,910,911,911,913,918,923,930,937,949,977,989,997,1007,1012,1020,1029,1033,1039,1044,1053,1055,1057,1061,1065,1071,1077],"ymouse":[508,508,508,508,508,508,508,508,508,508,508,508,508,508,508,508,508,507,506,503,503,501,499,499,499,499,499,499,499,499,499,499,499,499,499,499,499,499,499,499,499,499,499,499,499,499,498,491,484,464,456,449,444,439,410,382,361,343,330,320,316,315,313,309,297,289,280,269,253,217,203,192,180,173,161,151,146,139,134,123,121,118,113,109,103,98],"timestamp_mouse":[11,39,52,71,91,111,130,151,171,191,211,230,251,270,292,311,330,350,370,391,410,431,451,471,491,512,530,550,571,591,611,632,650,670,690,710,731,750,771,790,812,831,850,871,891,910,930,950,971,990,1010,1030,1050,1071,1090,1110,1130,1150,1170,1190,1212,1232,1250,1271,1290,1311,1330,1350,1370,1390,1410,1430,1452,1472,1490,1510,1530,1550,1572,1591,1610,1630,1650,1670,1690,1711],"xSR":741.5,"ySR":469.95,"xT1":424.9,"yT1":0,"xT2":1058.1,"yT2":0,"toosoon":0,"cond_shown":"Congruent","ratio_trial":200,"L_num":1,"L_den":2,"R_num":21,"R_den":30,"correct_side":2,"subjID":"jhoansantiagocortescortes1","gender":"0","school":"6","age":"11"},{"start_time":1551794118042,"click_time":1551794119875,"finger_time":1551794119435,"fix_duration":1405.8327690672418,"trial":10,"RT":1393,"MT":440,"sideResp":2,"stimulus":[],"xmouse":[774,774,774,774,774,774,774,774,774,774,774,774,774,774,774,774,774,774,774,774,774,774,774,774,774,774,774,774,774,774,774,774,774,774,774,774,774,774,774,774,774,774,774,774,774,774,774,774,774,774,774,774,774,774,774,774,774,774,774,774,774,774,774,774,774,775,778,807,841,857,871,893,904,919,934,951,985,998,1013,1019,1022,1036,1048,1058,1066,1072,1077,1080,1085,1088,1092,1097],"ymouse":[542,542,542,542,542,542,542,542,542,542,542,542,542,542,542,542,542,542,542,542,542,542,542,542,542,542,542,542,542,542,542,542,542,542,542,542,542,542,542,542,542,542,542,542,542,542,542,542,542,542,542,542,542,542,542,542,542,542,542,542,542,542,542,542,542,537,534,505,475,457,441,410,394,372,351,324,280,261,241,232,228,206,190,174,160,150,141,136,127,119,110,98],"timestamp_mouse":[12,32,62,73,93,113,133,152,172,194,213,232,253,273,292,313,333,353,372,393,414,433,452,472,494,513,532,553,573,594,613,632,653,673,693,712,733,752,774,792,812,833,852,873,894,913,933,954,973,993,1013,1032,1054,1073,1092,1114,1133,1152,1174,1193,1213,1233,1253,1273,1292,1313,1332,1354,1372,1393,1413,1433,1452,1474,1493,1512,1532,1552,1572,1593,1613,1632,1652,1672,1693,1713,1732,1753,1772,1793,1813,1832],"xSR":741.5,"ySR":469.95,"xT1":424.9,"yT1":0,"xT2":1058.1,"yT2":0,"toosoon":0,"cond_shown":"Incongruent","ratio_trial":100,"L_num":17,"L_den":30,"R_num":10,"R_den":15,"correct_side":2,"subjID":"jhoansantiagocortescortes1","gender":"0","school":"6","age":"11"},{"start_time":1551794121069,"click_time":1551794122976,"finger_time":1551794122434,"fix_duration":293.59701010979353,"trial":11,"RT":1365,"MT":542,"sideResp":1,"stimulus":[],"xmouse":[812,812,812,812,812,812,812,812,812,812,812,812,812,812,812,812,812,812,812,812,812,812,812,812,812,812,812,812,812,812,812,812,812,812,812,812,812,812,812,812,812,812,812,812,812,812,812,812,812,812,812,812,812,812,812,812,812,812,812,812,812,812,812,812,812,812,805,789,741,678,583,573,573,573,573,566,559,553,545,543,543,543,543,543,543,543,543,543,543,543,543,539,536,530,523,498],"ymouse":[549,549,549,549,549,549,549,549,549,549,549,549,549,549,549,549,549,549,549,549,549,549,549,549,549,549,549,549,549,549,549,549,549,549,549,549,549,549,549,549,549,549,549,549,549,549,549,549,549,549,549,549,549,549,549,549,549,549,549,549,549,549,549,549,549,549,537,512,467,420,355,347,347,347,347,333,321,311,300,295,276,256,227,204,185,161,152,143,138,133,128,121,117,111,105,80],"timestamp_mouse":[12,39,45,66,85,106,126,146,165,185,205,225,246,266,285,306,326,347,366,386,405,426,447,465,485,506,525,545,565,585,605,626,645,665,686,706,725,747,765,786,806,827,845,865,886,905,926,945,966,986,1005,1026,1046,1065,1085,1106,1126,1145,1167,1185,1205,1225,1245,1265,1285,1305,1325,1345,1365,1385,1405,1425,1445,1466,1485,1506,1526,1545,1565,1585,1605,1625,1646,1666,1686,1706,1725,1745,1766,1785,1805,1825,1845,1866,1886,1906],"xSR":741.5,"ySR":469.95,"xT1":424.9,"yT1":0,"xT2":1058.1,"yT2":0,"toosoon":0,"cond_shown":"Congruent","ratio_trial":200,"L_num":16,"L_den":20,"R_num":12,"R_den":20,"correct_side":1,"subjID":"jhoansantiagocortescortes1","gender":"0","school":"6","age":"11"},{"start_time":1551794126969,"click_time":1551794128814,"finger_time":1551794128355,"fix_duration":1493.7524444662572,"trial":12,"RT":1386,"MT":459,"sideResp":2,"stimulus":[],"xmouse":[784,784,784,784,784,784,784,784,784,784,784,784,784,784,784,784,784,784,784,784,784,784,784,784,784,784,784,784,784,784,784,784,784,784,784,784,784,784,784,784,784,784,784,784,784,784,784,784,784,784,784,784,784,784,784,784,784,784,784,784,784,784,784,784,784,784,784,784,817,855,917,986,993,993,993,1004,1013,1023,1030,1034,1034,1036,1037,1038,1042,1053,1060,1063,1065,1067,1070,1075,1079],"ymouse":[526,526,526,526,526,526,526,526,526,526,526,526,526,526,526,526,526,526,526,526,526,526,526,526,526,526,526,526,526,526,526,526,526,526,526,526,526,526,526,526,526,526,526,526,526,526,526,526,526,526,526,526,526,526,526,526,526,526,526,526,526,526,526,526,526,526,526,526,498,476,435,382,357,342,329,286,259,232,214,202,190,184,180,175,167,146,138,131,125,121,113,103,95],"timestamp_mouse":[9,35,46,65,86,107,126,147,166,185,205,225,245,266,285,305,325,345,365,385,406,427,446,465,485,505,527,545,566,585,606,626,645,666,685,707,726,746,766,786,805,826,847,865,885,906,926,945,965,985,1005,1025,1046,1065,1086,1107,1125,1146,1166,1186,1207,1226,1245,1265,1286,1305,1326,1346,1365,1386,1405,1425,1445,1466,1485,1505,1525,1545,1566,1586,1605,1625,1645,1665,1685,1705,1725,1745,1765,1785,1806,1825,1845],"xSR":741.5,"ySR":469.95,"xT1":424.9,"yT1":0,"xT2":1058.1,"yT2":0,"toosoon":0,"cond_shown":"Congruent","ratio_trial":100,"L_num":4,"L_den":10,"R_num":15,"R_den":30,"correct_side":2,"subjID":"jhoansantiagocortescortes1","gender":"0","school":"6","age":"11"},{"start_time":1551794131350,"click_time":1551794132995,"finger_time":1551794132634,"fix_duration":1414.2271114922432,"trial":13,"RT":1284,"MT":361,"sideResp":1,"stimulus":[],"xmouse":[801,801,801,801,801,801,801,801,801,801,801,801,801,801,801,801,801,801,801,801,801,801,801,801,801,801,801,801,801,801,801,801,801,801,801,801,801,801,801,801,801,801,801,801,801,801,801,801,801,801,801,801,801,801,801,801,801,801,801,801,801,801,798,750,691,640,596,594,593,590,582,569,558,558,555,552,544,526,520,515,509,493,485],"ymouse":[550,550,550,550,550,550,550,550,550,550,550,550,550,550,550,550,550,550,550,550,550,550,550,550,550,550,550,550,550,550,550,550,550,550,550,550,550,550,550,550,550,550,550,550,550,550,550,550,550,550,550,550,550,550,550,550,550,550,550,550,550,550,548,521,494,472,453,451,450,441,419,392,347,330,310,285,249,200,184,168,150,113,93],"timestamp_mouse":[16,38,44,66,84,105,125,146,164,185,205,224,245,264,284,305,324,346,365,385,406,424,444,466,486,505,524,544,565,586,604,625,645,666,684,705,724,745,764,785,806,824,844,865,885,904,925,945,966,985,1004,1025,1044,1064,1085,1104,1125,1144,1164,1184,1206,1224,1244,1264,1284,1304,1324,1344,1364,1384,1404,1424,1445,1464,1484,1505,1524,1544,1565,1585,1605,1624,1645],"xSR":741.5,"ySR":469.95,"xT1":424.9,"yT1":0,"xT2":1058.1,"yT2":0,"toosoon":0,"cond_shown":"Congruent","ratio_trial":100,"L_num":15,"L_den":25,"R_num":13,"R_den":26,"correct_side":1,"subjID":"jhoansantiagocortescortes1","gender":"0","school":"6","age":"11"},{"start_time":1551794134557,"click_time":1551794136435,"finger_time":1551794135994,"fix_duration":481.19891272406835,"trial":14,"RT":1437,"MT":441,"sideResp":1,"stimulus":[],"xmouse":[829,829,829,829,829,829,829,829,829,829,829,829,829,829,829,829,829,829,829,829,829,829,829,829,829,829,829,829,829,829,829,829,829,829,829,829,829,829,829,829,829,829,829,829,829,829,829,829,829,829,829,829,829,829,829,829,829,829,829,829,829,829,829,829,829,829,829,829,829,829,801,724,685,666,660,659,656,650,645,643,642,641,637,633,625,605,595,584,573,566,553,539,527,516],"ymouse":[511,511,511,511,511,511,511,511,511,511,511,511,511,511,511,511,511,511,511,511,511,511,511,511,511,511,511,511,511,511,511,511,511,511,511,511,511,511,511,511,511,511,511,511,511,511,511,511,511,511,511,511,511,511,511,511,511,511,511,511,511,511,511,511,511,511,511,511,511,510,487,430,399,384,379,377,369,359,351,346,342,342,332,321,306,270,249,226,203,190,163,130,107,89],"timestamp_mouse":[31,37,57,77,98,118,138,158,179,197,219,237,257,278,298,318,337,357,378,398,417,437,457,477,497,517,537,557,577,597,617,637,657,677,697,717,737,758,777,797,818,837,858,877,897,919,937,957,977,997,1018,1038,1057,1077,1097,1117,1137,1157,1178,1197,1217,1238,1257,1278,1297,1317,1337,1357,1377,1397,1418,1437,1457,1477,1498,1517,1537,1557,1577,1599,1618,1638,1657,1677,1697,1717,1737,1757,1777,1798,1817,1839,1857,1878],"xSR":741.5,"ySR":469.95,"xT1":424.9,"yT1":0,"xT2":1058.1,"yT2":0,"toosoon":0,"cond_shown":"Incongruent","ratio_trial":100,"L_num":6,"L_den":10,"R_num":13,"R_den":26,"correct_side":1,"subjID":"jhoansantiagocortescortes1","gender":"0","school":"6","age":"11"},{"start_time":1551794137846,"click_time":1551794140255,"finger_time":1551794138995,"fix_duration":250,"trial":15,"RT":1149,"MT":1260,"sideResp":2,"stimulus":[],"xmouse":[825,825,825,825,825,825,825,825,825,825,825,825,825,825,825,825,825,825,825,825,825,825,825,825,825,825,825,825,825,825,825,825,825,825,825,825,825,825,825,825,825,825,825,825,825,825,825,825,825,825,825,825,825,825,825,825,835,862,921,960,984,1001,1006,1014,1025,1039,1057,1064,1066,1067,1069,1071,1071,1071,1071,1071,1071,1071,1071,1071,1071,1071,1071,1071,1071,1071,1071,1071,1071,1071,1071,1071,1071,1071,1071,1071,1071,1071,1071,1071,1071,1071,1071,1071,1071,1071,1071,1071,1071,1071,1071,1071,1071,1071,1071,1072,1073,1073,1076,1077,1080],"ymouse":[538,538,538,538,538,538,538,538,538,538,538,538,538,538,538,538,538,538,538,538,538,538,538,538,538,538,538,538,538,538,538,538,538,538,538,538,538,538,538,538,538,538,538,538,538,538,538,538,538,538,538,538,538,538,538,536,524,494,430,391,363,331,315,293,269,235,192,172,163,158,153,142,138,138,138,137,137,137,137,137,137,137,137,137,137,137,137,137,137,137,137,137,137,137,137,137,137,137,137,137,137,137,137,137,137,137,137,137,137,137,137,137,137,137,136,135,128,123,114,106,99],"timestamp_mouse":[8,34,49,69,89,108,129,149,170,188,208,229,249,270,288,308,328,348,369,388,408,428,448,469,488,509,529,548,568,588,609,629,649,669,688,709,728,749,768,788,808,828,848,869,888,908,928,948,970,988,1010,1028,1049,1069,1089,1110,1128,1149,1168,1189,1209,1228,1248,1268,1289,1308,1328,1349,1368,1389,1408,1428,1448,1468,1489,1508,1529,1548,1568,1589,1608,1629,1649,1668,1688,1710,1730,1749,1768,1789,1809,1830,1850,1869,1888,1909,1929,1949,1969,1988,2008,2028,2048,2068,2089,2109,2129,2148,2169,2188,2209,2232,2249,2268,2288,2308,2328,2349,2368,2389,2409],"xSR":741.5,"ySR":469.95,"xT1":424.9,"yT1":0,"xT2":1058.1,"yT2":0,"toosoon":0,"cond_shown":"Incongruent","ratio_trial":200,"L_num":1,"L_den":3,"R_num":2,"R_den":15,"correct_side":1,"subjID":"jhoansantiagocortescortes1","gender":"0","school":"6","age":"11"},{"start_time":1551794143101,"click_time":1551794145115,"finger_time":1551794144414,"fix_duration":885.9405918440743,"trial":16,"RT":1313,"MT":701,"sideResp":1,"stimulus":[],"xmouse":[799,799,799,799,799,799,799,799,799,799,799,799,799,799,799,799,799,799,799,799,799,799,799,799,799,799,799,799,799,799,799,799,799,799,799,799,799,799,799,799,799,799,799,799,799,799,799,799,799,799,799,799,799,799,799,799,799,799,799,799,799,799,799,799,803,856,939,1024,1085,1085,1085,1085,1085,1077,1059,1004,951,908,867,856,849,835,814,761,742,722,700,680,639,619,604,594,587,552,536,533,532,532,525,517,508],"ymouse":[518,518,518,518,518,518,518,518,518,518,518,518,518,518,518,518,518,518,518,518,518,518,518,518,518,518,518,518,518,518,518,518,518,518,518,518,518,518,518,518,518,518,518,518,518,518,518,518,518,518,518,518,518,518,518,518,518,518,518,518,518,518,518,518,516,485,441,391,353,353,353,353,353,338,329,311,300,290,275,268,262,255,246,234,231,229,227,223,217,214,211,207,204,178,163,159,157,155,132,103,73],"timestamp_mouse":[13,37,53,74,94,114,134,153,175,194,213,233,253,273,294,314,333,354,374,393,414,433,454,474,494,513,535,554,574,593,613,634,654,674,694,714,734,753,775,793,813,833,854,873,893,914,933,955,973,994,1013,1033,1053,1074,1095,1114,1135,1153,1174,1194,1214,1234,1253,1274,1294,1313,1333,1353,1373,1394,1415,1434,1453,1473,1493,1513,1535,1553,1574,1593,1613,1634,1653,1673,1693,1713,1733,1754,1773,1793,1813,1834,1855,1873,1894,1913,1934,1954,1973,1993,2014],"xSR":741.5,"ySR":469.95,"xT1":424.9,"yT1":0,"xT2":1058.1,"yT2":0,"toosoon":0,"cond_shown":"Incongruent","ratio_trial":100,"L_num":9,"L_den":18,"R_num":6,"R_den":10,"correct_side":2,"subjID":"jhoansantiagocortescortes1","gender":"0","school":"6","age":"11"},{"start_time":1551794147576,"click_time":1551794149595,"finger_time":1551794149075,"fix_duration":1399.904492065147,"trial":17,"RT":1499,"MT":520,"sideResp":1,"stimulus":[],"xmouse":[832,832,832,832,832,832,832,832,832,832,832,832,832,832,832,832,832,832,832,832,832,832,832,832,832,832,832,832,832,832,832,832,832,832,832,832,832,832,832,832,832,832,832,832,832,832,832,832,832,832,832,832,832,832,832,832,832,832,832,832,832,832,832,832,832,832,832,832,832,832,832,832,832,830,704,594,502,455,444,443,443,438,430,425,420,416,414,411,408,405,405,405,405,405,406,406,406,406,407,412,433],"ymouse":[544,544,544,544,544,544,544,544,544,544,544,544,544,544,544,544,544,544,544,544,544,544,544,544,544,544,544,544,544,544,544,544,544,544,544,544,544,544,544,544,544,544,544,544,544,544,544,544,544,544,544,544,544,544,544,544,544,544,544,544,544,544,544,544,544,544,544,544,544,544,544,544,544,541,477,431,389,366,359,358,357,339,313,281,209,186,164,143,123,90,82,79,78,78,76,75,75,75,75,72,64],"timestamp_mouse":[34,39,59,79,99,120,140,158,178,198,218,238,259,278,299,320,339,359,380,398,418,439,458,479,498,520,538,560,578,599,620,639,659,680,698,718,739,760,779,798,819,840,859,879,898,920,938,959,978,998,1018,1039,1058,1080,1098,1118,1139,1160,1179,1198,1220,1239,1259,1279,1298,1319,1340,1359,1379,1399,1420,1440,1459,1479,1499,1518,1538,1558,1579,1600,1619,1638,1659,1678,1698,1718,1738,1759,1778,1798,1818,1838,1858,1878,1899,1918,1938,1958,1978,1998,2019],"xSR":741.5,"ySR":469.95,"xT1":424.9,"yT1":0,"xT2":1058.1,"yT2":0,"toosoon":0,"cond_shown":"Congruent","ratio_trial":200,"L_num":12,"L_den":20,"R_num":6,"R_den":15,"correct_side":1,"subjID":"jhoansantiagocortescortes1","gender":"0","school":"6","age":"11"},{"start_time":1551794150846,"click_time":1551794152474,"finger_time":1551794151814,"fix_duration":250,"trial":18,"RT":968,"MT":660,"sideResp":2,"stimulus":[],"xmouse":[813,812,812,812,812,812,812,812,812,812,812,812,812,812,812,812,812,812,812,812,812,812,812,812,812,812,812,812,812,812,812,812,812,812,812,812,812,812,812,812,812,812,812,812,812,812,812,821,857,866,869,873,875,878,881,885,890,893,896,900,906,909,913,917,926,942,952,958,960,963,966,979,984,984,985,987,995,1031,1037,1041,1043,1059],"ymouse":[546,542,542,542,542,542,542,542,542,542,542,542,542,542,542,542,542,542,542,542,542,542,542,542,542,542,542,542,542,542,542,542,542,542,542,542,542,542,542,542,542,542,542,542,542,542,542,532,510,501,492,477,463,443,420,397,359,344,321,300,284,266,231,213,190,159,142,130,125,123,118,108,105,104,104,102,98,91,90,89,89,84],"timestamp_mouse":[10,32,48,69,88,109,130,148,168,189,209,228,248,269,288,308,328,348,369,388,408,428,450,469,490,508,529,549,568,589,609,629,649,668,689,708,730,748,768,789,809,829,848,868,890,909,928,949,968,989,1009,1029,1048,1069,1088,1108,1129,1148,1168,1188,1208,1228,1248,1269,1289,1308,1329,1348,1368,1388,1408,1428,1448,1468,1488,1509,1528,1549,1568,1588,1609,1628],"xSR":741.5,"ySR":469.95,"xT1":424.9,"yT1":0,"xT2":1058.1,"yT2":0,"toosoon":0,"cond_shown":"Congruent","ratio_trial":200,"L_num":1,"L_den":2,"R_num":21,"R_den":30,"correct_side":2,"subjID":"jhoansantiagocortescortes1","gender":"0","school":"6","age":"11"},{"start_time":1551794154829,"click_time":1551794156294,"finger_time":1551794155755,"fix_duration":913.5248907398832,"trial":19,"RT":926,"MT":539,"sideResp":2,"stimulus":[],"xmouse":[775,775,775,775,775,775,775,775,775,775,775,775,775,775,775,775,775,775,775,775,775,775,775,775,775,775,775,775,775,775,775,775,775,775,775,775,775,775,775,775,775,775,775,775,778,795,822,862,874,878,884,889,894,903,908,911,914,922,926,932,942,953,961,968,973,981,994,1026,1039,1043,1048,1050,1056,1059],"ymouse":[523,523,523,523,523,523,523,523,523,523,523,523,523,523,523,523,523,523,523,523,523,523,523,523,523,523,523,523,523,523,523,523,523,523,523,523,523,523,523,523,523,523,523,523,519,500,443,304,251,227,210,194,180,150,137,122,106,76,63,50,38,28,24,23,23,23,23,27,33,36,38,40,43,44],"timestamp_mouse":[7,26,45,65,85,106,125,146,166,186,206,225,246,266,286,306,327,347,365,386,407,425,446,465,486,507,526,545,567,586,605,626,646,665,685,707,726,745,765,787,806,826,845,865,885,906,926,946,965,985,1005,1025,1046,1065,1086,1106,1125,1145,1165,1185,1205,1225,1245,1265,1285,1305,1326,1345,1367,1385,1406,1425,1445,1465],"xSR":741.5,"ySR":469.95,"xT1":424.9,"yT1":0,"xT2":1058.1,"yT2":0,"toosoon":0,"cond_shown":"Congruent","ratio_trial":200,"L_num":1,"L_den":2,"R_num":21,"R_den":30,"correct_side":2,"subjID":"jhoansantiagocortescortes1","gender":"0","school":"6","age":"11"},{"start_time":1551794158346,"click_time":1551794160195,"finger_time":1551794159795,"fix_duration":750.1950168614602,"trial":20,"RT":1449,"MT":400,"sideResp":2,"stimulus":[],"xmouse":[783,783,783,783,783,783,783,783,783,783,783,783,783,783,783,783,783,783,783,783,783,783,783,783,783,783,783,783,783,783,783,783,783,783,783,783,783,783,783,783,783,783,783,783,783,783,783,783,783,783,783,783,783,783,783,783,783,783,783,783,783,783,783,783,783,783,783,783,783,783,783,835,990,1090,1189,1274,1330,1323,1306,1288,1279,1279,1279,1279,1279,1279,1279,1279,1279,1279,1279,1159,1157],"ymouse":[532,532,532,532,532,532,532,532,532,532,532,532,532,532,532,532,532,532,532,532,532,532,532,532,532,532,532,532,532,532,532,532,532,532,532,532,532,532,532,532,532,532,532,532,532,532,532,532,532,532,532,532,532,532,532,532,532,532,532,532,532,532,532,532,532,532,532,532,532,532,531,491,406,360,301,234,129,94,56,20,2,2,2,2,2,2,2,2,2,2,2,1,6],"timestamp_mouse":[10,45,48,69,89,108,128,148,168,188,209,228,248,268,288,308,330,348,369,388,408,428,448,469,488,508,528,549,568,588,608,629,649,670,688,708,729,748,769,788,809,828,848,870,889,909,928,948,968,988,1009,1028,1049,1068,1089,1109,1128,1148,1168,1188,1209,1229,1248,1269,1289,1308,1329,1350,1369,1388,1410,1428,1449,1468,1489,1509,1529,1549,1569,1588,1609,1628,1649,1668,1689,1709,1728,1749,1769,1788,1808,1828,1849],"xSR":741.5,"ySR":469.95,"xT1":424.9,"yT1":0,"xT2":1058.1,"yT2":0,"toosoon":0,"cond_shown":"Congruent","ratio_trial":200,"L_num":7,"L_den":15,"R_num":18,"R_den":27,"correct_side":2,"subjID":"jhoansantiagocortescortes1","gender":"0","school":"6","age":"11"},{"start_time":1551794161633,"click_time":1551794164014,"finger_time":1551794163655,"fix_duration":338.274451238011,"trial":21,"RT":2022,"MT":359,"sideResp":2,"stimulus":[],"xmouse":[783,783,783,783,783,783,783,783,783,783,783,783,783,783,783,783,783,783,783,783,783,783,783,783,783,783,783,783,783,783,783,783,783,783,783,783,783,783,783,783,783,783,783,783,783,783,783,783,783,783,783,783,783,783,783,783,783,783,783,783,783,783,783,783,783,783,783,783,783,783,783,783,783,783,783,783,783,783,783,783,783,783,786,789,790,790,791,791,791,791,791,791,791,791,792,795,798,804,808,812,826,850,920,953,973,988,999,1019,1029,1035,1040,1044,1049,1050,1050,1050,1050,1054,1056,1062],"ymouse":[543,543,543,543,543,543,543,543,543,543,543,543,543,543,543,543,543,543,543,543,543,543,543,543,543,543,543,543,543,543,543,543,543,543,543,543,543,543,543,543,543,543,543,543,543,543,543,543,543,543,543,543,543,543,543,543,543,543,543,543,543,543,543,543,543,543,543,543,543,543,543,543,543,543,543,543,543,543,543,543,543,542,540,537,536,534,534,534,534,534,534,534,534,534,531,529,524,517,513,507,493,467,371,326,290,259,233,189,165,151,141,134,119,118,117,117,116,109,104,94],"timestamp_mouse":[8,21,42,61,83,101,121,141,161,182,201,221,242,261,281,302,322,342,361,381,403,421,442,461,481,501,523,541,562,582,602,621,642,662,681,702,722,742,761,781,801,822,842,862,881,901,921,942,962,981,1001,1023,1041,1062,1081,1102,1122,1141,1162,1182,1201,1222,1243,1262,1282,1301,1322,1342,1361,1381,1401,1422,1442,1461,1482,1502,1521,1542,1562,1583,1601,1621,1641,1661,1681,1701,1722,1742,1761,1781,1802,1822,1841,1861,1881,1902,1921,1941,1961,1981,2001,2022,2042,2061,2081,2101,2122,2142,2162,2181,2202,2222,2241,2262,2282,2301,2321,2342,2362,2381],"xSR":741.5,"ySR":469.95,"xT1":424.9,"yT1":0,"xT2":1058.1,"yT2":0,"toosoon":0,"cond_shown":"Incongruent","ratio_trial":300,"L_num":4,"L_den":20,"R_num":2,"R_den":4,"correct_side":2,"subjID":"jhoansantiagocortescortes1","gender":"0","school":"6","age":"11"},{"start_time":1551794165125,"click_time":1551794167075,"finger_time":1551794166574,"fix_duration":250,"trial":22,"RT":1449,"MT":501,"sideResp":2,"stimulus":[],"xmouse":[825,825,825,825,825,825,825,825,825,825,825,825,825,825,825,825,825,825,825,825,825,825,825,825,825,825,825,825,825,825,825,825,825,825,825,825,825,825,825,825,825,825,825,825,825,825,825,825,825,825,825,825,825,825,825,825,825,825,825,825,825,825,825,825,825,825,825,825,825,828,832,838,845,846,846,846,846,846,846,846,847,850,876,909,922,932,939,958,969,981,991,1000,1013,1022,1037,1045,1051,1062],"ymouse":[549,549,549,549,549,549,549,549,549,549,549,549,549,549,549,549,549,549,549,549,549,549,549,549,549,549,549,549,549,549,549,549,549,549,549,549,549,549,549,549,549,549,549,549,549,549,549,549,549,549,549,549,549,549,549,549,549,549,549,549,549,549,549,549,549,549,549,549,549,541,533,519,498,495,494,494,494,494,494,493,490,472,401,336,310,293,279,245,226,207,190,172,145,131,110,99,88,73],"timestamp_mouse":[14,40,50,69,89,110,129,149,169,189,211,229,249,269,290,309,329,351,369,390,410,431,450,471,489,509,529,549,569,590,609,630,649,670,690,709,730,750,769,789,810,829,849,870,890,909,931,949,969,989,1009,1029,1050,1069,1089,1110,1130,1149,1170,1189,1210,1229,1250,1269,1290,1309,1330,1349,1370,1390,1410,1429,1449,1470,1490,1509,1530,1549,1569,1589,1610,1630,1649,1669,1689,1709,1730,1750,1769,1789,1810,1829,1849,1870,1889,1909,1930,1950],"xSR":741.5,"ySR":469.95,"xT1":424.9,"yT1":0,"xT2":1058.1,"yT2":0,"toosoon":0,"cond_shown":"Incongruent","ratio_trial":200,"L_num":4,"L_den":5,"R_num":6,"R_den":10,"correct_side":1,"subjID":"jhoansantiagocortescortes1","gender":"0","school":"6","age":"11"},{"start_time":1551794168746,"click_time":1551794171234,"finger_time":1551794170435,"fix_duration":609.9440514410886,"trial":23,"RT":1689,"MT":799,"sideResp":1,"stimulus":[],"xmouse":[819,819,819,819,819,819,819,819,819,819,819,819,819,819,819,819,819,819,819,819,819,819,819,819,819,819,819,819,819,819,819,819,819,819,819,819,819,819,819,819,819,819,819,819,819,819,819,819,819,819,819,819,819,819,819,819,819,819,819,819,819,819,819,819,819,819,819,819,819,819,819,819,819,819,819,818,817,817,817,816,811,807,788,774,746,713,586,482,339,255,255,255,255,255,255,255,255,255,255,255,255,255,255,255,255,291,315,317,320,330,346,374,384,385,385,387,397,401,405,410,414,416,418,424,431],"ymouse":[514,514,514,514,514,514,514,514,514,514,514,514,514,514,514,514,514,514,514,514,514,514,514,514,514,514,514,514,514,514,514,514,514,514,514,514,514,514,514,514,514,514,514,514,514,514,514,514,514,514,514,514,514,514,514,514,514,514,514,514,514,514,514,514,514,514,514,514,514,514,514,514,514,514,514,516,516,516,516,516,515,513,497,477,444,403,258,157,63,25,25,25,25,25,25,25,25,25,25,25,25,25,25,25,25,13,32,35,38,45,56,75,80,80,80,80,70,66,63,60,58,57,56,54,52],"timestamp_mouse":[8,29,60,68,90,108,129,148,168,189,210,229,249,268,289,310,328,350,368,389,408,428,448,468,489,510,529,549,570,588,608,628,648,669,688,708,729,748,769,788,809,829,850,869,889,908,929,949,969,989,1009,1028,1048,1069,1089,1108,1129,1148,1168,1190,1208,1230,1248,1269,1289,1310,1328,1348,1368,1388,1408,1428,1448,1469,1488,1508,1529,1549,1569,1588,1609,1629,1649,1668,1689,1708,1729,1748,1768,1789,1809,1828,1848,1869,1888,1908,1928,1948,1970,1989,2009,2028,2048,2069,2089,2109,2128,2148,2169,2188,2208,2228,2248,2268,2288,2309,2328,2348,2368,2389,2409,2428,2448,2468,2488],"xSR":741.5,"ySR":469.95,"xT1":424.9,"yT1":0,"xT2":1058.1,"yT2":0,"toosoon":0,"cond_shown":"Incongruent","ratio_trial":100,"L_num":3,"L_den":5,"R_num":8,"R_den":16,"correct_side":1,"subjID":"jhoansantiagocortescortes1","gender":"0","school":"6","age":"11"},{"start_time":1551794172426,"click_time":1551794173796,"finger_time":1551794173596,"fix_duration":250,"trial":24,"RT":1170,"MT":200,"sideResp":2,"stimulus":[],"xmouse":[755,755,755,755,755,755,755,755,755,755,755,755,755,755,755,755,755,755,755,755,755,755,755,755,755,755,755,755,755,755,755,755,755,755,755,755,755,755,755,755,755,755,755,755,755,755,755,755,755,755,755,755,755,755,755,755,759,805,880,984,1043,1089,1115,1117,1118,1122,1126,1136,1137],"ymouse":[519,519,519,519,519,519,519,519,519,519,519,519,519,519,519,519,519,519,519,519,519,519,519,519,519,519,519,519,519,519,519,519,519,519,519,519,519,519,519,519,519,519,519,519,519,519,519,519,519,519,519,519,519,519,519,519,519,503,470,416,366,308,228,202,184,162,142,106,95],"timestamp_mouse":[11,34,49,69,89,108,128,149,168,188,210,228,249,268,288,309,330,348,369,388,409,428,448,469,488,509,528,550,568,589,608,629,650,669,689,708,728,750,769,789,808,830,849,868,888,909,930,949,969,988,1009,1030,1049,1069,1089,1110,1129,1148,1170,1188,1208,1228,1249,1269,1288,1308,1328,1348,1369],"xSR":741.5,"ySR":469.95,"xT1":424.9,"yT1":0,"xT2":1058.1,"yT2":0,"toosoon":0,"cond_shown":"Incongruent","ratio_trial":300,"L_num":13,"L_den":26,"R_num":12,"R_den":15,"correct_side":2,"subjID":"jhoansantiagocortescortes1","gender":"0","school":"6","age":"11"},{"start_time":1551794175976,"click_time":1551794178794,"finger_time":1551794178254,"fix_duration":1180.8079557759092,"trial":25,"RT":2278,"MT":540,"sideResp":1,"stimulus":[],"xmouse":[814,814,814,814,814,814,814,814,814,814,814,814,814,814,814,814,814,814,814,814,814,814,814,814,814,814,814,814,814,814,814,814,814,814,814,814,814,814,814,814,814,814,814,814,814,814,814,814,814,814,814,814,814,814,814,814,814,814,814,814,814,814,814,814,814,814,814,817,818,820,820,820,820,820,820,820,820,820,820,820,820,820,820,820,820,820,820,820,820,820,820,820,820,820,820,820,820,820,820,820,820,820,820,820,820,820,820,820,820,807,793,788,782,770,746,736,730,728,727,725,723,720,715,704,670,652,634,617,596,571,562,561,558,555,550,545,539,535,532,528,522],"ymouse":[521,521,521,521,521,521,521,521,521,521,521,521,521,521,521,521,521,521,521,521,521,521,521,521,521,521,521,521,521,521,521,521,521,521,521,521,521,521,521,521,521,521,521,521,521,521,521,521,521,521,521,521,521,521,521,521,521,521,521,521,521,521,521,521,521,521,521,516,514,512,512,512,512,512,512,512,512,512,512,512,512,512,512,512,512,512,512,512,512,512,512,512,512,512,512,512,512,512,512,512,512,512,512,512,512,512,512,512,509,500,489,485,477,464,433,424,420,418,418,417,415,412,407,399,367,347,323,298,257,194,173,164,156,146,123,107,94,87,83,77,71],"timestamp_mouse":[18,38,59,79,98,119,139,158,178,198,218,240,259,279,298,319,340,358,379,398,419,439,459,478,499,519,539,560,579,599,618,639,659,679,699,718,739,760,779,798,818,838,859,879,899,920,938,958,979,998,1018,1038,1060,1078,1098,1120,1140,1159,1179,1200,1218,1239,1258,1279,1298,1318,1338,1358,1379,1398,1418,1438,1459,1478,1498,1518,1538,1558,1579,1598,1619,1639,1658,1678,1698,1718,1739,1758,1779,1798,1818,1838,1858,1878,1899,1919,1938,1960,1980,1999,2018,2040,2058,2079,2099,2118,2139,2158,2178,2198,2219,2238,2259,2278,2298,2318,2338,2359,2379,2398,2418,2438,2459,2479,2498,2518,2538,2558,2580,2598,2618,2638,2659,2679,2699,2718,2738,2758,2778,2798,2818],"xSR":741.5,"ySR":469.95,"xT1":424.9,"yT1":0,"xT2":1058.1,"yT2":0,"toosoon":0,"cond_shown":"Congruent","ratio_trial":100,"L_num":8,"L_den":16,"R_num":2,"R_den":5,"correct_side":1,"subjID":"jhoansantiagocortescortes1","gender":"0","school":"6","age":"11"},{"start_time":1551794180394,"click_time":1551794183774,"finger_time":1551794182273,"fix_duration":619.3289822219657,"trial":26,"RT":1879,"MT":1501,"sideResp":2,"stimulus":[],"xmouse":[823,823,823,823,823,823,823,823,823,823,823,823,823,823,823,823,823,823,823,823,823,823,823,823,823,823,823,823,823,823,823,823,823,823,823,823,823,823,823,823,823,823,823,823,823,823,823,823,823,823,823,823,823,823,823,823,823,823,823,823,823,823,823,823,823,823,823,823,823,823,823,823,823,823,823,823,823,823,823,823,823,823,823,823,823,823,823,823,823,823,823,823,823,823,846,872,907,936,957,972,987,997,1007,1011,1013,1013,1015,1018,1022,1025,1025,1025,1025,1025,1025,1025,1025,1025,1025,1025,1025,1025,1025,1025,1025,1023,1003,955,895,824,820,818,815,810,800,799,799,799,799,799,799,799,798,798,798,798,798,798,798,798,798,798,800,802,805,808,813,815,817,824,837,872,904,950,1033,1058,1074,1083,1090,1105],"ymouse":[522,522,522,522,522,522,522,522,522,522,522,522,522,522,522,522,522,522,522,522,522,522,522,522,522,522,522,522,522,522,522,522,522,522,522,522,522,522,522,522,522,522,522,522,522,522,522,522,522,522,522,522,522,522,522,522,522,522,522,522,522,522,522,522,522,522,522,522,522,522,522,522,522,522,522,522,522,522,522,522,522,522,522,522,522,522,522,522,522,522,522,522,522,517,487,450,406,367,336,299,267,246,230,223,222,221,218,210,199,190,190,190,190,190,190,190,190,190,190,190,190,190,190,190,190,189,189,189,189,185,183,183,181,181,178,178,177,177,177,177,177,177,177,177,176,176,176,176,176,176,176,176,173,171,167,164,160,158,157,153,149,141,137,132,124,121,118,115,111,98],"timestamp_mouse":[8,34,41,59,81,99,120,141,159,180,199,219,239,260,280,299,319,340,359,379,399,421,440,460,480,500,520,540,559,579,600,621,639,660,680,700,719,740,760,780,799,819,841,860,881,899,919,940,959,981,1000,1021,1040,1061,1079,1099,1120,1139,1160,1180,1201,1220,1239,1261,1279,1301,1321,1340,1361,1379,1399,1420,1439,1460,1480,1499,1521,1539,1561,1579,1601,1621,1639,1659,1681,1699,1721,1740,1759,1780,1799,1821,1840,1860,1879,1900,1919,1940,1961,1979,1999,2020,2039,2059,2080,2099,2119,2140,2161,2180,2200,2219,2240,2259,2280,2300,2320,2339,2359,2381,2400,2420,2440,2460,2480,2499,2520,2541,2560,2579,2600,2619,2640,2661,2680,2699,2719,2739,2761,2780,2801,2819,2841,2859,2879,2901,2920,2939,2960,2980,3000,3019,3040,3060,3079,3099,3120,3139,3159,3180,3200,3220,3240,3260,3279,3299,3319,3339,3360,3379],"xSR":741.5,"ySR":469.95,"xT1":424.9,"yT1":0,"xT2":1058.1,"yT2":0,"toosoon":0,"cond_shown":"Congruent","ratio_trial":200,"L_num":3,"L_den":6,"R_num":14,"R_den":20,"correct_side":2,"subjID":"jhoansantiagocortescortes1","gender":"0","school":"6","age":"11"},{"start_time":1551794184964,"click_time":1551794186413,"finger_time":1551794186035,"fix_duration":250,"trial":27,"RT":1071,"MT":378,"sideResp":2,"stimulus":[],"xmouse":[802,802,802,802,802,802,802,802,802,802,802,802,802,802,802,802,802,802,802,802,802,802,802,802,802,802,802,802,802,802,802,802,802,802,802,802,802,802,802,802,802,802,802,802,802,802,802,802,802,802,802,812,831,861,886,915,917,918,919,919,919,917,917,918,927,950,960,972,980,988,1018,1044,1060],"ymouse":[529,529,529,529,529,529,529,529,529,529,529,529,529,529,529,529,529,529,529,529,529,529,529,529,529,529,529,529,529,529,529,529,529,529,529,529,529,529,529,529,529,529,529,529,529,529,529,529,529,529,529,518,496,457,425,368,342,312,287,267,237,222,209,191,173,141,130,121,117,113,100,93,89],"timestamp_mouse":[10,40,50,71,90,110,131,150,170,191,209,230,250,271,291,309,330,349,371,391,409,431,451,469,490,509,530,550,569,591,610,629,649,671,689,709,730,749,771,789,810,830,849,871,891,909,931,949,970,991,1009,1030,1050,1071,1090,1109,1129,1149,1169,1191,1210,1229,1249,1270,1290,1310,1329,1350,1370,1390,1409,1429,1449],"xSR":741.5,"ySR":469.95,"xT1":424.9,"yT1":0,"xT2":1058.1,"yT2":0,"toosoon":0,"cond_shown":"Congruent","ratio_trial":300,"L_num":2,"L_den":20,"R_num":10,"R_den":25,"correct_side":2,"subjID":"jhoansantiagocortescortes1","gender":"0","school":"6","age":"11"},{"start_time":1551794188097,"click_time":1551794189994,"finger_time":1551794189773,"fix_duration":742.1525919609644,"trial":28,"RT":1676,"MT":221,"sideResp":1,"stimulus":[],"xmouse":[827,827,827,827,827,827,827,827,827,827,827,827,827,827,827,827,827,827,827,827,827,827,827,827,827,827,827,827,827,827,827,827,827,827,827,827,827,827,827,827,827,827,827,827,827,827,827,827,827,827,827,827,827,827,827,827,827,827,827,827,827,827,827,827,827,827,827,827,827,827,827,827,827,827,827,827,827,827,827,827,824,820,797,693,643,583,559,543,524,521,518,516,514,510,497],"ymouse":[535,535,535,535,535,535,535,535,535,535,535,535,535,535,535,535,535,535,535,535,535,535,535,535,535,535,535,535,535,535,535,535,535,535,535,535,535,535,535,535,535,535,535,535,535,535,535,535,535,535,535,535,535,535,535,535,535,535,535,535,535,535,535,535,535,535,535,535,535,535,535,535,535,535,535,535,535,535,535,535,535,530,506,396,328,243,205,176,142,136,133,129,123,110,78],"timestamp_mouse":[17,43,57,78,98,117,136,158,177,197,218,236,257,276,298,318,336,357,376,398,418,438,456,476,497,516,536,557,576,598,616,637,656,677,697,716,738,756,776,798,816,838,856,878,896,917,938,956,978,996,1017,1038,1057,1077,1098,1116,1138,1157,1176,1198,1218,1237,1258,1277,1296,1317,1336,1356,1378,1398,1418,1436,1458,1476,1498,1516,1538,1557,1576,1598,1616,1637,1656,1676,1698,1717,1737,1756,1777,1796,1816,1837,1857,1877,1897],"xSR":741.5,"ySR":469.95,"xT1":424.9,"yT1":0,"xT2":1058.1,"yT2":0,"toosoon":0,"cond_shown":"Congruent","ratio_trial":300,"L_num":3,"L_den":6,"R_num":2,"R_den":10,"correct_side":1,"subjID":"jhoansantiagocortescortes1","gender":"0","school":"6","age":"11"},{"start_time":1551794191522,"click_time":1551794193134,"finger_time":1551794193014,"fix_duration":627.22673245472,"trial":29,"RT":1492,"MT":120,"sideResp":1,"stimulus":[],"xmouse":[805,805,805,805,805,805,805,805,805,805,805,805,805,805,805,805,805,805,805,805,805,805,805,805,805,805,805,805,805,805,805,805,805,805,805,805,805,805,805,805,805,805,805,805,805,805,805,805,805,805,805,805,805,805,805,805,805,805,805,805,805,805,805,805,805,805,805,805,805,805,805,805,805,791,735,662,609,550,537,527,516],"ymouse":[554,554,554,554,554,554,554,554,554,554,554,554,554,554,554,554,554,554,554,554,554,554,554,554,554,554,554,554,554,554,554,554,554,554,554,554,554,554,554,554,554,554,554,554,554,554,554,554,554,554,554,554,554,554,554,554,554,554,554,554,554,554,554,554,554,554,554,554,554,554,554,554,554,523,417,306,218,112,87,66,47],"timestamp_mouse":[12,32,52,72,91,113,131,153,172,192,211,233,252,272,292,312,333,353,372,392,411,431,453,473,491,512,533,552,572,592,612,633,652,673,692,712,732,753,771,793,813,833,851,872,893,911,932,953,971,991,1012,1033,1051,1072,1091,1112,1132,1151,1172,1191,1213,1232,1252,1272,1292,1311,1333,1351,1373,1391,1413,1431,1453,1472,1492,1512,1531,1552,1571,1592,1612],"xSR":741.5,"ySR":469.95,"xT1":424.9,"yT1":0,"xT2":1058.1,"yT2":0,"toosoon":0,"cond_shown":"Incongruent","ratio_trial":300,"L_num":4,"L_den":20,"R_num":2,"R_den":4,"correct_side":2,"subjID":"jhoansantiagocortescortes1","gender":"0","school":"6","age":"11"},{"start_time":1551794195579,"click_time":1551794197074,"finger_time":1551794196954,"fix_duration":804.6467208369272,"trial":30,"RT":1375,"MT":120,"sideResp":2,"stimulus":[],"xmouse":[819,819,819,819,819,819,819,819,819,819,819,819,819,819,819,819,819,819,819,819,819,819,819,819,819,819,819,819,819,819,819,819,819,819,819,819,819,819,819,819,819,819,819,819,819,819,819,819,819,819,819,819,819,819,819,819,819,819,819,819,819,819,819,819,819,820,829,841,859,911,989,1056,1100,1126,1137],"ymouse":[539,539,539,539,539,539,539,539,539,539,539,539,539,539,539,539,539,539,539,539,539,539,539,539,539,539,539,539,539,539,539,539,539,539,539,539,539,539,539,539,539,539,539,539,539,539,539,539,539,539,539,539,539,539,539,539,539,539,539,539,539,539,539,539,536,529,516,495,468,394,282,202,139,109,95],"timestamp_mouse":[14,34,55,74,96,115,136,155,175,196,214,235,256,274,295,315,335,354,376,395,414,435,454,476,494,516,534,556,576,594,614,635,654,674,695,716,734,755,776,795,816,834,855,875,896,915,935,955,976,995,1015,1036,1054,1076,1094,1115,1135,1154,1176,1194,1214,1234,1255,1274,1295,1315,1335,1355,1375,1395,1414,1434,1455,1475,1495],"xSR":741.5,"ySR":469.95,"xT1":424.9,"yT1":0,"xT2":1058.1,"yT2":0,"toosoon":0,"cond_shown":"Congruent","ratio_trial":100,"L_num":4,"L_den":10,"R_num":15,"R_den":30,"correct_side":2,"subjID":"jhoansantiagocortescortes1","gender":"0","school":"6","age":"11"},{"start_time":1551794198606,"click_time":1551794200714,"finger_time":1551794200233,"fix_duration":549.6496704323246,"trial":31,"RT":1627,"MT":481,"sideResp":1,"stimulus":[],"xmouse":[808,809,810,815,817,817,817,817,817,817,817,817,817,817,817,818,818,818,819,819,819,819,819,819,819,819,819,819,819,819,819,819,819,819,819,819,819,819,819,819,819,819,819,819,819,819,819,819,819,819,819,819,819,819,819,819,819,819,819,819,819,819,819,819,819,820,821,822,822,822,822,822,822,822,822,822,822,823,823,823,817,801,776,737,729,724,719,712,693,672,662,650,637,610,594,576,562,551,544,537,534,531,527,516,513,512],"ymouse":[533,532,531,522,520,520,520,520,520,520,520,520,520,520,520,519,518,518,517,517,517,517,517,517,517,517,517,517,517,517,517,517,517,517,517,517,517,517,517,517,517,517,517,517,517,517,517,517,517,517,517,517,517,517,517,517,517,517,517,517,517,517,517,517,517,515,515,514,514,514,514,514,514,514,514,514,514,512,507,502,485,465,436,384,366,351,341,330,305,279,263,248,234,211,196,176,158,144,135,128,126,124,120,105,101,98],"timestamp_mouse":[8,32,48,67,88,109,128,147,168,188,207,227,248,267,288,309,327,349,369,388,407,427,449,467,489,509,529,547,568,587,608,627,649,667,687,709,728,747,767,788,807,828,847,868,887,909,929,947,969,987,1007,1027,1048,1068,1088,1107,1129,1149,1167,1187,1208,1229,1247,1268,1287,1307,1328,1348,1368,1388,1407,1429,1447,1468,1488,1507,1528,1548,1567,1589,1607,1627,1649,1668,1687,1707,1728,1749,1767,1787,1808,1828,1848,1868,1888,1908,1927,1947,1968,1988,2008,2028,2048,2068,2087,2108],"xSR":741.5,"ySR":469.95,"xT1":424.9,"yT1":0,"xT2":1058.1,"yT2":0,"toosoon":0,"cond_shown":"Congruent","ratio_trial":200,"L_num":4,"L_den":10,"R_num":3,"R_den":15,"correct_side":1,"subjID":"jhoansantiagocortescortes1","gender":"0","school":"6","age":"11"},{"start_time":1551794202725,"click_time":1551794204033,"finger_time":1551794203574,"fix_duration":829.3460633788782,"trial":32,"RT":849,"MT":459,"sideResp":1,"stimulus":[],"xmouse":[804,804,804,804,804,804,804,804,804,803,803,803,803,803,803,803,803,803,803,803,803,803,803,804,804,804,804,804,804,804,804,804,804,804,804,804,804,804,804,804,804,804,760,720,676,666,663,657,650,641,631,625,621,618,615,612,610,606,603,599,592,585,573,560,538,509],"ymouse":[559,559,559,559,559,559,559,559,559,559,559,559,559,559,559,559,558,558,558,558,558,558,558,556,556,556,556,556,556,556,556,556,556,556,556,556,556,556,556,556,551,540,439,367,306,293,284,271,260,248,237,231,227,224,221,217,214,207,204,196,185,176,159,135,100,61],"timestamp_mouse":[24,36,48,69,88,109,128,148,170,189,209,229,248,270,288,309,330,348,370,389,409,430,449,469,490,509,529,550,569,590,610,628,650,670,689,708,729,749,769,789,809,829,849,870,889,909,928,949,969,989,1008,1028,1049,1070,1088,1109,1129,1148,1169,1189,1209,1229,1248,1269,1289,1308],"xSR":741.5,"ySR":469.95,"xT1":424.9,"yT1":0,"xT2":1058.1,"yT2":0,"toosoon":0,"cond_shown":"Congruent","ratio_trial":200,"L_num":20,"L_den":25,"R_num":9,"R_den":15,"correct_side":1,"subjID":"jhoansantiagocortescortes1","gender":"0","school":"6","age":"11"},{"start_time":1551794206137,"click_time":1551794207734,"finger_time":1551794207373,"fix_duration":1082.197560667699,"trial":33,"RT":1236,"MT":361,"sideResp":1,"stimulus":[],"xmouse":[825,825,825,825,825,825,825,825,825,825,825,825,825,825,825,825,825,825,825,825,825,825,825,825,825,825,825,825,825,825,825,825,825,825,825,825,825,825,825,825,825,825,825,825,825,825,825,824,822,822,822,821,821,821,821,821,819,816,812,805,793,743,692,658,620,576,451,397,375,363,359,356,356,353,353,353,353,377,415,467],"ymouse":[543,543,543,543,543,543,543,543,543,543,543,543,543,543,543,543,543,543,543,543,543,543,543,543,543,543,543,543,543,543,543,543,543,543,543,543,543,543,543,543,543,543,543,543,543,540,533,528,524,521,519,516,513,512,512,512,507,502,496,490,481,453,417,388,357,312,176,131,116,109,106,103,101,90,88,87,84,77,66,52],"timestamp_mouse":[18,38,58,76,98,116,136,157,178,197,218,237,258,278,298,318,337,357,376,397,416,438,458,477,497,516,537,557,576,597,617,637,656,678,696,718,737,757,777,797,817,836,856,878,896,917,937,957,977,996,1016,1036,1057,1077,1098,1116,1136,1157,1177,1196,1216,1236,1256,1276,1298,1316,1337,1356,1377,1396,1417,1437,1458,1476,1496,1518,1537,1556,1576,1596],"xSR":741.5,"ySR":469.95,"xT1":424.9,"yT1":0,"xT2":1058.1,"yT2":0,"toosoon":0,"cond_shown":"Congruent","ratio_trial":300,"L_num":4,"L_den":5,"R_num":2,"R_den":4,"correct_side":1,"subjID":"jhoansantiagocortescortes1","gender":"0","school":"6","age":"11"},{"start_time":1551794209243,"click_time":1551794211134,"finger_time":1551794210614,"fix_duration":568.2036879654554,"trial":34,"RT":1371,"MT":520,"sideResp":2,"stimulus":[],"xmouse":[814,814,814,814,814,814,814,814,814,814,814,814,814,814,814,814,814,814,814,814,814,814,814,814,814,814,814,814,814,814,814,814,814,814,814,814,814,814,814,814,814,814,814,814,814,814,814,814,814,814,814,814,814,814,814,814,814,814,814,814,814,814,814,814,813,814,820,830,843,860,884,942,957,965,969,970,976,987,1001,1013,1025,1036,1039,1044,1050,1059,1088,1100,1113,1122,1125,1122,1117,1114,1111],"ymouse":[559,559,559,559,559,559,559,559,559,559,559,559,559,559,559,559,559,559,559,559,559,559,559,559,559,559,559,559,559,559,559,559,559,559,559,559,559,559,559,559,559,559,559,559,559,559,559,559,559,559,559,559,559,559,559,559,559,559,559,559,559,559,559,559,556,555,550,543,536,525,512,471,456,444,435,428,411,392,376,361,346,320,307,289,273,255,215,199,183,166,154,133,120,108,97],"timestamp_mouse":[11,32,65,71,92,111,130,151,171,191,210,232,250,272,290,311,330,352,372,391,412,430,451,472,490,512,531,550,572,591,611,632,650,672,690,711,730,751,770,790,810,830,852,871,892,911,931,951,971,991,1011,1031,1051,1071,1090,1111,1131,1151,1171,1190,1212,1230,1250,1271,1291,1311,1330,1351,1371,1390,1411,1430,1450,1471,1491,1512,1530,1550,1571,1590,1616,1631,1650,1671,1690,1711,1732,1751,1770,1791,1812,1830,1850,1871,1891],"xSR":741.5,"ySR":469.95,"xT1":424.9,"yT1":0,"xT2":1058.1,"yT2":0,"toosoon":0,"cond_shown":"Congruent","ratio_trial":100,"L_num":2,"L_den":5,"R_num":11,"R_den":22,"correct_side":2,"subjID":"jhoansantiagocortescortes1","gender":"0","school":"6","age":"11"},{"start_time":1551794213586,"click_time":1551794216693,"finger_time":1551794215934,"fix_duration":250,"trial":35,"RT":2348,"MT":759,"sideResp":2,"stimulus":[],"xmouse":[812,812,812,812,812,812,812,812,812,812,812,812,812,812,812,812,812,812,812,812,812,812,812,812,812,812,812,812,812,812,812,812,812,812,812,812,812,812,812,812,812,812,812,812,812,812,812,812,812,812,812,812,812,812,812,812,812,812,812,812,812,812,812,812,812,812,812,812,812,812,812,812,812,812,812,812,812,812,812,812,812,812,812,812,812,812,812,812,812,812,812,812,812,812,812,812,812,810,808,801,798,795,795,795,795,795,795,795,795,795,795,795,795,795,797,808,837,905,988,1137,1186,1198,1201,1203,1214,1224,1229,1230,1230,1230,1231,1231,1231,1233,1234,1225,1210,1193,1171,1146,1136,1134,1133,1131,1130,1130,1129,1128,1128,1128,1128,1128,1128,1128,1128,1128],"ymouse":[569,569,569,569,569,569,569,569,569,569,569,569,569,569,569,569,569,569,569,569,569,569,569,569,569,569,569,569,569,569,569,569,569,569,569,569,569,569,569,569,569,569,569,569,569,569,569,569,569,569,569,569,569,569,569,569,569,569,569,569,569,569,569,569,569,569,569,569,569,569,569,569,569,569,569,569,569,569,569,569,569,569,569,569,569,569,569,569,569,569,569,569,569,569,569,569,569,565,564,551,548,542,540,540,538,538,538,538,538,538,537,537,537,537,535,532,526,518,515,513,513,513,513,513,513,514,514,515,515,515,515,515,515,511,469,439,399,358,321,269,243,230,222,214,204,198,193,189,185,172,162,146,134,123,100,93],"timestamp_mouse":[8,36,48,67,88,107,129,148,168,188,208,229,247,268,287,309,327,348,367,389,408,429,448,469,488,509,527,549,567,589,608,627,648,668,688,708,728,748,767,787,809,828,847,868,887,907,927,947,968,988,1009,1027,1047,1068,1088,1108,1128,1149,1168,1188,1207,1229,1249,1269,1288,1308,1328,1349,1367,1389,1409,1427,1448,1467,1489,1507,1528,1547,1569,1587,1608,1627,1647,1669,1689,1708,1729,1748,1768,1787,1809,1829,1849,1869,1888,1909,1928,1948,1967,1989,2009,2027,2047,2068,2088,2109,2127,2148,2168,2187,2209,2228,2249,2267,2287,2308,2328,2348,2368,2387,2407,2427,2448,2467,2488,2508,2528,2549,2568,2588,2608,2628,2648,2668,2687,2707,2727,2748,2768,2787,2807,2828,2849,2867,2888,2907,2927,2947,2968,2988,3009,3028,3049,3068,3087,3107],"xSR":741.5,"ySR":469.95,"xT1":424.9,"yT1":0,"xT2":1058.1,"yT2":0,"toosoon":0,"cond_shown":"Congruent","ratio_trial":100,"L_num":11,"L_den":22,"R_num":6,"R_den":15,"correct_side":1,"subjID":"jhoansantiagocortescortes1","gender":"0","school":"6","age":"11"},{"start_time":1551794218700,"click_time":1551794220974,"finger_time":1551794220373,"fix_duration":1225.8783080653611,"trial":36,"RT":1673,"MT":601,"sideResp":1,"stimulus":[],"xmouse":[768,768,768,768,768,768,768,768,768,768,768,768,768,768,768,768,768,768,768,768,768,768,768,768,768,768,768,768,768,768,768,768,768,768,768,768,768,768,768,768,768,768,768,768,768,768,768,768,768,768,768,768,768,768,768,768,768,768,768,768,768,768,768,768,768,768,768,768,768,768,768,768,768,768,768,768,768,768,768,768,766,762,752,728,715,696,686,675,655,645,637,627,617,597,583,575,566,557,548,527,514,500,486,468,465,464,464,464,464,464,464,464,464,472],"ymouse":[538,538,538,538,538,538,538,538,538,538,538,538,538,538,538,538,538,538,538,538,538,538,538,538,538,538,538,538,538,538,538,538,538,538,538,538,538,538,538,538,538,538,538,538,538,538,538,538,538,538,538,538,538,538,538,538,538,538,538,538,538,538,538,538,538,538,538,538,538,538,538,538,538,538,538,538,538,538,538,538,532,526,513,485,470,449,437,422,399,389,379,367,352,323,302,290,276,260,244,207,189,173,160,148,147,146,146,146,145,140,130,123,115,92],"timestamp_mouse":[15,40,54,74,94,113,135,154,173,195,214,234,254,274,294,313,335,353,374,395,414,435,455,475,493,515,534,555,574,593,615,635,653,674,694,715,735,753,775,795,813,835,855,875,894,914,934,954,975,994,1014,1033,1054,1075,1093,1115,1135,1153,1175,1195,1213,1235,1253,1274,1294,1314,1334,1354,1375,1395,1415,1434,1454,1473,1493,1513,1535,1555,1574,1593,1614,1633,1654,1673,1694,1713,1733,1754,1774,1793,1813,1833,1854,1874,1893,1914,1934,1954,1974,1994,2014,2034,2054,2074,2094,2114,2134,2155,2174,2194,2215,2235,2253,2274],"xSR":741.5,"ySR":469.95,"xT1":424.9,"yT1":0,"xT2":1058.1,"yT2":0,"toosoon":0,"cond_shown":"Incongruent","ratio_trial":200,"L_num":7,"L_den":15,"R_num":6,"R_den":9,"correct_side":2,"subjID":"jhoansantiagocortescortes1","gender":"0","school":"6","age":"11"},{"start_time":1551794223447,"click_time":1551794225855,"finger_time":1551794224594,"fix_duration":671.6962508173663,"trial":37,"RT":1147,"MT":1261,"sideResp":2,"stimulus":[],"xmouse":[765,765,765,765,765,765,765,765,765,765,765,765,765,765,765,765,765,765,765,765,765,765,765,765,765,765,765,765,765,764,764,764,764,764,764,763,762,762,762,761,761,760,760,760,760,760,760,760,760,760,760,760,760,760,760,755,750,724,721,718,714,713,712,712,712,712,712,712,712,712,712,712,712,712,712,712,711,710,706,704,701,701,700,692,677,655,589,568,545,541,541,541,541,543,549,556,575,599,622,639,649,672,702,762,844,925,1051,1070,1074,1074,1076,1076,1079,1080,1081,1081,1080,1079,1076,1074,1072],"ymouse":[564,564,564,564,564,564,564,564,564,564,564,564,564,564,564,564,564,564,564,564,564,564,564,564,564,564,564,564,564,564,564,564,564,564,564,564,564,564,564,564,563,563,563,563,563,563,563,563,562,562,562,562,562,562,562,552,541,482,474,469,462,461,460,460,460,460,460,460,460,460,460,460,460,460,460,460,459,458,453,452,448,447,446,435,416,387,314,291,266,260,260,260,259,256,253,249,243,239,236,234,234,234,234,234,234,234,225,219,215,214,210,207,195,188,180,171,152,141,119,104,89],"timestamp_mouse":[9,41,48,67,86,107,126,147,166,188,208,228,246,267,288,306,328,347,367,387,408,428,447,467,488,508,527,546,568,588,608,626,647,668,686,707,727,747,766,788,806,828,847,867,886,906,927,946,967,988,1008,1027,1046,1068,1087,1106,1126,1147,1166,1188,1207,1227,1247,1267,1286,1307,1327,1347,1366,1387,1407,1427,1447,1466,1487,1508,1527,1547,1567,1587,1607,1628,1647,1666,1687,1707,1727,1748,1767,1787,1807,1827,1846,1866,1887,1906,1927,1948,1967,1987,2006,2027,2046,2067,2087,2106,2126,2146,2167,2187,2207,2227,2246,2267,2287,2306,2326,2347,2367,2387,2408],"xSR":741.5,"ySR":469.95,"xT1":424.9,"yT1":0,"xT2":1058.1,"yT2":0,"toosoon":0,"cond_shown":"Incongruent","ratio_trial":100,"L_num":8,"L_den":16,"R_num":6,"R_den":10,"correct_side":2,"subjID":"jhoansantiagocortescortes1","gender":"0","school":"6","age":"11"},{"start_time":1551794227824,"click_time":1551794229533,"finger_time":1551794229334,"fix_duration":1229.4465505583705,"trial":38,"RT":1510,"MT":199,"sideResp":1,"stimulus":[],"xmouse":[773,773,773,773,773,773,773,773,773,773,773,773,773,773,773,773,773,773,773,773,773,773,773,773,773,773,773,773,774,775,776,777,779,779,779,779,779,779,779,779,779,779,779,779,779,779,779,779,779,779,779,779,779,779,779,779,779,779,779,779,779,779,779,779,781,781,782,782,782,782,782,782,779,771,762,745,719,638,583,568,562,560,554,544,531,511],"ymouse":[539,539,539,539,539,539,539,539,539,539,539,539,539,539,539,539,539,539,539,539,539,539,539,539,539,539,539,538,532,530,527,525,523,522,522,522,522,522,522,522,522,522,522,522,522,522,522,522,522,522,522,522,522,522,522,522,522,522,522,522,522,522,522,522,521,520,520,520,519,518,517,515,505,491,472,435,373,251,194,180,169,163,150,136,118,94],"timestamp_mouse":[11,35,50,70,90,110,130,149,171,189,209,231,249,270,291,309,331,351,371,390,410,429,450,470,490,510,530,550,571,590,610,630,651,669,691,709,731,749,771,791,811,830,850,871,891,909,931,949,969,990,1010,1029,1050,1071,1091,1110,1131,1150,1169,1189,1209,1229,1250,1272,1291,1310,1330,1351,1371,1390,1409,1431,1450,1470,1491,1510,1530,1549,1569,1589,1610,1629,1650,1669,1690,1709],"xSR":741.5,"ySR":469.95,"xT1":424.9,"yT1":0,"xT2":1058.1,"yT2":0,"toosoon":0,"cond_shown":"Congruent","ratio_trial":100,"L_num":10,"L_den":25,"R_num":3,"R_den":10,"correct_side":1,"subjID":"jhoansantiagocortescortes1","gender":"0","school":"6","age":"11"},{"start_time":1551794230861,"click_time":1551794232715,"finger_time":1551794232334,"fix_duration":285.2337201179135,"trial":39,"RT":1473,"MT":381,"sideResp":1,"stimulus":[],"xmouse":[805,805,805,805,805,805,805,805,805,805,805,805,805,805,805,805,805,805,805,805,805,805,805,805,805,805,805,805,805,805,805,805,805,805,805,805,805,805,805,805,805,805,805,805,805,805,805,805,805,805,805,805,805,805,805,805,805,805,805,805,805,805,805,805,806,806,807,808,809,809,810,810,809,800,766,721,644,635,616,606,588,580,577,574,570,552,544,543,542,542,537,531,523],"ymouse":[503,503,503,503,503,503,503,503,503,503,503,503,503,503,503,503,503,503,503,503,503,503,503,503,503,503,503,503,503,503,503,503,503,503,503,503,503,503,503,503,503,503,503,503,503,503,503,503,503,503,503,503,503,503,503,503,503,503,503,503,503,501,501,499,499,497,496,496,495,492,488,483,473,450,399,343,243,223,171,144,114,106,101,98,92,66,56,55,54,54,48,42,38],"timestamp_mouse":[13,32,53,73,92,113,132,153,172,194,214,233,252,272,294,312,334,352,373,393,413,432,454,474,492,512,534,553,573,592,612,632,653,673,694,712,734,752,773,792,812,833,854,874,892,914,934,952,972,994,1014,1033,1054,1072,1094,1112,1134,1153,1172,1192,1214,1233,1252,1273,1292,1312,1333,1352,1373,1392,1413,1433,1453,1473,1493,1513,1534,1553,1572,1593,1613,1633,1654,1674,1693,1712,1732,1753,1773,1793,1813,1832,1853],"xSR":741.5,"ySR":469.95,"xT1":424.9,"yT1":0,"xT2":1058.1,"yT2":0,"toosoon":0,"cond_shown":"Congruent","ratio_trial":100,"L_num":3,"L_den":6,"R_num":2,"R_den":5,"correct_side":1,"subjID":"jhoansantiagocortescortes1","gender":"0","school":"6","age":"11"},{"start_time":1551794234182,"click_time":1551794235954,"finger_time":1551794235655,"fix_duration":607.6879846824618,"trial":40,"RT":1473,"MT":299,"sideResp":1,"stimulus":[],"xmouse":[819,819,819,819,819,819,819,820,820,820,820,820,820,820,820,820,820,820,820,820,820,820,820,820,820,820,820,820,820,820,820,820,820,820,820,820,820,820,820,820,820,820,820,820,820,820,820,820,820,820,820,820,820,820,820,820,820,820,820,820,820,820,820,820,820,820,820,820,820,820,820,818,812,788,768,752,736,712,682,631,610,598,585,556,539,530,525,522],"ymouse":[503,502,502,501,501,501,501,500,500,500,500,500,500,500,500,500,500,500,500,500,500,500,500,500,500,500,500,500,500,500,500,500,500,500,500,500,500,500,500,500,500,500,500,500,500,500,500,500,500,500,500,500,500,500,500,500,500,500,500,500,500,500,500,500,500,500,498,497,489,484,481,476,464,425,397,374,351,321,281,210,173,152,132,98,83,74,68,65],"timestamp_mouse":[32,52,71,93,112,132,151,173,193,211,232,252,271,293,311,333,351,371,392,411,433,451,473,491,513,533,551,571,593,612,632,652,672,692,712,731,752,772,791,812,832,853,871,892,913,932,952,972,991,1012,1033,1051,1073,1091,1111,1133,1152,1171,1193,1212,1231,1252,1272,1292,1313,1333,1352,1372,1391,1411,1432,1452,1473,1492,1511,1532,1553,1573,1591,1613,1632,1652,1671,1691,1