[{"start_time":1551880601518,"click_time":1551880610707,"finger_time":1551880601526,"fix_duration":250.92197721502185,"trial":0,"RT":8,"MT":9181,"sideResp":2,"stimulus":[],"xmouse":[791,791,791,789,789,789,789,789,789,789,789,789,789,789,789,789,789,789,789,789,789,789,789,789,789,789,789,789,789,789,789,788,788,788,788,788,788,788,788,788,788,788,788,788,788,788,788,788,788,788,788,788,788,788,788,788,789,789,801,804,807,808,809,810,810,810,810,810,810,810,810,810,810,810,809,809,808,808,808,808,808,808,808,808,808,808,808,808,808,808,808,808,808,810,811,812,813,814,815,815,815,815,815,816,817,817,819,819,819,819,819,819,819,819,819,819,819,819,819,819,819,819,819,819,819,819,819,819,819,819,819,819,819,819,819,819,819,819,819,819,819,819,819,819,818,817,813,811,808,805,805,805,805,805,805,805,805,805,805,805,805,805,805,805,805,805,805,805,805,805,805,805,805,805,805,805,805,805,805,805,805,805,805,805,805,805,805,805,805,805,805,805,805,805,805,805,805,805,805,805,805,805,805,805,805,805,805,805,805,805,805,805,805,805,805,805,805,805,805,805,805,805,805,805,805,805,805,805,805,805,805,805,805,805,805,805,805,805,805,805,805,805,805,805,805,805,805,805,805,805,805,805,805,805,805,805,805,805,805,805,805,805,805,805,805,805,805,805,805,805,805,805,805,805,805,805,805,805,805,805,805,805,805,805,805,805,805,805,805,805,805,805,805,805,805,805,805,805,805,805,805,805,805,805,805,805,805,805,805,805,805,805,805,805,805,805,805,805,805,805,805,805,805,805,805,805,805,805,805,805,805,805,805,805,805,805,805,805,805,805,805,805,805,805,805,805,805,805,805,805,805,805,805,805,805,805,805,805,805,805,805,805,805,816,819,826,827,827,827,827,827,827,827,827,827,827,827,827,827,827,827,827,826,818,818,818,818,818,818,818,818,818,818,818,818,818,818,818,818,818,818,818,818,818,818,818,818,818,818,818,818,818,818,818,818,818,818,818,818,818,818,818,818,818,818,818,818,818,818,818,818,818,817,835,851,867,877,882,897,906,914,917,920,920,925,932,936,941,947,947,947,951,959,997,1018,1036,1052,1063,1081,1083],"ymouse":[514,514,514,517,517,517,517,517,517,517,517,517,517,517,517,517,517,517,517,517,517,517,517,517,517,517,517,517,517,517,516,512,509,507,506,506,506,506,504,503,503,503,503,503,503,503,503,503,503,503,503,503,503,503,503,503,507,507,546,564,578,585,586,587,587,587,587,587,587,587,587,587,587,587,587,587,587,587,587,587,587,587,587,587,587,587,587,587,587,587,587,587,585,578,577,575,573,570,569,569,569,569,569,568,563,560,555,555,555,555,555,555,555,555,555,555,555,555,555,555,555,555,555,555,555,555,555,555,555,555,555,555,555,555,555,555,555,555,555,555,555,555,555,555,557,563,570,582,598,604,608,611,613,614,614,614,614,614,614,614,614,614,614,614,614,614,614,614,614,614,614,614,614,614,614,614,614,614,614,614,614,614,614,614,614,614,614,614,614,614,614,614,614,614,614,614,614,614,614,614,614,614,614,614,614,614,614,614,614,614,614,614,614,614,614,614,614,614,614,614,614,614,614,614,614,614,614,614,614,614,614,614,614,614,614,614,614,614,614,614,614,614,614,614,614,614,614,614,614,614,614,614,614,614,614,614,614,614,614,614,614,614,614,614,614,614,614,614,614,614,614,614,614,614,614,614,614,614,614,614,614,614,614,614,614,614,614,614,614,614,614,614,614,614,614,614,614,614,614,614,614,614,614,614,614,614,614,614,614,614,614,614,614,614,614,614,614,614,614,614,614,614,614,614,614,614,614,614,614,614,614,614,614,614,614,614,614,614,614,614,614,614,614,614,614,614,614,614,614,614,614,614,614,614,614,614,614,614,614,614,614,614,614,616,616,616,616,616,616,616,616,616,616,616,616,616,616,616,616,616,616,616,616,616,616,616,616,616,616,616,616,616,616,616,616,616,616,616,616,616,616,616,616,616,616,616,616,616,616,616,616,616,616,616,616,616,616,616,616,616,616,616,616,616,616,616,616,616,616,616,616,616,616,593,570,542,515,491,429,408,392,383,379,379,378,375,368,358,329,307,300,280,254,198,171,147,133,118,101,98],"timestamp_mouse":[8,27,47,67,87,106,127,147,168,187,207,226,247,267,288,307,327,347,368,386,406,428,447,467,486,507,527,547,567,586,607,628,647,667,688,707,727,747,766,786,807,826,847,866,886,907,927,947,967,988,1007,1027,1048,1067,1087,1107,1126,1147,1167,1187,1206,1227,1247,1267,1287,1307,1326,1348,1367,1387,1407,1426,1448,1468,1487,1507,1526,1548,1567,1587,1606,1628,1648,1667,1686,1707,1727,1746,1768,1786,1808,1827,1847,1867,1886,1906,1927,1947,1967,1986,2006,2026,2046,2067,2087,2108,2127,2146,2167,2187,2207,2226,2247,2267,2288,2306,2326,2347,2367,2387,2407,2427,2447,2467,2487,2506,2528,2547,2567,2586,2608,2627,2647,2667,2687,2708,2726,2747,2766,2788,2807,2827,2848,2867,2888,2906,2927,2947,2967,2987,3007,3027,3047,3068,3087,3107,3127,3146,3167,3186,3207,3227,3246,3267,3287,3307,3327,3346,3367,3386,3406,3428,3446,3468,3487,3506,3527,3546,3567,3587,3606,3627,3648,3667,3687,3707,3728,3747,3767,3787,3807,3826,3846,3866,3888,3908,3926,3946,3966,3987,4007,4027,4048,4068,4087,4106,4128,4148,4167,4186,4206,4227,4247,4268,4288,4307,4327,4346,4368,4388,4407,4427,4448,4467,4488,4507,4526,4546,4568,4588,4607,4627,4646,4667,4686,4706,4726,4746,4767,4786,4808,4827,4846,4868,4886,4908,4927,4947,4967,4986,5008,5026,5047,5068,5088,5106,5128,5147,5168,5188,5208,5226,5247,5267,5288,5308,5326,5348,5367,5386,5407,5428,5446,5468,5488,5506,5528,5546,5567,5586,5607,5626,5647,5667,5686,5708,5727,5746,5767,5786,5806,5828,5846,5867,5886,5906,5927,5948,5966,5987,6007,6028,6046,6068,6086,6107,6127,6147,6168,6186,6207,6226,6247,6268,6286,6308,6328,6346,6367,6386,6408,6427,6446,6468,6486,6507,6528,6546,6568,6587,6606,6628,6646,6668,6687,6706,6727,6746,6768,6786,6806,6828,6847,6868,6887,6906,6928,6947,6968,6986,7008,7026,7047,7066,7088,7107,7126,7146,7167,7186,7206,7228,7248,7267,7286,7307,7327,7348,7366,7388,7407,7426,7448,7466,7488,7506,7528,7546,7567,7587,7607,7627,7647,7666,7686,7706,7728,7748,7767,7786,7806,7827,7847,7868,7888,7907,7928,7948,7967,7986,8008,8027,8046,8066,8086,8108,8126,8147,8166,8188,8208,8227,8247,8266,8286,8306,8326,8347,8368,8386,8407,8426,8446,8467,8488,8506,8528,8547,8567,8586,8606,8628,8647,8667,8686,8707,8727,8747,8766,8786,8806,8827,8848,8867,8887,8906,8927,8946,8966,8987,9007,9027,9047,9067,9087,9107,9127,9147,9167,9188],"xSR":741.5,"ySR":469.95,"xT1":424.9,"yT1":0,"xT2":1058.1,"yT2":0,"toosoon":0,"cond_shown":"Incongruent","ratio_trial":300,"L_num":8,"L_den":10,"R_num":14,"R_den":28,"correct_side":1,"subjID":"Jintitaashiilaverdediaz","gender":"0","age":"10","school":"6","test":{"fix_dur":[250,1500],"timestim":1000,"targets_dim":[100,100],"targets_relative_coord":[0.3,0.7],"size_stim":[880,420],"start_dim":[100,100],"size_start":[300,300],"size_fix":60,"samplingrate":20,"img_types":["Congruent","Incongruent"],"ratios":[100,200,300],"rep_conds":19,"nTrials":120,"trials_to_rest":500,"Trials_order":[77,44,35,36,31,59,98,66,69,11,26,15,58,33,6,111,113,71,93,116,87,2,54,72,34,108,105,43,48,83,101,95,17,81,97,88,84,117,99,56,86,49,68,112,106,75,39,90,61,73,63,41,30,20,18,21,29,85,38,47,45,100,110,46,42,74,50,109,0,14,78,62,10,28,104,76,32,25,119,9,12,64,80,118,107,102,27,8,94,91,40,7,23,70,3,79,60,53,16,22,96,37,24,57,13,82,65,67,115,51,103,114,89,5,4,19,92,55,1,52],"cond_shown":["Incongruent","Congruent","Incongruent","Congruent","Incongruent","Incongruent","Congruent","Congruent","Incongruent","Incongruent","Congruent","Incongruent","Congruent","Incongruent","Congruent","Incongruent","Incongruent","Incongruent","Incongruent","Congruent","Incongruent","Congruent","Congruent","Congruent","Congruent","Congruent","Incongruent","Incongruent","Congruent","Incongruent","Incongruent","Incongruent","Incongruent","Incongruent","Incongruent","Congruent","Congruent","Incongruent","Incongruent","Congruent","Congruent","Incongruent","Congruent","Congruent","Congruent","Incongruent","Incongruent","Congruent","Incongruent","Incongruent","Incongruent","Incongruent","Congruent","Congruent","Congruent","Incongruent","Incongruent","Incongruent","Congruent","Incongruent","Incongruent","Congruent","Congruent","Congruent","Congruent","Congruent","Congruent","Incongruent","Congruent","Congruent","Congruent","Congruent","Congruent","Congruent","Congruent","Congruent","Congruent","Incongruent","Incongruent","Incongruent","Congruent","Congruent","Congruent","Congruent","Incongruent","Congruent","Incongruent","Congruent","Congruent","Incongruent","Congruent","Incongruent","Incongruent","Congruent","Incongruent","Incongruent","Congruent","Incongruent","Congruent","Congruent","Congruent","Incongruent","Congruent","Incongruent","Incongruent","Congruent","Incongruent","Incongruent","Incongruent","Incongruent","Incongruent","Congruent","Incongruent","Incongruent","Congruent","Incongruent","Congruent","Incongruent","Incongruent","Congruent"],"ratio_trial":[300,200,300,100,100,300,200,100,200,300,200,200,300,200,100,200,300,300,200,200,200,200,100,100,300,100,200,100,100,300,300,300,300,200,100,300,100,200,200,200,200,100,200,300,300,200,200,100,100,100,200,300,100,200,100,200,300,100,200,300,200,300,200,300,100,200,200,100,100,200,100,200,300,300,200,300,200,100,300,200,100,300,200,300,300,100,200,200,300,100,300,100,300,300,200,100,100,300,300,300,100,100,100,200,100,300,300,100,100,200,100,100,300,300,300,100,200,100,100,300],"left_num":[8,3,2,8,2,4,1,7,14,1,4,14,24,14,12,1,1,4,3,3,4,5,3,11,8,15,11,4,8,4,4,1,4,9,8,8,4,9,7,3,1,1,8,20,7,4,7,7,11,3,7,4,2,3,12,4,1,1,14,3,7,4,20,4,12,3,8,9,3,8,1,6,2,1,3,12,11,12,4,3,6,1,6,24,4,10,9,6,1,6,4,9,4,1,9,10,1,4,18,8,2,6,8,7,3,11,2,10,13,7,3,2,4,4,5,10,14,6,8,4],"right_num":[14,14,6,2,8,8,21,15,6,2,3,6,8,6,13,3,2,6,11,11,14,14,2,6,10,13,3,8,2,2,6,3,2,8,1,10,6,8,12,9,21,8,3,8,20,6,12,15,9,4,6,6,6,14,13,14,2,8,6,4,8,1,9,1,13,14,3,6,2,3,3,11,10,8,7,2,3,2,8,11,5,19,3,2,2,3,8,7,8,3,1,6,2,11,8,8,18,2,9,1,11,13,2,14,8,4,6,8,6,14,7,11,8,2,6,8,6,3,6,1],"left_den":[10,10,4,16,4,5,2,14,30,2,8,30,30,30,30,2,2,5,4,10,6,10,6,22,15,25,20,8,16,20,5,2,20,15,20,15,8,15,10,12,2,2,15,25,14,5,10,14,22,6,15,5,5,6,30,6,2,2,28,6,10,10,25,10,30,10,15,18,6,15,2,20,20,30,10,24,22,30,5,4,20,3,15,30,20,25,15,12,30,12,10,18,20,5,15,25,2,20,20,16,5,10,16,10,5,22,4,25,26,10,9,5,5,20,25,25,28,12,16,10],"right_den":[28,28,30,5,20,16,30,25,9,10,10,9,16,9,26,10,10,12,20,22,30,20,5,15,12,26,4,20,5,4,12,15,4,10,2,12,10,10,24,20,30,20,9,16,25,10,24,25,15,10,9,12,12,20,26,30,10,20,20,20,16,10,15,10,26,28,9,10,5,9,5,22,25,24,14,10,10,4,16,20,25,30,15,4,4,10,10,10,24,5,10,10,4,22,10,16,30,4,15,5,22,26,5,28,16,20,30,16,10,28,30,22,16,4,12,16,20,5,10,10],"correct_side":[1,2,1,1,1,1,2,2,2,1,1,2,1,2,2,1,1,1,1,2,1,2,1,1,2,1,2,1,1,2,1,1,2,2,2,2,2,2,1,2,2,1,1,1,2,1,1,2,2,1,2,1,2,2,2,1,1,1,1,1,1,1,1,1,2,2,1,2,1,1,2,2,2,2,2,1,1,2,1,1,1,2,1,1,2,1,2,2,2,2,1,2,2,2,2,2,2,2,1,1,2,1,1,1,1,1,1,2,2,1,1,2,1,2,2,2,1,2,2,1],"img_shown":["img2/300/Incongruent/L/I_Dist_300_LN_8_LD_10_RN_14_RD_28_0.png","img2/200/Congruent/R/C_Dist_200_LN_3_LD_10_RN_14_RD_28_1.png","img2/300/Incongruent/L/I_Dist_300_LN_2_LD_4_RN_6_RD_30_0.png","img2/100/Congruent/L/C_Dist_100_LN_8_LD_16_RN_2_RD_5_0.png","img2/100/Incongruent/L/I_Dist_100_LN_2_LD_4_RN_8_RD_20_0.png","img2/300/Incongruent/L/I_Dist_300_LN_4_LD_5_RN_8_RD_16_0.png","img2/200/Congruent/R/C_Dist_200_LN_1_LD_2_RN_21_RD_30_1.png","img2/100/Congruent/R/C_Dist_100_LN_7_LD_14_RN_15_RD_25_1.png","img2/200/Incongruent/R/I_Dist_200_LN_14_LD_30_RN_6_RD_9_1.png","img2/300/Incongruent/L/I_Dist_300_LN_1_LD_2_RN_2_RD_10_0.png","img2/200/Congruent/L/C_Dist_200_LN_4_LD_8_RN_3_RD_10_0.png","img2/200/Incongruent/R/I_Dist_200_LN_14_LD_30_RN_6_RD_9_1.png","img2/300/Congruent/L/C_Dist_300_LN_24_LD_30_RN_8_RD_16_0.png","img2/200/Incongruent/R/I_Dist_200_LN_14_LD_30_RN_6_RD_9_1.png","img2/100/Congruent/R/C_Dist_100_LN_12_LD_30_RN_13_RD_26_1.png","img2/200/Incongruent/L/I_Dist_200_LN_1_LD_2_RN_3_RD_10_0.png","img2/300/Incongruent/L/I_Dist_300_LN_1_LD_2_RN_2_RD_10_0.png","img2/300/Incongruent/L/I_Dist_300_LN_4_LD_5_RN_6_RD_12_0.png","img2/200/Incongruent/L/I_Dist_200_LN_3_LD_4_RN_11_RD_20_0.png","img2/200/Congruent/R/C_Dist_200_LN_3_LD_10_RN_11_RD_22_1.png","img2/200/Incongruent/L/I_Dist_200_LN_4_LD_6_RN_14_RD_30_0.png","img2/200/Congruent/R/C_Dist_200_LN_5_LD_10_RN_14_RD_20_1.png","img2/100/Congruent/L/C_Dist_100_LN_3_LD_6_RN_2_RD_5_0.png","img2/100/Congruent/L/C_Dist_100_LN_11_LD_22_RN_6_RD_15_0.png","img2/300/Congruent/R/C_Dist_300_LN_8_LD_15_RN_10_RD_12_1.png","img2/100/Congruent/L/C_Dist_100_LN_15_LD_25_RN_13_RD_26_0.png","img2/200/Incongruent/R/I_Dist_200_LN_11_LD_20_RN_3_RD_4_1.png","img2/100/Incongruent/L/I_Dist_100_LN_4_LD_8_RN_8_RD_20_0.png","img2/100/Congruent/L/C_Dist_100_LN_8_LD_16_RN_2_RD_5_0.png","img2/300/Incongruent/R/I_Dist_300_LN_4_LD_20_RN_2_RD_4_1.png","img2/300/Incongruent/L/I_Dist_300_LN_4_LD_5_RN_6_RD_12_0.png","img2/300/Incongruent/L/I_Dist_300_LN_1_LD_2_RN_3_RD_15_0.png","img2/300/Incongruent/R/I_Dist_300_LN_4_LD_20_RN_2_RD_4_1.png","img2/200/Incongruent/R/I_Dist_200_LN_9_LD_15_RN_8_RD_10_1.png","img2/100/Incongruent/R/I_Dist_100_LN_8_LD_20_RN_1_RD_2_1.png","img2/300/Congruent/R/C_Dist_300_LN_8_LD_15_RN_10_RD_12_1.png","img2/100/Congruent/R/C_Dist_100_LN_4_LD_8_RN_6_RD_10_1.png","img2/200/Incongruent/R/I_Dist_200_LN_9_LD_15_RN_8_RD_10_1.png","img2/200/Incongruent/L/I_Dist_200_LN_7_LD_10_RN_12_RD_24_0.png","img2/200/Congruent/R/C_Dist_200_LN_3_LD_12_RN_9_RD_20_1.png","img2/200/Congruent/R/C_Dist_200_LN_1_LD_2_RN_21_RD_30_1.png","img2/100/Incongruent/L/I_Dist_100_LN_1_LD_2_RN_8_RD_20_0.png","img2/200/Congruent/L/C_Dist_200_LN_8_LD_15_RN_3_RD_9_0.png","img2/300/Congruent/L/C_Dist_300_LN_20_LD_25_RN_8_RD_16_0.png","img2/300/Congruent/R/C_Dist_300_LN_7_LD_14_RN_20_RD_25_1.png","img2/200/Incongruent/L/I_Dist_200_LN_4_LD_5_RN_6_RD_10_0.png","img2/200/Incongruent/L/I_Dist_200_LN_7_LD_10_RN_12_RD_24_0.png","img2/100/Congruent/R/C_Dist_100_LN_7_LD_14_RN_15_RD_25_1.png","img2/100/Incongruent/R/I_Dist_100_LN_11_LD_22_RN_9_RD_15_1.png","img2/100/Incongruent/L/I_Dist_100_LN_3_LD_6_RN_4_RD_10_0.png","img2/200/Incongruent/R/I_Dist_200_LN_7_LD_15_RN_6_RD_9_1.png","img2/300/Incongruent/L/I_Dist_300_LN_4_LD_5_RN_6_RD_12_0.png","img2/100/Congruent/R/C_Dist_100_LN_2_LD_5_RN_6_RD_12_1.png","img2/200/Congruent/R/C_Dist_200_LN_3_LD_6_RN_14_RD_20_1.png","img2/100/Congruent/R/C_Dist_100_LN_12_LD_30_RN_13_RD_26_1.png","img2/200/Incongruent/L/I_Dist_200_LN_4_LD_6_RN_14_RD_30_0.png","img2/300/Incongruent/L/I_Dist_300_LN_1_LD_2_RN_2_RD_10_0.png","img2/100/Incongruent/L/I_Dist_100_LN_1_LD_2_RN_8_RD_20_0.png","img2/200/Congruent/L/C_Dist_200_LN_14_LD_28_RN_6_RD_20_0.png","img2/300/Incongruent/L/I_Dist_300_LN_3_LD_6_RN_4_RD_20_0.png","img2/200/Incongruent/L/I_Dist_200_LN_7_LD_10_RN_8_RD_16_0.png","img2/300/Congruent/L/C_Dist_300_LN_4_LD_10_RN_1_RD_10_0.png","img2/200/Congruent/L/C_Dist_200_LN_20_LD_25_RN_9_RD_15_0.png","img2/300/Congruent/L/C_Dist_300_LN_4_LD_10_RN_1_RD_10_0.png","img2/100/Congruent/R/C_Dist_100_LN_12_LD_30_RN_13_RD_26_1.png","img2/200/Congruent/R/C_Dist_200_LN_3_LD_10_RN_14_RD_28_1.png","img2/200/Congruent/L/C_Dist_200_LN_8_LD_15_RN_3_RD_9_0.png","img2/100/Incongruent/R/I_Dist_100_LN_9_LD_18_RN_6_RD_10_1.png","img2/100/Congruent/L/C_Dist_100_LN_3_LD_6_RN_2_RD_5_0.png","img2/200/Congruent/L/C_Dist_200_LN_8_LD_15_RN_3_RD_9_0.png","img2/100/Congruent/R/C_Dist_100_LN_1_LD_2_RN_3_RD_5_1.png","img2/200/Congruent/R/C_Dist_200_LN_6_LD_20_RN_11_RD_22_1.png","img2/300/Congruent/R/C_Dist_300_LN_2_LD_20_RN_10_RD_25_1.png","img2/300/Congruent/R/C_Dist_300_LN_1_LD_30_RN_8_RD_24_1.png","img2/200/Congruent/R/C_Dist_200_LN_3_LD_10_RN_7_RD_14_1.png","img2/300/Congruent/L/C_Dist_300_LN_12_LD_24_RN_2_RD_10_0.png","img2/200/Congruent/L/C_Dist_200_LN_11_LD_22_RN_3_RD_10_0.png","img2/100/Incongruent/R/I_Dist_100_LN_12_LD_30_RN_2_RD_4_1.png","img2/300/Incongruent/L/I_Dist_300_LN_4_LD_5_RN_8_RD_16_0.png","img2/200/Incongruent/L/I_Dist_200_LN_3_LD_4_RN_11_RD_20_0.png","img2/100/Congruent/L/C_Dist_100_LN_6_LD_20_RN_5_RD_25_0.png","img2/300/Congruent/R/C_Dist_300_LN_1_LD_3_RN_19_RD_30_1.png","img2/200/Congruent/L/C_Dist_200_LN_6_LD_15_RN_3_RD_15_0.png","img2/300/Congruent/L/C_Dist_300_LN_24_LD_30_RN_2_RD_4_0.png","img2/300/Incongruent/R/I_Dist_300_LN_4_LD_20_RN_2_RD_4_1.png","img2/100/Congruent/L/C_Dist_100_LN_10_LD_25_RN_3_RD_10_0.png","img2/200/Incongruent/R/I_Dist_200_LN_9_LD_15_RN_8_RD_10_1.png","img2/200/Congruent/R/C_Dist_200_LN_6_LD_12_RN_7_RD_10_1.png","img2/300/Congruent/R/C_Dist_300_LN_1_LD_30_RN_8_RD_24_1.png","img2/100/Incongruent/R/I_Dist_100_LN_6_LD_12_RN_3_RD_5_1.png","img2/300/Congruent/L/C_Dist_300_LN_4_LD_10_RN_1_RD_10_0.png","img2/100/Incongruent/R/I_Dist_100_LN_9_LD_18_RN_6_RD_10_1.png","img2/300/Incongruent/R/I_Dist_300_LN_4_LD_20_RN_2_RD_4_1.png","img2/300/Congruent/R/C_Dist_300_LN_1_LD_5_RN_11_RD_22_1.png","img2/200/Incongruent/R/I_Dist_200_LN_9_LD_15_RN_8_RD_10_1.png","img2/100/Incongruent/R/I_Dist_100_LN_10_LD_25_RN_8_RD_16_1.png","img2/100/Congruent/R/C_Dist_100_LN_1_LD_2_RN_18_RD_30_1.png","img2/300/Incongruent/R/I_Dist_300_LN_4_LD_20_RN_2_RD_4_1.png","img2/300/Congruent/L/C_Dist_300_LN_18_LD_20_RN_9_RD_15_0.png","img2/300/Congruent/L/C_Dist_300_LN_8_LD_16_RN_1_RD_5_0.png","img2/100/Congruent/R/C_Dist_100_LN_2_LD_5_RN_11_RD_22_1.png","img2/100/Incongruent/L/I_Dist_100_LN_6_LD_10_RN_13_RD_26_0.png","img2/100/Congruent/L/C_Dist_100_LN_8_LD_16_RN_2_RD_5_0.png","img2/200/Incongruent/L/I_Dist_200_LN_7_LD_10_RN_14_RD_28_0.png","img2/100/Incongruent/L/I_Dist_100_LN_3_LD_5_RN_8_RD_16_0.png","img2/300/Congruent/L/C_Dist_300_LN_11_LD_22_RN_4_RD_20_0.png","img2/300/Incongruent/L/I_Dist_300_LN_2_LD_4_RN_6_RD_30_0.png","img2/100/Incongruent/R/I_Dist_100_LN_10_LD_25_RN_8_RD_16_1.png","img2/100/Incongruent/R/I_Dist_100_LN_13_LD_26_RN_6_RD_10_1.png","img2/200/Incongruent/L/I_Dist_200_LN_7_LD_10_RN_14_RD_28_0.png","img2/100/Incongruent/L/I_Dist_100_LN_3_LD_9_RN_7_RD_30_0.png","img2/100/Congruent/R/C_Dist_100_LN_2_LD_5_RN_11_RD_22_1.png","img2/300/Incongruent/L/I_Dist_300_LN_4_LD_5_RN_8_RD_16_0.png","img2/300/Incongruent/R/I_Dist_300_LN_4_LD_20_RN_2_RD_4_1.png","img2/300/Congruent/R/C_Dist_300_LN_5_LD_25_RN_6_RD_12_1.png","img2/100/Incongruent/R/I_Dist_100_LN_10_LD_25_RN_8_RD_16_1.png","img2/200/Congruent/L/C_Dist_200_LN_14_LD_28_RN_6_RD_20_0.png","img2/100/Incongruent/R/I_Dist_100_LN_6_LD_12_RN_3_RD_5_1.png","img2/100/Incongruent/R/I_Dist_100_LN_8_LD_16_RN_6_RD_10_1.png","img2/300/Congruent/L/C_Dist_300_LN_4_LD_10_RN_1_RD_10_0.png"],"dist100_C":[["C_Dist_100_LN_10_LD_25_RN_3_RD_10_0.png","C_Dist_100_LN_11_LD_22_RN_4_RD_10_0.png","C_Dist_100_LN_11_LD_22_RN_6_RD_15_0.png","C_Dist_100_LN_15_LD_25_RN_13_RD_26_0.png","C_Dist_100_LN_3_LD_6_RN_2_RD_5_0.png","C_Dist_100_LN_6_LD_20_RN_5_RD_25_0.png","C_Dist_100_LN_8_LD_16_RN_2_RD_5_0.png","C_Dist_100_LN_9_LD_15_RN_8_RD_16_0.png"],["C_Dist_100_LN_1_LD_2_RN_18_RD_30_1.png","C_Dist_100_LN_1_LD_2_RN_3_RD_5_1.png","C_Dist_100_LN_12_LD_30_RN_13_RD_26_1.png","C_Dist_100_LN_2_LD_5_RN_11_RD_22_1.png","C_Dist_100_LN_2_LD_5_RN_6_RD_12_1.png","C_Dist_100_LN_3_LD_20_RN_4_RD_16_1.png","C_Dist_100_LN_4_LD_10_RN_15_RD_30_1.png","C_Dist_100_LN_4_LD_8_RN_6_RD_10_1.png","C_Dist_100_LN_6_LD_12_RN_15_RD_25_1.png","C_Dist_100_LN_7_LD_14_RN_15_RD_25_1.png","C_Dist_100_LN_7_LD_14_RN_9_RD_15_1.png"]],"dist100_I":[["I_Dist_100_LN_1_LD_2_RN_8_RD_20_0.png","I_Dist_100_LN_2_LD_4_RN_6_RD_15_0.png","I_Dist_100_LN_2_LD_4_RN_8_RD_20_0.png","I_Dist_100_LN_3_LD_5_RN_11_RD_22_0.png","I_Dist_100_LN_3_LD_5_RN_8_RD_16_0.png","I_Dist_100_LN_3_LD_6_RN_4_RD_10_0.png","I_Dist_100_LN_3_LD_9_RN_7_RD_30_0.png","I_Dist_100_LN_4_LD_8_RN_8_RD_20_0.png","I_Dist_100_LN_6_LD_10_RN_11_RD_22_0.png","I_Dist_100_LN_6_LD_10_RN_13_RD_26_0.png","I_Dist_100_LN_6_LD_10_RN_7_RD_14_0.png","I_Dist_100_LN_9_LD_10_RN_20_RD_25_0.png","I_Dist_100_LN_9_LD_15_RN_13_RD_26_0.png","I_Dist_100_LN_9_LD_15_RN_14_RD_28_0.png"],["I_Dist_100_LN_10_LD_25_RN_8_RD_16_1.png","I_Dist_100_LN_10_LD_25_RN_9_RD_18_1.png","I_Dist_100_LN_11_LD_22_RN_9_RD_15_1.png","I_Dist_100_LN_12_LD_24_RN_9_RD_15_1.png","I_Dist_100_LN_12_LD_30_RN_2_RD_4_1.png","I_Dist_100_LN_13_LD_26_RN_12_RD_20_1.png","I_Dist_100_LN_13_LD_26_RN_6_RD_10_1.png","I_Dist_100_LN_17_LD_30_RN_10_RD_15_1.png","I_Dist_100_LN_6_LD_12_RN_3_RD_5_1.png","I_Dist_100_LN_8_LD_16_RN_6_RD_10_1.png","I_Dist_100_LN_8_LD_20_RN_1_RD_2_1.png","I_Dist_100_LN_9_LD_18_RN_6_RD_10_1.png"]],"dist100_S":[["E_Dist_100_LN_2_LD_12_RN_2_RD_30_0.png","E_Dist_100_LN_6_LD_10_RN_6_RD_12_0.png"],["E_Dist_100_LN_6_LD_12_RN_6_RD_10_1.png"]],"dist200_C":[["C_Dist_200_LN_11_LD_22_RN_3_RD_10_0.png","C_Dist_200_LN_12_LD_15_RN_6_RD_10_0.png","C_Dist_200_LN_12_LD_20_RN_6_RD_15_0.png","C_Dist_200_LN_14_LD_28_RN_6_RD_20_0.png","C_Dist_200_LN_15_LD_25_RN_4_RD_10_0.png","C_Dist_200_LN_16_LD_20_RN_12_RD_20_0.png","C_Dist_200_LN_16_LD_30_RN_9_RD_27_0.png","C_Dist_200_LN_20_LD_25_RN_9_RD_15_0.png","C_Dist_200_LN_21_LD_30_RN_2_RD_4_0.png","C_Dist_200_LN_4_LD_10_RN_3_RD_15_0.png","C_Dist_200_LN_4_LD_8_RN_3_RD_10_0.png","C_Dist_200_LN_6_LD_15_RN_3_RD_15_0.png","C_Dist_200_LN_7_LD_21_RN_2_RD_15_0.png","C_Dist_200_LN_8_LD_15_RN_2_RD_6_0.png","C_Dist_200_LN_8_LD_15_RN_3_RD_9_0.png","C_Dist_200_LN_8_LD_15_RN_7_RD_21_0.png","C_Dist_200_LN_9_LD_20_RN_4_RD_16_0.png"],["C_Dist_200_LN_1_LD_2_RN_21_RD_30_1.png","C_Dist_200_LN_13_LD_26_RN_14_RD_20_1.png","C_Dist_200_LN_3_LD_10_RN_11_RD_22_1.png","C_Dist_200_LN_3_LD_10_RN_14_RD_28_1.png","C_Dist_200_LN_3_LD_10_RN_7_RD_14_1.png","C_Dist_200_LN_3_LD_12_RN_9_RD_20_1.png","C_Dist_200_LN_3_LD_6_RN_14_RD_20_1.png","C_Dist_200_LN_5_LD_10_RN_14_RD_20_1.png","C_Dist_200_LN_6_LD_12_RN_7_RD_10_1.png","C_Dist_200_LN_6_LD_20_RN_11_RD_22_1.png","C_Dist_200_LN_7_LD_15_RN_18_RD_27_1.png","C_Dist_200_LN_9_LD_30_RN_13_RD_26_1.png"]],"dist200_I":[["I_Dist_200_LN_1_LD_2_RN_3_RD_10_0.png","I_Dist_200_LN_1_LD_3_RN_2_RD_15_0.png","I_Dist_200_LN_3_LD_4_RN_11_RD_20_0.png","I_Dist_200_LN_4_LD_5_RN_6_RD_10_0.png","I_Dist_200_LN_4_LD_6_RN_14_RD_30_0.png","I_Dist_200_LN_7_LD_10_RN_12_RD_24_0.png","I_Dist_200_LN_7_LD_10_RN_14_RD_28_0.png","I_Dist_200_LN_7_LD_10_RN_8_RD_16_0.png"],["I_Dist_200_LN_11_LD_20_RN_3_RD_4_1.png","I_Dist_200_LN_14_LD_30_RN_12_RD_18_1.png","I_Dist_200_LN_14_LD_30_RN_6_RD_9_1.png","I_Dist_200_LN_3_LD_10_RN_1_RD_2_1.png","I_Dist_200_LN_4_LD_30_RN_1_RD_3_1.png","I_Dist_200_LN_6_LD_20_RN_3_RD_6_1.png","I_Dist_200_LN_7_LD_15_RN_4_RD_6_1.png","I_Dist_200_LN_7_LD_15_RN_6_RD_9_1.png","I_Dist_200_LN_9_LD_15_RN_8_RD_10_1.png"]],"dist200_S":[["E_Dist_200_LN_3_LD_6_RN_3_RD_10_0.png"],["E_Dist_200_LN_3_LD_10_RN_3_RD_6_1.png"]],"dist300_C":[["C_Dist_300_LN_11_LD_22_RN_1_RD_5_0.png","C_Dist_300_LN_11_LD_22_RN_2_RD_10_0.png","C_Dist_300_LN_11_LD_22_RN_4_RD_20_0.png","C_Dist_300_LN_12_LD_24_RN_2_RD_10_0.png","C_Dist_300_LN_18_LD_20_RN_9_RD_15_0.png","C_Dist_300_LN_20_LD_25_RN_13_RD_26_0.png","C_Dist_300_LN_20_LD_25_RN_14_RD_28_0.png","C_Dist_300_LN_20_LD_25_RN_5_RD_10_0.png","C_Dist_300_LN_20_LD_25_RN_8_RD_16_0.png","C_Dist_300_LN_20_LD_25_RN_9_RD_18_0.png","C_Dist_300_LN_24_LD_30_RN_2_RD_4_0.png","C_Dist_300_LN_24_LD_30_RN_8_RD_16_0.png","C_Dist_300_LN_3_LD_6_RN_2_RD_10_0.png","C_Dist_300_LN_4_LD_10_RN_1_RD_10_0.png","C_Dist_300_LN_4_LD_5_RN_2_RD_4_0.png","C_Dist_300_LN_8_LD_16_RN_1_RD_5_0.png","C_Dist_300_LN_9_LD_10_RN_3_RD_5_0.png"],["C_Dist_300_LN_1_LD_20_RN_7_RD_20_1.png","C_Dist_300_LN_1_LD_3_RN_19_RD_30_1.png","C_Dist_300_LN_1_LD_30_RN_8_RD_24_1.png","C_Dist_300_LN_1_LD_5_RN_11_RD_22_1.png","C_Dist_300_LN_1_LD_5_RN_3_RD_6_1.png","C_Dist_300_LN_1_LD_5_RN_6_RD_12_1.png","C_Dist_300_LN_2_LD_10_RN_12_RD_24_1.png","C_Dist_300_LN_2_LD_20_RN_10_RD_25_1.png","C_Dist_300_LN_3_LD_12_RN_11_RD_20_1.png","C_Dist_300_LN_3_LD_6_RN_4_RD_5_1.png","C_Dist_300_LN_4_LD_20_RN_13_RD_26_1.png","C_Dist_300_LN_5_LD_25_RN_6_RD_12_1.png","C_Dist_300_LN_5_LD_25_RN_7_RD_14_1.png","C_Dist_300_LN_7_LD_14_RN_20_RD_25_1.png","C_Dist_300_LN_8_LD_15_RN_10_RD_12_1.png"]],"dist300_I":[["I_Dist_300_LN_1_LD_2_RN_2_RD_10_0.png","I_Dist_300_LN_1_LD_2_RN_3_RD_15_0.png","I_Dist_300_LN_2_LD_4_RN_6_RD_30_0.png","I_Dist_300_LN_3_LD_6_RN_4_RD_20_0.png","I_Dist_300_LN_4_LD_5_RN_6_RD_12_0.png","I_Dist_300_LN_4_LD_5_RN_8_RD_16_0.png","I_Dist_300_LN_7_LD_10_RN_8_RD_20_0.png","I_Dist_300_LN_8_LD_10_RN_14_RD_28_0.png","I_Dist_300_LN_8_LD_10_RN_9_RD_18_0.png"],["I_Dist_300_LN_13_LD_26_RN_12_RD_15_1.png","I_Dist_300_LN_4_LD_20_RN_2_RD_4_1.png"]],"dist300_S":[["E_Dist_300_LN_9_LD_12_RN_9_RD_20_0.png"],["E_Dist_300_LN_18_LD_30_RN_18_RD_20_1.png","E_Dist_300_LN_3_LD_10_RN_3_RD_5_1.png","E_Dist_300_LN_9_LD_20_RN_9_RD_12_1.png"]],"dist500_C":[["C_Dist_500_LN_10_LD_13_RN_7_RD_26_0.png","C_Dist_500_LN_10_LD_15_RN_4_RD_24_0.png","C_Dist_500_LN_12_LD_16_RN_3_RD_12_0.png","C_Dist_500_LN_12_LD_18_RN_4_RD_24_0.png","C_Dist_500_LN_15_LD_18_RN_5_RD_15_0.png","C_Dist_500_LN_15_LD_20_RN_1_RD_4_0.png","C_Dist_500_LN_18_LD_27_RN_1_RD_6_0.png","C_Dist_500_LN_20_LD_24_RN_1_RD_3_0.png","C_Dist_500_LN_20_LD_24_RN_3_RD_9_0.png","C_Dist_500_LN_20_LD_24_RN_7_RD_21_0.png","C_Dist_500_LN_20_LD_28_RN_3_RD_14_0.png","C_Dist_500_LN_21_LD_28_RN_6_RD_24_0.png","C_Dist_500_LN_22_LD_28_RN_2_RD_7_0.png","C_Dist_500_LN_25_LD_30_RN_9_RD_27_0.png","C_Dist_500_LN_4_LD_6_RN_1_RD_6_0.png","C_Dist_500_LN_5_LD_6_RN_2_RD_6_0.png","C_Dist_500_LN_6_LD_9_RN_1_RD_6_0.png","C_Dist_500_LN_7_LD_10_RN_1_RD_5_0.png","C_Dist_500_LN_8_LD_12_RN_1_RD_6_0.png","C_Dist_500_LN_8_LD_12_RN_4_RD_24_0.png"],["C_Dist_500_LN_1_LD_4_RN_12_RD_16_1.png","C_Dist_500_LN_1_LD_4_RN_9_RD_12_1.png","C_Dist_500_LN_1_LD_9_RN_11_RD_18_1.png","C_Dist_500_LN_10_LD_24_RN_22_RD_24_1.png","C_Dist_500_LN_2_LD_12_RN_10_RD_15_1.png","C_Dist_500_LN_2_LD_12_RN_12_RD_18_1.png","C_Dist_500_LN_2_LD_12_RN_4_RD_6_1.png","C_Dist_500_LN_2_LD_24_RN_7_RD_12_1.png","C_Dist_500_LN_2_LD_5_RN_18_RD_20_1.png","C_Dist_500_LN_2_LD_5_RN_9_RD_10_1.png","C_Dist_500_LN_2_LD_8_RN_12_RD_16_1.png","C_Dist_500_LN_2_LD_8_RN_21_RD_28_1.png","C_Dist_500_LN_3_LD_10_RN_4_RD_5_1.png","C_Dist_500_LN_3_LD_12_RN_15_RD_20_1.png","C_Dist_500_LN_3_LD_30_RN_6_RD_10_1.png","C_Dist_500_LN_3_LD_8_RN_14_RD_16_1.png","C_Dist_500_LN_4_LD_16_RN_15_RD_20_1.png","C_Dist_500_LN_4_LD_24_RN_12_RD_18_1.png","C_Dist_500_LN_5_LD_14_RN_6_RD_7_1.png","C_Dist_500_LN_7_LD_21_RN_20_RD_24_1.png","C_Dist_500_LN_7_LD_28_RN_12_RD_16_1.png","C_Dist_500_LN_7_LD_28_RN_9_RD_12_1.png","C_Dist_500_LN_9_LD_27_RN_20_RD_24_1.png"]],"dist500_I":[["I_Dist_500_LN_2_LD_3_RN_4_RD_24_0.png","I_Dist_500_LN_5_LD_6_RN_6_RD_18_0.png","I_Dist_500_LN_7_LD_8_RN_9_RD_24_0.png"],["I_Dist_500_LN_7_LD_21_RN_5_RD_6_1.png"]],"dist500_S":[["E_Dist_500_LN_6_LD_8_RN_6_RD_24_0.png"],["E_Dist_500_LN_2_LD_12_RN_2_RD_3_1.png","E_Dist_500_LN_6_LD_24_RN_6_RD_8_1.png"]]}},{"start_time":1551880614010,"click_time":1551880621605,"finger_time":1551880620864,"fix_duration":1024.2915173961155,"trial":1,"RT":6854,"MT":741,"sideResp":2,"stimulus":[],"xmouse":[773,773,773,773,773,773,773,773,773,773,773,773,773,773,773,773,773,773,773,773,773,773,773,773,773,773,773,773,773,773,773,773,773,773,773,773,773,773,773,773,773,773,773,773,773,773,773,773,773,773,773,773,773,773,773,773,773,773,773,773,773,773,773,773,773,773,773,773,773,773,773,773,773,773,773,773,773,773,773,773,773,773,773,773,773,773,773,773,773,773,773,773,773,773,773,773,773,773,773,773,773,773,773,773,773,773,773,773,773,773,773,773,773,773,773,773,773,773,773,773,773,773,773,773,773,773,773,773,773,773,773,773,773,773,773,773,773,773,773,773,773,773,773,773,773,773,773,773,773,773,773,773,773,773,773,773,773,773,773,773,773,773,773,773,773,773,773,773,773,773,773,773,773,773,773,773,773,773,773,773,773,773,773,773,773,773,773,773,773,773,773,773,773,773,773,773,773,773,773,773,773,773,773,773,773,773,773,773,773,773,773,773,773,773,773,773,773,773,773,773,773,773,773,773,773,773,773,773,773,773,773,773,773,773,773,773,773,773,773,773,773,773,773,773,773,773,773,773,773,773,773,773,773,773,773,773,773,773,773,773,773,773,773,773,773,773,773,773,773,773,773,773,773,773,773,773,773,773,773,773,773,773,773,773,773,773,773,773,773,773,773,773,773,773,773,773,773,773,773,773,773,773,773,773,773,773,773,773,773,773,773,773,773,773,773,773,773,773,773,773,773,773,773,773,773,773,773,773,773,773,773,773,773,773,772,776,782,794,801,805,812,818,830,833,839,845,850,863,868,875,882,893,904,932,943,948,955,963,980,988,999,1005,1012,1015,1016,1018,1020,1025,1030,1031,1033,1033,1035,1036,1037,1039,1041,1051,1060],"ymouse":[653,653,653,653,653,653,653,653,653,653,653,653,653,653,653,653,653,653,653,653,653,653,653,653,653,653,653,653,653,653,653,653,653,653,653,653,653,653,653,653,653,653,653,653,653,653,653,653,653,653,653,653,653,653,653,653,653,653,653,653,653,653,653,653,653,653,653,653,653,653,653,653,653,653,653,653,653,653,653,653,653,653,653,653,653,653,653,653,653,653,653,653,653,653,653,653,653,653,653,653,653,653,653,653,653,653,653,653,653,653,653,653,653,653,653,653,653,653,653,653,653,653,653,653,653,653,653,653,653,653,653,653,653,653,653,653,653,653,653,653,653,653,653,653,653,653,653,653,653,653,653,653,653,653,653,653,653,653,653,653,653,653,653,653,653,653,653,653,653,653,653,653,653,653,653,653,653,653,653,653,653,653,653,653,653,653,653,653,653,653,653,653,653,653,653,653,653,653,653,653,653,653,653,653,653,653,653,653,653,653,653,653,653,653,653,653,653,653,653,653,653,653,653,653,653,653,653,653,653,653,653,653,653,653,653,653,653,653,653,653,653,653,653,653,653,653,653,653,653,653,653,653,653,653,653,653,653,653,653,653,653,653,653,653,653,653,653,653,653,653,653,653,653,653,653,653,653,653,653,653,653,653,653,653,653,653,653,653,653,653,653,653,653,653,653,653,653,653,653,653,653,653,653,653,653,653,653,653,653,653,653,653,653,653,653,653,653,653,653,653,653,653,653,653,653,653,653,653,653,653,653,653,653,653,653,644,635,616,601,589,576,560,523,515,496,480,469,446,435,424,412,395,377,332,313,299,281,260,225,208,189,178,152,147,141,135,128,117,112,111,110,109,107,105,104,103,102,98,93],"timestamp_mouse":[14,59,74,95,114,135,155,175,195,214,236,254,275,296,314,335,355,375,396,415,435,455,475,495,514,535,555,574,596,615,635,654,676,695,714,735,756,775,796,815,835,856,874,896,914,936,956,974,996,1015,1035,1056,1074,1095,1116,1134,1155,1174,1196,1214,1236,1254,1275,1294,1316,1336,1354,1374,1395,1415,1434,1454,1474,1496,1515,1535,1556,1575,1595,1614,1635,1655,1674,1695,1716,1736,1756,1775,1794,1816,1836,1854,1874,1895,1914,1936,1954,1976,1994,2015,2035,2055,2076,2094,2115,2136,2156,2175,2194,2216,2234,2255,2274,2296,2314,2335,2354,2376,2396,2416,2434,2455,2475,2494,2516,2535,2555,2575,2595,2614,2634,2654,2674,2696,2715,2735,2756,2774,2794,2814,2835,2855,2875,2895,2915,2935,2956,2976,2996,3015,3034,3054,3076,3095,3114,3135,3154,3175,3194,3214,3235,3254,3275,3296,3314,3336,3355,3374,3395,3414,3435,3454,3475,3494,3516,3534,3556,3575,3595,3616,3634,3656,3675,3694,3715,3734,3756,3775,3796,3816,3835,3854,3874,3895,3916,3935,3954,3975,3994,4014,4034,4056,4074,4094,4115,4135,4155,4174,4195,4215,4235,4255,4275,4295,4315,4334,4354,4374,4394,4414,4436,4456,4475,4494,4515,4535,4555,4575,4595,4615,4634,4654,4674,4694,4715,4734,4754,4774,4794,4816,4835,4856,4874,4895,4915,4934,4955,4975,4995,5014,5035,5056,5075,5094,5114,5134,5154,5175,5196,5215,5235,5255,5275,5296,5316,5336,5356,5375,5396,5416,5435,5455,5475,5494,5514,5534,5554,5575,5596,5616,5634,5656,5676,5696,5715,5735,5755,5774,5794,5814,5836,5855,5874,5894,5916,5935,5955,5974,5996,6014,6036,6054,6074,6095,6114,6136,6155,6174,6196,6215,6234,6255,6276,6294,6314,6335,6354,6375,6394,6415,6435,6456,6475,6495,6516,6534,6556,6576,6594,6614,6636,6654,6675,6695,6714,6735,6754,6774,6795,6814,6834,6854,6875,6895,6915,6935,6954,6974,6994,7015,7035,7055,7074,7095,7114,7135,7155,7174,7194,7214,7235,7256,7275,7294,7314,7335,7355,7375,7394,7415,7435,7454,7474,7494,7514,7536,7554,7575,7594],"xSR":741.5,"ySR":573.95,"xT1":424.9,"yT1":0,"xT2":1058.1,"yT2":0,"toosoon":0,"cond_shown":"Congruent","ratio_trial":200,"L_num":3,"L_den":10,"R_num":14,"R_den":28,"correct_side":2,"subjID":"Jintitaashiilaverdediaz","gender":"0","school":"6","age":"10"},{"start_time":1551880625656,"click_time":1551880628445,"finger_time":1551880627444,"fix_duration":1230.6230115423427,"trial":2,"RT":1788,"MT":1001,"sideResp":2,"stimulus":[],"xmouse":[811,810,807,803,802,801,799,798,798,798,798,798,798,798,798,798,798,798,798,798,798,798,798,798,798,798,798,798,798,798,798,798,798,798,798,798,798,798,798,798,798,798,798,798,798,798,798,798,798,798,798,798,798,798,798,798,798,798,798,798,798,798,798,798,798,798,798,798,798,798,798,798,798,798,798,798,798,798,798,798,798,798,798,798,798,798,799,803,810,815,822,842,851,855,863,868,874,878,879,880,887,896,904,910,914,919,932,942,957,976,985,995,1010,1011,1012,1012,1013,1013,1014,1015,1015,1024,1030,1034,1040,1043,1046,1046,1046,1046,1047,1049,1053,1055,1055,1055,1055,1056,1058,1066],"ymouse":[621,622,624,629,630,633,636,636,636,636,636,636,636,636,636,636,636,636,636,636,636,636,636,636,636,636,636,636,636,636,636,636,636,636,636,636,636,636,636,636,636,636,636,636,636,636,636,636,636,636,636,636,636,636,636,636,636,636,636,636,636,636,636,636,636,636,636,636,636,636,636,636,636,636,636,636,636,636,636,636,636,636,636,636,636,632,629,611,585,557,530,454,417,381,352,340,314,303,298,294,288,278,270,264,257,252,244,239,232,220,212,195,167,161,158,156,155,154,152,152,150,144,140,137,133,132,130,129,128,127,123,118,113,108,104,101,99,95,92,89],"timestamp_mouse":[9,28,59,69,89,108,129,148,170,188,209,230,249,269,290,308,329,349,369,388,410,428,449,468,490,508,529,550,568,588,609,629,648,669,690,708,729,748,769,790,809,829,849,868,890,909,929,948,969,989,1010,1029,1050,1069,1090,1110,1128,1149,1169,1190,1209,1229,1249,1269,1290,1309,1328,1350,1368,1390,1408,1429,1448,1469,1490,1510,1530,1550,1568,1589,1608,1629,1648,1668,1690,1708,1728,1749,1770,1788,1810,1828,1849,1868,1889,1909,1929,1948,1968,1988,2009,2028,2049,2068,2089,2108,2128,2149,2168,2188,2209,2229,2249,2268,2288,2308,2329,2349,2369,2388,2409,2429,2449,2468,2489,2508,2528,2549,2569,2588,2609,2629,2648,2668,2689,2709,2729,2749,2768,2789],"xSR":741.5,"ySR":573.95,"xT1":424.9,"yT1":0,"xT2":1058.1,"yT2":0,"toosoon":0,"cond_shown":"Incongruent","ratio_trial":300,"L_num":2,"L_den":4,"R_num":6,"R_den":30,"correct_side":1,"subjID":"Jintitaashiilaverdediaz","gender":"0","school":"6","age":"10"},{"start_time":1551880632808,"click_time":1551880634785,"finger_time":1551880634205,"fix_duration":822.2619418539065,"trial":3,"RT":1397,"MT":580,"sideResp":1,"stimulus":[],"xmouse":[793,793,793,793,793,793,793,793,793,793,793,793,793,793,793,793,793,793,793,793,793,793,793,793,793,793,793,793,793,793,793,793,793,793,793,793,793,793,793,793,793,793,793,793,793,793,793,793,793,793,793,793,793,793,793,793,793,793,793,793,793,793,793,793,793,793,793,794,793,790,780,766,749,650,599,571,555,552,552,552,550,550,550,551,551,549,546,543,533,529,527,524,522,510,508,507,504,501,493],"ymouse":[639,639,639,639,639,639,639,639,639,639,639,639,639,639,639,639,639,639,639,639,639,639,639,639,639,639,639,639,639,639,639,639,639,639,639,639,639,639,639,639,638,637,637,637,637,637,637,637,637,637,637,637,637,637,637,637,637,637,637,637,637,637,637,637,637,637,630,624,589,565,542,513,483,385,342,316,294,277,242,227,211,198,185,164,161,158,156,153,144,140,136,130,125,112,110,107,105,103,98],"timestamp_mouse":[18,50,56,77,97,118,136,157,178,198,217,238,258,277,298,317,336,357,377,397,416,438,457,478,498,516,537,556,577,598,618,636,657,678,696,718,736,758,776,797,817,838,857,877,898,917,936,956,978,996,1017,1037,1056,1077,1096,1118,1138,1156,1177,1198,1216,1237,1256,1278,1297,1316,1337,1357,1376,1397,1417,1436,1456,1476,1497,1517,1538,1556,1576,1596,1617,1637,1657,1676,1696,1717,1737,1758,1776,1796,1816,1837,1857,1877,1897,1916,1937,1957,1976],"xSR":741.5,"ySR":573.95,"xT1":424.9,"yT1":0,"xT2":1058.1,"yT2":0,"toosoon":0,"cond_shown":"Congruent","ratio_trial":100,"L_num":8,"L_den":16,"R_num":2,"R_den":5,"correct_side":1,"subjID":"Jintitaashiilaverdediaz","gender":"0","school":"6","age":"10"},{"start_time":1551880637999,"click_time":1551880639925,"finger_time":1551880639284,"fix_duration":312.4695028800162,"trial":4,"RT":1285,"MT":641,"sideResp":2,"stimulus":[],"xmouse":[815,815,815,815,815,815,815,815,815,815,814,811,808,805,803,803,803,803,803,803,803,803,803,803,803,803,803,803,803,803,803,803,803,803,803,803,803,803,803,803,803,803,803,803,803,803,803,803,803,803,803,803,803,803,803,803,803,803,803,803,805,807,811,818,838,849,864,880,896,913,922,925,927,932,942,957,966,973,978,982,984,987,991,997,1006,1011,1017,1021,1025,1029,1033,1038,1042,1046,1055,1058,1060],"ymouse":[623,623,623,623,623,623,623,623,623,623,626,630,636,641,642,642,642,642,642,642,642,642,642,642,642,642,642,642,642,642,642,642,642,642,642,642,642,642,642,642,642,642,642,642,642,642,642,642,642,642,642,642,642,642,642,642,642,642,640,636,630,623,613,598,561,536,511,482,450,405,372,340,325,295,242,208,185,166,155,150,146,146,144,141,137,133,129,126,124,119,117,113,111,109,99,96,94],"timestamp_mouse":[11,25,46,66,86,106,125,147,165,186,205,225,246,266,286,305,327,345,366,386,406,426,447,465,487,505,527,546,567,586,606,627,646,667,687,706,726,746,765,787,805,826,846,866,887,905,926,945,965,985,1005,1027,1046,1065,1085,1107,1126,1147,1166,1185,1205,1226,1246,1267,1285,1306,1326,1346,1365,1385,1405,1426,1446,1466,1486,1505,1525,1547,1565,1586,1606,1626,1645,1665,1685,1706,1725,1747,1766,1786,1805,1825,1845,1867,1885,1906,1926],"xSR":741.5,"ySR":573.95,"xT1":424.9,"yT1":0,"xT2":1058.1,"yT2":0,"toosoon":0,"cond_shown":"Incongruent","ratio_trial":100,"L_num":2,"L_den":4,"R_num":8,"R_den":20,"correct_side":1,"subjID":"Jintitaashiilaverdediaz","gender":"0","school":"6","age":"10"},{"start_time":1551880645162,"click_time":1551880647025,"finger_time":1551880646626,"fix_duration":1256.4071695804646,"trial":5,"RT":1464,"MT":399,"sideResp":2,"stimulus":[],"xmouse":[777,777,777,777,777,777,777,777,777,777,777,777,777,777,777,777,777,777,777,777,777,777,777,777,777,777,777,777,777,777,777,777,777,777,778,778,780,781,781,781,781,781,781,781,781,781,781,781,781,781,781,781,780,778,777,776,776,776,776,776,776,776,776,776,776,776,776,776,776,776,778,790,801,807,818,829,847,863,882,905,914,940,948,960,972,984,1011,1015,1018,1023,1029,1036,1051,1073],"ymouse":[634,634,634,634,634,634,634,634,634,634,634,634,634,634,634,634,634,634,634,634,634,634,634,634,634,634,634,634,634,634,634,634,634,633,633,632,630,628,627,627,627,627,627,627,627,627,627,627,627,627,627,627,627,627,628,629,629,629,629,629,629,629,629,629,629,629,629,629,629,626,621,599,579,555,515,474,394,329,285,224,208,152,128,103,83,64,24,18,16,12,10,8,8,8],"timestamp_mouse":[8,23,47,62,83,103,123,144,162,182,202,222,243,263,283,302,324,344,363,383,402,424,444,462,484,502,523,543,564,582,603,623,644,664,683,702,723,744,763,783,802,822,844,863,883,903,923,942,965,983,1002,1023,1043,1063,1083,1102,1123,1143,1163,1182,1204,1223,1242,1264,1282,1303,1322,1344,1363,1384,1402,1422,1443,1464,1482,1504,1523,1542,1562,1582,1603,1623,1643,1662,1683,1704,1722,1744,1763,1784,1803,1823,1842,1862],"xSR":741.5,"ySR":573.95,"xT1":424.9,"yT1":0,"xT2":1058.1,"yT2":0,"toosoon":0,"cond_shown":"Incongruent","ratio_trial":300,"L_num":4,"L_den":5,"R_num":8,"R_den":16,"correct_side":1,"subjID":"Jintitaashiilaverdediaz","gender":"0","school":"6","age":"10"},{"start_time":1551880667066,"click_time":1551880669086,"finger_time":1551880668446,"fix_duration":638.7710271512301,"trial":6,"RT":1380,"MT":640,"sideResp":1,"stimulus":[],"xmouse":[793,793,793,793,793,793,793,793,793,793,793,793,793,793,793,793,793,793,793,793,793,793,793,793,793,793,793,793,793,793,793,793,793,793,793,793,793,793,793,793,793,793,793,793,793,793,793,793,793,793,793,793,793,793,793,793,793,793,793,793,793,793,793,793,793,793,793,793,792,789,783,775,771,765,760,734,723,712,707,697,694,681,668,655,644,632,617,608,598,589,578,562,561,549,546,543,543,543,542,541,537,513],"ymouse":[601,601,601,601,601,601,601,601,601,601,601,601,601,601,601,601,601,601,601,601,601,601,601,601,601,601,601,601,601,601,601,601,601,601,601,601,601,601,601,601,601,601,601,601,601,601,601,601,601,601,601,601,601,601,601,601,601,601,601,601,601,601,601,601,601,601,601,585,578,562,546,522,506,485,476,433,416,399,384,370,354,317,296,262,237,216,184,167,148,133,112,75,73,55,48,46,46,46,46,46,46,49],"timestamp_mouse":[2,19,41,59,80,108,119,140,160,181,200,220,239,259,280,300,319,339,360,379,401,419,439,460,481,500,519,541,559,580,599,619,641,659,679,700,719,741,759,781,800,820,839,859,879,899,920,939,961,980,999,1020,1041,1060,1080,1099,1119,1139,1159,1179,1201,1220,1239,1259,1281,1299,1320,1339,1360,1379,1400,1419,1439,1459,1480,1501,1519,1539,1560,1580,1600,1619,1639,1660,1680,1699,1720,1739,1759,1779,1800,1819,1841,1859,1881,1900,1919,1939,1960,1979,1999,2020],"xSR":741.5,"ySR":573.95,"xT1":424.9,"yT1":0,"xT2":1058.1,"yT2":0,"toosoon":0,"cond_shown":"Congruent","ratio_trial":200,"L_num":1,"L_den":2,"R_num":21,"R_den":30,"correct_side":2,"subjID":"Jintitaashiilaverdediaz","gender":"0","school":"6","age":"10"},{"start_time":1551880672997,"click_time":1551880675106,"finger_time":1551880674026,"fix_duration":250,"trial":7,"RT":1029,"MT":1080,"sideResp":2,"stimulus":[],"xmouse":[797,797,797,797,797,797,797,797,797,797,797,797,798,799,802,805,807,807,808,808,809,809,809,809,810,810,811,811,811,811,811,811,811,811,811,811,811,811,811,811,811,811,812,812,814,815,818,822,828,832,836,842,845,847,847,847,847,847,851,859,863,864,866,867,868,868,868,868,868,869,870,871,872,872,876,882,884,888,895,905,910,910,911,913,917,917,917,917,917,917,917,917,917,917,918,920,925,929,942,971,982,1001,1023,1040,1059,1059],"ymouse":[651,651,651,651,651,651,651,651,649,648,647,647,647,647,647,647,647,647,647,647,647,647,647,647,647,647,647,647,646,646,646,646,646,646,646,646,646,646,645,645,644,643,642,641,640,639,637,634,629,622,618,613,611,610,610,610,608,605,598,577,567,562,555,552,549,549,549,549,548,547,545,543,540,539,533,522,514,503,489,463,448,445,438,429,421,420,420,420,420,420,420,420,420,420,418,416,410,404,388,349,332,298,260,220,130,93],"timestamp_mouse":[9,29,49,68,89,108,128,150,168,189,208,229,249,269,288,308,329,348,369,388,408,428,450,468,490,508,529,548,569,588,609,628,648,669,689,708,728,749,768,790,808,829,850,868,888,910,928,949,970,989,1008,1029,1049,1069,1090,1109,1128,1148,1168,1188,1209,1228,1248,1268,1288,1310,1328,1349,1370,1388,1408,1429,1449,1468,1488,1510,1528,1548,1569,1589,1608,1629,1648,1668,1688,1709,1728,1749,1769,1789,1808,1830,1849,1870,1888,1908,1929,1948,1968,1989,2008,2028,2049,2068,2088,2109],"xSR":741.5,"ySR":573.95,"xT1":424.9,"yT1":0,"xT2":1058.1,"yT2":0,"toosoon":0,"cond_shown":"Congruent","ratio_trial":100,"L_num":7,"L_den":14,"R_num":15,"R_den":25,"correct_side":2,"subjID":"Jintitaashiilaverdediaz","gender":"0","school":"6","age":"10"},{"start_time":1551880676798,"click_time":1551880678526,"finger_time":1551880677187,"fix_duration":250,"trial":8,"RT":389,"MT":1339,"sideResp":2,"stimulus":[],"xmouse":[819,820,822,824,824,824,824,824,824,824,822,820,818,818,818,818,818,818,820,821,821,821,820,820,820,820,820,820,820,820,820,819,818,816,810,808,804,801,798,798,798,798,798,798,798,798,797,797,797,797,797,797,797,797,797,797,805,812,834,853,853,853,857,863,872,884,901,914,930,947,952,956,959,968,981,986,988,990,993,1002,1011,1016,1021,1032,1045,1052,1064],"ymouse":[600,600,600,599,596,596,596,596,596,599,604,610,616,616,616,616,615,611,598,573,562,556,554,554,554,554,554,554,554,554,554,554,554,554,554,557,565,571,576,577,577,577,577,577,577,577,577,577,577,577,577,577,577,577,577,577,576,569,555,513,477,464,426,379,345,312,271,244,219,188,180,177,175,171,158,153,144,136,126,103,86,74,65,50,42,39,36],"timestamp_mouse":[9,27,47,67,87,109,127,148,169,188,207,227,249,268,288,309,327,348,367,389,408,427,447,469,488,507,529,549,568,587,608,627,647,668,687,707,728,747,768,787,809,827,848,867,889,908,927,948,968,988,1008,1028,1048,1068,1087,1109,1127,1147,1168,1189,1207,1227,1247,1268,1287,1308,1327,1348,1369,1387,1407,1427,1447,1467,1487,1508,1527,1548,1567,1588,1608,1628,1647,1667,1687,1709,1728],"xSR":741.5,"ySR":573.95,"xT1":424.9,"yT1":0,"xT2":1058.1,"yT2":0,"toosoon":0,"cond_shown":"Incongruent","ratio_trial":200,"L_num":14,"L_den":30,"R_num":6,"R_den":9,"correct_side":2,"subjID":"Jintitaashiilaverdediaz","gender":"0","school":"6","age":"10"},{"start_time":1551880680305,"click_time":1551880681685,"finger_time":1551880681085,"fix_duration":436.2624400770937,"trial":9,"RT":780,"MT":600,"sideResp":2,"stimulus":[],"xmouse":[824,824,824,824,824,824,823,823,822,822,822,822,822,822,822,822,822,822,822,822,822,822,822,822,822,822,822,822,822,822,822,822,822,822,822,822,822,828,835,886,923,931,954,964,976,977,977,977,978,981,986,986,989,989,995,997,1002,1008,1014,1024,1027,1029,1031,1034,1037,1041,1044,1047,1051,1062],"ymouse":[600,600,600,600,600,600,601,602,604,605,605,605,605,605,605,605,605,605,605,605,605,605,605,605,605,605,605,605,605,605,605,605,605,605,605,605,605,601,596,562,524,510,461,428,382,368,355,344,339,325,299,298,280,273,228,204,178,164,144,105,93,83,76,66,52,46,43,43,43,48],"timestamp_mouse":[9,22,42,61,81,100,121,141,160,180,201,221,241,262,282,301,320,340,360,380,400,420,441,461,480,501,520,541,561,582,601,620,640,661,681,700,721,740,761,780,800,821,841,860,880,900,920,941,961,980,1000,1021,1040,1061,1081,1100,1121,1140,1162,1180,1200,1220,1242,1261,1280,1300,1320,1340,1361,1380],"xSR":741.5,"ySR":573.95,"xT1":424.9,"yT1":0,"xT2":1058.1,"yT2":0,"toosoon":0,"cond_shown":"Incongruent","ratio_trial":300,"L_num":1,"L_den":2,"R_num":2,"R_den":10,"correct_side":1,"subjID":"Jintitaashiilaverdediaz","gender":"0","school":"6","age":"10"},{"start_time":1551880684665,"click_time":1551880687265,"finger_time":1551880686585,"fix_duration":1478.4206892181546,"trial":10,"RT":1920,"MT":680,"sideResp":1,"stimulus":[],"xmouse":[806,806,806,806,806,806,806,806,806,806,806,806,806,806,806,806,806,806,806,806,806,806,806,806,806,806,806,806,806,806,806,806,806,806,806,806,806,806,806,806,806,806,806,806,806,806,806,806,806,806,806,806,806,806,806,806,806,806,806,806,806,806,806,806,806,806,806,806,806,806,806,806,806,806,806,806,806,806,806,806,806,806,806,806,806,806,806,806,806,804,803,797,790,783,778,772,759,750,741,730,711,690,676,661,645,633,605,597,591,586,585,581,574,570,565,564,559,554,549,543,539,529,527,518,512,504,501,500,499,498,496],"ymouse":[652,652,652,652,652,652,652,652,652,652,652,652,652,652,652,652,652,652,652,652,652,652,652,652,652,652,652,652,652,652,652,652,652,652,652,652,652,652,652,652,652,652,652,652,652,652,652,652,651,651,651,651,651,651,651,651,651,651,651,651,651,651,651,651,651,651,651,651,651,651,651,651,651,651,651,651,651,651,651,651,651,651,651,651,651,651,651,651,651,645,640,619,608,599,591,583,564,550,533,516,485,443,418,394,373,354,307,284,264,246,237,235,220,215,202,195,177,171,164,156,152,141,140,131,122,116,111,106,102,102,98],"timestamp_mouse":[8,21,49,61,81,100,122,141,161,180,200,221,241,260,281,300,320,340,362,381,401,421,440,461,480,500,520,540,561,580,601,621,640,660,680,700,720,740,760,780,802,821,842,860,880,902,921,940,962,980,1001,1020,1041,1061,1080,1100,1122,1140,1160,1180,1202,1220,1240,1262,1280,1300,1320,1340,1362,1380,1401,1420,1442,1460,1480,1501,1520,1541,1561,1582,1601,1620,1641,1661,1681,1700,1722,1741,1760,1780,1802,1820,1840,1860,1881,1900,1920,1942,1960,1984,2001,2020,2041,2060,2080,2101,2121,2140,2160,2180,2201,2221,2241,2260,2281,2300,2321,2341,2360,2380,2400,2420,2442,2461,2481,2501,2520,2540,2560,2580,2600],"xSR":741.5,"ySR":573.95,"xT1":424.9,"yT1":0,"xT2":1058.1,"yT2":0,"toosoon":0,"cond_shown":"Congruent","ratio_trial":200,"L_num":4,"L_den":8,"R_num":3,"R_den":10,"correct_side":1,"subjID":"Jintitaashiilaverdediaz","gender":"0","school":"6","age":"10"},{"start_time":1551880690167,"click_time":1551880691645,"finger_time":1551880691186,"fix_duration":1460.5209785990282,"trial":11,"RT":1019,"MT":459,"sideResp":2,"stimulus":[],"xmouse":[766,766,766,766,766,766,766,766,766,766,766,766,766,766,766,766,766,766,766,766,766,766,766,766,766,766,766,765,765,764,763,763,763,763,763,763,763,763,763,763,763,763,763,764,766,771,773,780,786,797,819,837,857,880,913,950,964,974,986,993,996,996,999,1000,1000,1003,1003,1003,1003,1003,1017,1030,1044,1059],"ymouse":[643,643,643,643,643,643,643,643,643,643,643,643,643,643,643,643,643,643,643,643,643,643,643,643,643,643,643,644,644,645,645,645,645,645,645,645,645,645,645,645,645,640,637,632,626,619,615,611,604,587,531,495,458,422,376,317,284,251,220,191,152,136,123,114,107,97,97,97,97,97,97,97,97,97],"timestamp_mouse":[35,39,59,78,99,120,138,159,179,199,218,238,259,279,300,320,339,359,378,398,419,438,458,479,499,519,540,559,579,600,618,639,660,679,699,720,739,760,779,798,819,839,859,878,900,918,938,959,979,998,1018,1038,1059,1079,1098,1118,1139,1158,1178,1198,1219,1239,1258,1278,1298,1319,1338,1358,1378,1398,1418,1439,1459,1478],"xSR":741.5,"ySR":573.95,"xT1":424.9,"yT1":0,"xT2":1058.1,"yT2":0,"toosoon":0,"cond_shown":"Incongruent","ratio_trial":200,"L_num":14,"L_den":30,"R_num":6,"R_den":9,"correct_side":2,"subjID":"Jintitaashiilaverdediaz","gender":"0","school":"6","age":"10"},{"start_time":1551880693503,"click_time":1551880695167,"finger_time":1551880694507,"fix_duration":576.5784509415212,"trial":12,"RT":1004,"MT":660,"sideResp":2,"stimulus":[],"xmouse":[757,757,756,756,756,756,756,756,756,756,756,756,756,756,756,756,756,756,756,756,756,756,756,756,756,756,756,756,756,756,756,756,757,757,758,758,759,760,760,760,760,760,760,760,760,761,762,764,768,791,804,815,832,840,864,874,881,883,885,888,893,897,910,929,966,983,997,1004,1007,1015,1018,1018,1019,1019,1019,1018,1017,1016,1016,1023,1033,1045,1056,1066],"ymouse":[601,600,598,598,598,598,598,598,598,598,598,598,598,598,598,598,598,598,598,598,598,598,598,598,598,598,593,591,588,587,587,587,591,593,599,603,606,608,609,609,609,609,609,609,609,608,607,605,599,575,559,550,531,522,493,485,478,475,473,466,454,446,427,399,334,294,253,212,178,123,114,107,104,104,104,104,104,104,105,105,105,101,97,94],"timestamp_mouse":[2,22,42,62,82,102,123,142,163,183,202,222,242,262,282,303,324,344,363,383,403,424,443,464,483,502,522,544,563,583,603,623,642,664,682,702,724,742,762,782,802,823,843,862,882,904,922,942,963,982,1004,1023,1042,1062,1082,1103,1123,1142,1163,1182,1203,1223,1242,1264,1283,1302,1322,1342,1364,1382,1403,1422,1442,1463,1482,1503,1522,1544,1563,1582,1603,1623,1643,1664],"xSR":741.5,"ySR":573.95,"xT1":424.9,"yT1":0,"xT2":1058.1,"yT2":0,"toosoon":0,"cond_shown":"Congruent","ratio_trial":300,"L_num":24,"L_den":30,"R_num":8,"R_den":16,"correct_side":1,"subjID":"Jintitaashiilaverdediaz","gender":"0","school":"6","age":"10"},{"start_time":1551880696763,"click_time":1551880699766,"finger_time":1551880698605,"fix_duration":595.3785172097397,"trial":13,"RT":1842,"MT":1161,"sideResp":1,"stimulus":[],"xmouse":[804,804,804,804,804,804,804,804,804,804,804,804,804,804,804,804,804,804,804,804,804,804,804,804,804,804,804,804,804,804,804,804,804,804,804,804,804,804,804,804,804,804,804,804,804,804,804,804,804,804,804,804,804,804,804,804,804,804,804,804,804,804,804,804,804,804,804,804,804,804,804,804,804,804,804,804,804,804,804,804,804,804,804,804,804,804,804,804,804,804,804,804,804,803,803,803,803,803,803,803,803,803,803,803,803,803,791,783,774,764,753,726,704,679,659,636,604,593,589,584,583,582,578,575,573,571,568,563,559,555,554,554,553,551,550,548,545,544,542,538,538,531,528,526,523,523,522,522,522,522,521],"ymouse":[598,598,598,598,598,598,598,598,598,598,598,598,598,598,598,598,598,598,598,598,598,598,598,598,598,598,598,598,598,598,598,598,598,598,598,598,598,598,598,598,598,598,598,598,598,598,598,598,598,598,598,598,598,598,598,598,598,598,598,598,598,598,598,598,598,598,598,598,598,598,598,598,598,598,598,598,598,598,598,598,598,598,598,598,598,598,598,598,598,598,590,578,571,570,570,570,570,570,570,570,570,569,569,565,559,552,520,504,485,466,449,414,388,356,338,318,284,268,254,237,226,214,204,194,184,175,157,145,138,133,131,129,127,125,124,122,116,114,111,109,108,105,104,102,102,101,100,100,100,100,99],"timestamp_mouse":[8,23,43,64,82,102,122,142,162,184,203,222,244,263,282,302,324,342,364,382,404,422,444,463,484,503,522,542,562,582,604,622,643,663,682,703,724,743,762,782,803,823,842,863,883,902,922,943,962,983,1002,1023,1044,1062,1082,1104,1122,1142,1164,1183,1203,1222,1244,1263,1282,1303,1322,1343,1362,1384,1403,1424,1442,1462,1482,1502,1524,1543,1562,1583,1602,1622,1643,1662,1682,1702,1724,1743,1763,1782,1804,1822,1842,1862,1883,1903,1923,1942,1963,1982,2002,2022,2042,2062,2082,2103,2122,2142,2163,2183,2202,2222,2243,2262,2283,2302,2322,2342,2363,2383,2402,2422,2442,2463,2483,2502,2522,2542,2562,2583,2604,2623,2642,2662,2682,2702,2722,2743,2762,2783,2802,2822,2843,2862,2883,2903,2922,2943,2962,2982,3003],"xSR":741.5,"ySR":573.95,"xT1":424.9,"yT1":0,"xT2":1058.1,"yT2":0,"toosoon":0,"cond_shown":"Incongruent","ratio_trial":200,"L_num":14,"L_den":30,"R_num":6,"R_den":9,"correct_side":2,"subjID":"Jintitaashiilaverdediaz","gender":"0","school":"6","age":"10"},{"start_time":1551880702189,"click_time":1551880703465,"finger_time":1551880703006,"fix_duration":1342.8613339798517,"trial":14,"RT":817,"MT":459,"sideResp":2,"stimulus":[],"xmouse":[776,776,776,776,776,776,776,776,776,776,776,776,776,776,776,776,776,776,776,776,776,776,776,776,776,776,776,776,776,776,776,776,776,776,776,776,777,781,790,804,824,844,863,881,910,920,935,947,959,969,977,983,991,1000,1012,1020,1022,1024,1026,1032,1040,1050,1055,1063],"ymouse":[613,613,613,613,613,613,613,613,613,613,613,613,613,613,613,613,613,613,613,613,613,613,613,613,613,613,613,613,613,613,613,613,613,613,613,613,610,604,592,574,538,502,467,435,368,339,314,287,260,231,214,192,173,156,125,110,104,101,100,99,99,99,99,99],"timestamp_mouse":[16,45,57,77,96,117,137,157,177,196,217,237,257,277,298,317,337,356,378,396,417,436,457,476,496,518,537,556,578,596,618,638,657,676,696,716,736,756,777,796,816,836,856,877,897,918,937,957,976,996,1018,1036,1056,1077,1096,1118,1136,1156,1176,1196,1217,1238,1257,1276],"xSR":741.5,"ySR":573.95,"xT1":424.9,"yT1":0,"xT2":1058.1,"yT2":0,"toosoon":0,"cond_shown":"Congruent","ratio_trial":100,"L_num":12,"L_den":30,"R_num":13,"R_den":26,"correct_side":2,"subjID":"Jintitaashiilaverdediaz","gender":"0","school":"6","age":"10"},{"start_time":1551880704829,"click_time":1551880706065,"finger_time":1551880705885,"fix_duration":302.8065025266701,"trial":15,"RT":1056,"MT":180,"sideResp":2,"stimulus":[],"xmouse":[787,787,787,787,787,787,787,786,783,776,773,771,770,770,770,770,770,770,770,770,770,770,770,770,770,770,770,770,770,770,770,770,770,770,770,770,770,770,770,770,770,770,770,770,770,770,770,770,770,769,768,768,783,818,854,908,963,1041,1071,1098,1119,1136],"ymouse":[648,648,648,648,648,648,648,643,625,607,598,594,593,593,593,593,593,593,596,601,605,609,611,611,611,611,611,611,611,611,611,611,611,611,611,611,611,611,611,611,611,611,611,607,601,596,592,587,586,583,582,579,559,524,487,433,376,268,218,157,111,68],"timestamp_mouse":[18,38,57,76,97,116,137,156,176,198,217,237,257,277,296,317,337,357,376,397,416,438,456,476,497,517,538,557,577,596,618,637,656,678,696,718,737,756,778,798,816,836,857,878,896,916,938,956,976,996,1016,1038,1056,1077,1097,1116,1137,1156,1176,1197,1216,1236],"xSR":741.5,"ySR":573.95,"xT1":424.9,"yT1":0,"xT2":1058.1,"yT2":0,"toosoon":0,"cond_shown":"Incongruent","ratio_trial":200,"L_num":1,"L_den":2,"R_num":3,"R_den":10,"correct_side":1,"subjID":"Jintitaashiilaverdediaz","gender":"0","school":"6","age":"10"},{"start_time":1551880709065,"click_time":1551880711125,"finger_time":1551880710565,"fix_duration":256.8153101711992,"trial":16,"RT":1500,"MT":560,"sideResp":2,"stimulus":[],"xmouse":[775,775,775,775,775,775,775,775,775,775,775,775,775,775,775,775,775,775,775,775,775,775,775,775,775,775,775,775,775,775,775,775,775,775,775,775,775,775,775,775,775,775,775,775,775,775,775,775,775,775,775,775,775,775,775,775,775,775,775,775,775,775,775,775,775,775,775,775,775,775,775,775,775,778,783,787,801,817,836,861,871,902,944,970,993,1030,1085,1103,1120,1128,1134,1141,1141,1141,1141,1138,1133,1130,1127,1122,1120,1118,1118,1118],"ymouse":[608,603,603,603,603,603,603,603,603,603,603,603,603,603,603,603,603,603,603,603,603,603,603,603,603,603,603,603,603,603,603,603,603,603,603,603,603,603,603,603,603,603,603,603,603,603,603,603,603,603,603,603,603,603,603,603,603,603,603,603,603,603,603,603,603,603,603,603,603,603,603,603,601,593,583,569,552,532,512,486,476,453,419,398,378,354,299,276,250,232,209,168,156,145,135,125,113,109,106,103,103,101,100,99],"timestamp_mouse":[1,36,41,61,80,102,122,141,160,181,202,220,240,261,280,300,320,340,360,380,401,420,440,462,481,500,521,540,561,582,601,620,640,662,681,700,721,740,762,780,802,820,842,860,882,901,920,940,961,980,1001,1021,1040,1061,1080,1101,1120,1142,1160,1181,1200,1221,1241,1261,1280,1301,1320,1341,1360,1380,1401,1420,1441,1460,1481,1500,1520,1540,1560,1581,1601,1620,1641,1660,1681,1700,1720,1741,1760,1780,1801,1820,1840,1860,1881,1902,1920,1940,1961,1981,2001,2021,2041,2060],"xSR":741.5,"ySR":573.95,"xT1":424.9,"yT1":0,"xT2":1058.1,"yT2":0,"toosoon":0,"cond_shown":"Incongruent","ratio_trial":300,"L_num":1,"L_den":2,"R_num":2,"R_den":10,"correct_side":1,"subjID":"Jintitaashiilaverdediaz","gender":"0","school":"6","age":"10"},{"start_time":1551880712517,"click_time":1551880714185,"finger_time":1551880713365,"fix_duration":250,"trial":17,"RT":848,"MT":820,"sideResp":1,"stimulus":[],"xmouse":[830,830,830,830,830,830,830,830,830,830,830,830,830,830,830,830,830,830,830,830,830,830,830,830,830,830,830,830,830,830,830,830,830,830,830,830,830,830,830,829,829,828,826,823,823,822,819,816,796,785,772,761,751,738,727,715,699,689,662,646,634,627,618,598,597,590,582,574,573,562,555,550,543,526,522,520,520,518,513,508,500,494,492,492],"ymouse":[618,618,618,618,618,618,618,618,618,618,618,618,618,618,618,618,618,618,618,618,618,618,618,618,618,618,618,618,618,618,618,618,618,618,618,618,610,603,593,586,579,575,570,561,558,554,552,548,534,529,522,512,501,469,448,423,394,367,292,258,231,209,190,156,154,146,136,131,130,126,124,122,122,122,122,122,122,122,120,117,111,103,101,98],"timestamp_mouse":[9,43,48,68,90,110,128,148,170,188,209,229,249,268,288,308,330,349,368,390,408,429,448,469,488,510,529,549,569,590,609,630,648,670,689,710,730,748,768,789,810,829,848,868,888,908,930,948,968,989,1009,1028,1048,1068,1088,1109,1129,1149,1168,1190,1209,1228,1249,1269,1288,1308,1328,1349,1369,1390,1409,1430,1449,1469,1489,1509,1529,1548,1569,1588,1608,1628,1649,1668],"xSR":741.5,"ySR":573.95,"xT1":424.9,"yT1":0,"xT2":1058.1,"yT2":0,"toosoon":0,"cond_shown":"Incongruent","ratio_trial":300,"L_num":4,"L_den":5,"R_num":6,"R_den":12,"correct_side":1,"subjID":"Jintitaashiilaverdediaz","gender":"0","school":"6","age":"10"},{"start_time":1551880716028,"click_time":1551880717105,"finger_time":1551880716627,"fix_duration":641.4952370830168,"trial":18,"RT":599,"MT":478,"sideResp":1,"stimulus":[],"xmouse":[793,793,793,793,793,793,793,793,793,793,793,793,793,793,793,793,793,793,793,793,793,793,793,793,793,793,793,793,790,782,768,753,698,685,672,662,657,647,642,638,635,631,618,610,603,593,582,569,563,558,553,543,527,516],"ymouse":[597,598,600,601,601,601,601,601,601,601,601,601,601,601,601,601,601,601,601,601,601,601,601,601,601,601,601,595,577,553,524,496,403,380,346,309,279,226,202,191,179,168,150,138,132,125,118,112,112,112,111,107,99,92],"timestamp_mouse":[17,41,57,78,97,119,137,159,178,198,217,237,258,277,299,317,339,357,379,397,417,437,457,478,497,518,537,557,578,599,618,637,657,677,697,717,739,757,777,798,818,837,857,879,898,917,937,957,979,997,1017,1038,1058,1077],"xSR":741.5,"ySR":573.95,"xT1":424.9,"yT1":0,"xT2":1058.1,"yT2":0,"toosoon":0,"cond_shown":"Incongruent","ratio_trial":200,"L_num":3,"L_den":4,"R_num":11,"R_den":20,"correct_side":1,"subjID":"Jintitaashiilaverdediaz","gender":"0","school":"6","age":"10"},{"start_time":1551880719083,"click_time":1551880720105,"finger_time":1551880719726,"fix_duration":835.2516496736796,"trial":19,"RT":643,"MT":379,"sideResp":1,"stimulus":[],"xmouse":[801,801,801,801,801,801,801,801,801,801,801,801,801,801,801,801,801,801,801,801,801,801,801,801,801,801,801,801,801,801,801,800,799,792,784,751,732,708,686,665,618,592,580,574,573,572,570,567,561,554,527,520],"ymouse":[608,608,608,608,608,608,608,608,608,608,608,608,608,608,608,608,608,608,608,608,608,608,608,607,607,606,606,606,606,604,596,585,567,545,516,435,393,343,295,251,185,153,140,135,133,133,132,127,123,115,93,86],"timestamp_mouse":[9,23,43,66,82,102,124,142,163,183,202,222,242,263,282,304,323,342,363,382,402,422,442,463,483,503,524,542,562,583,603,623,643,663,682,702,724,743,762,782,803,823,842,863,883,902,922,942,962,984,1003,1022],"xSR":741.5,"ySR":573.95,"xT1":424.9,"yT1":0,"xT2":1058.1,"yT2":0,"toosoon":0,"cond_shown":"Congruent","ratio_trial":200,"L_num":3,"L_den":10,"R_num":11,"R_den":22,"correct_side":2,"subjID":"Jintitaashiilaverdediaz","gender":"0","school":"6","age":"10"},{"start_time":1551880722522,"click_time":1551880723527,"finger_time":1551880723146,"fix_duration":1335.6474638116172,"trial":20,"RT":624,"MT":381,"sideResp":1,"stimulus":[],"xmouse":[778,778,778,778,778,779,780,780,780,780,780,780,781,782,783,786,788,790,792,793,794,795,795,798,798,799,800,800,801,802,804,805,806,808,808,808,807,801,763,732,695,662,640,612,594,577,561,551,533,526,518],"ymouse":[596,596,596,596,596,596,596,596,596,596,596,596,596,596,596,595,592,590,587,587,587,585,584,581,580,579,579,579,579,577,575,573,570,563,560,555,542,525,459,412,362,323,284,226,190,157,127,98,59,40,25],"timestamp_mouse":[9,24,44,63,83,103,123,143,163,183,204,224,243,263,283,304,323,343,364,383,404,424,444,464,483,503,525,544,563,585,603,624,643,663,685,703,725,745,763,783,803,823,845,864,883,903,923,944,964,984,1004],"xSR":741.5,"ySR":573.95,"xT1":424.9,"yT1":0,"xT2":1058.1,"yT2":0,"toosoon":0,"cond_shown":"Incongruent","ratio_trial":200,"L_num":4,"L_den":6,"R_num":14,"R_den":30,"correct_side":1,"subjID":"Jintitaashiilaverdediaz","gender":"0","school":"6","age":"10"},{"start_time":1551880725839,"click_time":1551880726946,"finger_time":1551880726445,"fix_duration":971.697411031868,"trial":21,"RT":606,"MT":501,"sideResp":1,"stimulus":[],"xmouse":[818,818,818,818,818,818,818,818,818,818,818,818,818,818,818,818,818,818,818,818,818,818,818,818,818,818,818,818,815,814,807,799,777,755,739,721,709,693,687,681,672,665,654,652,652,648,643,635,631,623,611,595,561,539,528,522],"ymouse":[600,600,600,600,600,600,600,600,600,600,600,600,600,600,600,600,600,600,600,600,600,600,600,600,600,598,596,595,586,581,565,542,496,459,438,422,408,381,362,346,333,322,304,299,292,284,275,254,246,234,221,207,168,137,114,97],"timestamp_mouse":[8,26,46,67,88,106,128,146,166,187,208,226,246,267,286,307,326,347,366,387,406,428,447,467,487,506,528,546,566,587,606,627,646,666,686,707,728,746,767,786,806,826,846,867,886,907,926,946,967,987,1006,1027,1046,1068,1087,1107],"xSR":741.5,"ySR":573.95,"xT1":424.9,"yT1":0,"xT2":1058.1,"yT2":0,"toosoon":0,"cond_shown":"Congruent","ratio_trial":200,"L_num":5,"L_den":10,"R_num":14,"R_den":20,"correct_side":2,"subjID":"Jintitaashiilaverdediaz","gender":"0","school":"6","age":"10"},{"start_time":1551880729609,"click_time":1551880730707,"finger_time":1551880730326,"fix_duration":1481.1747783740527,"trial":22,"RT":717,"MT":381,"sideResp":2,"stimulus":[],"xmouse":[800,800,800,800,800,800,800,800,800,800,800,800,800,800,800,800,800,800,800,800,800,800,800,800,800,800,800,800,800,800,800,800,800,801,803,803,803,803,804,804,804,804,804,820,852,885,917,938,984,1004,1021,1036,1044,1064,1064],"ymouse":[618,618,618,618,618,618,618,618,618,618,618,618,618,618,618,618,618,618,618,618,618,618,618,618,618,618,618,616,609,604,598,595,594,579,574,568,564,561,551,547,546,540,534,514,501,489,473,458,399,358,313,268,219,113,83],"timestamp_mouse":[16,43,57,76,96,117,137,157,177,196,217,237,256,278,297,317,337,356,377,396,418,437,457,476,497,516,536,556,576,596,617,636,658,677,696,717,736,756,777,796,817,836,857,876,897,917,936,956,976,998,1017,1036,1057,1076,1098],"xSR":741.5,"ySR":573.95,"xT1":424.9,"yT1":0,"xT2":1058.1,"yT2":0,"toosoon":0,"cond_shown":"Congruent","ratio_trial":100,"L_num":3,"L_den":6,"R_num":2,"R_den":5,"correct_side":1,"subjID":"Jintitaashiilaverdediaz","gender":"0","school":"6","age":"10"},{"start_time":1551880732376,"click_time":1551880733585,"finger_time":1551880732806,"fix_duration":629.6643370853892,"trial":23,"RT":430,"MT":779,"sideResp":1,"stimulus":[],"xmouse":[789,789,789,789,789,790,790,790,790,790,790,790,790,790,790,790,790,793,794,796,802,804,806,808,808,808,808,807,806,798,765,737,692,651,619,601,597,596,594,590,583,581,579,577,572,542,524,506,486,468,454,451,451,451,450,450,450,450,450,450,452],"ymouse":[595,595,595,595,595,597,597,597,597,597,597,597,597,597,597,597,597,597,597,591,577,570,562,553,545,521,508,492,480,454,372,333,287,246,211,180,168,166,162,153,143,140,139,139,136,128,125,120,117,114,111,110,109,108,107,104,104,104,102,101,94],"timestamp_mouse":[13,34,49,70,89,109,131,150,169,190,209,231,249,271,289,309,331,349,370,389,409,430,450,469,491,510,530,549,571,590,609,630,649,670,690,710,731,750,770,791,810,830,850,869,890,910,929,949,970,989,1009,1030,1051,1071,1091,1109,1129,1149,1170,1191,1209],"xSR":741.5,"ySR":573.95,"xT1":424.9,"yT1":0,"xT2":1058.1,"yT2":0,"toosoon":0,"cond_shown":"Congruent","ratio_trial":100,"L_num":11,"L_den":22,"R_num":6,"R_den":15,"correct_side":1,"subjID":"Jintitaashiilaverdediaz","gender":"0","school":"6","age":"10"},{"start_time":1551880735910,"click_time":1551880736966,"finger_time":1551880736507,"fix_duration":1202.5373614271655,"trial":24,"RT":597,"MT":459,"sideResp":2,"stimulus":[],"xmouse":[800,800,800,799,799,799,799,799,799,799,799,799,799,799,799,799,799,799,799,799,799,799,799,799,799,800,803,809,823,846,865,886,905,942,962,979,991,996,1001,1001,1001,1001,1002,1002,1003,1006,1013,1023,1042,1056,1062,1069,1071],"ymouse":[598,598,598,598,598,598,598,598,598,598,598,598,598,598,598,598,598,598,598,598,598,598,598,598,598,598,597,597,588,575,557,535,507,436,400,366,341,321,273,254,244,234,224,205,194,184,173,161,140,125,118,106,95],"timestamp_mouse":[16,43,56,75,95,116,135,157,176,195,216,235,256,275,295,316,336,357,375,396,416,436,456,475,495,515,535,556,575,597,615,635,657,676,697,715,735,756,776,796,815,836,857,875,896,915,936,956,976,995,1015,1035,1056],"xSR":741.5,"ySR":573.95,"xT1":424.9,"yT1":0,"xT2":1058.1,"yT2":0,"toosoon":0,"cond_shown":"Congruent","ratio_trial":300,"L_num":8,"L_den":15,"R_num":10,"R_den":12,"correct_side":2,"subjID":"Jintitaashiilaverdediaz","gender":"0","school":"6","age":"10"},{"start_time":1551880738590,"click_time":1551880739685,"finger_time":1551880739226,"fix_duration":642.8918475007241,"trial":25,"RT":636,"MT":459,"sideResp":2,"stimulus":[],"xmouse":[805,805,805,805,805,805,805,805,805,805,805,805,805,805,805,805,805,805,805,805,805,805,805,805,805,805,805,805,806,814,823,834,848,867,910,947,969,988,1005,1034,1042,1050,1051,1051,1051,1051,1051,1051,1051,1051,1052,1054,1056,1058,1059],"ymouse":[583,583,583,583,583,583,583,583,583,583,583,583,583,583,583,583,583,583,583,583,583,583,583,583,583,583,583,583,583,580,576,569,557,539,492,434,396,349,307,244,224,203,190,180,168,166,165,164,162,157,151,145,131,113,78],"timestamp_mouse":[16,37,56,76,96,115,136,156,175,197,216,235,255,276,295,316,336,355,375,395,417,435,456,475,495,515,536,555,577,595,615,636,657,677,695,715,735,756,776,795,816,835,855,876,895,916,935,956,976,995,1016,1035,1055,1076,1095],"xSR":741.5,"ySR":573.95,"xT1":424.9,"yT1":0,"xT2":1058.1,"yT2":0,"toosoon":0,"cond_shown":"Congruent","ratio_trial":100,"L_num":15,"L_den":25,"R_num":13,"R_den":26,"correct_side":1,"subjID":"Jintitaashiilaverdediaz","gender":"0","school":"6","age":"10"},{"start_time":1551880744836,"click_time":1551880746086,"finger_time":1551880745685,"fix_duration":910.6575261787718,"trial":26,"RT":849,"MT":401,"sideResp":2,"stimulus":[],"xmouse":[757,757,757,757,757,757,757,757,757,757,757,757,757,757,757,757,757,757,757,757,757,757,757,757,757,757,757,757,757,757,757,757,757,757,757,757,757,757,757,757,757,758,788,812,831,853,877,936,962,989,1009,1032,1056,1070,1089,1105,1118,1134,1136,1136,1137,1129,1106],"ymouse":[582,582,582,582,582,582,582,582,582,582,582,582,582,582,582,582,582,582,582,582,582,582,582,582,582,582,582,582,582,582,582,582,582,582,582,582,582,582,582,582,582,581,546,527,513,495,476,428,406,382,356,327,300,286,268,250,235,209,199,189,174,142,98],"timestamp_mouse":[9,30,65,69,90,109,129,151,171,190,209,229,250,270,290,310,329,349,369,389,410,429,449,470,491,510,530,550,570,591,609,629,649,669,689,711,731,749,769,790,809,829,849,870,889,910,929,950,970,989,1009,1030,1050,1070,1090,1109,1130,1150,1171,1190,1209,1230,1249],"xSR":741.5,"ySR":573.95,"xT1":424.9,"yT1":0,"xT2":1058.1,"yT2":0,"toosoon":0,"cond_shown":"Incongruent","ratio_trial":200,"L_num":11,"L_den":20,"R_num":3,"R_den":4,"correct_side":2,"subjID":"Jintitaashiilaverdediaz","gender":"0","school":"6","age":"10"},{"start_time":1551880747826,"click_time":1551880749367,"finger_time":1551880748646,"fix_duration":620.7608025150424,"trial":27,"RT":820,"MT":721,"sideResp":1,"stimulus":[],"xmouse":[830,830,830,830,827,826,823,816,815,814,811,809,808,807,807,807,807,807,807,807,807,807,807,807,807,807,808,810,812,812,812,812,812,812,812,812,812,812,812,812,812,812,808,808,805,798,779,721,682,641,608,574,523,514,508,505,503,502,502,502,502,502,503,503,503,503,502,501,501,501,501,501,501,499,497,496,495],"ymouse":[594,594,594,594,594,594,594,595,596,596,596,596,596,596,596,596,596,596,596,596,596,596,596,596,596,596,596,596,596,596,596,596,596,596,596,596,596,596,593,586,552,537,492,438,406,379,352,299,277,256,240,219,180,171,163,156,150,150,146,143,138,133,121,117,115,113,113,112,112,112,112,112,112,109,107,101,95],"timestamp_mouse":[20,40,59,80,100,119,141,159,179,201,221,241,259,281,300,321,340,359,379,399,419,440,460,479,499,519,539,559,580,600,620,641,659,681,700,721,741,761,779,800,820,841,859,880,899,919,941,960,980,999,1019,1039,1060,1080,1100,1120,1139,1160,1180,1199,1219,1240,1260,1280,1300,1319,1339,1359,1380,1400,1419,1439,1460,1479,1499,1521,1541],"xSR":741.5,"ySR":573.95,"xT1":424.9,"yT1":0,"xT2":1058.1,"yT2":0,"toosoon":0,"cond_shown":"Incongruent","ratio_trial":100,"L_num":4,"L_den":8,"R_num":8,"R_den":20,"correct_side":1,"subjID":"Jintitaashiilaverdediaz","gender":"0","school":"6","age":"10"},{"start_time":1551880753440,"click_time":1551880754685,"finger_time":1551880754286,"fix_duration":1412.5986187064777,"trial":28,"RT":846,"MT":399,"sideResp":2,"stimulus":[],"xmouse":[804,804,804,818,821,822,822,822,822,822,822,822,822,818,818,818,818,818,816,816,816,816,815,814,814,814,814,814,814,814,814,814,814,814,814,814,814,814,814,814,814,814,828,840,848,855,863,888,900,915,929,945,980,990,999,1004,1008,1010,1013,1019,1030,1056,1088],"ymouse":[657,657,657,644,637,635,634,634,634,634,634,634,640,646,646,646,646,645,637,629,621,610,604,602,602,602,601,601,601,601,601,601,601,601,601,601,601,601,601,601,601,596,560,536,521,501,474,404,366,327,285,252,178,151,130,116,103,92,88,86,84,83,83],"timestamp_mouse":[8,34,45,65,87,106,125,147,165,186,207,225,245,267,287,305,326,345,367,385,406,426,446,465,487,505,525,545,566,587,605,627,645,665,686,706,726,746,767,785,807,825,846,865,885,905,927,946,967,985,1005,1027,1046,1066,1086,1105,1126,1145,1165,1185,1206,1226,1245],"xSR":741.5,"ySR":573.95,"xT1":424.9,"yT1":0,"xT2":1058.1,"yT2":0,"toosoon":0,"cond_shown":"Congruent","ratio_trial":100,"L_num":8,"L_den":16,"R_num":2,"R_den":5,"correct_side":1,"subjID":"Jintitaashiilaverdediaz","gender":"0","school":"6","age":"10"},{"start_time":1551880763759,"click_time":1551880765906,"finger_time":1551880765286,"fix_duration":611.0560600291451,"trial":29,"RT":1527,"MT":620,"sideResp":1,"stimulus":[],"xmouse":[818,818,818,818,818,818,818,818,818,818,818,818,818,818,818,818,818,818,818,818,818,818,818,818,818,818,818,818,818,818,818,818,818,818,818,818,818,818,818,818,818,818,818,818,818,818,818,818,818,818,818,818,818,818,818,818,818,818,818,818,818,818,818,818,818,818,818,818,818,818,818,818,818,820,823,832,832,833,831,824,821,794,772,755,748,745,738,733,723,713,697,683,681,667,654,636,608,571,553,543,535,532,532,532,532,531,526,524],"ymouse":[633,633,633,633,633,633,633,633,633,633,633,633,633,633,633,633,633,633,633,633,633,633,633,633,633,633,633,633,633,633,633,633,633,633,633,633,633,633,633,631,629,623,622,622,622,621,621,621,621,621,621,621,621,621,621,621,621,621,621,621,621,621,621,621,621,621,621,621,621,621,621,621,621,613,606,586,570,558,538,503,492,449,423,399,375,338,265,240,203,177,145,116,114,108,108,109,110,110,112,112,110,105,103,103,103,101,96,95],"timestamp_mouse":[8,40,46,67,86,106,126,148,167,186,206,227,247,266,286,307,327,347,368,387,407,427,448,468,487,506,526,548,566,586,607,626,647,668,686,706,728,746,767,786,807,827,846,868,886,908,928,947,967,987,1008,1027,1046,1066,1086,1106,1126,1148,1167,1187,1206,1226,1247,1267,1286,1307,1326,1348,1368,1387,1406,1427,1447,1467,1487,1508,1527,1546,1567,1586,1608,1626,1646,1667,1687,1707,1726,1748,1766,1787,1807,1827,1847,1866,1888,1908,1926,1947,1966,1987,2006,2026,2047,2068,2088,2107,2126,2146],"xSR":741.5,"ySR":573.95,"xT1":424.9,"yT1":0,"xT2":1058.1,"yT2":0,"toosoon":0,"cond_shown":"Incongruent","ratio_trial":300,"L_num":4,"L_den":20,"R_num":2,"R_den":4,"correct_side":2,"subjID":"Jintitaashiilaverdediaz","gender":"0","school":"6","age":"10"},{"start_time":1551880772537,"click_time":1551880774985,"finger_time":1551880773685,"fix_duration":469.47739730807115,"trial":30,"RT":1148,"MT":1300,"sideResp":2,"stimulus":[],"xmouse":[767,762,759,759,759,759,759,759,759,759,759,759,759,759,759,759,759,759,759,759,759,759,759,759,759,759,759,759,759,759,759,759,759,758,758,758,758,757,757,757,757,757,757,757,757,757,757,757,757,757,757,757,757,757,757,755,752,716,697,691,691,691,695,699,700,700,700,699,699,699,699,699,700,700,700,701,702,705,709,714,715,715,715,715,715,715,715,715,715,715,715,715,715,715,715,715,715,716,718,720,723,733,761,778,803,826,867,936,965,983,996,1000,1002,1006,1012,1016,1020,1027,1031,1041,1047,1051,1067],"ymouse":[620,621,621,621,621,621,621,621,621,621,621,621,621,621,621,621,621,621,621,621,621,621,621,621,621,621,620,618,617,617,617,617,617,619,620,621,622,623,624,624,624,624,624,624,624,624,624,624,624,624,624,624,624,624,624,626,628,665,681,686,687,687,676,659,646,638,632,627,625,624,622,617,612,606,597,590,582,579,575,572,570,570,569,569,569,569,569,569,567,564,560,556,552,551,550,550,550,548,544,534,518,497,433,397,349,304,250,163,131,106,90,84,82,82,82,82,81,79,76,73,71,70,70],"timestamp_mouse":[13,38,48,69,90,109,128,149,169,189,209,228,248,270,288,308,329,350,368,388,410,428,448,469,488,510,529,549,568,590,609,628,649,669,688,708,728,748,769,788,808,830,848,869,889,908,928,949,968,988,1009,1029,1049,1069,1088,1110,1128,1148,1169,1188,1209,1229,1249,1268,1288,1309,1329,1348,1368,1388,1410,1429,1449,1470,1489,1508,1528,1548,1569,1589,1608,1629,1649,1669,1688,1708,1729,1748,1768,1789,1809,1828,1848,1870,1889,1909,1929,1949,1968,1988,2008,2029,2049,2069,2089,2109,2129,2148,2170,2189,2208,2229,2250,2268,2288,2308,2330,2350,2370,2389,2409,2429,2448],"xSR":741.5,"ySR":573.95,"xT1":424.9,"yT1":0,"xT2":1058.1,"yT2":0,"toosoon":0,"cond_shown":"Incongruent","ratio_trial":300,"L_num":4,"L_den":5,"R_num":6,"R_den":12,"correct_side":1,"subjID":"Jintitaashiilaverdediaz","gender":"0","school":"6","age":"10"},{"start_time":1551880780455,"click_time":1551880781866,"finger_time":1551880781306,"fix_duration":747.2213762471627,"trial":31,"RT":851,"MT":560,"sideResp":1,"stimulus":[],"xmouse":[767,767,767,767,767,767,767,767,767,767,767,767,767,767,767,767,767,767,767,767,767,767,767,767,767,767,767,767,767,767,767,767,767,767,767,767,768,769,772,773,778,778,782,787,794,797,823,844,863,896,941,999,1022,1043,1049,1050,1050,1049,1009,962,898,685,620,588,565,560,560,547,544,529,496],"ymouse":[616,616,616,616,616,616,616,616,616,616,616,616,616,616,616,616,616,616,616,616,616,616,616,616,616,616,616,616,616,616,616,615,615,615,614,613,612,609,605,604,584,584,546,522,498,469,389,343,303,248,146,27,0,0,0,0,0,0,4,8,12,22,22,22,21,21,21,21,21,24,28],"timestamp_mouse":[10,40,50,71,90,112,130,152,170,190,211,232,252,272,290,312,331,350,370,390,411,430,450,472,491,510,532,550,572,591,611,630,650,670,692,710,730,750,771,790,817,830,851,870,890,910,930,950,971,992,1011,1031,1050,1071,1091,1110,1131,1150,1170,1190,1212,1230,1250,1270,1291,1310,1330,1350,1370,1390,1410],"xSR":741.5,"ySR":573.95,"xT1":424.9,"yT1":0,"xT2":1058.1,"yT2":0,"toosoon":0,"cond_shown":"Incongruent","ratio_trial":300,"L_num":1,"L_den":2,"R_num":3,"R_den":15,"correct_side":1,"subjID":"Jintitaashiilaverdediaz","gender":"0","school":"6","age":"10"},{"start_time":1551880784669,"click_time":1551880786466,"finger_time":1551880786066,"fix_duration":1461.466383816886,"trial":32,"RT":1397,"MT":400,"sideResp":2,"stimulus":[],"xmouse":[807,807,807,807,807,807,807,807,807,807,807,807,807,807,807,807,807,807,807,807,807,807,807,807,807,807,807,807,807,807,807,807,807,807,807,807,807,807,807,807,807,807,807,807,808,808,808,809,809,809,809,809,809,809,809,809,809,809,809,809,809,809,809,809,810,812,822,831,837,860,889,905,941,979,1024,1075,1086,1091,1091,1091,1090,1088,1086,1084,1084,1081,1080,1071,1066,1066],"ymouse":[633,633,633,633,633,633,633,633,633,633,633,633,633,633,633,633,633,633,633,633,633,633,633,633,633,633,633,633,633,633,633,633,633,633,633,633,633,633,633,633,633,633,633,633,631,630,629,628,628,628,628,627,627,627,627,627,627,627,627,627,627,627,627,627,627,627,623,618,611,589,556,539,496,443,391,305,274,246,224,211,200,200,200,200,200,184,173,146,122,88],"timestamp_mouse":[34,36,57,77,98,117,136,156,176,196,216,236,256,276,296,316,337,356,378,397,418,437,457,476,498,516,537,556,578,596,618,638,658,676,698,717,738,756,778,797,816,838,856,877,897,917,938,956,977,996,1016,1038,1058,1076,1097,1116,1136,1158,1177,1196,1217,1237,1257,1278,1296,1316,1337,1357,1377,1397,1417,1436,1456,1477,1497,1517,1536,1556,1577,1596,1616,1636,1657,1676,1698,1716,1736,1756,1778,1797],"xSR":741.5,"ySR":573.95,"xT1":424.9,"yT1":0,"xT2":1058.1,"yT2":0,"toosoon":0,"cond_shown":"Incongruent","ratio_trial":300,"L_num":4,"L_den":20,"R_num":2,"R_den":4,"correct_side":2,"subjID":"Jintitaashiilaverdediaz","gender":"0","school":"6","age":"10"},{"start_time":1551880790496,"click_time":1551880792584,"finger_time":1551880792085,"fix_duration":649.0073827989534,"trial":33,"RT":1589,"MT":499,"sideResp":1,"stimulus":[],"xmouse":[777,778,779,779,779,779,779,779,779,780,780,780,780,780,780,780,780,780,780,780,780,780,780,780,780,781,781,781,781,781,781,784,785,786,787,791,792,792,792,793,793,793,793,793,793,793,793,793,793,793,793,793,793,793,793,793,793,793,793,793,793,793,793,793,793,793,793,793,793,793,793,793,793,793,793,793,793,793,793,789,789,787,786,779,761,749,734,718,708,687,670,658,647,632,598,576,558,542,535,528,528,528,528,525,519],"ymouse":[586,587,587,588,588,588,588,588,588,588,589,590,590,591,591,591,591,591,592,593,593,594,595,596,596,596,597,597,598,598,598,598,598,598,598,597,597,597,597,597,597,597,597,597,597,597,597,597,597,597,597,597,597,597,597,597,597,597,597,597,597,597,597,597,597,597,597,597,597,597,597,597,597,597,597,597,597,595,591,557,531,501,465,432,363,331,306,288,277,264,259,251,248,239,210,195,172,144,130,81,72,66,64,62,56],"timestamp_mouse":[12,28,52,68,90,108,129,150,170,189,210,229,248,269,288,308,329,350,369,388,409,430,449,468,490,508,530,548,570,588,610,629,648,668,688,710,729,749,770,788,808,829,848,870,888,910,928,949,968,989,1008,1028,1049,1070,1089,1109,1129,1148,1169,1190,1209,1228,1250,1268,1288,1309,1329,1350,1370,1389,1410,1429,1449,1470,1488,1508,1530,1549,1568,1589,1608,1629,1649,1668,1688,1708,1728,1749,1769,1789,1809,1829,1850,1869,1889,1910,1929,1949,1968,1988,2008,2029,2049,2069,2088],"xSR":741.5,"ySR":573.95,"xT1":424.9,"yT1":0,"xT2":1058.1,"yT2":0,"toosoon":0,"cond_shown":"Incongruent","ratio_trial":200,"L_num":9,"L_den":15,"R_num":8,"R_den":10,"correct_side":2,"subjID":"Jintitaashiilaverdediaz","gender":"0","school":"6","age":"10"},{"start_time":1551880794523,"click_time":1551880795685,"finger_time":1551880795285,"fix_duration":1015.3977964928297,"trial":34,"RT":762,"MT":400,"sideResp":2,"stimulus":[],"xmouse":[813,813,813,813,813,813,813,813,813,813,813,813,813,813,813,813,813,813,813,813,813,813,813,813,813,813,813,813,814,814,814,814,814,814,815,816,816,820,841,858,870,879,893,896,896,897,900,908,946,960,971,980,992,1018,1032,1041,1051,1055,1060],"ymouse":[651,651,651,651,651,651,651,651,651,651,651,651,651,651,651,651,651,651,651,651,651,651,651,650,642,634,628,622,619,619,618,618,618,618,616,613,605,578,508,466,435,412,391,373,365,360,351,340,286,262,243,228,215,168,143,120,101,85,71],"timestamp_mouse":[9,21,44,62,81,103,121,142,161,183,201,221,241,263,281,302,322,343,362,381,403,421,443,461,483,503,523,541,561,582,603,622,642,663,682,701,722,741,762,783,802,822,841,861,881,902,923,942,961,982,1002,1022,1041,1062,1083,1101,1122,1142,1162],"xSR":741.5,"ySR":573.95,"xT1":424.9,"yT1":0,"xT2":1058.1,"yT2":0,"toosoon":0,"cond_shown":"Incongruent","ratio_trial":100,"L_num":8,"L_den":20,"R_num":1,"R_den":2,"correct_side":2,"subjID":"Jintitaashiilaverdediaz","gender":"0","school":"6","age":"10"},{"start_time":1551880797478,"click_time":1551880798705,"finger_time":1551880798564,"fix_duration":932.9100899047372,"trial":35,"RT":1086,"MT":141,"sideResp":1,"stimulus":[],"xmouse":[793,793,793,793,793,793,793,793,793,793,793,793,793,793,793,793,793,793,793,793,793,793,793,793,793,793,793,793,793,793,793,793,793,793,793,793,793,793,793,793,793,793,793,793,793,793,793,793,793,793,793,788,779,766,751,685,638,572,521,486,465,466],"ymouse":[615,615,615,615,615,615,615,615,615,615,615,615,615,615,615,615,615,615,615,615,615,615,615,615,615,615,615,615,615,615,615,615,615,615,615,615,615,615,615,615,615,615,615,615,615,615,615,615,615,615,615,610,597,580,554,454,394,306,235,183,113,91],"timestamp_mouse":[10,36,47,67,86,107,126,147,167,188,206,226,247,266,287,307,326,347,366,388,408,427,448,466,487,506,527,546,568,586,608,628,646,668,686,707,727,747,767,787,806,828,848,866,888,907,928,948,968,987,1006,1026,1046,1068,1086,1107,1126,1147,1166,1187,1207,1227],"xSR":741.5,"ySR":573.95,"xT1":424.9,"yT1":0,"xT2":1058.1,"yT2":0,"toosoon":0,"cond_shown":"Congruent","ratio_trial":300,"L_num":8,"L_den":15,"R_num":10,"R_den":12,"correct_side":2,"subjID":"Jintitaashiilaverdediaz","gender":"0","school":"6","age":"10"},{"start_time":1551880799901,"click_time":1551880801384,"finger_time":1551880800684,"fix_duration":274.48101852206895,"trial":36,"RT":783,"MT":700,"sideResp":2,"stimulus":[],"xmouse":[757,757,757,757,757,757,757,757,757,757,757,755,754,753,753,753,753,753,753,753,753,753,753,753,753,753,753,753,753,755,755,755,754,753,748,746,745,744,742,740,738,737,737,737,737,737,737,737,737,737,737,737,737,737,737,738,744,758,768,806,832,858,876,910,972,1002,1031,1055,1073,1096,1096,1096,1096,1096,1097],"ymouse":[664,664,664,664,664,664,664,664,664,664,664,664,664,664,664,664,664,664,664,664,664,664,664,663,655,649,642,637,635,632,632,632,632,632,633,633,633,633,633,633,633,633,633,633,633,631,630,629,629,629,629,629,629,629,629,623,607,587,562,484,420,348,305,245,136,71,13,0,0,0,0,0,0,0,3],"timestamp_mouse":[8,41,44,63,84,104,124,144,163,185,204,224,245,264,285,303,325,343,365,384,404,423,444,463,484,505,523,543,565,583,603,624,644,664,684,704,723,744,764,783,803,823,843,863,885,904,923,945,964,983,1003,1024,1044,1065,1084,1105,1124,1143,1163,1183,1205,1224,1244,1265,1283,1303,1324,1344,1364,1383,1404,1424,1443,1464,1483],"xSR":741.5,"ySR":573.95,"xT1":424.9,"yT1":0,"xT2":1058.1,"yT2":0,"toosoon":0,"cond_shown":"Congruent","ratio_trial":100,"L_num":4,"L_den":8,"R_num":6,"R_den":10,"correct_side":2,"subjID":"Jintitaashiilaverdediaz","gender":"0","school":"6","age":"10"},{"start_time":1551880802695,"click_time":1551880804025,"finger_time":1551880803625,"fix_duration":250,"trial":37,"RT":930,"MT":400,"sideResp":2,"stimulus":[],"xmouse":[800,800,800,801,802,803,805,806,807,810,810,810,810,810,810,810,810,810,810,810,810,810,811,813,818,820,820,820,820,820,820,820,820,820,820,820,820,820,819,814,810,807,803,802,800,800,803,814,828,882,898,913,916,919,930,932,935,937,939,958,969,983,997,1008,1034,1047,1063],"ymouse":[610,610,610,609,609,609,610,612,614,620,623,626,627,629,629,629,629,629,629,628,627,624,621,617,612,611,611,611,611,611,611,611,611,611,611,611,611,610,609,607,606,605,604,603,597,586,562,527,485,360,306,254,212,179,143,133,127,121,117,103,91,77,64,52,39,38,35],"timestamp_mouse":[13,37,50,70,90,110,130,151,169,190,209,230,249,270,291,310,330,350,369,389,410,429,450,471,490,510,529,550,571,590,610,630,650,671,691,710,730,751,769,790,810,829,849,871,890,910,930,949,970,990,1009,1029,1049,1070,1090,1109,1130,1149,1170,1190,1210,1230,1249,1270,1289,1310,1330],"xSR":741.5,"ySR":573.95,"xT1":424.9,"yT1":0,"xT2":1058.1,"yT2":0,"toosoon":0,"cond_shown":"Incongruent","ratio_trial":200,"L_num":9,"L_den":15,"R_num":8,"R_den":10,"correct_side":2,"subjID":"Jintitaashiilaverdediaz","gender":"0","school":"6","age":"10"},{"start_time":1551880806940,"click_time":1551880808384,"finger_time":1551880807784,"fix_duration":694.1377034741366,"trial":38,"RT":844,"MT":600,"sideResp":1,"stimulus":[],"xmouse":[777,777,777,777,777,777,777,777,777,777,777,777,777,777,777,777,777,777,777,777,777,777,777,777,777,777,777,777,777,777,777,777,777,778,778,777,776,770,770,767,766,764,763,762,762,762,762,762,762,762,762,759,754,745,734,713,652,565,549,543,541,539,539,538,536,536,535,534,532,530,527,525,520],"ymouse":[635,635,635,635,635,635,635,635,635,635,635,635,635,635,635,635,635,635,635,635,635,635,635,635,635,635,635,635,635,635,635,635,632,627,625,621,617,600,593,587,582,577,573,573,573,573,573,572,572,569,565,559,546,533,512,484,418,315,286,261,244,230,216,210,203,199,193,170,152,136,118,107,89],"timestamp_mouse":[10,26,58,65,85,104,124,144,165,186,204,226,244,265,285,305,326,344,366,386,404,424,446,464,485,505,526,545,565,584,605,624,645,664,685,704,725,744,766,786,804,826,844,866,884,905,926,944,964,985,1005,1025,1044,1065,1085,1105,1126,1145,1164,1184,1205,1226,1245,1264,1285,1304,1326,1345,1366,1385,1405,1425,1444],"xSR":741.5,"ySR":573.95,"xT1":424.9,"yT1":0,"xT2":1058.1,"yT2":0,"toosoon":0,"cond_shown":"Incongruent","ratio_trial":200,"L_num":7,"L_den":10,"R_num":12,"R_den":24,"correct_side":1,"subjID":"Jintitaashiilaverdediaz","gender":"0","school":"6","age":"10"},{"start_time":1551880809739,"click_time":1551880811264,"finger_time":1551880810685,"fix_duration":534.9868235072158,"trial":39,"RT":946,"MT":579,"sideResp":1,"stimulus":[],"xmouse":[798,798,798,798,798,798,798,798,798,798,798,798,798,798,798,798,798,798,798,798,798,798,798,798,798,798,798,798,798,797,797,797,797,797,797,797,797,797,797,797,797,797,797,797,797,796,786,744,723,698,673,655,620,612,603,596,592,587,587,587,587,587,587,587,584,574,551,519,515,513,513,513,513,513,513,513,513],"ymouse":[618,618,618,618,618,618,618,618,618,618,618,618,618,618,618,618,618,618,618,618,618,618,618,618,618,618,618,618,618,618,618,618,618,618,618,618,618,618,618,618,618,618,618,616,613,604,584,541,513,483,451,427,386,376,359,348,340,322,318,315,313,311,301,290,273,253,216,173,159,150,145,139,130,124,117,104,98],"timestamp_mouse":[9,39,45,65,85,106,126,145,165,187,206,227,246,265,287,306,326,347,365,386,406,426,446,465,485,506,526,545,565,586,605,625,645,665,685,707,725,745,765,786,807,825,847,865,885,906,926,946,965,985,1006,1025,1046,1065,1086,1106,1126,1145,1166,1185,1206,1226,1246,1266,1286,1306,1327,1346,1366,1385,1405,1427,1446,1467,1485,1505,1525],"xSR":741.5,"ySR":573.95,"xT1":424.9,"yT1":0,"xT2":1058.1,"yT2":0,"toosoon":0,"cond_shown":"Congruent","ratio_trial":200,"L_num":3,"L_den":12,"R_num":9,"R_den":20,"correct_side":2,"subjID":"Jintitaashiilaverdediaz","gender":"0","school":"6","age":"10"},{"start_time":1551880817462,"click_time":1551880818566,"finger_time":1551880818184,"fix_duration":755.4485084843527,"trial":40,"RT":722,"MT":382,"sideResp":1,"stimulus":[],"xmouse":[789,789,789,789,789,789,789,789,790,790,790,790,790,790,790,790,790,790,790,790,791,792,794,794,794,794,794,794,794,794,794,794,794,794,793,789,756,715,664,625,599,578,577,577,577,576,576,575,575,575,574,571,565,555,536,522],"ymouse":[670,670,670,669,669,668,667,666,666,665,665,663,662,660,659,658,656,655,653,652,650,646,642,640,638,635,632,630,629,628,627,627,627,626,626,618,558,504,440,372,309,211,181,159,146,140,136,135,132,130,125,113,104,97,89,84],"timestamp_mouse":[10,22,43,63,84,103,123,142,163,183,202,223,243,264,284,302,323,342,363,382,404,423,443,463,484,504,522,542,563,582,603,623,643,662,683,702,722,742,763,783,803,822,843,862,884,903,923,944,962,984,1004,1023,1043,1062,1082,1104],"xSR":741.5,"ySR":573.95,"xT1":424.9,"yT1":0,"xT2":1058.1,"yT2":0,"toosoon":0,"cond_shown":"Congruent","ratio_trial":200,"L_num":1,"L_den":2,"R_num":21,"R_den":30,"correct_side":2,"subjID":"Jintitaashiilaverdediaz","gender":"0","school":"6","age":"10"},{"start_time":1551880820018,"click_time":1551880821945,"finger_time":1551880821485,"fix_duration":250,"trial":41,"RT":1467,"MT":460,"sideResp":2,"stimulus":[],"xmouse":[754,754,754,754,754,754,754,754,754,754,754,754,754,754,754,754,754,754,754,754,754,754,754,754,754,754,754,754,754,754,754,754,754,754,754,754,754,754,754,754,754,754,754,754,754,754,754,754,754,754,754,754,754,754,754,754,754,754,754,754,754,754,754,754,754,754,754,754,754,760,764,779,799,849,863,881,899,925,970,991,1010,1023,1031,1037,1037,1038,1038,1039,1039,1040,1041,1042,1044,1050,1053,1057,1060],"ymouse":[598,598,598,598,598,598,598,598,598,598,598,598,598,598,598,598,598,598,598,598,598,598,598,598,598,598,598,598,598,598,598,598,598,598,598,599,599,599,599,599,599,599,599,599,599,599,599,599,599,599,599,599,599,599,599,599,599,599,599,599,599,599,599,599,599,599,599,599,599,599,599,593,579,534,503,465,408,321,195,140,70,27,0,0,0,0,0,0,0,0,0,0,0,1,4,9,14],"timestamp_mouse":[10,38,47,66,88,107,126,148,168,187,206,228,248,267,286,306,326,348,368,387,406,426,447,466,487,508,527,546,566,586,607,626,646,667,688,706,726,746,767,787,808,827,847,868,888,907,926,948,968,987,1006,1027,1046,1066,1087,1108,1127,1148,1167,1187,1206,1226,1246,1266,1286,1307,1327,1347,1368,1386,1407,1426,1446,1467,1487,1507,1528,1547,1566,1586,1607,1627,1647,1667,1687,1707,1726,1746,1768,1788,1808,1826,1847,1867,1887,1906,1927],"xSR":741.5,"ySR":573.95,"xT1":424.9,"yT1":0,"xT2":1058.1,"yT2":0,"toosoon":0,"cond_shown":"Incongruent","ratio_trial":100,"L_num":1,"L_den":2,"R_num":8,"R_den":20,"correct_side":1,"subjID":"Jintitaashiilaverdediaz","gender":"0","school":"6","age":"10"},{"start_time":1551880824493,"click_time":1551880825525,"finger_time":1551880825124,"fix_duration":1407.5199987527171,"trial":42,"RT":631,"MT":401,"sideResp":2,"stimulus":[],"xmouse":[798,798,798,798,798,798,798,798,798,798,798,798,798,798,798,798,798,798,798,798,798,798,798,798,798,798,798,798,798,798,798,794,790,790,790,790,790,790,790,794,809,831,857,878,921,938,954,972,984,1020,1041,1063],"ymouse":[656,656,656,656,656,656,656,656,656,656,656,656,656,656,656,656,656,656,656,656,656,656,656,656,656,656,656,656,656,629,591,565,555,555,555,555,555,555,555,551,536,514,488,456,391,359,326,294,265,183,140,92],"timestamp_mouse":[11,44,53,71,91,111,132,151,171,192,211,233,252,273,291,311,331,352,372,392,411,431,451,472,492,513,532,552,571,592,613,631,653,672,692,712,732,753,773,791,811,831,852,872,891,912,931,951,972,992,1013,1032],"xSR":741.5,"ySR":573.95,"xT1":424.9,"yT1":0,"xT2":1058.1,"yT2":0,"toosoon":0,"cond_shown":"Congruent","ratio_trial":200,"L_num":8,"L_den":15,"R_num":3,"R_den":9,"correct_side":1,"subjID":"Jintitaashiilaverdediaz","gender":"0","school":"6","age":"10"},{"start_time":1551880826951,"click_time":1551880827724,"finger_time":1551880827364,"fix_duration":565.4757721790398,"trial":43,"RT":413,"MT":360,"sideResp":2,"stimulus":[],"xmouse":[812,812,811,811,809,809,808,808,808,808,808,808,808,808,808,808,808,808,813,827,849,911,935,954,966,980,986,989,990,996,1004,1015,1016,1018,1023,1030,1043,1057,1074],"ymouse":[622,623,625,626,630,631,636,637,639,640,641,641,641,641,641,641,641,641,621,581,534,432,386,355,328,288,250,236,222,206,187,151,135,129,124,115,103,95,86],"timestamp_mouse":[21,45,53,73,95,115,134,154,174,194,215,234,255,273,295,314,335,353,375,393,413,434,455,473,494,515,535,553,573,594,615,634,655,673,693,713,734,755,773],"xSR":741.5,"ySR":573.95,"xT1":424.9,"yT1":0,"xT2":1058.1,"yT2":0,"toosoon":0,"cond_shown":"Congruent","ratio_trial":300,"L_num":20,"L_den":25,"R_num":8,"R_den":16,"correct_side":1,"subjID":"Jintitaashiilaverdediaz","gender":"0","school":"6","age":"10"},{"start_time":1551880836909,"click_time":1551880839145,"finger_time":1551880838584,"fix_duration":902.9620773418917,"trial":44,"RT":1675,"MT":561,"sideResp":1,"stimulus":[],"xmouse":[791,791,791,791,791,791,791,791,791,791,791,791,791,791,791,791,791,791,791,791,791,791,791,791,791,791,791,791,791,791,791,791,791,791,791,791,791,791,791,791,791,791,791,791,791,791,791,791,791,791,791,791,791,791,791,791,791,791,791,791,791,791,791,791,791,791,791,791,791,791,791,791,791,791,791,791,791,791,791,791,791,791,789,692,647,622,613,613,613,617,618,620,620,616,616,614,617,618,627,627,626,625,621,605,595,575,548,516,489,483,482,482],"ymouse":[645,645,645,645,645,645,645,645,645,645,645,645,645,645,645,645,645,645,645,645,645,645,645,645,645,645,645,645,645,645,645,645,645,645,645,645,645,645,645,645,645,645,645,645,645,645,645,645,645,645,645,645,645,645,645,645,645,645,645,645,645,645,645,645,645,645,645,645,645,645,645,645,645,645,645,645,645,645,645,645,645,645,640,520,468,453,449,448,448,436,424,407,387,339,318,284,243,207,148,136,131,127,127,127,127,125,122,119,110,107,104,97],"timestamp_mouse":[16,42,55,76,96,115,137,155,175,197,217,236,255,276,295,316,335,356,375,396,416,435,457,475,495,517,535,557,576,596,616,635,656,675,695,717,736,755,777,795,817,835,856,875,895,917,935,955,976,995,1015,1036,1055,1076,1095,1116,1136,1157,1176,1195,1217,1235,1257,1275,1296,1315,1335,1356,1376,1397,1415,1437,1455,1475,1496,1515,1537,1555,1576,1596,1617,1635,1657,1675,1696,1716,1736,1756,1776,1797,1815,1836,1855,1876,1896,1915,1935,1957,1975,1996,2015,2036,2055,2075,2096,2115,2136,2156,2175,2196,2216,2236],"xSR":741.5,"ySR":573.95,"xT1":424.9,"yT1":0,"xT2":1058.1,"yT2":0,"toosoon":0,"cond_shown":"Congruent","ratio_trial":300,"L_num":7,"L_den":14,"R_num":20,"R_den":25,"correct_side":2,"subjID":"Jintitaashiilaverdediaz","gender":"0","school":"6","age":"10"},{"start_time":1551880840821,"click_time":1551880843345,"finger_time":1551880841385,"fix_duration":613.6340773278309,"trial":45,"RT":564,"MT":1960,"sideResp":2,"stimulus":[],"xmouse":[795,795,795,795,795,795,795,795,795,795,795,795,795,795,795,795,795,795,795,795,792,791,789,788,788,788,788,788,795,802,807,807,809,824,824,824,822,821,821,821,825,836,848,950,994,1031,1061,1081,1098,1098,1098,1098,1098,1098,1098,1098,1098,1098,1098,1098,1098,1098,1098,1098,1098,1098,1098,1098,1098,1098,1098,1098,1098,1098,1098,1098,1098,1098,1098,1098,1098,1093,1087,1034,1020,1012,1012,1012,1012,1012,1012,1012,1012,1012,1012,1012,1012,1012,1012,1012,1012,1012,1012,1012,1012,1012,1012,1011,1023,1023,1021,1009,1003,991,991,991,991,991,991,993,996,1001,1008,1031,1040,1051,1063],"ymouse":[639,639,639,639,639,639,639,639,639,639,639,639,639,639,639,639,639,639,639,639,640,641,643,643,643,643,634,628,571,533,506,476,442,364,350,339,332,328,319,315,311,303,295,268,255,244,239,235,235,235,235,235,235,235,235,235,235,235,235,235,235,235,235,235,235,235,235,235,235,235,235,235,235,235,235,235,233,231,230,230,232,242,275,407,450,509,509,509,509,509,509,509,509,509,509,509,509,509,509,509,509,509,509,509,509,509,509,509,446,346,245,162,97,0,0,0,0,0,0,0,0,0,0,0,0,3,11],"timestamp_mouse":[4,24,44,64,84,104,125,145,165,183,203,223,243,264,283,305,324,344,364,384,403,424,445,465,483,503,525,544,564,583,604,625,644,664,684,704,724,744,763,784,803,824,844,864,884,904,923,945,965,983,1004,1023,1044,1065,1083,1105,1125,1144,1164,1185,1204,1224,1245,1265,1285,1304,1324,1344,1364,1385,1403,1423,1444,1463,1484,1505,1524,1543,1564,1586,1604,1624,1643,1663,1685,1705,1724,1743,1764,1785,1803,1824,1845,1863,1884,1903,1924,1943,1965,1984,2004,2023,2044,2063,2085,2105,2124,2143,2163,2185,2204,2223,2245,2263,2283,2304,2324,2344,2364,2385,2404,2425,2445,2464,2485,2504,2524],"xSR":741.5,"ySR":573.95,"xT1":424.9,"yT1":0,"xT2":1058.1,"yT2":0,"toosoon":0,"cond_shown":"Incongruent","ratio_trial":200,"L_num":4,"L_den":5,"R_num":6,"R_den":10,"correct_side":1,"subjID":"Jintitaashiilaverdediaz","gender":"0","school":"6","age":"10"},{"start_time":1551880845398,"click_time":1551880846305,"finger_time":1551880845745,"fix_duration":653.2823354042845,"trial":46,"RT":347,"MT":560,"sideResp":1,"stimulus":[],"xmouse":[768,768,768,768,768,768,768,768,768,768,768,768,768,768,768,768,768,768,768,768,767,763,756,752,733,720,705,686,671,640,628,617,609,593,581,575,569,563,558,555,554,553,553,552,533,515],"ymouse":[610,610,610,610,610,610,610,608,607,604,601,600,599,597,590,586,579,570,559,526,508,490,467,454,421,399,376,348,327,260,227,196,178,135,97,77,59,46,34,28,28,28,28,28,30,33],"timestamp_mouse":[11,37,47,66,88,106,127,147,167,187,207,227,248,266,286,307,326,347,368,387,407,426,447,468,487,507,527,547,567,586,606,627,648,666,687,706,728,747,766,787,806,827,848,867,886,907],"xSR":741.5,"ySR":573.95,"xT1":424.9,"yT1":0,"xT2":1058.1,"yT2":0,"toosoon":0,"cond_shown":"Incongruent","ratio_trial":200,"L_num":7,"L_den":10,"R_num":12,"R_den":24,"correct_side":1,"subjID":"Jintitaashiilaverdediaz","gender":"0","school":"6","age":"10"},{"start_time":1551880848708,"click_time":1551880851446,"finger_time":1551880851125,"fix_duration":1002.1070256561164,"trial":47,"RT":2417,"MT":321,"sideResp":2,"stimulus":[],"xmouse":[753,753,753,753,753,753,753,753,753,753,753,753,753,753,753,753,754,754,756,756,756,756,756,756,756,756,756,756,756,756,756,756,756,756,756,756,756,756,756,756,756,756,756,756,756,756,756,756,756,756,756,756,756,756,756,756,756,756,756,756,756,756,756,756,756,756,756,756,756,756,756,756,756,756,756,756,756,756,756,756,756,758,760,764,764,764,764,764,764,764,764,764,764,764,764,764,764,764,764,764,764,764,764,764,764,764,764,764,764,764,764,764,764,764,765,765,766,771,792,800,805,813,820,854,870,893,924,953,974,979,982,995,1006,1024,1040,1056,1080],"ymouse":[609,609,609,609,609,609,610,610,610,610,610,610,610,610,610,610,610,610,608,607,607,607,606,606,606,606,606,606,606,606,606,606,606,606,606,606,606,606,606,606,606,606,606,606,606,606,606,606,606,606,606,606,606,606,606,606,606,606,606,606,606,606,606,606,606,606,606,606,606,606,606,606,606,606,606,606,606,606,606,606,606,608,611,631,640,640,640,640,640,640,640,640,640,640,640,640,640,640,640,640,640,640,640,640,640,640,640,640,640,640,640,639,638,634,632,631,630,622,588,576,565,554,539,490,459,412,357,310,257,239,223,202,177,105,74,41,2],"timestamp_mouse":[22,41,58,76,98,116,138,158,178,196,218,237,256,276,296,316,337,358,377,397,416,438,457,476,497,518,536,557,576,598,618,637,657,676,696,717,736,757,776,798,818,838,856,877,897,918,936,957,978,998,1018,1038,1057,1076,1098,1117,1137,1157,1178,1197,1216,1237,1256,1278,1296,1318,1338,1357,1378,1396,1418,1436,1458,1476,1496,1517,1537,1557,1576,1596,1618,1637,1656,1677,1697,1718,1737,1757,1776,1799,1817,1839,1857,1878,1898,1918,1939,1957,1977,1999,2017,2037,2057,2078,2097,2118,2137,2157,2178,2199,2217,2238,2258,2277,2298,2319,2339,2359,2377,2398,2417,2437,2459,2478,2497,2517,2538,2557,2577,2597,2618,2638,2657,2677,2697,2717,2738],"xSR":741.5,"ySR":573.95,"xT1":424.9,"yT1":0,"xT2":1058.1,"yT2":0,"toosoon":0,"cond_shown":"Congruent","ratio_trial":100,"L_num":7,"L_den":14,"R_num":15,"R_den":25,"correct_side":2,"subjID":"Jintitaashiilaverdediaz","gender":"0","school":"6","age":"10"},{"start_time":1551880855158,"click_time":1551880856645,"finger_time":1551880856125,"fix_duration":250,"trial":48,"RT":967,"MT":520,"sideResp":2,"stimulus":[],"xmouse":[754,754,754,756,761,765,778,781,781,781,781,781,781,781,781,781,781,781,781,