[{"start_time":1551881535417,"click_time":1551881536858,"finger_time":1551881536498,"fix_duration":433.5690707721773,"trial":0,"RT":1081,"MT":360,"sideResp":1,"stimulus":"img/750/randomdotsizeEA/L/6_Ratio_750_L_24_R_18.png","xmouse":[805,805,805,805,805,805,805,805,805,805,805,805,805,805,805,805,805,805,805,805,805,805,805,805,805,805,805,805,805,805,805,805,805,805,805,805,805,805,805,805,805,805,805,805,805,805,805,805,805,799,795,791,789,783,758,722,701,674,654,617,614,612,608,600,595,578,563,551,543,520,510,502],"ymouse":[523,523,523,523,523,523,523,523,523,523,523,523,523,523,523,523,523,523,523,523,523,523,523,523,523,523,523,523,523,523,523,523,523,523,523,523,523,523,523,523,523,523,523,523,523,523,523,523,521,507,497,491,484,469,413,365,339,318,298,267,264,259,252,241,228,208,186,169,154,122,106,96],"timestamp_mouse":[8,45,59,80,99,120,140,161,180,200,220,240,260,280,299,320,339,359,381,401,420,440,461,479,499,520,540,559,581,600,619,641,660,679,701,720,741,760,780,801,820,840,860,880,900,919,940,961,979,1001,1020,1039,1061,1081,1101,1120,1140,1161,1181,1201,1219,1239,1260,1281,1299,1320,1340,1361,1381,1401,1419,1441],"xSR":741.5,"ySR":469.95,"xT1":424.9,"yT1":0,"xT2":1058.1,"yT2":0,"toosoon":0,"cond_shown":"randomdotsizeEA","ratio_trial":750,"smaller_num":"18","larger_num":"24","correct_side":1,"subjID":"jintitaashiilaverdediaz2","gender":"0","age":"10","school":"6","test":{"fix_dur":[250,1500],"timestim":300,"targets_dim":[100,100],"targets_relative_coord":[0.3,0.7],"size_stim":[880,420],"start_dim":[100,100],"size_start":[300,300],"size_fix":60,"samplingrate":20,"img_types":["equaldotsize","equaldotanddens","randomdotsizeEA"],"ratios":[250,500,750,900],"rep_conds":9,"nTrials":120,"trials_to_rest":500,"Trials_order":[92,42,75,24,20,72,9,84,115,25,14,98,107,117,94,97,39,85,0,101,6,21,70,32,99,78,43,22,50,1,93,41,89,7,105,10,52,61,76,67,33,82,118,119,113,87,95,48,8,60,83,46,81,49,29,110,28,4,114,88,13,47,106,17,74,103,26,80,57,5,102,51,12,77,31,86,54,71,34,40,62,104,112,65,53,3,55,44,56,11,2,91,35,109,116,18,27,59,45,36,19,66,68,73,90,30,79,64,69,58,96,111,108,15,100,63,23,37,38,16],"cond_shown":["randomdotsizeEA","equaldotsize","equaldotsize","equaldotsize","randomdotsizeEA","equaldotsize","equaldotsize","equaldotsize","equaldotanddens","equaldotanddens","randomdotsizeEA","randomdotsizeEA","randomdotsizeEA","equaldotsize","equaldotanddens","equaldotanddens","equaldotsize","equaldotanddens","equaldotsize","randomdotsizeEA","equaldotsize","equaldotsize","equaldotanddens","randomdotsizeEA","equaldotsize","equaldotsize","equaldotanddens","equaldotanddens","randomdotsizeEA","equaldotanddens","equaldotsize","randomdotsizeEA","randomdotsizeEA","equaldotanddens","equaldotsize","equaldotanddens","equaldotanddens","equaldotanddens","equaldotanddens","equaldotanddens","equaldotsize","equaldotanddens","equaldotanddens","randomdotsizeEA","randomdotsizeEA","equaldotsize","randomdotsizeEA","equaldotsize","randomdotsizeEA","equaldotsize","randomdotsizeEA","equaldotanddens","equaldotsize","equaldotanddens","randomdotsizeEA","randomdotsizeEA","equaldotanddens","equaldotanddens","equaldotsize","equaldotanddens","equaldotanddens","randomdotsizeEA","equaldotanddens","randomdotsizeEA","randomdotsizeEA","equaldotanddens","randomdotsizeEA","randomdotsizeEA","equaldotsize","randomdotsizeEA","equaldotsize","equaldotsize","equaldotsize","randomdotsizeEA","equaldotanddens","randomdotsizeEA","equaldotsize","randomdotsizeEA","equaldotanddens","equaldotanddens","randomdotsizeEA","randomdotsizeEA","equaldotanddens","randomdotsizeEA","randomdotsizeEA","equaldotsize","equaldotanddens","randomdotsizeEA","randomdotsizeEA","randomdotsizeEA","randomdotsizeEA","equaldotanddens","randomdotsizeEA","equaldotanddens","randomdotsizeEA","equaldotsize","equaldotsize","randomdotsizeEA","equaldotsize","equaldotsize","equaldotanddens","equaldotsize","randomdotsizeEA","equaldotanddens","equaldotsize","equaldotsize","equaldotanddens","equaldotanddens","equaldotsize","equaldotanddens","equaldotsize","equaldotsize","equaldotsize","equaldotsize","equaldotanddens","equaldotsize","randomdotsizeEA","equaldotanddens","randomdotsizeEA","equaldotanddens"],"ratio_trial":[750,750,500,250,750,250,900,250,750,250,250,250,900,900,900,250,500,250,250,500,750,900,900,750,500,750,750,900,250,250,900,500,500,750,900,900,500,250,500,750,900,900,900,900,500,500,900,250,750,250,900,900,900,250,500,250,500,500,750,500,250,900,900,500,250,750,250,750,900,500,750,500,250,500,750,250,750,900,900,500,250,750,500,500,500,500,750,750,750,900,250,750,900,250,750,750,500,900,900,250,750,750,750,250,750,750,750,500,900,900,250,500,250,500,500,500,900,250,250,500],"smaller_num":["18","6","2","5","3","6","9","2","9","4","2","1","9","18","18","6","1","4","2","3","6","18","18","3","2","6","6","18","3","4","9","4","9","3","18","18","10","5","9","3","9","18","18","18","4","9","18","6","15","4","9","9","9","2","6","5","2","6","6","2","2","18","18","1","2","6","3","6","9","3","3","6","3","3","12","2","3","9","18","9","3","3","10","1","9","2","15","3","15","18","2","3","18","2","15","9","6","9","18","2","6","3","6","5","3","12","9","2","9","18","6","10","5","5","1","6","18","3","2","5"],"larger_num":["24","8","4","20","4","24","10","8","12","16","8","4","10","20","20","24","2","16","8","6","8","20","20","4","4","8","8","20","12","16","10","8","18","4","20","20","20","20","18","4","10","20","20","20","8","18","20","24","20","16","10","10","10","8","12","20","4","12","8","4","8","20","20","2","8","8","12","8","10","6","4","12","12","6","16","8","4","10","20","18","12","4","20","2","18","4","20","4","20","20","8","4","20","8","20","12","12","10","20","8","8","4","8","20","4","16","12","4","10","20","24","20","20","10","2","12","20","12","8","10"],"correct_side":[1,1,1,2,2,2,1,1,2,2,2,2,2,1,2,1,2,1,1,2,1,1,2,1,1,1,2,1,2,2,2,1,1,2,1,2,2,2,2,1,2,2,2,2,1,2,1,1,2,1,2,2,1,2,1,2,1,1,2,1,1,1,1,2,1,1,1,1,1,2,1,1,2,2,2,2,1,1,1,1,2,1,2,2,2,1,2,1,2,2,1,1,2,1,2,2,1,2,1,1,1,1,2,2,2,2,2,2,1,2,1,2,2,1,2,1,2,2,1,1],"img_shown":["img/750/randomdotsizeEA/L/6_Ratio_750_L_24_R_18.png","img/750/equaldotsize/L/13_Ratio_750_L_8_R_6.png","img/500/equaldotsize/L/5_Ratio_500_L_4_R_2.png","img/250/equaldotsize/R/12_Ratio_250_L_5_R_20.png","img/750/randomdotsizeEA/R/12_Ratio_750_L_3_R_4.png","img/250/equaldotsize/R/6_Ratio_250_L_6_R_24.png","img/900/equaldotsize/L/1_Ratio_900_L_10_R_9.png","img/250/equaldotsize/L/3_Ratio_250_L_8_R_2.png","img/750/equaldotanddens/R/15_Ratio_750_L_9_R_12.png","img/250/equaldotanddens/R/10_Ratio_250_L_4_R_16.png","img/250/randomdotsizeEA/R/13_Ratio_250_L_2_R_8.png","img/250/randomdotsizeEA/R/8_Ratio_250_L_1_R_4.png","img/900/randomdotsizeEA/R/5_Ratio_900_L_9_R_10.png","img/900/equaldotsize/L/8_Ratio_900_L_20_R_18.png","img/900/equaldotanddens/R/9_Ratio_900_L_18_R_20.png","img/250/equaldotanddens/L/5_Ratio_250_L_24_R_6.png","img/500/equaldotsize/R/12_Ratio_500_L_1_R_2.png","img/250/equaldotanddens/L/2_Ratio_250_L_16_R_4.png","img/250/equaldotsize/L/1_Ratio_250_L_8_R_2.png","img/500/randomdotsizeEA/R/2_Ratio_500_L_3_R_6.png","img/750/equaldotsize/L/14_Ratio_750_L_8_R_6.png","img/900/equaldotsize/L/2_Ratio_900_L_20_R_18.png","img/900/equaldotanddens/R/13_Ratio_900_L_18_R_20.png","img/750/randomdotsizeEA/L/9_Ratio_750_L_4_R_3.png","img/500/equaldotsize/L/10_Ratio_500_L_4_R_2.png","img/750/equaldotsize/L/14_Ratio_750_L_8_R_6.png","img/750/equaldotanddens/R/2_Ratio_750_L_6_R_8.png","img/900/equaldotanddens/L/8_Ratio_900_L_20_R_18.png","img/250/randomdotsizeEA/R/9_Ratio_250_L_3_R_12.png","img/250/equaldotanddens/R/10_Ratio_250_L_4_R_16.png","img/900/equaldotsize/R/15_Ratio_900_L_9_R_10.png","img/500/randomdotsizeEA/L/8_Ratio_500_L_8_R_4.png","img/500/randomdotsizeEA/L/4_Ratio_500_L_18_R_9.png","img/750/equaldotanddens/R/12_Ratio_750_L_3_R_4.png","img/900/equaldotsize/L/2_Ratio_900_L_20_R_18.png","img/900/equaldotanddens/R/14_Ratio_900_L_18_R_20.png","img/500/equaldotanddens/R/3_Ratio_500_L_10_R_20.png","img/250/equaldotanddens/R/12_Ratio_250_L_5_R_20.png","img/500/equaldotanddens/R/1_Ratio_500_L_9_R_18.png","img/750/equaldotanddens/L/10_Ratio_750_L_4_R_3.png","img/900/equaldotsize/R/15_Ratio_900_L_9_R_10.png","img/900/equaldotanddens/R/12_Ratio_900_L_18_R_20.png","img/900/equaldotanddens/R/13_Ratio_900_L_18_R_20.png","img/900/randomdotsizeEA/R/14_Ratio_900_L_18_R_20.png","img/500/randomdotsizeEA/L/8_Ratio_500_L_8_R_4.png","img/500/equaldotsize/R/6_Ratio_500_L_9_R_18.png","img/900/randomdotsizeEA/L/4_Ratio_900_L_20_R_18.png","img/250/equaldotsize/L/5_Ratio_250_L_24_R_6.png","img/750/randomdotsizeEA/R/5_Ratio_750_L_15_R_20.png","img/250/equaldotsize/L/2_Ratio_250_L_16_R_4.png","img/900/randomdotsizeEA/R/5_Ratio_900_L_9_R_10.png","img/900/equaldotanddens/R/3_Ratio_900_L_9_R_10.png","img/900/equaldotsize/L/1_Ratio_900_L_10_R_9.png","img/250/equaldotanddens/R/13_Ratio_250_L_2_R_8.png","img/500/randomdotsizeEA/L/13_Ratio_500_L_12_R_6.png","img/250/randomdotsizeEA/R/12_Ratio_250_L_5_R_20.png","img/500/equaldotanddens/L/5_Ratio_500_L_4_R_2.png","img/500/equaldotanddens/L/11_Ratio_500_L_12_R_6.png","img/750/equaldotsize/R/2_Ratio_750_L_6_R_8.png","img/500/equaldotanddens/L/5_Ratio_500_L_4_R_2.png","img/250/equaldotanddens/L/3_Ratio_250_L_8_R_2.png","img/900/randomdotsizeEA/L/2_Ratio_900_L_20_R_18.png","img/900/equaldotanddens/L/4_Ratio_900_L_20_R_18.png","img/500/randomdotsizeEA/R/15_Ratio_500_L_1_R_2.png","img/250/randomdotsizeEA/L/3_Ratio_250_L_8_R_2.png","img/750/equaldotanddens/L/14_Ratio_750_L_8_R_6.png","img/250/randomdotsizeEA/L/15_Ratio_250_L_12_R_3.png","img/750/randomdotsizeEA/L/13_Ratio_750_L_8_R_6.png","img/900/equaldotsize/L/1_Ratio_900_L_10_R_9.png","img/500/randomdotsizeEA/R/2_Ratio_500_L_3_R_6.png","img/750/equaldotsize/L/9_Ratio_750_L_4_R_3.png","img/500/equaldotsize/L/11_Ratio_500_L_12_R_6.png","img/250/equaldotsize/R/11_Ratio_250_L_3_R_12.png","img/500/randomdotsizeEA/R/2_Ratio_500_L_3_R_6.png","img/750/equaldotanddens/R/11_Ratio_750_L_12_R_16.png","img/250/randomdotsizeEA/R/13_Ratio_250_L_2_R_8.png","img/750/equaldotsize/L/9_Ratio_750_L_4_R_3.png","img/900/randomdotsizeEA/L/1_Ratio_900_L_10_R_9.png","img/900/equaldotanddens/L/8_Ratio_900_L_20_R_18.png","img/500/equaldotanddens/L/4_Ratio_500_L_18_R_9.png","img/250/randomdotsizeEA/R/4_Ratio_250_L_3_R_12.png","img/750/randomdotsizeEA/L/10_Ratio_750_L_4_R_3.png","img/500/equaldotanddens/R/3_Ratio_500_L_10_R_20.png","img/500/randomdotsizeEA/R/12_Ratio_500_L_1_R_2.png","img/500/randomdotsizeEA/R/6_Ratio_500_L_9_R_18.png","img/500/equaldotsize/L/5_Ratio_500_L_4_R_2.png","img/750/equaldotanddens/R/4_Ratio_750_L_15_R_20.png","img/750/randomdotsizeEA/L/10_Ratio_750_L_4_R_3.png","img/750/randomdotsizeEA/R/4_Ratio_750_L_15_R_20.png","img/900/randomdotsizeEA/R/13_Ratio_900_L_18_R_20.png","img/250/randomdotsizeEA/L/3_Ratio_250_L_8_R_2.png","img/750/equaldotanddens/L/8_Ratio_750_L_4_R_3.png","img/900/randomdotsizeEA/R/13_Ratio_900_L_18_R_20.png","img/250/equaldotanddens/L/7_Ratio_250_L_8_R_2.png","img/750/randomdotsizeEA/R/3_Ratio_750_L_15_R_20.png","img/750/equaldotsize/R/15_Ratio_750_L_9_R_12.png","img/500/equaldotsize/L/13_Ratio_500_L_12_R_6.png","img/900/randomdotsizeEA/R/7_Ratio_900_L_9_R_10.png","img/900/equaldotsize/L/10_Ratio_900_L_20_R_18.png","img/250/equaldotsize/L/1_Ratio_250_L_8_R_2.png","img/750/equaldotanddens/L/14_Ratio_750_L_8_R_6.png","img/750/equaldotsize/L/8_Ratio_750_L_4_R_3.png","img/750/randomdotsizeEA/R/2_Ratio_750_L_6_R_8.png","img/250/equaldotanddens/R/12_Ratio_250_L_5_R_20.png","img/750/equaldotsize/R/7_Ratio_750_L_3_R_4.png","img/750/equaldotsize/R/11_Ratio_750_L_12_R_16.png","img/750/equaldotanddens/R/15_Ratio_750_L_9_R_12.png","img/500/equaldotanddens/R/9_Ratio_500_L_2_R_4.png","img/900/equaldotsize/L/1_Ratio_900_L_10_R_9.png","img/900/equaldotanddens/R/11_Ratio_900_L_18_R_20.png","img/250/equaldotsize/L/5_Ratio_250_L_24_R_6.png","img/500/equaldotsize/R/3_Ratio_500_L_10_R_20.png","img/250/equaldotsize/R/12_Ratio_250_L_5_R_20.png","img/500/equaldotsize/L/7_Ratio_500_L_10_R_5.png","img/500/equaldotanddens/R/12_Ratio_500_L_1_R_2.png","img/500/equaldotsize/L/11_Ratio_500_L_12_R_6.png","img/900/randomdotsizeEA/R/12_Ratio_900_L_18_R_20.png","img/250/equaldotanddens/R/4_Ratio_250_L_3_R_12.png","img/250/randomdotsizeEA/L/3_Ratio_250_L_8_R_2.png","img/500/equaldotanddens/L/7_Ratio_500_L_10_R_5.png"],"Rat0":[["12_Ratio_0_L_9_R_0.png","13_Ratio_0_L_6_R_0.png","5_Ratio_0_L_2_R_0.png","6_Ratio_0_L_4_R_0.png","8_Ratio_0_L_6_R_0.png"],["1_Ratio_0_L_0_R_17.png","10_Ratio_0_L_0_R_22.png","11_Ratio_0_L_0_R_1.png","14_Ratio_0_L_0_R_24.png","15_Ratio_0_L_0_R_4.png","2_Ratio_0_L_0_R_5.png","3_Ratio_0_L_0_R_17.png","4_Ratio_0_L_0_R_7.png","7_Ratio_0_L_0_R_19.png","9_Ratio_0_L_0_R_15.png"]],"Rat250":[["1_Ratio_250_L_8_R_2.png","14_Ratio_250_L_12_R_3.png","15_Ratio_250_L_12_R_3.png","2_Ratio_250_L_16_R_4.png","3_Ratio_250_L_8_R_2.png","5_Ratio_250_L_24_R_6.png","7_Ratio_250_L_8_R_2.png"],["10_Ratio_250_L_4_R_16.png","11_Ratio_250_L_3_R_12.png","12_Ratio_250_L_5_R_20.png","13_Ratio_250_L_2_R_8.png","4_Ratio_250_L_3_R_12.png","6_Ratio_250_L_6_R_24.png","8_Ratio_250_L_1_R_4.png","9_Ratio_250_L_3_R_12.png"]],"Rat500":[["10_Ratio_500_L_4_R_2.png","11_Ratio_500_L_12_R_6.png","13_Ratio_500_L_12_R_6.png","4_Ratio_500_L_18_R_9.png","5_Ratio_500_L_4_R_2.png","7_Ratio_500_L_10_R_5.png","8_Ratio_500_L_8_R_4.png"],["1_Ratio_500_L_9_R_18.png","12_Ratio_500_L_1_R_2.png","14_Ratio_500_L_5_R_10.png","15_Ratio_500_L_1_R_2.png","2_Ratio_500_L_3_R_6.png","3_Ratio_500_L_10_R_20.png","6_Ratio_500_L_9_R_18.png","9_Ratio_500_L_2_R_4.png"]],"Rat750":[["1_Ratio_750_L_20_R_15.png","10_Ratio_750_L_4_R_3.png","13_Ratio_750_L_8_R_6.png","14_Ratio_750_L_8_R_6.png","6_Ratio_750_L_24_R_18.png","8_Ratio_750_L_4_R_3.png","9_Ratio_750_L_4_R_3.png"],["11_Ratio_750_L_12_R_16.png","12_Ratio_750_L_3_R_4.png","15_Ratio_750_L_9_R_12.png","2_Ratio_750_L_6_R_8.png","3_Ratio_750_L_15_R_20.png","4_Ratio_750_L_15_R_20.png","5_Ratio_750_L_15_R_20.png","7_Ratio_750_L_3_R_4.png"]],"Rat900":[["1_Ratio_900_L_10_R_9.png","10_Ratio_900_L_20_R_18.png","2_Ratio_900_L_20_R_18.png","4_Ratio_900_L_20_R_18.png","8_Ratio_900_L_20_R_18.png"],["11_Ratio_900_L_18_R_20.png","12_Ratio_900_L_18_R_20.png","13_Ratio_900_L_18_R_20.png","14_Ratio_900_L_18_R_20.png","15_Ratio_900_L_9_R_10.png","3_Ratio_900_L_9_R_10.png","5_Ratio_900_L_9_R_10.png","6_Ratio_900_L_9_R_10.png","7_Ratio_900_L_9_R_10.png","9_Ratio_900_L_18_R_20.png"]],"Rat1000":[["10_Ratio_1000_L_16_R_16.png","11_Ratio_1000_L_6_R_6.png","12_Ratio_1000_L_14_R_14.png","13_Ratio_1000_L_20_R_20.png","15_Ratio_1000_L_15_R_15.png","2_Ratio_1000_L_17_R_17.png","4_Ratio_1000_L_9_R_9.png","5_Ratio_1000_L_6_R_6.png","6_Ratio_1000_L_19_R_19.png","8_Ratio_1000_L_14_R_14.png","9_Ratio_1000_L_25_R_25.png"],["1_Ratio_1000_L_1_R_1.png","14_Ratio_1000_L_17_R_17.png","3_Ratio_1000_L_17_R_17.png","7_Ratio_1000_L_6_R_6.png"]]}},{"start_time":1551881549143,"click_time":1551881555737,"finger_time":1551881549157,"fix_duration":1224.0343726787264,"trial":1,"RT":14,"MT":6580,"sideResp":2,"stimulus":"img/750/equaldotsize/L/13_Ratio_750_L_8_R_6.png","xmouse":[819,819,819,819,819,819,819,819,819,819,819,819,819,819,819,819,819,819,819,819,819,819,819,819,819,819,819,819,819,819,819,819,818,817,816,816,816,816,816,816,816,816,816,816,816,816,816,815,814,811,809,809,811,834,838,838,838,838,838,838,838,838,838,838,838,838,838,838,838,838,838,838,838,838,838,838,838,838,838,838,838,838,838,838,838,838,838,838,838,838,838,838,838,838,838,838,838,838,838,838,838,838,838,838,838,838,838,838,838,838,838,838,838,838,838,838,838,838,838,838,838,838,838,838,838,838,838,838,838,838,838,838,838,838,838,838,838,838,838,838,838,838,838,838,838,838,838,838,838,838,838,838,838,838,838,838,838,838,838,838,838,838,838,838,838,838,838,838,838,838,838,838,838,838,838,838,838,838,838,838,838,838,838,838,838,838,838,838,838,838,838,840,891,988,1034,1034,1034,1034,1034,1034,1034,1034,1034,1034,1034,1034,1034,1034,1034,1036,1036,1035,1032,1019,1007,992,981,976,976,977,977,977,977,978,978,978,978,978,978,978,978,978,978,978,978,978,978,978,978,978,978,978,978,978,978,978,978,978,978,978,978,978,978,978,978,978,978,978,978,978,978,978,978,978,978,978,978,978,978,980,986,1002,1029,1029,1090,1146,1270,1359,1491,1567,1567,1567,1567,1567,1567,1567,1567,1567,1567,1567,1567,1567,1567,1567,1567,1567,1567,1567,1567,1567,1567,1567,1567,1567,1567,1567,1567,1567,1567,1567,1555,1502,1457,1370,1323,1259,1226,1185,1153,1114,1117,1120,1122,1122,1122,1122,1122,1122,1122,1122],"ymouse":[536,536,536,536,536,536,536,536,536,536,536,536,536,536,536,536,536,536,536,536,536,536,536,536,536,536,536,536,536,536,537,537,538,539,540,540,540,540,540,540,540,540,540,541,541,541,541,541,542,544,546,546,546,538,540,540,540,540,540,540,540,540,540,540,540,540,540,540,540,540,540,540,540,540,540,540,540,540,540,540,540,540,540,540,540,540,540,540,540,540,540,540,540,540,540,540,540,540,540,540,540,540,540,540,540,540,540,540,540,540,540,540,540,540,540,540,540,540,540,540,540,540,540,540,540,540,540,540,540,540,540,540,540,540,540,540,540,540,540,540,540,540,540,540,540,540,540,540,540,540,540,540,540,540,540,540,540,540,540,540,540,540,540,540,540,540,540,540,540,540,540,540,540,540,540,540,540,540,540,540,540,540,540,540,540,540,540,540,540,540,540,539,535,517,509,509,509,509,509,509,509,509,509,509,509,509,509,509,509,508,499,488,472,448,419,392,360,344,324,289,269,237,203,187,187,187,187,187,187,187,187,187,187,187,187,187,187,187,187,187,187,187,187,187,187,187,187,187,187,187,187,187,187,187,187,187,187,187,187,187,187,187,187,187,187,187,187,187,185,94,68,36,4,4,0,0,0,0,0,0,0,0,0,0,0,0,0,0,0,0,0,0,0,0,0,0,0,0,0,0,0,0,0,0,0,0,0,0,0,0,32,53,58,57,48,18,0,0,0,0,0,0,0,0,0,0,0,0,0,1],"timestamp_mouse":[14,39,53,75,94,113,134,155,174,195,214,234,254,274,295,315,334,353,375,395,415,434,453,474,494,514,534,555,574,595,614,634,654,673,694,714,734,754,773,793,813,835,854,874,895,914,935,954,974,994,1013,1034,1055,1074,1094,1114,1134,1154,1173,1194,1214,1234,1253,1275,1294,1315,1333,1355,1374,1394,1414,1434,1454,1474,1494,1514,1534,1554,1574,1594,1614,1634,1654,1674,1694,1714,1735,1754,1774,1795,1814,1834,1855,1874,1895,1914,1934,1954,1975,1994,2015,2034,2054,2075,2094,2114,2133,2154,2173,2194,2214,2234,2253,2275,2295,2314,2334,2355,2374,2394,2414,2435,2454,2474,2494,2514,2534,2554,2574,2594,2613,2635,2654,2674,2695,2714,2733,2754,2774,2795,2814,2834,2853,2875,2894,2914,2934,2954,2975,2994,3014,3035,3054,3073,3094,3115,3133,3155,3174,3193,3214,3234,3254,3274,3293,3313,3335,3355,3374,3395,3413,3434,3455,3475,3495,3515,3534,3553,3574,3594,3614,3634,3654,3674,3693,3715,3734,3754,3774,3795,3813,3834,3854,3874,3895,3914,3935,3954,3974,3993,4014,4034,4053,4075,4095,4115,4134,4154,4175,4195,4214,4234,4255,4275,4293,4314,4334,4354,4374,4395,4415,4435,4454,4475,4495,4513,4533,4554,4575,4594,4614,4634,4655,4674,4694,4715,4735,4754,4774,4794,4814,4834,4854,4875,4894,4915,4933,4954,4975,4994,5014,5034,5054,5075,5095,5114,5134,5155,5174,5194,5214,5234,5253,5274,5295,5314,5333,5355,5374,5394,5415,5433,5455,5474,5493,5514,5534,5554,5575,5594,5613,5634,5655,5674,5694,5715,5734,5754,5774,5794,5815,5834,5855,5874,5894,5914,5935,5954,5974,5993,6014,6035,6055,6075,6095,6115,6134,6153,6175,6193,6214,6235,6255,6275,6293,6314,6335,6354,6373,6394,6415,6434,6455,6474,6494,6514,6534,6554,6574,6593],"xSR":741.5,"ySR":469.95,"xT1":424.9,"yT1":0,"xT2":1058.1,"yT2":0,"toosoon":0,"cond_shown":"equaldotsize","ratio_trial":750,"smaller_num":"6","larger_num":"8","correct_side":1,"subjID":"jintitaashiilaverdediaz2","gender":"0","age":"10","school":"6"},{"start_time":1551881558953,"click_time":1551881560357,"finger_time":1551881559737,"fix_duration":793.153724356249,"trial":2,"RT":784,"MT":620,"sideResp":1,"stimulus":"img/500/equaldotsize/L/5_Ratio_500_L_4_R_2.png","xmouse":[772,772,772,772,772,772,772,772,772,772,772,772,772,772,772,772,772,772,772,772,772,772,772,772,772,772,772,772,772,772,772,772,772,772,772,772,772,769,768,760,751,730,715,693,656,622,598,570,551,529,508,493,486,486,488,489,490,494,498,508,513,514,514,514,510,510,511,511,511,511,511],"ymouse":[634,634,634,634,634,634,634,634,634,634,634,634,634,634,634,634,634,634,634,634,634,634,634,634,634,634,634,634,634,634,634,634,634,634,634,633,622,608,590,556,537,513,490,470,432,402,377,356,347,331,310,291,276,268,251,245,240,235,229,215,204,193,183,172,148,135,127,119,107,101,96],"timestamp_mouse":[9,39,44,63,85,104,124,143,165,184,203,224,243,264,284,304,323,344,363,385,403,423,445,463,484,505,523,545,565,583,605,623,645,663,684,704,724,745,764,784,804,823,844,864,885,904,925,944,964,984,1004,1025,1045,1063,1085,1104,1124,1143,1164,1185,1205,1225,1245,1264,1285,1304,1324,1345,1364,1383,1404],"xSR":741.5,"ySR":573.95,"xT1":424.9,"yT1":0,"xT2":1058.1,"yT2":0,"toosoon":0,"cond_shown":"equaldotsize","ratio_trial":500,"smaller_num":"2","larger_num":"4","correct_side":1,"subjID":"jintitaashiilaverdediaz2","gender":"0","age":"10","school":"6"},{"start_time":1551881561712,"click_time":1551881562477,"finger_time":1551881562297,"fix_duration":292.94396629837803,"trial":3,"RT":585,"MT":180,"sideResp":2,"stimulus":"img/250/equaldotsize/R/12_Ratio_250_L_5_R_20.png","xmouse":[762,762,762,762,762,762,762,762,762,762,762,762,762,762,762,762,762,762,762,762,762,762,762,762,762,762,763,767,791,813,847,861,885,909,952,1008,1037,1062,1090],"ymouse":[610,610,610,610,610,610,610,610,610,610,610,610,610,610,610,610,610,610,610,610,610,610,610,610,610,610,608,605,589,567,518,489,452,424,368,277,219,166,96],"timestamp_mouse":[5,36,46,66,86,105,124,145,166,184,206,226,245,266,285,305,325,344,365,384,406,425,445,465,485,505,525,546,565,585,606,625,644,665,685,705,725,745,765],"xSR":741.5,"ySR":573.95,"xT1":424.9,"yT1":0,"xT2":1058.1,"yT2":0,"toosoon":0,"cond_shown":"equaldotsize","ratio_trial":250,"smaller_num":"5","larger_num":"20","correct_side":2,"subjID":"jintitaashiilaverdediaz2","gender":"0","age":"10","school":"6"},{"start_time":1551881566473,"click_time":1551881568577,"finger_time":1551881567198,"fix_duration":975.6322210326631,"trial":4,"RT":725,"MT":1379,"sideResp":2,"stimulus":"img/750/randomdotsizeEA/R/12_Ratio_750_L_3_R_4.png","xmouse":[764,764,764,764,764,764,764,764,764,764,764,764,764,764,764,764,764,764,764,764,764,764,764,764,764,764,764,764,764,764,764,764,766,774,782,791,798,811,820,838,850,861,867,883,891,894,902,905,906,906,906,906,906,906,906,906,906,901,893,888,882,879,874,873,873,873,866,849,834,825,821,819,817,816,816,816,816,816,816,816,816,816,816,816,816,818,829,849,891,914,946,999,1064,1195,1252,1287,1310,1323,1338,1340,1340,1327,1259,1208,1165,1138],"ymouse":[613,613,613,613,613,613,613,613,613,613,613,613,613,613,613,613,613,613,613,613,613,613,613,613,613,613,613,613,613,613,613,613,607,599,591,577,564,533,516,489,472,455,447,423,415,411,405,399,398,398,398,398,398,398,399,403,406,416,423,428,434,437,443,445,445,445,451,467,481,487,493,496,499,499,499,499,499,499,499,499,499,499,499,499,499,498,487,469,421,385,347,287,226,99,34,0,0,0,0,0,0,0,4,12,21,28],"timestamp_mouse":[8,38,44,65,84,103,125,143,164,185,203,225,244,264,283,305,324,344,364,385,404,424,443,464,484,505,525,544,564,584,605,625,644,664,684,703,725,744,763,784,804,824,845,865,884,904,924,944,963,984,1004,1024,1045,1064,1084,1105,1124,1144,1164,1185,1205,1224,1245,1264,1284,1304,1324,1344,1364,1384,1405,1423,1444,1464,1484,1503,1524,1544,1564,1584,1604,1624,1645,1663,1684,1703,1724,1745,1764,1784,1805,1824,1844,1865,1885,1904,1924,1943,1963,1984,2004,2023,2044,2064,2084,2104],"xSR":741.5,"ySR":573.95,"xT1":424.9,"yT1":0,"xT2":1058.1,"yT2":0,"toosoon":0,"cond_shown":"randomdotsizeEA","ratio_trial":750,"smaller_num":"3","larger_num":"4","correct_side":2,"subjID":"jintitaashiilaverdediaz2","gender":"0","age":"10","school":"6"},{"start_time":1551881570814,"click_time":1551881571717,"finger_time":1551881571437,"fix_duration":1416.1740101512914,"trial":5,"RT":623,"MT":280,"sideResp":2,"stimulus":"img/250/equaldotsize/R/6_Ratio_250_L_6_R_24.png","xmouse":[805,803,800,800,797,796,795,795,795,795,795,795,795,795,795,795,795,795,795,795,795,795,795,795,795,795,795,795,799,810,830,883,900,915,948,1036,1082,1113,1144,1158,1186,1186,1185,1181,1174,1150],"ymouse":[613,613,614,614,616,618,619,619,619,619,619,619,619,619,619,619,619,619,619,619,619,619,619,619,619,619,619,617,614,601,583,524,494,469,424,318,262,221,179,153,84,67,56,54,53,55],"timestamp_mouse":[9,23,52,64,83,103,123,143,163,183,204,224,242,263,283,303,324,343,364,383,402,424,442,464,483,504,523,542,563,583,602,623,643,663,683,704,723,742,763,783,803,823,843,862,883,903],"xSR":741.5,"ySR":573.95,"xT1":424.9,"yT1":0,"xT2":1058.1,"yT2":0,"toosoon":0,"cond_shown":"equaldotsize","ratio_trial":250,"smaller_num":"6","larger_num":"24","correct_side":2,"subjID":"jintitaashiilaverdediaz2","gender":"0","age":"10","school":"6"},{"start_time":1551881572908,"click_time":1551881573877,"finger_time":1551881573697,"fix_duration":289.42008014373755,"trial":6,"RT":789,"MT":180,"sideResp":1,"stimulus":"img/900/equaldotsize/L/1_Ratio_900_L_10_R_9.png","xmouse":[753,753,753,753,753,753,753,753,753,753,753,753,753,753,753,753,753,753,753,753,753,753,753,753,753,753,753,753,754,755,755,755,755,755,755,755,755,755,742,725,698,625,593,567,549,512,498,483,455],"ymouse":[650,650,650,650,650,650,650,650,650,650,650,650,650,650,650,650,650,650,650,650,650,650,650,650,650,650,650,646,640,637,636,635,635,635,635,635,634,631,604,567,517,412,360,314,273,195,164,134,76],"timestamp_mouse":[9,42,49,69,90,110,130,148,169,189,210,229,250,269,290,309,330,349,369,389,410,428,450,469,490,509,529,550,568,589,609,629,649,669,689,710,729,749,770,789,809,830,849,869,889,910,929,948,969],"xSR":741.5,"ySR":573.95,"xT1":424.9,"yT1":0,"xT2":1058.1,"yT2":0,"toosoon":0,"cond_shown":"equaldotsize","ratio_trial":900,"smaller_num":"9","larger_num":"10","correct_side":1,"subjID":"jintitaashiilaverdediaz2","gender":"0","age":"10","school":"6"},{"start_time":1551881576130,"click_time":1551881578078,"finger_time":1551881577857,"fix_duration":1091.740157360197,"trial":7,"RT":1727,"MT":221,"sideResp":1,"stimulus":"img/250/equaldotsize/L/3_Ratio_250_L_8_R_2.png","xmouse":[823,821,819,819,819,818,818,818,818,818,818,818,818,818,818,818,818,818,818,818,818,818,818,818,818,818,818,818,818,818,818,818,818,818,816,815,815,815,815,815,815,815,815,815,815,815,815,815,815,815,815,815,814,813,809,795,781,774,771,769,766,766,766,766,766,766,766,766,766,766,766,766,766,766,766,766,766,766,766,766,766,766,766,766,766,763,757,750,738,682,646,617,594,572,550,511,493,470],"ymouse":[603,603,604,604,604,605,605,605,605,605,605,605,605,605,605,605,605,605,605,605,605,605,605,605,605,605,605,605,605,605,605,605,605,605,605,604,604,604,604,604,604,604,604,604,604,604,604,604,604,604,604,604,604,602,599,590,583,580,580,579,579,579,579,579,579,579,579,579,579,579,579,579,579,579,579,579,579,579,579,579,579,579,579,579,579,574,567,556,541,483,440,398,350,306,258,176,136,85],"timestamp_mouse":[11,28,51,68,87,107,126,147,167,187,207,226,248,267,286,307,327,347,368,388,406,428,446,468,486,508,528,547,567,587,606,627,647,668,688,707,727,747,768,787,807,828,847,866,888,907,926,947,967,986,1007,1028,1047,1068,1087,1108,1127,1148,1167,1187,1208,1227,1247,1267,1287,1307,1326,1348,1368,1387,1408,1428,1447,1467,1486,1507,1528,1547,1568,1587,1607,1628,1647,1666,1688,1707,1727,1747,1767,1787,1806,1827,1847,1867,1887,1907,1927,1948],"xSR":741.5,"ySR":573.95,"xT1":424.9,"yT1":0,"xT2":1058.1,"yT2":0,"toosoon":0,"cond_shown":"equaldotsize","ratio_trial":250,"smaller_num":"2","larger_num":"8","correct_side":1,"subjID":"jintitaashiilaverdediaz2","gender":"0","age":"10","school":"6"},{"start_time":1551881579476,"click_time":1551881580717,"finger_time":1551881580037,"fix_duration":277.04494760339406,"trial":8,"RT":561,"MT":680,"sideResp":2,"stimulus":"img/750/equaldotanddens/R/15_Ratio_750_L_9_R_12.png","xmouse":[828,828,828,828,828,828,828,828,828,828,828,828,828,828,828,828,828,828,828,828,828,828,828,831,833,835,837,841,845,847,849,852,861,868,884,904,920,971,997,1002,1025,1047,1095,1113,1127,1138,1144,1148,1148,1147,1144,1139,1131,1118,1117,1116,1116,1115,1115,1115,1112,1112,1111],"ymouse":[610,610,610,610,610,610,610,610,610,610,610,610,610,610,610,610,610,610,610,610,610,609,608,599,596,590,584,579,570,567,565,563,554,545,529,511,495,454,431,424,391,369,325,305,285,272,263,252,249,245,239,231,220,193,181,175,172,156,149,136,126,113,95],"timestamp_mouse":[9,21,42,61,80,101,120,142,160,182,200,222,242,262,280,301,320,341,362,381,400,421,441,462,481,501,521,541,561,581,601,622,641,660,681,701,722,741,761,781,802,821,841,860,881,902,921,942,960,980,1001,1022,1041,1060,1081,1102,1120,1142,1161,1181,1201,1221,1241],"xSR":741.5,"ySR":573.95,"xT1":424.9,"yT1":0,"xT2":1058.1,"yT2":0,"toosoon":0,"cond_shown":"equaldotanddens","ratio_trial":750,"smaller_num":"9","larger_num":"12","correct_side":2,"subjID":"jintitaashiilaverdediaz2","gender":"0","age":"10","school":"6"},{"start_time":1551881582100,"click_time":1551881583257,"finger_time":1551881582738,"fix_duration":462.32179272359843,"trial":9,"RT":638,"MT":519,"sideResp":2,"stimulus":"img/250/equaldotanddens/R/10_Ratio_250_L_4_R_16.png","xmouse":[789,789,789,789,789,789,789,789,789,789,789,789,789,789,789,789,789,789,789,789,789,789,789,789,789,789,789,789,789,795,818,840,860,878,895,912,1056,1109,1158,1193,1207,1213,1213,1213,1207,1199,1164,1156,1155,1155,1151,1144,1135,1129,1125,1125,1125,1125],"ymouse":[632,632,632,632,632,632,632,632,632,632,632,632,632,632,632,632,632,632,632,632,632,632,632,632,632,632,632,632,631,623,592,570,552,532,507,485,353,301,256,218,193,176,176,176,176,178,180,182,182,182,177,166,147,131,119,112,101,99],"timestamp_mouse":[21,37,57,77,98,117,137,156,177,197,218,237,258,277,297,317,337,357,376,398,417,437,458,477,497,517,536,558,577,597,618,638,656,678,697,717,737,758,777,797,817,838,857,877,897,918,938,956,977,997,1018,1037,1057,1077,1096,1116,1138,1157],"xSR":741.5,"ySR":573.95,"xT1":424.9,"yT1":0,"xT2":1058.1,"yT2":0,"toosoon":0,"cond_shown":"equaldotanddens","ratio_trial":250,"smaller_num":"4","larger_num":"16","correct_side":2,"subjID":"jintitaashiilaverdediaz2","gender":"0","age":"10","school":"6"},{"start_time":1551881584890,"click_time":1551881586437,"finger_time":1551881585757,"fix_duration":571.6701151685465,"trial":10,"RT":867,"MT":680,"sideResp":2,"stimulus":"img/250/randomdotsizeEA/R/13_Ratio_250_L_2_R_8.png","xmouse":[787,787,787,787,787,787,787,787,787,787,787,787,787,787,787,787,786,786,786,786,786,785,785,785,785,785,785,785,786,787,788,789,790,790,790,790,791,792,794,798,803,818,826,832,840,847,861,869,879,884,884,887,892,898,907,919,926,958,989,1021,1035,1089,1108,1125,1143,1156,1177,1187,1191,1198,1200,1201,1201,1200,1195,1182,1164,1115],"ymouse":[665,665,665,665,665,665,665,665,665,665,665,665,665,665,665,665,665,665,665,665,665,665,664,662,661,659,655,653,649,646,641,636,634,633,631,630,626,625,620,611,604,587,578,572,563,553,533,524,504,497,497,490,484,478,469,456,447,409,364,329,309,235,205,176,149,121,83,63,56,42,35,26,25,25,23,23,24,24],"timestamp_mouse":[8,36,47,68,87,107,128,147,168,187,208,228,246,267,287,306,328,347,367,387,407,427,448,467,487,507,527,548,568,586,608,627,648,667,688,708,727,748,767,786,807,827,846,867,887,906,928,947,967,987,1008,1028,1047,1067,1086,1108,1127,1148,1167,1187,1208,1228,1246,1267,1288,1307,1327,1347,1367,1388,1408,1428,1447,1466,1488,1507,1527,1547],"xSR":741.5,"ySR":573.95,"xT1":424.9,"yT1":0,"xT2":1058.1,"yT2":0,"toosoon":0,"cond_shown":"randomdotsizeEA","ratio_trial":250,"smaller_num":"2","larger_num":"8","correct_side":2,"subjID":"jintitaashiilaverdediaz2","gender":"0","age":"10","school":"6"},{"start_time":1551881589642,"click_time":1551881591277,"finger_time":1551881590836,"fix_duration":643.8992487184757,"trial":11,"RT":1194,"MT":441,"sideResp":2,"stimulus":"img/250/randomdotsizeEA/R/8_Ratio_250_L_1_R_4.png","xmouse":[805,805,805,805,805,805,805,805,805,805,805,805,805,805,805,805,805,805,805,805,805,805,805,805,805,805,805,805,805,805,805,805,805,805,805,805,805,805,805,805,805,805,805,805,804,804,804,804,804,804,804,804,804,804,804,804,805,806,815,829,830,837,840,878,897,915,931,943,960,967,977,987,995,1004,1023,1033,1042,1049,1068,1077,1078,1083],"ymouse":[639,639,639,639,639,639,639,639,639,639,639,639,639,639,639,639,639,639,639,639,639,639,639,639,639,639,639,639,639,639,639,639,639,639,639,639,639,639,639,639,639,638,636,632,626,621,615,612,610,606,605,604,604,603,601,599,599,598,587,570,568,560,552,495,461,428,399,370,328,305,280,259,241,222,188,173,160,145,119,106,102,88],"timestamp_mouse":[15,39,56,76,95,115,136,156,176,194,216,235,256,274,296,315,335,355,376,394,416,434,455,476,496,515,535,554,576,594,616,635,655,675,695,715,735,754,776,795,814,835,855,875,896,915,936,954,975,995,1016,1035,1055,1075,1094,1115,1136,1155,1175,1194,1215,1236,1256,1275,1294,1315,1335,1355,1375,1394,1414,1436,1455,1475,1496,1515,1536,1555,1575,1594,1615,1635],"xSR":741.5,"ySR":573.95,"xT1":424.9,"yT1":0,"xT2":1058.1,"yT2":0,"toosoon":0,"cond_shown":"randomdotsizeEA","ratio_trial":250,"smaller_num":"1","larger_num":"4","correct_side":2,"subjID":"jintitaashiilaverdediaz2","gender":"0","age":"10","school":"6"},{"start_time":1551881592914,"click_time":1551881594917,"finger_time":1551881593657,"fix_duration":515.0564847113731,"trial":12,"RT":743,"MT":1260,"sideResp":1,"stimulus":"img/900/randomdotsizeEA/R/5_Ratio_900_L_9_R_10.png","xmouse":[785,785,785,785,785,785,785,785,785,785,785,785,785,785,785,785,785,785,785,785,785,785,785,785,785,785,785,785,785,785,785,785,785,785,785,786,787,787,787,787,787,787,787,787,784,765,746,737,717,704,681,669,662,646,634,625,614,614,612,610,598,590,583,571,553,543,543,543,543,543,543,543,543,543,543,543,543,543,543,543,543,543,543,543,543,542,541,540,539,539,538,538,538,538,538,538,536,535,531,528,522],"ymouse":[617,617,617,617,617,617,617,617,617,617,617,617,617,617,617,617,617,617,617,617,617,617,617,617,617,617,617,617,617,617,617,615,609,603,598,581,576,565,561,560,556,554,553,552,550,542,534,529,506,485,415,380,349,313,282,253,204,180,165,151,129,122,116,112,107,103,103,103,103,103,103,103,103,103,103,103,103,103,102,102,100,99,99,98,98,98,98,98,98,98,98,98,98,98,98,97,96,94,91,88,81],"timestamp_mouse":[8,36,44,64,83,104,122,144,163,184,203,222,243,262,283,303,323,344,364,383,403,424,443,463,483,503,524,544,563,584,603,624,643,664,684,703,724,743,763,783,803,823,843,863,884,903,923,943,963,984,1003,1023,1042,1063,1083,1103,1123,1144,1163,1183,1204,1223,1243,1263,1283,1304,1323,1343,1365,1383,1404,1423,1444,1463,1484,1504,1524,1544,1564,1584,1604,1623,1644,1664,1684,1704,1723,1744,1763,1783,1803,1825,1844,1864,1883,1904,1924,1943,1963,1983,2003],"xSR":741.5,"ySR":573.95,"xT1":424.9,"yT1":0,"xT2":1058.1,"yT2":0,"toosoon":0,"cond_shown":"randomdotsizeEA","ratio_trial":900,"smaller_num":"9","larger_num":"10","correct_side":2,"subjID":"jintitaashiilaverdediaz2","gender":"0","age":"10","school":"6"},{"start_time":1551881597162,"click_time":1551881599198,"finger_time":1551881598717,"fix_duration":983.2224756072163,"trial":13,"RT":1555,"MT":481,"sideResp":2,"stimulus":"img/900/equaldotsize/L/8_Ratio_900_L_20_R_18.png","xmouse":[769,769,769,769,769,769,769,769,769,769,769,769,769,769,769,770,771,771,771,771,771,771,771,771,771,771,771,771,771,771,771,771,771,771,771,771,771,771,771,773,775,782,786,786,786,786,786,786,786,786,786,786,786,783,782,781,781,781,781,781,781,781,781,781,781,781,781,781,781,781,781,781,781,781,787,797,816,844,862,881,898,910,946,973,1006,1018,1036,1052,1055,1057,1058,1058,1058,1058,1058,1058,1057,1057,1057,1057,1057,1061],"ymouse":[647,647,647,647,647,647,647,647,647,647,647,647,645,643,642,639,637,633,632,631,631,631,631,631,631,631,631,631,631,631,631,631,631,631,631,631,631,631,631,631,630,627,624,624,624,624,624,624,624,624,624,624,624,624,624,624,624,624,624,624,624,624,624,624,624,624,624,624,624,624,624,624,624,624,620,608,592,564,543,519,495,482,419,370,307,287,250,179,151,129,119,109,100,96,93,91,90,88,86,85,83,79],"timestamp_mouse":[17,42,56,76,95,116,135,155,175,196,216,235,256,276,295,316,335,355,376,395,416,436,456,475,496,515,535,556,575,595,615,635,657,676,695,717,736,755,776,795,815,835,855,875,895,915,936,955,975,996,1015,1035,1056,1075,1095,1115,1135,1155,1175,1197,1215,1235,1256,1275,1295,1315,1335,1355,1376,1395,1415,1435,1456,1475,1496,1515,1536,1555,1576,1595,1616,1635,1656,1677,1695,1716,1735,1756,1776,1796,1816,1835,1855,1876,1896,1915,1935,1955,1975,1995,2015,2036],"xSR":741.5,"ySR":573.95,"xT1":424.9,"yT1":0,"xT2":1058.1,"yT2":0,"toosoon":0,"cond_shown":"equaldotsize","ratio_trial":900,"smaller_num":"18","larger_num":"20","correct_side":1,"subjID":"jintitaashiilaverdediaz2","gender":"0","age":"10","school":"6"},{"start_time":1551881600345,"click_time":1551881602297,"finger_time":1551881601238,"fix_duration":307.0923268784943,"trial":14,"RT":893,"MT":1059,"sideResp":1,"stimulus":"img/900/equaldotanddens/R/9_Ratio_900_L_18_R_20.png","xmouse":[770,770,770,770,770,770,770,770,770,770,770,770,770,770,770,770,770,770,770,770,770,770,770,770,770,770,770,770,770,770,770,771,771,771,771,771,771,771,771,771,771,771,771,771,770,769,769,767,757,748,733,716,699,657,629,597,562,516,493,493,493,493,493,498,502,508,515,520,523,524,525,525,525,524,520,517,509,502,484,478,473,469,465,462,462,461,459,459,458,458,458,460,464,467,469,474,475,479],"ymouse":[589,589,589,589,589,589,589,589,589,589,589,589,589,589,589,589,589,589,589,589,589,589,589,589,589,589,589,589,589,589,589,589,589,589,588,587,586,585,583,582,580,579,577,574,571,570,569,565,555,547,540,531,522,492,478,471,461,447,439,439,439,432,425,403,393,381,364,339,308,304,288,278,269,252,245,241,234,228,214,206,198,187,177,159,153,148,145,144,144,144,142,139,136,124,117,107,101,94],"timestamp_mouse":[12,38,53,73,92,113,132,154,172,194,213,232,254,272,293,313,333,352,373,392,413,432,452,473,494,513,532,552,572,593,613,632,653,673,692,713,733,752,772,793,812,833,852,873,893,912,932,952,972,994,1012,1033,1053,1072,1094,1113,1133,1153,1173,1192,1212,1233,1252,1272,1294,1313,1332,1353,1374,1393,1413,1432,1452,1473,1492,1512,1533,1552,1572,1593,1613,1633,1652,1673,1692,1712,1732,1753,1773,1793,1813,1832,1853,1872,1892,1912,1932,1952],"xSR":741.5,"ySR":573.95,"xT1":424.9,"yT1":0,"xT2":1058.1,"yT2":0,"toosoon":0,"cond_shown":"equaldotanddens","ratio_trial":900,"smaller_num":"18","larger_num":"20","correct_side":2,"subjID":"jintitaashiilaverdediaz2","gender":"0","age":"10","school":"6"},{"start_time":1551881604607,"click_time":1551881605977,"finger_time":1551881605318,"fix_duration":687.7115790114625,"trial":15,"RT":711,"MT":659,"sideResp":1,"stimulus":"img/250/equaldotanddens/L/5_Ratio_250_L_24_R_6.png","xmouse":[784,784,784,784,784,784,784,784,784,784,784,784,784,784,784,784,784,784,784,784,784,784,784,784,784,784,784,784,784,784,784,784,784,783,778,759,741,720,694,669,631,617,609,609,609,609,609,610,610,610,610,610,610,606,593,522,485,458,442,433,423,422,422,422,422,422,422,424,425],"ymouse":[646,646,646,646,646,646,646,646,646,646,646,646,646,646,646,646,646,646,646,646,646,646,646,646,646,646,646,646,646,646,646,644,641,625,606,563,543,517,484,448,388,361,328,311,272,247,199,180,168,163,160,157,157,156,157,147,137,126,116,108,94,91,86,77,73,68,68,65,63],"timestamp_mouse":[10,30,51,71,91,112,130,151,171,191,210,231,250,270,291,312,332,350,370,392,410,431,451,471,491,511,531,551,570,592,611,630,650,670,691,711,730,750,770,790,811,831,851,870,890,910,931,951,971,991,1011,1031,1051,1071,1090,1110,1130,1151,1170,1190,1211,1231,1251,1272,1290,1310,1331,1350,1370],"xSR":741.5,"ySR":573.95,"xT1":424.9,"yT1":0,"xT2":1058.1,"yT2":0,"toosoon":0,"cond_shown":"equaldotanddens","ratio_trial":250,"smaller_num":"6","larger_num":"24","correct_side":1,"subjID":"jintitaashiilaverdediaz2","gender":"0","age":"10","school":"6"},{"start_time":1551881608862,"click_time":1551881610278,"finger_time":1551881609578,"fix_duration":1244.6547001793451,"trial":16,"RT":716,"MT":700,"sideResp":2,"stimulus":"img/500/equaldotsize/R/12_Ratio_500_L_1_R_2.png","xmouse":[813,813,813,813,813,813,813,813,813,813,813,813,813,813,813,813,813,813,813,813,813,813,813,813,813,813,813,813,813,813,813,813,813,816,825,836,846,890,906,916,937,942,964,977,987,1002,1006,1041,1061,1071,1084,1089,1089,1089,1089,1089,1090,1092,1090,1087,1086,1084,1083,1083,1083,1083,1083,1083,1083,1083,1083],"ymouse":[617,617,617,617,617,617,617,617,617,617,617,617,617,617,617,617,617,617,617,617,617,617,617,617,617,617,617,617,617,617,616,614,606,598,583,564,548,495,475,467,445,441,420,410,402,389,387,355,335,322,302,287,273,260,240,236,221,197,163,152,146,142,139,136,134,129,124,113,112,105,94],"timestamp_mouse":[16,39,56,76,95,116,137,156,175,195,216,236,256,276,295,316,336,356,375,396,415,435,457,476,496,515,537,556,577,595,615,635,656,676,697,716,736,755,777,796,816,836,856,877,895,915,936,955,975,996,1016,1035,1055,1076,1095,1116,1136,1155,1176,1195,1216,1235,1255,1276,1295,1316,1335,1355,1375,1395,1416],"xSR":741.5,"ySR":573.95,"xT1":424.9,"yT1":0,"xT2":1058.1,"yT2":0,"toosoon":0,"cond_shown":"equaldotsize","ratio_trial":500,"smaller_num":"1","larger_num":"2","correct_side":2,"subjID":"jintitaashiilaverdediaz2","gender":"0","age":"10","school":"6"},{"start_time":1551881614705,"click_time":1551881615857,"finger_time":1551881615117,"fix_duration":807.4811983235729,"trial":17,"RT":412,"MT":740,"sideResp":1,"stimulus":"img/250/equaldotanddens/L/2_Ratio_250_L_16_R_4.png","xmouse":[802,802,802,802,802,802,802,802,802,802,802,802,802,802,802,802,801,798,791,786,778,776,774,772,771,771,771,771,771,771,771,771,771,770,770,768,765,763,756,754,731,722,707,696,679,650,637,610,602,581,553,550,537,523,513,491,481,471],"ymouse":[633,633,633,633,633,633,633,633,633,633,633,633,633,633,633,633,639,644,660,667,680,684,688,689,689,689,689,689,689,689,689,689,689,688,686,674,667,656,639,635,594,575,555,539,521,484,463,413,396,355,284,275,242,211,182,128,101,76],"timestamp_mouse":[12,43,53,73,92,112,134,152,173,192,214,233,252,272,292,313,333,352,373,393,412,433,452,473,493,513,533,552,572,593,613,632,653,673,693,712,734,752,773,792,813,832,852,873,893,913,933,953,973,992,1012,1032,1052,1072,1093,1113,1132,1152],"xSR":741.5,"ySR":573.95,"xT1":424.9,"yT1":0,"xT2":1058.1,"yT2":0,"toosoon":0,"cond_shown":"equaldotanddens","ratio_trial":250,"smaller_num":"4","larger_num":"16","correct_side":1,"subjID":"jintitaashiilaverdediaz2","gender":"0","age":"10","school":"6"},{"start_time":1551881617937,"click_time":1551881618978,"finger_time":1551881618097,"fix_duration":438.42406719944506,"trial":18,"RT":160,"MT":881,"sideResp":1,"stimulus":"img/250/equaldotsize/L/1_Ratio_250_L_8_R_2.png","xmouse":[762,762,762,762,761,758,751,742,732,711,707,705,705,705,705,705,705,705,705,705,706,712,724,737,761,766,771,772,772,772,760,742,725,713,659,635,595,562,512,470,464,462,462,462,462,462,462,461,461,461,461,461,461],"ymouse":[590,590,590,590,590,586,578,575,572,571,571,571,571,571,571,571,571,571,571,571,571,570,570,568,563,560,555,553,553,551,539,520,500,485,417,386,336,297,249,205,194,182,172,163,156,152,149,145,134,121,114,106,99],"timestamp_mouse":[9,21,40,60,80,100,122,140,160,180,201,221,240,261,281,300,320,341,360,381,401,420,440,460,480,501,520,541,560,580,601,622,641,660,681,701,720,740,762,780,801,820,840,861,880,900,921,941,961,981,1000,1020,1041],"xSR":741.5,"ySR":573.95,"xT1":424.9,"yT1":0,"xT2":1058.1,"yT2":0,"toosoon":0,"cond_shown":"equaldotsize","ratio_trial":250,"smaller_num":"2","larger_num":"8","correct_side":1,"subjID":"jintitaashiilaverdediaz2","gender":"0","age":"10","school":"6"},{"start_time":1551881620566,"click_time":1551881621778,"finger_time":1551881621017,"fix_duration":347.9506320970607,"trial":19,"RT":451,"MT":761,"sideResp":2,"stimulus":"img/500/randomdotsizeEA/R/2_Ratio_500_L_3_R_6.png","xmouse":[784,784,784,784,784,784,784,784,784,784,784,784,784,781,778,777,776,772,771,771,771,770,762,756,754,753,752,751,751,751,751,751,750,749,748,748,748,748,748,748,747,746,742,736,719,704,687,672,672,673,685,697,783,816,872,935,1016,1092,1110,1122,1132],"ymouse":[588,588,588,588,588,588,588,588,588,588,588,588,588,588,588,588,588,589,589,589,589,588,571,557,541,528,516,503,502,502,502,502,502,506,510,511,511,511,511,511,511,509,505,502,492,482,473,456,447,438,426,417,375,361,328,294,245,180,151,122,99],"timestamp_mouse":[11,37,52,71,91,113,131,151,171,192,211,231,252,271,291,312,332,351,372,391,411,431,451,472,493,511,532,552,572,591,611,632,651,672,691,711,731,751,772,791,811,831,851,871,891,911,931,951,972,992,1011,1031,1051,1071,1091,1112,1131,1151,1171,1192,1212],"xSR":741.5,"ySR":573.95,"xT1":424.9,"yT1":0,"xT2":1058.1,"yT2":0,"toosoon":0,"cond_shown":"randomdotsizeEA","ratio_trial":500,"smaller_num":"3","larger_num":"6","correct_side":2,"subjID":"jintitaashiilaverdediaz2","gender":"0","age":"10","school":"6"},{"start_time":1551881623050,"click_time":1551881624118,"finger_time":1551881623879,"fix_duration":332.28944871992206,"trial":20,"RT":829,"MT":239,"sideResp":1,"stimulus":"img/750/equaldotsize/L/14_Ratio_750_L_8_R_6.png","xmouse":[834,834,834,834,834,834,834,834,834,834,834,834,834,834,834,834,834,834,834,834,834,834,834,834,834,834,834,834,834,834,834,834,834,834,834,834,834,834,834,817,772,704,612,529,492,469,459,443,426,425,423,423,425,435],"ymouse":[606,606,606,606,606,606,606,606,606,606,606,606,606,606,606,606,606,606,606,606,606,606,606,606,606,606,606,606,605,603,602,601,599,598,598,598,598,598,597,591,576,548,500,436,393,359,336,299,241,209,177,139,115,82],"timestamp_mouse":[9,40,48,68,88,107,127,148,168,187,209,227,247,268,287,307,327,347,367,389,408,427,449,467,487,507,527,547,568,587,607,627,647,669,687,707,727,748,767,787,808,829,849,867,888,907,927,947,967,987,1008,1028,1049,1068],"xSR":741.5,"ySR":573.95,"xT1":424.9,"yT1":0,"xT2":1058.1,"yT2":0,"toosoon":0,"cond_shown":"equaldotsize","ratio_trial":750,"smaller_num":"6","larger_num":"8","correct_side":1,"subjID":"jintitaashiilaverdediaz2","gender":"0","age":"10","school":"6"},{"start_time":1551881626861,"click_time":1551881629057,"finger_time":1551881627977,"fix_duration":1482.44112572288,"trial":21,"RT":1116,"MT":1080,"sideResp":1,"stimulus":"img/900/equaldotsize/L/2_Ratio_900_L_20_R_18.png","xmouse":[813,813,813,813,813,813,813,813,813,813,813,813,813,813,813,813,813,813,813,813,813,813,813,813,813,813,813,813,813,813,813,813,813,813,813,813,813,813,813,813,813,813,813,813,813,813,813,813,813,812,812,811,810,809,808,808,808,808,808,808,808,808,807,802,792,773,764,636,536,452,310,121,0,0,0,0,0,0,0,0,0,2,34,70,109,152,170,200,217,223,224,227,241,254,268,293,318,346,360,363,364,364,364,364,365,366,369,381,409,439],"ymouse":[660,660,660,660,660,660,660,660,660,660,660,660,660,660,660,660,660,660,660,660,660,660,660,660,660,660,660,660,660,660,660,660,660,660,660,660,660,660,660,660,660,660,660,660,660,660,660,660,660,660,664,668,670,672,673,674,674,674,674,674,674,674,674,671,654,616,595,413,301,217,90,0,0,0,0,0,0,0,0,0,0,0,17,37,54,72,82,96,109,117,122,131,170,193,209,221,225,225,211,203,179,153,106,89,80,72,63,55,54,54],"timestamp_mouse":[18,45,57,76,96,116,137,157,176,197,217,238,256,277,297,317,337,357,376,397,418,436,457,477,496,518,537,557,576,596,617,637,656,677,696,716,737,757,776,796,816,837,856,876,898,917,936,956,976,997,1017,1036,1056,1077,1096,1116,1137,1156,1177,1197,1216,1236,1256,1276,1297,1316,1337,1356,1376,1397,1416,1438,1456,1476,1496,1516,1536,1557,1576,1596,1616,1637,1657,1676,1696,1718,1737,1757,1776,1796,1817,1837,1857,1876,1896,1916,1937,1957,1976,1996,2017,2036,2057,2076,2097,2116,2138,2157,2176,2196],"xSR":741.5,"ySR":573.95,"xT1":424.9,"yT1":0,"xT2":1058.1,"yT2":0,"toosoon":0,"cond_shown":"equaldotsize","ratio_trial":900,"smaller_num":"18","larger_num":"20","correct_side":1,"subjID":"jintitaashiilaverdediaz2","gender":"0","age":"10","school":"6"},{"start_time":1551881634120,"click_time":1551881635558,"finger_time":1551881635039,"fix_duration":519.6334835897272,"trial":22,"RT":919,"MT":519,"sideResp":2,"stimulus":"img/900/equaldotanddens/R/13_Ratio_900_L_18_R_20.png","xmouse":[769,769,769,769,769,769,769,769,769,769,769,769,769,769,769,769,769,769,769,769,769,769,769,769,769,769,769,769,769,769,769,769,769,769,769,769,769,769,769,769,769,770,773,780,782,792,795,802,812,822,832,852,876,885,911,930,954,966,974,1004,1022,1029,1042,1053,1059,1063,1066,1067,1068,1069,1076,1082],"ymouse":[642,642,642,642,642,642,642,642,642,642,642,642,642,642,642,642,642,642,642,642,642,642,642,642,642,642,642,642,642,642,642,642,642,642,642,642,642,642,641,630,618,609,601,588,578,557,551,535,517,498,477,441,395,377,322,276,215,180,151,75,45,29,2,0,0,0,0,0,0,0,0,1],"timestamp_mouse":[17,46,58,77,98,117,137,157,179,198,217,237,257,278,298,317,338,358,377,398,417,437,457,477,497,518,538,558,578,597,617,637,658,677,698,717,738,757,778,798,818,838,859,878,897,919,938,976,977,998,1017,1037,1057,1078,1098,1117,1137,1158,1177,1198,1217,1238,1258,1279,1298,1317,1337,1358,1377,1398,1418,1438],"xSR":741.5,"ySR":573.95,"xT1":424.9,"yT1":0,"xT2":1058.1,"yT2":0,"toosoon":0,"cond_shown":"equaldotanddens","ratio_trial":900,"smaller_num":"18","larger_num":"20","correct_side":2,"subjID":"jintitaashiilaverdediaz2","gender":"0","age":"10","school":"6"},{"start_time":1551881638661,"click_time":1551881639738,"finger_time":1551881639439,"fix_duration":903.026269971454,"trial":23,"RT":778,"MT":299,"sideResp":1,"stimulus":"img/750/randomdotsizeEA/L/9_Ratio_750_L_4_R_3.png","xmouse":[794,794,794,794,794,794,794,794,794,794,794,794,794,794,794,794,794,794,794,794,794,794,791,787,783,781,780,779,779,779,779,779,779,779,779,779,779,764,743,718,688,661,576,538,519,502,488,482,482,480,480,480,480,480],"ymouse":[645,645,645,645,645,645,645,645,645,645,645,645,645,645,645,645,645,645,645,645,645,645,645,642,639,636,631,627,620,616,615,613,609,601,599,599,599,580,559,532,494,463,376,336,308,281,252,214,192,155,136,114,101,84],"timestamp_mouse":[19,38,57,77,98,116,136,156,176,196,216,236,256,276,296,317,336,357,377,396,416,437,456,476,497,517,536,556,576,596,617,637,656,676,696,718,737,757,778,796,817,836,857,876,896,917,936,956,976,997,1017,1037,1057,1077],"xSR":741.5,"ySR":573.95,"xT1":424.9,"yT1":0,"xT2":1058.1,"yT2":0,"toosoon":0,"cond_shown":"randomdotsizeEA","ratio_trial":750,"smaller_num":"3","larger_num":"4","correct_side":1,"subjID":"jintitaashiilaverdediaz2","gender":"0","age":"10","school":"6"},{"start_time":1551881642140,"click_time":1551881643178,"finger_time":1551881642718,"fix_duration":1161.5988224839366,"trial":24,"RT":578,"MT":460,"sideResp":1,"stimulus":"img/500/equaldotsize/L/10_Ratio_500_L_4_R_2.png","xmouse":[802,802,802,802,802,802,802,802,802,802,802,802,802,802,802,802,802,802,802,802,802,802,802,802,802,802,802,798,773,743,712,688,664,620,606,595,587,583,581,573,567,567,561,546,538,524,515,506,484,470,464,458],"ymouse":[602,602,602,602,602,602,602,602,602,602,602,602,602,602,602,602,602,602,602,602,602,602,602,602,602,602,601,596,567,529,494,458,416,335,306,284,267,253,233,201,188,187,176,159,154,146,141,138,118,108,103,96],"timestamp_mouse":[18,38,58,78,98,118,137,157,178,198,218,239,258,278,297,318,337,357,378,398,418,438,459,478,497,517,537,558,578,598,617,638,658,677,697,717,738,757,777,798,818,837,858,878,897,917,938,957,978,997,1017,1038],"xSR":741.5,"ySR":573.95,"xT1":424.9,"yT1":0,"xT2":1058.1,"yT2":0,"toosoon":0,"cond_shown":"equaldotsize","ratio_trial":500,"smaller_num":"2","larger_num":"4","correct_side":1,"subjID":"jintitaashiilaverdediaz2","gender":"0","age":"10","school":"6"},{"start_time":1551881645487,"click_time":1551881646478,"finger_time":1551881646118,"fix_duration":1308.1593835103372,"trial":25,"RT":631,"MT":360,"sideResp":2,"stimulus":"img/750/equaldotsize/L/14_Ratio_750_L_8_R_6.png","xmouse":[800,800,800,800,800,800,800,800,800,800,800,800,800,800,800,800,800,800,800,800,800,800,800,800,800,800,800,805,810,813,826,844,857,864,867,874,880,897,904,915,924,937,963,982,1006,1031,1078,1104,1113,1119],"ymouse":[638,638,638,638,638,638,638,638,638,638,638,638,638,638,638,638,638,638,638,638,638,638,638,638,637,635,631,618,610,603,584,546,510,476,445,411,386,341,318,299,282,261,226,208,193,176,144,120,103,89],"timestamp_mouse":[15,32,50,70,90,112,130,150,170,190,212,231,250,272,290,311,330,350,370,390,410,430,450,472,491,510,530,550,571,591,611,631,650,670,691,711,730,751,771,790,811,830,851,870,891,912,931,950,970,991],"xSR":741.5,"ySR":573.95,"xT1":424.9,"yT1":0,"xT2":1058.1,"yT2":0,"toosoon":0,"cond_shown":"equaldotsize","ratio_trial":750,"smaller_num":"6","larger_num":"8","correct_side":1,"subjID":"jintitaashiilaverdediaz2","gender":"0","age":"10","school":"6"},{"start_time":1551881651009,"click_time":1551881652198,"finger_time":1551881651738,"fix_duration":1208.054507242608,"trial":26,"RT":729,"MT":460,"sideResp":2,"stimulus":"img/750/equaldotanddens/R/2_Ratio_750_L_6_R_8.png","xmouse":[790,790,790,790,790,790,790,790,790,790,790,790,790,790,790,790,790,790,790,790,790,790,790,790,790,790,790,790,790,790,790,790,790,793,798,819,851,883,932,976,1032,1052,1056,1064,1066,1068,1071,1073,1077,1079,1081,1081,1081,1081,1081,1083,1084,1084,1084,1084],"ymouse":[636,636,636,636,636,636,636,636,636,636,636,636,636,636,636,636,636,636,636,636,636,636,636,636,636,636,636,636,636,636,636,634,631,624,615,589,555,510,436,367,263,225,217,194,185,173,166,159,152,149,145,144,144,144,142,140,129,121,110,97],"timestamp_mouse":[8,41,48,69,88,108,128,148,168,189,210,229,248,269,288,308,328,349,368,389,409,429,448,469,488,509,528,548,569,588,608,628,648,669,689,708,729,748,769,789,808,828,848,868,890,909,928,948,970,988,1010,1028,1048,1069,1088,1109,1129,1148,1169,1189],"xSR":741.5,"ySR":573.95,"xT1":424.9,"yT1":0,"xT2":1058.1,"yT2":0,"toosoon":0,"cond_shown":"equaldotanddens","ratio_trial":750,"smaller_num":"6","larger_num":"8","correct_side":2,"subjID":"jintitaashiilaverdediaz2","gender":"0","age":"10","school":"6"},{"start_time":1551881654204,"click_time":1551881655419,"finger_time":1551881655201,"fix_duration":983.9966300978869,"trial":27,"RT":997,"MT":218,"sideResp":1,"stimulus":"img/900/equaldotanddens/L/8_Ratio_900_L_20_R_18.png","xmouse":[785,785,785,785,785,785,785,785,785,785,785,785,785,785,785,785,785,785,785,785,785,785,785,785,785,785,785,785,785,785,785,785,785,785,785,785,785,785,785,785,785,785,785,785,785,785,783,780,766,745,676,631,553,518,494,467,454,447,438,432,428],"ymouse":[599,599,599,599,599,599,599,599,599,599,599,599,599,599,599,599,599,599,599,599,599,599,599,599,599,599,599,599,599,599,599,599,599,599,599,599,599,599,599,599,599,599,599,599,599,599,597,590,576,558,518,495,445,416,379,325,288,249,200,163,80],"timestamp_mouse":[32,36,56,76,96,117,136,155,176,196,216,236,255,276,295,315,336,355,376,395,415,437,456,475,496,515,535,556,575,595,617,635,656,675,695,715,737,755,775,795,815,835,855,877,897,917,937,955,975,997,1016,1035,1056,1076,1096,1115,1135,1155,1176,1195,1215],"xSR":741.5,"ySR":573.95,"xT1":424.9,"yT1":0,"xT2":1058.1,"yT2":0,"toosoon":0,"cond_shown":"equaldotanddens","ratio_trial":900,"smaller_num":"18","larger_num":"20","correct_side":1,"subjID":"jintitaashiilaverdediaz2","gender":"0","age":"10","school":"6"},{"start_time":1551881656792,"click_time":1551881657940,"finger_time":1551881657439,"fix_duration":250,"trial":28,"RT":647,"MT":501,"sideResp":2,"stimulus":"img/250/randomdotsizeEA/R/9_Ratio_250_L_3_R_12.png","xmouse":[828,828,828,828,828,828,828,828,827,826,825,823,822,820,819,819,819,819,819,819,819,819,819,819,819,819,819,819,819,819,819,827,844,854,862,868,877,900,903,911,922,936,948,958,963,971,984,991,993,996,1004,1019,1029,1038,1054,1064,1080,1087],"ymouse":[656,656,656,656,656,656,656,656,656,656,656,656,656,656,656,656,656,656,656,656,656,656,656,656,656,656,656,656,653,650,640,614,584,561,546,537,529,509,504,489,467,438,379,329,303,276,227,203,194,191,176,154,141,131,117,112,104,99],"timestamp_mouse":[7,44,47,67,87,108,127,148,169,187,208,228,247,268,288,308,329,348,368,387,409,427,448,467,487,507,528,547,569,587,608,628,647,667,687,707,727,748,769,788,807,827,849,867,887,908,928,947,967,988,1008,1027,1047,1067,1088,1107,1127,1148],"xSR":741.5,"ySR":573.95,"xT1":424.9,"yT1":0,"xT2":1058.1,"yT2":0,"toosoon":0,"cond_shown":"randomdotsizeEA","ratio_trial":250,"smaller_num":"3","larger_num":"12","correct_side":2,"subjID":"jintitaashiilaverdediaz2","gender":"0","age":"10","school":"6"},{"start_time":1551881661647,"click_time":1551881662739,"finger_time":1551881662439,"fix_duration":1426.9506228599414,"trial":29,"RT":792,"MT":300,"sideResp":2,"stimulus":"img/250/equaldotanddens/R/10_Ratio_250_L_4_R_16.png","xmouse":[791,791,791,791,791,791,791,791,791,790,790,790,790,790,790,790,790,790,790,790,790,790,790,790,790,790,790,790,790,790,790,790,790,790,796,797,806,808,824,838,866,883,899,930,946,956,968,982,1004,1014,1031,1038,1048,1054,1064],"ymouse":[667,667,667,667,667,667,666,665,663,660,659,658,657,656,656,656,655,654,653,653,653,653,653,653,653,653,653,653,653,653,653,651,651,646,634,628,610,606,580,561,519,496,460,399,360,335,306,279,223,194,147,129,104,84,49],"timestamp_mouse":[12,37,52,72,92,112,133,152,172,193,213,233,252,273,292,313,333,353,372,393,412,433,452,473,492,513,532,552,573,592,612,632,653,673,692,713,733,752,773,792,812,832,852,872,893,912,932,953,973,992,1013,1033,1053,1072,1092],"xSR":741.5,"ySR":573.95,"xT1":424.9,"yT1":0,"xT2":1058.1,"yT2":0,"toosoon":0,"cond_shown":"equaldotanddens","ratio_trial":250,"smaller_num":"4","larger_num":"16","correct_side":2,"subjID":"jintitaashiilaverdediaz2","gender":"0","age":"10","school":"6"},{"start_time":1551881665166,"click_time":1551881679719,"finger_time":1551881670219,"fix_duration":426.96720254321616,"trial":30,"RT":5053,"MT":9500,"sideResp":2,"stimulus":"img/900/equaldotsize/R/15_Ratio_900_L_9_R_10.png","xmouse":[800,800,800,800,800,800,800,800,800,800,800,800,800,800,800,800,800,800,800,800,800,800,800,800,800,800,799,799,799,799,799,799,799,799,799,799,799,799,799,799,799,799,799,799,799,799,799,799,799,799,799,799,799,799,799,799,799,799,799,799,799,799,799,798,798,794,792,790,790,790,789,788,788,788,788,787,787,787,787,787,787,787,787,787,787,787,787,787,787,787,787,787,787,787,787,787,787,787,787,787,787,787,787,787,787,787,787,787,787,787,787,787,787,787,787,787,787,787,787,787,787,787,787,787,787,787,787,787,787,786,786,786,786,786,786,786,786,786,786,786,786,786,786,786,786,786,786,786,786,786,786,786,786,786,786,786,786,786,786,786,786,786,786,786,786,786,786,786,786,786,786,786,786,786,786,786,786,786,786,786,786,786,786,786,786,786,786,786,786,786,786,786,786,786,786,786,786,786,786,786,786,786,786,786,786,786,786,786,786,786,786,786,786,786,786,786,786,786,786,786,786,786,786,786,786,786,786,784,784,784,784,784,784,784,784,784,784,784,784,784,784,784,784,788,790,793,797,798,799,800,800,800,799,799,799,799,799,801,803,804,806,808,809,810,810,811,811,811,811,811,811,805,787,756,724,697,690,689,689,689,689,689,689,689,689,688,688,688,688,688,688,688,688,688,687,687,687,687,687,687,687,686,682,667,629,603,584,566,565,565,566,570,575,576,576,576,576,576,576,577,577,577,577,577,577,577,578,578,578,578,578,578,578,578,578,578,578,583,587,594,604,615,649,664,690,708,728,763,783,801,813,834,872,889,904,911,914,914,914,914,911,906,902,888,876,866,863,862,861,861,860,859,854,849,845,843,841,838,837,836,835,834,831,828,822,821,819,817,817,817,817,817,817,817,817,817,817,817,817,817,817,817,817,817,817,817,817,817,817,817,817,817,817,817,817,817,817,817,817,817,817,817,817,817,817,817,817,817,817,817,817,817,817,817,817,817,817,817,817,817,817,817,817,817,817,817,817,817,817,817,817,817,817,817,817,817,817,817,817,817,817,817,817,817,817,817,817,817,817,817,817,817,817,817,817,817,817,817,817,817,817,817,817,817,817,817,817,817,817,817,817,817,817,817,817,817,817,817,817,817,817,817,817,817,817,817,817,817,817,817,817,817,817,817,815,814,813,813,812,812,812,812,812,812,812,812,812,812,812,812,812,812,812,812,812,812,812,812,812,812,812,812,812,812,812,812,812,812,812,812,812,812,812,812,812,812,812,812,812,812,812,812,812,812,812,812,812,812,812,812,812,812,812,812,812,812,812,812,812,812,812,812,812,812,812,812,812,812,812,812,812,812,812,812,812,812,812,812,812,812,812,812,812,812,812,812,812,812,812,812,812,812,812,812,812,812,812,812,812,812,812,812,812,812,812,812,812,812,812,812,812,812,812,812,812,812,812,812,812,812,812,812,812,812,812,812,812,812,812,812,812,812,812,812,812,812,812,812,812,812,812,812,812,812,812,812,812,812,812,812,812,812,812,812,812,812,812,812,812,812,812,812,812,812,812,812,812,812,812,812,812,812,812,812,812,812,812,812,812,812,812,812,812,812,812,812,812,812,813,815,820,825,832,848,857,874,888,917,931,947,962,976,1001,1015,1029,1040,1045,1070],"ymouse":[673,673,673,673,673,673,673,673,673,673,673,673,673,673,673,673,673,673,673,673,673,673,673,673,673,672,672,672,672,672,672,672,672,672,672,672,672,671,671,671,671,671,671,671,671,671,671,671,671,670,669,667,661,658,656,651,649,647,647,647,647,647,647,647,647,647,647,647,647,647,647,647,647,647,647,647,647,647,647,647,647,647,647,647,647,647,647,647,647,647,647,647,647,647,647,647,647,647,647,647,647,647,647,647,647,647,647,647,647,647,647,647,647,647,647,647,647,647,647,647,647,647,647,647,647,647,647,647,647,647,647,647,647,647,647,647,647,647,647,647,647,647,647,647,647,647,647,647,647,647,647,647,647,647,647,647,647,647,647,647,647,647,647,647,647,647,647,647,647,647,647,647,647,647,647,647,647,647,647,647,647,647,647,647,647,647,647,647,647,647,647,647,647,647,647,647,647,647,647,647,647,647,647,647,647,647,647,647,647,647,647,647,647,647,647,647,647,647,647,647,647,647,647,647,647,647,647,646,642,641,640,640,639,639,638,638,638,638,638,638,638,638,638,638,639,643,646,650,654,659,664,672,698,711,713,718,722,727,731,734,737,740,743,744,745,746,746,746,746,746,746,756,772,789,805,813,813,813,813,813,813,813,813,810,803,799,799,798,798,798,798,798,798,798,798,798,798,798,798,798,798,798,798,798,798,796,790,782,782,782,782,782,782,781,781,781,781,781,781,781,781,781,781,781,781,781,781,781,781,781,781,781,781,781,781,781,781,781,779,777,772,768,756,749,741,736,733,723,721,716,712,704,682,669,649,636,622,601,594,592,590,588,588,588,588,590,590,590,590,591,591,592,596,599,600,601,602,604,604,604,605,605,606,607,607,608,608,608,608,608,608,608,608,608,608,608,608,608,608,608,608,608,608,608,608,608,608,608,608,608,608,608,608,608,608,608,608,608,608,608,608,608,608,608,608,608,608,608,608,608,608,608,608,608,608,608,608,608,608,608,608,608,608,608,608,608,608,608,608,608,608,608,608,608,608,608,608,608,608,608,608,608,608,608,608,608,608,608,608,608,608,608,608,608,608,608,608,608,608,608,608,608,608,608,608,608,608,608,608,608,608,608,608,608,608,608,608,608,608,608,608,608,608,608,608,608,608,608,608,608,608,608,608,608,608,608,608,609,609,609,609,609,609,609,609,609,609,609,609,609,609,609,609,609,609,609,609,609,609,609,609,609,609,609,609,609,609,609,609,609,609,609,609,609,609,609,609,609,609,609,609,609,609,609,609,609,609,609,609,609,609,609,609,609,609,609,609,609,609,609,609,609,609,609,609,609,609,609,609,609,609,609,609,609,609,609,609,609,609,609,609,609,609,609,609,609,609,609,609,609,609,609,609,609,609,609,609,609,609,609,609,609,609,609,609,609,609,609,609,609,609,609,609,609,609,609,609,609,609,609,609,609,609,609,609,609,609,609,609,609,609,609,609,609,609,609,609,609,609,609,609,609,609,609,609,609,609,609,609,609,609,609,609,609,609,609,609,609,609,609,609,609,609,609,609,609,609,609,609,609,609,609,609,609,609,609,609,609,609,609,609,609,609,609,609,609,609,606,600,594,585,574,554,516,493,458,423,348,313,279,250,221,169,140,112,78,73,46],"timestamp_mouse":[15,38,54,74,94,114,134,153,175,193,214,233,254,274,293,315,333,353,375,395,413,433,453,474,494,513,534,554,575,594,615,634,653,675,693,714,734,755,773,794,815,833,853,875,895,914,934,954,974,993,1014,1034,1054,1074,1094,1114,1133,1153,1173,1195,1213,1235,1254,1274,1293,1314,1334,1354,1374,1394,1413,1433,1453,1473,1493,1514,1533,1555,1573,1594,1614,1634,1655,1673,1693,1714,1733,1754,1774,1793,1813,1835,1853,1874,1895,1913,1934,1954,1973,1993,2013,2034,2053,2073,2094,2113,2134,2153,2175,2194,2213,2233,2253,2274,2293,2314,2333,2355,2373,2394,2413,2433,2453,2474,2493,2515,2533,2555,2573,2594,2613,2635,2654,2674,2693,2713,2734,2755,2774,2795,2814,2834,2854,2875,2894,2915,2933,2955,2973,2995,3014,3035,3053,3074,3093,3114,3133,3153,3173,3195,3214,3234,3253,3273,3295,3314,3333,3354,3375,3394,3414,3433,3454,3475,3493,3513,3535,3553,3575,3593,3614,3633,3654,3674,3695,3713,3735,3753,3774,3793,3815,3833,3853,3873,3895,3914,3933,3953,3974,3994,4013,4033,4053,4074,4094,4113,4133,4153,4174,4193,4213,4233,4253,4273,4294,4314,4333,4353,4374,4394,4413,4433,4453,4473,4494,4515,4533,4553,4574,4594,4613,4635,4654,4673,4693,4714,4733,4753,4775,4795,4813,4833,4853,4873,4894,4914,4934,4953,4974,4993,5013,5033,5053,5073,5094,5113,5134,5153,5175,5193,5213,5235,5253,5274,5293,5314,5333,5354,5373,5393,5414,5434,5453,5475,5494,5513,5533,5555,5574,5593,5613,5634,5654,5674,5694,5713,5734,5754,5774,5795,5814,5833,5853,5874,5893,5914,5934,5954,5974,5995,6014,6033,6054,6073,6093,6114,6133,6153,6173,6194,6213,6233,6253,6274,6294,6313,6335,6353,6374,6395,6414,6434,6454,6473,6493,6514,6533,6554,6574,6593,6614,6633,6654,6674,6694,6713,6735,6753,6773,6793,6814,6833,6853,6873,6894,6914,6934,6953,6975,6993,7014,7033,7054,7075,7093,7113,7135,7154,7173,7193,7214,7234,7254,7275,7294,7313,7333,7355,7374,7394,7414,7434,7453,7473,7493,7514,7534,7554,7574,7594,7614,7633,7653,7674,7694,7714,7733,7754,7773,7794,7813,7835,7854,7874,7893,7913,7934,7953,7974,7993,8014,8035,8053,8073,8095,8113,8133,8154,8173,8195,8213,8234,8255,8273,8294,8314,8335,8353,8373,8394,8414,8433,8454,8473,8495,8513,8534,8554,8573,8594,8613,8633,8653,8674,8694,8714,8734,8754,8773,8794,8813,8834,8854,8875,8893,8913,8933,8954,8974,8995,9014,9033,9054,9075,9093,9114,9135,9154,9173,9195,9213,9233,9253,9273,9294,9313,9333,9354,9373,9395,9414,9433,9454,9474,9493,9513,9533,9553,9573,9594,9615,9635,9654,9673,9693,9714,9734,9753,9773,9794,9813,9834,9853,9873,9894,9914,9933,9953,9973,9993,10013,10033,10053,10073,10093,10113,10135,10154,10175,10194,10213,10233,10253,10273,10294,10315,10333,10354,10373,10394,10413,10433,10453,10475,10493,10513,10534,10553,10573,10595,10614,10634,10653,10673,10693,10713,10734,10753,10775,10794,10815,10833,10853,10875,10893,10913,10935,10953,10974,10994,11013,11034,11053,11075,11093,11113,11133,11153,11175,11193,11215,11234,11253,11273,11294,11315,11334,11355,11373,11395,11413,11434,11454,11473,11494,11514,11533,11554,11573,11595,11613,11634,11653,11674,11693,11713,11735,11753,11773,11793,11814,11833,11855,11873,11895,11913,11934,11953,11973,11994,12013,12035,12053,12074,12093,12113,12133,12153,12175,12193,12215,12234,12253,12274,12294,12314,12334,12354,12374,12394,12414,12434,12453,12473,12493,12513,12533,12553,12573,12593,12613,12633,12654,12673,12694,12714,12734,12754,12775,12794,12814,12834,12854,12873,12893,12915,12933,12953,12975,12994,13015,13034,13054,13074,13093,13115,13133,13153,13174,13193,13215,13234,13253,13274,13293,13314,13333,13355,13374,13393,13414,13434,13453,13475,13493,13513,13535,13554,13573,13593,13613,13635,13654,13673,13695,13714,13734,13754,13773,13794,13815,13833,13854,13873,13895,13913,13935,13954,13973,13993,14015,14034,14054,14073,14093,14114,14134,14154,14173,14194,14213,14233,14253,14273,14293,14314,14334,14353,14373,14394,14413,14434,14453,14473,14494,14513,14535,14553],"xSR":741.5,"ySR":573.95,"xT1":424.9,"yT1":0,"xT2":1058.1,"yT2":0,"toosoon":0,"cond_shown":"equaldotsize","ratio_trial":900,"smaller_num":"9","larger_num":"10","correct_side":2,"subjID":"jintitaashiilaverdediaz2","gender":"0","age":"10","school":"6"},{"start_time":1551881683368,"click_time":1551881684939,"finger_time":1551881683619,"fix_duration":286.1189298624187,"trial":31,"RT":251,"MT":1320,"sideResp":1,"stimulus":"img/500/randomdotsizeEA/L/8_Ratio_500_L_8_R_4.png","xmouse":[820,820,820,820,820,820,819,817,817,816,815,813,801,796,793,792,792,791,790,789,789,789,788,788,788,788,788,788,788,788,788,788,788,788,788,788,788,790,791,794,796,800,801,801,801,800,796,772,766,758,751,736,714,698,685,668,660,657,651,640,626,609,557,529,502,469,444,408,403,401,401,401,401,401,405,407,411,424,431],"ymouse":[660,660,660,660,660,661,662,664,665,665,666,669,679,681,681,681,681,676,672,667,663,661,655,653,651,650,649,649,649,647,646,645,643,642,642,640,639,635,632,627,617,584,533,507,481,449,431,390,385,377,371,358,336,319,298,261,238,209,197,178,164,153,135,126,120,112,104,88,86,85,84,84,83,83,82,80,79,75,72],"timestamp_mouse":[11,38,51,73,93,111,132,151,171,191,212,232,251,273,291,312,331,352,371,392,411,433,451,473,491,513,532,551,572,593,612,632,652,672,692,713,733,751,771,792,812,833,851,872,893,912,932,951,971,992,1013,1032,1051,1071,1091,1113,1132,1152,1171,1191,1212,1231,1252,1271,1291,1312,1331,1351,1372,1391,1412,1433,1452,1471,1491,1512,1533,1552,1571],"xSR":741.5,"ySR":573.95,"xT1":424.9,"yT1":0,"xT2":1058.1,"yT2":0,"toosoon":0,"cond_shown":"randomdotsizeEA","ratio_trial":500,"smaller_num":"4","larger_num":"8","correct_side":1,"subjID":"jintitaashiilaverdediaz2","gender":"0","age":"10","school":"6"},{"start_time":1551881687168,"click_time":1551881690240,"finger_time":1551881689680,"fix_duration":267.98976413776865,"trial":32,"RT":2512,"MT":560,"sideResp":1,"stimulus":"img/500/randomdotsizeEA/L/4_Ratio_500_L_18_R_9.png","xmouse":[810,810,810,810,810,810,810,810,810,810,810,810,810,810,810,810,810,810,810,810,810,810,810,810,807,805,804,803,802,800,800,800,799,798,798,798,798,798,798,798,798,798,798,798,798,798,797,794,792,791,790,789,788,786,785,783,781,780,779,779,779,779,779,779,779,779,779,779,779,779,778,777,777,776,776,776,776,776,776,776,776,776,776,776,776,776,776,776,776,776,776,776,773,769,768,768,767,765,765,765,765,765,765,765,765,765,765,765,765,764,764,763,759,758,755,753,751,749,747,747,747,746,746,746,742,737,731,724,724,724,724,724,724,723,723,717,710,687,669,650,631,614,590,585,583,582,578,571,559,548,530,509,457,428],"ymouse":[589,589,589,589,589,589,589,589,589,589,589,589,589,589,589,589,589,589,589,589,589,589,589,589,589,588,588,588,588,588,588,588,588,588,588,588,588,588,588,588,588,588,588,588,588,588,588,590,592,594,595,597,598,599,600,602,604,605,606,607,607,607,607,607,607,607,607,607,607,607,607,607,607,607,607,607,607,607,607,607,607,607,607,607,607,607,607,607,607,607,609,611,615,617,618,619,620,622,622,622,622,622,622,622,622,622,622,622,622,622,622,622,623,623,625,625,625,626,627,627,627,627,627,627,627,630,632,633,633,633,633,633,626,619,612,600,591,564,548,539,526,517,501,497,490,481,459,438,396,365,324,273,129,57],"timestamp_mouse":[12,39,51,73,91,113,131,152,172,191,212,233,251,271,291,311,331,352,371,392,413,431,452,471,491,513,532,551,572,592,612,631,652,671,693,711,733,751,773,791,812,831,851,871,891,912,931,951,972,992,1011,1033,1051,1071,1093,1112,1132,1152,1172,1191,1212,1231,1252,1271,1291,1311,1331,1351,1371,1391,1411,1432,1452,1471,1493,1511,1532,1551,1571,1593,1612,1633,1651,1671,1693,1712,1732,1753,1773,1791,1812,1833,1851,1872,1891,1912,1931,1951,1971,1992,2011,2032,2051,2071,2093,2111,2132,2153,2172,2193,2212,2232,2251,2272,2291,2312,2331,2351,2371,2392,2412,2432,2451,2472,2492,2512,2532,2552,2572,2591,2613,2631,2651,2672,2693,2711,2732,2752,2773,2791,2811,2831,2852,2873,2891,2911,2932,2951,2972,2991,3012,3032,3051,3072],"xSR":741.5,"ySR":573.95,"xT1":424.9,"yT1":0,"xT2":1058.1,"yT2":0,"toosoon":0,"cond_shown":"randomdotsizeEA","ratio_trial":500,"smaller_num":"9","larger_num":"18","correct_side":1,"subjID":"jintitaashiilaverdediaz2","gender":"0","age":"10","school":"6"},{"start_time":1551881696040,"click_time":1551881697320,"finger_time":1551881697060,"fix_duration":1458.8873338263384,"trial":33,"RT":1020,"MT":260,"sideResp":2,"stimulus":"img/750/equaldotanddens/R/12_Ratio_750_L_3_R_4.png","xmouse":[775,775,775,775,775,775,775,775,775,775,775,775,775,775,775,775,775,775,775,775,775,775,775,775,775,775,775,775,775,775,775,775,775,775,775,775,775,775,775,775,775,775,775,775,775,775,775,775,775,778,812,893,926,978,1016,1032,1040,1056,1066,1074,1086,1098,1106,1113,1125],"ymouse":[634,634,634,634,634,634,634,634,634,634,634,634,634,634,634,634,634,634,634,634,634,634,634,634,634,634,634,634,634,634,634,634,634,634,634,634,634,634,634,634,634,634,634,634,634,634,634,634,634,634,606,520,494,438,360,323,305,268,233,214,182,155,135,114,77],"timestamp_mouse":[1,19,39,60,80,99,120,139,161,179,201,219,239,259,281,300,321,340,360,380,401,419,440,459,481,499,520,540,559,579,599,621,640,659,679,699,721,740,759,779,799,819,839,860,879,899,920,939,959,980,999,1020,1039,1061,1080,1100,1119,1140,1160,1179,1199,1219,1240,1259,1280],"xSR":741.5,"ySR":573.95,"xT1":424.9,"yT1":0,"xT2":1058.1,"yT2":0,"toosoon":0,"cond_shown":"equaldotanddens","ratio_trial":750,"smaller_num":"3","larger_num":"4","correct_side":2,"subjID":"jintitaashiilaverdediaz2","gender":"0","age":"10","school":"6"},{"start_time":1551881699318,"click_time":1551881700719,"finger_time":1551881700139,"fix_duration":1296.7507253909407,"trial":34,"RT":821,"MT":580,"sideResp":1,"stimulus":"img/900/equaldotsize/L/2_Ratio_900_L_20_R_18.png","xmouse":[813,813,813,813,813,813,813,813,813,813,813,813,813,813,813,813,813,813,813,813,813,813,813,813,813,813,813,813,813,813,813,813,813,813,812,806,787,780,772,761,748,730,722,715,712,702,696,685,673,654,637,614,601,593,584,570,554,541,529,521,505,499,491,488,485,484,484,484,484,484,486],"ymouse":[654,654,654,654,654,654,654,654,654,654,654,654,654,654,654,654,654,654,654,654,654,654,654,654,654,654,654,654,654,654,654,654,654,654,650,643,627,622,618,604,587,557,542,526,517,488,467,427,404,374,351,325,302,284,267,249,231,218,205,192,179,171,164,157,149,129,118,118,118,111,98],"timestamp_mouse":[9,35,41,61,83,102,122,141,162,183,201,222,241,261,281,301,321,341,362,383,401,423,441,463,481,502,521,542,561,582,603,622,643,661,682,702,722,742,761,781,802,821,842,862,882,901,923,941,962,983,1001,1022,1042,1062,1082,1102,1121,1141,1162,1183,1202,1222,1241,1262,1281,1301,1321,1342,1361,1383,1401],"xSR":741.5,"ySR":573.95,"xT1":424.9,"yT1":0,"xT2":1058.1,"yT2":0,"toosoon":0,"cond_shown":"equaldotsize","ratio_trial":900,"smaller_num":"18","larger_num":"20","correct_side":1,"subjID":"jintitaashiilaverdediaz2","gender":"0","age":"10","school":"6"},{"start_time":1551881703873,"click_time":1551881705659,"finger_time":1551881705220,"fix_duration":872.8528235247735,"trial":35,"RT":1347,"MT":439,"sideResp":1,"stimulus":"img/900/equaldotanddens/R/14_Ratio_900_L_18_R_20.png","xmouse":[769,769,769,769,769,769,769,769,769,769,769,769,769,769,769,769,769,769,769,769,769,769,769,769,769,769,769,769,769,769,769,769,769,769,769,769,769,769,769,769,769,769,769,769,769,769,769,769,769,769,769,769,769,769,769,769,769,769,769,769,769,769,769,767,763,763,762,759,757,754,745,739,729,728,710,693,675,645,625,615,603,595,585,566,556,550,541,534,524,517],"ymouse":[617,617,617,617,617,617,617,617,617,617,617,617,617,617,617,617,617,617,617,617,617,617,617,617,617,617,617,617,617,617,617,617,617,617,617,617,617,617,617,617,617,617,617,617,617,617,617,617,617,617,617,617,617,617,617,617,617,617,617,617,617,617,616,607,598,594,583,549,523,480,454,431,381,377,349,326,304,273,251,239,228,217,207,186,175,166,153,140,113,92],"timestamp_mouse":[9,28,61,67,87,106,127,146,166,187,208,227,246,268,287,307,327,347,368,388,407,427,447,467,486,508,526,546,568,586,607,626,647,667,688,707,726,748,766,786,808,826,846,868,886,907,926,946,967,986,1007,1027,1046,1068,1086,1106,1126,1146,1166,1186,1208,1226,1248,1267,1286,1307,1327,1347,1366,1387,1408,1426,1446,1466,1486,1507,1526,1546,1566,1586,1607,1627,1646,1666,1686,1708,1726,1747,1766,1786],"xSR":741.5,"ySR":573.95,"xT1":424.9,"yT1":0,"xT2":1058.1,"yT2":0,"toosoon":0,"cond_shown":"equaldotanddens","ratio_trial":900,"smaller_num":"18","larger_num":"20","correct_side":2,"subjID":"jintitaashiilaverdediaz2","gender":"0","age":"10","school":"6"},{"start_time":1551881707595,"click_time":1551881708420,"finger_time":1551881708220,"fix_duration":793.9809997419609,"trial":36,"RT":625,"MT":200,"sideResp":2,"stimulus":"img/500/equaldotanddens/R/3_Ratio_500_L_10_R_20.png","xmouse":[811,811,811,811,811,811,811,811,811,811,811,811,811,811,811,811,811,811,811,811,811,811,811,811,811,811,811,811,813,818,828,858,879,900,921,956,1003,1022,1040,1052,1064,1097],"ymouse":[655,655,655,655,655,655,655,655,655,655,655,655,655,655,655,655,655,655,655,655,655,655,655,655,655,655,655,655,651,642,619,566,527,479,439,386,289,245,206,167,135,79],"timestamp_mouse":[10,24,45,64,84,105,126,144,166,185,205,225,244,266,284,304,324,345,365,384,405,424,445,465,486,505,525,544,565,584,604,625,645,664,684,706,724,744,764,785,806,825],"xSR":741.5,"ySR":573.95,"xT1":424.9,"yT1":0,"xT2":1058.1,"yT2":0,"toosoon":0,"cond_shown":"equaldotanddens","ratio_trial":500,"smaller_num":"10","larger_num":"20","correct_side":2,"subjID":"jintitaashiilaverdediaz2","gender":"0","age":"10","school":"6"},{"start_time":1551881710608,"click_time":1551881711359,"finger_time":1551881711140,"fix_duration":1185.9789219112279,"trial":37,"RT":532,"MT":219,"sideResp":2,"stimulus":"img/250/equaldotanddens/R/12_Ratio_250_L_5_R_20.png","xmouse":[786,786,786,786,786,786,786,786,786,786,786,786,786,786,786,786,786,789,790,793,796,808,811,817,822,836,845,855,864,878,910,932,965,998,1015,1055,1069,1083],"ymouse":[648,648,648,648,648,648,648,648,648,648,648,648,648,648,648,648,648,648,648,647,646,636,632,624,617,594,575,556,535,508,445,396,337,282,247,164,127,92],"timestamp_mouse":[12,36,52,71,93,111,132,151,172,191,211,231,251,271,292,313,332,352,372,391,412,431,452,473,493,512,532,552,571,591,612,632,651,671,691,711,731,751],"xSR":741.5,"ySR":573.95,"xT1":424.9,"yT1":0,"xT2":1058.1,"yT2":0,"toosoon":0,"cond_shown":"equaldotanddens","ratio_trial":250,"smaller_num":"5","larger_num":"20","correct_side":2,"subjID":"jintitaashiilaverdediaz2","gender":"0","age":"10","school":"6"},{"start_time":1551881714036,"click_time":1551881719821,"finger_time":1551881716921,"fix_duration":1415.920925542485,"trial":38,"RT":2885,"MT":2900,"sideResp":1,"stimulus":"img/500/equaldotanddens/R/1_Ratio_500_L_9_R_18.png","xmouse":[819,819,819,819,819,819,819,819,819,819,819,819,819,819,819,819,819,819,819,819,819,819,819,819,819,819,819,819,819,819,819,819,819,819,819,819,819,819,819,819,819,819,819,819,819,819,819,819,819,819,819,819,819,819,819,819,819,819,819,819,819,819,819,819,819,819,819,819,819,819,819,819,819,819,819,819,819,819,819,819,819,819,819,819,819,819,819,819,819,819,819,819,819,819,819,819,819,819,819,819,819,819,819,819,819,819,819,819,819,819,819,819,819,819,819,819,819,819,819,819,819,819,819,819,819,820,825,829,832,832,830,829,828,826,820,819,818,818,818,817,816,816,818,824,797,787,781,781,781,781,781,779,777,776,773,768,763,746,730,719,719,718,718,718,718,716,714,711,708,706,704,704,704,703,703,703,703,703,703,703,703,703,703,703,703,703,702,700,700,700,700,700,700,701,707,710,711,713,718,728,730,731,731,731,731,728,726,725,724,723,723,723,723,723,722,721,721,721,721,721,721,721,721,721,721,721,721,722,722,723,725,729,733,742,749,763,766,767,770,771,772,773,775,776,780,787,795,797,798,798,798,798,798,798,798,798,798,798,798,798,798,798,798,798,800,800,801,802,802,806,806,806,806,806,806,806,806,806,806,804,783,741,716,685,650,590,566,549,522,499],"ymouse":[593,593,593,593,593,593,593,593,593,593,593,593,593,593,593,593,595,596,597,597,597,597,597,597,597,597,597,597,597,597,597,597,597,597,597,597,597,597,597,597,597,597,597,597,597,597,597,597,597,597,597,597,597,597,597,597,597,597,597,597,597,597,597,597,597,597,597,597,597,597,597,597,597,597,597,597,597,597,597,597,597,597,597,597,597,597,597,597,597,597,597,597,597,597,597,597,597,597,597,597,597,597,597,597,597,597,597,597,597,597,597,597,597,597,597,597,597,597,597,597,597,597,597,597,597,599,610,626,640,655,656,656,656,658,663,664,664,664,662,657,657,657,655,652,698,711,717,719,720,720,719,717,715,714,716,722,728,748,780,822,834,839,843,843,844,845,845,847,849,850,850,850,850,850,850,850,850,850,850,850,850,850,850,850,850,843,836,829,822,811,806,801,796,791,777,770,764,759,747,726,720,718,718,717,717,717,717,717,717,717,717,717,717,717,717,717,716,716,715,714,713,713,713,713,713,712,712,711,711,711,711,711,710,707,705,699,696,694,692,690,689,688,688,687,678,661,642,629,621,616,616,616,616,616,616,616,616,616,616,616,616,616,615,613,607,604,599,592,585,576,576,574,571,569,566,565,565,565,565,564,551,527,508,483,446,351,302,260,199,96],"timestamp_mouse":[12,35,43,63,83,103,123,143,164,185,205,225,245,266,285,304,326,346,365,385,406,426,445,465,485,505,525,545,566,585,606,625,645,666,686,705,724,746,766,784,805,825,845,865,886,905,926,945,966,985,1005,1026,1045,1066,1086,1105,1126,1145,1166,1185,1204,1225,1245,1266,1286,1305,1324,1346,1364,1386,1405,1425,1446,1464,1485,1505,1525,1545,1565,1585,1605,1626,1645,1666,1685,1704,1726,1744,1766,1785,1806,1825,1844,1866,1884,1906,1924,1945,1965,1984,2006,2025,2045,2066,2086,2105,2125,2146,2165,2184,2205,2225,2244,2266,2286,2305,2325,2344,2365,2385,2405,2425,2446,2466,2486,2506,2525,2545,2566,2585,2606,2626,2645,2665,2685,2706,2725,2745,2766,2785,2806,2824,2845,2865,2885,2905,2925,2946,2966,2985,3005,3025,3046,3065,3085,3106,3126,3145,3166,3185,3205,3226,3246,3266,3286,3305,3325,3346,3365,3385,3406,3426,3445,3465,3485,3506,3525,3545,3566,3585,3606,3624,3646,3666,3686,3706,3726,3745,3766,3785,3805,3824,3846,3866,3885,3906,3926,3945,3965,3986,4004,4026,4045,4065,4085,4106,4124,4145,4165,4185,4205,4225,4245,4264,4285,4306,4325,4345,4365,4386,4406,4425,4446,4465,4486,4505,4525,4545,4565,4586,4604,4626,4644,4664,4684,4704,4724,4745,4766,4785,4804,4825,4844,4866,4885,4905,4925,4945,4965,4985,5006,5025,5046,5065,5086,5105,5125,5145,5166,5185,5204,5225,5245,5266,5285,5305,5326,5345,5364,5385,5404,5426,5444,5466,5485,5506,5526,5546,5566,5585,5606,5625,5645,5666,5685,5706,5725,5745,5765,5785],"xSR":741.5,"ySR":573.95,"xT1":424.9,"yT1":0,"xT2":1058.1,"yT2":0,"toosoon":0,"cond_shown":"equaldotanddens","ratio_trial":500,"smaller_num":"9","larger_num":"18","correct_side":2,"subjID":"jintitaashiilaverdediaz2","gender":"0","age":"10","school":"6"},{"start_time":1551881722221,"click_time":1551881725161,"finger_time":1551881724502,"fix_duration":257.9232024431081,"trial":39,"RT":2281,"MT":659,"sideResp":2,"stimulus":"img/750/equaldotanddens/L/10_Ratio_750_L_4_R_3.png","xmouse":[768,768,768,770,770,770,770,770,770,770,771,771,771,772,773,774,777,780,782,784,786,786,786,786,786,786,786,786,786,786,786,786,786,785,783,783,783,783,783,783,782,780,780,780,780,780,780,780,780,780,780,780,780,780,780,780,780,780,780,780,780,781,782,782,782,782,782,782,782,782,782,782,782,782,782,782,782,782,782,782,782,782,782,782,782,782,782,782,782,782,782,782,782,782,782,782,782,782,782,782,782,782,782,782,784,785,798,799,800,801,802,807,819,833,844,873,889,905,922,941,968,981,999,1012,1023,1033,1046,1053,1059,1063,1075,1084,1100,1113,1126,1141,1153,1162,1170,1173,1175,1175,1175,1175,1175,1173,1160,1151],"ymouse":[631,631,631,632,633,633,633,633,633,633,633,633,633,633,633,633,633,633,633,633,634,634,634,634,634,634,634,634,634,634,634,634,634,634,634,634,634,634,634,634,634,634,634,634,634,634,634,634,634,634,634,634,634,634,634,634,634,634,634,634,633,632,630,630,630,630,630,630,630,630,630,630,630,630,630,630,630,630,630,630,630,630,630,630,630,630,630,630,630,630,630,630,630,630,630,630,630,630,630,630,630,630,630,630,630,630,629,629,629,629,629,628,624,620,616,597,578,558,533,509,469,440,407,388,371,359,342,334,327,320,303,290,264,244,221,194,165,134,105,89,61,44,40,39,39,39,39,39],"timestamp_mouse":[1,20,40,60,80,100,120,139,160,181,201,219,240,260,280,300,321,340,360,381,400,420,439,461,481,500,520,540,559,579,601,619,640,661,680,699,721,739,760,780,801,821,840,860,881,901,920,940,960,980,999,1020,1040,1060,1081,1101,1121,1141,1160,1181,1200,1220,1240,1261,1280,1300,1320,1340,1360,1381,1400,1420,1440,1461,1481,1499,1520,1540,1560,1580,1600,1620,1641,1660,1681,1701,1720,1740,1760,1780,1800,1820,1841,1859,1880,1901,1920,1941,1960,1980,2000,2020,2040,2060,2081,2099,2120,2141,2161,2179,2201,2221,2241,2260,2281,2300,2320,2341,2360,2380,2400,2419,2441,2461,2481,2501,2521,2541,2560,2581,2600,2620,2640,2660,2681,2700,2721,2741,2761,2780,2800,2820,2840,2861,2881,2899,2921,2940],"xSR":741.5,"ySR":573.95,"xT1":424.9,"yT1":0,"xT2":1058.1,"yT2":0,"toosoon":0,"cond_shown":"equaldotanddens","ratio_trial":750,"smaller_num":"3","larger_num":"4","correct_side":1,"subjID":"jintitaashiilaverdediaz2","gender":"0","age":"10","school":"6"},{"start_time":1551881727373,"click_time":1551881729021,"finger_time":1551881728341,"fix_duration":1230.1172104124116,"trial":40,"RT":968,"MT":680,"sideResp":2,"stimulus":"img/900/equaldotsize/R/15_Ratio_900_L_9_R_10.png","xmouse":[805,804,804,800,800,800,800,800,800,800,800,800,800,800,800,800,800,800,800,800,800,800,800,800,800,800,800,800,800,800,800,800,800,800,800,800,800,800,800,800,800,800,800,800,800,799,793,756,739,714,691,667,631,620,595,586,576,568,563,563,563,565,580,598,658,705,764,831,933,972,992,1013,1026,1029,1034,1035,1040,1045,1047,1049,1052,1055,1065],"ymouse":[620,620,620,620,620,620,620,620,620,620,620,620,620,620,620,620,620,620,620,620,619,618,617,617,617,617,617,617,617,617,617,617,617,617,617,617,617,617,617,617,617,617,617,617,617,616,611,594,585,571,555,536,496,484,450,433,411,390,366,361,355,351,344,339,332,321,308,285,247,227,208,190,173,170,157,156,146,131,125,120,115,109,96],"timestamp_mouse":[10,34,48,69,88,108,128,148,168,189,209,228,247,269,288,308,329,348,369,387,409,427,448,468,488,509,529,547,569,588,608,628,647,668,688,709,728,747,768,789,809,828,849,868,889,909,928,948,968,988,1009,1028,1048,1069,1087,1108,1128,1148,1169,1188,1208,1227,1249,1268,1288,1309,1328,1348,1368,1388,1409,1428,1448,1468,1488,1509,1528,1548,1568,1587,1609,1628,1648],"xSR":741.5,"ySR":573.95,"xT1":424.9,"yT1":0,"xT2":1058.1,"yT2":0,"toosoon":0,"cond_shown":"equaldotsize","ratio_trial":900,"smaller_num":"9","larger_num":"10","correct_side":2,"subjID":"jintitaashiilaverdediaz2","gender":"0","age":"10","school":"6"},{"start_time":1551881730908,"click_time":1551881732022,"finger_time":1551881731621,"fix_duration":1104.2465429089582,"trial":41,"RT":713,"MT":401,"sideResp":1,"stimulus":"img/900/equaldotanddens/R/12_Ratio_900_L_18_R_20.png","xmouse":[817,817,817,817,817,817,817,817,816,816,815,814,814,814,814,812,811,811,810,809,807,806,804,803,803,803,803,803,803,802,799,798,795,791,788,775,759,706,659,609,485,354,312,276,262,247,245,245,245,249,254,272,290,318,362,444],"ymouse":[633,633,633,633,633,633,633,633,630,629,627,626,625,624,623,623,623,623,623,623,624,625,627,627,628,628,628,628,628,628,618,615,610,605,600,569,537,471,421,384,308,194,145,89,58,3,0,0,0,0,0,0,0,0,4,11],"timestamp_mouse":[18,39,53,74,94,114,133,154,172,193,213,234,254,273,294,314,334,354,374,393,413,433,453,473,494,514,533,553,573,594,612,634,653,674,693,713,733,753,773,793,813,834,853,873,894,913,933,953,973,993,1012,1032,1052,1072,1094,1114],"xSR":741.5,"ySR":573.95,"xT1":424.9,"yT1":0,"xT2":1058.1,"yT2":0,"toosoon":0,"cond_shown":"equaldotanddens","ratio_trial":900,"smaller_num":"18","larger_num":"20","correct_side":2,"subjID":"jintitaashiilaverdediaz2","gender":"0","age":"10","school":"6"},{"start_time":1551881735474,"click_time":1551881736361,"finger_time":1551881735981,"fix_duration":250,"trial":42,"RT":507,"MT":380,"sideResp":2,"stimulus":"img/900/equaldotanddens/R/13_Ratio_900_L_18_R_20.png","xmouse":[792,792,792,792,792,792,792,792,792,792,792,792,792,792,792,792,792,792,792,793,794,795,796,802,804,805,805,807,814,824,833,843,857,871,889,913,938,977,991,1002,1009,1019,1044,1057,1067],"ymouse":[647,647,647,647,647,647,647,647,647,647,647,647,647,647,647,647,647,647,647,646,643,639,632,602,587,573,565,558,547,536,525,509,472,443,402,353,304,214,162,139,126,107,71,49,33],"timestamp_mouse":[10,34,48,67,87,108,128,148,167,187,207,227,247,267,287,307,327,347,367,388,406,427,447,468,488,507,527,547,566,586,607,628,647,667,687,708,728,747,767,787,808,827,847,867,886],"xSR":741.5,"ySR":573.95,"xT1":424.9,"yT1":0,"xT2":1058.1,"yT2":0,"toosoon":0,"cond_shown":"equaldotanddens","ratio_trial":900,"smaller_num":"18","larger_num":"20","correct_side":2,"subjID":"jintitaashiilaverdediaz2","gender":"0","age":"10","school":"6"},{"start_time":1551881739053,"click_time":1551881740321,"finger_time":1551881739862,"fix_duration":250,"trial":43,"RT":809,"MT":459,"sideResp":1,"stimulus":"img/900/randomdotsizeEA/R/14_Ratio_900_L_18_R_20.png","xmouse":[816,816,816,816,816,816,816,816,816,816,816,816,816,816,816,816,816,816,816,816,816,816,816,816,816,816,816,816,817,819,819,819,819,819,820,820,820,820,820,819,812,791,763,736,647,606,576,570,563,563,563,558,555,550,549,547,543,538,519,505,481,469,463,458],"ymouse":[619,619,619,619,619,619,619,619,619,619,619,619,619,618,616,615,614,613,613,613,613,613,612,610,607,605,605,605,604,596,594,593,592,591,591,591,589,587,579,577,571,560,547,531,475,432,381,370,318,298,262,248,234,211,206,196,189,179,160,148,131,121,113,97],"timestamp_mouse":[8,42,47,68,88,108,128,149,168,188,208,228,248,268,289,308,329,349,367,388,408,428,449,468,488,507,529,548,569,589,608,628,649,668,688,708,729,748,769,787,809,828,849,868,889,908,929,948,969,987,1008,1028,1048,1068,1087,1108,1129,1148,1169,1188,1208,1228,1248,1268],"xSR":741.5,"ySR":573.95,"xT1":424.9,"yT1":0,"xT2":1058.1,"yT2":0,"toosoon":0,"cond_shown":"randomdotsizeEA","ratio_trial":900,"smaller_num":"18","larger_num":"20","correct_side":2,"subjID":"jintitaashiilaverdediaz2","gender":"0","age":"10","school":"6"},{"start_time":1551881742568,"click_time":1551881743621,"finger_time":1551881743262,"fix_duration":1245.3594478959171,"trial":44,"RT":694,"MT":359,"sideResp":2,"stimulus":"img/500/randomdotsizeEA/L/8_Ratio_500_L_8_R_4.png","xmouse":[759,759,759,759,759,759,759,759,759,759,759,759,759,759,759,759,758,758,758,758,757,757,757,757,757,757,757,757,761,765,771,779,794,805,824,842,865,894,904,913,923,937,961,971,986,997,1001,1020,1028,1036,1042,1053,1065],"ymouse":[645,645,645,645,645,645,645,645,645,645,645,645,645,645,645,645,645,645,644,642,640,637,634,633,633,633,633,632,628,624,617,611,593,576,547,517,485,421,401,377,348,317,247,224,181,151,132,91,70,51,35,20,1],"timestamp_mouse":[14,36,53,74,94,113,132,153,173,194,214,234,253,274,294,313,332,354,374,394,413,433,453,473,494,512,533,554,574,593,613,634,653,672,694,713,733,753,772,794,813,833,853,872,893,914,933,953,972,994,1014,1033,1053],"xSR":741.5,"ySR":573.95,"xT1":424.9,"yT1":0,"xT2":1058.1,"yT2":0,"toosoon":0,"cond_shown":"randomdotsizeEA","ratio_trial":500,"smaller_num":"4","larger_num":"8","correct_side":1,"subjID":"jintitaashiilaverdediaz2","gender":"0","age":"10","school":"6"},{"start_time":1551881745240,"click_time":1551881746441,"finger_time":1551881746182,"fix_duration":357.3850208439707,"trial":45,"RT":942,"MT":259,"sideResp":2,"stimulus":"img/500/equaldotsize/R/6_Ratio_500_L_9_R_18.png","xmouse":[765,765,765,765,765,765,765,765,765,765,765,765,765,765,765,765,765,765,765,765,765,765,765,765,766,769,770,770,770,770,770,770,770,770,770,770,770,770,770,770,770,771,771,772,773,779,788,805,822,837,882,896,915,930,974,984,994,1011,1024,1052,1064],"ymouse":[606,606,606,606,606,606,606,606,606,606,606,606,606,606,606,606,606,606,606,606,606,606,606,607,609,610,610,610,610,610,610,610,610,610,610,610,610,610,610,610,608,606,604,603,602,590,579,561,540,516,430,395,341,300,205,180,144,107,76,23,9],"timestamp_mouse":[8,34,41,61,80,101,121,142,162,182,201,222,242,261,281,301,322,341,361,382,400,422,440,462,480,502,521,541,562,581,601,621,641,661,681,701,720,741,761,780,801,821,842,862,881,901,921,942,961,982,1002,1022,1040,1062,1081,1101,1120,1142,1161,1181,1201],"xSR":741.5,"ySR":573.95,"xT1":424.9,"yT1":0,"xT2":1058.1,"yT2":0,"toosoon":0,"cond_shown":"equaldotsize","ratio_trial":500,"smaller_num":"9","larger_num":"18","correct_side":2,"subjID":"jintitaashiilaverdediaz2","gender":"0","age":"10","school":"6"},{"start_time":1551881747733,"click_time":1551881748841,"finger_time":1551881748161,"fix_duration":250,"trial":46,"RT":428,"MT":680,"sideResp":2,"stimulus":"img/900/randomdotsizeEA/L/4_Ratio_900_L_20_R_18.png","xmouse":[809,810,812,812,814,814,814,814,814,814,814,814,814,814,814,814,814,814,814,818,823,826,833,837,843,850,851,851,853,858,862,865,868,872,877,879,879,880,880,883,893,901,914,926,950,1015,1049,1066,1079,1084,1087,1091,1097,1101,1106,1106],"ymouse":[592,592,592,592,592,592,592,592,592,592,592,592,592,592,592,592,592,592,592,582,577,569,561,555,545,540,539,538,537,530,526,523,517,511,503,493,489,487,485,482,469,458,441,421,385,301,249,226,203,192,175,163,151,141,117,99],"timestamp_mouse":[9,29,54,68,89,108,128,149,168,188,207,228,248,269,289,308,329,349,369,388,409,428,448,469,488,508,528,548,568,588,608,629,648,669,688,709,728,748,768,789,809,828,848,867,889,908,929,949,968,988,1008,1028,1048,1068,1089,1108],"xSR":741.5,"ySR":573.95,"xT1":424.9,"yT1":0,"xT2":1058.1,"yT2":0,"toosoon":0,"cond_shown":"randomdotsizeEA","ratio_trial":900,"smaller_num":"18","larger_num":"20","correct_side":1,"subjID":"jintitaashiilaverdediaz2","gender":"0","age":"10","school":"6"},{"start_time":1551881749874,"click_time":1551881750961,"finger_time":1551881750581,"fix_duration":250,"trial":47,"RT":707,"MT":380,"sideResp":1,"stimulus":"img/250/equaldotsize/L/5_Ratio_250_L_24_R_6.png","xmouse":[828,828,828,828,828,828,828,828,828,828,828,828,828,828,828,828,828,828,828,828,828,828,828,828,828,828,828,828,828,828,828,824,813,795,781,761,728,684,579,493,430,390,324,310,299,291,283,280,280,280,285,296,358,401,443],"ymouse":[639,639,639,639,639,639,639,639,639,639,639,639,639,639,639,639,639,639,639,639,639,639,639,639,639,639,637,637,636,635,634,632,618,602,581,549,499,444,320,226,160,120,46,18,0,0,0,0,0,0,0,0,1,1,5],"timestamp_mouse":[8,37,48,68,87,108,127,146,168,186,208,227,248,268,287,307,328,347,368,387,407,428,448,468,487,508,527,547,568,587,607,627,648,668,686,707,727,747,767,788,807,828,847,867,887,907,928,948,968,987,1007,1028,1047,1066,1087],"xSR":741.5,"ySR":573.95,"xT1":424.9,"yT1":0,"xT2":1058.1,"yT2":0,"toosoon":0,"cond_shown":"equaldotsize","ratio_trial":250,"smaller_num":"6","larger_num":"24","correct_side":1,"subjID":"jintitaashiilaverdediaz2","gender":"0","age":"10","school":"6"},{"start_time":1551881753128,"click_time":1551881755641,"finger_time":1551881754701,"fix_duration":1104.5984992431765,"trial":48,"RT":1573,"MT":940,"sideResp":2,"stimulus":"img/750/randomdotsizeEA/R/5_Ratio_750_L_15_R_20.png","xmouse":[759,759,759,759,759,759,759,759,759,759,759,761,763,765,766,768,769,769,770,771,771,771,771,771,771,771,771,771,771,771,771,772,773,773,773,773,773,773,773,773,773,773,773,773,773,773,773,773,773,773,773,773,773,773,773,773,773,773,773,773,773,773,773,773,771,768,766,764,763,760,756,756,756,756,756,756,756,757,759,768,770,772,772,772,766,757,757,757,757,764,773,783,806,838,916,982,1009,1035,1119,1151,1215,1230,1233,1234,1234,1234,1234,1234,1234,1232,1229,1225,1223,1220,1215,1214,1213,1212,1211,1206,1199,1190,1181,1172,1167,1157],"ymouse":[608,608,608,607,607,607,607,607,607,607,607,607,607,607,606,606,606,605,604,603,603,603,603,603,603,601,597,595,592,591,591,591,591,591,591,591,591,590,589,588,588,588,588,588,588,589,590,591,593,594,596,596,596,596,596,596,595,593,591,590,590,590,590,590,590,590,590,590,590,589,586,585,584,582,578,576,575,574,573,543,530,491,451,411,359,333,327,323,318,305,292,277,253,227,148,84,54,25,0,0,0,0,0,0,0,0,0,3,6,12,15,17,18,19,20,20,20,21,21,21,24,30,38,47,52,64],"timestamp_mouse":[14,43,53,74,92,114,134,153,174,193,213,233,253,273,293,314,334,353,374,393,414,434,452,474,493,514,533,553,574,593,614,633,654,674,693,714,734,753,774,794,813,834,852,874,893,913,933,953,974,993,1014,1033,1053,1073,1092,1114,1133,1154,1174,1193,1214,1233,1254,1274,1293,1313,1334,1353,1373,1393,1414,1434,1454,1474,1493,1512,1534,1553,1573,1593,1614,1633,1653,1674,1694,1713,1733,1754,1773,1793,1813,1833,1854,1873,1893,1913,1934,1953,1974,1994,2013,2033,2053,2073,2092,2112,2133,2153,2173,2193,2213,2233,2253,2273,2294,2314,2332,2352,2373,2392,2413,2434,2453,2474,2492,2512],"xSR":741.5,"ySR":573.95,"xT1":424.9,"yT1":0,"xT2":1058.1,"yT2":0,"toosoon":0,"cond_shown":"randomdotsizeEA","ratio_trial":750,"smaller_num":"15","larger_num":"20","correct_side":2,"subjID":"jintitaashiilaverdediaz2","gender":"0","age":"10","school":"6"},{"start_time":1551881763988,"click_time":1551881764840,"finger_time":1551881764442,"fix_duration":1085.9323861383289,"trial":49,"RT":454,"MT":398,"sideResp":1,"stimulus":"img/250/equaldotsize/L/2_Ratio_250_L_16_R_4.png","xmouse":[822,822,822,822,820,818,815,814,813,813,812,812,811,811,811,811,811,811,809,807,802,791,777,770,763,760,755,750,747,739,736,726,698,656,626,594,573,540,520,504,494,476,475],"ymouse":[621,621,620,620,619,618,616,616,615,615,615,615,615,615,615,615,615,615,613,611,604,579,552,540,527,515,506,501,495,487,482,469,438,401,376,355,333,286,254,219,188,118,97],"timestamp_mouse":[14,34,52,74,93,113,134,154,174,193,214,233,254,273,293,312,334,353,373,393,413,433,454,472,492,514,533,552,573,594,613,633,653,673,693,713,732,753,773,794,814,833,852],"xSR":741.5,"ySR":573.95,"xT1":424.9,"yT1":0,"xT2":1058.1,"yT2":0,"toosoon":0,"cond_shown":"equaldotsize","ratio_trial":250,"smaller_num":"4","larger_num":"16","correct_side":1,"subjID":"jintitaashiilaverdediaz2","gender":"0","age":"10","school":"6"},{"start_time":1551881767317,"click_time":1551881768821,"finger_time":1551881767941,"fix_duration":495.2946277366619,"trial":50,"RT":624,"MT":880,"sideResp":1,"stimulus":"img/900/randomdotsizeEA/R/5_Ratio_900_L_9_R_10.png","xmouse":[760,760,760,760,760,760,760,760,760,760,760,759,759,759,759,759,759,759,759,759,759,759,759,759,759,759,759,758,754,752,742,737,737,737,737,737,737,737,737,737,737,737,737,737,737,744,750,758,760,762,775,782,793,802,813,830,839,854,860,863,872,875,876,876,876,874,867,843,821,786,726,698,653,599,554,483],"ymouse":[621,621,621,621,621,621,621,620,620,620,619,619,619,619,619,619,619,619,619,619,619,619,619,619,619,619,619,618,613,606,590,584,582,582,582,582,582,582,582,582,582,582,582,582,581,575,569,562,557,554,540,531,516,503,486,448,429,401,383,377,353,348,342,338,334,329,327,320,312,302,258,228,181,130,94,42],"timestamp_mouse":[10,37,44,65,84,104,123,144,164,184,204,225,245,264,285,304,325,344,364,384,404,424,445,464,484,504,524,545,564,585,604,624,645,664,684,704,724,744,763,785,805,823,844,865,884,905,925,944,964,985,1004,1025,1044,1064,1084,1104,1123,1143,1164,1183,1204,1223,1244,1264,1284,1304,1324,1344,1364,1384,1404,1424,1444,1464,1483,1504],"xSR":741.5,"ySR":573.95,"xT1":424.9,"yT1":0,"xT2":1058.1,"yT2":0,"toosoon":0,"cond_shown":"randomdotsizeEA","ratio_trial":900,"smaller_num":"9","larger_num":"10","correct_side":2,"subjID":"jintitaashiilaverdediaz2","gender":"0","age":"10","school":"6"},{"start_time":1551881771986,"click_time":1551881774442,"finger_time":1551881773821,"fix_duration":724.3077612797817,"trial":51,"RT":1835,"MT":621,"sideResp":2,"stimulus":"img/900/equaldotanddens/R/3_Ratio_900_L_9_R_10.png","xmouse":[789,789,789,789,789,789,789,789,789,789,789,789,789,789,789,789,789,789,789,789,789,789,789,789,789,789,788,788,788,788,788,788,788,788,788,788,791,797,800,803,806,810,810,810,810,810,810,810,810,810,810,810,810,810,810,810,810,810,810,810,810,810,810,810,810,810,810,810,810,810,810,810,810,810,810,810,810,808,807,807,807,807,807,807,807,807,807,807,807,807,807,810,821,834,848,867,906,925,943,955,959,962,964,974,986,999,1010,1021,1023,1027,1030,1031,1033,1036,1038,1038,1040,1042,1045,1049,1053,1056,1059],"ymouse":[632,632,632,632,632,632,632,632,632,632,632,632,632,632,632,632,632,632,632,632,632,632,632,632,632,633,633,633,633,633,633,633,633,633,631,625,618,608,604,599,596,593,593,592,592,592,592,592,592,592,592,592,592,592,592,592,592,592,593,594,594,594,594,594,594,594,594,594,594,594,594,594,594,594,