[{"start_time":1551801158901,"click_time":1551801164971,"finger_time":1551801164710,"fix_duration":366.439174996582,"trial":0,"RT":5809,"MT":261,"sideResp":2,"stimulus":"img/750/equaldotanddens/R/15_Ratio_750_L_9_R_12.png","xmouse":[777,777,777,777,777,777,777,777,777,777,777,777,777,777,777,777,777,777,777,777,777,777,777,777,777,777,777,777,777,777,777,777,777,777,777,777,777,777,777,777,777,777,777,777,777,777,777,777,777,777,777,777,777,777,777,777,777,777,777,777,777,777,777,777,777,777,777,777,777,777,777,777,777,777,777,777,777,777,777,777,777,777,777,777,777,777,777,777,777,777,777,777,777,777,777,777,777,777,777,777,777,777,777,777,777,777,777,777,777,777,777,777,777,777,777,777,777,777,777,777,777,777,777,777,777,777,777,777,777,777,777,777,777,777,777,777,777,777,777,777,777,777,777,777,777,777,777,777,777,777,777,777,777,777,777,777,777,777,777,777,777,777,777,777,777,777,777,777,777,777,777,777,777,777,777,777,777,777,777,777,777,777,777,777,777,777,777,777,777,777,777,777,777,777,777,777,777,777,777,777,777,777,777,777,777,777,777,777,777,777,777,777,777,777,777,777,777,777,777,777,777,777,777,777,777,777,777,777,777,777,777,777,777,777,777,777,777,777,777,777,777,777,777,777,777,777,777,777,777,777,777,777,777,777,777,777,777,777,777,777,777,777,777,777,777,777,777,777,777,777,777,777,777,777,777,777,777,777,777,777,777,777,777,777,777,777,777,786,804,840,920,948,986,994,1009,1023,1030,1032,1038,1042,1046,1053,1058,1059],"ymouse":[519,519,519,519,519,519,519,519,519,519,519,519,519,519,519,519,519,519,519,519,519,519,519,519,519,519,519,519,519,519,519,519,519,519,519,519,519,519,519,519,519,519,519,519,519,519,519,519,519,519,519,519,519,519,519,519,519,519,519,519,519,519,519,519,519,519,519,519,519,519,519,519,519,519,519,519,519,519,519,519,519,519,519,519,519,519,519,519,519,519,519,519,519,519,519,519,519,519,519,519,519,519,519,519,519,519,519,519,519,519,519,519,519,519,519,519,519,519,519,519,519,519,519,519,519,519,519,519,519,519,519,519,519,519,519,519,519,519,519,519,519,519,519,519,519,519,519,519,519,519,519,519,519,519,519,519,519,519,519,519,519,519,519,519,519,519,519,519,519,519,519,519,519,519,519,519,519,519,519,519,519,519,519,519,519,519,519,519,519,519,519,519,519,519,519,519,519,519,519,519,519,519,519,519,519,519,519,519,519,519,519,519,519,519,519,519,519,519,519,519,519,519,519,519,519,519,519,519,519,519,519,519,519,519,519,519,519,519,519,519,519,519,519,519,519,519,519,519,519,519,519,519,519,519,519,519,519,519,519,519,519,519,519,519,519,519,519,519,519,519,519,519,519,519,519,519,519,519,519,519,519,519,519,519,519,519,519,513,497,460,348,290,198,182,154,130,120,113,104,96,87,76,70,69],"timestamp_mouse":[9,43,49,69,90,109,129,150,170,190,209,229,249,270,289,309,330,350,369,390,409,429,450,469,490,509,529,549,569,589,609,630,649,670,690,709,730,749,770,790,810,830,850,869,889,909,929,950,969,989,1010,1030,1050,1070,1089,1109,1130,1150,1169,1189,1209,1230,1250,1270,1290,1309,1330,1349,1369,1389,1409,1429,1450,1469,1489,1509,1529,1549,1570,1590,1609,1629,1649,1670,1690,1709,1730,1749,1769,1790,1809,1830,1850,1870,1890,1909,1930,1950,1970,1989,2009,2029,2050,2070,2089,2109,2130,2149,2170,2190,2209,2229,2249,2270,2289,2309,2329,2349,2369,2389,2410,2429,2450,2469,2489,2509,2529,2550,2570,2589,2609,2630,2649,2670,2690,2709,2729,2749,2769,2790,2809,2829,2850,2869,2889,2909,2929,2950,2970,2989,3010,3030,3049,3069,3089,3109,3129,3149,3169,3189,3210,3229,3248,3269,3289,3309,3330,3350,3369,3390,3409,3429,3450,3469,3489,3509,3529,3550,3570,3589,3609,3630,3649,3670,3689,3709,3729,3750,3769,3789,3809,3829,3849,3870,3890,3909,3929,3949,3970,3989,4009,4029,4049,4069,4089,4109,4129,4149,4169,4190,4210,4230,4250,4269,4289,4309,4329,4349,4369,4389,4409,4429,4450,4469,4489,4509,4529,4549,4569,4589,4609,4629,4650,4670,4690,4709,4730,4749,4770,4789,4809,4830,4850,4869,4889,4909,4929,4950,4969,4990,5009,5030,5050,5070,5089,5109,5130,5150,5169,5190,5209,5229,5250,5269,5289,5309,5329,5349,5369,5389,5409,5429,5450,5469,5490,5509,5530,5549,5569,5589,5610,5629,5649,5669,5690,5709,5729,5748,5770,5790,5809,5829,5850,5869,5890,5909,5930,5950,5969,5989,6009,6030,6050,6070],"xSR":741.5,"ySR":449.15000000000003,"xT1":424.9,"yT1":0,"xT2":1058.1,"yT2":0,"toosoon":0,"cond_shown":"equaldotanddens","ratio_trial":750,"smaller_num":"9","larger_num":"12","correct_side":2,"subjID":"JoanEstebanSeguraGuzman4","gender":"0","age":"12","school":"6","test":{"fix_dur":[250,1500],"timestim":300,"targets_dim":[100,100],"targets_relative_coord":[0.3,0.7],"size_stim":[880,420],"start_dim":[100,100],"size_start":[300,300],"size_fix":60,"samplingrate":20,"img_types":["equaldotsize","equaldotanddens","randomdotsizeEA"],"ratios":[250,500,750,900],"rep_conds":9,"nTrials":120,"trials_to_rest":500,"Trials_order":[79,18,7,8,50,66,93,81,4,107,72,104,43,78,89,118,31,45,62,101,100,68,94,76,83,85,33,103,110,87,6,32,54,28,10,91,57,69,47,70,1,49,9,13,22,38,75,97,116,111,15,37,14,36,30,5,16,25,73,114,26,11,2,74,90,115,61,96,41,23,99,55,3,29,98,113,51,59,17,46,24,52,21,44,63,80,95,48,58,102,34,105,40,42,56,77,67,108,117,71,119,19,27,84,112,20,88,12,35,82,106,53,60,65,86,92,64,109,39,0],"cond_shown":["equaldotanddens","equaldotsize","equaldotanddens","randomdotsizeEA","randomdotsizeEA","equaldotsize","equaldotsize","equaldotsize","equaldotanddens","randomdotsizeEA","equaldotsize","randomdotsizeEA","equaldotanddens","equaldotsize","randomdotsizeEA","equaldotanddens","equaldotanddens","equaldotsize","randomdotsizeEA","randomdotsizeEA","equaldotanddens","randomdotsizeEA","equaldotanddens","equaldotanddens","randomdotsizeEA","equaldotanddens","equaldotsize","equaldotanddens","randomdotsizeEA","equaldotsize","equaldotsize","randomdotsizeEA","equaldotsize","equaldotanddens","equaldotanddens","equaldotanddens","equaldotsize","equaldotsize","randomdotsizeEA","equaldotanddens","equaldotanddens","equaldotanddens","equaldotsize","equaldotanddens","equaldotanddens","randomdotsizeEA","equaldotsize","equaldotanddens","randomdotsizeEA","equaldotsize","equaldotsize","equaldotanddens","randomdotsizeEA","equaldotsize","equaldotsize","randomdotsizeEA","equaldotanddens","equaldotanddens","equaldotanddens","equaldotsize","randomdotsizeEA","randomdotsizeEA","randomdotsizeEA","randomdotsizeEA","equaldotsize","equaldotanddens","equaldotanddens","equaldotsize","randomdotsizeEA","randomdotsizeEA","equaldotsize","equaldotanddens","equaldotsize","randomdotsizeEA","randomdotsizeEA","randomdotsizeEA","equaldotsize","randomdotsizeEA","randomdotsizeEA","equaldotanddens","equaldotsize","equaldotanddens","equaldotsize","randomdotsizeEA","equaldotsize","randomdotsizeEA","randomdotsizeEA","equaldotsize","equaldotanddens","equaldotsize","equaldotanddens","equaldotsize","equaldotanddens","equaldotsize","randomdotsizeEA","randomdotsizeEA","equaldotanddens","equaldotsize","equaldotsize","randomdotsizeEA","randomdotsizeEA","equaldotanddens","equaldotsize","equaldotsize","equaldotanddens","randomdotsizeEA","equaldotanddens","equaldotsize","randomdotsizeEA","equaldotanddens","equaldotanddens","randomdotsizeEA","equaldotsize","randomdotsizeEA","randomdotsizeEA","randomdotsizeEA","equaldotanddens","equaldotanddens","equaldotsize","equaldotsize"],"ratio_trial":[750,750,750,750,250,750,900,900,500,900,250,750,750,750,500,900,750,900,250,500,500,750,900,500,900,250,900,750,250,500,750,750,750,500,900,750,900,900,900,900,250,250,900,250,900,250,500,250,750,500,500,250,250,250,750,500,500,250,250,750,250,900,250,250,750,750,250,250,500,900,500,750,500,500,250,500,500,900,500,900,250,500,900,750,500,750,900,250,900,750,900,900,500,750,750,500,750,250,900,900,900,750,500,250,500,750,500,250,900,900,900,500,250,500,250,750,500,250,500,250],"smaller_num":["9","12","3","18","4","12","18","18","1","18","3","15","3","9","2","18","15","18","3","9","2","3","18","6","18","3","18","18","2","5","12","9","6","2","18","3","9","18","18","9","3","4","18","3","18","2","3","4","6","1","9","6","4","6","6","1","2","1","5","6","3","9","3","3","3","3","2","4","2","18","1","6","2","5","1","6","6","9","1","18","3","1","9","6","9","18","9","6","18","18","18","18","9","3","6","10","15","3","18","18","18","15","9","2","2","3","2","6","18","18","18","9","1","6","2","3","3","3","3","2"],"larger_num":["12","16","4","24","16","16","20","20","2","20","12","20","4","12","4","20","20","20","12","18","4","4","20","12","20","12","20","24","8","10","16","12","8","4","20","4","10","20","20","10","12","16","20","12","20","8","6","16","8","2","18","24","16","24","8","2","4","4","20","8","12","10","12","12","4","4","8","16","4","20","2","8","4","10","4","12","12","10","2","20","12","2","10","8","18","24","10","24","20","24","20","20","18","4","8","20","20","12","20","20","20","20","18","8","4","4","4","24","20","20","20","18","4","12","8","4","6","12","6","8"],"correct_side":[2,2,1,1,2,2,1,1,2,1,2,2,2,2,1,1,2,1,2,1,1,1,1,1,1,1,1,1,1,1,2,2,1,1,2,2,1,2,2,1,1,2,1,2,2,1,2,1,1,2,2,1,2,1,2,2,1,2,2,2,1,1,1,2,2,1,2,1,1,2,2,1,1,1,2,1,1,1,2,1,1,2,2,2,2,1,2,2,1,1,1,1,2,2,1,2,1,2,2,2,2,1,2,1,1,1,2,2,1,2,1,2,2,1,1,2,2,2,2,1],"img_shown":["img/750/equaldotanddens/R/15_Ratio_750_L_9_R_12.png","img/750/equaldotsize/R/11_Ratio_750_L_12_R_16.png","img/750/equaldotanddens/L/8_Ratio_750_L_4_R_3.png","img/750/randomdotsizeEA/L/6_Ratio_750_L_24_R_18.png","img/250/randomdotsizeEA/R/10_Ratio_250_L_4_R_16.png","img/750/equaldotsize/R/11_Ratio_750_L_12_R_16.png","img/900/equaldotsize/L/10_Ratio_900_L_20_R_18.png","img/900/equaldotsize/L/10_Ratio_900_L_20_R_18.png","img/500/equaldotanddens/R/12_Ratio_500_L_1_R_2.png","img/900/randomdotsizeEA/L/2_Ratio_900_L_20_R_18.png","img/250/equaldotsize/R/9_Ratio_250_L_3_R_12.png","img/750/randomdotsizeEA/R/3_Ratio_750_L_15_R_20.png","img/750/equaldotanddens/R/12_Ratio_750_L_3_R_4.png","img/750/equaldotsize/R/15_Ratio_750_L_9_R_12.png","img/500/randomdotsizeEA/L/10_Ratio_500_L_4_R_2.png","img/900/equaldotanddens/L/4_Ratio_900_L_20_R_18.png","img/750/equaldotanddens/R/5_Ratio_750_L_15_R_20.png","img/900/equaldotsize/L/2_Ratio_900_L_20_R_18.png","img/250/randomdotsizeEA/R/4_Ratio_250_L_3_R_12.png","img/500/randomdotsizeEA/L/4_Ratio_500_L_18_R_9.png","img/500/equaldotanddens/L/10_Ratio_500_L_4_R_2.png","img/750/randomdotsizeEA/L/8_Ratio_750_L_4_R_3.png","img/900/equaldotanddens/L/4_Ratio_900_L_20_R_18.png","img/500/equaldotanddens/L/13_Ratio_500_L_12_R_6.png","img/900/randomdotsizeEA/L/8_Ratio_900_L_20_R_18.png","img/250/equaldotanddens/L/15_Ratio_250_L_12_R_3.png","img/900/equaldotsize/L/4_Ratio_900_L_20_R_18.png","img/750/equaldotanddens/L/6_Ratio_750_L_24_R_18.png","img/250/randomdotsizeEA/L/3_Ratio_250_L_8_R_2.png","img/500/equaldotsize/L/7_Ratio_500_L_10_R_5.png","img/750/equaldotsize/R/11_Ratio_750_L_12_R_16.png","img/750/randomdotsizeEA/R/15_Ratio_750_L_9_R_12.png","img/750/equaldotsize/L/14_Ratio_750_L_8_R_6.png","img/500/equaldotanddens/L/5_Ratio_500_L_4_R_2.png","img/900/equaldotanddens/R/13_Ratio_900_L_18_R_20.png","img/750/equaldotanddens/R/7_Ratio_750_L_3_R_4.png","img/900/equaldotsize/L/1_Ratio_900_L_10_R_9.png","img/900/equaldotsize/R/9_Ratio_900_L_18_R_20.png","img/900/randomdotsizeEA/R/11_Ratio_900_L_18_R_20.png","img/900/equaldotanddens/L/1_Ratio_900_L_10_R_9.png","img/250/equaldotanddens/L/14_Ratio_250_L_12_R_3.png","img/250/equaldotanddens/R/10_Ratio_250_L_4_R_16.png","img/900/equaldotsize/L/2_Ratio_900_L_20_R_18.png","img/250/equaldotanddens/R/9_Ratio_250_L_3_R_12.png","img/900/equaldotanddens/R/9_Ratio_900_L_18_R_20.png","img/250/randomdotsizeEA/L/7_Ratio_250_L_8_R_2.png","img/500/equaldotsize/R/2_Ratio_500_L_3_R_6.png","img/250/equaldotanddens/L/2_Ratio_250_L_16_R_4.png","img/750/randomdotsizeEA/L/13_Ratio_750_L_8_R_6.png","img/500/equaldotsize/R/12_Ratio_500_L_1_R_2.png","img/500/equaldotsize/R/6_Ratio_500_L_9_R_18.png","img/250/equaldotanddens/L/5_Ratio_250_L_24_R_6.png","img/250/randomdotsizeEA/R/10_Ratio_250_L_4_R_16.png","img/250/equaldotsize/L/5_Ratio_250_L_24_R_6.png","img/750/equaldotsize/R/2_Ratio_750_L_6_R_8.png","img/500/randomdotsizeEA/R/15_Ratio_500_L_1_R_2.png","img/500/equaldotanddens/L/5_Ratio_500_L_4_R_2.png","img/250/equaldotanddens/R/8_Ratio_250_L_1_R_4.png","img/250/equaldotanddens/R/12_Ratio_250_L_5_R_20.png","img/750/equaldotsize/R/2_Ratio_750_L_6_R_8.png","img/250/randomdotsizeEA/L/15_Ratio_250_L_12_R_3.png","img/900/randomdotsizeEA/L/1_Ratio_900_L_10_R_9.png","img/250/randomdotsizeEA/L/15_Ratio_250_L_12_R_3.png","img/250/randomdotsizeEA/R/9_Ratio_250_L_3_R_12.png","img/750/equaldotsize/R/12_Ratio_750_L_3_R_4.png","img/750/equaldotanddens/L/10_Ratio_750_L_4_R_3.png","img/250/equaldotanddens/R/13_Ratio_250_L_2_R_8.png","img/250/equaldotsize/L/2_Ratio_250_L_16_R_4.png","img/500/randomdotsizeEA/L/5_Ratio_500_L_4_R_2.png","img/900/randomdotsizeEA/R/14_Ratio_900_L_18_R_20.png","img/500/equaldotsize/R/15_Ratio_500_L_1_R_2.png","img/750/equaldotanddens/L/13_Ratio_750_L_8_R_6.png","img/500/equaldotsize/L/10_Ratio_500_L_4_R_2.png","img/500/randomdotsizeEA/L/7_Ratio_500_L_10_R_5.png","img/250/randomdotsizeEA/R/8_Ratio_250_L_1_R_4.png","img/500/randomdotsizeEA/L/13_Ratio_500_L_12_R_6.png","img/500/equaldotsize/L/13_Ratio_500_L_12_R_6.png","img/900/randomdotsizeEA/L/1_Ratio_900_L_10_R_9.png","img/500/randomdotsizeEA/R/15_Ratio_500_L_1_R_2.png","img/900/equaldotanddens/L/8_Ratio_900_L_20_R_18.png","img/250/equaldotsize/L/15_Ratio_250_L_12_R_3.png","img/500/equaldotanddens/R/12_Ratio_500_L_1_R_2.png","img/900/equaldotsize/R/7_Ratio_900_L_9_R_10.png","img/750/randomdotsizeEA/R/2_Ratio_750_L_6_R_8.png","img/500/equaldotsize/R/1_Ratio_500_L_9_R_18.png","img/750/randomdotsizeEA/L/6_Ratio_750_L_24_R_18.png","img/900/randomdotsizeEA/R/3_Ratio_900_L_9_R_10.png","img/250/equaldotsize/R/6_Ratio_250_L_6_R_24.png","img/900/equaldotanddens/L/4_Ratio_900_L_20_R_18.png","img/750/equaldotsize/L/6_Ratio_750_L_24_R_18.png","img/900/equaldotanddens/L/10_Ratio_900_L_20_R_18.png","img/900/equaldotsize/L/4_Ratio_900_L_20_R_18.png","img/500/equaldotanddens/R/1_Ratio_500_L_9_R_18.png","img/750/equaldotsize/R/7_Ratio_750_L_3_R_4.png","img/750/randomdotsizeEA/L/14_Ratio_750_L_8_R_6.png","img/500/randomdotsizeEA/R/3_Ratio_500_L_10_R_20.png","img/750/equaldotanddens/L/1_Ratio_750_L_20_R_15.png","img/250/equaldotsize/R/9_Ratio_250_L_3_R_12.png","img/900/equaldotsize/R/14_Ratio_900_L_18_R_20.png","img/900/randomdotsizeEA/R/13_Ratio_900_L_18_R_20.png","img/900/randomdotsizeEA/R/9_Ratio_900_L_18_R_20.png","img/750/equaldotanddens/L/1_Ratio_750_L_20_R_15.png","img/500/equaldotsize/R/1_Ratio_500_L_9_R_18.png","img/250/equaldotsize/L/3_Ratio_250_L_8_R_2.png","img/500/equaldotanddens/L/5_Ratio_500_L_4_R_2.png","img/750/randomdotsizeEA/L/8_Ratio_750_L_4_R_3.png","img/500/equaldotanddens/R/9_Ratio_500_L_2_R_4.png","img/250/equaldotsize/R/6_Ratio_250_L_6_R_24.png","img/900/randomdotsizeEA/L/2_Ratio_900_L_20_R_18.png","img/900/equaldotanddens/R/9_Ratio_900_L_18_R_20.png","img/900/equaldotanddens/L/2_Ratio_900_L_20_R_18.png","img/500/randomdotsizeEA/R/1_Ratio_500_L_9_R_18.png","img/250/equaldotsize/R/8_Ratio_250_L_1_R_4.png","img/500/randomdotsizeEA/L/11_Ratio_500_L_12_R_6.png","img/250/randomdotsizeEA/L/3_Ratio_250_L_8_R_2.png","img/750/randomdotsizeEA/R/12_Ratio_750_L_3_R_4.png","img/500/equaldotanddens/R/2_Ratio_500_L_3_R_6.png","img/250/equaldotanddens/R/9_Ratio_250_L_3_R_12.png","img/500/equaldotsize/R/2_Ratio_500_L_3_R_6.png","img/250/equaldotsize/L/1_Ratio_250_L_8_R_2.png"],"Rat0":[["12_Ratio_0_L_9_R_0.png","13_Ratio_0_L_6_R_0.png","5_Ratio_0_L_2_R_0.png","6_Ratio_0_L_4_R_0.png","8_Ratio_0_L_6_R_0.png"],["1_Ratio_0_L_0_R_17.png","10_Ratio_0_L_0_R_22.png","11_Ratio_0_L_0_R_1.png","14_Ratio_0_L_0_R_24.png","15_Ratio_0_L_0_R_4.png","2_Ratio_0_L_0_R_5.png","3_Ratio_0_L_0_R_17.png","4_Ratio_0_L_0_R_7.png","7_Ratio_0_L_0_R_19.png","9_Ratio_0_L_0_R_15.png"]],"Rat250":[["1_Ratio_250_L_8_R_2.png","14_Ratio_250_L_12_R_3.png","15_Ratio_250_L_12_R_3.png","2_Ratio_250_L_16_R_4.png","3_Ratio_250_L_8_R_2.png","5_Ratio_250_L_24_R_6.png","7_Ratio_250_L_8_R_2.png"],["10_Ratio_250_L_4_R_16.png","11_Ratio_250_L_3_R_12.png","12_Ratio_250_L_5_R_20.png","13_Ratio_250_L_2_R_8.png","4_Ratio_250_L_3_R_12.png","6_Ratio_250_L_6_R_24.png","8_Ratio_250_L_1_R_4.png","9_Ratio_250_L_3_R_12.png"]],"Rat500":[["10_Ratio_500_L_4_R_2.png","11_Ratio_500_L_12_R_6.png","13_Ratio_500_L_12_R_6.png","4_Ratio_500_L_18_R_9.png","5_Ratio_500_L_4_R_2.png","7_Ratio_500_L_10_R_5.png","8_Ratio_500_L_8_R_4.png"],["1_Ratio_500_L_9_R_18.png","12_Ratio_500_L_1_R_2.png","14_Ratio_500_L_5_R_10.png","15_Ratio_500_L_1_R_2.png","2_Ratio_500_L_3_R_6.png","3_Ratio_500_L_10_R_20.png","6_Ratio_500_L_9_R_18.png","9_Ratio_500_L_2_R_4.png"]],"Rat750":[["1_Ratio_750_L_20_R_15.png","10_Ratio_750_L_4_R_3.png","13_Ratio_750_L_8_R_6.png","14_Ratio_750_L_8_R_6.png","6_Ratio_750_L_24_R_18.png","8_Ratio_750_L_4_R_3.png","9_Ratio_750_L_4_R_3.png"],["11_Ratio_750_L_12_R_16.png","12_Ratio_750_L_3_R_4.png","15_Ratio_750_L_9_R_12.png","2_Ratio_750_L_6_R_8.png","3_Ratio_750_L_15_R_20.png","4_Ratio_750_L_15_R_20.png","5_Ratio_750_L_15_R_20.png","7_Ratio_750_L_3_R_4.png"]],"Rat900":[["1_Ratio_900_L_10_R_9.png","10_Ratio_900_L_20_R_18.png","2_Ratio_900_L_20_R_18.png","4_Ratio_900_L_20_R_18.png","8_Ratio_900_L_20_R_18.png"],["11_Ratio_900_L_18_R_20.png","12_Ratio_900_L_18_R_20.png","13_Ratio_900_L_18_R_20.png","14_Ratio_900_L_18_R_20.png","15_Ratio_900_L_9_R_10.png","3_Ratio_900_L_9_R_10.png","5_Ratio_900_L_9_R_10.png","6_Ratio_900_L_9_R_10.png","7_Ratio_900_L_9_R_10.png","9_Ratio_900_L_18_R_20.png"]],"Rat1000":[["10_Ratio_1000_L_16_R_16.png","11_Ratio_1000_L_6_R_6.png","12_Ratio_1000_L_14_R_14.png","13_Ratio_1000_L_20_R_20.png","15_Ratio_1000_L_15_R_15.png","2_Ratio_1000_L_17_R_17.png","4_Ratio_1000_L_9_R_9.png","5_Ratio_1000_L_6_R_6.png","6_Ratio_1000_L_19_R_19.png","8_Ratio_1000_L_14_R_14.png","9_Ratio_1000_L_25_R_25.png"],["1_Ratio_1000_L_1_R_1.png","14_Ratio_1000_L_17_R_17.png","3_Ratio_1000_L_17_R_17.png","7_Ratio_1000_L_6_R_6.png"]]}},{"start_time":1551801166483,"click_time":1551801167611,"finger_time":1551801167251,"fix_duration":492.59920090111933,"trial":1,"RT":768,"MT":360,"sideResp":1,"stimulus":"img/750/equaldotsize/R/11_Ratio_750_L_12_R_16.png","xmouse":[819,819,819,819,819,819,819,819,819,819,819,819,819,819,819,819,819,819,819,819,819,819,819,819,819,819,819,819,819,819,819,819,819,819,819,819,819,819,818,811,800,768,732,719,698,670,643,632,618,606,601,573,558,542,538,531,520],"ymouse":[471,471,471,471,471,471,471,471,471,471,471,471,471,471,471,471,471,471,471,471,471,471,471,471,471,471,471,471,471,471,471,471,471,471,471,471,468,459,443,429,410,368,331,318,297,270,244,232,213,197,186,152,131,105,99,89,71],"timestamp_mouse":[9,28,48,68,87,107,127,148,167,187,207,227,247,267,288,307,328,348,367,387,408,427,447,468,487,508,527,547,567,588,607,627,647,667,687,708,727,748,768,788,808,827,847,867,888,908,928,947,967,988,1007,1027,1047,1067,1087,1107,1127],"xSR":741.5,"ySR":449.15000000000003,"xT1":424.9,"yT1":0,"xT2":1058.1,"yT2":0,"toosoon":0,"cond_shown":"equaldotsize","ratio_trial":750,"smaller_num":"12","larger_num":"16","correct_side":2,"subjID":"JoanEstebanSeguraGuzman4","gender":"0","age":"12","school":"6"},{"start_time":1551801171338,"click_time":1551801172250,"finger_time":1551801171991,"fix_duration":1424.5093345105859,"trial":2,"RT":653,"MT":259,"sideResp":1,"stimulus":"img/750/equaldotanddens/L/8_Ratio_750_L_4_R_3.png","xmouse":[782,782,782,782,782,782,782,782,782,782,782,782,782,782,782,782,782,782,782,782,782,782,782,782,782,782,782,782,782,782,776,763,702,663,617,603,599,594,585,578,569,559,546,515,501,482],"ymouse":[485,485,485,485,485,485,485,485,485,485,485,485,485,485,485,485,485,485,485,485,485,485,485,485,485,485,485,485,485,485,477,460,375,322,262,246,240,228,213,203,191,177,163,126,104,79],"timestamp_mouse":[12,38,52,73,92,113,132,152,173,193,212,233,253,272,292,313,332,352,372,392,412,432,453,472,493,513,532,553,572,592,613,632,653,672,692,712,732,752,773,792,813,833,853,872,891,912],"xSR":741.5,"ySR":449.15000000000003,"xT1":424.9,"yT1":0,"xT2":1058.1,"yT2":0,"toosoon":0,"cond_shown":"equaldotanddens","ratio_trial":750,"smaller_num":"3","larger_num":"4","correct_side":1,"subjID":"JoanEstebanSeguraGuzman4","gender":"0","age":"12","school":"6"},{"start_time":1551801173816,"click_time":1551801174931,"finger_time":1551801174510,"fix_duration":723.8228669270012,"trial":3,"RT":694,"MT":421,"sideResp":2,"stimulus":"img/750/randomdotsizeEA/L/6_Ratio_750_L_24_R_18.png","xmouse":[791,791,791,791,791,791,791,791,791,791,791,791,791,791,791,791,791,791,791,791,791,791,791,791,791,791,791,791,791,791,791,791,796,799,820,846,867,911,940,973,985,998,1006,1015,1030,1037,1047,1049,1050,1050,1050,1050,1050,1052,1055,1060],"ymouse":[476,476,476,476,476,476,476,476,476,476,476,476,476,476,476,476,476,476,476,476,476,476,476,476,476,476,476,476,476,476,476,476,462,452,398,346,315,245,206,155,136,120,110,103,85,78,71,69,68,68,68,68,68,67,65,62],"timestamp_mouse":[14,34,54,75,95,115,134,154,174,194,214,235,255,275,294,314,334,354,374,394,415,435,454,475,494,514,535,555,575,594,615,634,654,674,694,714,735,755,774,794,814,834,855,874,894,914,934,954,974,994,1014,1035,1055,1074,1095,1115],"xSR":741.5,"ySR":449.15000000000003,"xT1":424.9,"yT1":0,"xT2":1058.1,"yT2":0,"toosoon":0,"cond_shown":"randomdotsizeEA","ratio_trial":750,"smaller_num":"18","larger_num":"24","correct_side":1,"subjID":"JoanEstebanSeguraGuzman4","gender":"0","age":"12","school":"6"},{"start_time":1551801176839,"click_time":1551801177790,"finger_time":1551801177431,"fix_duration":307.10573283912225,"trial":4,"RT":592,"MT":359,"sideResp":1,"stimulus":"img/250/randomdotsizeEA/R/10_Ratio_250_L_4_R_16.png","xmouse":[795,795,795,795,795,795,795,795,795,795,795,795,795,795,795,795,795,795,795,795,795,795,795,795,795,795,795,795,774,710,665,629,607,566,556,548,535,532,523,518,518,518,518,518,518,518,518,516],"ymouse":[484,484,484,484,484,484,484,484,484,484,484,484,484,484,484,484,484,484,484,484,484,484,484,484,484,484,484,484,455,378,331,290,263,180,161,143,121,115,105,100,100,100,100,100,100,100,100,97],"timestamp_mouse":[11,38,51,72,91,112,131,151,171,191,211,232,252,271,291,311,332,351,371,391,411,431,451,471,492,511,532,552,571,592,611,631,651,672,691,711,732,752,771,791,811,832,851,872,892,911,932,951],"xSR":741.5,"ySR":449.15000000000003,"xT1":424.9,"yT1":0,"xT2":1058.1,"yT2":0,"toosoon":0,"cond_shown":"randomdotsizeEA","ratio_trial":250,"smaller_num":"4","larger_num":"16","correct_side":2,"subjID":"JoanEstebanSeguraGuzman4","gender":"0","age":"12","school":"6"},{"start_time":1551801178982,"click_time":1551801179910,"finger_time":1551801179631,"fix_duration":250,"trial":5,"RT":649,"MT":279,"sideResp":1,"stimulus":"img/750/equaldotsize/R/11_Ratio_750_L_12_R_16.png","xmouse":[801,801,801,801,801,801,801,801,801,801,801,801,801,801,801,801,801,801,801,801,801,801,801,801,801,801,801,801,801,801,801,760,711,663,637,630,614,612,612,612,611,606,592,579,559,528,468],"ymouse":[515,515,515,515,515,515,515,515,515,515,515,515,515,515,515,515,515,515,515,515,515,515,515,515,515,515,515,515,515,515,509,457,393,332,297,291,273,271,271,270,264,253,224,208,185,150,78],"timestamp_mouse":[10,31,48,68,88,108,128,148,169,188,209,228,248,269,288,308,328,349,368,389,409,428,448,468,488,508,528,548,568,588,609,628,649,668,688,708,729,748,768,789,809,828,849,868,889,908,928],"xSR":741.5,"ySR":449.15000000000003,"xT1":424.9,"yT1":0,"xT2":1058.1,"yT2":0,"toosoon":0,"cond_shown":"equaldotsize","ratio_trial":750,"smaller_num":"12","larger_num":"16","correct_side":2,"subjID":"JoanEstebanSeguraGuzman4","gender":"0","age":"12","school":"6"},{"start_time":1551801181461,"click_time":1551801182331,"finger_time":1551801181951,"fix_duration":250,"trial":6,"RT":490,"MT":380,"sideResp":1,"stimulus":"img/900/equaldotsize/L/10_Ratio_900_L_20_R_18.png","xmouse":[818,818,818,818,818,818,818,818,818,818,818,818,818,818,818,818,818,818,818,818,818,818,818,818,819,819,813,781,745,712,662,630,571,556,552,551,551,551,550,547,543,537,530,524],"ymouse":[498,498,498,498,498,498,498,498,498,498,498,498,498,498,498,498,498,498,498,498,494,491,468,460,449,444,425,388,352,330,295,267,178,128,112,109,109,108,101,89,76,62,51,47],"timestamp_mouse":[10,34,50,69,89,109,129,149,170,189,209,229,249,269,290,309,330,349,370,389,409,430,451,470,490,509,530,549,569,589,609,629,649,670,689,710,730,749,769,789,810,829,849,870],"xSR":741.5,"ySR":449.15000000000003,"xT1":424.9,"yT1":0,"xT2":1058.1,"yT2":0,"toosoon":0,"cond_shown":"equaldotsize","ratio_trial":900,"smaller_num":"18","larger_num":"20","correct_side":1,"subjID":"JoanEstebanSeguraGuzman4","gender":"0","age":"12","school":"6"},{"start_time":1551801183567,"click_time":1551801184290,"finger_time":1551801184030,"fix_duration":275.36865251141376,"trial":7,"RT":463,"MT":260,"sideResp":1,"stimulus":"img/900/equaldotsize/L/10_Ratio_900_L_20_R_18.png","xmouse":[787,787,787,787,787,787,787,787,787,787,787,787,787,787,787,787,787,787,787,787,787,787,787,769,744,722,706,680,660,653,633,624,582,565,542,524,505],"ymouse":[477,477,477,477,477,477,477,477,477,477,477,477,477,477,477,477,477,477,477,477,477,474,462,388,333,298,277,242,217,208,185,176,146,133,117,104,90],"timestamp_mouse":[7,24,44,63,83,104,124,143,163,183,203,223,243,263,283,304,324,343,363,383,403,423,443,463,484,503,523,543,563,583,603,624,643,663,683,704,723],"xSR":741.5,"ySR":449.15000000000003,"xT1":424.9,"yT1":0,"xT2":1058.1,"yT2":0,"toosoon":0,"cond_shown":"equaldotsize","ratio_trial":900,"smaller_num":"18","larger_num":"20","correct_side":1,"subjID":"JoanEstebanSeguraGuzman4","gender":"0","age":"12","school":"6"},{"start_time":1551801185423,"click_time":1551801186450,"finger_time":1551801185770,"fix_duration":511.53004966340984,"trial":8,"RT":347,"MT":680,"sideResp":2,"stimulus":"img/500/equaldotanddens/R/12_Ratio_500_L_1_R_2.png","xmouse":[811,811,811,811,811,811,811,811,811,811,811,811,811,811,811,806,806,806,802,794,791,790,788,792,844,888,920,939,960,973,993,997,1007,1010,1023,1025,1025,1025,1025,1025,1025,1025,1025,1025,1025,1025,1034,1044,1052,1066,1069,1073],"ymouse":[493,493,493,493,493,493,493,493,493,493,493,493,493,493,493,483,465,442,428,403,386,363,347,328,259,220,203,197,187,182,174,171,166,164,157,155,155,155,155,155,155,155,155,155,155,152,142,134,125,107,103,98],"timestamp_mouse":[7,27,47,67,87,107,128,147,167,187,208,227,247,268,287,306,328,347,368,387,407,427,448,467,488,507,527,547,568,587,607,627,647,667,688,708,727,747,768,788,807,827,848,868,887,907,926,947,967,987,1007,1027],"xSR":741.5,"ySR":449.15000000000003,"xT1":424.9,"yT1":0,"xT2":1058.1,"yT2":0,"toosoon":0,"cond_shown":"equaldotanddens","ratio_trial":500,"smaller_num":"1","larger_num":"2","correct_side":2,"subjID":"JoanEstebanSeguraGuzman4","gender":"0","age":"12","school":"6"},{"start_time":1551801188596,"click_time":1551801189310,"finger_time":1551801189031,"fix_duration":1463.5535183774791,"trial":9,"RT":435,"MT":279,"sideResp":1,"stimulus":"img/900/randomdotsizeEA/L/2_Ratio_900_L_20_R_18.png","xmouse":[802,802,802,802,802,802,802,802,802,802,802,802,802,802,802,802,802,802,802,800,762,724,678,634,600,563,549,537,518,506,475,463,450,442,438,433],"ymouse":[493,493,493,493,493,493,493,493,493,493,493,493,493,493,493,493,493,493,493,493,451,411,365,320,286,246,232,217,196,184,155,142,129,116,106,86],"timestamp_mouse":[14,34,55,74,95,115,135,154,174,195,214,234,254,274,295,314,335,354,375,394,414,435,454,475,495,514,535,554,575,595,614,634,654,675,694,714],"xSR":741.5,"ySR":449.15000000000003,"xT1":424.9,"yT1":0,"xT2":1058.1,"yT2":0,"toosoon":0,"cond_shown":"randomdotsizeEA","ratio_trial":900,"smaller_num":"18","larger_num":"20","correct_side":1,"subjID":"JoanEstebanSeguraGuzman4","gender":"0","age":"12","school":"6"},{"start_time":1551801191191,"click_time":1551801192330,"finger_time":1551801191590,"fix_duration":998.8188778459703,"trial":10,"RT":399,"MT":740,"sideResp":2,"stimulus":"img/250/equaldotsize/R/9_Ratio_250_L_3_R_12.png","xmouse":[794,794,794,794,794,794,794,794,794,794,794,794,794,794,794,794,794,794,794,794,809,878,906,914,926,931,933,936,939,945,948,956,958,960,965,969,974,978,978,979,979,979,979,979,979,979,979,979,979,979,981,1004,1053,1067,1077,1084,1089,1095],"ymouse":[491,491,491,491,491,491,491,491,491,491,491,491,491,491,491,491,491,491,491,490,442,320,307,295,283,274,267,257,254,240,232,223,213,204,193,184,178,177,177,177,177,177,177,177,177,177,177,177,177,177,177,167,140,129,122,114,105,91],"timestamp_mouse":[1,33,40,59,80,99,119,140,160,179,199,219,239,259,279,300,320,339,359,380,399,419,439,459,479,500,519,540,559,579,599,619,639,659,680,699,719,739,759,780,799,819,840,860,880,900,919,939,959,980,999,1019,1040,1059,1079,1100,1119,1139],"xSR":741.5,"ySR":449.15000000000003,"xT1":424.9,"yT1":0,"xT2":1058.1,"yT2":0,"toosoon":0,"cond_shown":"equaldotsize","ratio_trial":250,"smaller_num":"3","larger_num":"12","correct_side":2,"subjID":"JoanEstebanSeguraGuzman4","gender":"0","age":"12","school":"6"},{"start_time":1551801194098,"click_time":1551801194832,"finger_time":1551801194573,"fix_duration":885.0794020613944,"trial":11,"RT":475,"MT":259,"sideResp":1,"stimulus":"img/750/randomdotsizeEA/R/3_Ratio_750_L_15_R_20.png","xmouse":[807,807,807,807,807,807,807,807,807,807,807,807,807,807,807,807,807,807,807,807,806,773,757,738,721,694,680,660,632,609,562,548,536,518,504,499,488],"ymouse":[528,528,528,528,528,528,528,528,528,528,528,528,528,528,528,528,528,528,528,528,522,491,478,462,445,415,396,372,333,301,235,211,186,153,131,118,92],"timestamp_mouse":[13,36,53,73,93,114,133,154,173,193,213,233,254,272,293,313,333,353,373,394,413,433,454,475,492,514,532,553,573,593,613,634,654,673,694,713,734],"xSR":741.5,"ySR":449.15000000000003,"xT1":424.9,"yT1":0,"xT2":1058.1,"yT2":0,"toosoon":0,"cond_shown":"randomdotsizeEA","ratio_trial":750,"smaller_num":"15","larger_num":"20","correct_side":2,"subjID":"JoanEstebanSeguraGuzman4","gender":"0","age":"12","school":"6"},{"start_time":1551801195803,"click_time":1551801196431,"finger_time":1551801196272,"fix_duration":250,"trial":12,"RT":469,"MT":159,"sideResp":2,"stimulus":"img/750/equaldotanddens/R/12_Ratio_750_L_3_R_4.png","xmouse":[839,839,839,839,839,839,839,839,839,839,839,839,839,839,839,839,819,807,806,805,805,805,819,841,900,1025,1071,1078,1085,1085,1084,1070],"ymouse":[508,508,508,508,508,508,508,508,508,508,508,508,508,508,509,509,506,502,502,502,502,496,462,427,358,217,161,148,121,113,105,75],"timestamp_mouse":[8,28,48,69,88,108,128,147,169,188,208,228,249,268,288,308,328,348,369,389,408,428,448,469,487,508,527,548,568,589,608,627],"xSR":741.5,"ySR":449.15000000000003,"xT1":424.9,"yT1":0,"xT2":1058.1,"yT2":0,"toosoon":0,"cond_shown":"equaldotanddens","ratio_trial":750,"smaller_num":"3","larger_num":"4","correct_side":2,"subjID":"JoanEstebanSeguraGuzman4","gender":"0","age":"12","school":"6"},{"start_time":1551801197362,"click_time":1551801198012,"finger_time":1551801197751,"fix_duration":250,"trial":13,"RT":389,"MT":261,"sideResp":1,"stimulus":"img/750/equaldotsize/R/15_Ratio_750_L_9_R_12.png","xmouse":[809,809,809,809,809,809,809,809,809,809,809,809,809,809,809,809,809,809,793,762,715,687,649,629,614,600,586,566,558,552,539,527,513],"ymouse":[482,482,482,482,482,482,482,482,482,482,482,482,482,482,482,482,482,482,468,423,350,307,246,213,192,172,153,122,109,99,86,76,66],"timestamp_mouse":[9,29,48,69,89,109,129,149,169,189,209,229,249,270,289,309,329,349,369,389,410,430,450,469,489,509,530,549,568,589,610,630,649],"xSR":741.5,"ySR":449.15000000000003,"xT1":424.9,"yT1":0,"xT2":1058.1,"yT2":0,"toosoon":0,"cond_shown":"equaldotsize","ratio_trial":750,"smaller_num":"9","larger_num":"12","correct_side":2,"subjID":"JoanEstebanSeguraGuzman4","gender":"0","age":"12","school":"6"},{"start_time":1551801199249,"click_time":1551801199651,"finger_time":1551801199572,"fix_duration":437.24555561703414,"trial":14,"RT":323,"MT":79,"sideResp":2,"stimulus":"img/500/randomdotsizeEA/L/10_Ratio_500_L_4_R_2.png","xmouse":[820,820,820,820,820,820,820,820,820,820,820,820,820,820,827,839,886,932,987,1050,1061],"ymouse":[515,515,515,515,515,515,515,515,515,515,515,515,515,515,491,470,358,240,137,47,37],"timestamp_mouse":[8,31,42,63,83,103,121,142,162,182,201,223,242,262,282,302,323,343,362,382,402],"xSR":741.5,"ySR":449.15000000000003,"xT1":424.9,"yT1":0,"xT2":1058.1,"yT2":0,"toosoon":0,"cond_shown":"randomdotsizeEA","ratio_trial":500,"smaller_num":"2","larger_num":"4","correct_side":1,"subjID":"JoanEstebanSeguraGuzman4","gender":"0","age":"12","school":"6"},{"start_time":1551801201404,"click_time":1551801202371,"finger_time":1551801202091,"fix_duration":891.1347890308658,"trial":15,"RT":687,"MT":280,"sideResp":1,"stimulus":"img/900/equaldotanddens/L/4_Ratio_900_L_20_R_18.png","xmouse":[816,816,816,816,816,816,816,816,816,816,816,816,816,816,816,816,816,816,816,816,816,816,816,816,816,816,816,816,816,816,816,816,816,816,804,746,700,668,635,621,611,610,606,601,593,573,563,550,524],"ymouse":[467,467,467,467,467,467,467,467,467,467,467,467,467,467,467,467,467,467,467,467,467,467,467,467,467,467,467,467,467,467,467,467,467,467,440,326,259,217,178,162,149,145,142,133,124,108,102,95,82],"timestamp_mouse":[8,41,47,68,87,106,127,147,167,187,207,228,246,268,287,307,328,348,367,388,407,427,447,467,487,507,528,546,568,588,607,628,647,667,687,707,726,747,767,787,808,827,847,868,887,908,927,947,967],"xSR":741.5,"ySR":449.15000000000003,"xT1":424.9,"yT1":0,"xT2":1058.1,"yT2":0,"toosoon":0,"cond_shown":"equaldotanddens","ratio_trial":900,"smaller_num":"18","larger_num":"20","correct_side":1,"subjID":"JoanEstebanSeguraGuzman4","gender":"0","age":"12","school":"6"},{"start_time":1551801204225,"click_time":1551801205251,"finger_time":1551801204931,"fix_duration":932.7115958933538,"trial":16,"RT":706,"MT":320,"sideResp":2,"stimulus":"img/750/equaldotanddens/R/5_Ratio_750_L_15_R_20.png","xmouse":[779,779,779,779,779,779,779,779,779,779,779,779,779,779,779,779,779,779,779,779,779,779,779,779,779,779,779,779,779,779,779,779,779,779,785,812,832,892,920,941,966,975,984,995,1016,1021,1025,1030,1033,1045,1054,1063],"ymouse":[492,492,492,492,492,492,492,492,492,492,492,492,492,492,492,492,492,492,492,492,492,492,492,492,492,492,492,492,492,492,492,492,492,492,489,445,399,300,263,233,191,174,158,142,121,116,112,108,106,98,92,86],"timestamp_mouse":[9,34,45,66,86,106,126,146,166,186,206,226,246,267,285,306,327,345,366,385,406,427,446,466,485,506,527,545,566,586,606,625,646,666,687,706,726,747,767,786,805,825,846,866,886,905,927,946,966,986,1006,1026],"xSR":741.5,"ySR":449.15000000000003,"xT1":424.9,"yT1":0,"xT2":1058.1,"yT2":0,"toosoon":0,"cond_shown":"equaldotanddens","ratio_trial":750,"smaller_num":"15","larger_num":"20","correct_side":2,"subjID":"JoanEstebanSeguraGuzman4","gender":"0","age":"12","school":"6"},{"start_time":1551801207133,"click_time":1551801208051,"finger_time":1551801207711,"fix_duration":901.7823852190145,"trial":17,"RT":578,"MT":340,"sideResp":1,"stimulus":"img/900/equaldotsize/L/2_Ratio_900_L_20_R_18.png","xmouse":[800,800,800,800,800,800,800,800,800,800,800,800,800,799,799,799,799,799,799,799,799,799,799,799,799,796,791,780,749,732,713,711,694,659,653,649,645,640,628,622,613,594,581,556,538,515],"ymouse":[488,488,488,488,488,488,488,488,488,488,488,488,488,489,489,489,489,489,489,489,489,489,489,489,489,489,486,478,449,425,402,396,362,281,263,249,238,226,200,187,171,144,126,97,75,56],"timestamp_mouse":[34,39,58,78,97,119,138,159,178,198,218,239,259,278,298,317,338,359,378,398,418,438,459,478,498,518,539,558,578,598,618,641,658,678,697,718,739,759,779,798,818,838,858,878,897,918],"xSR":741.5,"ySR":449.15000000000003,"xT1":424.9,"yT1":0,"xT2":1058.1,"yT2":0,"toosoon":0,"cond_shown":"equaldotsize","ratio_trial":900,"smaller_num":"18","larger_num":"20","correct_side":1,"subjID":"JoanEstebanSeguraGuzman4","gender":"0","age":"12","school":"6"},{"start_time":1551801210391,"click_time":1551801211692,"finger_time":1551801211471,"fix_duration":1498.7978290376816,"trial":18,"RT":1080,"MT":221,"sideResp":2,"stimulus":"img/250/randomdotsizeEA/R/4_Ratio_250_L_3_R_12.png","xmouse":[796,796,796,796,796,796,796,796,796,796,796,796,796,796,796,796,796,796,796,796,796,796,796,796,796,796,796,796,796,796,796,796,796,796,796,796,796,796,796,796,796,796,796,796,796,796,796,796,796,796,796,796,802,817,833,843,855,899,929,954,967,992,1007,1023,1044,1072],"ymouse":[504,504,504,504,504,504,504,504,504,504,504,504,504,504,504,504,504,504,504,504,504,504,504,504,504,504,504,504,504,504,504,504,504,504,504,504,504,504,504,504,504,504,504,504,504,504,504,504,504,504,504,504,496,471,446,428,404,336,271,225,209,179,158,129,104,76],"timestamp_mouse":[1,19,40,60,80,100,120,140,160,180,201,220,240,260,279,300,320,340,361,380,399,420,440,461,480,500,520,540,560,579,600,620,641,659,680,699,720,740,760,780,800,820,841,861,880,900,920,940,960,980,1001,1021,1040,1060,1080,1100,1120,1140,1159,1180,1200,1220,1240,1260,1281,1301],"xSR":741.5,"ySR":449.15000000000003,"xT1":424.9,"yT1":0,"xT2":1058.1,"yT2":0,"toosoon":0,"cond_shown":"randomdotsizeEA","ratio_trial":250,"smaller_num":"3","larger_num":"12","correct_side":2,"subjID":"JoanEstebanSeguraGuzman4","gender":"0","age":"12","school":"6"},{"start_time":1551801213791,"click_time":1551801214851,"finger_time":1551801214711,"fix_duration":1078.0586277719476,"trial":19,"RT":920,"MT":140,"sideResp":1,"stimulus":"img/500/randomdotsizeEA/L/4_Ratio_500_L_18_R_9.png","xmouse":[803,803,803,803,803,803,803,803,803,803,803,803,803,803,803,803,803,803,803,803,803,803,803,803,803,803,803,803,803,803,803,803,803,803,803,803,803,803,803,803,803,803,803,803,802,802,755,712,657,588,573,543,531,519],"ymouse":[485,485,485,485,485,485,485,485,485,485,485,485,485,485,485,485,485,485,485,485,485,485,485,485,485,485,485,485,485,485,485,485,485,485,485,485,485,485,485,485,485,485,485,485,485,485,423,367,295,188,161,87,58,40],"timestamp_mouse":[8,36,41,60,81,101,119,140,160,179,200,220,239,260,280,301,321,340,360,380,399,420,440,460,480,499,520,540,560,581,600,620,640,661,679,700,720,741,760,781,801,820,839,860,880,901,920,939,961,980,1000,1020,1039,1060],"xSR":741.5,"ySR":449.15000000000003,"xT1":424.9,"yT1":0,"xT2":1058.1,"yT2":0,"toosoon":0,"cond_shown":"randomdotsizeEA","ratio_trial":500,"smaller_num":"9","larger_num":"18","correct_side":1,"subjID":"JoanEstebanSeguraGuzman4","gender":"0","age":"12","school":"6"},{"start_time":1551801216712,"click_time":1551801217730,"finger_time":1551801217311,"fix_duration":979.7142029331566,"trial":20,"RT":599,"MT":419,"sideResp":1,"stimulus":"img/500/equaldotanddens/L/10_Ratio_500_L_4_R_2.png","xmouse":[768,768,768,768,768,768,768,768,768,768,768,768,768,768,768,768,768,768,768,768,768,768,768,768,768,768,774,777,789,835,879,915,971,989,1016,1020,1023,1025,1027,1027,1027,1027,1021,990,852,774,702,641,607,549,521],"ymouse":[492,492,492,492,492,492,492,492,492,492,492,492,492,492,492,492,492,492,492,492,492,492,492,492,492,492,488,485,473,420,359,305,197,157,117,112,108,105,104,104,104,104,107,122,152,154,149,136,117,84,65],"timestamp_mouse":[31,40,60,79,99,120,139,158,179,199,220,238,259,279,299,320,339,359,380,399,420,440,460,480,499,520,540,560,579,599,619,640,659,680,699,719,739,760,780,799,819,840,858,879,899,919,940,960,979,1000,1018],"xSR":741.5,"ySR":449.15000000000003,"xT1":424.9,"yT1":0,"xT2":1058.1,"yT2":0,"toosoon":0,"cond_shown":"equaldotanddens","ratio_trial":500,"smaller_num":"2","larger_num":"4","correct_side":1,"subjID":"JoanEstebanSeguraGuzman4","gender":"0","age":"12","school":"6"},{"start_time":1551801218950,"click_time":1551801220592,"finger_time":1551801219611,"fix_duration":296.7331649921239,"trial":21,"RT":661,"MT":981,"sideResp":1,"stimulus":"img/750/randomdotsizeEA/L/8_Ratio_750_L_4_R_3.png","xmouse":[774,778,780,781,781,781,781,781,781,781,781,781,781,781,781,781,781,781,781,781,781,781,781,781,781,781,781,781,781,781,781,787,791,794,794,790,785,777,766,727,679,663,651,634,630,630,629,629,629,629,627,626,615,591,577,568,564,561,560,560,560,560,560,560,560,560,560,560,560,560,560,560,560,560,560,560,560,560,555,539,531,519,510],"ymouse":[475,480,483,484,484,484,484,484,484,484,484,484,484,484,484,484,484,484,484,484,484,484,484,484,484,484,484,484,484,484,484,478,460,439,433,422,409,393,381,332,281,264,253,238,235,234,234,232,232,232,231,229,218,195,182,174,170,167,165,165,165,165,165,165,165,165,165,165,165,165,165,165,165,165,165,165,165,163,158,138,127,107,93],"timestamp_mouse":[1,21,44,61,81,102,121,141,161,181,201,221,242,261,282,301,322,341,361,382,402,421,441,461,481,513,521,541,561,582,602,621,641,661,681,701,722,741,761,781,802,822,842,861,880,902,922,941,961,982,1000,1020,1042,1061,1081,1101,1121,1141,1162,1181,1201,1220,1241,1262,1282,1301,1322,1340,1361,1381,1401,1420,1441,1462,1482,1502,1520,1541,1561,1582,1602,1622,1642],"xSR":741.5,"ySR":449.15000000000003,"xT1":424.9,"yT1":0,"xT2":1058.1,"yT2":0,"toosoon":0,"cond_shown":"randomdotsizeEA","ratio_trial":750,"smaller_num":"3","larger_num":"4","correct_side":1,"subjID":"JoanEstebanSeguraGuzman4","gender":"0","age":"12","school":"6"},{"start_time":1551801222259,"click_time":1551801223212,"finger_time":1551801222811,"fix_duration":845.6749360315141,"trial":22,"RT":552,"MT":401,"sideResp":2,"stimulus":"img/900/equaldotanddens/L/4_Ratio_900_L_20_R_18.png","xmouse":[755,755,755,755,755,755,755,755,755,755,755,755,755,755,755,755,755,755,755,755,755,755,755,755,755,755,757,769,786,801,812,835,863,876,888,897,909,925,935,945,952,966,985,1000,1016,1028,1039,1061],"ymouse":[462,462,462,462,462,462,462,462,462,462,462,462,462,462,462,462,462,462,462,462,462,462,462,462,462,462,462,446,427,410,395,371,337,319,299,283,270,236,215,196,178,161,144,135,121,110,102,82],"timestamp_mouse":[12,32,52,72,91,112,133,152,172,192,213,232,252,273,291,312,332,352,373,391,411,432,452,472,492,512,533,552,572,592,612,632,651,672,692,712,732,753,771,792,813,831,852,871,891,913,933,953],"xSR":741.5,"ySR":449.15000000000003,"xT1":424.9,"yT1":0,"xT2":1058.1,"yT2":0,"toosoon":0,"cond_shown":"equaldotanddens","ratio_trial":900,"smaller_num":"18","larger_num":"20","correct_side":1,"subjID":"JoanEstebanSeguraGuzman4","gender":"0","age":"12","school":"6"},{"start_time":1551801225532,"click_time":1551801226511,"finger_time":1551801226211,"fix_duration":779.6191743882886,"trial":23,"RT":679,"MT":300,"sideResp":1,"stimulus":"img/500/equaldotanddens/L/13_Ratio_500_L_12_R_6.png","xmouse":[785,785,785,785,785,785,785,785,785,785,785,785,785,785,785,785,785,785,785,785,785,785,785,785,785,785,785,785,785,785,785,785,785,776,752,740,727,715,707,691,681,673,655,643,608,588,563,542,528,499],"ymouse":[507,507,507,507,507,507,507,507,507,507,507,507,507,507,507,507,507,507,507,507,507,507,507,507,507,507,507,507,507,507,507,498,485,459,411,383,355,334,317,293,280,269,247,231,196,178,155,137,124,98],"timestamp_mouse":[1,20,40,58,79,99,119,139,160,179,199,219,239,259,279,300,320,340,359,379,400,420,439,460,479,499,519,539,559,579,599,620,639,660,679,699,719,739,760,779,800,819,839,859,879,899,919,938,959,979],"xSR":741.5,"ySR":449.15000000000003,"xT1":424.9,"yT1":0,"xT2":1058.1,"yT2":0,"toosoon":0,"cond_shown":"equaldotanddens","ratio_trial":500,"smaller_num":"6","larger_num":"12","correct_side":1,"subjID":"JoanEstebanSeguraGuzman4","gender":"0","age":"12","school":"6"},{"start_time":1551801227689,"click_time":1551801228712,"finger_time":1551801228372,"fix_duration":416.63689235190384,"trial":24,"RT":683,"MT":340,"sideResp":2,"stimulus":"img/900/randomdotsizeEA/L/8_Ratio_900_L_20_R_18.png","xmouse":[764,764,764,764,764,764,764,764,764,764,764,764,764,764,764,764,764,764,764,764,764,764,764,764,764,764,764,764,764,764,764,764,764,761,761,769,783,814,838,859,885,932,962,966,990,1006,1011,1031,1045,1059,1073,1099],"ymouse":[497,497,497,497,497,497,497,497,497,497,497,497,497,497,497,497,497,497,497,497,497,497,497,497,497,497,497,497,497,497,497,497,491,462,384,360,331,287,262,242,227,200,187,185,166,156,152,136,126,116,106,84],"timestamp_mouse":[8,22,47,62,83,102,122,142,162,182,202,222,242,263,283,302,322,342,362,382,402,422,442,463,482,502,522,542,563,581,603,622,642,662,683,703,722,742,762,783,803,823,842,863,883,902,922,943,962,983,1001,1023],"xSR":741.5,"ySR":449.15000000000003,"xT1":424.9,"yT1":0,"xT2":1058.1,"yT2":0,"toosoon":0,"cond_shown":"randomdotsizeEA","ratio_trial":900,"smaller_num":"18","larger_num":"20","correct_side":1,"subjID":"JoanEstebanSeguraGuzman4","gender":"0","age":"12","school":"6"},{"start_time":1551801230750,"click_time":1551801231811,"finger_time":1551801231491,"fix_duration":817.9439820028189,"trial":25,"RT":741,"MT":320,"sideResp":1,"stimulus":"img/250/equaldotanddens/L/15_Ratio_250_L_12_R_3.png","xmouse":[787,787,787,787,787,787,787,787,787,787,787,787,787,787,787,787,787,787,787,787,787,787,787,787,787,787,787,787,787,787,787,787,787,785,778,767,753,741,697,663,633,582,558,540,530,527,525,524,520,516,514,500,491,479],"ymouse":[542,542,542,542,542,542,542,542,542,542,542,542,542,542,542,542,542,542,542,542,542,542,542,542,542,542,542,542,542,542,542,542,542,535,513,492,463,435,367,331,304,264,244,226,208,202,195,187,171,161,158,134,113,91],"timestamp_mouse":[8,34,41,61,80,102,121,140,161,182,201,221,242,261,282,301,321,340,360,382,402,422,440,461,482,501,521,540,561,582,601,621,642,661,682,701,722,741,761,780,802,821,841,861,880,901,921,942,961,982,1001,1021,1040,1061],"xSR":741.5,"ySR":449.15000000000003,"xT1":424.9,"yT1":0,"xT2":1058.1,"yT2":0,"toosoon":0,"cond_shown":"equaldotanddens","ratio_trial":250,"smaller_num":"3","larger_num":"12","correct_side":1,"subjID":"JoanEstebanSeguraGuzman4","gender":"0","age":"12","school":"6"},{"start_time":1551801235735,"click_time":1551801236931,"finger_time":1551801236370,"fix_duration":1382.9633691350796,"trial":26,"RT":635,"MT":561,"sideResp":1,"stimulus":"img/900/equaldotsize/L/4_Ratio_900_L_20_R_18.png","xmouse":[786,786,786,786,786,786,786,786,786,786,786,786,786,786,786,786,786,786,786,786,786,786,786,786,786,786,786,786,786,790,797,806,809,815,818,819,819,819,808,799,785,748,723,691,679,668,660,654,637,627,618,596,585,566,556,549,539,536,529,524],"ymouse":[477,477,477,477,477,477,477,477,477,477,477,477,477,477,477,477,477,477,477,477,477,477,477,477,477,477,477,477,477,472,454,435,425,404,393,388,380,374,356,345,328,286,262,211,192,172,159,149,129,122,117,105,101,95,91,90,87,85,84,83],"timestamp_mouse":[16,41,56,76,97,116,136,156,176,196,217,236,256,276,296,316,335,356,376,396,417,436,457,476,497,516,535,557,576,596,617,635,656,676,696,716,737,755,776,796,817,836,856,876,896,916,936,957,977,997,1017,1037,1057,1076,1095,1116,1136,1156,1176,1196],"xSR":741.5,"ySR":449.15000000000003,"xT1":424.9,"yT1":0,"xT2":1058.1,"yT2":0,"toosoon":0,"cond_shown":"equaldotsize","ratio_trial":900,"smaller_num":"18","larger_num":"20","correct_side":1,"subjID":"JoanEstebanSeguraGuzman4","gender":"0","age":"12","school":"6"},{"start_time":1551801238395,"click_time":1551801239471,"finger_time":1551801239071,"fix_duration":603.6218992998706,"trial":27,"RT":676,"MT":400,"sideResp":1,"stimulus":"img/750/equaldotanddens/L/6_Ratio_750_L_24_R_18.png","xmouse":[778,778,778,778,778,778,778,778,778,778,778,778,778,778,778,778,778,778,778,778,778,778,778,778,778,778,778,778,778,778,773,769,762,750,731,710,662,635,606,591,579,559,553,542,535,529,527,525,523,521,521,515,513,510],"ymouse":[499,499,499,499,499,499,499,499,499,499,499,499,499,499,499,499,499,499,499,499,499,499,499,499,499,499,499,499,499,496,475,467,451,431,397,371,319,288,250,229,217,188,181,164,155,144,138,133,129,125,120,106,100,92],"timestamp_mouse":[17,43,56,77,97,116,136,156,176,196,216,237,257,275,296,316,337,356,376,396,416,436,456,476,497,516,536,556,576,595,616,637,657,676,697,716,736,756,776,796,816,837,857,876,896,916,937,956,977,997,1016,1036,1056,1076],"xSR":741.5,"ySR":449.15000000000003,"xT1":424.9,"yT1":0,"xT2":1058.1,"yT2":0,"toosoon":0,"cond_shown":"equaldotanddens","ratio_trial":750,"smaller_num":"18","larger_num":"24","correct_side":1,"subjID":"JoanEstebanSeguraGuzman4","gender":"0","age":"12","school":"6"},{"start_time":1551801240623,"click_time":1551801241612,"finger_time":1551801241311,"fix_duration":250,"trial":28,"RT":688,"MT":301,"sideResp":1,"stimulus":"img/250/randomdotsizeEA/L/3_Ratio_250_L_8_R_2.png","xmouse":[813,813,813,813,813,813,813,813,813,813,813,813,813,813,813,813,813,813,813,813,813,813,813,813,813,813,813,813,813,813,813,813,796,785,755,748,736,725,720,688,669,649,625,601,553,523,494,480,468,457],"ymouse":[519,519,519,519,519,519,519,519,519,519,519,519,519,519,519,519,519,519,519,519,519,519,519,519,519,519,519,519,519,519,519,519,498,482,439,422,406,392,385,343,318,295,269,245,196,169,141,126,112,99],"timestamp_mouse":[8,35,49,69,87,108,131,149,168,188,207,228,247,268,288,309,328,347,368,388,408,428,448,468,488,508,528,548,567,588,608,627,648,669,688,708,728,748,769,789,807,828,848,868,889,908,928,949,968,988],"xSR":741.5,"ySR":449.15000000000003,"xT1":424.9,"yT1":0,"xT2":1058.1,"yT2":0,"toosoon":0,"cond_shown":"randomdotsizeEA","ratio_trial":250,"smaller_num":"2","larger_num":"8","correct_side":1,"subjID":"JoanEstebanSeguraGuzman4","gender":"0","age":"12","school":"6"},{"start_time":1551801242637,"click_time":1551801243512,"finger_time":1551801243232,"fix_duration":305.361890065308,"trial":29,"RT":595,"MT":280,"sideResp":1,"stimulus":"img/500/equaldotsize/L/7_Ratio_500_L_10_R_5.png","xmouse":[759,759,759,759,759,759,759,759,759,759,759,759,759,759,759,759,759,759,759,759,759,759,759,759,759,759,759,760,755,744,730,718,702,682,622,606,561,531,510,499,488,482,476,462],"ymouse":[509,509,509,509,509,509,509,509,509,509,509,509,509,509,509,509,509,509,509,509,509,509,509,509,509,509,509,508,468,442,410,382,355,326,244,227,182,156,138,128,117,112,105,91],"timestamp_mouse":[13,37,55,74,94,114,134,154,175,194,215,233,254,274,294,315,334,353,374,394,414,435,455,474,494,515,534,555,574,595,614,635,655,674,694,714,734,754,774,794,814,835,854,874],"xSR":741.5,"ySR":449.15000000000003,"xT1":424.9,"yT1":0,"xT2":1058.1,"yT2":0,"toosoon":0,"cond_shown":"equaldotsize","ratio_trial":500,"smaller_num":"5","larger_num":"10","correct_side":1,"subjID":"JoanEstebanSeguraGuzman4","gender":"0","age":"12","school":"6"},{"start_time":1551801244702,"click_time":1551801245730,"finger_time":1551801245331,"fix_duration":390.6775702034685,"trial":30,"RT":629,"MT":399,"sideResp":1,"stimulus":"img/750/equaldotsize/R/11_Ratio_750_L_12_R_16.png","xmouse":[807,807,807,807,807,807,807,807,807,807,807,807,807,807,807,807,807,807,807,807,807,807,807,807,807,807,807,807,807,807,804,776,736,696,642,616,603,595,589,582,575,572,569,562,556,547,532,519,512,506,492,488],"ymouse":[500,500,500,500,500,500,500,500,500,500,500,500,500,500,500,500,500,500,500,500,500,500,500,500,500,500,500,500,500,500,492,442,384,345,270,242,225,213,206,197,187,183,180,171,164,155,141,130,123,118,103,99],"timestamp_mouse":[10,40,50,70,90,109,130,149,169,189,209,229,250,269,288,309,329,349,369,390,409,430,450,469,489,509,530,549,569,589,610,629,649,669,690,709,729,749,770,789,809,829,849,869,889,909,930,949,969,990,1010,1028],"xSR":741.5,"ySR":449.15000000000003,"xT1":424.9,"yT1":0,"xT2":1058.1,"yT2":0,"toosoon":0,"cond_shown":"equaldotsize","ratio_trial":750,"smaller_num":"12","larger_num":"16","correct_side":2,"subjID":"JoanEstebanSeguraGuzman4","gender":"0","age":"12","school":"6"},{"start_time":1551801246935,"click_time":1551801248231,"finger_time":1551801247832,"fix_duration":341.0080609702987,"trial":31,"RT":897,"MT":399,"sideResp":2,"stimulus":"img/750/randomdotsizeEA/R/15_Ratio_750_L_9_R_12.png","xmouse":[783,783,783,783,783,783,783,783,783,783,783,783,783,783,783,783,783,783,783,783,783,783,783,783,783,783,783,783,783,783,783,783,783,783,783,783,783,783,783,783,783,783,783,796,814,836,859,879,911,929,936,950,956,966,973,983,994,1002,1021,1031,1051,1065,1081,1111,1119],"ymouse":[492,492,492,492,492,492,492,492,492,492,492,492,492,492,492,492,492,492,492,492,492,492,492,492,492,492,492,492,492,492,492,492,492,492,492,492,492,492,492,492,492,492,492,471,447,411,376,344,291,255,245,221,213,197,190,180,173,167,157,150,139,129,120,103,99],"timestamp_mouse":[20,43,57,76,96,116,137,157,176,197,216,236,257,276,295,316,336,356,376,396,415,437,456,476,497,516,536,557,576,597,617,637,656,676,697,716,737,757,776,796,817,835,856,876,897,916,936,956,976,996,1016,1037,1057,1077,1095,1116,1136,1155,1176,1195,1216,1236,1256,1276,1296],"xSR":741.5,"ySR":449.15000000000003,"xT1":424.9,"yT1":0,"xT2":1058.1,"yT2":0,"toosoon":0,"cond_shown":"randomdotsizeEA","ratio_trial":750,"smaller_num":"9","larger_num":"12","correct_side":2,"subjID":"JoanEstebanSeguraGuzman4","gender":"0","age":"12","school":"6"},{"start_time":1551801249776,"click_time":1551801250971,"finger_time":1551801250472,"fix_duration":503.6284048777317,"trial":32,"RT":696,"MT":499,"sideResp":1,"stimulus":"img/750/equaldotsize/L/14_Ratio_750_L_8_R_6.png","xmouse":[822,822,822,822,822,822,822,822,822,822,822,822,822,822,822,822,822,822,822,822,822,822,822,822,822,822,822,822,822,822,822,822,811,782,754,735,683,662,638,573,535,489,477,462,452,441,429,407,403,401,400,400,401,402,403,405,412,417,421,432],"ymouse":[507,507,507,507,507,507,507,507,507,507,507,507,507,507,507,507,507,507,507,507,507,507,507,507,507,507,507,507,507,507,507,507,503,464,425,396,331,310,286,224,191,156,145,133,123,112,101,82,78,75,75,74,70,68,68,66,61,60,57,53],"timestamp_mouse":[15,36,56,75,95,115,135,155,175,194,215,235,256,275,296,316,336,355,374,395,415,436,455,475,495,516,535,555,574,596,616,635,656,675,696,716,735,755,776,795,815,835,854,875,896,916,935,956,975,995,1016,1036,1055,1076,1095,1115,1135,1156,1176,1195],"xSR":741.5,"ySR":449.15000000000003,"xT1":424.9,"yT1":0,"xT2":1058.1,"yT2":0,"toosoon":0,"cond_shown":"equaldotsize","ratio_trial":750,"smaller_num":"6","larger_num":"8","correct_side":1,"subjID":"JoanEstebanSeguraGuzman4","gender":"0","age":"12","school":"6"},{"start_time":1551801251903,"click_time":1551801252930,"finger_time":1551801252491,"fix_duration":250,"trial":33,"RT":588,"MT":439,"sideResp":1,"stimulus":"img/500/equaldotanddens/L/5_Ratio_500_L_4_R_2.png","xmouse":[801,801,801,801,801,801,801,801,801,801,801,801,801,801,801,801,801,801,801,801,801,801,801,801,798,788,781,774,768,762,751,743,736,722,706,665,647,629,613,597,576,570,562,552,546,541,539,536,532,529,515,509],"ymouse":[517,517,517,517,517,517,517,517,517,517,517,517,517,517,517,517,517,517,517,517,517,517,517,518,517,498,481,468,453,437,414,398,382,357,335,287,270,255,239,222,200,189,176,164,156,147,143,139,130,125,100,77],"timestamp_mouse":[9,31,49,68,89,108,129,148,169,188,208,229,249,269,288,308,329,349,368,388,408,427,448,468,489,508,528,548,568,588,608,629,648,669,689,708,728,749,769,788,809,828,848,869,888,908,928,948,969,988,1008,1027],"xSR":741.5,"ySR":449.15000000000003,"xT1":424.9,"yT1":0,"xT2":1058.1,"yT2":0,"toosoon":0,"cond_shown":"equaldotanddens","ratio_trial":500,"smaller_num":"2","larger_num":"4","correct_side":1,"subjID":"JoanEstebanSeguraGuzman4","gender":"0","age":"12","school":"6"},{"start_time":1551801254284,"click_time":1551801255210,"finger_time":1551801254890,"fix_duration":732.461036028498,"trial":34,"RT":606,"MT":320,"sideResp":1,"stimulus":"img/900/equaldotanddens/R/13_Ratio_900_L_18_R_20.png","xmouse":[816,816,816,816,816,816,816,816,816,816,817,817,817,817,817,817,817,817,817,817,817,817,817,817,817,817,817,811,802,782,743,689,548,479,420,369,351,344,344,346,349,356,362,379,393,408,447],"ymouse":[521,521,521,521,521,521,521,521,521,521,522,522,522,522,522,522,522,522,522,522,522,522,522,522,522,522,519,510,499,475,438,391,274,220,170,123,102,87,83,77,72,56,49,39,34,27,15],"timestamp_mouse":[20,41,46,66,86,107,126,146,166,187,206,227,246,267,286,306,326,346,367,388,406,426,446,466,487,507,526,547,566,586,606,626,647,666,687,707,726,746,766,786,807,827,847,866,887,906,926],"xSR":741.5,"ySR":449.15000000000003,"xT1":424.9,"yT1":0,"xT2":1058.1,"yT2":0,"toosoon":0,"cond_shown":"equaldotanddens","ratio_trial":900,"smaller_num":"18","larger_num":"20","correct_side":2,"subjID":"JoanEstebanSeguraGuzman4","gender":"0","age":"12","school":"6"},{"start_time":1551801256343,"click_time":1551801257930,"finger_time":1551801257131,"fix_duration":250,"trial":35,"RT":788,"MT":799,"sideResp":2,"stimulus":"img/750/equaldotanddens/R/7_Ratio_750_L_3_R_4.png","xmouse":[771,771,771,771,771,771,771,771,771,771,771,771,771,771,771,771,771,771,771,771,771,771,771,771,771,771,771,771,771,771,771,771,771,771,771,771,771,771,773,775,782,787,794,797,797,797,797,801,820,832,847,856,859,860,860,860,860,860,860,860,860,860,860,860,860,880,906,944,1005,1022,1043,1056,1065,1080,1083,1086,1089,1090,1093,1093],"ymouse":[486,486,486,486,486,486,486,486,486,486,486,486,486,486,486,486,486,486,486,486,486,486,486,486,486,486,486,486,486,486,486,486,486,486,486,486,485,482,466,435,411,393,380,375,360,350,330,303,267,253,247,241,239,238,238,238,238,238,238,238,238,238,238,238,236,225,223,214,198,187,176,165,158,141,137,127,120,114,101,95],"timestamp_mouse":[8,33,47,67,88,107,128,147,168,188,207,227,248,267,288,307,327,347,367,387,407,427,447,467,487,507,527,548,567,587,607,628,648,667,687,708,727,748,767,788,808,828,848,867,888,907,927,947,967,987,1007,1027,1047,1068,1088,1107,1127,1148,1168,1188,1207,1228,1247,1268,1287,1308,1327,1347,1368,1387,1408,1427,1448,1467,1487,1508,1528,1547,1567,1587],"xSR":741.5,"ySR":449.15000000000003,"xT1":424.9,"yT1":0,"xT2":1058.1,"yT2":0,"toosoon":0,"cond_shown":"equaldotanddens","ratio_trial":750,"smaller_num":"3","larger_num":"4","correct_side":2,"subjID":"JoanEstebanSeguraGuzman4","gender":"0","age":"12","school":"6"},{"start_time":1551801259061,"click_time":1551801259911,"finger_time":1551801259751,"fix_duration":250,"trial":36,"RT":690,"MT":160,"sideResp":1,"stimulus":"img/900/equaldotsize/L/1_Ratio_900_L_10_R_9.png","xmouse":[823,823,823,823,823,823,823,823,823,823,823,823,823,823,823,823,823,823,823,823,823,823,823,823,823,823,823,823,823,823,823,823,816,791,747,673,630,583,511,496,489,486,482],"ymouse":[496,496,496,496,496,496,496,496,496,496,496,496,496,496,496,496,496,496,496,496,496,496,496,496,496,496,496,496,496,496,496,496,493,461,413,325,279,218,134,120,113,107,94],"timestamp_mouse":[9,30,49,69,90,109,129,149,169,189,209,229,249,270,290,310,329,349,369,390,409,429,449,469,489,511,529,549,569,590,609,629,649,669,690,710,729,749,769,789,810,830,849],"xSR":741.5,"ySR":449.15000000000003,"xT1":424.9,"yT1":0,"xT2":1058.1,"yT2":0,"toosoon":0,"cond_shown":"equaldotsize","ratio_trial":900,"smaller_num":"9","larger_num":"10","correct_side":1,"subjID":"JoanEstebanSeguraGuzman4","gender":"0","age":"12","school":"6"},{"start_time":1551801260901,"click_time":1551801261670,"finger_time":1551801261470,"fix_duration":250,"trial":37,"RT":569,"MT":200,"sideResp":2,"stimulus":"img/900/equaldotsize/R/9_Ratio_900_L_18_R_20.png","xmouse":[782,782,782,782,782,782,782,782,782,782,782,782,782,782,782,782,782,782,782,782,782,782,782,782,782,782,787,803,832,888,996,1028,1044,1055,1057,1057,1057,1058,1059],"ymouse":[479,479,479,479,479,479,479,479,479,479,479,479,479,479,479,479,479,479,479,479,479,479,479,479,479,479,479,464,436,376,229,189,168,150,140,90,73,60,51],"timestamp_mouse":[9,38,49,69,90,110,129,150,169,189,209,229,249,269,289,310,330,349,369,389,410,429,449,469,489,509,529,549,569,589,609,629,649,669,689,709,728,749,769],"xSR":741.5,"ySR":449.15000000000003,"xT1":424.9,"yT1":0,"xT2":1058.1,"yT2":0,"toosoon":0,"cond_shown":"equaldotsize","ratio_trial":900,"smaller_num":"18","larger_num":"20","correct_side":2,"subjID":"JoanEstebanSeguraGuzman4","gender":"0","age":"12","school":"6"},{"start_time":1551801262516,"click_time":1551801263311,"finger_time":1551801263070,"fix_duration":284.17972517768163,"trial":38,"RT":554,"MT":241,"sideResp":1,"stimulus":"img/900/randomdotsizeEA/R/11_Ratio_900_L_18_R_20.png","xmouse":[776,776,776,776,776,776,776,776,776,776,776,776,776,776,776,776,776,776,776,776,776,776,775,771,765,762,751,741,725,677,647,624,602,593,573,563,552,543,534,515],"ymouse":[522,522,522,522,522,522,522,522,522,522,522,522,522,522,522,522,522,522,522,522,520,517,512,505,488,480,460,437,393,287,237,202,174,165,140,129,117,108,100,86],"timestamp_mouse":[14,36,54,75,94,114,135,155,175,194,214,235,254,274,294,315,334,354,374,394,415,434,454,474,494,515,535,554,574,594,615,635,655,675,694,714,734,755,774,795],"xSR":741.5,"ySR":449.15000000000003,"xT1":424.9,"yT1":0,"xT2":1058.1,"yT2":0,"toosoon":0,"cond_shown":"randomdotsizeEA","ratio_trial":900,"smaller_num":"18","larger_num":"20","correct_side":2,"subjID":"JoanEstebanSeguraGuzman4","gender":"0","age":"12","school":"6"},{"start_time":1551801264768,"click_time":1551801265330,"finger_time":1551801265130,"fix_duration":735.8537191229268,"trial":39,"RT":362,"MT":200,"sideResp":2,"stimulus":"img/900/equaldotanddens/L/1_Ratio_900_L_10_R_9.png","xmouse":[790,790,790,790,790,790,790,790,790,790,790,790,790,790,790,791,795,814,873,890,942,973,1012,1025,1032,1038,1043,1054,1063],"ymouse":[496,496,496,496,496,496,496,496,496,496,496,496,496,496,496,496,492,469,401,384,309,249,165,133,114,93,80,48,36],"timestamp_mouse":[5,22,57,63,83,103,123,142,163,183,202,223,242,262,283,303,322,342,362,382,402,423,442,462,482,503,523,543,562],"xSR":741.5,"ySR":449.15000000000003,"xT1":424.9,"yT1":0,"xT2":1058.1,"yT2":0,"toosoon":0,"cond_shown":"equaldotanddens","ratio_trial":900,"smaller_num":"9","larger_num":"10","correct_side":1,"subjID":"JoanEstebanSeguraGuzman4","gender":"0","age":"12","school":"6"},{"start_time":1551801267078,"click_time":1551801267750,"finger_time":1551801267470,"fix_duration":927.3875043690634,"trial":40,"RT":392,"MT":280,"sideResp":1,"stimulus":"img/250/equaldotanddens/L/14_Ratio_250_L_12_R_3.png","xmouse":[766,766,766,766,766,766,766,766,766,766,766,766,766,766,766,766,766,766,766,756,732,675,654,631,608,599,585,574,561,547,535,506,489,480],"ymouse":[507,507,507,507,507,507,507,507,507,507,507,507,507,507,507,507,507,500,463,407,344,269,252,238,224,219,210,203,191,178,167,129,102,84],"timestamp_mouse":[12,37,52,73,92,113,132,153,172,192,212,232,253,283,292,313,333,353,372,392,412,433,451,472,493,512,532,551,572,593,612,633,651,672],"xSR":741.5,"ySR":449.15000000000003,"xT1":424.9,"yT1":0,"xT2":1058.1,"yT2":0,"toosoon":0,"cond_shown":"equaldotanddens","ratio_trial":250,"smaller_num":"3","larger_num":"12","correct_side":1,"subjID":"JoanEstebanSeguraGuzman4","gender":"0","age":"12","school":"6"},{"start_time":1551801269132,"click_time":1551801269791,"finger_time":1551801269610,"fix_duration":821.9481889960269,"trial":41,"RT":478,"MT":181,"sideResp":2,"stimulus":"img/250/equaldotanddens/R/10_Ratio_250_L_4_R_16.png","xmouse":[771,771,771,771,771,771,771,771,771,771,771,771,771,771,771,771,771,771,771,771,772,774,807,927,992,1049,1075,1110,1126,1135,1135,1133,1123],"ymouse":[488,488,488,488,488,488,488,488,488,488,488,488,488,488,488,488,488,488,488,488,488,488,470,399,367,331,310,271,224,165,128,120,84],"timestamp_mouse":[34,38,58,78,98,118,138,158,178,198,218,239,258,278,298,318,338,359,378,398,418,439,458,478,498,518,539,558,579,599,619,638,659],"xSR":741.5,"ySR":449.15000000000003,"xT1":424.9,"yT1":0,"xT2":1058.1,"yT2":0,"toosoon":0,"cond_shown":"equaldotanddens","ratio_trial":250,"smaller_num":"4","larger_num":"16","correct_side":2,"subjID":"JoanEstebanSeguraGuzman4","gender":"0","age":"12","school":"6"},{"start_time":1551801271847,"click_time":1551801273611,"finger_time":1551801273210,"fix_duration":1334.467997130379,"trial":42,"RT":1363,"MT":401,"sideResp":2,"stimulus":"img/900/equaldotsize/L/2_Ratio_900_L_20_R_18.png","xmouse":[780,780,780,780,780,780,780,780,780,780,780,780,780,780,780,780,780,780,780,780,780,780,780,780,780,780,780,780,780,780,780,780,780,780,780,780,780,780,780,780,780,780,780,780,780,780,780,780,780,780,780,780,780,780,780,780,780,780,780,780,780,780,780,780,780,780,780,779,792,808,834,857,872,906,918,933,959,977,998,1009,1014,1016,1016,1019,1022,1032,1042,1051,1069],"ymouse":[487,487,487,487,487,487,487,487,487,487,487,487,487,487,487,487,487,487,487,487,487,487,487,487,487,487,487,487,487,487,487,487,487,487,487,487,487,487,487,487,487,487,487,487,487,487,487,487,487,487,487,487,487,487,487,487,487,487,487,487,487,487,487,487,487,487,487,487,447,410,361,302,269,210,194,170,137,117,93,80,73,71,71,68,67,61,57,52,48],"timestamp_mouse":[9,31,43,63,83,103,123,143,163,183,203,223,243,263,283,303,323,343,363,384,404,424,443,464,484,503,523,544,563,583,603,623,643,663,683,704,723,743,763,783,804,823,843,863,883,903,923,942,964,983,1003,1023,1044,1063,1083,1103,1123,1144,1164,1183,1203,1223,1243,1263,1283,1303,1323,1343,1363,1383,1404,1424,1443,1464,1483,1503,1523,1544,1563,1583,1603,1623,1643,1663,1684,1703,1723,1744,1763],"xSR":741.5,"ySR":449.15000000000003,"xT1":424.9,"yT1":0,"xT2":1058.1,"yT2":0,"toosoon":0,"cond_shown":"equaldotsize","ratio_trial":900,"smaller_num":"18","larger_num":"20","correct_side":1,"subjID":"JoanEstebanSeguraGuzman4","gender":"0","age":"12","school":"6"},{"start_time":1551801275404,"click_time":1551801276190,"finger_time":1551801276010,"fix_duration":693.5303986363633,"trial":43,"RT":606,"MT":180,"sideResp":2,"stimulus":"img/250/equaldotanddens/R/9_Ratio_250_L_3_R_12.png","xmouse":[804,804,804,804,804,804,804,804,804,804,804,804,804,804,804,804,804,804,804,804,804,804,804,804,804,804,804,804,804,804,799,797,795,806,830,902,985,996,1039,1063],"ymouse":[473,473,473,473,473,473,473,473,473,473,473,473,473,473,473,473,473,473,473,473,473,473,473,473,473,473,473,473,473,473,448,428,389,333,267,160,96,88,70,53],"timestamp_mouse":[9,39,46,66,87,106,127,146,167,187,206,227,246,266,286,306,326,347,367,387,406,426,446,466,486,506,526,546,566,586,606,626,646,666,686,706,726,747,766,786],"xSR":741.5,"ySR":449.15000000000003,"xT1":424.9,"yT1":0,"xT2":1058.1,"yT2":0,"toosoon":0,"cond_shown":"equaldotanddens","ratio_trial":250,"smaller_num":"3","larger_num":"12","correct_side":2,"subjID":"JoanEstebanSeguraGuzman4","gender":"0","age":"12","school":"6"},{"start_time":1551801278436,"click_time":1551801279230,"finger_time":1551801279090,"fix_duration":1224.8157744169357,"trial":44,"RT":654,"MT":140,"sideResp":1,"stimulus":"img/900/equaldotanddens/R/9_Ratio_900_L_18_R_20.png","xmouse":[784,784,784,784,784,784,784,784,784,784,784,784,784,784,784,784,784,784,784,784,784,784,784,784,784,784,784,784,784,784,773,754,697,633,572,553,540,535,517,505],"ymouse":[526,526,526,526,526,526,526,526,526,526,526,526,526,526,526,526,526,526,526,526,526,526,526,526,526,526,526,526,526,526,509,479,375,266,171,145,127,120,101,89],"timestamp_mouse":[14,38,54,74,94,114,135,155,174,194,215,234,254,274,295,314,335,354,374,394,414,435,454,474,494,514,534,554,575,594,615,634,654,674,694,714,735,754,774,794],"xSR":741.5,"ySR":449.15000000000003,"xT1":424.9,"yT1":0,"xT2":1058.1,"yT2":0,"toosoon":0,"cond_shown":"equaldotanddens","ratio_trial":900,"smaller_num":"18","larger_num":"20","correct_side":2,"subjID":"JoanEstebanSeguraGuzman4","gender":"0","age":"12","school":"6"},{"start_time":1551801280950,"click_time":1551801281910,"finger_time":1551801281610,"fix_duration":378.9310287633779,"trial":45,"RT":660,"MT":300,"sideResp":1,"stimulus":"img/250/randomdotsizeEA/L/7_Ratio_250_L_8_R_2.png","xmouse":[782,782,782,782,782,782,782,782,782,782,782,782,782,782,782,782,782,782,782,782,782,782,782,782,782,782,782,782,782,782,782,782,781,751,731,693,660,640,601,535,486,444,437,436,436,438,441,441,448],"ymouse":[485,485,485,485,485,485,485,485,485,485,485,485,485,485,485,485,485,485,485,485,485,485,485,485,485,485,485,485,485,485,485,485,477,437,416,381,354,338,313,260,206,134,123,110,107,105,103,103,98],"timestamp_mouse":[8,21,42,60,80,100,120,141,160,180,201,220,240,260,281,300,320,339,361,381,400,420,440,460,481,501,520,541,561,581,601,620,640,660,680,700,721,741,760,780,800,821,841,860,880,900,920,940,960],"xSR":741.5,"ySR":449.15000000000003,"xT1":424.9,"yT1":0,"xT2":1058.1,"yT2":0,"toosoon":0,"cond_shown":"randomdotsizeEA","ratio_trial":250,"smaller_num":"2","larger_num":"8","correct_side":1,"subjID":"JoanEstebanSeguraGuzman4","gender":"0","age":"12","school":"6"},{"start_time":1551801284251,"click_time":1551801285390,"finger_time":1551801284990,"fix_duration":1397.4960738364161,"trial":46,"RT":739,"MT":400,"sideResp":2,"stimulus":"img/500/equaldotsize/R/2_Ratio_500_L_3_R_6.png","xmouse":[809,809,809,809,809,809,809,809,809,809,809,809,809,809,809,809,809,809,809,809,809,809,809,809,809,809,809,809,809,809,809,809,809,809,809,809,828,870,1007,1086,1148,1184,1210,1224,1230,1237,1244,1246,1246,1235,1226,1218,1208,1189,1179,1169,1159,1153],"ymouse":[482,482,482,482,482,482,482,482,482,482,482,482,482,482,482,482,482,482,482,482,482,482,482,482,482,482,482,482,482,482,482,482,482,482,482,482,462,424,340,300,273,253,235,215,203,184,157,149,145,128,118,110,99,81,71,63,59,57],"timestamp_mouse":[2,20,39,59,79,100,119,139,160,180,199,219,239,259,279,299,319,339,359,380,399,420,440,459,479,499,519,539,559,579,600,619,639,659,679,699,720,739,759,779,799,820,840,859,879,900,920,940,959,979,999,1020,1040,1059,1080,1100,1119,1139],"xSR":741.5,"ySR":449.15000000000003,"xT1":424.9,"yT1":0,"xT2":1058.1,"yT2":0,"toosoon":0,"cond_shown":"equaldotsize","ratio_trial":500,"smaller_num":"3","larger_num":"6","correct_side":2,"subjID":"JoanEstebanSeguraGuzman4","gender":"0","age":"12","school":"6"},{"start_time":1551801287422,"click_time":1551801288290,"finger_time":1551801288131,"fix_duration":250,"trial":47,"RT":709,"MT":159,"sideResp":1,"stimulus":"img/250/equaldotanddens/L/2_Ratio_250_L_16_R_4.png","xmouse":[804,804,804,804,804,804,804,804,804,804,804,804,804,804,804,804,804,804,804,804,804,804,804,804,804,804,804,804,804,804,804,804,804,804,788,737,680,624,579,552,526,523,521,519],"ymouse":[530,530,530,530,530,530,530,530,530,530,530,530,530,530,530,530,530,530,530,530,530,530,530,530,530,530,530,530,530,530,530,530,530,530,511,401,315,236,183,148,116,109,105,99],"timestamp_mouse":[8,28,48,68,88,108,129,148,168,188,209,228,248,268,288,309,329,348,369,388,409,428,448,468,488,508,528,549,568,589,609,628,649,668,688,709,729,749,768,788,809,828,849,868],"xSR":741.5,"ySR":449.15000000000003,"xT1":424.9,"yT1":0,"xT2":1058.1,"yT2":0,"toosoon":0,"cond_shown":"equaldotanddens","ratio_trial":250,"smaller_num":"4","larger_num":"16","correct_side":1,"subjID":"JoanEstebanSeguraGuzman4","gender":"0","age":"12","school":"6"},{"start_time":1551801290847,"click_time":1551801292230,"finger_time":1551801291850,"fix_duration":1494.9267048830627,"trial":48,"RT":1003,"MT":380,"sideResp":1,"stimulus":"img/750/randomdotsizeEA/L/13_Ratio_750_L_8_R_6.png","xmouse":[789,789,789,789,789,789,789,789,789,789,789,789,789,789,789,789,789,789,789,789,789,789,789,789,789,789,789,789,789,789,789,789,789,789,789,789,789,789,789,789,789,789,789,789,789,789,789,784,781,767,760,749,740,717,706,694,676,661,639,619,604,592,585,574,571,568,560,548,527,521],"ymouse":[528,528,528,528,528,528,528,528,528,528,528,528,528,528,528,528,528,528,528,528,528,528,528,528,528,528,528,528,528,528,528,528,528,528,528,528,528,528,528,528,528,528,528,528,524,523,519,506,493,454,432,404,382,333,307,285,257,235,207,181,161,147,138,124,117,115,100,85,65,59],"timestamp_mouse":[9,31,43,63,83,104,124,143,163,184,203,223,243,263,283,304,324,344,364,383,403,424,443,462,484,503,523,543,563,584,603,623,643,662,684,704,723,743,764,783,803,823,843,863,883,903,923,943,963,984,1003,1023,1043,1063,1083,1103,1124,1143,1163,1183,1203,1223,1243,1263,1283,1303,1323,1343,1364,1383],"xSR":741.5,"ySR":449.15000000000003,"xT1":424.9,"yT1":0,"xT2":1058.1,"yT2":0,"toosoon":0,"cond_shown":"randomdotsizeEA","ratio_trial":750,"smaller_num":"6","larger_num":"8","correct_side":1,"subjID":"JoanEstebanSeguraGuzman4","gender":"0","age":"12","school":"6"},{"start_time":1551801293788,"click_time":1551801294750,"finger_time":1551801294530,"fix_duration":616.0892092863091,"trial":49,"RT":742,"MT":220,"sideResp":2,"stimulus":"img/500/equaldotsize/R/12_Ratio_500_L_1_R_2.png","xmouse":[764,764,764,764,764,764,764,764,764,764,764,764,764,764,764,764,764,764,764,764,764,764,764,764,764,764,764,764,764,764,764,764,764,764,764,765,769,797,854,894,924,942,990,1003,1021,1038,1068,1083,1099],"ymouse":[484,484,484,484,484,484,484,484,484,484,484,484,484,484,484,484,484,484,484,484,484,484,484,484,484,484,484,484,484,484,484,484,484,484,484,484,481,445,381,340,307,289,221,203,183,164,126,108,88],"timestamp_mouse":[8,38,42,62,82,102,122,142,162,182,203,222,242,262,282,302,322,342,362,382,402,422,442,463,483,502,522,542,562,582,603,622,643,662,683,702,723,742,762,783,802,822,842,863,882,902,922,941,962],"xSR":741.5,"ySR":449.15000000000003,"xT1":424.9,"yT1":0,"xT2":1058.1,"yT2":0,"toosoon":0,"cond_shown":"equaldotsize","ratio_trial":500,"smaller_num":"1","larger_num":"2","correct_side":2,"subjID":"JoanEstebanSeguraGuzman4","gender":"0","age":"12","school":"6"},{"start_time":1551801296211,"click_time":1551801297250,"finger_time":1551801296850,"fix_duration":418.7333854696613,"trial":50,"RT":639,"MT":400,"sideResp":2,"stimulus":"img/500/equaldotsize/R/6_Ratio_500_L_9_R_18.png","xmouse":[778,778,778,778,778,778,778,778,778,778,778,778,778,778,778,778,778,778,778,778,778,778,778,778,778,778,778,778,778,778,772,751,744,737,734,728,724,723,725,732,742,789,837,898,932,957,963,970,983,997,1011,1044,1059],"ymouse":[518,518,518,518,518,518,518,518,518,518,518,518,518,518,518,518,518,518,518,518,518,518,518,518,518,518,518,518,518,517,496,457,442,429,420,398,384,374,365,351,337,299,278,254,237,210,187,158,111,83,61,25,14],"timestamp_mouse":[1,33,40,60,80,99,119,139,159,179,199,220,239,259,279,300,319,339,359,380,400,420,439,459,479,499,519,540,559,579,599,620,639,659,680,699,719,740,759,779,799,819,839,859,879,899,919,939,959,980,1000,1020,1039],"xSR":741.5,"ySR":449.15000000000003,"xT1":424.9,"yT1":0,"xT2":1058.1,"yT2":0,"toosoon":0,"cond_shown":"equaldotsize","ratio_trial":500,"smaller_num":"9","larger_num":"18","correct_side":2,"subjID":"JoanEstebanSeguraGuzman4","gender":"0","age":"12","school":"6"},{"start_time":1551801299208,"click_time":1551801300110,"finger_time":1551801299770,"fix_duration":1236.0945916613305,"trial":51,"RT":562,"MT":340,"sideResp":1,"stimulus":"img/250/equaldotanddens/L/5_Ratio_250_L_24_R_6.png","xmouse":[801,801,801,801,801,801,801,801,801,801,801,801,801,801,801,801,801,801,801,801,801,801,801,801,801,801,801,783,754,738,714,702,696,689,681,674,657,650,633,617,593,581,565,550,541,517],"ymouse":[486,486,486,486,486,486,486,486,486,486,486,486,486,486,486,486,486,486,486,486,486,486,486,486,486,486,486,456,403,366,324,303,285,268,250,233,204,192,167,147,117,103,87,74,65,46],"timestamp_mouse":[8,35,42,62,82,102,122,143,162,182,202,222,242,262,282,303,323,342,363,383,402,422,442,463,482,502,523,542,562,582,602,622,642,663,682,703,723,742,762,782,802,822,842,862,882,902],"xSR":741.5,"ySR":449.15000000000003,"xT1":424.9,"yT1":0,"xT2":1058.1,"yT2":0,"toosoon":0,"cond_shown":"equaldotanddens","ratio_trial":250,"smaller_num":"6","larger_num":"24","correct_side":1,"subjID":"JoanEstebanSeguraGuzman4","gender":"0","age":"12","school":"6"},{"start_time":1551801301381,"click_time":1551801302250,"finger_time":1551801302010,"fix_duration":488.139291385179,"trial":52,"RT":629,"MT":240,"sideResp":2,"stimulus":"img/250/randomdotsizeEA/R/10_Ratio_250_L_4_R_16.png","xmouse":[791,791,791,791,791,791,791,791,791,791,791,791,791,791,791,791,792,792,792,792,792,792,792,792,792,792,792,792,792,792,804,847,867,880,892,913,982,1009,1029,1032,1034,1043,1056,1073],"ymouse":[495,495,495,495,495,495,495,495,495,495,495,495,495,495,495,495,496,496,496,496,496,496,496,496,496,496,496,496,496,495,483,454,435,416,395,350,193,152,127,125,123,111,96,77],"timestamp_mouse":[10,29,49,69,89,110,129,149,169,190,210,229,249,269,289,310,329,349,368,389,409,429,449,468,489,510,529,549,569,590,610,629,649,669,689,709,729,749,769,789,810,831,849,869],"xSR":741.5,"ySR":449.15000000000003,"xT1":424.9,"yT1":0,"xT2":1058.1,"yT2":0,"toosoon":0,"cond_shown":"randomdotsizeEA","ratio_trial":250,"smaller_num":"4","larger_num":"16","correct_side":2,"subjID":"JoanEstebanSeguraGuzman4","gender":"0","age":"12","school":"6"},{"start_time":1551801304468,"click_time":1551801305130,"finger_time":1551801305010,"fix_duration":1275.5417246697011,"trial":53,"RT":542,"MT":120,"sideResp":1,"stimulus":"img/250/equaldotsize/L/5_Ratio_250_L_24_R_6.png","xmouse":[825,825,825,825,825,825,825,825,825,825,825,825,825,825,825,825,825,825,825,825,825,825,825,825,825,825,825,814,786,727,673,622,540,523],"ymouse":[468,468,468,468,468,468,468,468,468,468,468,468,468,468,468,468,468,468,468,468,468,468,468,468,468,468,468,433,363,267,183,119,24,7],"timestamp_mouse":[8,22,43,63,83,103,123,142,163,183,202,223,242,262,283,302,322,342,362,383,402,422,442,462,482,503,522,542,562,582,602,622,642,662],"xSR":741.5,"ySR":449.15000000000003,"xT1":424.9,"yT1":0,"xT2":1058.1,"yT2":0,"toosoon":0,"cond_shown":"equaldotsize","ratio_trial":250,"smaller_num":"6","larger_num":"24","correct_side":1,"subjID":"JoanEstebanSeguraGuzman4","gender":"0","age":"12","school":"6"},{"start_time":1551801307634,"click_time":1551801309750,"finger_time":1551801309571,"fix_duration":1423.0934624550412,"trial":54,"RT":1937,"MT":179,"sideResp":2,"stimulus":"img/750/equaldotsize/R/2_Ratio_750_L_6_R_8.png","xmouse":[774,774,774,774,774,774,774,774,774,774,774,774,774,774,774,774,774,774,774,774,774,774,774,774,774,774,774,774,774,774,774,774,774,774,774,774,774,774,774,774,774,774,774,774,774,774,774,774,774,774,774,774,774,774,774,774,774,774,774,774,774,774,774,774,774,774,774,774,774,774,774,774,774,774,774,774,774,774,774,774,774,774,774,774,774,774,774,774,774,774,774,774,774,774,776,781,816,857,936,965,993,1004,1012,1030,1050,1061],"ymouse":[472,472,472,472,472,472,472,472,472,472,472,472,472,472,472,472,472,472,472,472,472,472,472,472,472,472,472,472,472,472,472,472,472,472,472,472,472,472,472,472,472,472,472,472,472,472,472,472,472,472,472,472,472,472,472,472,472,472,472,472,472,472,472,472,472,472,472,472,472,472,472,472,472,472,472,472,472,472,472,472,472,472,472,472,472,472,472,472,472,472,472,472,472,472,472,468,426,371,261,194,136,114,100,75,45,28],"timestamp_mouse":[17,41,57,77,96,116,136,156,176,196,216,236,257,276,296,316,336,357,376,396,417,436,457,476,496,516,536,556,576,598,616,637,656,676,696,716,737,758,777,797,816,836,857,876,897,917,937,956,976,997,1017,1036,1056,1077,1097,1116,1136,1156,1176,1197,1217,1236,1256,1276,1296,1316,1336,1357,1376,1396,1417,1436,1456,1476,1496,1516,1537,1556,1576,1596,1617,1635,1656,1676,1696,1716,1736,1757,1776,1798,1817,1837,1856,1876,1896,1916,1937,1957,1976,1996,2016,2036,2056,2077,2096,2116],"xSR":741.5,"ySR":449.15000000000003,"xT1":424.9,"yT1":0,"xT2":1058.1,"yT2":0,"toosoon":0,"cond_shown":"equaldotsize","ratio_trial":750,"smaller_num":"6","larger_num":"8","correct_side":2,"subjID":"JoanEstebanSeguraGuzman4","gender":"0","age":"12","school":"6"},{"start_time":1551801312070,"click_time":1551801313211,"finger_time":1551801312931,"fix_duration":857.061038609985,"trial":55,"RT":861,"MT":280,"sideResp":2,"stimulus":"img/500/randomdotsizeEA/R/15_Ratio_500_L_1_R_2.png","xmouse":[821,821,821,821,821,821,821,821,821,821,821,821,821,821,821,821,819,815,813,810,808,807,807,807,807,807,807,807,807,807,807,807,806,806,806,806,806,806,806,801,789,774,754,721,713,708,707,721,763,824,892,943,992,1002,1014,1025,1039,1063],"ymouse":[482,482,482,482,482,482,482,482,482,482,482,482,482,482,482,483,483,485,487,491,495,498,498,498,498,498,498,498,498,498,498,497,495,495,495,495,495,495,494,493,486,477,469,449,445,438,431,379,295,222,172,134,95,88,82,77,74,69],"timestamp_mouse":[8,20,40,61,80,100,120,140,160,180,201,220,240,260,280,300,321,340,360,380,400,420,440,461,480,500,520,540,561,581,600,620,640,660,681,701,720,741,761,780,801,820,840,861,880,900,920,940,960,980,1000,1020,1041,1060,1080,1100,1120,1140],"xSR":741.5,"ySR":449.15000000000003,"xT1":424.9,"yT1":0,"xT2":1058.1,"yT2":0,"toosoon":0,"cond_shown":"randomdotsizeEA","ratio_trial":500,"smaller_num":"1","larger_num":"2","correct_side":2,"subjID":"JoanEstebanSeguraGuzman4","gender":"0","age":"12","school":"6"},{"start_time":1551801315813,"click_time":1551801316771,"finger_time":1551801316430,"fix_duration":1360.3290678254143,"trial":56,"RT":617,"MT":341,"sideResp":1,"stimulus":"img/500/equaldotanddens/L/5_Ratio_500_L_4_R_2.png","xmouse":[791,791,791,791,791,791,791,791,791,791,791,791,791,791,791,791,791,791,791,791,791,791,791,791,791,791,791,791,786,777,728,702,683,669,644,612,586,554,549,546,542,538,533,527,508,499,494,492],"ymouse":[512,512,512,512,512,512,512,512,512,512,512,512,512,512,512,512,512,512,512,512,512,512,512,512,512,512,512,512,506,496,438,411,387,370,330,294,262,221,215,212,205,200,189,174,129,112,101,93],"timestamp_mouse":[32,37,58,76,97,118,137,157,178,197,217,237,257,277,298,318,337,357,377,397,417,437,457,477,497,517,537,557,578,597,617,637,657,678,697,717,738,758,776,798,818,837,857,878,898,917,937,958],"xSR":741.5,"ySR":449.15000000000003,"xT1":424.9,"yT1":0,"xT2":1058.1,"yT2":0,"toosoon":0,"cond_shown":"equaldotanddens","ratio_trial":500,"smaller_num":"2","larger_num":"4","correct_side":1,"subjID":"JoanEstebanSeguraGuzman4","gender":"0","age":"12","school":"6"},{"start_time":1551801319302,"click_time":1551801320230,"finger_time":1551801319871,"fix_duration":250,"trial":57,"RT":569,"MT":359,"sideResp":2,"stimulus":"img/250/equaldotanddens/R/8_Ratio_250_L_1_R_4.png","xmouse":[794,794,794,794,794,794,794,794,794,794,794,794,794,794,794,794,794,794,794,794,794,794,794,794,794,794,793,800,817,837,865,875,886,902,912,933,940,955,966,976,989,994,1004,1022,1035,1048,1065],"ymouse":[513,513,513,513,513,513,513,513,513,513,513,513,513,513,513,513,513,513,513,513,513,513,513,513,513,513,504,489,444,398,310,270,211,159,139,109,98,83,72,66,59,58,54,49,46,44,43],"timestamp_mouse":[8,41,48,68,88,108,128,148,168,188,208,228,248,268,288,309,328,348,368,388,407,428,449,468,488,508,529,548,569,588,608,628,649,668,688,709,728,748,769,789,808,828,849,868,888,909,928],"xSR":741.5,"ySR":449.15000000000003,"xT1":424.9,"yT1":0,"xT2":1058.1,"yT2":0,"toosoon":0,"cond_shown":"equaldotanddens","ratio_trial":250,"smaller_num":"1","larger_num":"4","correct_side":2,"subjID":"JoanEstebanSeguraGuzman4","gender":"0","age":"12","school":"6"},{"start_time":1551801321712,"click_time":1551801322590,"finger_time":1551801322310,"fix_duration":359.74570478545564,"trial":58,"RT":598,"MT":280,"sideResp":2,"stimulus":"img/250/equaldotanddens/R/12_Ratio_250_L_5_R_20.png","xmouse":[790,790,790,790,790,790,790,790,790,790,790,790,790,790,790,790,790,790,790,790,790,790,790,790,790,790,790,791,793,804,858,925,959,974,986,988,989,990,991,1007,1022,1044,1058,1072],"ymouse":[469,469,469,469,469,469,469,469,469,469,469,469,469,469,469,469,469,469,469,469,469,469,469,469,469,469,469,467,463,445,362,271,224,200,167,160,154,151,142,120,102,78,71,63],"timestamp_mouse":[31,38,58,78,99,118,138,158,178,198,218,238,258,278,298,319,338,359,378,399,418,438,458,479,499,519,539,559,578,598,619,639,658,678,700,718,739,759,778,800,818,838,859,878],"xSR":741.5,"ySR":449.15000000000003,"xT1":424.9,"yT1":0,"xT2":1058.1,"yT2":0,"toosoon":0,"cond_shown":"equaldotanddens","ratio_trial":250,"smaller_num":"5","larger_num":"20","correct_side":2,"subjID":"JoanEstebanSeguraGuzman4","gender":"0","age":"12","school":"6"},{"start_time":1551801327117,"click_time":1551801328410,"finger_time":1551801328010,"fix_duration":1424.7253374660538,"trial":59,"RT":893,"MT":400,"sideResp":2,"stimulus":"img/750/equaldotsize/R/2_Ratio_750_L_6_R_8.png","xmouse":[800,800,800,800,800,800,800,800,800,800,800,800,800,800,800,800,800,800,800,800,800,800,800,800,800,800,800,800,800,800,800,800,800,800,800,800,800,800,800,800,801,803,811,814,818,828,834,841,849,881,899,930,946,955,964,987,1002,1021,1034,1047,1048,1048,1053,1069,1106],"ymouse":[503,503,503,503,503,503,503,503,503,503,503,503,503,503,503,503,503,503,503,503,503,503,503,503,503,503,503,503,503,503,503,503,503,503,503,503,503,503,503,503,500,493,471,458,446,411,384,358,333,273,248,219,203,193,184,162,152,140,132,123,123,123,119,110,89],"timestamp_mouse":[13,42,54,73,93,114,134,153,173,193,213,233,253,274,293,313,333,353,374,393,414,433,454,473,495,513,534,553,572,593,613,634,654,674,693,712,733,753,773,793,813,833,853,873,893,914,933,954,974,993,1013,1034,1053,1074,1093,1113,1133,1153,1173,1193,1213,1233,1253,1273,1293],"xSR":741.5,"ySR":449.15000000000003,"xT1":424.9,"yT1":0,"xT2":1058.1,"yT2":0,"toosoon":0,"cond_shown":"equaldotsize","ratio_trial":750,"smaller_num":"6","larger_num":"8","correct_side":2,"subjID":"JoanEstebanSeguraGuzman4","gender":"0","age":"12","school":"6"},{"start_time":1551801329824,"click_time":1551801330770,"finger_time":1551801330471,"fix_duration":551.2386449126135,"trial":60,"RT":647,"MT":299,"sideResp":1,"stimulus":"img/250/randomdotsizeEA/L/15_Ratio_250_L_12_R_3.png","xmouse":[797,797,797,797,797,797,797,797,797,797,797,797,797,797,797,797,797,797,797,797,797,797,797,797,797,797,797,797,797,797,797,792,784,771,724,700,684,671,655,636,623,605,593,582,561,548,520,503],"ymouse":[519,519,519,519,519,519,519,519,519,519,519,519,519,519,519,519,519,519,519,519,519,519,519,519,519,519,519,519,519,519,489,450,424,403,344,317,299,279,258,236,223,209,199,188,163,146,114,95],"timestamp_mouse":[9,34,46,67,87,107,126,147,167,186,206,227,246,266,286,306,327,347,367,386,407,426,445,467,486,506,526,546,567,585,606,626,647,666,686,706,727,746,766,786,806,826,846,867,887,905,926,946],"xSR":741.5,"ySR":449.15000000000003,"xT1":424.9,"yT1":0,"xT2":1058.1,"yT2":0,"toosoon":0,"cond_shown":"randomdotsizeEA","ratio_trial":250,"smaller_num":"3","larger_num":"12","correct_side":1,"subjID":"JoanEstebanSeguraGuzman4","gender":"0","age":"12","school":"6"},{"start_time":1551801332992,"click_time":1551801335211,"finger_time":1551801334931,"fix_duration":1379.5946135286536,"trial":61,"RT":1939,"MT":280,"sideResp":2,"stimulus":"img/900/randomdotsizeEA/L/1_Ratio_900_L_10_R_9.png","xmouse":[820,820,820,820,820,820,820,820,820,820,820,820,820,820,820,820,820,820,820,820,820,820,820,820,820,820,820,820,820,820,820,820,820,820,820,820,820,820,820,820,820,820,820,820,820,820,820,820,820,820,820,820,820,820,820,820,820,820,820,820,820,820,820,820,820,820,820,820,820,820,820,820,820,820,820,820,820,820,820,820,820,820,820,820,820,820,820,820,820,820,820,820,820,820,820,823,875,947,998,1027,1054,1063,1070,1075,1080,1084,1095,1099,1102,1103,1103],"ymouse":[466,466,466,466,466,466,466,466,466,466,466,466,466,466,466,466,466,466,466,466,466,466,466,466,466,466,466,466,466,466,466,466,466,466,466,466,466,466,466,466,466,466,466,466,466,466,466,466,466,466,466,466,466,466,466,466,466,466,466,466,466,466,466,466,466,466,466,466,466,466,466,466,466,466,466,466,466,466,466,466,466,466,466,466,466,466,466,466,466,466,466,466,466,466,466,461,417,352,306,277,231,216,201,189,180,169,151,143,131,119,93],"timestamp_mouse":[34,39,58,78,98,119,138,159,178,199,218,239,258,279,298,319,339,358,379,399,418,438,458,479,498,518,539,558,579,598,618,639,658,679,699,718,739,759,779,798,818,838,859,879,899,918,939,959,979,998,1018,1038,1058,1078,1098,1118,1138,1158,1178,1198,1218,1239,1258,1278,1299,1318,1338,1358,1379,1400,1418,1439,1458,1478,1498,1518,1538,1559,1578,1598,1619,1638,1659,1678,1699,1718,1738,1759,1778,1799,1818,1838,1858,1878,1898,1919,1939,1958,1979,1999,2018,2038,2059,2078,2098,2118,2138,2158,2178,2199,2219],"xSR":741.5,"ySR":449.15000000000003,"xT1":424.9,"yT1":0,"xT2":1058.1,"yT2":0,"toosoon":0,"cond_shown":"randomdotsizeEA","ratio_trial":900,"smaller_num":"9","larger_num":"10","correct_side":1,"subjID":"JoanEstebanSeguraGuzman4","gender":"0","age":"12","school":"6"},{"start_time":1551801337893,"click_time":1551801338670,"finger_time":1551801338610,"fix_duration":1460.103624719119,"trial":62,"RT":717,"MT":60,"sideResp":1,"stimulus":"img/250/randomdotsizeEA/L/15_Ratio_250_L_12_R_3.png","xmouse":[812,812,812,812,812,812,812,812,812,812,812,812,812,812,812,812,812,812,812,812,812,812,812,812,812,812,812,812,812,812,812,812,812,810,789,712,647,586,503],"ymouse":[526,526,526,526,526,526,526,526,526,526,526,526,526,526,526,526,526,526,526,526,526,526,526,526,526,526,526,526,526,526,526,526,526,523,454,294,223,161,72],"timestamp_mouse":[31,38,58,77,98,117,137,157,177,197,218,237,257,278,298,318,337,358,378,398,417,437,458,477,497,517,538,557,577,598,617,638,657,678,698,717,738,757,777],"xSR":741.5,"ySR":449.15000000000003,"xT1":424.9,"yT1":0,"xT2":1058.1,"yT2":0,"toosoon":0,"cond_shown":"randomdotsizeEA","ratio_trial":250,"smaller_num":"3","larger_num":"12","correct_side":1,"subjID":"JoanEstebanSeguraGuzman4","gender":"0","age":"12","school":"6"},{"start_time":1551801342534,"click_time":1551801344010,"finger_time":1551801343150,"fix_duration":1220.6172644843587,"trial":63,"RT":616,"MT":860,"sideResp":2,"stimulus":"img/250/randomdotsizeEA/R/9_Ratio_250_L_3_R_12.png","xmouse":[783,783,783,783,783,783,783,783,783,783,783,783,783,783,783,783,783,783,783,783,783,783,783,783,783,783,783,783,804,821,840,862,881,926,939,952,962,969,980,990,995,998,1002,1014,1020,1028,1035,1040,1046,1047,1050,1052,1053,1053,1053,1054,1055,1057,1057,1057,1057,1057,1057,1057,1057,1057,1057,1057,1057,1057,1057,1057,1057,1060],"ymouse":[508,508,508,508,508,508,508,508,508,508,508,508,508,508,508,508,508,508,508,508,508,508,508,508,508,508,508,507,477,453,429,405,379,320,302,286,271,260,239,224,217,211,206,178,158,139,125,116,104,102,98,96,93,91,91,90,88,87,87,86,86,86,86,86,86,86,86,86,86,86,86,86,86,83],"timestamp_mouse":[16,42,57,76,96,116,136,156,175,197,217,236,256,276,297,316,337,356,376,396,416,436,456,476,496,516,536,557,576,596,616,636,656,676,696,716,737,757,778,798,816,837,857,878,896,916,936,956,976,997,1016,1036,1057,1077,1096,1115,1136,1156,1177,1196,1217,1236,1256,1276,1296,1317,1337,1356,1376,1396,1416,1436,1457,1476],"xSR":741.5,"ySR":449.15000000000003,"xT1":424.9,"yT1":0,"xT2":1058.1,"yT2":0,"toosoon":0,"cond_shown":"randomdotsizeEA","ratio_trial":250,"smaller_num":"3","larger_num":"12","correct_side":2,"subjID":"JoanEstebanSeguraGuzman4","gender":"0","age":"12","school":"6"},{"start_time":1551801345202,"click_time":1551801346270,"finger_time":1551801345971,"fix_duration":250,"trial":64,"RT":769,"MT":299,"sideResp":1,"stimulus":"img/750/equaldotsize/R/12_Ratio_750_L_3_R_4.png","xmouse":[821,821,821,821,821,821,821,821,821,821,821,821,821,821,821,821,821,821,821,821,821,821,821,821,821,821,821,821,821,821,821,821,821,821,821,821,817,804,742,684,622,605,597,595,592,588,578,572,569,563,548,540,531,519],"ymouse":[482,482,482,482,482,482,482,482,482,482,482,482,482,482,482,482,482,482,482,482,482,482,482,482,482,482,482,482,482,482,482,482,482,482,482,482,482,466,392,328,265,237,218,207,185,167,139,123,117,108,97,93,89,84],"timestamp_mouse":[8,39,48,69,88,108,129,149,168,189,208,228,248,269,289,308,329,349,368,388,409,428,449,468,489,508,529,548,568,588,608,628,648,668,688,708,728,749,769,788,808,828,848,869,889,908,928,948,969,989,1009,1028,1048,1068],"xSR":741.5,"ySR":449.15000000000003,"xT1":424.9,"yT1":0,"xT2":1058.1,"yT2":0,"toosoon":0,"cond_shown":"equaldotsize","ratio_trial":750,"smaller_num":"3","larger_num":"4","correct_side":2,"subjID":"JoanEstebanSeguraGuzman4","gender":"0","age":"12","school":"6"},{"start_time":1551801348289,"click_time":1551801349251,"finger_time":1551801348971,"fix_duration":1098.8263425306234,"trial":65,"RT":682,"MT":280,"sideResp":1,"stimulus":"img/750/equaldotanddens/L/10_Ratio_750_L_4_R_3.png","xmouse":[804,804,804,804,804,804,804,804,804,804,804,804,804,804,804,804,804,804,804,804,804,804,804,804,804,804,804,804,804,804,804,804,804,793,743,682,590,559,552,551,551,551,551,551,550,547,534,522,511],"ymouse":[497,497,497,497,497,497,497,497,497,497,497,497,497,497,497,497,497,497,497,497,497,497,497,497,497,497,497,497,497,497,497,497,497,453,373,300,205,167,160,158,158,158,158,158,156,151,130,107,84],"timestamp_mouse":[8,21,42,61,82,102,122,141,161,181,201,223,241,261,281,301,322,342,361,381,402,421,441,462,481,501,521,541,562,581,601,621,641,661,682,701,722,741,761,781,801,821,841,861,881,902,922,941,962],"xSR":741.5,"ySR":449.15000000000003,"xT1":424.9,"yT1":0,"xT2":1058.1,"yT2":0,"toosoon":0,"cond_shown":"equaldotanddens","ratio_trial":750,"smaller_num":"3","larger_num":"4","correct_side":1,"subjID":"JoanEstebanSeguraGuzman4","gender":"0","age":"12","school":"6"},{"start_time":1551801351354,"click_time":1551801352210,"finger_time":1551801351931,"fix_duration":1280.7437674986634,"trial":66,"RT":577,"MT":279,"sideResp":2,"stimulus":"img/250/equaldotanddens/R/13_Ratio_250_L_2_R_8.png","xmouse":[761,761,761,761,761,761,761,761,761,761,761,761,761,761,761,761,761,761,761,761,761,761,761,761,761,766,775,794,855,877,888,899,905,911,924,935,946,953,964,972,995,1018,1062],"ymouse":[508,508,508,508,508,508,508,508,508,508,508,508,508,508,508,508,508,508,508,508,508,508,508,508,508,497,481,457,369,327,307,283,264,230,195,174,156,144,127,119,105,98,82],"timestamp_mouse":[19,37,57,76,96,116,137,158,176,196,217,236,257,276,297,316,337,356,375,397,416,436,456,476,497,517,536,557,577,596,617,637,656,676,696,717,736,757,776,797,816,837,856],"xSR":741.5,"ySR":449.15000000000003,"xT1":424.9,"yT1":0,"xT2":1058.1,"yT2":0,"toosoon":0,"cond_shown":"equaldotanddens","ratio_trial":250,"smaller_num":"2","larger_num":"8","correct_side":2,"subjID":"JoanEstebanSeguraGuzman4","gender":"0","age":"12","school":"6"},{"start_time":1551801354025,"click_time":1551801354910,"finger_time":1551801354610,"fix_duration":812.5047542000857,"trial":67,"RT":585,"MT":300,"sideResp":1,"stimulus":"img/250/equaldotsize/L/2_Ratio_250_L_16_R_4.png","xmouse":[804,804,804,804,804,804,804,804,804,804,804,804,804,804,804,804,804,804,804,804,804,804,804,804,804,804,804,804,804,799,791,777,765,756,731,720,708,701,690,665,647,626,593,565,506],"ymouse":[490,490,490,490,490,490,490,490,490,490,490,490,490,490,490,490,490,490,490,490,490,490,490,490,490,490,490,490,487,441,403,361,337,322,290,276,260,252,238,211,189,166,136,117,79],"timestamp_mouse":[8,35,45,65,86,106,126,145,166,186,206,225,245,266,286,305,325,345,365,386,405,425,445,465,485,505,525,545,565,585,605,625,645,665,686,705,725,745,765,785,816,826,845,865,885],"xSR":741.5,"ySR":449.15000000000003,"xT1":424.9,"yT1":0,"xT2":1058.1,"yT2":0,"toosoon":0,"cond_shown":"equaldotsize","ratio_trial":250,"smaller_num":"4","larger_num":"16","correct_side":1,"subjID":"JoanEstebanSeguraGuzman4","gender":"0","age":"12","school":"6"},{"start_time":1551801357314,"click_time":1551801358712,"finger_time":1551801358071,"fix_duration":1342.1251251279646,"trial":68,"RT":757,"MT":641,"sideResp":1,"stimulus":"img/500/randomdotsizeEA/L/5_Ratio_500_L_4_R_2.png","xmouse":[769,769,769,769,769,769,769,769,769,769,769,769,769,769,769,769,769,769,769,769,769,769,769,769,769,769,769,769,769,769,769,769,769,769,777,782,791,800,805,815,822,830,836,843,850,850,850,850,850,850,850,850,850,850,851,851,840,818,787,728,704,667,645,634,601,589,582,573,557,519],"ymouse":[476,476,476,476,476,476,476,476,476,476,476,476,476,476,476,476,476,476,476,476,476,476,476,476,476,476,476,476,476,476,476,476,476,476,469,465,456,448,443,432,426,417,410,400,393,393,393,393,393,393,393,393,393,393,391,388,378,363,342,292,271,240,223,213,183,168,157,144,126,93],"timestamp_mouse":[16,36,57,77,96,116,136,157,176,196,217,236,257,277,297,316,336,357,376,397,416,436,457,477,497,516,536,557,576,597,616,636,656,677,696,717,736,757,777,798,816,836,856,877,896,916,936,956,976,997,1016,1036,1056,1076,1096,1116,1136,1157,1177,1196,1216,1237,1257,1276,1297,1316,1336,1357,1377,1398],"xSR":741.5,"ySR":449.15000000000003,"xT1":424.9,"yT1":0,"xT2":1058.1,"yT2":0,"toosoon":0,"cond_shown":"randomdotsizeEA","ratio_trial":500,"smaller_num":"2","larger_num":"4","correct_side":1,"subjID":"JoanEstebanSeguraGuzman4","gender":"0","age":"12","school":"6"},{"start_time":1551801360668,"click_time":1551801369170,"finger_time":1551801362550,"fix_duration":1195.1947764275,"trial":69,"RT":1882,"MT":6620,"sideResp":1,"stimulus":"img/900/randomdotsizeEA/R/14_Ratio_900_L_18_R_20.png","xmouse":[801,801,801,801,801,801,801,801,801,801,801,801,801,801,801,801,801,801,801,801,801,801,801,801,801,801,801,801,801,801,801,801,801,801,801,801,801,801,801,801,801,801,801,801,801,801,801,801,801,801,801,801,801,801,801,801,801,801,801,801,801,801,801,801,801,801,801,801,801,801,801,801,801,801,801,801,801,801,801,801,801,801,801,801,801,801,801,801,801,801,801,801,799,793,789,785,781,775,771,767,760,751,733,727,719,711,703,683,670,651,631,609,572,562,561,561,565,577,592,642,763,880,1022,1035,1035,1023,989,826,697,575,464,425,413,418,445,673,853,1046,1221,1226,1226,1212,1150,914,784,634,605,600,600,612,682,803,1087,1176,1204,1205,1205,1184,958,828,738,695,689,693,747,845,961,1102,1113,1113,1105,1042,934,699,601,536,535,548,643,803,997,1163,1325,1328,1328,1311,1257,1069,930,789,681,621,613,613,625,688,770,873,1031,1056,1058,1058,1051,1015,939,794,690,547,517,508,508,508,508,508,508,508,508,508,508,508,508,508,508,508,508,508,508,508,508,508,508,508,508,508,508,508,507,507,507,507,507,507,507,507,507,507,507,507,507,507,507,507,507,507,507,507,507,507,507,507,507,507,507,507,507,507,507,507,507,507,507,507,507,507,507,507,507,507,507,507,507,507,507,507,507,507,507,507,507,507,507,507,507,507,507,507,507,507,507,507,507,507,507,507,507,507,507,507,507,507,507,507,507,507,507,507,507,507,507,507,507,507,507,507,507,507,507,507,507,507,507,507,507,507,507,507,507,507,507,507,507,507,507,507,507,507,507,507,507,507,507,507,507,507,507,507,507,507,507,507,507,507,507,507,507,507,507,507,507,507,507,507,507,507,507,507,507,507,507,507,507,507,507,507,507,507,507,507,507,507,507,507,507,507,507,507,507,507,507,507,507,507,507,507,507,507,507,507,507,507,507,507,507,507,507,507,508,517,522,525,527,528,528,527,517,511],"ymouse":[496,496,496,496,496,496,496,496,496,496,496,496,496,496,496,496,496,496,496,496,496,496,496,496,496,496,496,496,496,496,496,496,496,496,496,496,496,496,496,496,496,496,496,496,496,496,496,496,496,496,496,496,496,496,496,496,496,496,496,496,496,496,496,496,496,496,496,496,496,496,496,496,496,496,496,496,496,496,496,496,494,492,491,489,488,487,486,485,483,483,481,479,472,457,443,437,426,412,404,398,387,375,360,355,350,345,341,333,327,319,308,300,290,288,288,287,280,270,256,240,231,236,241,245,246,252,255,255,255,255,266,272,274,274,275,288,307,318,334,335,336,338,336,299,281,259,255,254,254,254,260,273,296,307,309,310,310,310,290,275,272,272,272,272,279,294,312,340,343,343,348,349,335,288,277,272,272,270,279,305,327,340,354,355,355,353,336,293,267,244,228,218,218,218,220,231,246,261,282,290,290,290,291,294,294,289,283,257,253,251,251,251,251,251,251,251,251,251,251,251,251,251,251,251,251,251,251,251,251,251,251,251,251,251,251,251,250,249,249,248,248,248,248,248,248,248,248,248,248,248,248,248,248,248,248,248,248,248,248,248,248,248,248,248,248,248,248,248,248,248,248,248,248,248,248,248,248,248,248,248,248,248,248,248,248,248,248,248,248,248,248,248,248,248,248,248,248,248,248,248,248,248,248,248,248,248,248,248,248,248,248,248,248,248,248,248,248,248,248,248,248,248,248,248,248,248,248,248,248,248,248,248,248,248,248,248,248,248,248,248,248,248,248,248,248,248,248,248,248,248,248,248,248,248,248,248,248,248,248,248,248,248,248,248,248,248,248,248,248,248,248,248,248,248,248,248,248,248,248,248,248,248,248,248,248,248,248,248,248,248,248,248,248,248,248,248,248,248,248,248,248,248,248,248,248,248,248,248,248,248,248,248,248,248,248,248,247,225,211,197,184,178,157,143,113,86],"timestamp_mouse":[6,27,43,62,83,102,123,143,162,182,203,223,243,263,282,302,322,342,362,382,403,423,442,462,483,502,523,543,562,582,602,622,642,663,683,703,722,742,763,782,802,822,842,862,883,903,923,942,963,983,1003,1022,1043,1062,1083,1103,1123,1143,1162,1182,1203,1222,1242,1262,1282,1302,1322,1343,1362,1383,1402,1422,1442,1462,1482,1502,1523,1543,1562,1582,1603,1622,1642,1662,1682,1702,1722,1743,1763,1782,1803,1823,1842,1862,1882,1902,1923,1942,1962,