[{"start_time":1551800576420,"click_time":1551800578016,"finger_time":1551800577237,"fix_duration":757.0055129117736,"trial":0,"RT":817,"MT":779,"sideResp":1,"stimulus":[],"xmouse":[772,772,772,772,772,772,772,772,772,772,772,772,772,772,772,772,772,772,771,766,757,753,753,753,753,753,753,753,753,753,753,753,753,753,753,753,753,753,757,764,768,773,775,776,776,774,774,774,783,789,795,802,811,839,857,877,898,913,938,947,959,970,980,986,986,985,967,939,878,782,735,701,675,642,619,598,577,560,532,526,521],"ymouse":[501,501,501,501,501,501,501,501,501,501,501,501,501,501,501,501,501,501,502,503,503,504,504,504,504,504,504,504,504,504,504,504,504,504,504,504,504,504,492,478,462,444,429,403,392,380,369,353,309,295,288,276,265,231,214,196,180,167,140,128,116,105,95,87,87,85,84,82,70,55,49,44,41,36,30,26,24,24,23,23,23],"timestamp_mouse":[9,17,37,56,76,97,117,136,156,176,196,216,237,257,276,297,316,336,356,377,396,417,437,456,476,497,518,536,556,577,598,616,637,657,676,697,716,737,757,778,796,817,836,857,876,897,917,938,956,977,996,1016,1036,1056,1077,1097,1116,1136,1156,1176,1197,1217,1237,1256,1277,1297,1317,1337,1356,1376,1397,1416,1436,1456,1476,1497,1518,1537,1557,1577,1596],"xSR":741.5,"ySR":481,"xT1":424.9,"yT1":0,"xT2":1058.1,"yT2":0,"toosoon":0,"cond_shown":"Congruent","ratio_trial":300,"L_num":11,"L_den":22,"R_num":1,"R_den":5,"correct_side":1,"subjID":"JoanEstebanSeguraGuzman4","gender":"0","age":"12","school":"6","test":{"fix_dur":[250,1500],"timestim":1000,"targets_dim":[100,100],"targets_relative_coord":[0.3,0.7],"size_stim":[880,420],"start_dim":[100,100],"size_start":[300,300],"size_fix":60,"samplingrate":20,"img_types":["Congruent","Incongruent"],"ratios":[100,200,300],"rep_conds":19,"nTrials":120,"trials_to_rest":500,"Trials_order":[52,109,85,84,104,100,36,77,98,114,91,63,37,50,1,21,62,87,25,80,3,66,79,43,27,72,34,105,106,30,81,73,89,47,13,28,29,2,60,101,94,119,44,92,19,90,112,8,45,93,68,110,95,53,14,56,31,86,103,33,118,55,116,82,41,76,0,117,107,113,26,111,16,83,38,69,5,17,57,39,40,46,10,35,88,23,54,42,99,78,97,74,67,96,115,51,49,75,64,12,59,7,15,6,108,61,48,11,102,32,65,18,9,71,58,22,4,24,20,70],"cond_shown":["Congruent","Incongruent","Incongruent","Congruent","Congruent","Congruent","Congruent","Incongruent","Congruent","Congruent","Incongruent","Incongruent","Incongruent","Congruent","Incongruent","Incongruent","Congruent","Incongruent","Incongruent","Congruent","Incongruent","Congruent","Incongruent","Incongruent","Incongruent","Congruent","Congruent","Incongruent","Congruent","Congruent","Incongruent","Incongruent","Incongruent","Incongruent","Incongruent","Congruent","Incongruent","Congruent","Congruent","Incongruent","Congruent","Incongruent","Congruent","Congruent","Incongruent","Congruent","Congruent","Congruent","Incongruent","Incongruent","Congruent","Congruent","Incongruent","Incongruent","Congruent","Congruent","Incongruent","Congruent","Incongruent","Incongruent","Congruent","Incongruent","Congruent","Congruent","Incongruent","Congruent","Congruent","Incongruent","Incongruent","Incongruent","Congruent","Incongruent","Congruent","Incongruent","Congruent","Incongruent","Incongruent","Incongruent","Incongruent","Incongruent","Congruent","Congruent","Congruent","Incongruent","Congruent","Incongruent","Congruent","Congruent","Incongruent","Congruent","Incongruent","Congruent","Incongruent","Congruent","Incongruent","Incongruent","Incongruent","Incongruent","Congruent","Congruent","Incongruent","Incongruent","Incongruent","Congruent","Congruent","Incongruent","Congruent","Incongruent","Congruent","Congruent","Incongruent","Congruent","Incongruent","Incongruent","Congruent","Congruent","Congruent","Congruent","Congruent","Congruent"],"ratio_trial":[300,100,100,100,200,300,100,300,200,100,100,200,100,200,100,200,200,200,100,200,200,100,100,100,200,100,300,200,300,100,200,100,300,300,100,300,300,200,100,300,300,300,200,200,100,100,300,200,200,200,200,200,300,300,200,200,100,200,100,200,300,100,200,300,300,300,100,200,300,300,200,200,300,300,200,200,300,300,200,200,300,300,300,300,300,300,100,100,200,100,100,200,100,100,100,200,100,200,300,100,300,100,200,100,100,100,100,300,100,200,300,100,200,300,300,300,300,100,200,300],"left_num":[11,9,3,15,3,11,11,13,4,7,1,7,9,4,8,14,6,4,13,3,4,1,3,8,1,7,3,7,24,10,7,1,4,8,9,20,4,7,6,4,12,4,14,6,4,11,8,3,4,4,8,9,4,4,9,6,3,12,9,6,5,9,4,11,13,4,1,7,13,4,4,1,4,4,3,7,4,7,3,1,1,20,2,13,1,4,6,3,7,6,9,12,3,10,11,7,12,11,5,11,4,9,7,4,8,1,6,4,2,7,4,6,14,1,24,7,7,4,7,3],"right_num":[1,13,11,13,11,1,6,12,3,15,8,12,20,3,6,6,11,6,6,9,14,3,8,1,3,15,2,14,2,3,12,8,2,14,14,9,2,2,5,2,2,6,6,11,8,6,1,14,14,6,2,13,2,2,13,7,7,6,13,3,7,13,3,1,12,1,18,8,12,2,3,3,13,2,14,8,2,8,1,2,6,13,10,12,11,2,15,2,14,5,13,6,4,3,9,4,9,3,7,4,2,13,8,15,2,8,5,2,6,2,8,15,6,2,2,20,20,6,18,11],"left_den":[22,15,5,25,10,22,22,26,8,14,2,10,10,10,16,30,20,5,26,12,6,2,5,20,2,14,6,10,30,25,10,2,20,10,15,25,20,21,20,20,24,5,28,20,8,22,16,10,6,5,15,30,20,20,30,12,9,15,15,20,25,15,8,22,26,10,2,10,26,20,8,2,20,20,10,10,20,10,10,3,5,25,20,26,5,20,12,6,10,20,15,15,6,25,22,15,24,20,25,22,20,15,10,10,16,2,20,20,5,21,5,12,30,2,30,14,14,8,15,12],"right_den":[5,26,22,26,22,5,15,15,10,25,20,24,25,15,10,9,22,10,10,20,30,5,16,2,10,25,10,28,4,10,24,20,4,28,28,18,4,15,25,4,10,12,20,22,20,15,5,28,30,10,6,26,4,4,26,10,30,10,26,6,14,26,10,5,15,10,30,16,15,4,10,10,26,4,28,16,4,20,2,15,12,26,25,15,22,4,25,5,28,25,26,10,10,10,15,6,15,4,14,10,4,26,16,30,5,20,25,4,12,15,16,25,9,10,4,25,25,10,27,20],"correct_side":[1,1,1,1,2,1,1,2,1,2,1,1,1,1,2,2,2,1,2,2,1,2,1,2,1,2,1,1,1,1,1,1,2,1,1,1,2,1,1,2,1,1,1,2,1,1,1,2,1,1,1,2,2,2,2,2,1,1,1,2,2,1,1,1,2,1,2,1,2,2,1,1,2,2,2,1,2,1,2,1,2,1,2,2,2,2,2,1,1,1,1,1,1,1,2,2,2,2,2,1,2,1,1,2,1,1,1,2,2,1,1,2,2,1,1,2,2,2,2,2],"img_shown":["img2/300/Congruent/L/C_Dist_300_LN_11_LD_22_RN_1_RD_5_0.png","img2/100/Incongruent/L/I_Dist_100_LN_9_LD_15_RN_13_RD_26_0.png","img2/100/Incongruent/L/I_Dist_100_LN_3_LD_5_RN_11_RD_22_0.png","img2/100/Congruent/L/C_Dist_100_LN_15_LD_25_RN_13_RD_26_0.png","img2/200/Congruent/R/C_Dist_200_LN_3_LD_10_RN_11_RD_22_1.png","img2/300/Congruent/L/C_Dist_300_LN_11_LD_22_RN_1_RD_5_0.png","img2/100/Congruent/L/C_Dist_100_LN_11_LD_22_RN_6_RD_15_0.png","img2/300/Incongruent/R/I_Dist_300_LN_13_LD_26_RN_12_RD_15_1.png","img2/200/Congruent/L/C_Dist_200_LN_4_LD_8_RN_3_RD_10_0.png","img2/100/Congruent/R/C_Dist_100_LN_7_LD_14_RN_15_RD_25_1.png","img2/100/Incongruent/L/I_Dist_100_LN_1_LD_2_RN_8_RD_20_0.png","img2/200/Incongruent/L/I_Dist_200_LN_7_LD_10_RN_12_RD_24_0.png","img2/100/Incongruent/L/I_Dist_100_LN_9_LD_10_RN_20_RD_25_0.png","img2/200/Congruent/L/C_Dist_200_LN_4_LD_10_RN_3_RD_15_0.png","img2/100/Incongruent/R/I_Dist_100_LN_8_LD_16_RN_6_RD_10_1.png","img2/200/Incongruent/R/I_Dist_200_LN_14_LD_30_RN_6_RD_9_1.png","img2/200/Congruent/R/C_Dist_200_LN_6_LD_20_RN_11_RD_22_1.png","img2/200/Incongruent/L/I_Dist_200_LN_4_LD_5_RN_6_RD_10_0.png","img2/100/Incongruent/R/I_Dist_100_LN_13_LD_26_RN_6_RD_10_1.png","img2/200/Congruent/R/C_Dist_200_LN_3_LD_12_RN_9_RD_20_1.png","img2/200/Incongruent/L/I_Dist_200_LN_4_LD_6_RN_14_RD_30_0.png","img2/100/Congruent/R/C_Dist_100_LN_1_LD_2_RN_3_RD_5_1.png","img2/100/Incongruent/L/I_Dist_100_LN_3_LD_5_RN_8_RD_16_0.png","img2/100/Incongruent/R/I_Dist_100_LN_8_LD_20_RN_1_RD_2_1.png","img2/200/Incongruent/L/I_Dist_200_LN_1_LD_2_RN_3_RD_10_0.png","img2/100/Congruent/R/C_Dist_100_LN_7_LD_14_RN_15_RD_25_1.png","img2/300/Congruent/L/C_Dist_300_LN_3_LD_6_RN_2_RD_10_0.png","img2/200/Incongruent/L/I_Dist_200_LN_7_LD_10_RN_14_RD_28_0.png","img2/300/Congruent/L/C_Dist_300_LN_24_LD_30_RN_2_RD_4_0.png","img2/100/Congruent/L/C_Dist_100_LN_10_LD_25_RN_3_RD_10_0.png","img2/200/Incongruent/L/I_Dist_200_LN_7_LD_10_RN_12_RD_24_0.png","img2/100/Incongruent/L/I_Dist_100_LN_1_LD_2_RN_8_RD_20_0.png","img2/300/Incongruent/R/I_Dist_300_LN_4_LD_20_RN_2_RD_4_1.png","img2/300/Incongruent/L/I_Dist_300_LN_8_LD_10_RN_14_RD_28_0.png","img2/100/Incongruent/L/I_Dist_100_LN_9_LD_15_RN_14_RD_28_0.png","img2/300/Congruent/L/C_Dist_300_LN_20_LD_25_RN_9_RD_18_0.png","img2/300/Incongruent/R/I_Dist_300_LN_4_LD_20_RN_2_RD_4_1.png","img2/200/Congruent/L/C_Dist_200_LN_7_LD_21_RN_2_RD_15_0.png","img2/100/Congruent/L/C_Dist_100_LN_6_LD_20_RN_5_RD_25_0.png","img2/300/Incongruent/R/I_Dist_300_LN_4_LD_20_RN_2_RD_4_1.png","img2/300/Congruent/L/C_Dist_300_LN_12_LD_24_RN_2_RD_10_0.png","img2/300/Incongruent/L/I_Dist_300_LN_4_LD_5_RN_6_RD_12_0.png","img2/200/Congruent/L/C_Dist_200_LN_14_LD_28_RN_6_RD_20_0.png","img2/200/Congruent/R/C_Dist_200_LN_6_LD_20_RN_11_RD_22_1.png","img2/100/Incongruent/L/I_Dist_100_LN_4_LD_8_RN_8_RD_20_0.png","img2/100/Congruent/L/C_Dist_100_LN_11_LD_22_RN_6_RD_15_0.png","img2/300/Congruent/L/C_Dist_300_LN_8_LD_16_RN_1_RD_5_0.png","img2/200/Congruent/R/C_Dist_200_LN_3_LD_10_RN_14_RD_28_1.png","img2/200/Incongruent/L/I_Dist_200_LN_4_LD_6_RN_14_RD_30_0.png","img2/200/Incongruent/L/I_Dist_200_LN_4_LD_5_RN_6_RD_10_0.png","img2/200/Congruent/L/C_Dist_200_LN_8_LD_15_RN_2_RD_6_0.png","img2/200/Congruent/R/C_Dist_200_LN_9_LD_30_RN_13_RD_26_1.png","img2/300/Incongruent/R/I_Dist_300_LN_4_LD_20_RN_2_RD_4_1.png","img2/300/Incongruent/R/I_Dist_300_LN_4_LD_20_RN_2_RD_4_1.png","img2/200/Congruent/R/C_Dist_200_LN_9_LD_30_RN_13_RD_26_1.png","img2/200/Congruent/R/C_Dist_200_LN_6_LD_12_RN_7_RD_10_1.png","img2/100/Incongruent/L/I_Dist_100_LN_3_LD_9_RN_7_RD_30_0.png","img2/200/Congruent/L/C_Dist_200_LN_12_LD_15_RN_6_RD_10_0.png","img2/100/Incongruent/L/I_Dist_100_LN_9_LD_15_RN_13_RD_26_0.png","img2/200/Incongruent/R/I_Dist_200_LN_6_LD_20_RN_3_RD_6_1.png","img2/300/Congruent/R/C_Dist_300_LN_5_LD_25_RN_7_RD_14_1.png","img2/100/Incongruent/L/I_Dist_100_LN_9_LD_15_RN_13_RD_26_0.png","img2/200/Congruent/L/C_Dist_200_LN_4_LD_8_RN_3_RD_10_0.png","img2/300/Congruent/L/C_Dist_300_LN_11_LD_22_RN_1_RD_5_0.png","img2/300/Incongruent/R/I_Dist_300_LN_13_LD_26_RN_12_RD_15_1.png","img2/300/Congruent/L/C_Dist_300_LN_4_LD_10_RN_1_RD_10_0.png","img2/100/Congruent/R/C_Dist_100_LN_1_LD_2_RN_18_RD_30_1.png","img2/200/Incongruent/L/I_Dist_200_LN_7_LD_10_RN_8_RD_16_0.png","img2/300/Incongruent/R/I_Dist_300_LN_13_LD_26_RN_12_RD_15_1.png","img2/300/Incongruent/R/I_Dist_300_LN_4_LD_20_RN_2_RD_4_1.png","img2/200/Congruent/L/C_Dist_200_LN_4_LD_8_RN_3_RD_10_0.png","img2/200/Incongruent/L/I_Dist_200_LN_1_LD_2_RN_3_RD_10_0.png","img2/300/Congruent/R/C_Dist_300_LN_4_LD_20_RN_13_RD_26_1.png","img2/300/Incongruent/R/I_Dist_300_LN_4_LD_20_RN_2_RD_4_1.png","img2/200/Congruent/R/C_Dist_200_LN_3_LD_10_RN_14_RD_28_1.png","img2/200/Incongruent/L/I_Dist_200_LN_7_LD_10_RN_8_RD_16_0.png","img2/300/Incongruent/R/I_Dist_300_LN_4_LD_20_RN_2_RD_4_1.png","img2/300/Incongruent/L/I_Dist_300_LN_7_LD_10_RN_8_RD_20_0.png","img2/200/Incongruent/R/I_Dist_200_LN_3_LD_10_RN_1_RD_2_1.png","img2/200/Incongruent/L/I_Dist_200_LN_1_LD_3_RN_2_RD_15_0.png","img2/300/Congruent/R/C_Dist_300_LN_1_LD_5_RN_6_RD_12_1.png","img2/300/Congruent/L/C_Dist_300_LN_20_LD_25_RN_13_RD_26_0.png","img2/300/Congruent/R/C_Dist_300_LN_2_LD_20_RN_10_RD_25_1.png","img2/300/Incongruent/R/I_Dist_300_LN_13_LD_26_RN_12_RD_15_1.png","img2/300/Congruent/R/C_Dist_300_LN_1_LD_5_RN_11_RD_22_1.png","img2/300/Incongruent/R/I_Dist_300_LN_4_LD_20_RN_2_RD_4_1.png","img2/100/Congruent/R/C_Dist_100_LN_6_LD_12_RN_15_RD_25_1.png","img2/100/Congruent/L/C_Dist_100_LN_3_LD_6_RN_2_RD_5_0.png","img2/200/Incongruent/L/I_Dist_200_LN_7_LD_10_RN_14_RD_28_0.png","img2/100/Congruent/L/C_Dist_100_LN_6_LD_20_RN_5_RD_25_0.png","img2/100/Incongruent/L/I_Dist_100_LN_9_LD_15_RN_13_RD_26_0.png","img2/200/Congruent/L/C_Dist_200_LN_12_LD_15_RN_6_RD_10_0.png","img2/100/Incongruent/L/I_Dist_100_LN_3_LD_6_RN_4_RD_10_0.png","img2/100/Congruent/L/C_Dist_100_LN_10_LD_25_RN_3_RD_10_0.png","img2/100/Incongruent/R/I_Dist_100_LN_11_LD_22_RN_9_RD_15_1.png","img2/200/Incongruent/R/I_Dist_200_LN_7_LD_15_RN_4_RD_6_1.png","img2/100/Incongruent/R/I_Dist_100_LN_12_LD_24_RN_9_RD_15_1.png","img2/200/Incongruent/R/I_Dist_200_LN_11_LD_20_RN_3_RD_4_1.png","img2/300/Congruent/R/C_Dist_300_LN_5_LD_25_RN_7_RD_14_1.png","img2/100/Congruent/L/C_Dist_100_LN_11_LD_22_RN_4_RD_10_0.png","img2/300/Incongruent/R/I_Dist_300_LN_4_LD_20_RN_2_RD_4_1.png","img2/100/Incongruent/L/I_Dist_100_LN_9_LD_15_RN_13_RD_26_0.png","img2/200/Incongruent/L/I_Dist_200_LN_7_LD_10_RN_8_RD_16_0.png","img2/100/Congruent/R/C_Dist_100_LN_4_LD_10_RN_15_RD_30_1.png","img2/100/Congruent/L/C_Dist_100_LN_8_LD_16_RN_2_RD_5_0.png","img2/100/Incongruent/L/I_Dist_100_LN_1_LD_2_RN_8_RD_20_0.png","img2/100/Congruent/L/C_Dist_100_LN_6_LD_20_RN_5_RD_25_0.png","img2/300/Incongruent/R/I_Dist_300_LN_4_LD_20_RN_2_RD_4_1.png","img2/100/Congruent/R/C_Dist_100_LN_2_LD_5_RN_6_RD_12_1.png","img2/200/Congruent/L/C_Dist_200_LN_7_LD_21_RN_2_RD_15_0.png","img2/300/Incongruent/L/I_Dist_300_LN_4_LD_5_RN_8_RD_16_0.png","img2/100/Congruent/R/C_Dist_100_LN_6_LD_12_RN_15_RD_25_1.png","img2/200/Incongruent/R/I_Dist_200_LN_14_LD_30_RN_6_RD_9_1.png","img2/300/Incongruent/L/I_Dist_300_LN_1_LD_2_RN_2_RD_10_0.png","img2/300/Congruent/L/C_Dist_300_LN_24_LD_30_RN_2_RD_4_0.png","img2/300/Congruent/R/C_Dist_300_LN_7_LD_14_RN_20_RD_25_1.png","img2/300/Congruent/R/C_Dist_300_LN_7_LD_14_RN_20_RD_25_1.png","img2/100/Congruent/R/C_Dist_100_LN_4_LD_8_RN_6_RD_10_1.png","img2/200/Congruent/R/C_Dist_200_LN_7_LD_15_RN_18_RD_27_1.png","img2/300/Congruent/R/C_Dist_300_LN_3_LD_12_RN_11_RD_20_1.png"],"dist100_C":[["C_Dist_100_LN_10_LD_25_RN_3_RD_10_0.png","C_Dist_100_LN_11_LD_22_RN_4_RD_10_0.png","C_Dist_100_LN_11_LD_22_RN_6_RD_15_0.png","C_Dist_100_LN_15_LD_25_RN_13_RD_26_0.png","C_Dist_100_LN_3_LD_6_RN_2_RD_5_0.png","C_Dist_100_LN_6_LD_20_RN_5_RD_25_0.png","C_Dist_100_LN_8_LD_16_RN_2_RD_5_0.png","C_Dist_100_LN_9_LD_15_RN_8_RD_16_0.png"],["C_Dist_100_LN_1_LD_2_RN_18_RD_30_1.png","C_Dist_100_LN_1_LD_2_RN_3_RD_5_1.png","C_Dist_100_LN_12_LD_30_RN_13_RD_26_1.png","C_Dist_100_LN_2_LD_5_RN_11_RD_22_1.png","C_Dist_100_LN_2_LD_5_RN_6_RD_12_1.png","C_Dist_100_LN_3_LD_20_RN_4_RD_16_1.png","C_Dist_100_LN_4_LD_10_RN_15_RD_30_1.png","C_Dist_100_LN_4_LD_8_RN_6_RD_10_1.png","C_Dist_100_LN_6_LD_12_RN_15_RD_25_1.png","C_Dist_100_LN_7_LD_14_RN_15_RD_25_1.png","C_Dist_100_LN_7_LD_14_RN_9_RD_15_1.png"]],"dist100_I":[["I_Dist_100_LN_1_LD_2_RN_8_RD_20_0.png","I_Dist_100_LN_2_LD_4_RN_6_RD_15_0.png","I_Dist_100_LN_2_LD_4_RN_8_RD_20_0.png","I_Dist_100_LN_3_LD_5_RN_11_RD_22_0.png","I_Dist_100_LN_3_LD_5_RN_8_RD_16_0.png","I_Dist_100_LN_3_LD_6_RN_4_RD_10_0.png","I_Dist_100_LN_3_LD_9_RN_7_RD_30_0.png","I_Dist_100_LN_4_LD_8_RN_8_RD_20_0.png","I_Dist_100_LN_6_LD_10_RN_11_RD_22_0.png","I_Dist_100_LN_6_LD_10_RN_13_RD_26_0.png","I_Dist_100_LN_6_LD_10_RN_7_RD_14_0.png","I_Dist_100_LN_9_LD_10_RN_20_RD_25_0.png","I_Dist_100_LN_9_LD_15_RN_13_RD_26_0.png","I_Dist_100_LN_9_LD_15_RN_14_RD_28_0.png"],["I_Dist_100_LN_10_LD_25_RN_8_RD_16_1.png","I_Dist_100_LN_10_LD_25_RN_9_RD_18_1.png","I_Dist_100_LN_11_LD_22_RN_9_RD_15_1.png","I_Dist_100_LN_12_LD_24_RN_9_RD_15_1.png","I_Dist_100_LN_12_LD_30_RN_2_RD_4_1.png","I_Dist_100_LN_13_LD_26_RN_12_RD_20_1.png","I_Dist_100_LN_13_LD_26_RN_6_RD_10_1.png","I_Dist_100_LN_17_LD_30_RN_10_RD_15_1.png","I_Dist_100_LN_6_LD_12_RN_3_RD_5_1.png","I_Dist_100_LN_8_LD_16_RN_6_RD_10_1.png","I_Dist_100_LN_8_LD_20_RN_1_RD_2_1.png","I_Dist_100_LN_9_LD_18_RN_6_RD_10_1.png"]],"dist100_S":[["E_Dist_100_LN_2_LD_12_RN_2_RD_30_0.png","E_Dist_100_LN_6_LD_10_RN_6_RD_12_0.png"],["E_Dist_100_LN_6_LD_12_RN_6_RD_10_1.png"]],"dist200_C":[["C_Dist_200_LN_11_LD_22_RN_3_RD_10_0.png","C_Dist_200_LN_12_LD_15_RN_6_RD_10_0.png","C_Dist_200_LN_12_LD_20_RN_6_RD_15_0.png","C_Dist_200_LN_14_LD_28_RN_6_RD_20_0.png","C_Dist_200_LN_15_LD_25_RN_4_RD_10_0.png","C_Dist_200_LN_16_LD_20_RN_12_RD_20_0.png","C_Dist_200_LN_16_LD_30_RN_9_RD_27_0.png","C_Dist_200_LN_20_LD_25_RN_9_RD_15_0.png","C_Dist_200_LN_21_LD_30_RN_2_RD_4_0.png","C_Dist_200_LN_4_LD_10_RN_3_RD_15_0.png","C_Dist_200_LN_4_LD_8_RN_3_RD_10_0.png","C_Dist_200_LN_6_LD_15_RN_3_RD_15_0.png","C_Dist_200_LN_7_LD_21_RN_2_RD_15_0.png","C_Dist_200_LN_8_LD_15_RN_2_RD_6_0.png","C_Dist_200_LN_8_LD_15_RN_3_RD_9_0.png","C_Dist_200_LN_8_LD_15_RN_7_RD_21_0.png","C_Dist_200_LN_9_LD_20_RN_4_RD_16_0.png"],["C_Dist_200_LN_1_LD_2_RN_21_RD_30_1.png","C_Dist_200_LN_13_LD_26_RN_14_RD_20_1.png","C_Dist_200_LN_3_LD_10_RN_11_RD_22_1.png","C_Dist_200_LN_3_LD_10_RN_14_RD_28_1.png","C_Dist_200_LN_3_LD_10_RN_7_RD_14_1.png","C_Dist_200_LN_3_LD_12_RN_9_RD_20_1.png","C_Dist_200_LN_3_LD_6_RN_14_RD_20_1.png","C_Dist_200_LN_5_LD_10_RN_14_RD_20_1.png","C_Dist_200_LN_6_LD_12_RN_7_RD_10_1.png","C_Dist_200_LN_6_LD_20_RN_11_RD_22_1.png","C_Dist_200_LN_7_LD_15_RN_18_RD_27_1.png","C_Dist_200_LN_9_LD_30_RN_13_RD_26_1.png"]],"dist200_I":[["I_Dist_200_LN_1_LD_2_RN_3_RD_10_0.png","I_Dist_200_LN_1_LD_3_RN_2_RD_15_0.png","I_Dist_200_LN_3_LD_4_RN_11_RD_20_0.png","I_Dist_200_LN_4_LD_5_RN_6_RD_10_0.png","I_Dist_200_LN_4_LD_6_RN_14_RD_30_0.png","I_Dist_200_LN_7_LD_10_RN_12_RD_24_0.png","I_Dist_200_LN_7_LD_10_RN_14_RD_28_0.png","I_Dist_200_LN_7_LD_10_RN_8_RD_16_0.png"],["I_Dist_200_LN_11_LD_20_RN_3_RD_4_1.png","I_Dist_200_LN_14_LD_30_RN_12_RD_18_1.png","I_Dist_200_LN_14_LD_30_RN_6_RD_9_1.png","I_Dist_200_LN_3_LD_10_RN_1_RD_2_1.png","I_Dist_200_LN_4_LD_30_RN_1_RD_3_1.png","I_Dist_200_LN_6_LD_20_RN_3_RD_6_1.png","I_Dist_200_LN_7_LD_15_RN_4_RD_6_1.png","I_Dist_200_LN_7_LD_15_RN_6_RD_9_1.png","I_Dist_200_LN_9_LD_15_RN_8_RD_10_1.png"]],"dist200_S":[["E_Dist_200_LN_3_LD_6_RN_3_RD_10_0.png"],["E_Dist_200_LN_3_LD_10_RN_3_RD_6_1.png"]],"dist300_C":[["C_Dist_300_LN_11_LD_22_RN_1_RD_5_0.png","C_Dist_300_LN_11_LD_22_RN_2_RD_10_0.png","C_Dist_300_LN_11_LD_22_RN_4_RD_20_0.png","C_Dist_300_LN_12_LD_24_RN_2_RD_10_0.png","C_Dist_300_LN_18_LD_20_RN_9_RD_15_0.png","C_Dist_300_LN_20_LD_25_RN_13_RD_26_0.png","C_Dist_300_LN_20_LD_25_RN_14_RD_28_0.png","C_Dist_300_LN_20_LD_25_RN_5_RD_10_0.png","C_Dist_300_LN_20_LD_25_RN_8_RD_16_0.png","C_Dist_300_LN_20_LD_25_RN_9_RD_18_0.png","C_Dist_300_LN_24_LD_30_RN_2_RD_4_0.png","C_Dist_300_LN_24_LD_30_RN_8_RD_16_0.png","C_Dist_300_LN_3_LD_6_RN_2_RD_10_0.png","C_Dist_300_LN_4_LD_10_RN_1_RD_10_0.png","C_Dist_300_LN_4_LD_5_RN_2_RD_4_0.png","C_Dist_300_LN_8_LD_16_RN_1_RD_5_0.png","C_Dist_300_LN_9_LD_10_RN_3_RD_5_0.png"],["C_Dist_300_LN_1_LD_20_RN_7_RD_20_1.png","C_Dist_300_LN_1_LD_3_RN_19_RD_30_1.png","C_Dist_300_LN_1_LD_30_RN_8_RD_24_1.png","C_Dist_300_LN_1_LD_5_RN_11_RD_22_1.png","C_Dist_300_LN_1_LD_5_RN_3_RD_6_1.png","C_Dist_300_LN_1_LD_5_RN_6_RD_12_1.png","C_Dist_300_LN_2_LD_10_RN_12_RD_24_1.png","C_Dist_300_LN_2_LD_20_RN_10_RD_25_1.png","C_Dist_300_LN_3_LD_12_RN_11_RD_20_1.png","C_Dist_300_LN_3_LD_6_RN_4_RD_5_1.png","C_Dist_300_LN_4_LD_20_RN_13_RD_26_1.png","C_Dist_300_LN_5_LD_25_RN_6_RD_12_1.png","C_Dist_300_LN_5_LD_25_RN_7_RD_14_1.png","C_Dist_300_LN_7_LD_14_RN_20_RD_25_1.png","C_Dist_300_LN_8_LD_15_RN_10_RD_12_1.png"]],"dist300_I":[["I_Dist_300_LN_1_LD_2_RN_2_RD_10_0.png","I_Dist_300_LN_1_LD_2_RN_3_RD_15_0.png","I_Dist_300_LN_2_LD_4_RN_6_RD_30_0.png","I_Dist_300_LN_3_LD_6_RN_4_RD_20_0.png","I_Dist_300_LN_4_LD_5_RN_6_RD_12_0.png","I_Dist_300_LN_4_LD_5_RN_8_RD_16_0.png","I_Dist_300_LN_7_LD_10_RN_8_RD_20_0.png","I_Dist_300_LN_8_LD_10_RN_14_RD_28_0.png","I_Dist_300_LN_8_LD_10_RN_9_RD_18_0.png"],["I_Dist_300_LN_13_LD_26_RN_12_RD_15_1.png","I_Dist_300_LN_4_LD_20_RN_2_RD_4_1.png"]],"dist300_S":[["E_Dist_300_LN_9_LD_12_RN_9_RD_20_0.png"],["E_Dist_300_LN_18_LD_30_RN_18_RD_20_1.png","E_Dist_300_LN_3_LD_10_RN_3_RD_5_1.png","E_Dist_300_LN_9_LD_20_RN_9_RD_12_1.png"]],"dist500_C":[["C_Dist_500_LN_10_LD_13_RN_7_RD_26_0.png","C_Dist_500_LN_10_LD_15_RN_4_RD_24_0.png","C_Dist_500_LN_12_LD_16_RN_3_RD_12_0.png","C_Dist_500_LN_12_LD_18_RN_4_RD_24_0.png","C_Dist_500_LN_15_LD_18_RN_5_RD_15_0.png","C_Dist_500_LN_15_LD_20_RN_1_RD_4_0.png","C_Dist_500_LN_18_LD_27_RN_1_RD_6_0.png","C_Dist_500_LN_20_LD_24_RN_1_RD_3_0.png","C_Dist_500_LN_20_LD_24_RN_3_RD_9_0.png","C_Dist_500_LN_20_LD_24_RN_7_RD_21_0.png","C_Dist_500_LN_20_LD_28_RN_3_RD_14_0.png","C_Dist_500_LN_21_LD_28_RN_6_RD_24_0.png","C_Dist_500_LN_22_LD_28_RN_2_RD_7_0.png","C_Dist_500_LN_25_LD_30_RN_9_RD_27_0.png","C_Dist_500_LN_4_LD_6_RN_1_RD_6_0.png","C_Dist_500_LN_5_LD_6_RN_2_RD_6_0.png","C_Dist_500_LN_6_LD_9_RN_1_RD_6_0.png","C_Dist_500_LN_7_LD_10_RN_1_RD_5_0.png","C_Dist_500_LN_8_LD_12_RN_1_RD_6_0.png","C_Dist_500_LN_8_LD_12_RN_4_RD_24_0.png"],["C_Dist_500_LN_1_LD_4_RN_12_RD_16_1.png","C_Dist_500_LN_1_LD_4_RN_9_RD_12_1.png","C_Dist_500_LN_1_LD_9_RN_11_RD_18_1.png","C_Dist_500_LN_10_LD_24_RN_22_RD_24_1.png","C_Dist_500_LN_2_LD_12_RN_10_RD_15_1.png","C_Dist_500_LN_2_LD_12_RN_12_RD_18_1.png","C_Dist_500_LN_2_LD_12_RN_4_RD_6_1.png","C_Dist_500_LN_2_LD_24_RN_7_RD_12_1.png","C_Dist_500_LN_2_LD_5_RN_18_RD_20_1.png","C_Dist_500_LN_2_LD_5_RN_9_RD_10_1.png","C_Dist_500_LN_2_LD_8_RN_12_RD_16_1.png","C_Dist_500_LN_2_LD_8_RN_21_RD_28_1.png","C_Dist_500_LN_3_LD_10_RN_4_RD_5_1.png","C_Dist_500_LN_3_LD_12_RN_15_RD_20_1.png","C_Dist_500_LN_3_LD_30_RN_6_RD_10_1.png","C_Dist_500_LN_3_LD_8_RN_14_RD_16_1.png","C_Dist_500_LN_4_LD_16_RN_15_RD_20_1.png","C_Dist_500_LN_4_LD_24_RN_12_RD_18_1.png","C_Dist_500_LN_5_LD_14_RN_6_RD_7_1.png","C_Dist_500_LN_7_LD_21_RN_20_RD_24_1.png","C_Dist_500_LN_7_LD_28_RN_12_RD_16_1.png","C_Dist_500_LN_7_LD_28_RN_9_RD_12_1.png","C_Dist_500_LN_9_LD_27_RN_20_RD_24_1.png"]],"dist500_I":[["I_Dist_500_LN_2_LD_3_RN_4_RD_24_0.png","I_Dist_500_LN_5_LD_6_RN_6_RD_18_0.png","I_Dist_500_LN_7_LD_8_RN_9_RD_24_0.png"],["I_Dist_500_LN_7_LD_21_RN_5_RD_6_1.png"]],"dist500_S":[["E_Dist_500_LN_6_LD_8_RN_6_RD_24_0.png"],["E_Dist_500_LN_2_LD_12_RN_2_RD_3_1.png","E_Dist_500_LN_6_LD_24_RN_6_RD_8_1.png"]]}},{"start_time":1551800580044,"click_time":1551800581177,"finger_time":1551800580757,"fix_duration":665.1575156545298,"trial":1,"RT":713,"MT":420,"sideResp":2,"stimulus":[],"xmouse":[762,762,762,762,762,762,762,762,762,762,762,762,762,762,762,762,762,762,762,762,762,762,762,762,762,762,762,762,762,762,762,763,763,765,768,773,804,812,825,833,843,869,882,896,906,919,935,945,951,953,955,968,975,987,1005,1026,1078],"ymouse":[532,532,532,532,532,532,532,532,532,532,532,532,532,532,532,532,532,532,532,532,532,532,532,532,532,532,532,532,532,526,518,502,493,479,458,433,322,290,249,228,206,166,148,134,123,109,95,84,78,76,76,76,76,76,76,74,61],"timestamp_mouse":[13,41,52,73,93,112,132,152,173,194,213,232,253,273,292,312,332,352,372,393,413,432,454,473,494,512,533,553,572,592,613,632,652,672,692,713,732,754,773,792,813,833,853,872,892,912,932,952,972,993,1014,1032,1052,1072,1093,1113,1133],"xSR":741.5,"ySR":449.15000000000003,"xT1":424.9,"yT1":0,"xT2":1058.1,"yT2":0,"toosoon":0,"cond_shown":"Incongruent","ratio_trial":100,"L_num":9,"L_den":15,"R_num":13,"R_den":26,"correct_side":1,"subjID":"JoanEstebanSeguraGuzman4","gender":"0","school":"6","age":"12"},{"start_time":1551800583536,"click_time":1551800584517,"finger_time":1551800584076,"fix_duration":1278.2446443309925,"trial":2,"RT":540,"MT":441,"sideResp":2,"stimulus":[],"xmouse":[773,773,773,773,773,773,773,773,773,773,773,773,773,773,773,773,773,773,773,773,773,773,773,773,773,776,777,777,776,767,752,743,734,732,732,730,728,724,720,712,703,689,687,687,690,706,760,880,971,1066],"ymouse":[513,513,513,513,513,513,513,513,513,513,513,513,513,513,513,513,513,513,513,513,513,513,513,513,513,503,489,407,382,338,277,254,214,204,196,192,184,176,168,158,149,136,133,133,126,112,85,54,48,46],"timestamp_mouse":[8,21,40,60,81,101,121,141,161,181,201,220,240,260,281,301,321,340,362,382,401,421,442,461,481,501,520,540,561,581,600,622,640,660,681,701,721,740,760,780,801,821,840,860,880,901,921,940,960,980],"xSR":741.5,"ySR":449.15000000000003,"xT1":424.9,"yT1":0,"xT2":1058.1,"yT2":0,"toosoon":0,"cond_shown":"Incongruent","ratio_trial":100,"L_num":3,"L_den":5,"R_num":11,"R_den":22,"correct_side":1,"subjID":"JoanEstebanSeguraGuzman4","gender":"0","school":"6","age":"12"},{"start_time":1551800586001,"click_time":1551800587336,"finger_time":1551800586776,"fix_duration":481.0582951646931,"trial":3,"RT":775,"MT":560,"sideResp":1,"stimulus":[],"xmouse":[760,760,760,760,760,760,760,760,760,760,760,760,760,760,760,760,760,760,760,760,760,760,760,760,760,760,760,760,760,760,760,760,760,760,760,760,760,761,768,777,780,782,782,782,782,782,782,782,775,769,760,746,729,683,663,645,630,621,612,609,600,590,575,548,534,526,523],"ymouse":[521,521,521,521,521,521,521,521,521,521,521,521,521,521,521,521,521,521,521,521,521,521,521,521,521,521,521,521,521,521,521,521,521,521,521,521,522,518,446,308,287,272,263,251,215,200,184,167,141,130,121,109,102,83,75,71,68,67,67,67,68,70,73,76,77,77,76],"timestamp_mouse":[15,40,56,75,96,116,135,155,175,195,215,236,255,276,295,315,335,356,375,396,415,436,456,475,495,515,535,555,576,595,615,637,655,675,696,717,735,755,775,795,815,836,857,875,895,915,935,956,975,996,1015,1035,1056,1075,1095,1115,1136,1155,1176,1196,1215,1236,1256,1276,1295,1316,1335],"xSR":741.5,"ySR":449.15000000000003,"xT1":424.9,"yT1":0,"xT2":1058.1,"yT2":0,"toosoon":0,"cond_shown":"Congruent","ratio_trial":100,"L_num":15,"L_den":25,"R_num":13,"R_den":26,"correct_side":1,"subjID":"JoanEstebanSeguraGuzman4","gender":"0","school":"6","age":"12"},{"start_time":1551800589245,"click_time":1551800590657,"finger_time":1551800590117,"fix_duration":686.101017393202,"trial":4,"RT":872,"MT":540,"sideResp":2,"stimulus":[],"xmouse":[785,785,785,785,785,785,785,785,785,785,785,785,785,785,785,785,785,785,785,785,785,785,785,785,785,785,785,785,785,785,785,785,785,785,785,785,785,785,785,785,785,785,787,794,799,810,809,803,798,794,791,790,789,789,788,788,792,795,798,800,806,836,868,916,965,990,1030,1038,1041,1049,1066],"ymouse":[474,474,474,474,474,474,474,474,474,474,474,474,474,474,474,474,474,474,474,474,474,474,474,474,474,474,474,474,474,474,474,474,474,474,474,474,474,474,474,474,474,474,474,443,409,356,264,247,232,220,213,201,198,197,195,191,167,156,147,141,134,106,84,66,50,43,36,34,33,32,28],"timestamp_mouse":[11,34,52,71,92,111,131,152,171,191,211,232,251,271,292,311,332,351,372,392,411,432,451,471,492,511,531,552,572,592,612,631,652,671,693,712,732,751,771,792,811,831,851,872,891,911,932,952,971,992,1011,1031,1051,1071,1092,1111,1131,1152,1171,1191,1211,1231,1253,1272,1291,1312,1331,1352,1371,1392,1412],"xSR":741.5,"ySR":449.15000000000003,"xT1":424.9,"yT1":0,"xT2":1058.1,"yT2":0,"toosoon":0,"cond_shown":"Congruent","ratio_trial":200,"L_num":3,"L_den":10,"R_num":11,"R_den":22,"correct_side":2,"subjID":"JoanEstebanSeguraGuzman4","gender":"0","school":"6","age":"12"},{"start_time":1551800592254,"click_time":1551800593598,"finger_time":1551800593176,"fix_duration":516.4100819774909,"trial":5,"RT":922,"MT":422,"sideResp":1,"stimulus":[],"xmouse":[774,774,774,774,774,774,774,774,774,774,774,774,774,774,774,774,774,774,774,774,774,774,774,774,774,774,774,774,774,774,774,774,774,774,774,774,774,774,774,774,774,774,774,774,774,777,795,803,811,813,813,809,801,792,784,772,744,733,723,716,703,675,663,646,623,602,546,522],"ymouse":[471,471,471,471,471,471,471,471,471,471,471,471,471,471,471,471,471,471,471,471,471,471,471,471,471,471,471,471,471,471,471,471,471,471,471,471,471,471,471,471,471,471,471,471,466,455,401,364,338,322,295,260,240,218,198,169,115,100,89,82,73,60,58,52,49,46,46,46],"timestamp_mouse":[8,33,43,63,83,102,123,142,162,184,202,222,242,263,284,303,322,342,362,383,402,422,442,463,483,503,522,542,562,582,602,622,642,663,683,703,723,742,762,784,803,822,842,863,883,902,922,942,962,983,1002,1023,1042,1063,1082,1103,1122,1142,1162,1183,1203,1222,1244,1262,1284,1304,1323,1343],"xSR":741.5,"ySR":449.15000000000003,"xT1":424.9,"yT1":0,"xT2":1058.1,"yT2":0,"toosoon":0,"cond_shown":"Congruent","ratio_trial":300,"L_num":11,"L_den":22,"R_num":1,"R_den":5,"correct_side":1,"subjID":"JoanEstebanSeguraGuzman4","gender":"0","school":"6","age":"12"},{"start_time":1551800595244,"click_time":1551800597176,"finger_time":1551800596617,"fix_duration":547.1995065579741,"trial":6,"RT":1373,"MT":559,"sideResp":1,"stimulus":[],"xmouse":[777,777,777,777,777,777,777,777,777,777,777,777,777,777,777,777,777,777,777,777,777,777,777,777,777,777,777,777,777,777,777,777,777,777,777,777,777,777,777,777,777,777,777,777,777,777,777,777,777,777,777,777,777,777,777,777,777,777,777,777,777,777,777,777,777,777,780,784,791,796,796,781,777,774,772,772,766,764,758,751,735,698,679,671,663,655,628,616,605,603,601,590,580,566,550,535,515],"ymouse":[472,472,472,472,472,472,472,472,472,472,472,472,472,472,472,472,472,472,472,472,472,472,472,472,472,472,472,472,472,472,472,472,472,472,472,472,472,472,472,472,472,472,472,472,472,472,472,472,472,472,472,472,472,472,472,472,472,472,472,472,472,472,472,472,472,472,461,451,407,343,277,163,117,78,54,32,14,11,10,7,4,4,6,8,11,17,31,37,42,43,45,50,51,52,54,54,54],"timestamp_mouse":[12,35,52,73,93,112,132,152,172,192,212,232,252,272,294,313,332,352,372,392,413,433,452,472,493,513,532,552,572,592,613,632,654,672,693,713,732,753,772,792,813,832,852,873,892,912,932,952,973,993,1012,1033,1053,1072,1094,1113,1132,1153,1172,1193,1212,1232,1252,1273,1292,1312,1332,1354,1373,1393,1412,1432,1452,1472,1493,1514,1532,1552,1572,1592,1613,1632,1653,1672,1694,1713,1732,1753,1772,1792,1812,1832,1852,1872,1892,1912,1932],"xSR":741.5,"ySR":449.15000000000003,"xT1":424.9,"yT1":0,"xT2":1058.1,"yT2":0,"toosoon":0,"cond_shown":"Congruent","ratio_trial":100,"L_num":11,"L_den":22,"R_num":6,"R_den":15,"correct_side":1,"subjID":"JoanEstebanSeguraGuzman4","gender":"0","school":"6","age":"12"},{"start_time":1551800598670,"click_time":1551800599877,"finger_time":1551800599296,"fix_duration":492.5437541488268,"trial":7,"RT":626,"MT":581,"sideResp":2,"stimulus":[],"xmouse":[755,755,755,755,755,755,755,755,755,755,755,755,755,755,755,755,755,755,755,755,755,755,755,755,755,755,755,755,759,762,775,782,785,787,787,791,797,800,802,804,805,805,805,805,805,805,805,805,805,805,805,805,805,811,828,889,940,997,1038,1056,1063],"ymouse":[510,510,510,510,510,510,510,510,510,510,510,510,510,510,510,510,510,510,510,510,510,510,510,510,510,510,510,510,503,497,461,442,413,375,332,268,248,235,220,199,153,137,129,123,120,116,115,113,111,110,107,107,107,102,94,79,77,77,79,81,81],"timestamp_mouse":[9,39,47,67,88,107,126,147,168,186,206,226,246,267,286,306,326,347,366,387,407,426,447,466,486,506,527,546,566,587,606,626,648,668,687,706,726,746,767,786,807,826,846,866,886,907,927,946,966,986,1007,1027,1047,1067,1086,1106,1126,1146,1166,1187,1207],"xSR":741.5,"ySR":449.15000000000003,"xT1":424.9,"yT1":0,"xT2":1058.1,"yT2":0,"toosoon":0,"cond_shown":"Incongruent","ratio_trial":300,"L_num":13,"L_den":26,"R_num":12,"R_den":15,"correct_side":2,"subjID":"JoanEstebanSeguraGuzman4","gender":"0","school":"6","age":"12"},{"start_time":1551800602280,"click_time":1551800603717,"finger_time":1551800602776,"fix_duration":1341.8124181391195,"trial":8,"RT":496,"MT":941,"sideResp":1,"stimulus":[],"xmouse":[813,813,813,813,813,813,813,813,813,813,813,813,813,813,813,813,813,813,813,813,813,813,813,813,820,823,826,829,831,837,840,846,851,854,855,855,855,856,856,857,859,865,871,882,902,913,918,919,929,942,951,960,965,968,970,970,970,970,969,956,931,883,843,826,699,650,622,599,573,537,527,514],"ymouse":[465,465,465,465,465,465,465,465,465,465,465,465,465,465,465,465,465,465,465,465,465,465,465,461,426,401,380,361,347,322,309,297,282,273,256,254,248,241,235,219,185,167,151,124,96,86,81,81,74,67,63,60,58,57,56,56,56,56,57,61,64,73,83,89,92,92,92,92,92,94,94,94],"timestamp_mouse":[18,37,63,76,96,118,136,156,177,196,218,237,257,277,296,316,336,358,376,396,416,436,456,476,496,517,536,556,576,597,617,637,657,677,696,716,736,757,776,796,816,836,857,876,896,916,937,957,976,997,1018,1037,1056,1077,1097,1116,1136,1156,1176,1196,1217,1237,1256,1276,1296,1316,1336,1356,1377,1396,1416,1437],"xSR":741.5,"ySR":449.15000000000003,"xT1":424.9,"yT1":0,"xT2":1058.1,"yT2":0,"toosoon":0,"cond_shown":"Congruent","ratio_trial":200,"L_num":4,"L_den":8,"R_num":3,"R_den":10,"correct_side":1,"subjID":"JoanEstebanSeguraGuzman4","gender":"0","school":"6","age":"12"},{"start_time":1551800605835,"click_time":1551800606877,"finger_time":1551800606476,"fix_duration":756.904218440734,"trial":9,"RT":641,"MT":401,"sideResp":2,"stimulus":[],"xmouse":[804,804,804,804,804,804,804,804,804,804,804,804,804,804,804,804,804,804,804,804,804,804,804,804,804,802,802,800,799,799,799,798,798,796,794,790,790,792,797,802,810,818,818,818,818,818,818,818,818,818,818,818,1077],"ymouse":[508,508,508,508,508,508,508,508,508,508,508,508,508,508,508,508,508,508,508,508,508,508,508,508,508,506,504,500,490,485,476,462,369,309,245,181,130,64,47,29,13,0,0,0,0,0,0,0,0,0,0,0,4],"timestamp_mouse":[8,21,41,62,82,103,122,141,161,182,201,222,241,263,281,301,321,342,361,381,401,422,442,461,482,502,522,541,561,581,602,621,641,662,682,701,722,742,761,781,802,821,842,862,881,902,922,942,962,982,1001,1022,1042],"xSR":741.5,"ySR":449.15000000000003,"xT1":424.9,"yT1":0,"xT2":1058.1,"yT2":0,"toosoon":0,"cond_shown":"Congruent","ratio_trial":100,"L_num":7,"L_den":14,"R_num":15,"R_den":25,"correct_side":2,"subjID":"JoanEstebanSeguraGuzman4","gender":"0","school":"6","age":"12"},{"start_time":1551800608268,"click_time":1551800609577,"finger_time":1551800609097,"fix_duration":391.8705853616844,"trial":10,"RT":829,"MT":480,"sideResp":2,"stimulus":[],"xmouse":[811,811,811,811,811,811,811,811,811,811,811,811,811,811,811,811,811,811,811,811,811,811,811,811,811,811,811,811,811,811,811,811,811,811,811,811,811,811,811,811,810,809,804,799,791,783,781,778,778,778,780,784,790,798,817,842,863,883,901,920,953,969,985,1006,1022,1070],"ymouse":[478,478,478,478,478,478,478,478,478,478,478,478,478,478,478,478,478,478,478,478,478,478,478,478,478,478,478,478,478,478,478,478,476,474,473,472,472,472,469,466,454,445,431,417,398,351,312,262,237,222,189,174,160,145,119,97,84,72,60,49,34,31,28,26,23,24],"timestamp_mouse":[10,35,50,69,88,108,130,148,169,188,210,230,249,268,289,308,328,348,369,389,408,429,448,469,488,508,528,549,568,588,608,628,648,670,688,708,728,750,769,789,808,829,848,869,888,908,928,948,968,988,1009,1029,1049,1070,1089,1108,1128,1148,1169,1188,1208,1229,1249,1270,1289,1309],"xSR":741.5,"ySR":449.15000000000003,"xT1":424.9,"yT1":0,"xT2":1058.1,"yT2":0,"toosoon":0,"cond_shown":"Incongruent","ratio_trial":100,"L_num":1,"L_den":2,"R_num":8,"R_den":20,"correct_side":1,"subjID":"JoanEstebanSeguraGuzman4","gender":"0","school":"6","age":"12"},{"start_time":1551800614228,"click_time":1551800615297,"finger_time":1551800614917,"fix_duration":250,"trial":11,"RT":689,"MT":380,"sideResp":2,"stimulus":[],"xmouse":[762,762,762,762,762,762,762,762,762,762,762,762,762,762,762,762,762,762,762,762,762,762,762,762,762,762,762,762,762,762,762,764,775,790,797,801,801,801,802,808,816,822,837,847,856,871,890,944,961,978,997,1018,1055,1069],"ymouse":[539,539,539,539,539,539,539,539,539,539,539,539,539,539,539,539,539,539,539,539,539,539,539,539,539,539,539,539,539,539,539,539,518,473,434,397,360,258,231,203,179,161,128,114,104,93,81,64,57,56,54,54,52,54],"timestamp_mouse":[9,39,48,70,89,110,130,150,171,190,210,229,249,270,289,309,329,349,370,390,409,429,449,470,489,509,530,549,569,590,609,629,649,670,689,709,729,750,769,789,810,830,849,870,890,909,929,949,970,989,1010,1031,1050,1069],"xSR":741.5,"ySR":449.15000000000003,"xT1":424.9,"yT1":0,"xT2":1058.1,"yT2":0,"toosoon":0,"cond_shown":"Incongruent","ratio_trial":200,"L_num":7,"L_den":10,"R_num":12,"R_den":24,"correct_side":1,"subjID":"JoanEstebanSeguraGuzman4","gender":"0","school":"6","age":"12"},{"start_time":1551800618814,"click_time":1551800619998,"finger_time":1551800619477,"fix_duration":1135.406757088042,"trial":12,"RT":663,"MT":521,"sideResp":1,"stimulus":[],"xmouse":[771,771,771,771,771,771,771,771,771,771,771,771,771,771,771,771,771,771,771,771,771,771,771,771,771,771,771,771,771,771,771,771,779,791,797,802,802,802,802,802,802,802,800,791,783,772,757,736,644,611,585,567,558,550,550,549,548,545,526,522],"ymouse":[485,485,485,485,485,485,485,485,485,485,485,485,485,485,485,485,485,485,485,485,485,485,485,485,485,485,485,485,485,485,485,485,453,422,398,362,325,293,230,216,205,189,176,149,138,129,122,111,83,73,66,61,60,60,60,60,60,59,59,59],"timestamp_mouse":[8,34,43,65,83,103,125,143,163,184,203,224,243,263,283,303,323,343,363,384,403,424,443,463,483,503,523,543,563,584,604,623,644,663,683,703,723,744,764,784,803,823,843,864,883,904,923,945,964,984,1003,1023,1044,1063,1083,1103,1123,1144,1163,1184],"xSR":741.5,"ySR":449.15000000000003,"xT1":424.9,"yT1":0,"xT2":1058.1,"yT2":0,"toosoon":0,"cond_shown":"Incongruent","ratio_trial":100,"L_num":9,"L_den":10,"R_num":20,"R_den":25,"correct_side":1,"subjID":"JoanEstebanSeguraGuzman4","gender":"0","school":"6","age":"12"},{"start_time":1551800621151,"click_time":1551800623277,"finger_time":1551800622277,"fix_duration":272.1281613320816,"trial":13,"RT":1126,"MT":1000,"sideResp":1,"stimulus":[],"xmouse":[814,814,814,814,814,814,814,814,814,814,814,814,814,814,814,814,814,814,814,814,814,814,814,814,814,814,814,814,814,814,814,814,814,814,814,814,814,814,813,812,812,812,811,811,811,812,812,812,811,811,810,809,809,808,808,808,807,806,804,804,803,797,795,795,795,795,791,788,785,781,778,770,769,767,767,765,765,764,763,763,762,762,762,762,762,762,762,762,761,761,761,761,761,760,760,759,755,752,747,739,730,698,684,659,618,576,485],"ymouse":[519,519,519,519,519,519,519,519,519,519,519,519,519,519,519,519,519,519,519,519,519,519,519,519,519,519,519,519,519,519,519,519,519,519,519,519,519,519,515,510,506,501,500,497,494,491,487,483,480,477,470,461,459,456,454,453,447,442,436,428,417,384,370,354,332,306,279,259,245,232,222,195,189,182,179,176,170,169,167,166,164,163,163,163,163,163,163,161,160,159,159,159,159,157,155,152,145,140,136,128,123,106,100,92,81,74,58],"timestamp_mouse":[9,38,46,67,86,106,126,147,167,187,207,226,246,266,286,306,326,347,366,387,407,426,446,466,486,506,527,547,566,586,606,626,646,666,686,707,726,746,766,786,807,826,846,866,887,907,926,946,967,987,1006,1026,1047,1066,1087,1106,1126,1147,1166,1186,1206,1226,1247,1267,1286,1306,1327,1347,1366,1387,1407,1426,1447,1466,1486,1506,1526,1546,1568,1586,1607,1627,1647,1667,1686,1706,1727,1747,1767,1786,1807,1827,1847,1867,1887,1907,1926,1946,1967,1987,2007,2026,2047,2067,2086,2106,2126],"xSR":741.5,"ySR":449.15000000000003,"xT1":424.9,"yT1":0,"xT2":1058.1,"yT2":0,"toosoon":0,"cond_shown":"Congruent","ratio_trial":200,"L_num":4,"L_den":10,"R_num":3,"R_den":15,"correct_side":1,"subjID":"JoanEstebanSeguraGuzman4","gender":"0","school":"6","age":"12"},{"start_time":1551800625312,"click_time":1551800626777,"finger_time":1551800626398,"fix_duration":1033.8906122622795,"trial":14,"RT":1086,"MT":379,"sideResp":1,"stimulus":[],"xmouse":[812,812,812,812,812,812,812,812,812,812,812,812,812,812,812,812,812,812,812,812,812,812,812,812,812,812,812,812,812,812,812,812,812,812,812,812,812,812,812,812,812,812,812,812,812,812,812,812,812,812,812,812,812,812,812,812,812,812,812,812,812,809,806,801,799,797,790,781,730,691,647,603,551,511],"ymouse":[451,451,451,451,451,451,451,451,451,451,451,451,451,451,451,451,451,451,451,451,451,451,451,451,451,451,451,451,451,451,451,451,451,451,451,451,451,451,451,451,451,451,451,451,451,451,451,451,451,451,451,451,451,451,449,412,377,335,274,250,229,210,201,190,187,186,179,175,156,144,131,118,103,89],"timestamp_mouse":[8,39,45,65,85,106,126,145,165,185,205,225,245,265,285,305,326,347,365,385,406,426,446,465,486,506,525,547,565,586,605,625,645,665,685,705,725,745,765,785,805,825,846,866,885,905,927,947,965,985,1007,1025,1046,1067,1086,1105,1125,1145,1165,1186,1206,1225,1245,1265,1286,1305,1326,1345,1366,1385,1405,1426,1445,1465],"xSR":741.5,"ySR":449.15000000000003,"xT1":424.9,"yT1":0,"xT2":1058.1,"yT2":0,"toosoon":0,"cond_shown":"Incongruent","ratio_trial":100,"L_num":8,"L_den":16,"R_num":6,"R_den":10,"correct_side":2,"subjID":"JoanEstebanSeguraGuzman4","gender":"0","school":"6","age":"12"},{"start_time":1551800629023,"click_time":1551800630158,"finger_time":1551800629677,"fix_duration":645.7790026022057,"trial":15,"RT":654,"MT":481,"sideResp":1,"stimulus":[],"xmouse":[760,760,760,760,760,760,760,760,760,760,760,760,760,760,760,760,760,760,760,760,760,760,760,760,760,760,760,760,768,777,788,801,817,827,833,837,841,845,846,846,845,841,824,821,815,805,794,765,751,735,725,695,601,564,528,501,478],"ymouse":[517,517,517,517,517,517,517,517,517,517,517,517,517,517,517,517,517,517,517,517,517,517,517,517,517,517,517,516,503,492,476,458,428,410,396,383,371,354,348,341,331,317,283,276,271,258,245,220,209,197,192,176,138,123,110,102,95],"timestamp_mouse":[15,34,54,74,95,115,134,154,174,194,216,234,256,274,294,314,334,355,374,395,414,434,454,475,494,514,534,554,574,594,615,634,654,674,694,715,735,754,774,795,814,834,854,874,894,914,934,955,975,994,1014,1034,1054,1076,1095,1114,1135],"xSR":741.5,"ySR":449.15000000000003,"xT1":424.9,"yT1":0,"xT2":1058.1,"yT2":0,"toosoon":0,"cond_shown":"Incongruent","ratio_trial":200,"L_num":14,"L_den":30,"R_num":6,"R_den":9,"correct_side":2,"subjID":"JoanEstebanSeguraGuzman4","gender":"0","school":"6","age":"12"},{"start_time":1551800631974,"click_time":1551800633139,"finger_time":1551800632638,"fix_duration":414.5605437384956,"trial":16,"RT":664,"MT":501,"sideResp":2,"stimulus":[],"xmouse":[814,814,814,814,814,814,814,814,814,814,814,814,814,814,814,814,814,814,814,814,814,814,814,814,814,814,814,814,814,814,814,814,810,805,797,790,785,783,781,772,769,765,760,752,746,740,740,747,748,772,833,854,884,926,949,985,1009,1036,1069],"ymouse":[493,493,493,493,493,493,493,493,493,493,493,493,493,493,493,493,493,493,493,493,493,493,493,493,493,493,493,493,493,493,493,493,473,439,401,343,317,297,285,256,234,221,204,183,165,137,123,113,110,92,62,56,52,52,52,52,53,54,54],"timestamp_mouse":[8,34,43,64,83,103,124,143,163,184,203,223,243,263,284,303,323,344,363,383,403,423,443,464,485,504,523,543,563,583,604,623,643,664,684,703,723,743,765,784,803,823,843,864,883,903,923,944,964,983,1004,1024,1043,1063,1084,1103,1124,1143,1165],"xSR":741.5,"ySR":449.15000000000003,"xT1":424.9,"yT1":0,"xT2":1058.1,"yT2":0,"toosoon":0,"cond_shown":"Congruent","ratio_trial":200,"L_num":6,"L_den":20,"R_num":11,"R_den":22,"correct_side":2,"subjID":"JoanEstebanSeguraGuzman4","gender":"0","school":"6","age":"12"},{"start_time":1551800635410,"click_time":1551800636519,"finger_time":1551800636018,"fix_duration":1092.6676820170753,"trial":17,"RT":608,"MT":501,"sideResp":1,"stimulus":[],"xmouse":[796,795,795,795,795,795,795,795,795,795,795,795,795,795,795,795,794,794,794,794,794,794,794,794,794,794,794,794,794,794,794,794,796,804,803,796,791,785,775,767,759,749,740,718,704,687,669,650,594,578,563,552,549,532,526,522],"ymouse":[463,464,464,465,465,465,465,465,465,465,465,465,465,465,465,465,466,466,466,466,466,466,466,466,466,466,466,466,466,466,423,363,310,237,213,194,180,167,149,137,127,115,106,92,84,74,65,56,43,41,41,40,39,43,44,45],"timestamp_mouse":[9,32,48,67,87,107,127,147,167,188,207,227,248,267,287,307,327,347,367,388,407,428,447,467,487,508,529,547,567,587,608,627,648,667,687,707,727,748,767,788,807,828,847,868,887,907,927,949,967,988,1007,1027,1047,1067,1089,1109],"xSR":741.5,"ySR":449.15000000000003,"xT1":424.9,"yT1":0,"xT2":1058.1,"yT2":0,"toosoon":0,"cond_shown":"Incongruent","ratio_trial":200,"L_num":4,"L_den":5,"R_num":6,"R_den":10,"correct_side":1,"subjID":"JoanEstebanSeguraGuzman4","gender":"0","school":"6","age":"12"},{"start_time":1551800637936,"click_time":1551800639317,"finger_time":1551800638938,"fix_duration":557.2016786134787,"trial":18,"RT":1002,"MT":379,"sideResp":2,"stimulus":[],"xmouse":[806,806,806,806,806,806,806,806,806,806,806,806,806,806,806,806,806,806,806,806,806,806,806,806,806,806,806,806,806,806,806,806,806,806,806,806,806,806,806,806,806,806,806,806,806,806,806,805,804,801,800,793,791,791,793,798,802,818,826,840,856,877,912,925,941,958,976,1018,1046,1083],"ymouse":[533,533,533,533,533,533,533,533,533,533,533,533,533,533,533,533,533,533,533,533,533,533,533,533,533,533,533,533,533,533,533,533,533,533,533,533,533,533,533,533,533,533,533,533,533,533,533,523,497,468,438,388,334,316,293,270,248,203,179,151,127,99,54,39,25,14,8,5,5,5],"timestamp_mouse":[10,21,41,62,82,102,122,141,162,182,201,222,241,262,281,301,321,341,361,381,402,421,442,463,483,502,522,543,562,582,601,621,641,662,681,701,721,742,761,781,801,821,841,861,881,901,921,941,961,981,1002,1022,1041,1061,1081,1101,1121,1141,1161,1181,1201,1222,1241,1262,1282,1302,1321,1341,1361,1381],"xSR":741.5,"ySR":449.15000000000003,"xT1":424.9,"yT1":0,"xT2":1058.1,"yT2":0,"toosoon":0,"cond_shown":"Incongruent","ratio_trial":100,"L_num":13,"L_den":26,"R_num":6,"R_den":10,"correct_side":2,"subjID":"JoanEstebanSeguraGuzman4","gender":"0","school":"6","age":"12"},{"start_time":1551800640817,"click_time":1551800642478,"finger_time":1551800642057,"fix_duration":597.979100952796,"trial":19,"RT":1240,"MT":421,"sideResp":2,"stimulus":[],"xmouse":[809,809,809,809,809,809,809,809,809,809,809,809,809,809,809,809,809,809,809,809,809,809,809,809,809,809,809,809,809,809,809,809,809,809,809,809,809,809,809,809,809,809,809,809,809,809,809,809,809,809,809,809,809,809,809,809,809,809,809,809,809,809,809,809,808,807,807,807,843,870,892,905,917,924,930,942,958,976,1016,1022,1026,1032,1049,1083],"ymouse":[472,472,472,472,472,472,472,472,472,472,472,472,472,472,472,472,472,472,472,472,472,472,472,472,472,472,472,472,472,472,472,472,472,472,472,472,472,472,472,472,472,472,472,472,472,472,472,472,472,472,472,472,472,472,472,472,472,472,472,472,471,461,433,385,363,339,314,281,182,137,111,96,85,82,78,73,67,65,60,59,59,59,59,59],"timestamp_mouse":[5,34,40,61,81,101,121,142,162,181,200,220,240,262,280,300,321,340,360,380,401,420,440,461,481,501,520,540,561,580,600,620,640,660,680,700,720,741,761,781,800,821,840,860,881,901,920,940,960,980,1001,1021,1040,1060,1081,1102,1121,1141,1161,1180,1200,1220,1240,1260,1280,1300,1321,1340,1360,1381,1400,1422,1440,1460,1481,1500,1521,1541,1562,1581,1600,1620,1640,1661],"xSR":741.5,"ySR":449.15000000000003,"xT1":424.9,"yT1":0,"xT2":1058.1,"yT2":0,"toosoon":0,"cond_shown":"Congruent","ratio_trial":200,"L_num":3,"L_den":12,"R_num":9,"R_den":20,"correct_side":2,"subjID":"JoanEstebanSeguraGuzman4","gender":"0","school":"6","age":"12"},{"start_time":1551800643780,"click_time":1551800645397,"finger_time":1551800645038,"fix_duration":420.3720792276479,"trial":20,"RT":1258,"MT":359,"sideResp":1,"stimulus":[],"xmouse":[793,793,793,793,793,793,793,793,793,793,793,793,793,793,793,793,793,793,793,793,793,793,793,793,793,793,793,793,793,793,793,793,793,793,793,793,793,793,793,793,793,793,793,793,793,793,793,793,793,793,793,793,793,793,793,793,793,793,793,793,793,794,794,794,794,789,778,766,746,718,703,687,667,644,606,591,582,579,573,551,524],"ymouse":[489,489,489,489,489,489,489,489,489,489,489,489,489,489,489,489,489,489,489,489,489,489,489,489,489,489,489,489,489,489,489,489,489,489,489,489,489,489,489,489,489,489,489,489,489,489,489,489,489,489,489,489,489,489,489,489,489,489,489,489,489,471,444,420,377,349,313,276,229,178,158,139,125,112,93,84,80,78,76,67,59],"timestamp_mouse":[18,39,58,77,97,117,138,157,178,198,217,238,257,278,297,317,338,357,378,397,417,439,457,478,497,518,538,557,577,597,617,637,658,678,698,717,737,757,777,797,818,839,858,877,898,917,938,959,978,998,1018,1037,1057,1078,1097,1119,1137,1158,1178,1197,1217,1237,1258,1277,1298,1318,1338,1359,1378,1397,1418,1437,1457,1477,1497,1518,1537,1557,1577,1597,1617],"xSR":741.5,"ySR":449.15000000000003,"xT1":424.9,"yT1":0,"xT2":1058.1,"yT2":0,"toosoon":0,"cond_shown":"Incongruent","ratio_trial":200,"L_num":4,"L_den":6,"R_num":14,"R_den":30,"correct_side":1,"subjID":"JoanEstebanSeguraGuzman4","gender":"0","school":"6","age":"12"},{"start_time":1551800647582,"click_time":1551800648818,"finger_time":1551800648358,"fix_duration":1203.5703470770572,"trial":21,"RT":776,"MT":460,"sideResp":1,"stimulus":[],"xmouse":[788,788,788,788,788,788,788,788,788,788,788,788,788,788,788,788,788,788,788,788,788,788,788,788,788,788,788,788,788,788,788,788,788,788,788,788,788,788,788,791,795,802,806,810,811,813,814,812,806,762,739,714,687,664,626,616,606,597,587,558,540,520],"ymouse":[470,470,470,470,470,470,470,470,470,470,470,470,470,470,470,470,470,470,470,470,470,470,470,470,470,470,470,470,470,470,470,470,470,470,470,470,470,460,425,379,356,335,316,298,275,261,248,234,219,181,166,152,141,131,115,109,105,102,97,86,81,76],"timestamp_mouse":[16,35,56,76,95,115,135,155,176,195,215,236,257,275,295,316,335,355,376,395,416,435,456,475,495,515,535,556,575,596,616,635,656,676,696,716,736,756,776,796,815,835,856,876,895,915,935,956,976,995,1015,1035,1055,1075,1095,1115,1136,1155,1176,1195,1216,1236],"xSR":741.5,"ySR":449.15000000000003,"xT1":424.9,"yT1":0,"xT2":1058.1,"yT2":0,"toosoon":0,"cond_shown":"Congruent","ratio_trial":100,"L_num":1,"L_den":2,"R_num":3,"R_den":5,"correct_side":2,"subjID":"JoanEstebanSeguraGuzman4","gender":"0","school":"6","age":"12"},{"start_time":1551800652089,"click_time":1551800653778,"finger_time":1551800653477,"fix_duration":250,"trial":22,"RT":1388,"MT":301,"sideResp":1,"stimulus":[],"xmouse":[807,807,807,807,807,807,807,807,807,807,807,807,807,807,807,807,807,807,807,807,807,807,807,807,807,807,807,807,807,807,807,807,807,807,807,807,807,807,807,807,807,807,807,807,807,807,807,807,807,807,807,807,807,807,807,807,807,807,807,807,807,807,807,807,807,807,807,807,806,800,790,783,776,770,751,742,728,712,691,629,592,551,524,498,477],"ymouse":[460,460,460,460,460,460,460,460,460,460,460,460,460,460,460,460,460,460,460,460,460,460,460,460,460,460,460,460,460,460,460,460,460,460,460,460,460,460,460,460,460,460,460,460,460,460,460,460,460,460,460,460,460,460,460,460,460,460,460,460,460,460,460,460,460,460,460,460,452,405,362,331,309,293,260,249,237,223,210,176,155,136,119,100,82],"timestamp_mouse":[8,30,48,68,88,108,128,148,168,188,208,228,248,269,290,308,328,348,368,389,408,428,448,468,488,508,528,549,568,588,608,628,648,668,688,709,728,748,769,788,810,829,848,869,889,908,928,949,969,988,1008,1029,1048,1069,1088,1108,1128,1148,1169,1188,1209,1229,1250,1268,1288,1308,1328,1348,1369,1388,1408,1428,1448,1468,1488,1508,1528,1548,1568,1588,1608,1629,1648,1668,1688],"xSR":741.5,"ySR":449.15000000000003,"xT1":424.9,"yT1":0,"xT2":1058.1,"yT2":0,"toosoon":0,"cond_shown":"Incongruent","ratio_trial":100,"L_num":3,"L_den":5,"R_num":8,"R_den":16,"correct_side":1,"subjID":"JoanEstebanSeguraGuzman4","gender":"0","school":"6","age":"12"},{"start_time":1551800655954,"click_time":1551800657538,"finger_time":1551800656697,"fix_duration":793.2166926495709,"trial":23,"RT":743,"MT":841,"sideResp":2,"stimulus":[],"xmouse":[841,841,841,841,841,841,841,841,841,841,841,841,841,841,841,841,841,841,841,841,841,841,841,841,841,841,841,841,841,841,841,841,840,839,838,837,837,834,831,830,827,826,826,826,826,826,826,826,826,826,826,828,842,861,886,907,927,949,959,967,970,974,997,1054,1098,1123,1137,1138,1138,1139,1141,1145,1147,1147,1147,1147,1147,1147,1147,1144],"ymouse":[538,538,538,538,538,538,538,538,538,538,538,538,538,538,538,538,538,538,538,538,538,538,538,538,538,538,538,538,538,538,534,510,495,487,475,470,461,449,438,426,417,395,378,359,348,332,295,275,261,246,232,199,173,149,128,114,103,101,100,99,99,100,104,110,112,112,112,112,112,112,112,109,108,108,108,108,108,106,104,96],"timestamp_mouse":[8,37,44,63,83,103,123,143,163,183,203,223,243,263,283,303,323,343,363,383,403,423,443,464,483,503,523,543,563,583,603,623,644,663,684,704,723,743,764,783,803,824,844,864,884,904,923,943,963,984,1003,1023,1043,1063,1083,1103,1123,1144,1164,1183,1204,1223,1243,1263,1284,1304,1324,1344,1364,1384,1404,1423,1443,1464,1484,1504,1523,1543,1563,1584],"xSR":741.5,"ySR":449.15000000000003,"xT1":424.9,"yT1":0,"xT2":1058.1,"yT2":0,"toosoon":0,"cond_shown":"Incongruent","ratio_trial":100,"L_num":8,"L_den":20,"R_num":1,"R_den":2,"correct_side":2,"subjID":"JoanEstebanSeguraGuzman4","gender":"0","school":"6","age":"12"},{"start_time":1551800658628,"click_time":1551800659757,"finger_time":1551800659398,"fix_duration":250,"trial":24,"RT":770,"MT":359,"sideResp":1,"stimulus":[],"xmouse":[798,798,798,798,798,798,798,798,798,798,798,798,798,798,798,798,798,798,798,798,798,798,798,798,798,798,798,798,798,798,798,798,798,798,798,798,798,798,776,753,719,680,604,581,563,552,543,513,509,500,489,478,475,474,473,472,470],"ymouse":[486,486,486,486,486,486,486,486,486,486,486,486,486,486,486,486,486,486,486,486,486,486,486,486,486,486,486,486,486,486,486,486,486,486,486,486,486,486,446,404,345,302,232,210,195,183,171,135,130,125,118,113,111,109,107,104,95],"timestamp_mouse":[9,33,50,69,90,109,129,149,169,189,209,230,250,270,289,309,329,349,369,389,409,429,449,469,489,509,529,549,570,589,610,629,650,669,691,710,730,750,770,789,810,831,849,869,889,909,929,950,969,989,1011,1030,1049,1070,1090,1109,1129],"xSR":741.5,"ySR":449.15000000000003,"xT1":424.9,"yT1":0,"xT2":1058.1,"yT2":0,"toosoon":0,"cond_shown":"Incongruent","ratio_trial":200,"L_num":1,"L_den":2,"R_num":3,"R_den":10,"correct_side":1,"subjID":"JoanEstebanSeguraGuzman4","gender":"0","school":"6","age":"12"},{"start_time":1551800662044,"click_time":1551800663318,"finger_time":1551800662877,"fix_duration":1464.1636114772657,"trial":25,"RT":833,"MT":441,"sideResp":2,"stimulus":[],"xmouse":[756,756,756,756,756,756,756,756,756,756,756,756,756,756,756,756,756,756,756,756,756,756,756,756,756,756,756,756,756,756,756,756,756,756,756,756,756,756,756,758,758,756,756,759,761,764,768,770,772,775,779,792,801,811,822,856,910,930,943,961,982,1029,1043,1063],"ymouse":[490,490,490,490,490,490,490,490,490,490,490,490,490,490,490,490,490,490,490,490,490,490,490,490,490,490,490,490,490,490,490,490,490,490,490,490,490,490,490,485,467,386,352,336,321,307,264,247,230,211,194,162,146,131,118,90,57,48,42,33,24,15,13,12],"timestamp_mouse":[13,33,54,73,94,114,133,154,173,193,213,234,254,273,294,313,333,354,373,393,413,433,454,474,494,514,533,554,573,593,614,634,653,673,694,715,733,754,773,793,813,833,853,874,895,913,933,954,974,995,1015,1033,1054,1074,1094,1114,1133,1154,1174,1193,1213,1233,1253,1274],"xSR":741.5,"ySR":449.15000000000003,"xT1":424.9,"yT1":0,"xT2":1058.1,"yT2":0,"toosoon":0,"cond_shown":"Congruent","ratio_trial":100,"L_num":7,"L_den":14,"R_num":15,"R_den":25,"correct_side":2,"subjID":"JoanEstebanSeguraGuzman4","gender":"0","school":"6","age":"12"},{"start_time":1551800665011,"click_time":1551800666477,"finger_time":1551800665998,"fix_duration":832.0887237546444,"trial":26,"RT":987,"MT":479,"sideResp":1,"stimulus":[],"xmouse":[775,775,775,775,775,775,775,775,775,775,775,775,775,775,775,775,775,775,775,775,775,775,775,775,775,775,775,775,775,775,775,775,775,775,775,775,775,775,775,775,775,775,775,775,775,775,776,777,778,778,780,782,782,782,782,781,776,771,755,746,737,728,718,691,674,651,629,606,563,552,545,537,530,507],"ymouse":[510,510,510,510,510,510,510,510,510,510,510,510,510,510,510,510,510,510,510,510,510,510,510,510,510,510,510,510,510,510,510,510,510,510,510,510,510,510,510,510,510,510,510,510,510,510,508,504,452,430,411,392,373,332,310,287,263,234,171,152,138,126,116,96,89,81,72,66,56,55,54,54,54,54],"timestamp_mouse":[9,39,47,67,87,106,126,147,167,186,207,227,247,266,287,306,326,347,366,387,406,426,447,466,486,507,526,547,566,586,606,626,648,666,686,707,727,747,766,787,806,826,846,866,887,906,926,946,966,987,1006,1027,1047,1067,1087,1106,1127,1148,1166,1186,1206,1227,1246,1267,1286,1306,1326,1346,1366,1387,1406,1426,1446,1466],"xSR":741.5,"ySR":449.15000000000003,"xT1":424.9,"yT1":0,"xT2":1058.1,"yT2":0,"toosoon":0,"cond_shown":"Congruent","ratio_trial":300,"L_num":3,"L_den":6,"R_num":2,"R_den":10,"correct_side":1,"subjID":"JoanEstebanSeguraGuzman4","gender":"0","school":"6","age":"12"},{"start_time":1551800667548,"click_time":1551800668877,"finger_time":1551800668438,"fix_duration":250,"trial":27,"RT":890,"MT":439,"sideResp":1,"stimulus":[],"xmouse":[801,801,801,801,801,801,801,801,801,801,801,801,801,801,801,801,801,801,801,801,801,801,801,801,801,801,801,801,801,801,801,801,801,801,801,801,801,801,801,801,801,807,811,814,816,820,821,817,808,804,799,791,787,783,778,774,765,757,749,738,721,676,656,627,596,567,522],"ymouse":[518,518,518,518,518,518,518,518,518,518,518,518,518,518,518,518,518,518,518,518,518,518,518,518,518,518,518,518,518,518,518,518,518,518,518,518,518,518,518,518,518,502,487,468,449,432,376,325,290,263,242,211,200,189,180,170,153,144,135,127,119,98,88,81,73,66,60],"timestamp_mouse":[9,32,51,70,89,110,130,149,170,189,209,229,249,269,289,310,329,349,370,389,409,429,449,470,489,509,529,549,569,590,610,629,650,669,689,709,729,749,769,789,810,829,850,870,889,909,929,949,970,989,1009,1029,1050,1069,1089,1109,1129,1150,1170,1189,1211,1229,1249,1269,1290,1309,1329],"xSR":741.5,"ySR":449.15000000000003,"xT1":424.9,"yT1":0,"xT2":1058.1,"yT2":0,"toosoon":0,"cond_shown":"Incongruent","ratio_trial":200,"L_num":7,"L_den":10,"R_num":14,"R_den":28,"correct_side":1,"subjID":"JoanEstebanSeguraGuzman4","gender":"0","school":"6","age":"12"},{"start_time":1551800671568,"click_time":1551800672678,"finger_time":1551800672237,"fix_duration":448.17359771994467,"trial":28,"RT":669,"MT":441,"sideResp":1,"stimulus":[],"xmouse":[812,812,812,812,812,812,812,812,812,812,812,812,812,812,812,812,812,812,812,812,812,812,812,812,812,812,812,812,812,812,812,800,789,789,789,789,795,802,806,810,810,808,801,795,784,747,722,676,646,619,580,567,551,535,526,501],"ymouse":[504,504,504,504,504,504,504,504,504,504,504,504,504,504,504,504,504,504,504,504,504,504,504,504,504,504,504,504,504,504,504,480,457,449,436,386,347,321,302,284,251,233,215,202,183,145,129,107,93,83,72,71,71,71,70,70],"timestamp_mouse":[9,42,51,69,89,110,129,151,170,190,209,229,249,270,289,309,329,349,370,389,409,429,449,470,490,509,529,550,569,589,610,630,649,669,689,710,729,750,771,790,809,830,849,870,889,909,929,949,970,990,1011,1029,1049,1069,1089,1110],"xSR":741.5,"ySR":449.15000000000003,"xT1":424.9,"yT1":0,"xT2":1058.1,"yT2":0,"toosoon":0,"cond_shown":"Congruent","ratio_trial":300,"L_num":24,"L_den":30,"R_num":2,"R_den":4,"correct_side":1,"subjID":"JoanEstebanSeguraGuzman4","gender":"0","school":"6","age":"12"},{"start_time":1551800673908,"click_time":1551800675637,"finger_time":1551800674617,"fix_duration":250,"trial":29,"RT":709,"MT":1020,"sideResp":1,"stimulus":[],"xmouse":[799,799,799,799,799,799,799,799,799,799,799,799,799,799,799,799,799,799,799,799,799,799,799,799,799,799,799,799,799,799,799,799,799,801,808,816,822,827,828,836,838,840,841,841,841,841,840,839,829,825,820,817,814,805,804,803,803,800,797,796,794,793,793,797,806,816,826,843,870,884,889,890,892,914,931,951,962,965,965,966,965,945,923,749,659,577,498],"ymouse":[485,485,485,485,485,485,485,485,485,485,485,485,485,485,485,485,485,485,485,485,485,485,485,485,485,485,485,485,485,485,485,485,485,479,460,444,427,416,408,383,376,357,336,306,296,292,287,281,264,258,249,245,239,223,219,218,216,213,207,205,199,190,180,160,149,140,133,120,104,97,96,95,93,87,85,82,82,82,82,82,82,82,82,82,80,78,76],"timestamp_mouse":[10,33,49,69,89,110,131,149,169,189,209,230,250,270,289,310,329,349,369,389,410,429,449,469,489,509,529,550,569,589,610,630,649,669,689,709,730,749,769,789,809,829,850,869,889,910,929,949,969,990,1009,1029,1050,1069,1089,1109,1129,1150,1169,1190,1209,1229,1250,1269,1289,1309,1329,1349,1369,1390,1409,1429,1450,1469,1490,1509,1530,1549,1570,1590,1610,1630,1649,1669,1690,1710,1729],"xSR":741.5,"ySR":449.15000000000003,"xT1":424.9,"yT1":0,"xT2":1058.1,"yT2":0,"toosoon":0,"cond_shown":"Congruent","ratio_trial":100,"L_num":10,"L_den":25,"R_num":3,"R_den":10,"correct_side":1,"subjID":"JoanEstebanSeguraGuzman4","gender":"0","school":"6","age":"12"},{"start_time":1551800677252,"click_time":1551800679018,"finger_time":1551800678698,"fix_duration":574.1472333750669,"trial":30,"RT":1446,"MT":320,"sideResp":2,"stimulus":[],"xmouse":[767,767,767,767,767,767,767,767,767,767,767,767,767,767,767,767,767,767,767,767,767,767,767,767,767,767,767,767,767,767,767,767,767,767,767,767,767,767,767,767,767,767,767,767,767,767,767,767,767,767,767,767,767,767,767,767,767,767,767,767,767,767,767,767,767,767,767,767,767,767,767,767,774,804,848,891,976,999,1023,1029,1050,1087,1095,1096,1096,1096,1096,1098,1101],"ymouse":[478,478,478,478,478,478,478,478,478,478,478,478,478,478,478,478,478,478,478,478,478,478,478,478,478,478,478,478,478,478,478,478,478,478,478,478,478,478,478,478,478,478,478,478,478,478,478,478,478,478,478,478,478,478,478,478,478,478,478,478,478,478,478,478,478,478,478,478,478,478,478,478,433,365,286,235,167,154,144,144,133,111,106,105,105,105,105,103,98],"timestamp_mouse":[10,41,45,67,85,106,126,146,165,185,206,225,245,265,286,305,326,345,366,385,405,425,445,465,486,505,525,545,565,585,606,625,646,666,686,706,725,745,765,785,805,825,845,867,885,906,925,945,965,986,1005,1025,1045,1066,1085,1105,1125,1146,1165,1185,1205,1226,1245,1266,1286,1305,1325,1346,1365,1385,1405,1425,1446,1465,1487,1506,1525,1545,1565,1586,1606,1625,1645,1665,1685,1705,1726,1746,1766],"xSR":741.5,"ySR":449.15000000000003,"xT1":424.9,"yT1":0,"xT2":1058.1,"yT2":0,"toosoon":0,"cond_shown":"Incongruent","ratio_trial":200,"L_num":7,"L_den":10,"R_num":12,"R_den":24,"correct_side":1,"subjID":"JoanEstebanSeguraGuzman4","gender":"0","school":"6","age":"12"},{"start_time":1551800680782,"click_time":1551800681977,"finger_time":1551800681617,"fix_duration":804.657838704379,"trial":31,"RT":835,"MT":360,"sideResp":1,"stimulus":[],"xmouse":[748,748,748,748,748,748,748,748,748,748,748,748,748,748,748,748,748,748,748,748,748,748,748,748,748,748,748,748,748,748,748,748,748,748,748,748,748,748,748,748,748,736,731,730,730,730,730,729,725,719,691,679,668,655,631,614,595,578,561,523],"ymouse":[496,496,496,496,496,496,496,496,496,496,496,496,496,496,496,496,496,496,496,496,496,496,496,496,496,496,496,496,496,496,496,496,496,496,496,496,496,496,496,496,469,388,356,316,247,204,165,137,117,100,57,42,31,17,7,5,5,5,6,12],"timestamp_mouse":[25,40,55,76,95,116,136,155,176,196,215,235,256,276,295,316,335,355,376,395,415,436,455,475,495,515,535,555,575,596,616,637,655,676,695,715,735,756,776,795,815,835,855,876,895,916,935,955,975,995,1016,1035,1055,1076,1095,1115,1135,1156,1176,1195],"xSR":741.5,"ySR":449.15000000000003,"xT1":424.9,"yT1":0,"xT2":1058.1,"yT2":0,"toosoon":0,"cond_shown":"Incongruent","ratio_trial":100,"L_num":1,"L_den":2,"R_num":8,"R_den":20,"correct_side":1,"subjID":"JoanEstebanSeguraGuzman4","gender":"0","school":"6","age":"12"},{"start_time":1551800683914,"click_time":1551800685178,"finger_time":1551800684677,"fix_duration":1195.6383245887034,"trial":32,"RT":763,"MT":501,"sideResp":2,"stimulus":[],"xmouse":[787,787,787,787,787,787,787,787,787,787,787,787,787,787,787,787,787,787,787,787,787,787,787,787,787,787,787,787,787,787,787,787,787,787,787,787,788,791,797,800,803,805,809,818,819,821,824,827,845,857,875,888,904,949,966,990,1018,1035,1047,1047,1047,1047,1047,1063],"ymouse":[514,514,514,514,514,514,514,514,514,514,514,514,514,514,514,514,514,514,514,514,514,514,514,514,514,514,514,514,514,514,514,514,514,514,514,506,495,480,437,410,384,357,329,282,270,257,241,224,171,147,127,106,90,52,43,27,12,5,0,0,0,0,0,5],"timestamp_mouse":[8,33,43,63,83,103,124,143,163,183,204,223,243,263,283,304,323,343,363,384,403,423,443,464,483,503,523,545,563,583,604,624,644,663,683,703,724,744,763,784,805,824,843,863,884,903,924,944,964,984,1003,1023,1043,1063,1083,1104,1124,1144,1163,1183,1203,1223,1243,1263],"xSR":741.5,"ySR":449.15000000000003,"xT1":424.9,"yT1":0,"xT2":1058.1,"yT2":0,"toosoon":0,"cond_shown":"Incongruent","ratio_trial":300,"L_num":4,"L_den":20,"R_num":2,"R_den":4,"correct_side":2,"subjID":"JoanEstebanSeguraGuzman4","gender":"0","school":"6","age":"12"},{"start_time":1551800687419,"click_time":1551800688717,"finger_time":1551800688277,"fix_duration":1218.0629149550161,"trial":33,"RT":858,"MT":440,"sideResp":1,"stimulus":[],"xmouse":[814,814,814,814,814,814,814,814,814,814,814,814,814,814,814,814,814,814,814,814,814,814,814,814,814,814,814,814,814,814,814,814,814,814,814,814,814,814,814,814,814,814,814,814,811,808,805,796,790,787,783,776,767,761,752,745,736,700,682,663,640,618,570,548,524],"ymouse":[524,524,524,524,524,524,524,524,524,524,524,524,524,524,524,524,524,524,524,524,524,524,524,524,524,524,524,524,524,524,524,524,524,524,524,524,524,524,524,522,509,480,426,396,371,353,339,313,299,287,274,259,229,215,197,180,162,113,98,83,69,59,42,36,32],"timestamp_mouse":[20,39,59,79,98,119,138,158,179,198,218,238,258,278,298,318,339,358,378,398,418,439,458,479,499,519,538,558,578,598,619,639,658,678,698,719,738,758,779,798,819,839,858,878,898,918,940,958,979,998,1018,1038,1058,1078,1098,1118,1138,1159,1178,1198,1219,1238,1258,1278,1298],"xSR":741.5,"ySR":449.15000000000003,"xT1":424.9,"yT1":0,"xT2":1058.1,"yT2":0,"toosoon":0,"cond_shown":"Incongruent","ratio_trial":300,"L_num":8,"L_den":10,"R_num":14,"R_den":28,"correct_side":1,"subjID":"JoanEstebanSeguraGuzman4","gender":"0","school":"6","age":"12"},{"start_time":1551800692548,"click_time":1551800693658,"finger_time":1551800693317,"fix_duration":1429.143942597764,"trial":34,"RT":769,"MT":341,"sideResp":1,"stimulus":[],"xmouse":[797,797,797,797,797,797,797,797,797,797,797,797,797,797,797,797,797,797,797,797,797,797,797,797,797,797,797,797,797,797,797,797,797,797,797,797,795,793,790,787,786,768,760,748,737,728,715,709,700,687,676,636,613,590,547,522],"ymouse":[510,510,510,510,510,510,510,510,510,510,510,510,510,510,510,510,510,510,510,510,510,510,510,510,510,510,510,510,510,510,510,510,510,510,510,510,488,455,434,412,391,340,311,290,267,249,219,210,198,183,174,144,132,119,99,84],"timestamp_mouse":[9,38,49,70,90,109,129,149,169,189,210,230,251,269,289,309,329,350,370,389,409,429,450,469,489,509,529,550,569,590,610,630,650,669,689,709,729,750,769,789,810,830,850,869,889,909,929,949,969,989,1010,1029,1049,1069,1089,1110],"xSR":741.5,"ySR":449.15000000000003,"xT1":424.9,"yT1":0,"xT2":1058.1,"yT2":0,"toosoon":0,"cond_shown":"Incongruent","ratio_trial":100,"L_num":9,"L_den":15,"R_num":14,"R_den":28,"correct_side":1,"subjID":"JoanEstebanSeguraGuzman4","gender":"0","school":"6","age":"12"},{"start_time":1551800695669,"click_time":1551800697318,"finger_time":1551800697017,"fix_duration":1130.865852838465,"trial":35,"RT":1348,"MT":301,"sideResp":1,"stimulus":[],"xmouse":[788,788,788,788,788,788,788,788,788,788,788,788,788,788,788,788,788,788,788,788,788,788,788,788,788,788,788,788,788,788,788,788,788,788,788,788,788,788,788,788,788,788,788,788,788,788,788,788,788,788,788,788,788,788,788,788,788,788,788,788,788,788,788,788,788,788,788,786,780,777,739,710,687,676,664,653,651,643,627,610,566,538,515],"ymouse":[494,494,494,494,494,494,494,494,494,494,494,494,494,494,494,494,494,494,494,494,494,494,494,494,494,494,494,494,494,494,494,494,494,494,494,494,494,494,494,494,494,494,494,494,494,494,494,494,494,494,494,494,494,494,494,494,494,494,494,494,494,494,494,494,494,494,486,429,380,349,218,146,102,83,68,52,51,48,44,39,25,19,16],"timestamp_mouse":[8,39,49,68,88,109,128,148,168,188,209,228,248,270,289,308,329,348,370,388,409,430,449,469,488,508,529,549,568,588,608,629,648,668,688,708,729,748,768,789,809,829,849,869,888,908,928,948,968,988,1008,1028,1048,1069,1088,1108,1129,1148,1168,1189,1208,1228,1249,1268,1288,1308,1329,1348,1369,1388,1408,1429,1448,1468,1489,1508,1529,1548,1569,1588,1609,1628,1648],"xSR":741.5,"ySR":449.15000000000003,"xT1":424.9,"yT1":0,"xT2":1058.1,"yT2":0,"toosoon":0,"cond_shown":"Congruent","ratio_trial":300,"L_num":20,"L_den":25,"R_num":9,"R_den":18,"correct_side":1,"subjID":"JoanEstebanSeguraGuzman4","gender":"0","school":"6","age":"12"},{"start_time":1551800698862,"click_time":1551800700178,"finger_time":1551800699758,"fix_duration":783.2139222387815,"trial":36,"RT":896,"MT":420,"sideResp":2,"stimulus":[],"xmouse":[782,782,782,782,782,782,782,782,782,782,782,782,782,782,782,782,782,782,782,782,782,782,782,782,782,782,782,782,782,782,782,782,782,782,782,782,782,782,782,782,784,787,788,789,790,790,790,792,793,797,806,811,815,819,824,838,849,859,875,896,928,940,951,975,1008,1099],"ymouse":[504,504,504,504,504,504,504,504,504,504,504,504,504,504,504,504,504,504,504,504,504,504,504,504,504,504,504,504,504,504,504,504,504,504,504,504,504,504,503,500,493,480,475,466,447,419,406,392,378,364,323,304,284,265,246,190,151,126,107,95,77,73,72,69,69,69],"timestamp_mouse":[15,35,56,76,95,115,135,155,176,196,215,235,255,277,296,315,335,356,376,395,415,436,455,475,496,515,535,555,575,596,615,637,655,676,695,715,736,756,776,795,815,835,856,876,895,916,936,955,976,995,1016,1035,1056,1077,1096,1115,1135,1156,1176,1196,1215,1236,1256,1275,1296,1316],"xSR":741.5,"ySR":449.15000000000003,"xT1":424.9,"yT1":0,"xT2":1058.1,"yT2":0,"toosoon":0,"cond_shown":"Incongruent","ratio_trial":300,"L_num":4,"L_den":20,"R_num":2,"R_den":4,"correct_side":2,"subjID":"JoanEstebanSeguraGuzman4","gender":"0","school":"6","age":"12"},{"start_time":1551800702377,"click_time":1551800704257,"finger_time":1551800703937,"fix_duration":1197.7761150944823,"trial":37,"RT":1560,"MT":320,"sideResp":1,"stimulus":[],"xmouse":[807,807,807,807,807,807,807,807,807,807,807,807,807,807,807,807,807,807,807,807,807,807,807,807,807,807,807,807,807,807,807,807,807,807,807,807,807,807,807,807,807,807,807,807,807,807,807,807,807,807,807,807,807,807,807,807,807,807,807,807,807,807,807,807,807,807,807,807,807,807,807,807,807,807,807,807,807,804,791,780,732,706,681,659,638,606,606,606,606,606,606,606,606,606,488],"ymouse":[509,509,509,509,509,509,509,509,509,509,509,509,509,509,509,509,509,509,509,509,509,509,509,509,509,509,509,509,509,509,509,509,509,509,509,509,509,509,509,509,509,509,509,509,509,509,509,509,509,509,509,509,509,509,509,509,509,509,509,509,509,509,509,509,509,509,509,509,509,509,509,509,509,509,509,509,504,466,366,295,146,101,74,51,33,4,4,4,4,4,4,4,4,4,3],"timestamp_mouse":[8,20,41,64,80,100,121,140,160,181,201,221,240,260,280,300,321,340,362,380,400,421,442,460,480,500,520,541,560,580,600,621,641,661,680,700,721,741,760,781,801,820,841,862,881,900,920,941,960,980,1000,1020,1041,1060,1081,1100,1120,1141,1160,1181,1200,1220,1240,1260,1281,1300,1321,1341,1361,1381,1400,1421,1441,1460,1480,1500,1520,1541,1560,1580,1600,1620,1640,1662,1680,1700,1721,1740,1761,1780,1801,1821,1840,1860,1880],"xSR":741.5,"ySR":449.15000000000003,"xT1":424.9,"yT1":0,"xT2":1058.1,"yT2":0,"toosoon":0,"cond_shown":"Congruent","ratio_trial":200,"L_num":7,"L_den":21,"R_num":2,"R_den":15,"correct_side":1,"subjID":"JoanEstebanSeguraGuzman4","gender":"0","school":"6","age":"12"},{"start_time":1551800705970,"click_time":1551800707777,"finger_time":1551800707517,"fix_duration":770.236335721697,"trial":38,"RT":1547,"MT":260,"sideResp":1,"stimulus":[],"xmouse":[781,781,781,781,781,781,781,781,781,781,781,781,781,781,781,781,781,781,781,781,781,781,781,781,781,781,781,781,781,781,781,781,781,781,781,781,781,781,781,781,781,781,781,781,781,781,781,781,781,781,781,781,781,781,781,781,781,781,781,781,781,781,781,781,781,781,781,781,781,781,781,781,781,781,781,781,781,780,777,762,697,685,671,662,653,634,622,605,587,567,520],"ymouse":[491,491,491,491,491,491,491,491,491,491,491,491,491,491,491,491,491,491,491,491,491,491,491,491,491,491,491,491,491,491,491,491,491,491,491,491,491,491,491,491,491,491,491,491,491,491,491,491,491,491,491,491,491,491,491,491,491,491,491,491,491,491,491,491,491,491,491,491,491,491,491,491,491,491,491,491,491,449,413,325,133,108,88,74,64,50,44,36,31,26,17],"timestamp_mouse":[8,40,47,67,87,107,127,147,167,188,207,227,248,267,288,307,327,347,367,387,407,427,448,468,488,508,527,547,567,587,607,628,647,667,688,707,727,747,768,788,807,827,847,868,887,907,928,948,967,988,1007,1028,1047,1067,1088,1107,1127,1148,1167,1187,1207,1227,1248,1267,1287,1308,1328,1348,1368,1387,1407,1428,1447,1467,1487,1507,1528,1547,1568,1587,1607,1627,1647,1667,1688,1707,1728,1747,1768,1788,1807],"xSR":741.5,"ySR":449.15000000000003,"xT1":424.9,"yT1":0,"xT2":1058.1,"yT2":0,"toosoon":0,"cond_shown":"Congruent","ratio_trial":100,"L_num":6,"L_den":20,"R_num":5,"R_den":25,"correct_side":1,"subjID":"JoanEstebanSeguraGuzman4","gender":"0","school":"6","age":"12"},{"start_time":1551800709291,"click_time":1551800710477,"finger_time":1551800710138,"fix_duration":351.877650529031,"trial":39,"RT":847,"MT":339,"sideResp":2,"stimulus":[],"xmouse":[776,776,776,776,776,776,776,776,776,776,776,776,776,776,776,776,776,776,776,776,776,776,776,776,776,776,776,776,776,776,776,776,776,776,776,776,776,776,776,780,788,792,794,797,818,840,850,861,871,899,918,935,947,959,975,986,1005,1026,1052,1091],"ymouse":[517,517,517,517,517,517,517,517,517,517,517,517,517,517,517,517,517,517,517,517,517,517,517,517,517,517,517,517,517,517,517,517,517,517,517,517,517,517,517,507,488,466,447,423,331,267,228,209,185,149,130,118,109,101,95,94,91,87,87,86],"timestamp_mouse":[10,33,46,67,87,107,126,148,167,186,206,226,247,267,286,306,327,346,367,386,407,427,447,466,487,506,526,546,566,586,607,627,646,667,686,706,726,746,766,786,807,827,847,866,886,908,928,946,968,986,1007,1026,1047,1067,1086,1106,1126,1146,1166,1186],"xSR":741.5,"ySR":449.15000000000003,"xT1":424.9,"yT1":0,"xT2":1058.1,"yT2":0,"toosoon":0,"cond_shown":"Incongruent","ratio_trial":300,"L_num":4,"L_den":20,"R_num":2,"R_den":4,"correct_side":2,"subjID":"JoanEstebanSeguraGuzman4","gender":"0","school":"6","age":"12"},{"start_time":1551800712799,"click_time":1551800714119,"finger_time":1551800713717,"fix_duration":1461.818624760116,"trial":40,"RT":918,"MT":402,"sideResp":1,"stimulus":[],"xmouse":[775,775,775,775,775,775,775,775,775,775,775,775,775,775,775,775,775,775,775,775,775,775,775,775,775,775,775,775,775,775,775,775,775,775,775,775,775,775,775,775,775,775,775,775,780,782,783,787,793,793,789,786,780,768,758,750,739,726,677,652,629,618,618,618,527,519],"ymouse":[499,499,499,499,499,499,499,499,499,499,499,499,499,499,499,499,499,499,499,499,499,499,499,499,499,499,499,499,499,499,499,499,499,499,499,499,499,499,499,499,499,499,499,495,468,441,410,370,281,254,228,215,200,168,148,130,113,94,40,21,6,2,2,2,3,7],"timestamp_mouse":[19,39,59,78,99,118,139,158,179,198,219,238,258,278,299,318,340,358,378,399,418,438,458,478,499,518,538,558,578,598,618,638,658,678,698,718,738,758,778,798,818,838,858,878,899,918,938,959,978,998,1018,1038,1058,1078,1099,1119,1138,1158,1178,1198,1218,1239,1259,1278,1298,1319],"xSR":741.5,"ySR":449.15000000000003,"xT1":424.9,"yT1":0,"xT2":1058.1,"yT2":0,"toosoon":0,"cond_shown":"Congruent","ratio_trial":300,"L_num":12,"L_den":24,"R_num":2,"R_den":10,"correct_side":1,"subjID":"JoanEstebanSeguraGuzman4","gender":"0","school":"6","age":"12"},{"start_time":1551800715972,"click_time":1551800717977,"finger_time":1551800717477,"fix_duration":1232.2136325955605,"trial":41,"RT":1505,"MT":500,"sideResp":1,"stimulus":[],"xmouse":[799,799,799,799,799,799,799,799,799,799,799,799,799,799,799,799,799,799,799,799,799,799,799,799,799,799,799,799,799,799,799,799,799,799,799,799,799,799,799,799,799,799,799,799,799,799,799,799,799,799,799,799,799,799,799,799,799,799,799,799,799,799,799,799,799,801,805,806,808,810,811,811,811,811,811,809,808,807,806,806,806,806,806,802,793,772,758,743,728,710,670,649,632,609,582,544,522,505,491,484,482],"ymouse":[529,529,529,529,529,529,529,529,529,529,529,529,529,529,529,529,529,529,529,529,529,529,529,529,529,529,529,529,529,529,529,529,529,529,529,529,529,529,529,529,529,529,529,529,529,529,529,529,529,529,529,529,529,529,529,529,529,529,529,529,529,529,529,529,529,522,507,499,488,478,465,462,459,456,454,444,443,440,437,434,415,403,379,355,320,239,215,192,176,155,131,126,122,120,118,118,116,111,106,102,99],"timestamp_mouse":[8,36,45,66,85,106,125,145,165,185,205,225,245,265,286,306,325,346,365,385,405,425,445,465,485,505,526,546,565,586,606,625,645,665,685,705,725,745,765,785,806,826,845,866,885,905,925,945,966,986,1005,1025,1045,1067,1085,1105,1126,1146,1165,1186,1205,1225,1245,1267,1285,1305,1326,1347,1365,1386,1405,1426,1445,1466,1485,1505,1525,1545,1566,1586,1606,1625,1645,1665,1686,1705,1726,1746,1765,1785,1805,1825,1845,1865,1886,1905,1925,1945,1966,1986,2005],"xSR":741.5,"ySR":449.15000000000003,"xT1":424.9,"yT1":0,"xT2":1058.1,"yT2":0,"toosoon":0,"cond_shown":"Incongruent","ratio_trial":300,"L_num":4,"L_den":5,"R_num":6,"R_den":12,"correct_side":1,"subjID":"JoanEstebanSeguraGuzman4","gender":"0","school":"6","age":"12"},{"start_time":1551800719487,"click_time":1551800720878,"finger_time":1551800720617,"fix_duration":809.8149828219435,"trial":42,"RT":1130,"MT":261,"sideResp":1,"stimulus":[],"xmouse":[779,779,779,779,779,779,779,779,779,779,779,779,779,779,779,779,779,779,779,779,779,779,779,779,779,779,779,779,779,779,779,779,779,779,779,779,779,779,779,779,779,779,779,779,779,779,779,779,779,779,779,777,776,775,773,772,772,772,772,769,769,768,762,750,706,679,639,585,565,488],"ymouse":[521,521,521,521,521,521,521,521,521,521,521,521,521,521,521,521,521,521,521,521,521,521,521,521,521,521,521,521,521,521,521,521,521,521,521,521,521,521,521,521,521,521,521,521,521,521,521,521,521,514,492,482,476,471,466,459,446,423,398,355,341,321,290,236,152,126,102,80,72,51],"timestamp_mouse":[10,40,50,70,90,110,130,150,171,191,211,231,250,271,290,311,331,351,371,390,411,431,450,471,490,510,531,552,570,590,611,630,651,670,690,710,730,751,771,790,810,831,850,871,890,910,930,951,971,990,1011,1031,1050,1070,1090,1111,1130,1150,1170,1190,1210,1230,1250,1270,1290,1310,1330,1351,1370,1391],"xSR":741.5,"ySR":449.15000000000003,"xT1":424.9,"yT1":0,"xT2":1058.1,"yT2":0,"toosoon":0,"cond_shown":"Congruent","ratio_trial":200,"L_num":14,"L_den":28,"R_num":6,"R_den":20,"correct_side":1,"subjID":"JoanEstebanSeguraGuzman4","gender":"0","school":"6","age":"12"},{"start_time":1551800722303,"click_time":1551800723438,"finger_time":1551800723077,"fix_duration":523.1226691363357,"trial":43,"RT":774,"MT":361,"sideResp":2,"stimulus":[],"xmouse":[781,781,781,781,781,781,781,781,781,781,781,781,781,781,781,781,781,781,781,781,781,781,781,781,781,781,781,781,781,781,781,781,781,781,781,782,783,783,778,770,764,757,754,748,748,756,768,785,823,833,852,867,889,993,1029,1056,1072],"ymouse":[508,508,508,508,508,508,508,508,508,508,508,508,508,508,508,508,508,508,508,508,508,508,508,508,508,508,508,508,508,508,508,508,508,508,508,508,501,476,434,405,373,340,295,209,163,135,110,84,47,40,28,23,15,3,3,5,11],"timestamp_mouse":[14,35,55,74,94,115,134,155,174,195,215,235,255,274,295,314,335,354,374,394,414,435,455,474,495,515,534,554,574,595,615,635,654,674,695,714,735,754,774,794,814,834,854,874,894,915,934,955,975,994,1015,1034,1054,1075,1094,1114,1135],"xSR":741.5,"ySR":449.15000000000003,"xT1":424.9,"yT1":0,"xT2":1058.1,"yT2":0,"toosoon":0,"cond_shown":"Congruent","ratio_trial":200,"L_num":6,"L_den":20,"R_num":11,"R_den":22,"correct_side":2,"subjID":"JoanEstebanSeguraGuzman4","gender":"0","school":"6","age":"12"},{"start_time":1551800725207,"click_time":1551800727218,"finger_time":1551800726797,"fix_duration":868.5227534395534,"trial":44,"RT":1590,"MT":421,"sideResp":1,"stimulus":[],"xmouse":[793,793,793,793,793,793,793,793,793,793,793,793,793,793,793,793,793,793,793,793,793,793,793,793,793,793,793,793,793,793,793,793,793,793,793,793,793,793,793,793,793,793,793,793,793,793,793,793,793,793,793,793,793,793,793,793,793,793,793,793,793,793,793,793,793,793,793,793,793,793,793,793,793,793,793,793,793,793,793,792,778,774,763,731,712,687,642,569,419,376,351,341,341,341,341,341,341,341,367,423,469],"ymouse":[474,474,474,474,474,474,474,474,474,474,474,474,474,474,474,474,474,474,474,474,474,474,474,474,474,474,474,474,474,474,474,474,474,474,474,474,474,474,474,474,474,474,474,474,474,474,474,474,474,474,474,474,474,474,474,474,474,474,474,474,474,474,474,474,474,474,474,474,474,474,474,474,474,474,474,474,474,474,473,420,378,340,287,207,179,154,125,96,39,21,8,4,4,4,4,4,4,4,7,28,43],"timestamp_mouse":[12,39,51,70,91,110,132,151,170,191,210,230,251,270,292,310,331,350,370,390,412,431,450,470,490,511,530,551,570,590,610,630,650,670,690,710,730,750,770,791,810,830,850,870,890,910,931,951,970,991,1011,1032,1050,1070,1091,1111,1130,1151,1170,1191,1210,1230,1250,1270,1290,1310,1330,1350,1370,1390,1410,1430,1451,1470,1490,1510,1531,1551,1570,1590,1610,1632,1650,1670,1691,1710,1730,1751,1770,1791,1811,1830,1850,1871,1891,1911,1931,1950,1970,1991,2010],"xSR":741.5,"ySR":449.15000000000003,"xT1":424.9,"yT1":0,"xT2":1058.1,"yT2":0,"toosoon":0,"cond_shown":"Incongruent","ratio_trial":100,"L_num":4,"L_den":8,"R_num":8,"R_den":20,"correct_side":1,"subjID":"JoanEstebanSeguraGuzman4","gender":"0","school":"6","age":"12"},{"start_time":1551800729250,"click_time":1551800730778,"finger_time":1551800730497,"fix_duration":1130.5679177572758,"trial":45,"RT":1247,"MT":281,"sideResp":1,"stimulus":[],"xmouse":[780,780,780,780,780,780,780,780,780,780,780,780,780,780,780,780,780,780,780,780,780,780,780,780,780,780,780,780,780,780,780,780,780,780,780,780,780,780,780,780,780,780,780,780,780,780,780,780,780,780,780,780,780,780,780,780,780,780,780,780,780,781,782,782,782,779,748,735,720,700,675,626,607,587,565,545,507],"ymouse":[498,498,498,498,498,498,498,498,498,498,498,498,498,498,498,498,498,498,498,498,498,498,498,498,498,498,498,498,498,498,498,498,498,498,498,498,498,498,498,498,498,498,498,498,498,498,498,498,498,498,498,498,498,498,498,498,498,498,498,498,498,490,447,409,382,355,264,239,218,194,169,130,118,110,97,84,51],"timestamp_mouse":[10,41,48,68,88,108,127,148,167,187,207,227,247,267,287,308,327,347,368,389,408,427,448,468,488,508,528,547,567,588,607,627,647,667,688,707,727,747,767,787,807,827,847,867,887,907,927,948,967,987,1007,1027,1049,1068,1087,1108,1127,1147,1168,1189,1207,1227,1247,1268,1287,1307,1327,1348,1367,1387,1408,1428,1448,1467,1487,1508,1527],"xSR":741.5,"ySR":449.15000000000003,"xT1":424.9,"yT1":0,"xT2":1058.1,"yT2":0,"toosoon":0,"cond_shown":"Congruent","ratio_trial":100,"L_num":11,"L_den":22,"R_num":6,"R_den":15,"correct_side":1,"subjID":"JoanEstebanSeguraGuzman4","gender":"0","school":"6","age":"12"},{"start_time":1551800732080,"click_time":1551800733578,"finger_time":1551800733277,"fix_duration":601.3169640249099,"trial":46,"RT":1197,"MT":301,"sideResp":1,"stimulus":[],"xmouse":[784,784,784,784,784,784,784,784,784,784,784,784,784,784,784,784,784,784,784,784,784,784,784,784,784,784,784,784,784,784,784,784,784,784,784,784,784,784,784,784,784,784,784,784,784,784,784,784,784,784,784,784,784,784,784,784,783,782,781,775,773,769,753,744,702,685,669,653,636,607,588,566,550,542,520],"ymouse":[512,512,512,512,512,512,512,512,512,512,512,512,512,512,512,512,512,512,512,512,512,512,512,512,512,512,512,512,512,512,512,512,512,512,512,512,512,512,512,512,512,512,512,512,512,512,512,512,512,512,512,512,512,512,512,512,512,494,463,417,389,359,301,268,179,156,141,127,117,99,85,73,64,59,51],"timestamp_mouse":[17,41,57,77,97,119,137,157,177,197,218,237,257,278,297,317,337,357,379,397,417,437,457,477,497,518,537,557,577,597,617,637,657,677,697,718,737,757,777,798,817,837,857,877,897,917,937,957,977,997,1018,1037,1058,1077,1097,1118,1137,1158,1178,1197,1218,1237,1262,1277,1297,1317,1337,1358,1378,1397,1417,1437,1457,1478,1497],"xSR":741.5,"ySR":449.15000000000003,"xT1":424.9,"yT1":0,"xT2":1058.1,"yT2":0,"toosoon":0,"cond_shown":"Congruent","ratio_trial":300,"L_num":8,"L_den":16,"R_num":1,"R_den":5,"correct_side":1,"subjID":"JoanEstebanSeguraGuzman4","gender":"0","school":"6","age":"12"},{"start_time":1551800734748,"click_time":1551800736076,"finger_time":1551800735697,"fix_duration":470.27545481503864,"trial":47,"RT":949,"MT":379,"sideResp":2,"stimulus":[],"xmouse":[794,794,794,794,794,794,794,794,794,794,794,794,794,794,794,794,794,794,794,794,794,794,794,794,794,794,794,794,794,794,794,794,794,794,794,794,794,794,794,794,794,794,795,795,795,794,794,796,798,799,799,799,799,799,799,799,817,829,848,871,896,947,972,999,1023,1044,1060],"ymouse":[495,495,495,495,495,495,495,495,495,495,495,495,495,495,495,495,495,495,495,495,495,495,495,495,495,495,495,495,495,495,495,495,495,495,495,495,495,495,495,495,495,496,489,484,477,471,453,432,404,370,342,251,223,194,165,138,99,85,71,59,49,34,32,32,32,32,33],"timestamp_mouse":[8,33,48,69,90,108,128,150,168,188,209,228,249,269,289,309,329,348,368,390,408,428,450,469,489,508,528,549,568,589,609,628,649,669,688,710,728,748,770,789,808,828,850,869,889,908,928,949,969,990,1009,1030,1048,1068,1089,1109,1129,1149,1168,1189,1210,1229,1248,1269,1289,1308,1328],"xSR":741.5,"ySR":449.15000000000003,"xT1":424.9,"yT1":0,"xT2":1058.1,"yT2":0,"toosoon":0,"cond_shown":"Congruent","ratio_trial":200,"L_num":3,"L_den":10,"R_num":14,"R_den":28,"correct_side":2,"subjID":"JoanEstebanSeguraGuzman4","gender":"0","school":"6","age":"12"},{"start_time":1551800737438,"click_time":1551800739117,"finger_time":1551800738277,"fix_duration":499.5042783345076,"trial":48,"RT":839,"MT":840,"sideResp":1,"stimulus":[],"xmouse":[796,796,796,796,796,796,796,796,796,796,796,796,796,796,796,796,796,796,796,796,796,796,796,796,796,796,796,796,796,796,796,796,796,796,796,796,796,796,796,795,792,788,785,785,784,782,781,778,778,778,778,777,777,777,777,777,777,777,777,777,777,777,777,777,777,777,777,776,776,786,786,785,756,723,681,638,604,549,547,543,538,532,520,512,502],"ymouse":[479,479,479,479,479,479,479,479,479,479,479,479,479,479,479,479,479,479,479,479,479,479,479,479,479,479,479,479,479,479,479,479,479,479,479,479,479,479,479,473,466,453,447,445,443,441,439,432,430,429,429,428,428,428,428,428,428,428,428,428,428,426,425,425,425,425,424,404,358,274,192,159,121,98,75,51,30,2,2,1,0,0,0,0,1],"timestamp_mouse":[1,18,39,58,78,98,119,138,158,178,198,218,239,260,279,300,319,338,358,380,399,418,439,458,478,499,519,538,559,579,598,618,639,658,678,699,718,738,758,778,800,818,839,859,878,899,920,938,959,978,998,1019,1039,1059,1079,1099,1118,1139,1160,1179,1199,1218,1239,1259,1279,1300,1319,1339,1358,1378,1398,1419,1438,1459,1480,1499,1519,1538,1558,1579,1598,1620,1639,1660,1679],"xSR":741.5,"ySR":449.15000000000003,"xT1":424.9,"yT1":0,"xT2":1058.1,"yT2":0,"toosoon":0,"cond_shown":"Incongruent","ratio_trial":200,"L_num":4,"L_den":6,"R_num":14,"R_den":30,"correct_side":1,"subjID":"JoanEstebanSeguraGuzman4","gender":"0","school":"6","age":"12"},{"start_time":1551800740157,"click_time":1551800741598,"finger_time":1551800741376,"fix_duration":419.5059409106499,"trial":49,"RT":1219,"MT":222,"sideResp":1,"stimulus":[],"xmouse":[767,767,767,767,767,767,767,767,767,767,767,767,767,767,767,767,767,767,767,767,767,767,767,767,767,767,767,767,767,767,767,767,767,767,767,767,767,767,767,767,767,767,767,767,767,767,767,767,767,767,767,767,767,767,767,767,767,767,767,767,767,766,753,747,742,736,716,704,693,676,655,553,515],"ymouse":[500,500,500,500,500,500,500,500,500,500,500,500,500,500,500,500,500,500,500,500,500,500,500,500,500,500,500,500,500,500,500,500,500,500,500,500,500,500,500,500,500,500,500,500,500,500,500,500,500,500,500,500,500,500,500,500,500,500,500,496,482,449,388,364,341,315,259,233,214,193,171,110,93],"timestamp_mouse":[1,33,39,60,80,99,119,141,160,180,199,221,241,259,281,300,319,339,359,379,399,419,439,459,479,501,519,539,560,580,599,621,640,660,680,699,719,740,759,780,799,819,839,859,880,900,920,940,960,979,999,1020,1040,1060,1079,1099,1119,1139,1159,1179,1200,1219,1239,1259,1279,1300,1319,1340,1360,1379,1399,1419,1441],"xSR":741.5,"ySR":449.15000000000003,"xT1":424.9,"yT1":0,"xT2":1058.1,"yT2":0,"toosoon":0,"cond_shown":"Incongruent","ratio_trial":200,"L_num":4,"L_den":5,"R_num":6,"R_den":10,"correct_side":1,"subjID":"JoanEstebanSeguraGuzman4","gender":"0","school":"6","age":"12"},{"start_time":1551800744657,"click_time":1551800746376,"finger_time":1551800746018,"fix_duration":778.1498068131101,"trial":50,"RT":1361,"MT":358,"sideResp":1,"stimulus":[],"xmouse":[794,794,794,794,794,794,794,794,794,794,794,794,794,794,794,794,794,794,794,794,794,794,794,794,794,794,794,794,794,794,794,794,794,794,794,794,794,794,794,794,794,794,794,794,794,794,794,794,794,794,794,794,794,794,794,794,794,794,794,794,794,794,794,794,794,794,794,794,794,796,798,783,772,757,739,715,656,628,625,619,614,599,583,562,543,532,514],"ymouse":[481,481,481,481,481,481,481,481,481,481,481,481,481,481,481,481,481,481,481,481,481,481,481,481,481,481,481,481,481,481,481,481,481,481,481,481,481,481,481,481,481,481,481,481,481,481,481,481,481,481,481,481,481,481,481,481,481,481,481,481,481,481,481,481,481,481,481,454,416,358,308,245,226,206,188,172,135,116,112,109,106,101,95,87,82,78,72],"timestamp_mouse":[1,19,50,60,79,100,120,140,159,180,201,219,239,259,280,300,320,340,360,381,399,419,440,461,479,499,520,540,560,580,600,620,639,659,680,701,720,740,761,780,800,819,839,861,880,899,919,941,959,979,999,1019,1041,1060,1080,1099,1119,1140,1160,1180,1200,1219,1239,1259,1280,1300,1320,1341,1361,1379,1399,1421,1440,1461,1479,1499,1519,1540,1560,1579,1599,1621,1640,1660,1681,1700,1719],"xSR":741.5,"ySR":449.15000000000003,"xT1":424.9,"yT1":0,"xT2":1058.1,"yT2":0,"toosoon":0,"cond_shown":"Congruent","ratio_trial":200,"L_num":8,"L_den":15,"R_num":2,"R_den":6,"correct_side":1,"subjID":"JoanEstebanSeguraGuzman4","gender":"0","school":"6","age":"12"},{"start_time":1551800747168,"click_time":1551800748857,"finger_time":1551800748596,"fix_duration":250,"trial":51,"RT":1428,"MT":261,"sideResp":2,"stimulus":[],"xmouse":[798,798,798,798,798,798,796,794,793,792,792,791,790,789,789,789,789,789,789,789,789,789,789,789,789,789,789,789,789,789,789,789,789,789,789,789,789,789,789,789,789,789,789,789,789,789,789,789,789,789,789,789,789,789,789,789,789,789,789,789,789,789,789,789,789,789,789,789,789,789,791,805,827,847,857,877,885,897,917,939,1000,1018,1037,1047,1060],"ymouse":[526,526,526,526,526,527,525,520,515,510,508,503,502,502,501,501,501,501,501,501,501,501,501,501,501,501,501,501,501,501,501,501,501,501,501,501,501,501,501,501,501,501,501,501,501,501,501,501,501,501,501,501,501,501,501,501,501,501,501,501,501,501,501,501,501,501,501,501,501,501,480,438,372,311,268,205,187,157,129,105,67,59,53,49,47],"timestamp_mouse":[8,28,48,68,89,108,129,149,168,188,208,230,249,268,288,308,329,349,369,388,408,429,448,468,489,508,528,548,568,589,608,628,648,668,689,708,729,749,769,789,808,829,849,869,888,908,928,950,969,988,1008,1028,1049,1069,1088,1108,1128,1150,1169,1188,1208,1229,1248,1269,1288,1308,1328,1349,1368,1388,1409,1428,1448,1469,1489,1508,1528,1548,1569,1588,1609,1628,1649,1668,1689],"xSR":741.5,"ySR":449.15000000000003,"xT1":424.9,"yT1":0,"xT2":1058.1,"yT2":0,"toosoon":0,"cond_shown":"Congruent","ratio_trial":200,"L_num":9,"L_den":30,"R_num":13,"R_den":26,"correct_side":2,"subjID":"JoanEstebanSeguraGuzman4","gender":"0","school":"6","age":"12"},{"start_time":1551800751022,"click_time":1551800752616,"finger_time":1551800751737,"fix_duration":1343.337968423149,"trial":52,"RT":715,"MT":879,"sideResp":2,"stimulus":[],"xmouse":[784,784,784,784,784,784,784,784,784,784,784,784,784,784,784,784,784,784,784,784,784,784,784,784,784,784,784,784,784,784,784,784,789,791,795,797,797,798,798,798,798,798,798,799,799,799,799,799,800,800,800,800,800,800,800,800,800,800,800,801,805,818,828,816,802,792,782,776,776,776,776,776,776,776,776,777,783,957,1046,1122],"ymouse":[477,477,477,477,477,477,477,477,477,477,477,477,477,477,477,477,477,477,477,477,477,477,477,477,477,477,477,477,477,477,477,478,472,462,451,442,439,435,434,433,432,431,429,428,428,427,427,425,423,423,423,422,422,422,422,422,422,422,422,408,378,304,176,135,105,88,75,65,64,64,64,64,64,64,64,63,59,42,42,50],"timestamp_mouse":[16,37,55,75,94,114,135,154,174,195,215,234,255,275,294,314,335,354,375,395,416,435,454,474,494,514,534,554,574,594,614,634,655,674,694,715,736,755,775,794,814,834,855,876,896,916,936,954,975,994,1014,1034,1054,1075,1096,1114,1134,1154,1175,1194,1214,1236,1255,1274,1295,1315,1335,1354,1375,1394,1415,1436,1455,1474,1494,1514,1534,1554,1575,1594],"xSR":741.5,"ySR":449.15000000000003,"xT1":424.9,"yT1":0,"xT2":1058.1,"yT2":0,"toosoon":0,"cond_shown":"Incongruent","ratio_trial":300,"L_num":4,"L_den":20,"R_num":2,"R_den":4,"correct_side":2,"subjID":"JoanEstebanSeguraGuzman4","gender":"0","school":"6","age":"12"},{"start_time":1551800754027,"click_time":1551800755138,"finger_time":1551800754776,"fix_duration":468.40893508976245,"trial":53,"RT":749,"MT":362,"sideResp":2,"stimulus":[],"xmouse":[826,826,826,826,826,826,826,826,826,826,826,826,826,826,826,826,826,826,826,826,826,826,826,826,826,826,826,826,826,826,826,826,826,826,826,826,826,826,828,831,835,838,847,855,865,876,884,932,954,974,986,994,1008,1021,1042,1062],"ymouse":[488,488,488,488,488,488,488,488,488,488,488,488,488,488,488,488,488,488,488,488,488,488,488,488,488,488,488,488,488,488,488,488,488,488,488,486,470,315,286,260,239,222,184,163,145,128,120,99,93,90,90,90,91,93,96,96],"timestamp_mouse":[10,30,51,69,91,109,129,150,170,190,209,231,250,269,289,310,330,349,369,390,409,429,449,470,489,510,531,549,570,590,609,629,649,670,689,710,729,749,769,789,810,830,850,870,889,909,930,950,970,989,1010,1030,1050,1069,1089,1110],"xSR":741.5,"ySR":449.15000000000003,"xT1":424.9,"yT1":0,"xT2":1058.1,"yT2":0,"toosoon":0,"cond_shown":"Incongruent","ratio_trial":300,"L_num":4,"L_den":20,"R_num":2,"R_den":4,"correct_side":2,"subjID":"JoanEstebanSeguraGuzman4","gender":"0","school":"6","age":"12"},{"start_time":1551800756167,"click_time":1551800757716,"finger_time":1551800757497,"fix_duration":368.3459007426102,"trial":54,"RT":1330,"MT":219,"sideResp":2,"stimulus":[],"xmouse":[770,770,770,770,770,770,770,770,770,770,770,770,770,770,770,770,770,770,770,770,770,770,770,770,770,770,770,770,770,770,770,770,770,770,770,770,770,770,770,770,770,770,770,770,770,770,770,770,770,770,770,770,770,770,770,771,772,772,772,772,772,772,774,778,785,796,836,865,895,923,951,983,994,1010,1028,1052,1059,1074],"ymouse":[534,534,534,534,534,534,534,534,534,534,534,534,534,534,534,534,534,534,534,534,534,534,534,534,534,534,534,534,534,534,534,534,534,534,534,534,534,534,534,534,534,534,534,534,534,534,534,534,534,534,534,534,534,534,534,529,525,525,524,524,524,524,516,499,477,450,359,299,246,216,192,160,150,136,124,111,105,94],"timestamp_mouse":[9,29,49,70,90,109,129,151,170,189,209,229,249,269,290,309,330,349,371,390,409,430,449,469,491,509,529,550,569,589,609,629,649,669,691,709,730,751,770,789,809,831,849,870,890,910,929,950,971,989,1009,1030,1050,1071,1090,1109,1129,1149,1169,1189,1210,1229,1251,1269,1289,1309,1330,1349,1370,1391,1409,1429,1449,1470,1490,1509,1529,1549],"xSR":741.5,"ySR":449.15000000000003,"xT1":424.9,"yT1":0,"xT2":1058.1,"yT2":0,"toosoon":0,"cond_shown":"Congruent","ratio_trial":200,"L_num":9,"L_den":30,"R_num":13,"R_den":26,"correct_side":2,"subjID":"JoanEstebanSeguraGuzman4","gender":"0","school":"6","age":"12"},{"start_time":1551800759851,"click_time":1551800761257,"finger_time":1551800760938,"fix_duration":1392.9484984294027,"trial":55,"RT":1087,"MT":319,"sideResp":2,"stimulus":[],"xmouse":[786,786,786,786,786,786,786,786,786,786,786,786,786,786,786,786,786,786,786,786,786,786,786,786,786,786,786,786,786,786,786,786,786,786,786,786,786,786,786,786,786,786,786,786,786,786,786,786,786,786,786,785,787,794,803,831,863,903,925,937,950,981,1017,1070,1107,1124,1132,1132,1133,1133,1133],"ymouse":[510,510,510,510,510,510,510,510,510,510,510,510,510,510,510,510,510,510,510,510,510,510,510,510,510,510,510,510,510,510,510,510,510,510,510,510,510,510,510,510,510,510,510,510,510,510,510,510,510,510,510,510,480,461,433,371,315,271,254,245,235,216,195,165,143,135,124,119,115,108,97],"timestamp_mouse":[8,39,46,66,85,106,125,145,165,185,206,225,247,265,286,307,325,345,365,385,405,425,447,467,486,507,526,545,566,586,606,625,645,665,685,705,725,746,765,786,805,825,847,865,885,905,925,945,965,986,1007,1025,1045,1065,1087,1107,1125,1145,1166,1185,1205,1225,1245,1266,1286,1305,1325,1347,1365,1386,1406],"xSR":741.5,"ySR":449.15000000000003,"xT1":424.9,"yT1":0,"xT2":1058.1,"yT2":0,"toosoon":0,"cond_shown":"Congruent","ratio_trial":200,"L_num":6,"L_den":12,"R_num":7,"R_den":10,"correct_side":2,"subjID":"JoanEstebanSeguraGuzman4","gender":"0","school":"6","age":"12"},{"start_time":1551800763136,"click_time":1551800764516,"finger_time":1551800764077,"fix_duration":1118.8926866094268,"trial":56,"RT":941,"MT":439,"sideResp":2,"stimulus":[],"xmouse":[792,792,792,792,792,792,792,792,792,792,792,792,792,792,792,792,792,792,792,792,792,792,792,792,792,792,794,791,788,788,788,788,788,788,788,787,786,784,783,783,783,783,783,783,783,783,785,801,808,817,829,840,868,876,882,888,894,902,913,925,935,951,996,1011,1027,1041,1049,1055,1063,1068],"ymouse":[511,511,511,511,511,511,511,511,511,511,511,511,511,511,511,511,511,511,511,511,511,511,511,511,511,511,506,482,472,472,472,472,472,472,472,470,469,466,465,465,465,465,465,465,463,460,450,416,397,377,359,335,292,284,275,267,261,252,237,224,212,198,160,146,133,123,116,111,101,95],"timestamp_mouse":[8,21,41,61,81,101,121,140,161,181,201,221,240,261,280,300,320,340,360,380,400,420,441,460,480,501,522,541,560,581,600,620,641,660,681,700,720,740,761,780,800,821,840,861,881,901,922,941,960,980,1000,1020,1040,1062,1080,1100,1120,1140,1160,1180,1201,1222,1241,1261,1281,1301,1321,1340,1361,1380],"xSR":741.5,"ySR":449.15000000000003,"xT1":424.9,"yT1":0,"xT2":1058.1,"yT2":0,"toosoon":0,"cond_shown":"Incongruent","ratio_trial":100,"L_num":3,"L_den":9,"R_num":7,"R_den":30,"correct_side":1,"subjID":"JoanEstebanSeguraGuzman4","gender":"0","school":"6","age":"12"},{"start_time":1551800770057,"click_time":1551800771438,"finger_time":1551800771318,"fix_duration":1158.1541757824132,"trial":57,"RT":1261,"MT":120,"sideResp":1,"stimulus":[],"xmouse":[761,761,761,761,761,761,761,761,761,761,761,761,761,761,761,761,761,761,761,761,761,761,761,761,761,761,761,761,761,761,761,761,761,761,761,761,761,761,761,761,761,761,761,761,761,761,761,761,761,761,761,761,761,761,761,761,761,761,761,761,762,762,762,748,726,694,607,571,512,466],"ymouse":[512,512,512,512,512,512,512,512,512,512,512,512,512,512,512,512,512,512,512,512,512,512,512,512,512,512,512,512,512,512,512,512,512,512,512,512,512,512,512,512,512,512,512,512,512,512,512,512,512,512,512,512,512,512,512,512,512,512,512,512,510,510,484,435,362,294,170,144,110,90],"timestamp_mouse":[8,32,40,60,80,100,120,139,161,179,200,220,239,259,279,299,319,341,361,379,399,420,439,459,479,501,519,540,561,581,600,619,639,659,680,699,719,741,760,781,799,820,839,860,879,900,919,939,959,979,999,1021,1039,1061,1079,1101,1119,1140,1161,1181,1199,1219,1241,1261,1279,1299,1319,1340,1359,1381],"xSR":741.5,"ySR":449.15000000000003,"xT1":424.9,"yT1":0,"xT2":1058.1,"yT2":0,"toosoon":0,"cond_shown":"Congruent","ratio_trial":200,"L_num":12,"L_den":15,"R_num":6,"R_den":10,"correct_side":1,"subjID":"JoanEstebanSeguraGuzman4","gender":"0","school":"6","age":"12"},{"start_time":1551800774719,"click_time":1551800776316,"finger_time":1551800775757,"fix_duration":920.043165505754,"trial":58,"RT":1038,"MT":559,"sideResp":1,"stimulus":[],"xmouse":[807,807,807,807,807,807,807,807,807,807,807,807,807,807,807,807,807,807,807,807,807,807,807,807,807,807,807,807,807,807,807,807,807,807,807,807,807,807,807,807,807,807,801,787,779,775,770,766,765,763,763,763,761,761,760,760,760,759,759,759,759,759,759,760,760,760,760,760,760,756,745,727,668,642,628,610,583,553,536,522],"ymouse":[527,527,527,527,527,527,527,527,527,527,527,527,527,527,527,527,527,527,527,527,527,527,527,527,527,527,527,527,527,527,527,527,527,527,527,527,527,527,527,527,527,527,509,488,476,470,461,455,453,451,450,448,443,440,437,433,432,429,427,422,418,414,406,404,404,404,404,396,385,371,351,322,251,220,202,182,151,127,112,98],"timestamp_mouse":[17,42,58,78,98,118,138,157,179,198,218,237,257,277,297,317,338,358,377,398,417,438,458,477,497,518,539,557,578,598,618,637,658,677,699,717,737,757,778,797,817,837,857,877,899,918,937,957,977,999,1017,1038,1058,1077,1098,1117,1139,1158,1177,1197,1217,1239,1257,1279,1297,1317,1338,1357,1377,1397,1417,1438,1457,1477,1498,1519,1538,1558,1577,1597],"xSR":741.5,"ySR":449.15000000000003,"xT1":424.9,"yT1":0,"xT2":1058.1,"yT2":0,"toosoon":0,"cond_shown":"Incongruent","ratio_trial":100,"L_num":9,"L_den":15,"R_num":13,"R_den":26,"correct_side":1,"subjID":"JoanEstebanSeguraGuzman4","gender":"0","school":"6","age":"12"},{"start_time":1551800777492,"click_time":1551800778898,"fing