[{"start_time":1551883005541,"click_time":1551883076715,"finger_time":1551883008771,"fix_duration":424.82706204385465,"trial":0,"RT":3230,"MT":67944,"sideResp":2,"stimulus":[],"xmouse":[789,789,789,789,789,789,789,789,789,789,789,789,789,789,789,789,789,789,789,789,789,789,789,789,789,789,789,789,789,789,789,789,789,789,789,789,789,789,789,789,789,789,789,789,789,789,789,789,789,789,789,789,789,789,789,789,789,789,789,789,789,789,789,789,789,789,789,789,789,789,789,789,789,789,789,789,789,789,789,789,789,789,789,789,789,789,789,789,789,789,789,789,789,789,789,789,789,789,789,789,789,789,789,789,789,789,789,789,789,789,789,789,789,789,789,789,789,789,789,789,789,789,789,789,789,789,789,789,789,789,789,789,789,789,789,789,789,789,789,789,789,789,789,789,789,789,789,789,789,789,789,789,789,789,789,789,795,812,826,840,854,882,916,1041,1139,1215,1291,1336,1341,1341,1341,1341,1342,1342,1342,1341,1341,1341,1341,1341,1341,1341,1341,1341,1341,1341,1341,1341,1341,1339,1339,1338,1337,1337,1337,1337,1337,1337,1337,1337,1337,1337,1337,1337,1337,1335,1330,1315,1309,1296,1286,1276,1260,1246,1231,1216,1201,1163,1152,1143,1137,1124,1113,1099,1092,1084,1074,1060,1057,1054,1044,1022,929,904,888,872,861,836,824,814,807,806,806,806,806,806,806,806,806,806,805,803,794,792,792,792,792,792,792,792,792,792,792,792,792,792,792,792,792,792,792,792,792,792,792,792,792,792,792,792,792,792,792,792,792,792,792,792,792,792,792,792,791,789,789,789,790,791,791,791,791,792,792,792,792,792,792,793,793,795,796,796,796,796,796,796,796,796,796,796,796,796,796,796,794,788,778,769,768,768,768,768,768,768,768,768,768,768,779,797,818,834,849,849,849,845,820,784,782,782,782,782,782,787,810,848,895,906,907,900,884,857,714,699,699,704,728,801,845,870,873,873,846,799,738,709,708,708,722,738,748,780,785,785,778,763,753,742,742,742,742,742,742,742,742,742,742,742,742,742,742,742,742,742,742,742,742,742,742,742,742,742,742,742,742,742,742,742,742,742,742,742,742,741,740,739,739,748,750,750,750,760,784,798,822,862,934,1108,1228,1317,1418,1540,1540,1540,1540,1540,1540,1540,1540,1581,1558,1554,1537,1518,1461,1396,1330,1254,1213,1187,1176,1165,1133,1106,1056,1005,977,972,970,970,970,968,952,943,936,927,921,891,880,858,846,842,842,842,841,835,819,809,809,809,809,809,803,793,785,784,784,784,784,784,784,784,784,784,784,782,782,782,782,782,782,782,782,782,782,782,782,782,782,782,782,782,782,782,782,782,782,782,782,782,782,782,782,782,782,782,782,782,782,782,782,782,782,782,782,782,782,782,782,782,782,782,782,782,782,782,782,782,782,782,782,782,782,782,780,779,778,778,778,778,778,778,778,778,778,778,778,778,778,778,778,778,778,778,778,778,778,778,778,778,778,778,778,778,778,778,778,778,778,778,778,778,778,781,794,811,831,884,941,1005,1106,1169,1240,1289,1310,1341,1359,1363,1363,1363,1357,1345,1331,1293,1264,1236,1216,1162,1132,1106,1081,1059,1028,1009,992,985,980,963,946,932,922,913,907,903,902,899,898,892,890,881,865,846,836,835,832,827,817,787,784,778,778,778,778,778,778,778,778,778,778,778,778,778,778,778,778,778,778,778,778,778,772,764,742,738,738,738,738,738,730,727,725,729,738,744,750,755,756,756,756,757,765,774,786,799,800,801,802,802,799,792,787,784,772,766,760,755,750,749,749,750,757,774,805,826,841,856,870,881,881,871,855,779,735,725,725,730,744,827,918,1010,1091,1107,1098,1030,924,819,760,713,717,755,877,998,1137,1179,1193,1195,1195,1195,1195,1188,1158,1182,1293,1410,1517,1517,1517,1517,1517,1572,1546,1349,1283,1281,1285,1306,1369,1463,1572,1572,1572,1572,1563,1299,1165,1111,1104,1112,1122,1188,1246,1276,1336,1407,1409,1409,1409,1407,1297,1242,1231,1230,1231,1322,1429,1550,1550,1550,1550,1550,1550,1576,1469,1428,1406,1401,1400,1400,1400,1399,1396,1396,1396,1397,1419,1454,1480,1502,1504,1504,1504,1504,1504,1502,1490,1470,1450,1412,1399,1389,1386,1386,1386,1387,1392,1398,1405,1413,1417,1418,1418,1429,1445,1452,1455,1455,1455,1456,1457,1457,1457,1457,1458,1445,1416,1347,1258,1126,1111,1101,1100,1089,1063,1041,1029,1005,994,954,927,884,853,848,848,847,847,845,844,840,836,834,833,830,812,806,802,801,801,801,801,799,799,799,799,799,799,799,799,799,799,799,799,799,799,799,799,799,799,799,799,799,799,799,799,799,799,799,799,799,799,799,799,799,799,799,799,799,799,799,799,799,799,799,799,799,799,799,799,799,799,799,799,799,799,799,799,798,796,788,780,772,754,752,750,750,749,749,756,766,843,925,1073,1170,1307,1333,1346,1348,1350,1354,1354,1354,1354,1354,1300,1227,1141,1082,1017,944,923,897,876,864,847,822,807,797,788,783,783,783,783,783,783,783,783,783,783,787,793,793,793,793,793,793,793,793,793,793,793,811,829,936,1031,1207,1242,1248,1248,1248,1237,1206,1192,1171,1167,1167,1167,1157,1142,1122,1093,1089,1075,1051,983,946,906,881,861,843,827,807,779,761,749,749,749,749,749,749,749,749,749,749,749,758,768,778,783,785,785,785,785,786,787,787,788,794,801,810,813,813,813,813,813,813,813,813,812,811,809,808,806,806,806,806,806,806,806,806,806,806,806,806,808,839,850,855,855,855,849,839,827,803,792,785,785,785,785,784,802,839,885,911,919,919,902,870,815,721,706,704,704,704,704,704,719,760,812,835,846,846,846,846,846,846,834,815,798,779,778,778,778,778,778,777,778,785,788,791,792,792,793,793,785,776,775,773,769,765,765,766,770,779,800,809,817,826,836,876,921,958,974,982,982,982,982,981,975,954,939,930,917,914,914,914,914,914,913,913,913,913,913,913,913,913,913,913,913,913,913,913,913,913,913,913,913,913,913,913,913,913,913,913,913,913,913,912,912,911,911,911,911,911,911,911,911,911,911,911,911,911,911,911,911,911,911,911,911,911,911,911,911,911,911,911,911,911,911,911,911,911,911,911,911,911,911,910,901,876,864,857,857,857,856,848,843,841,842,869,930,992,1036,1046,1046,1042,1036,1030,1022,1002,982,950,883,789,742,729,728,728,728,728,728,727,727,726,729,744,756,769,790,822,822,822,822,822,822,822,813,810,807,806,806,806,808,819,836,847,848,848,848,848,848,852,869,882,882,882,883,887,907,956,976,980,980,980,980,980,980,980,980,976,951,942,934,919,906,899,889,874,865,857,850,850,850,850,848,823,809,802,801,801,801,801,801,801,801,801,801,801,801,801,801,801,801,801,801,801,801,801,801,801,801,801,801,801,801,801,801,801,801,801,801,801,801,801,801,801,801,801,801,801,801,801,801,801,801,801,801,801,801,801,801,801,801,801,803,818,837,839,840,842,842,842,842,844,852,860,867,871,878,883,885,886,886,886,886,886,886,886,886,886,886,886,886,886,886,886,886,886,886,884,880,875,872,870,864,861,855,851,848,844,843,842,831,820,805,786,784,784,784,784,784,784,784,784,784,784,784,784,784,784,784,784,784,784,784,784,784,784,784,784,784,784,784,784,784,784,784,784,784,784,784,784,784,784,784,784,784,784,784,784,784,784,784,784,784,784,784,784,784,784,784,784,784,784,784,784,784,784,784,784,784,784,784,784,784,784,784,784,784,784,784,784,784,784,784,784,784,784,784,784,784,784,784,784,784,784,784,784,784,784,784,784,784,784,784,784,784,784,784,784,784,784,784,784,784,784,784,784,784,784,784,784,784,784,784,784,784,784,784,784,784,784,784,784,784,784,787,793,801,844,1021,1022,1034,1108,1136,1143,1143,1143,1143,1114,1095,1074,1063,1059,1057,1056,1054,1042,1016,964,936,914,898,888,887,887,887,886,885,883,876,869,859,849,822,814,805,796,790,790,790,790,790,790,790,790,790,790,790,790,790,790,790,790,790,790,790,790,790,789,789,789,789,789,789,789,789,789,789,789,789,789,789,789,789,789,789,789,789,789,789,789,789,789,789,789,789,789,789,789,789,789,789,789,789,789,789,789,789,789,789,789,789,789,789,788,787,787,787,787,787,787,787,787,787,787,787,787,787,787,787,787,787,787,787,787,787,787,787,787,787,787,787,787,787,787,787,787,787,787,787,787,787,787,787,787,787,787,787,787,787,787,787,787,787,787,787,787,787,787,787,787,787,787,787,787,787,787,787,787,787,787,787,787,787,787,787,787,787,787,787,787,787,787,787,787,787,787,787,787,787,787,787,787,787,787,787,787,787,787,787,787,787,787,787,787,787,787,787,787,787,787,787,787,787,787,787,787,787,787,787,787,787,787,787,787,787,787,787,787,787,787,787,787,787,787,787,787,787,787,787,787,787,787,787,787,787,787,787,787,787,787,787,787,787,787,787,787,787,787,787,787,787,787,787,787,787,787,787,787,787,787,787,787,787,787,787,787,787,787,787,787,787,787,787,787,787,787,787,787,787,787,787,787,787,787,787,787,787,787,787,787,787,787,787,787,787,787,787,787,787,787,787,787,787,787,787,787,787,787,787,787,787,787,787,787,787,787,787,787,787,787,787,787,787,787,787,787,787,787,787,787,787,787,787,787,787,787,787,787,787,787,787,787,787,787,787,787,787,787,787,787,787,787,787,787,787,787,787,787,787,787,787,787,787,787,787,787,787,787,787,787,787,787,787,787,787,787,787,787,787,787,787,787,787,787,787,787,787,787,787,787,787,787,787,787,787,787,787,787,787,787,787,787,787,787,787,787,787,787,787,787,787,787,787,787,787,787,787,787,787,787,787,787,787,787,787,787,787,787,787,787,787,787,787,787,787,787,787,787,787,787,787,787,787,787,787,787,787,787,787,787,787,787,787,787,787,787,787,787,787,787,787,787,787,787,787,787,787,787,787,787,787,787,787,787,787,787,787,787,787,787,787,787,787,787,787,787,787,787,787,787,787,787,787,787,787,787,787,787,787,787,787,787,787,787,787,787,787,787,787,787,787,787,787,787,787,787,787,787,787,787,787,787,787,787,787,787,787,787,787,787,787,787,787,787,787,787,787,787,787,787,787,787,787,787,787,787,787,787,787,787,787,787,787,787,787,787,787,787,787,787,787,787,787,787,787,787,787,787,787,787,787,787,787,787,787,787,787,787,787,787,787,787,787,787,787,787,787,787,787,787,787,787,787,787,787,787,787,787,787,787,787,787,787,787,787,787,787,787,787,787,787,787,787,787,787,787,787,787,787,787,787,787,787,787,787,787,787,787,787,787,787,787,787,787,787,787,787,787,787,787,787,787,787,787,787,787,787,787,787,787,787,787,787,787,787,787,787,787,787,787,787,787,787,787,787,787,787,787,787,787,787,787,787,787,787,787,787,787,787,787,787,787,787,787,787,787,787,787,787,787,787,787,787,787,787,787,787,787,787,787,787,787,787,787,787,787,787,787,787,787,787,787,787,787,787,787,787,787,787,787,787,787,787,787,787,787,787,787,787,787,787,787,787,787,787,787,787,787,787,787,787,787,787,787,787,787,787,787,787,787,787,787,787,787,787,787,787,787,787,787,787,787,787,787,787,787,787,787,787,787,787,787,787,787,787,787,787,787,787,787,787,787,787,787,787,787,787,787,787,787,787,787,787,787,787,787,787,787,787,787,787,787,787,787,787,787,787,787,787,787,787,787,787,787,787,787,787,787,787,787,787,787,787,787,787,787,787,787,787,787,787,787,787,787,787,787,787,787,787,787,787,787,787,787,787,787,787,787,787,787,787,787,787,787,787,787,787,787,787,787,787,787,787,787,787,787,787,787,787,787,787,787,787,787,787,787,787,787,787,787,787,787,787,787,787,787,787,787,787,787,787,787,787,787,787,787,787,787,787,787,787,787,787,787,787,787,787,787,787,787,787,787,787,787,787,787,787,787,787,787,787,787,787,787,787,787,787,787,787,787,787,787,787,787,787,787,787,787,787,787,787,787,787,787,787,787,787,787,787,787,787,787,787,787,787,787,787,787,787,787,787,787,787,787,787,787,787,787,787,787,787,787,787,787,787,787,787,787,787,787,787,787,787,787,787,787,787,787,787,787,787,787,787,787,787,787,787,787,787,787,787,787,787,787,787,787,787,787,787,787,787,787,787,787,787,787,787,787,787,787,787,787,787,787,787,787,787,787,787,787,787,787,787,787,787,787,787,787,787,787,787,787,787,787,787,787,787,787,787,787,787,787,787,787,787,787,787,787,787,787,787,787,787,787,787,787,787,787,787,787,787,787,787,787,787,787,787,787,787,787,787,787,787,787,787,787,786,784,757,747,742,742,813,836,848,848,848,848,849,863,916,1002,1046,1048,1048,1048,1048,1048,1045,1039,1035,1027,992,980,979,978,975,908,861,822,799,777,746,739,735,735,735,735,736,738,739,740,742,746,749,751,753,753,753,755,755,757,759,761,761,761,762,763,763,764,770,773,777,779,782,785,786,789,808,825,871,907,947,970,973,973,973,973,973,972,970,964,958,951,941,927,912,868,849,838,830,829,828,827,825,824,822,821,820,818,818,817,815,813,813,813,813,813,813,813,813,813,813,813,813,813,813,813,813,813,813,813,813,813,813,813,813,815,817,818,820,823,825,831,841,851,864,877,881,885,890,893,921,941,952,961,965,966,966,966,966,964,962,944,929,908,877,852,804,798,794,790,789,787,785,784,784,784,784,784,784,784,784,786,791,793,793,793,793,793,793,793,793,793,793,793,793,793,793,793,793,793,793,793,793,793,793,793,793,793,793,793,793,793,793,793,793,793,793,793,793,793,793,793,793,793,793,793,793,793,793,793,793,793,793,793,793,793,793,793,793,793,793,793,793,793,793,793,793,793,793,793,793,793,793,793,793,793,793,793,793,793,793,789,772,757,746,744,747,762,775,788,791,796,796,813,849,1002,1030,1030,1030,1030,1030,1030,1030,1030,1030,1030,1030,1030,980,980,982,982,981,969,951,895,858,837,819,816,818,827,835,839,842,842,842,842,842,840,834,816,810,808,807,804,801,800,796,793,792,787,786,786,787,787,787,787,787,787,786,786,786,786,786,786,786,786,786,786,786,786,786,786,786,786,785,785,785,785,785,785,785,785,785,785,785,785,785,785,785,785,785,785,785,785,785,785,785,785,785,785,785,785,785,785,785,785,785,785,785,785,785,785,785,785,785,785,785,785,785,785,785,785,785,785,785,785,785,785,786,786,786,786,786,786,786,786,786,786,786,786,786,786,786,786,786,786,786,786,786,786,786,786,786,795,804,818,825,827,827,827,827,827,827,827,827,828,828,828,828,828,828,828,828,828,838,867,873,873,873,873,873,873,873,873,873,873,873,873,873,870,859,845,834,818,813,812,810,804,798,798,795,795,794,794,790,790,790,790,790,790,790,790,790,790,790,790,790,790,790,790,790,790,790,790,790,790,790,790,790,790,790,790,790,790,790,790,790,790,790,790,790,790,790,790,790,790,790,790,790,790,830,837,868,871,871,871,871,871,871,871,871,871,871,871,871,871,871,871,871,871,871,871,871,871,871,871,871,871,871,871,871,871,871,871,871,871,871,871,871,871,871,871,871,871,871,871,871,871,871,871,871,871,871,871,871,871,871,871,871,871,871,871,871,871,871,871,871,871,871,871,871,871,871,871,871,871,871,871,871,871,871,871,871,871,871,871,871,871,871,871,871,871,871,871,871,871,871,871,871,871,871,871,871,871,871,871,871,871,871,871,871,871,871,871,871,871,871,871,871,871,871,871,871,871,871,871,871,871,871,871,871,871,871,871,871,871,871,871,871,871,871,871,871,871,871,871,871,871,871,871,871,871,871,871,871,871,871,871,871,871,871,871,871,871,871,871,871,871,871,871,871,871,871,871,871,871,871,871,871,871,872,873,873,873,871,868,868,868,868,868,868,868,868,868,868,868,866,865,865,865,865,865,865,859,855,852,843,836,831,824,815,810,804,797,794,790,789,789,792,795,801,806,811,812,813,813,813,813,813,813,813,813,813,813,813,813,813,813,813,813,813,813,813,813,813,813,813,813,813,813,813,813,813,813,813,813,818,846,905,928,938,938,938,938,939,939,938,937,936,934,933,931,930,926,922,922,922,922,922,924,946,977,1007,1019,1024,1024,1024,1024,1027,1033,1047,1062,1065,1065,1065,1065,1065,1065,1065,1065,1065,1065,1065,1065,1065,1065,1065,1065,1065,1065,1065,1065,1063,1055,1064,1070,1070,1070,1072,1081,1084,1091,1097,1101,1101,1101,1101,1102,1102,1102,1102,1102,1098,1098],"ymouse":[560,560,560,560,560,560,560,560,560,560,560,560,560,560,560,560,560,560,560,560,560,560,560,560,560,560,560,560,560,560,560,560,560,560,560,560,560,560,560,560,560,560,560,560,560,560,560,560,560,560,560,560,560,560,560,560,560,560,560,560,560,560,560,560,560,560,560,560,560,560,560,560,560,560,560,560,560,560,560,560,560,560,560,560,560,560,560,560,560,560,560,560,560,560,560,560,560,560,560,560,560,560,560,560,560,560,560,560,560,560,560,560,560,560,560,560,560,560,560,560,560,560,560,560,560,560,560,560,560,560,560,560,560,560,560,560,560,560,560,560,560,560,560,560,560,560,560,560,560,560,560,560,560,560,560,560,562,565,564,559,551,541,540,540,540,549,560,567,568,568,568,568,569,569,569,569,569,569,569,569,569,569,569,569,569,569,569,569,570,570,570,570,570,570,570,570,570,570,570,570,570,570,570,570,570,571,571,571,571,571,571,571,569,567,565,565,564,560,559,559,559,559,559,559,559,560,564,571,574,577,583,591,614,615,613,610,600,581,569,563,556,555,555,555,555,555,555,555,555,555,555,554,551,550,549,549,549,549,549,549,549,549,549,549,549,549,549,549,549,549,549,549,549,549,549,549,549,549,549,549,549,549,549,549,549,549,549,549,549,549,549,549,547,545,541,536,534,529,527,526,524,523,522,521,521,521,521,517,516,511,508,504,504,504,504,504,504,504,504,504,504,504,504,504,503,506,509,512,512,512,512,512,512,512,512,512,512,512,503,488,469,452,438,438,437,440,452,471,474,474,474,474,475,476,464,451,444,441,441,444,457,471,526,530,530,530,509,474,459,452,451,451,482,503,527,535,535,535,523,512,504,493,493,493,497,508,516,524,524,524,524,524,524,524,524,524,524,524,524,524,524,524,524,524,524,524,524,524,524,524,524,524,524,524,524,524,524,524,524,524,524,524,524,524,523,523,523,518,515,515,515,511,508,506,506,506,502,502,498,487,472,456,456,456,456,456,456,456,456,456,459,459,459,459,459,459,461,464,464,464,465,468,477,484,492,498,501,502,502,502,502,502,507,508,509,511,512,519,523,527,529,530,530,530,530,534,539,539,539,539,539,539,541,545,548,548,548,548,548,548,548,548,548,548,548,548,548,548,548,548,548,548,548,548,548,548,548,548,548,548,548,548,548,548,548,548,548,548,548,548,548,548,548,548,548,548,548,548,548,548,548,548,548,548,548,548,548,548,548,548,548,548,548,548,548,548,548,548,548,548,548,548,548,548,548,548,548,548,548,548,548,548,548,548,548,548,548,548,548,548,548,548,548,548,548,548,548,548,548,548,548,548,548,548,548,548,548,548,548,548,548,548,548,546,543,539,537,533,530,525,513,503,494,494,493,493,493,494,494,494,497,499,504,515,519,524,528,539,541,544,546,546,548,548,547,547,545,534,529,525,525,524,524,524,524,523,523,522,522,521,521,521,521,521,520,518,517,514,514,514,514,514,514,514,514,514,514,514,514,514,514,514,514,514,514,514,514,514,514,514,516,520,531,532,532,532,532,532,523,511,500,479,458,448,442,438,438,438,438,438,440,446,455,465,466,467,468,476,483,496,503,508,512,512,513,513,513,512,502,492,481,465,456,455,455,462,474,492,505,516,520,527,519,511,510,496,482,457,451,451,468,480,513,537,553,564,568,546,523,486,435,411,405,418,434,449,450,450,450,450,435,389,315,297,306,306,306,306,306,431,432,441,430,421,411,392,374,364,364,364,364,364,443,456,460,462,459,445,434,418,398,394,403,421,428,429,429,429,442,450,452,452,445,386,353,324,324,324,324,324,324,360,388,393,395,395,395,395,395,395,394,394,394,394,393,391,392,390,389,389,389,389,389,390,395,399,400,403,404,404,403,403,395,390,379,370,363,361,361,361,361,356,344,342,342,342,342,343,344,344,344,344,348,365,379,400,423,448,448,447,447,443,438,438,440,452,459,483,499,516,528,530,530,530,528,523,520,516,513,513,512,512,518,520,522,522,522,522,522,522,522,522,522,522,522,522,522,522,522,522,522,522,522,522,522,522,522,522,522,522,522,522,522,522,522,522,522,522,522,522,522,522,522,522,522,522,522,522,522,522,522,522,522,522,522,522,522,522,522,522,522,522,522,522,522,522,522,522,530,534,539,540,540,540,540,538,524,517,494,481,474,474,478,484,486,488,488,488,488,488,488,489,495,501,511,515,515,515,515,516,519,523,526,532,535,536,537,537,537,537,537,537,537,537,537,537,536,533,529,529,529,529,529,529,529,529,529,529,529,525,525,522,522,513,513,513,513,513,515,522,526,530,530,530,530,527,526,525,524,524,524,524,524,524,524,524,524,521,521,521,521,521,520,520,520,520,520,520,520,520,520,520,520,519,516,513,512,511,511,511,511,511,511,511,511,511,510,508,508,508,508,508,508,508,508,508,509,510,512,513,515,515,515,515,515,515,515,515,515,515,515,515,515,515,515,515,515,515,517,519,519,521,521,521,521,521,521,521,513,509,501,499,498,501,505,511,511,510,510,509,509,509,509,508,507,506,505,505,505,505,505,505,505,505,504,504,504,503,503,503,503,503,503,502,497,493,490,486,484,481,473,462,441,425,421,418,412,398,390,385,380,375,365,356,348,337,327,305,288,273,263,253,253,253,253,254,260,272,280,286,294,296,296,296,296,296,296,296,296,296,296,296,296,296,296,296,296,296,296,296,296,296,296,296,296,296,296,296,296,296,296,296,296,296,300,308,312,313,313,313,313,313,313,313,313,313,313,313,313,313,313,313,313,313,313,313,313,313,313,313,313,313,313,313,313,313,313,313,313,313,313,313,313,313,313,313,316,328,331,336,336,339,342,352,360,367,372,374,374,374,374,374,374,386,401,419,435,467,483,495,518,538,542,537,534,531,530,530,530,530,530,530,530,526,524,521,519,517,517,517,517,517,517,517,517,517,517,517,517,517,517,517,517,515,515,515,515,515,515,515,515,515,515,515,515,515,515,516,516,516,516,516,516,516,517,517,517,518,518,518,517,515,515,515,515,515,515,515,515,515,515,515,515,515,515,515,515,515,515,515,515,515,515,515,515,515,515,515,515,515,515,515,515,515,515,515,515,515,515,515,515,515,515,515,515,515,515,515,515,515,515,515,515,515,515,515,515,515,515,515,515,515,515,515,515,515,515,515,515,515,515,515,515,515,518,518,518,518,518,518,518,518,516,514,511,509,507,502,501,500,500,500,500,500,500,500,500,500,500,500,500,500,500,500,500,500,501,501,502,503,504,504,504,504,504,504,504,505,505,505,508,511,514,518,519,519,519,519,519,519,519,519,519,519,519,519,519,519,519,519,519,519,519,519,519,519,519,519,519,519,519,519,519,519,519,519,519,519,519,519,519,519,519,519,519,519,519,519,519,519,519,519,519,519,519,519,519,519,519,519,519,519,519,519,519,519,519,519,519,519,519,519,519,519,519,519,519,519,519,519,519,519,519,519,519,519,519,519,519,519,519,519,519,519,519,519,519,519,519,519,519,519,519,519,519,519,519,519,519,519,519,519,519,519,519,519,519,519,519,519,519,519,519,519,519,519,519,519,519,519,519,519,519,519,520,522,523,535,589,590,598,638,656,661,661,661,661,661,664,662,660,658,657,657,656,649,637,619,606,597,589,580,579,576,574,569,567,563,556,552,546,542,533,529,524,521,518,518,518,518,518,518,518,518,518,518,518,518,518,518,518,518,518,518,518,518,518,518,518,518,518,518,518,518,518,518,518,518,518,518,518,518,518,518,518,518,518,518,518,518,518,518,518,518,518,518,518,518,518,518,518,518,518,518,518,518,518,518,518,518,518,518,518,518,516,516,516,516,516,516,516,516,516,516,516,516,516,516,516,516,516,516,516,516,516,516,516,516,516,516,516,516,516,516,516,516,516,516,516,516,516,516,516,516,516,516,516,516,516,516,516,516,516,516,516,516,516,516,516,516,516,516,516,516,516,516,516,516,516,516,516,516,516,516,516,516,516,516,516,516,516,516,516,516,516,516,516,516,516,516,516,516,516,516,516,516,516,516,516,516,516,516,516,516,516,516,516,516,516,516,516,516,516,516,516,516,516,516,516,516,516,516,516,516,516,516,516,516,516,516,516,516,516,516,516,516,516,516,516,516,516,516,516,516,516,516,516,516,516,516,516,516,516,516,516,516,516,516,516,516,516,516,516,516,516,516,516,516,516,516,516,516,516,516,516,516,516,516,516,516,516,516,516,516,516,516,516,516,516,516,516,516,516,516,516,516,516,516,516,516,516,516,516,516,516,516,516,516,516,516,516,516,516,516,516,516,516,516,516,516,516,516,516,516,516,516,516,516,516,516,516,516,516,516,516,516,516,516,516,516,516,516,516,516,516,516,516,516,516,516,516,516,516,516,516,516,516,516,516,516,516,516,516,516,516,516,516,516,516,516,516,516,516,516,516,516,516,516,516,516,516,516,516,516,516,516,516,516,516,516,516,516,516,516,516,516,516,516,516,516,516,516,516,516,516,516,516,516,516,516,516,516,516,516,516,516,516,516,516,516,516,516,516,516,516,516,516,516,516,516,516,516,516,516,516,516,516,516,516,516,516,516,516,516,516,516,516,516,516,516,516,516,516,516,516,516,516,516,516,516,516,516,516,516,516,516,516,516,516,516,516,516,516,516,516,516,516,516,516,516,516,516,516,516,516,516,516,516,516,516,516,516,516,516,516,516,516,516,516,516,516,516,516,516,516,516,516,516,516,516,516,516,516,516,516,516,516,516,516,516,516,516,516,516,516,516,516,516,516,516,516,516,516,516,516,516,516,516,516,516,516,516,516,516,516,516,516,516,516,516,516,516,516,516,516,516,516,516,516,516,516,516,516,516,516,516,516,516,516,516,516,516,516,516,516,516,516,516,516,516,516,516,516,516,516,516,516,516,516,516,516,516,516,516,516,516,516,516,516,516,516,516,516,516,516,516,516,516,516,516,516,516,516,516,516,516,516,516,516,516,516,516,516,516,516,516,516,516,516,516,516,516,516,516,516,516,516,516,516,516,516,516,516,516,516,516,516,516,516,516,516,516,516,516,516,516,516,516,516,516,516,516,516,516,516,516,516,516,516,516,516,516,516,516,516,516,516,516,516,516,516,516,516,516,516,516,516,516,516,516,516,516,516,516,516,516,516,516,516,516,516,516,516,516,516,516,516,516,516,516,516,516,516,516,516,516,516,516,516,516,516,516,516,516,516,516,516,516,516,516,516,516,516,516,516,516,516,516,516,516,516,516,516,516,516,516,516,516,516,516,516,516,516,516,516,516,516,516,516,516,516,516,516,516,516,516,516,516,516,516,516,516,516,516,516,516,516,516,516,516,516,516,516,516,516,516,516,516,516,516,516,516,516,516,516,516,516,516,516,516,516,516,516,516,516,516,516,516,516,516,516,516,516,516,516,516,516,516,516,516,516,516,516,516,516,516,516,516,516,516,516,516,516,516,516,516,516,516,516,516,516,516,516,516,516,516,516,516,516,516,516,516,516,516,516,516,516,516,516,516,516,516,516,516,516,516,516,516,516,516,516,516,516,516,516,516,516,516,516,516,516,516,516,516,516,516,516,516,516,516,516,516,516,516,516,516,516,516,516,516,516,516,516,516,516,516,516,516,516,516,516,516,516,516,516,516,516,516,516,516,516,516,516,516,516,516,516,516,516,516,516,516,516,516,516,516,516,516,516,516,516,516,516,516,516,516,516,516,516,516,516,516,516,516,516,516,516,516,516,516,516,516,516,516,516,516,516,516,516,516,516,516,516,516,516,516,516,516,516,516,516,516,516,516,516,516,516,516,516,516,516,516,516,516,516,516,516,516,516,516,516,516,516,516,516,516,516,516,516,516,516,516,516,516,516,516,516,516,516,516,516,516,516,516,516,516,516,516,516,516,516,516,516,516,516,516,516,516,516,516,516,516,516,516,516,516,516,516,516,516,516,516,516,516,516,516,516,516,516,516,516,516,516,516,516,516,516,516,516,516,516,516,516,516,516,516,516,516,516,516,516,516,516,516,516,516,516,516,516,516,516,516,516,516,516,516,516,500,433,428,428,428,520,536,542,542,542,542,544,550,578,609,618,618,618,618,618,617,614,611,610,607,598,596,595,595,592,568,557,545,535,522,508,504,501,501,501,501,501,501,502,504,505,507,508,508,509,509,509,509,509,512,512,514,514,514,514,514,514,514,514,514,516,516,516,516,516,516,518,525,533,539,547,555,556,556,556,556,556,557,558,559,559,558,555,550,546,539,535,532,529,529,528,527,527,526,526,525,525,524,524,523,520,519,519,519,519,519,519,519,519,519,519,519,519,519,519,519,519,519,519,519,519,519,519,519,518,519,520,520,521,521,522,523,523,523,522,520,520,520,520,523,534,535,536,536,536,536,536,536,536,535,535,534,534,534,534,532,526,525,525,524,524,522,522,521,521,521,521,521,521,521,521,518,515,513,513,513,513,513,513,513,513,513,513,513,513,513,513,513,513,513,513,513,513,513,513,513,513,513,513,513,513,513,513,513,513,513,513,513,513,513,513,513,513,513,513,513,513,513,513,513,513,513,513,513,513,513,513,513,513,513,513,513,513,513,513,513,513,513,513,513,513,513,513,513,513,513,513,513,513,513,513,516,541,559,572,573,574,562,536,492,467,448,448,463,520,685,721,721,721,721,721,721,721,721,721,721,721,721,719,711,699,696,693,687,678,643,614,583,528,498,441,417,399,377,367,362,362,362,361,368,387,430,446,454,460,469,475,480,489,499,510,525,528,529,530,530,530,530,529,527,523,522,521,521,521,521,521,521,521,521,521,521,521,521,521,521,520,520,520,520,520,520,520,520,520,520,520,520,520,520,520,520,520,520,520,520,520,520,520,520,520,520,520,520,520,520,520,520,520,520,520,520,520,520,520,520,520,520,520,520,520,520,520,520,520,520,520,521,525,530,546,546,548,548,548,548,548,548,548,548,548,548,548,548,548,548,548,548,548,548,548,548,548,548,545,536,528,524,522,522,522,522,522,522,522,522,522,522,522,522,522,522,522,522,522,522,516,504,502,502,502,502,502,502,502,502,502,502,502,502,502,502,502,502,502,502,502,502,502,502,502,502,501,501,501,500,500,500,500,500,500,500,500,500,500,500,500,500,500,500,500,500,500,500,500,500,500,500,500,500,500,500,500,500,500,500,500,500,500,500,500,500,500,500,500,500,500,500,500,500,500,500,485,480,477,479,479,479,479,479,479,479,479,479,479,479,479,479,479,479,479,479,479,479,479,479,479,479,479,479,479,479,479,479,479,479,479,479,479,479,479,479,479,479,479,479,479,479,479,479,479,479,479,479,479,479,479,479,479,479,479,479,479,479,479,479,479,479,479,479,479,479,479,479,479,479,479,479,479,479,479,479,479,479,479,479,479,479,479,479,479,479,479,479,479,479,479,479,479,479,479,479,479,479,479,479,479,479,479,479,479,479,479,479,479,479,479,479,479,479,479,479,479,479,479,479,479,479,479,479,479,479,479,479,479,479,479,479,479,479,479,479,479,479,479,479,479,479,479,479,479,479,479,479,479,479,479,479,479,479,479,479,479,479,479,479,479,479,479,479,479,479,479,479,479,479,479,479,479,479,479,479,453,427,423,422,420,419,419,419,419,419,419,419,419,419,419,419,423,443,456,477,491,502,510,525,532,538,551,559,565,570,573,574,574,573,571,567,564,558,544,535,528,519,513,512,512,511,511,511,511,511,511,511,511,511,511,511,511,511,511,511,511,511,511,511,511,511,511,511,511,511,511,511,511,511,511,511,510,507,505,506,506,506,506,506,506,506,505,504,504,504,503,503,502,507,516,517,517,517,517,519,536,572,604,621,622,622,622,622,611,505,389,336,333,333,333,333,333,333,333,333,333,333,333,333,333,333,333,333,333,333,333,331,329,317,306,299,299,299,295,255,228,202,186,173,162,146,143,141,141,127,124,119,105,73],"timestamp_mouse":[10,50,71,90,111,130,150,171,191,210,230,251,270,290,311,331,350,370,392,410,431,450,471,490,510,531,550,571,591,610,631,650,670,690,710,732,751,770,791,810,830,850,871,890,910,931,951,971,991,1010,1032,1050,1071,1091,1110,1130,1150,1171,1191,1211,1230,1250,1270,1290,1311,1331,1351,1371,1392,1411,1431,1451,1471,1492,1511,1531,1550,1571,1591,1611,1630,1652,1670,1691,1711,1732,1750,1771,1791,1811,1831,1851,1871,1890,1911,1930,1951,1971,1991,2011,2031,2052,2071,2091,2111,2131,2151,2171,2191,2211,2231,2251,2271,2291,2311,2331,2351,2371,2391,2411,2430,2451,2470,2491,2511,2530,2550,2571,2590,2611,2631,2651,2670,2690,2711,2731,2751,2770,2791,2812,2830,2851,2871,2891,2911,2931,2950,2971,2991,3011,3031,3051,3071,3090,3110,3130,3150,3171,3190,3211,3230,3250,3270,3290,3310,3332,3350,3371,3390,3410,3430,3451,3471,3490,3510,3530,3551,3570,3592,3610,3631,3650,3671,3690,3710,3731,3751,3771,3790,3810,3831,3850,3871,3891,3910,3931,3950,3971,3991,4010,4030,4050,4072,4091,4111,4130,4150,4171,4190,4210,4230,4251,4271,4290,4310,4332,4350,4371,4390,4411,4430,4452,4471,4490,4511,4531,4550,4571,4590,4610,4630,4651,4670,4691,4710,4731,4750,4770,4790,4810,4831,4851,4870,4890,4911,4930,4950,4971,4991,5010,5031,5050,5071,5090,5110,5131,5152,5170,5191,5210,5230,5250,5270,5291,5311,5331,5350,5370,5391,5411,5430,5450,5471,5490,5510,5530,5550,5571,5590,5611,5631,5650,5670,5691,5711,5730,5751,5771,5790,5811,5831,5850,5871,5891,5910,5931,5950,5971,5990,6010,6030,6050,6071,6091,6110,6130,6151,6171,6191,6211,6230,6250,6272,6290,6310,6330,6351,6370,6390,6410,6431,6451,6470,6491,6511,6530,6550,6570,6590,6610,6630,6651,6670,6691,6711,6731,6750,6770,6791,6811,6830,6851,6871,6890,6910,6930,6950,6971,6990,7011,7030,7051,7070,7090,7112,7131,7150,7170,7191,7211,7230,7250,7272,7290,7310,7330,7351,7370,7390,7410,7430,7450,7470,7490,7510,7531,7550,7571,7590,7610,7630,7651,7671,7690,7712,7730,7752,7771,7790,7811,7831,7850,7870,7891,7912,7930,7951,7970,7990,8011,8030,8051,8072,8091,8111,8132,8151,8170,8191,8211,8231,8250,8271,8291,8310,8331,8350,8370,8391,8410,8430,8451,8470,8490,8511,8531,8551,8571,8591,8611,8630,8650,8670,8692,8710,8731,8751,8770,8790,8810,8830,8850,8871,8890,8910,8931,8950,8970,8990,9010,9030,9051,9070,9090,9110,9132,9150,9171,9190,9211,9230,9250,9271,9290,9311,9330,9350,9370,9390,9411,9431,9451,9471,9490,9510,9530,9551,9571,9590,9610,9630,9650,9671,9690,9711,9730,9751,9770,9791,9810,9831,9850,9871,9891,9910,9930,9951,9970,9992,10011,10030,10050,10071,10090,10111,10131,10150,10171,10190,10210,10230,10251,10271,10291,10310,10331,10351,10371,10390,10410,10431,10450,10470,10490,10512,10531,10551,10570,10590,10611,10631,10650,10670,10691,10711,10730,10751,10771,10791,10811,10830,10852,10871,10891,10911,10930,10951,10970,10990,11011,11030,11051,11071,11090,11111,11132,11150,11171,11190,11210,11230,11250,11270,11291,11310,11330,11350,11370,11391,11410,11430,11450,11470,11490,11510,11530,11550,11570,11590,11610,11631,11651,11670,11691,11710,11730,11750,11771,11790,11810,11830,11851,11871,11891,11910,11930,11951,11971,11991,12011,12030,12050,12071,12091,12110,12131,12150,12171,12190,12210,12230,12251,12271,12290,12310,12330,12350,12371,12390,12411,12431,12450,12470,12490,12510,12531,12550,12571,12590,12610,12631,12651,12671,12690,12710,12731,12750,12771,12790,12810,12832,12850,12872,12890,12910,12930,12950,12971,12990,13010,13031,13050,13071,13090,13111,13130,13150,13170,13190,13210,13230,13251,13271,13291,13311,13331,13351,13371,13390,13410,13430,13452,13471,13491,13511,13530,13550,13571,13591,13611,13630,13650,13670,13691,13710,13730,13751,13770,13790,13810,13830,13851,13871,13890,13911,13931,13950,13971,13990,14010,14030,14051,14071,14092,14110,14130,14150,14170,14192,14211,14230,14251,14271,14291,14310,14331,14350,14370,14390,14410,14430,14450,14471,14490,14511,14531,14551,14571,14590,14611,14630,14651,14671,14690,14710,14730,14750,14771,14790,14810,14830,14850,14872,14890,14910,14931,14950,14971,14991,15010,15031,15050,15071,15090,15110,15130,15150,15171,15190,15211,15230,15251,15272,15290,15310,15331,15350,15371,15390,15410,15431,15450,15470,15490,15510,15530,15550,15570,15590,15611,15630,15650,15670,15690,15711,15731,15751,15770,15790,15810,15830,15850,15870,15890,15910,15930,15951,15970,15990,16010,16030,16051,16070,16090,16111,16130,16150,16170,16190,16211,16230,16250,16270,16290,16311,16330,16351,16371,16391,16411,16431,16450,16472,16491,16512,16531,16551,16571,16590,16610,16630,16651,16671,16692,16710,16731,16750,16772,16790,16810,16831,16851,16871,16890,16910,16930,16951,16970,16990,17010,17031,17051,17071,17090,17110,17131,17150,17171,17191,17210,17230,17251,17271,17290,17310,17331,17350,17370,17390,17410,17430,17451,17471,17490,17510,17530,17550,17571,17590,17611,17630,17650,17670,17690,17710,17731,17750,17771,17790,17810,17831,17851,17870,17892,17910,17931,17950,17971,17991,18010,18031,18050,18070,18090,18110,18131,18150,18171,18190,18210,18230,18250,18270,18290,18311,18330,18351,18370,18390,18411,18431,18452,18471,18491,18510,18530,18550,18570,18590,18610,18630,18650,18670,18690,18711,18730,18750,18770,18790,18811,18830,18850,18870,18891,18910,18931,18951,18971,18990,19010,19031,19050,19070,19092,19111,19130,19150,19171,19190,19211,19231,19250,19271,19290,19310,19331,19350,19370,19390,19410,19430,19451,19471,19490,19511,19530,19551,19570,19590,19610,19631,19651,19672,19690,19710,19730,19751,19771,19790,19811,19830,19850,19871,19890,19910,19931,19951,19971,19990,20010,20031,20050,20070,20090,20112,20131,20151,20170,20192,20211,20230,20250,20271,20290,20310,20331,20350,20370,20390,20410,20431,20451,20470,20490,20510,20530,20550,20570,20590,20611,20631,20650,20671,20690,20710,20731,20750,20771,20791,20810,20830,20850,20871,20890,20910,20930,20951,20971,20990,21011,21031,21052,21071,21090,21110,21132,21151,21170,21190,21211,21230,21250,21271,21290,21311,21330,21351,21370,21390,21411,21430,21450,21470,21491,21511,21531,21551,21571,21591,21611,21630,21651,21672,21691,21711,21731,21750,21771,21790,21811,21831,21850,21870,21892,21910,21930,21952,21971,21990,22010,22030,22051,22070,22091,22111,22130,22150,22171,22190,22210,22231,22250,22270,22291,22311,22330,22350,22370,22391,22411,22431,22450,22471,22490,22510,22532,22550,22572,22590,22610,22631,22651,22670,22691,22712,22731,22751,22771,22791,22810,22830,22851,22870,22891,22910,22931,22950,22971,22990,23011,23030,23051,23070,23090,23110,23130,23151,23170,23191,23210,23230,23250,23271,23291,23311,23330,23350,23371,23390,23411,23430,23450,23471,23497,23510,23530,23551,23571,23590,23611,23630,23650,23671,23690,23711,23730,23752,23771,23790,23810,23830,23850,23871,23891,23910,23930,23951,23970,23990,24010,24031,24050,24071,24092,24110,24131,24150,24172,24191,24211,24230,24250,24272,24290,24311,24330,24351,24371,24391,24410,24430,24451,24470,24490,24511,24530,24550,24570,24590,24611,24631,24651,24671,24690,24711,24730,24751,24771,24791,24811,24831,24851,24871,24890,24911,24931,24950,24971,24990,25011,25031,25050,25071,25091,25112,25130,25151,25170,25190,25211,25231,25251,25271,25290,25311,25331,25350,25371,25390,25411,25432,25451,25470,25490,25510,25530,25551,25571,25590,25611,25630,25650,25670,25691,25710,25730,25750,25771,25790,25810,25830,25850,25870,25890,25911,25931,25950,25970,25992,26010,26031,26050,26071,26090,26110,26131,26150,26170,26190,26211,26230,26250,26270,26290,26311,26330,26351,26370,26390,26410,26430,26450,26470,26490,26510,26531,26551,26571,26590,26610,26631,26650,26671,26690,26710,26731,26750,26771,26790,26810,26831,26851,26871,26891,26910,26930,26950,26970,26990,27011,27030,27051,27071,27090,27110,27130,27150,27171,27191,27210,27230,27251,27270,27290,27311,27331,27350,27370,27390,27411,27431,27451,27470,27491,27510,27530,27550,27570,27591,27610,27632,27650,27671,27691,27710,27730,27750,27770,27790,27810,27830,27850,27871,27890,27910,27930,27952,27971,27992,28010,28030,28050,28070,28090,28112,28130,28150,28171,28190,28211,28230,28250,28270,28291,28310,28330,28350,28370,28390,28411,28431,28450,28471,28491,28511,28530,28550,28571,28590,28610,28632,28650,28671,28690,28710,28730,28752,28771,28790,28810,28830,28850,28871,28891,28911,28930,28950,28970,28990,29012,29030,29050,29070,29091,29110,29130,29150,29170,29190,29211,29231,29251,29270,29290,29310,29331,29350,29370,29390,29410,29430,29450,29470,29491,29510,29530,29551,29570,29590,29610,29631,29651,29670,29690,29711,29730,29751,29771,29790,29811,29830,29850,29870,29890,29911,29930,29950,29970,29990,30010,30030,30050,30070,30090,30110,30130,30151,30171,30191,30211,30230,30250,30271,30290,30310,30330,30350,30370,30391,30411,30430,30450,30471,30490,30511,30530,30550,30571,30591,30610,30631,30651,30671,30691,30710,30730,30751,30771,30790,30811,30830,30850,30871,30891,30911,30930,30950,30971,30991,31011,31030,31050,31072,31091,31110,31131,31151,31171,31190,31210,31230,31251,31271,31290,31310,31330,31350,31370,31390,31410,31430,31450,31471,31490,31510,31530,31550,31570,31591,31611,31632,31651,31670,31691,31710,31730,31750,31771,31791,31810,31830,31851,31870,31890,31910,31932,31950,31970,31991,32011,32031,32050,32070,32091,32110,32131,32150,32170,32190,32210,32230,32251,32270,32291,32310,32330,32350,32370,32390,32412,32430,32450,32472,32490,32511,32530,32551,32571,32590,32610,32630,32650,32670,32690,32710,32731,32752,32771,32790,32810,32830,32850,32871,32891,32910,32931,32950,32971,32990,33011,33031,33051,33071,33091,33110,33131,33150,33171,33191,33211,33231,33252,33271,33290,33311,33330,33351,33370,33390,33411,33431,33450,33470,33491,33510,33531,33551,33572,33591,33611,33630,33651,33670,33691,33712,33730,33751,33770,33791,33812,33830,33850,33870,33891,33911,33930,33950,33970,33991,34011,34030,34051,34071,34091,34110,34131,34151,34170,34191,34210,34231,34251,34272,34291,34310,34331,34352,34371,34391,34411,34431,34451,34471,34491,34511,34531,34550,34570,34591,34611,34632,34651,34671,34691,34711,34731,34750,34770,34791,34810,34831,34851,34871,34891,34911,34931,34951,34971,34990,35011,35031,35051,35071,35090,35110,35131,35152,35170,35190,35211,35231,35250,35271,35291,35311,35331,35351,35371,35391,35411,35432,35451,35470,35490,35511,35530,35551,35571,35590,35611,35631,35651,35671,35691,35710,35731,35750,35771,35792,35811,35830,35850,35870,35890,35910,35930,35951,35970,35990,36011,36030,36051,36070,36091,36110,36131,36150,36170,36190,36211,36231,36250,36272,36291,36310,36331,36350,36371,36391,36410,36430,36451,36470,36490,36510,36532,36550,36571,36591,36610,36630,36650,36671,36690,36710,36731,36750,36770,36790,36810,36831,36851,36870,36890,36911,36931,36952,36971,36991,37011,37030,37050,37071,37091,37110,37130,37151,37171,37191,37211,37231,37251,37271,37291,37311,37331,37351,37370,37391,37411,37430,37451,37471,37491,37511,37530,37551,37571,37591,37611,37630,37650,37671,37690,37711,37731,37751,37771,37791,37811,37831,37851,37870,37890,37910,37932,37951,37970,37990,38010,38031,38050,38070,38091,38111,38131,38150,38171,38191,38211,38230,38251,38271,38291,38311,38331,38351,38370,38391,38411,38431,38450,38471,38490,38511,38530,38550,38571,38591,38611,38631,38650,38671,38691,38711,38731,38751,38771,38790,38811,38831,38850,38870,38890,38910,38931,38950,38971,38991,39011,39031,39050,39071,39090,39110,39131,39151,39171,39190,39211,39231,39251,39271,39291,39312,39330,39351,39371,39391,39411,39431,39450,39471,39492,39511,39531,39550,39571,39590,39611,39632,39650,39671,39690,39711,39731,39751,39770,39791,39810,39831,39851,39871,39890,39910,39930,39950,39970,39991,40011,40032,40050,40070,40090,40110,40131,40151,40171,40190,40210,40231,40252,40270,40291,40311,40331,40350,40371,40391,40411,40431,40451,40471,40490,40511,40530,40550,40571,40591,40612,40631,40650,40670,40691,40712,40731,40751,40770,40791,40812,40831,40851,40870,40891,40911,40931,40951,40971,40991,41010,41032,41051,41071,41091,41111,41130,41150,41171,41190,41210,41231,41251,41271,41291,41310,41330,41351,41370,41390,41410,41430,41451,41470,41491,41510,41530,41551,41571,41591,41611,41631,41650,41671,41692,41710,41730,41750,41770,41790,41811,41831,41850,41871,41890,41910,41930,41950,41971,41990,42010,42032,42050,42071,42090,42110,42130,42150,42170,42190,42210,42230,42250,42272,42290,42310,42330,42351,42370,42391,42410,42430,42450,42471,42491,42510,42530,42550,42570,42590,42611,42630,42651,42671,42690,42710,42731,42750,42770,42791,42810,42830,42850,42870,42890,42911,42932,42950,42970,42991,43011,43030,43051,43071,43091,43112,43131,43150,43170,43191,43210,43231,43251,43270,43290,43310,43330,43350,43370,43391,43410,43431,43452,43471,43491,43510,43530,43551,43571,43592,43611,43630,43651,43671,43691,43711,43731,43751,43770,43791,43811,43831,43851,43871,43892,43910,43931,43951,43970,43991,44011,44031,44051,44071,44090,44111,44130,44150,44170,44192,44212,44230,44252,44272,44290,44311,44331,44350,44371,44390,44411,44431,44450,44471,44491,44511,44531,44551,44571,44591,44611,44631,44650,44670,44690,44710,44730,44751,44771,44791,44810,44831,44850,44871,44890,44910,44930,44950,44971,44990,45011,45030,45052,45071,45090,45110,45131,45150,45171,45190,45210,45231,45250,45270,45290,45310,45330,45350,45370,45390,45410,45430,45450,45470,45490,45510,45530,45550,45571,45590,45611,45630,45651,45671,45692,45711,45730,45750,45770,45791,45810,45832,45851,45870,45890,45911,45930,45951,45970,45990,46010,46030,46051,46070,46090,46110,46130,46150,46170,46191,46211,46230,46251,46270,46292,46311,46330,46350,46370,46391,46410,46430,46450,46471,46490,46510,46531,46551,46570,46590,46610,46631,46650,46670,46690,46710,46730,46750,46771,46790,46811,46831,46851,46870,46890,46910,46930,46951,46971,46991,47011,47030,47051,47071,47090,47111,47131,47151,47170,47190,47210,47230,47250,47270,47291,47310,47331,47351,47370,47390,47410,47430,47450,47470,47490,47511,47530,47551,47571,47590,47611,47632,47651,47670,47690,47710,47730,47750,47770,47792,47810,47830,47850,47871,47891,47910,47930,47951,47970,47990,48010,48030,48051,48070,48091,48111,48130,48150,48170,48190,48210,48230,48250,48270,48290,48310,48331,48350,48370,48391,48411,48430,48450,48470,48490,48510,48530,48550,48570,48591,48610,48631,48650,48671,48690,48710,48730,48750,48770,48791,48812,48831,48850,48870,48891,48910,48930,48950,48970,48990,49011,49030,49051,49070,49091,49110,49130,49150,49171,49190,49211,49231,49250,49271,49290,49311,49330,49350,49370,49391,49410,49430,49451,49471,49490,49510,49531,49551,49571,49591,49610,49631,49651,49671,49690,49710,49731,49750,49771,49790,49811,49831,49851,49870,49891,49910,49930,49951,49971,49991,50012,50030,50050,50070,50091,50111,50131,50150,50170,50190,50210,50231,50250,50271,50290,50311,50330,50351,50371,50390,50411,50431,50451,50470,50491,50511,50531,50551,50570,50592,50611,50630,50650,50672,50690,50710,50730,50751,50771,50791,50811,50830,50850,50870,50891,50912,50931,50950,50971,50990,51010,51031,51051,51071,51091,51110,51131,51152,51171,51191,51211,51230,51251,51271,51291,51310,51330,51351,51371,51391,51411,51430,51451,51470,51491,51511,51531,51551,51570,51590,51611,51630,51651,51670,51690,51711,51731,51750,51771,51791,51810,51830,51851,51872,51891,51911,51930,51951,51971,51991,52011,52030,52051,52071,52091,52111,52130,52150,52171,52190,52211,52231,52250,52271,52290,52311,52331,52350,52370,52391,52410,52430,52450,52470,52492,52512,52530,52551,52570,52591,52610,52630,52650,52670,52690,52710,52730,52751,52771,52791,52810,52830,52851,52870,52890,52910,52930,52950,52970,52990,53010,53031,53050,53071,53091,53111,53130,53151,53170,53190,53210,53230,53250,53270,53291,53310,53331,53350,53371,53390,53411,53430,53450,53470,53490,53511,53530,53551,53571,53590,53610,53631,53650,53670,53690,53710,53730,53750,53771,53790,53810,53830,53850,53870,53891,53910,53930,53951,53970,53990,54010,54030,54051,54071,54091,54111,54131,54150,54170,54190,54210,54230,54250,54271,54291,54311,54330,54350,54370,54390,54411,54431,54450,54470,54490,54510,54531,54551,54570,54590,54611,54630,54650,54671,54690,54711,54731,54751,54770,54790,54811,54830,54850,54871,54890,54910,54930,54950,54971,54990,55010,55030,55051,55070,55090,55110,55130,55150,55170,55190,55211,55230,55250,55270,55291,55310,55330,55350,55371,55390,55410,55431,55450,55470,55490,55511,55530,55550,55570,55591,55610,55630,55650,55670,55690,55710,55731,55751,55771,55791,55811,55831,55850,55871,55890,55910,55931,55950,55971,55990,56010,56030,56051,56070,56091,56110,56131,56150,56170,56190,56210,56230,56251,56270,56290,56311,56331,56350,56370,56390,56410,56430,56451,56470,56490,56510,56530,56551,56570,56590,56610,56631,56652,56672,56693,56712,56732,56752,56773,56792,56812,56833,56852,56871,56893,56912,56933,56953,56972,56992,57012,57032,57052,57072,57092,57111,57133,57152,57173,57193,57212,57233,57253,57272,57292,57312,57333,57352,57373,57392,57412,57433,57452,57472,57493,57512,57532,57553,57572,57592,57613,57633,57652,57672,57692,57713,57732,57752,57772,57793,57812,57832,57852,57873,57892,57912,57933,57953,57972,57993,58012,58033,58053,58072,58093,58113,58133,58152,58173,58192,58213,58232,58252,58271,58293,58313,58332,58352,58373,58393,58412,58433,58452,58472,58493,58513,58532,58552,58573,58592,58612,58633,58653,58672,58692,58712,58732,58752,58773,58792,58813,58833,58852,58873,58892,58912,58932,58952,58972,58993,59012,59032,59052,59073,59093,59112,59132,59152,59173,59193,59213,59233,59252,59272,59292,59311,59333,59352,59372,59392,59411,59432,59452,59472,59492,59512,59532,59553,59572,59592,59612,59633,59651,59673,59693,59713,59732,59752,59773,59792,59812,59832,59853,59873,59892,59912,59933,59952,59972,59992,60013,60033,60053,60072,60092,60113,60133,60152,60173,60193,60213,60233,60253,60272,60292,60313,60332,60352,60373,60392,60412,60432,60452,60472,60492,60512,60532,60552,60572,60592,60613,60632,60653,60673,60693,60712,60732,60752,60772,60792,60813,60832,60852,60872,60893,60912,60933,60952,60972,60993,61012,61033,61052,61073,61093,61113,61132,61153,61172,61192,61213,61232,61252,61272,61293,61313,61332,61352,61373,61393,61412,61432,61452,61472,61493,61513,61532,61553,61573,61593,61613,61632,61652,61672,61692,61713,61732,61751,61773,61792,61812,61832,61852,61872,61892,61912,61932,61952,61972,61993,62012,62033,62052,62073,62093,62112,62132,62151,62173,62193,62212,62233,62253,62272,62292,62313,62332,62352,62372,62393,62411,62432,62453,62473,62492,62513,62532,62551,62573,62593,62612,62633,62653,62673,62692,62712,62733,62753,62772,62792,62813,62833,62853,62873,62892,62913,62933,62953,62973,62993,63012,63033,63052,63073,63092,63113,63133,63152,63173,63192,63212,63233,63252,63273,63293,63312,63332,63353,63372,63392,63412,63432,63452,63473,63492,63513,63533,63552,63572,63592,63612,63632,63653,63673,63693,63713,63733,63752,63773,63793,63813,63832,63851,63873,63893,63913,63933,63953,63973,63993,64012,64033,64053,64073,64093,64112,64132,64152,64172,64193,64213,64233,64253,64273,64293,64313,64333,64352,64372,64392,64412,64432,64453,64473,64493,64512,64533,64552,64572,64593,64613,64632,64653,64673,64692,64712,64732,64752,64773,64791,64812,64832,64852,64872,64892,64913,64932,64953,64972,64992,65012,65032,65053,65072,65093,65112,65133,65152,65172,65192,65213,65233,65252,65273,65292,65312,65332,65352,65373,65392,65412,65432,65452,65472,65493,65512,65532,65552,65573,65592,65612,65633,65651,65673,65693,65712,65732,65752,65773,65792,65812,65833,65852,65873,65892,65912,65932,65952,65973,65992,66013,66032,66053,66073,66092,66113,66132,66152,66172,66193,66213,66232,66252,66273,66292,66312,66333,66352,66372,66393,66412,66432,66452,66473,66492,66512,66533,66553,66573,66592,66612,66633,66652,66672,66693,66712,66732,66752,66773,66793,66812,66833,66852,66872,66892,66913,66932,66952,66973,66993,67012,67033,67052,67073,67092,67113,67132,67153,67173,67192,67212,67232,67252,67272,67292,67312,67332,67352,67373,67392,67412,67432,67452,67472,67492,67512,67533,67552,67573,67592,67612,67632,67652,67672,67692,67712,67732,67752,67772,67792,67812,67832,67852,67873,67893,67913,67932,67952,67973,67992,68013,68032,68053,68072,68092,68112,68132,68152,68173,68192,68212,68233,68253,68272,68293,68312,68333,68352,68373,68392,68412,68432,68452,68473,68493,68512,68533,68552,68573,68591,68612,68632,68652,68672,68692,68712,68733,68752,68772,68791,68812,68832,68852,68872,68892,68913,68933,68952,68973,68992,69013,69032,69052,69072,69093,69113,69132,69152,69172,69193,69213,69232,69251,69272,69293,69312,69332,69352,69372,69393,69412,69433,69453,69473,69492,69513,69533,69553,69572,69593,69613,69632,69652,69672,69692,69712,69733,69751,69773,69793,69812,69832,69853,69872,69892,69913,69932,69952,69974,69992,70012,70032,70052,70073,70092,70112,70133,70153,70174,70192,70212,70232,70252,70273,70292,70312,70333,70353,70372,70392,70412,70432,70452,70473,70493,70513,70533,70552,70572,70592,70612,70632,70653,70673,70692,70713,70732,70752,70773,70792,70812,70832,70853,70873,70892,70912,70932,70951,70972,70992,71012,71032,71052,71072,71093,71112,71132,71152,71172],"xSR":741.5,"ySR":500.5,"xT1":424.9,"yT1":0,"xT2":1058.1,"yT2":0,"toosoon":0,"cond_shown":"Congruent","ratio_trial":200,"L_num":9,"L_den":30,"R_num":13,"R_den":26,"correct_side":2,"subjID":"anafernandaberriohiguita35","gender":"1","age":"11","school":"6","test":{"fix_dur":[250,1500],"timestim":1000,"targets_dim":[100,100],"targets_relative_coord":[0.3,0.7],"size_stim":[880,420],"start_dim":[100,100],"size_start":[300,300],"size_fix":60,"samplingrate":20,"img_types":["Congruent","Incongruent"],"ratios":[100,200,300],"rep_conds":19,"nTrials":120,"trials_to_rest":500,"Trials_order":[74,7,73,95,107,53,19,24,52,48,108,31,117,58,39,86,35,36,41,79,32,40,28,97,38,100,115,55,9,84,103,87,21,10,101,80,104,64,78,13,14,30,5,70,43,105,106,2,65,82,49,67,20,18,47,6,26,71,56,60,44,12,109,63,1,119,34,96,114,50,0,113,16,42,89,77,23,62,68,76,25,83,72,51,81,57,11,61,22,37,17,8,85,91,45,112,15,110,4,69,93,3,27,92,102,66,46,116,59,29,90,33,54,75,118,98,88,94,111,99],"cond_shown":["Congruent","Incongruent","Incongruent","Incongruent","Incongruent","Incongruent","Incongruent","Congruent","Congruent","Congruent","Congruent","Incongruent","Incongruent","Congruent","Incongruent","Congruent","Incongruent","Congruent","Incongruent","Incongruent","Congruent","Congruent","Congruent","Incongruent","Congruent","Congruent","Incongruent","Incongruent","Incongruent","Congruent","Incongruent","Incongruent","Incongruent","Congruent","Incongruent","Congruent","Congruent","Congruent","Congruent","Incongruent","Congruent","Congruent","Incongruent","Congruent","Incongruent","Incongruent","Congruent","Congruent","Incongruent","Congruent","Incongruent","Incongruent","Congruent","Congruent","Incongruent","Congruent","Congruent","Incongruent","Congruent","Congruent","Congruent","Congruent","Incongruent","Incongruent","Incongruent","Incongruent","Congruent","Congruent","Congruent","Congruent","Congruent","Incongruent","Congruent","Congruent","Incongruent","Incongruent","Incongruent","Congruent","Congruent","Congruent","Incongruent","Incongruent","Congruent","Incongruent","Incongruent","Incongruent","Incongruent","Incongruent","Congruent","Incongruent","Incongruent","Congruent","Incongruent","Incongruent","Incongruent","Congruent","Incongruent","Congruent","Congruent","Incongruent","Incongruent","Incongruent","Incongruent","Congruent","Congruent","Congruent","Congruent","Congruent","Incongruent","Incongruent","Congruent","Incongruent","Congruent","Incongruent","Congruent","Congruent","Congruent","Congruent","Incongruent","Incongruent"],"ratio_trial":[200,100,100,300,300,300,100,100,300,100,100,100,200,300,200,200,300,100,300,100,200,300,300,100,200,300,100,100,200,100,100,200,200,300,300,200,200,300,100,100,200,100,300,300,100,200,300,200,300,300,100,100,200,100,300,100,200,300,200,100,200,100,100,200,100,300,300,100,100,200,100,300,300,100,300,300,300,200,200,300,100,300,100,200,200,200,300,100,300,100,300,200,100,100,200,300,200,200,300,200,200,200,200,200,100,100,300,200,300,300,100,200,100,200,300,200,300,300,200,200],"left_num":[9,9,13,7,7,13,11,3,24,4,2,1,7,20,6,16,1,3,7,3,6,1,3,9,3,24,2,9,3,2,6,4,7,24,13,11,4,11,10,10,8,7,13,1,17,14,3,4,13,20,9,2,12,6,4,1,6,4,3,9,3,11,10,3,2,4,20,7,11,14,15,13,20,11,4,4,3,3,12,20,8,7,1,3,14,7,4,9,2,10,13,6,13,9,3,12,1,6,4,4,6,9,1,14,7,11,8,12,8,3,11,14,11,14,4,3,1,7,7,7],"right_num":[13,20,6,8,8,12,9,4,8,6,11,8,4,9,3,12,2,2,8,4,11,7,4,13,7,8,8,14,11,6,13,14,4,8,12,3,3,2,3,9,3,15,12,11,10,12,4,3,12,13,14,8,6,5,6,18,11,2,14,8,9,4,8,1,6,8,13,15,6,6,13,12,13,6,2,2,4,7,6,8,6,8,18,11,6,6,8,20,10,8,12,7,12,13,1,2,2,11,1,14,3,8,2,6,9,4,10,6,14,4,4,12,6,6,13,14,19,20,8,14],"left_den":[30,10,26,10,10,26,22,20,30,8,5,2,15,25,20,20,2,6,10,6,20,20,6,15,10,30,4,15,4,5,10,6,15,30,26,22,10,22,25,25,15,14,26,5,30,30,6,8,26,25,15,4,15,20,5,2,20,20,10,15,12,22,25,10,4,5,25,14,22,28,25,26,25,22,20,20,6,10,15,25,16,10,2,4,30,15,5,10,20,25,26,12,26,15,10,24,3,20,10,6,20,15,3,28,14,22,15,20,10,6,22,30,22,30,20,10,3,14,10,10],"right_den":[26,25,10,20,20,15,15,16,16,10,22,20,6,18,6,20,10,5,20,10,22,20,5,26,14,16,20,28,20,12,26,30,6,16,15,10,15,10,10,18,9,25,15,22,15,18,5,10,15,26,28,20,10,25,12,30,22,4,28,16,20,10,16,2,15,16,26,25,15,20,26,15,26,15,4,4,20,14,10,16,10,20,30,20,9,9,16,25,25,16,15,10,20,26,2,10,15,22,10,30,6,10,15,20,15,10,12,15,28,20,10,18,15,9,26,28,30,25,16,28],"correct_side":[2,1,2,1,1,2,2,2,1,2,2,1,2,1,2,1,1,1,1,1,2,2,2,1,2,1,1,1,1,2,1,1,2,1,2,1,1,1,1,2,1,2,2,2,2,2,2,1,2,1,1,1,1,1,1,2,2,2,2,1,2,1,2,2,1,1,1,2,1,1,1,2,1,1,2,2,1,2,1,1,2,1,2,1,2,2,1,1,2,2,2,2,2,1,2,1,1,2,1,1,2,2,1,1,2,1,2,1,1,1,1,2,1,2,2,2,2,2,1,1],"img_shown":["img2/200/Congruent/R/C_Dist_200_LN_9_LD_30_RN_13_RD_26_1.png","img2/100/Incongruent/L/I_Dist_100_LN_9_LD_10_RN_20_RD_25_0.png","img2/100/Incongruent/R/I_Dist_100_LN_13_LD_26_RN_6_RD_10_1.png","img2/300/Incongruent/L/I_Dist_300_LN_7_LD_10_RN_8_RD_20_0.png","img2/300/Incongruent/L/I_Dist_300_LN_7_LD_10_RN_8_RD_20_0.png","img2/300/Incongruent/R/I_Dist_300_LN_13_LD_26_RN_12_RD_15_1.png","img2/100/Incongruent/R/I_Dist_100_LN_11_LD_22_RN_9_RD_15_1.png","img2/100/Congruent/R/C_Dist_100_LN_3_LD_20_RN_4_RD_16_1.png","img2/300/Congruent/L/C_Dist_300_LN_24_LD_30_RN_8_RD_16_0.png","img2/100/Congruent/R/C_Dist_100_LN_4_LD_8_RN_6_RD_10_1.png","img2/100/Congruent/R/C_Dist_100_LN_2_LD_5_RN_11_RD_22_1.png","img2/100/Incongruent/L/I_Dist_100_LN_1_LD_2_RN_8_RD_20_0.png","img2/200/Incongruent/R/I_Dist_200_LN_7_LD_15_RN_4_RD_6_1.png","img2/300/Congruent/L/C_Dist_300_LN_20_LD_25_RN_9_RD_18_0.png","img2/200/Incongruent/R/I_Dist_200_LN_6_LD_20_RN_3_RD_6_1.png","img2/200/Congruent/L/C_Dist_200_LN_16_LD_20_RN_12_RD_20_0.png","img2/300/Incongruent/L/I_Dist_300_LN_1_LD_2_RN_2_RD_10_0.png","img2/100/Congruent/L/C_Dist_100_LN_3_LD_6_RN_2_RD_5_0.png","img2/300/Incongruent/L/I_Dist_300_LN_7_LD_10_RN_8_RD_20_0.png","img2/100/Incongruent/L/I_Dist_100_LN_3_LD_6_RN_4_RD_10_0.png","img2/200/Congruent/R/C_Dist_200_LN_6_LD_20_RN_11_RD_22_1.png","img2/300/Congruent/R/C_Dist_300_LN_1_LD_20_RN_7_RD_20_1.png","img2/300/Congruent/R/C_Dist_300_LN_3_LD_6_RN_4_RD_5_1.png","img2/100/Incongruent/L/I_Dist_100_LN_9_LD_15_RN_13_RD_26_0.png","img2/200/Congruent/R/C_Dist_200_LN_3_LD_10_RN_7_RD_14_1.png","img2/300/Congruent/L/C_Dist_300_LN_24_LD_30_RN_8_RD_16_0.png","img2/100/Incongruent/L/I_Dist_100_LN_2_LD_4_RN_8_RD_20_0.png","img2/100/Incongruent/L/I_Dist_100_LN_9_LD_15_RN_14_RD_28_0.png","img2/200/Incongruent/L/I_Dist_200_LN_3_LD_4_RN_11_RD_20_0.png","img2/100/Congruent/R/C_Dist_100_LN_2_LD_5_RN_6_RD_12_1.png","img2/100/Incongruent/L/I_Dist_100_LN_6_LD_10_RN_13_RD_26_0.png","img2/200/Incongruent/L/I_Dist_200_LN_4_LD_6_RN_14_RD_30_0.png","img2/200/Incongruent/R/I_Dist_200_LN_7_LD_15_RN_4_RD_6_1.png","img2/300/Congruent/L/C_Dist_300_LN_24_LD_30_RN_8_RD_16_0.png","img2/300/Incongruent/R/I_Dist_300_LN_13_LD_26_RN_12_RD_15_1.png","img2/200/Congruent/L/C_Dist_200_LN_11_LD_22_RN_3_RD_10_0.png","img2/200/Congruent/L/C_Dist_200_LN_4_LD_10_RN_3_RD_15_0.png","img2/300/Congruent/L/C_Dist_300_LN_11_LD_22_RN_2_RD_10_0.png","img2/100/Congruent/L/C_Dist_100_LN_10_LD_25_RN_3_RD_10_0.png","img2/100/Incongruent/R/I_Dist_100_LN_10_LD_25_RN_9_RD_18_1.png","img2/200/Congruent/L/C_Dist_200_LN_8_LD_15_RN_3_RD_9_0.png","img2/100/Congruent/R/C_Dist_100_LN_7_LD_14_RN_15_RD_25_1.png","img2/300/Incongruent/R/I_Dist_300_LN_13_LD_26_RN_12_RD_15_1.png","img2/300/Congruent/R/C_Dist_300_LN_1_LD_5_RN_11_RD_22_1.png","img2/100/Incongruent/R/I_Dist_100_LN_17_LD_30_RN_10_RD_15_1.png","img2/200/Incongruent/R/I_Dist_200_LN_14_LD_30_RN_12_RD_18_1.png","img2/300/Congruent/R/C_Dist_300_LN_3_LD_6_RN_4_RD_5_1.png","img2/200/Congruent/L/C_Dist_200_LN_4_LD_8_RN_3_RD_10_0.png","img2/300/Incongruent/R/I_Dist_300_LN_13_LD_26_RN_12_RD_15_1.png","img2/300/Congruent/L/C_Dist_300_LN_20_LD_25_RN_13_RD_26_0.png","img2/100/Incongruent/L/I_Dist_100_LN_9_LD_15_RN_14_RD_28_0.png","img2/100/Incongruent/L/I_Dist_100_LN_2_LD_4_RN_8_RD_20_0.png","img2/200/Congruent/L/C_Dist_200_LN_12_LD_15_RN_6_RD_10_0.png","img2/100/Congruent/L/C_Dist_100_LN_6_LD_20_RN_5_RD_25_0.png","img2/300/Incongruent/L/I_Dist_300_LN_4_LD_5_RN_6_RD_12_0.png","img2/100/Congruent/R/C_Dist_100_LN_1_LD_2_RN_18_RD_30_1.png","img2/200/Congruent/R/C_Dist_200_LN_6_LD_20_RN_11_RD_22_1.png","img2/300/Incongruent/R/I_Dist_300_LN_4_LD_20_RN_2_RD_4_1.png","img2/200/Congruent/R/C_Dist_200_LN_3_LD_10_RN_14_RD_28_1.png","img2/100/Congruent/L/C_Dist_100_LN_9_LD_15_RN_8_RD_16_0.png","img2/200/Congruent/R/C_Dist_200_LN_3_LD_12_RN_9_RD_20_1.png","img2/100/Congruent/L/C_Dist_100_LN_11_LD_22_RN_4_RD_10_0.png","img2/100/Incongruent/R/I_Dist_100_LN_10_LD_25_RN_8_RD_16_1.png","img2/200/Incongruent/R/I_Dist_200_LN_3_LD_10_RN_1_RD_2_1.png","img2/100/Incongruent/L/I_Dist_100_LN_2_LD_4_RN_6_RD_15_0.png","img2/300/Incongruent/L/I_Dist_300_LN_4_LD_5_RN_8_RD_16_0.png","img2/300/Congruent/L/C_Dist_300_LN_20_LD_25_RN_13_RD_26_0.png","img2/100/Congruent/R/C_Dist_100_LN_7_LD_14_RN_15_RD_25_1.png","img2/100/Congruent/L/C_Dist_100_LN_11_LD_22_RN_6_RD_15_0.png","img2/200/Congruent/L/C_Dist_200_LN_14_LD_28_RN_6_RD_20_0.png","img2/100/Congruent/L/C_Dist_100_LN_15_LD_25_RN_13_RD_26_0.png","img2/300/Incongruent/R/I_Dist_300_LN_13_LD_26_RN_12_RD_15_1.png","img2/300/Congruent/L/C_Dist_300_LN_20_LD_25_RN_13_RD_26_0.png","img2/100/Congruent/L/C_Dist_100_LN_11_LD_22_RN_6_RD_15_0.png","img2/300/Incongruent/R/I_Dist_300_LN_4_LD_20_RN_2_RD_4_1.png","img2/300/Incongruent/R/I_Dist_300_LN_4_LD_20_RN_2_RD_4_1.png","img2/300/Incongruent/L/I_Dist_300_LN_3_LD_6_RN_4_RD_20_0.png","img2/200/Congruent/R/C_Dist_200_LN_3_LD_10_RN_7_RD_14_1.png","img2/200/Congruent/L/C_Dist_200_LN_12_LD_15_RN_6_RD_10_0.png","img2/300/Congruent/L/C_Dist_300_LN_20_LD_25_RN_8_RD_16_0.png","img2/100/Incongruent/R/I_Dist_100_LN_8_LD_16_RN_6_RD_10_1.png","img2/300/Incongruent/L/I_Dist_300_LN_7_LD_10_RN_8_RD_20_0.png","img2/100/Congruent/R/C_Dist_100_LN_1_LD_2_RN_18_RD_30_1.png","img2/200/Incongruent/L/I_Dist_200_LN_3_LD_4_RN_11_RD_20_0.png","img2/200/Incongruent/R/I_Dist_200_LN_14_LD_30_RN_6_RD_9_1.png","img2/200/Incongruent/R/I_Dist_200_LN_7_LD_15_RN_6_RD_9_1.png","img2/300/Incongruent/L/I_Dist_300_LN_4_LD_5_RN_8_RD_16_0.png","img2/100/Incongruent/L/I_Dist_100_LN_9_LD_10_RN_20_RD_25_0.png","img2/300/Congruent/R/C_Dist_300_LN_2_LD_20_RN_10_RD_25_1.png","img2/100/Incongruent/R/I_Dist_100_LN_10_LD_25_RN_8_RD_16_1.png","img2/300/Incongruent/R/I_Dist_300_LN_13_LD_26_RN_12_RD_15_1.png","img2/200/Congruent/R/C_Dist_200_LN_6_LD_12_RN_7_RD_10_1.png","img2/100/Incongruent/R/I_Dist_100_LN_13_LD_26_RN_12_RD_20_1.png","img2/100/Incongruent/L/I_Dist_100_LN_9_LD_15_RN_13_RD_26_0.png","img2/200/Incongruent/R/I_Dist_200_LN_3_LD_10_RN_1_RD_2_1.png","img2/300/Congruent/L/C_Dist_300_LN_12_LD_24_RN_2_RD_10_0.png","img2/200/Incongruent/L/I_Dist_200_LN_1_LD_3_RN_2_RD_15_0.png","img2/200/Congruent/R/C_Dist_200_LN_6_LD_20_RN_11_RD_22_1.png","img2/300/Congruent/L/C_Dist_300_LN_4_LD_10_RN_1_RD_10_0.png","img2/200/Incongruent/L/I_Dist_200_LN_4_LD_6_RN_14_RD_30_0.png","img2/200/Incongruent/R/I_Dist_200_LN_6_LD_20_RN_3_RD_6_1.png","img2/200/Incongruent/R/I_Dist_200_LN_9_LD_15_RN_8_RD_10_1.png","img2/200/Incongruent/L/I_Dist_200_LN_1_LD_3_RN_2_RD_15_0.png","img2/200/Congruent/L/C_Dist_200_LN_14_LD_28_RN_6_RD_20_0.png","img2/100/Congruent/R/C_Dist_100_LN_7_LD_14_RN_9_RD_15_1.png","img2/100/Congruent/L/C_Dist_100_LN_11_LD_22_RN_4_RD_10_0.png","img2/300/Congruent/R/C_Dist_300_LN_8_LD_15_RN_10_RD_12_1.png","img2/200/Congruent/L/C_Dist_200_LN_12_LD_20_RN_6_RD_15_0.png","img2/300/Incongruent/L/I_Dist_300_LN_8_LD_10_RN_14_RD_28_0.png","img2/300/Incongruent/L/I_Dist_300_LN_3_LD_6_RN_4_RD_20_0.png","img2/100/Congruent/L/C_Dist_100_LN_11_LD_22_RN_4_RD_10_0.png","img2/200/Incongruent/R/I_Dist_200_LN_14_LD_30_RN_12_RD_18_1.png","img2/100/Congruent/L/C_Dist_100_LN_11_LD_22_RN_6_RD_15_0.png","img2/200/Incongruent/R/I_Dist_200_LN_14_LD_30_RN_6_RD_9_1.png","img2/300/Congruent/R/C_Dist_300_LN_4_LD_20_RN_13_RD_26_1.png","img2/200/Congruent/R/C_Dist_200_LN_3_LD_10_RN_14_RD_28_1.png","img2/300/Congruent/R/C_Dist_300_LN_1_LD_3_RN_19_RD_30_1.png","img2/300/Congruent/R/C_Dist_300_LN_7_LD_14_RN_20_RD_25_1.png","img2/200/Incongruent/L/I_Dist_200_LN_7_LD_10_RN_8_RD_16_0.png","img2/200/Incongruent/L/I_Dist_200_LN_7_LD_10_RN_14_RD_28_0.png"],"dist100_C":[["C_Dist_100_LN_10_LD_25_RN_3_RD_10_0.png","C_Dist_100_LN_11_LD_22_RN_4_RD_10_0.png","C_Dist_100_LN_11_LD_22_RN_6_RD_15_0.png","C_Dist_100_LN_15_LD_25_RN_13_RD_26_0.png","C_Dist_100_LN_3_LD_6_RN_2_RD_5_0.png","C_Dist_100_LN_6_LD_20_RN_5_RD_25_0.png","C_Dist_100_LN_8_LD_16_RN_2_RD_5_0.png","C_Dist_100_LN_9_LD_15_RN_8_RD_16_0.png"],["C_Dist_100_LN_1_LD_2_RN_18_RD_30_1.png","C_Dist_100_LN_1_LD_2_RN_3_RD_5_1.png","C_Dist_100_LN_12_LD_30_RN_13_RD_26_1.png","C_Dist_100_LN_2_LD_5_RN_11_RD_22_1.png","C_Dist_100_LN_2_LD_5_RN_6_RD_12_1.png","C_Dist_100_LN_3_LD_20_RN_4_RD_16_1.png","C_Dist_100_LN_4_LD_10_RN_15_RD_30_1.png","C_Dist_100_LN_4_LD_8_RN_6_RD_10_1.png","C_Dist_100_LN_6_LD_12_RN_15_RD_25_1.png","C_Dist_100_LN_7_LD_14_RN_15_RD_25_1.png","C_Dist_100_LN_7_LD_14_RN_9_RD_15_1.png"]],"dist100_I":[["I_Dist_100_LN_1_LD_2_RN_8_RD_20_0.png","I_Dist_100_LN_2_LD_4_RN_6_RD_15_0.png","I_Dist_100_LN_2_LD_4_RN_8_RD_20_0.png","I_Dist_100_LN_3_LD_5_RN_11_RD_22_0.png","I_Dist_100_LN_3_LD_5_RN_8_RD_16_0.png","I_Dist_100_LN_3_LD_6_RN_4_RD_10_0.png","I_Dist_100_LN_3_LD_9_RN_7_RD_30_0.png","I_Dist_100_LN_4_LD_8_RN_8_RD_20_0.png","I_Dist_100_LN_6_LD_10_RN_11_RD_22_0.png","I_Dist_100_LN_6_LD_10_RN_13_RD_26_0.png","I_Dist_100_LN_6_LD_10_RN_7_RD_14_0.png","I_Dist_100_LN_9_LD_10_RN_20_RD_25_0.png","I_Dist_100_LN_9_LD_15_RN_13_RD_26_0.png","I_Dist_100_LN_9_LD_15_RN_14_RD_28_0.png"],["I_Dist_100_LN_10_LD_25_RN_8_RD_16_1.png","I_Dist_100_LN_10_LD_25_RN_9_RD_18_1.png","I_Dist_100_LN_11_LD_22_RN_9_RD_15_1.png","I_Dist_100_LN_12_LD_24_RN_9_RD_15_1.png","I_Dist_100_LN_12_LD_30_RN_2_RD_4_1.png","I_Dist_100_LN_13_LD_26_RN_12_RD_20_1.png","I_Dist_100_LN_13_LD_26_RN_6_RD_10_1.png","I_Dist_100_LN_17_LD_30_RN_10_RD_15_1.png","I_Dist_100_LN_6_LD_12_RN_3_RD_5_1.png","I_Dist_100_LN_8_LD_16_RN_6_RD_10_1.png","I_Dist_100_LN_8_LD_20_RN_1_RD_2_1.png","I_Dist_100_LN_9_LD_18_RN_6_RD_10_1.png"]],"dist100_S":[["E_Dist_100_LN_2_LD_12_RN_2_RD_30_0.png","E_Dist_100_LN_6_LD_10_RN_6_RD_12_0.png"],["E_Dist_100_LN_6_LD_12_RN_6_RD_10_1.png"]],"dist200_C":[["C_Dist_200_LN_11_LD_22_RN_3_RD_10_0.png","C_Dist_200_LN_12_LD_15_RN_6_RD_10_0.png","C_Dist_200_LN_12_LD_20_RN_6_RD_15_0.png","C_Dist_200_LN_14_LD_28_RN_6_RD_20_0.png","C_Dist_200_LN_15_LD_25_RN_4_RD_10_0.png","C_Dist_200_LN_16_LD_20_RN_12_RD_20_0.png","C_Dist_200_LN_16_LD_30_RN_9_RD_27_0.png","C_Dist_200_LN_20_LD_25_RN_9_RD_15_0.png","C_Dist_200_LN_21_LD_30_RN_2_RD_4_0.png","C_Dist_200_LN_4_LD_10_RN_3_RD_15_0.png","C_Dist_200_LN_4_LD_8_RN_3_RD_10_0.png","C_Dist_200_LN_6_LD_15_RN_3_RD_15_0.png","C_Dist_200_LN_7_LD_21_RN_2_RD_15_0.png","C_Dist_200_LN_8_LD_15_RN_2_RD_6_0.png","C_Dist_200_LN_8_LD_15_RN_3_RD_9_0.png","C_Dist_200_LN_8_LD_15_RN_7_RD_21_0.png","C_Dist_200_LN_9_LD_20_RN_4_RD_16_0.png"],["C_Dist_200_LN_1_LD_2_RN_21_RD_30_1.png","C_Dist_200_LN_13_LD_26_RN_14_RD_20_1.png","C_Dist_200_LN_3_LD_10_RN_11_RD_22_1.png","C_Dist_200_LN_3_LD_10_RN_14_RD_28_1.png","C_Dist_200_LN_3_LD_10_RN_7_RD_14_1.png","C_Dist_200_LN_3_LD_12_RN_9_RD_20_1.png","C_Dist_200_LN_3_LD_6_RN_14_RD_20_1.png","C_Dist_200_LN_5_LD_10_RN_14_RD_20_1.png","C_Dist_200_LN_6_LD_12_RN_7_RD_10_1.png","C_Dist_200_LN_6_LD_20_RN_11_RD_22_1.png","C_Dist_200_LN_7_LD_15_RN_18_RD_27_1.png","C_Dist_200_LN_9_LD_30_RN_13_RD_26_1.png"]],"dist200_I":[["I_Dist_200_LN_1_LD_2_RN_3_RD_10_0.png","I_Dist_200_LN_1_LD_3_RN_2_RD_15_0.png","I_Dist_200_LN_3_LD_4_RN_11_RD_20_0.png","I_Dist_200_LN_4_LD_5_RN_6_RD_10_0.png","I_Dist_200_LN_4_LD_6_RN_14_RD_30_0.png","I_Dist_200_LN_7_LD_10_RN_12_RD_24_0.png","I_Dist_200_LN_7_LD_10_RN_14_RD_28_0.png","I_Dist_200_LN_7_LD_10_RN_8_RD_16_0.png"],["I_Dist_200_LN_11_LD_20_RN_3_RD_4_1.png","I_Dist_200_LN_14_LD_30_RN_12_RD_18_1.png","I_Dist_200_LN_14_LD_30_RN_6_RD_9_1.png","I_Dist_200_LN_3_LD_10_RN_1_RD_2_1.png","I_Dist_200_LN_4_LD_30_RN_1_RD_3_1.png","I_Dist_200_LN_6_LD_20_RN_3_RD_6_1.png","I_Dist_200_LN_7_LD_15_RN_4_RD_6_1.png","I_Dist_200_LN_7_LD_15_RN_6_RD_9_1.png","I_Dist_200_LN_9_LD_15_RN_8_RD_10_1.png"]],"dist200_S":[["E_Dist_200_LN_3_LD_6_RN_3_RD_10_0.png"],["E_Dist_200_LN_3_LD_10_RN_3_RD_6_1.png"]],"dist300_C":[["C_Dist_300_LN_11_LD_22_RN_1_RD_5_0.png","C_Dist_300_LN_11_LD_22_RN_2_RD_10_0.png","C_Dist_300_LN_11_LD_22_RN_4_RD_20_0.png","C_Dist_300_LN_12_LD_24_RN_2_RD_10_0.png","C_Dist_300_LN_18_LD_20_RN_9_RD_15_0.png","C_Dist_300_LN_20_LD_25_RN_13_RD_26_0.png","C_Dist_300_LN_20_LD_25_RN_14_RD_28_0.png","C_Dist_300_LN_20_LD_25_RN_5_RD_10_0.png","C_Dist_300_LN_20_LD_25_RN_8_RD_16_0.png","C_Dist_300_LN_20_LD_25_RN_9_RD_18_0.png","C_Dist_300_LN_24_LD_30_RN_2_RD_4_0.png","C_Dist_300_LN_24_LD_30_RN_8_RD_16_0.png","C_Dist_300_LN_3_LD_6_RN_2_RD_10_0.png","C_Dist_300_LN_4_LD_10_RN_1_RD_10_0.png","C_Dist_300_LN_4_LD_5_RN_2_RD_4_0.png","C_Dist_300_LN_8_LD_16_RN_1_RD_5_0.png","C_Dist_300_LN_9_LD_10_RN_3_RD_5_0.png"],["C_Dist_300_LN_1_LD_20_RN_7_RD_20_1.png","C_Dist_300_LN_1_LD_3_RN_19_RD_30_1.png","C_Dist_300_LN_1_LD_30_RN_8_RD_24_1.png","C_Dist_300_LN_1_LD_5_RN_11_RD_22_1.png","C_Dist_300_LN_1_LD_5_RN_3_RD_6_1.png","C_Dist_300_LN_1_LD_5_RN_6_RD_12_1.png","C_Dist_300_LN_2_LD_10_RN_12_RD_24_1.png","C_Dist_300_LN_2_LD_20_RN_10_RD_25_1.png","C_Dist_300_LN_3_LD_12_RN_11_RD_20_1.png","C_Dist_300_LN_3_LD_6_RN_4_RD_5_1.png","C_Dist_300_LN_4_LD_20_RN_13_RD_26_1.png","C_Dist_300_LN_5_LD_25_RN_6_RD_12_1.png","C_Dist_300_LN_5_LD_25_RN_7_RD_14_1.png","C_Dist_300_LN_7_LD_14_RN_20_RD_25_1.png","C_Dist_300_LN_8_LD_15_RN_10_RD_12_1.png"]],"dist300_I":[["I_Dist_300_LN_1_LD_2_RN_2_RD_10_0.png","I_Dist_300_LN_1_LD_2_RN_3_RD_15_0.png","I_Dist_300_LN_2_LD_4_RN_6_RD_30_0.png","I_Dist_300_LN_3_LD_6_RN_4_RD_20_0.png","I_Dist_300_LN_4_LD_5_RN_6_RD_12_0.png","I_Dist_300_LN_4_LD_5_RN_8_RD_16_0.png","I_Dist_300_LN_7_LD_10_RN_8_RD_20_0.png","I_Dist_300_LN_8_LD_10_RN_14_RD_28_0.png","I_Dist_300_LN_8_LD_10_RN_9_RD_18_0.png"],["I_Dist_300_LN_13_LD_26_RN_12_RD_15_1.png","I_Dist_300_LN_4_LD_20_RN_2_RD_4_1.png"]],"dist300_S":[["E_Dist_300_LN_9_LD_12_RN_9_RD_20_0.png"],["E_Dist_300_LN_18_LD_30_RN_18_RD_20_1.png","E_Dist_300_LN_3_LD_10_RN_3_RD_5_1.png","E_Dist_300_LN_9_LD_20_RN_9_RD_12_1.png"]],"dist500_C":[["C_Dist_500_LN_10_LD_13_RN_7_RD_26_0.png","C_Dist_500_LN_10_LD_15_RN_4_RD_24_0.png","C_Dist_500_LN_12_LD_16_RN_3_RD_12_0.png","C_Dist_500_LN_12_LD_18_RN_4_RD_24_0.png","C_Dist_500_LN_15_LD_18_RN_5_RD_15_0.png","C_Dist_500_LN_15_LD_20_RN_1_RD_4_0.png","C_Dist_500_LN_18_LD_27_RN_1_RD_6_0.png","C_Dist_500_LN_20_LD_24_RN_1_RD_3_0.png","C_Dist_500_LN_20_LD_24_RN_3_RD_9_0.png","C_Dist_500_LN_20_LD_24_RN_7_RD_21_0.png","C_Dist_500_LN_20_LD_28_RN_3_RD_14_0.png","C_Dist_500_LN_21_LD_28_RN_6_RD_24_0.png","C_Dist_500_LN_22_LD_28_RN_2_RD_7_0.png","C_Dist_500_LN_25_LD_30_RN_9_RD_27_0.png","C_Dist_500_LN_4_LD_6_RN_1_RD_6_0.png","C_Dist_500_LN_5_LD_6_RN_2_RD_6_0.png","C_Dist_500_LN_6_LD_9_RN_1_RD_6_0.png","C_Dist_500_LN_7_LD_10_RN_1_RD_5_0.png","C_Dist_500_LN_8_LD_12_RN_1_RD_6_0.png","C_Dist_500_LN_8_LD_12_RN_4_RD_24_0.png"],["C_Dist_500_LN_1_LD_4_RN_12_RD_16_1.png","C_Dist_500_LN_1_LD_4_RN_9_RD_12_1.png","C_Dist_500_LN_1_LD_9_RN_11_RD_18_1.png","C_Dist_500_LN_10_LD_24_RN_22_RD_24_1.png","C_Dist_500_LN_2_LD_12_RN_10_RD_15_1.png","C_Dist_500_LN_2_LD_12_RN_12_RD_18_1.png","C_Dist_500_LN_2_LD_12_RN_4_RD_6_1.png","C_Dist_500_LN_2_LD_24_RN_7_RD_12_1.png","C_Dist_500_LN_2_LD_5_RN_18_RD_20_1.png","C_Dist_500_LN_2_LD_5_RN_9_RD_10_1.png","C_Dist_500_LN_2_LD_8_RN_12_RD_16_1.png","C_Dist_500_LN_2_LD_8_RN_21_RD_28_1.png","C_Dist_500_LN_3_LD_10_RN_4_RD_5_1.png","C_Dist_500_LN_3_LD_12_RN_15_RD_20_1.png","C_Dist_500_LN_3_LD_30_RN_6_RD_10_1.png","C_Dist_500_LN_3_LD_8_RN_14_RD_16_1.png","C_Dist_500_LN_4_LD_16_RN_15_RD_20_1.png","C_Dist_500_LN_4_LD_24_RN_12_RD_18_1.png","C_Dist_500_LN_5_LD_14_RN_6_RD_7_1.png","C_Dist_500_LN_7_LD_21_RN_20_RD_24_1.png","C_Dist_500_LN_7_LD_28_RN_12_RD_16_1.png","C_Dist_500_LN_7_LD_28_RN_9_RD_12_1.png","C_Dist_500_LN_9_LD_27_RN_20_RD_24_1.png"]],"dist500_I":[["I_Dist_500_LN_2_LD_3_RN_4_RD_24_0.png","I_Dist_500_LN_5_LD_6_RN_6_RD_18_0.png","I_Dist_500_LN_7_LD_8_RN_9_RD_24_0.png"],["I_Dist_500_LN_7_LD_21_RN_5_RD_6_1.png"]],"dist500_S":[["E_Dist_500_LN_6_LD_8_RN_6_RD_24_0.png"],["E_Dist_500_LN_2_LD_12_RN_2_RD_3_1.png","E_Dist_500_LN_6_LD_24_RN_6_RD_8_1.png"]]}},{"start_time":1551883079028,"click_time":1551883082035,"finger_time":1551883081533,"fix_duration":1431.594910569487,"trial":1,"RT":2505,"MT":502,"sideResp":1,"stimulus":[],"xmouse":[793,793,793,793,793,793,793,793,793,793,793,793,793,793,793,793,793,793,793,793,793,793,793,793,793,793,793,793,793,793,793,793,793,793,793,793,793,793,793,793,793,793,793,793,793,793,793,793,793,793,793,793,793,793,793,793,793,793,793,793,793,793,793,793,793,793,793,793,793,793,793,793,793,793,793,793,793,793,793,793,793,793,793,793,793,793,793,793,793,793,793,793,793,793,793,793,793,793,793,793,793,793,793,793,793,793,793,793,793,793,793,793,793,793,793,793,793,793,793,793,793,793,793,793,793,809,823,808,764,757,747,746,746,746,746,746,746,746,746,746,746,746,746,746,746,746,746,746,746,533,490],"ymouse":[484,484,484,484,484,484,484,484,484,484,484,484,484,484,484,484,484,484,484,484,484,484,484,484,484,484,484,484,484,484,484,484,484,484,484,484,484,484,484,484,484,484,484,484,484,484,484,484,484,484,484,484,484,484,484,484,484,484,484,484,484,484,484,484,484,484,484,484,484,484,484,484,484,484,484,484,484,484,484,484,484,484,484,484,484,484,484,484,484,484,484,484,484,484,484,484,484,484,484,484,484,484,484,484,484,484,484,484,484,484,484,484,484,484,484,484,484,484,484,484,484,484,484,484,484,429,364,230,78,44,31,13,4,4,4,4,4,4,4,4,4,4,4,4,4,4,4,4,4,4,13],"timestamp_mouse":[9,39,45,66,86,106,126,146,165,185,206,225,245,266,285,306,325,346,365,385,405,425,446,466,486,505,526,546,565,585,605,625,646,665,685,705,725,745,765,785,805,826,845,865,885,906,925,946,966,985,1005,1025,1044,1066,1085,1105,1126,1145,1166,1184,1206,1226,1245,1266,1285,1306,1325,1345,1365,1385,1406,1425,1445,1465,1486,1505,1525,1545,1566,1585,1606,1625,1645,1666,1685,1706,1725,1746,1765,1786,1806,1825,1846,1866,1886,1906,1926,1945,1966,1986,2006,2026,2046,2065,2086,2106,2126,2145,2165,2186,2206,2226,2245,2265,2286,2306,2326,2345,2365,2385,2406,2426,2446,2466,2486,2505,2525,2545,2565,2585,2605,2625,2645,2665,2686,2705,2725,2745,2765,2785,2805,2826,2846,2866,2885,2905,2925,2946,2966,2985,3006],"xSR":741.5,"ySR":469.95,"xT1":424.9,"yT1":0,"xT2":1058.1,"yT2":0,"toosoon":0,"cond_shown":"Incongruent","ratio_trial":100,"L_num":9,"L_den":10,"R_num":20,"R_den":25,"correct_side":1,"subjID":"anafernandaberriohiguita35","gender":"1","school":"6","age":"11"},{"start_time":1551883084668,"click_time":1551883086493,"finger_time":1551883086134,"fix_duration":554.5154007436659,"trial":2,"RT":1466,"MT":359,"sideResp":2,"stimulus":[],"xmouse":[789,789,789,789,789,789,789,789,789,789,789,789,789,789,789,789,789,789,789,789,789,789,789,789,789,789,789,789,789,789,789,789,789,789,789,789,789,789,789,789,789,789,789,789,789,789,789,789,789,789,789,789,789,789,789,789,789,789,789,789,789,789,789,789,789,789,789,789,789,789,789,789,829,901,997,1091,1220,1267,1300,1302,1302,1304,1304,1304,1300,1290,1273,1259,1231,1190,1175,1126],"ymouse":[523,523,523,523,523,523,523,523,523,523,523,523,523,523,523,523,523,523,523,523,523,523,523,523,523,523,523,523,523,523,523,523,523,523,523,523,523,523,523,523,523,523,523,523,523,523,523,523,523,523,523,523,523,523,523,523,523,523,523,523,523,523,523,523,523,523,523,523,523,523,523,523,494,451,395,335,227,152,50,25,11,7,5,3,3,7,15,20,27,41,49,67],"timestamp_mouse":[11,27,45,65,86,106,125,145,165,185,206,225,245,265,285,305,325,345,365,385,406,426,446,466,485,505,526,545,565,585,606,625,646,665,685,705,725,745,766,785,805,826,845,866,885,905,926,945,966,986,1005,1025,1046,1065,1085,1106,1126,1145,1165,1186,1206,1225,1246,1266,1285,1306,1326,1345,1365,1385,1406,1426,1446,1466,1485,1506,1525,1545,1566,1585,1606,1626,1645,1665,1686,1705,1725,1745,1765,1786,1806,1825],"xSR":741.5,"ySR":469.95,"xT1":424.9,"yT1":0,"xT2":1058.1,"yT2":0,"toosoon":0,"cond_shown":"Incongruent","ratio_trial":100,"L_num":13,"L_den":26,"R_num":6,"R_den":10,"correct_side":2,"subjID":"anafernandaberriohiguita35","gender":"1","school":"6","age":"11"},{"start_time":1551883088701,"click_time":1551883090773,"finger_time":1551883090293,"fix_duration":946.4503606773184,"trial":3,"RT":1592,"MT":480,"sideResp":1,"stimulus":[],"xmouse":[782,782,782,782,782,782,782,782,782,782,782,782,782,782,782,782,782,782,782,782,782,782,782,782,782,782,782,782,782,782,782,782,782,782,782,782,782,782,782,782,782,782,782,782,782,782,782,782,782,782,782,782,782,782,782,782,782,782,782,782,782,782,782,782,782,782,782,782,782,782,782,782,782,782,782,781,774,763,755,731,685,660,637,592,568,545,541,536,533,532,532,532,532,532,532,532,522,509,498,489,475,472,468,466],"ymouse":[510,510,510,510,510,510,510,510,510,510,510,510,510,510,510,510,510,510,510,510,510,510,510,510,510,510,510,510,510,510,510,510,510,510,510,510,510,510,510,510,510,510,510,510,510,510,510,510,510,510,510,510,510,510,510,510,510,510,510,510,510,510,510,511,511,511,511,511,511,511,511,511,511,511,511,512,506,492,484,464,410,376,339,279,245,214,206,200,198,197,197,197,197,197,196,194,184,175,164,153,128,116,105,93],"timestamp_mouse":[13,32,52,73,93,112,132,152,172,193,212,233,253,272,292,312,332,353,372,393,413,432,452,472,492,512,532,553,573,592,613,633,653,672,693,713,732,752,772,792,812,833,853,872,892,912,932,953,972,992,1013,1032,1052,1072,1093,1112,1132,1153,1172,1193,1212,1233,1253,1272,1292,1312,1332,1352,1373,1392,1412,1432,1452,1473,1493,1512,1532,1552,1572,1592,1612,1632,1652,1672,1692,1713,1732,1752,1772,1792,1812,1832,1852,1872,1892,1913,1933,1952,1973,1992,2013,2032,2052,2072],"xSR":741.5,"ySR":469.95,"xT1":424.9,"yT1":0,"xT2":1058.1,"yT2":0,"toosoon":0,"cond_shown":"Incongruent","ratio_trial":300,"L_num":7,"L_den":10,"R_num":8,"R_den":20,"correct_side":1,"subjID":"anafernandaberriohiguita35","gender":"1","school":"6","age":"11"},{"start_time":1551883093614,"click_time":1551883094993,"finger_time":1551883094473,"fix_duration":1058.7287477086027,"trial":4,"RT":859,"MT":520,"sideResp":1,"stimulus":[],"xmouse":[801,801,801,801,801,801,801,801,801,801,801,801,801,801,801,801,801,801,801,801,801,801,801,801,801,801,801,801,801,801,801,801,801,801,801,801,801,801,800,798,793,781,764,744,709,618,578,517,453,403,391,390,390,390,390,390,390,407,424,466,509,515,515,515,515,515,515,511,506,503],"ymouse":[521,521,521,521,521,521,521,521,521,521,521,521,521,521,521,521,521,521,521,521,521,521,521,521,521,521,521,521,521,521,521,521,521,521,521,521,521,521,520,520,516,496,475,453,408,307,254,208,168,139,135,134,134,134,134,134,134,127,126,122,119,118,118,118,118,117,116,108,103,95],"timestamp_mouse":[9,19,39,60,80,99,119,139,159,180,199,220,239,259,280,301,319,340,359,379,399,419,440,459,480,500,519,540,559,579,600,619,639,660,679,700,720,739,759,780,799,819,840,859,879,901,919,939,959,979,1000,1019,1039,1059,1079,1099,1119,1140,1159,1179,1200,1219,1239,1260,1279,1300,1319,1340,1359,1379],"xSR":741.5,"ySR":469.95,"xT1":424.9,"yT1":0,"xT2":1058.1,"yT2":0,"toosoon":0,"cond_shown":"Incongruent","ratio_trial":300,"L_num":7,"L_den":10,"R_num":8,"R_den":20,"correct_side":1,"subjID":"anafernandaberriohiguita35","gender":"1","school":"6","age":"11"},{"start_time":1551883097310,"click_time":1551883098674,"finger_time":1551883098173,"fix_duration":1136.430292927666,"trial":5,"RT":863,"MT":501,"sideResp":2,"stimulus":[],"xmouse":[796,796,796,796,796,796,796,796,796,796,796,796,796,796,796,796,796,796,796,796,796,796,796,796,796,796,796,796,796,796,796,796,796,796,795,795,795,795,795,795,795,797,803,818,834,869,881,890,895,900,907,917,924,939,944,957,965,978,996,1000,1019,1032,1038,1046,1050,1058,1074,1083,1090],"ymouse":[508,508,508,508,508,508,508,508,508,508,508,508,508,508,508,508,508,508,508,508,508,508,508,508,508,508,508,508,508,508,508,508,508,508,508,508,508,508,508,508,508,500,486,459,427,374,352,337,324,308,296,278,272,257,254,240,232,215,199,196,173,162,158,148,144,136,120,110,94],"timestamp_mouse":[9,33,42,63,84,103,123,144,164,184,203,224,243,264,283,304,324,343,363,383,404,423,443,464,484,503,524,543,563,584,603,624,644,664,684,703,723,744,763,783,804,823,843,863,883,903,923,943,964,984,1003,1023,1043,1064,1084,1103,1123,1143,1164,1183,1203,1222,1243,1263,1283,1303,1324,1343,1364],"xSR":741.5,"ySR":469.95,"xT1":424.9,"yT1":0,"xT2":1058.1,"yT2":0,"toosoon":0,"cond_shown":"Incongruent","ratio_trial":300,"L_num":13,"L_den":26,"R_num":12,"R_den":15,"correct_side":2,"subjID":"anafernandaberriohiguita35","gender":"1","school":"6","age":"11"},{"start_time":1551883101225,"click_time":1551883102773,"finger_time":1551883102474,"fix_duration":1029.985222880293,"trial":6,"RT":1249,"MT":299,"sideResp":2,"stimulus":[],"xmouse":[811,811,811,811,811,811,810,810,810,808,808,808,808,807,807,807,807,807,807,807,807,807,807,807,807,807,807,807,807,807,807,807,807,807,807,807,807,807,807,807,807,807,807,807,807,807,807,807,807,807,807,807,807,807,807,807,807,807,807,807,806,826,849,868,894,901,903,904,904,906,914,928,942,962,992,1042,1052,1059],"ymouse":[538,537,537,537,537,537,536,536,536,536,536,536,536,535,535,535,535,535,535,535,535,535,535,535,535,535,535,535,535,535,535,535,535,535,535,535,535,535,535,535,535,535,535,535,535,535,535,535,535,535,535,535,535,535,535,535,535,535,535,535,528,494,477,463,436,428,423,419,418,411,397,377,352,309,244,121,88,63],"timestamp_mouse":[9,40,49,69,88,108,129,148,168,188,209,228,248,269,288,309,329,348,368,388,408,428,448,468,488,509,528,548,568,588,608,628,648,668,689,708,728,749,768,789,809,829,848,869,889,908,929,949,969,988,1010,1029,1049,1068,1089,1109,1128,1148,1168,1188,1208,1229,1249,1269,1288,1307,1328,1348,1368,1389,1408,1429,1448,1469,1488,1508,1528,1548],"xSR":741.5,"ySR":469.95,"xT1":424.9,"yT1":0,"xT2":1058.1,"yT2":0,"toosoon":0,"cond_shown":"Incongruent","ratio_trial":100,"L_num":11,"L_den":22,"R_num":9,"R_den":15,"correct_side":2,"subjID":"anafernandaberriohiguita35","gender":"1","school":"6","age":"11"},{"start_time":1551883105213,"click_time":1551883106914,"finger_time":1551883106773,"fix_duration":1038.269854409086,"trial":7,"RT":1560,"MT":141,"sideResp":2,"stimulus":[],"xmouse":[801,801,801,801,801,801,801,801,801,801,801,801,801,801,801,801,801,801,801,801,801,801,801,801,801,801,801,801,801,801,801,801,801,801,801,801,801,801,801,801,801,801,801,801,801,802,806,807,807,807,807,807,807,807,807,807,807,807,807,807,807,807,807,807,807,807,807,807,807,807,807,807,807,807,807,807,818,827,858,895,980,1019,1058,1084,1095,1106],"ymouse":[524,524,524,524,524,524,524,524,524,524,524,524,524,524,524,524,524,524,524,524,524,524,524,524,524,524,524,524,524,524,524,524,524,524,524,524,524,524,524,524,524,524,524,524,521,518,512,511,510,510,510,510,510,510,510,510,510,510,510,510,510,510,510,510,510,510,510,510,510,510,510,510,510,510,510,510,497,489,458,421,315,253,191,139,111,84],"timestamp_mouse":[8,37,40,61,81,100,121,140,161,181,201,220,240,261,280,300,320,341,361,381,400,420,441,461,481,500,520,541,561,580,600,620,639,661,680,700,720,740,761,781,800,820,841,860,880,900,921,940,961,981,1001,1020,1041,1060,1080,1100,1121,1140,1160,1181,1201,1220,1240,1260,1280,1301,1321,1340,1360,1380,1400,1420,1440,1461,1481,1501,1520,1540,1560,1580,1600,1620,1641,1660,1680,1701],"xSR":741.5,"ySR":469.95,"xT1":424.9,"yT1":0,"xT2":1058.1,"yT2":0,"toosoon":0,"cond_shown":"Congruent","ratio_trial":100,"L_num":3,"L_den":20,"R_num":4,"R_den":16,"correct_side":2,"subjID":"anafernandaberriohiguita35","gender":"1","school":"6","age":"11"},{"start_time":1551883108902,"click_time":1551883110114,"finger_time":1551883109634,"fix_duration":787.5007860905442,"trial":8,"RT":732,"MT":480,"sideResp":1,"stimulus":[],"xmouse":[773,773,773,773,773,773,773,773,773,773,773,773,773,773,773,773,773,773,773,773,773,773,773,773,773,773,773,773,773,773,773,773,773,773,773,773,756,741,720,695,668,658,647,644,624,588,582,579,577,577,577,577,576,569,564,554,551,545,539,529,513],"ymouse":[497,497,497,497,497,497,497,497,497,497,497,497,497,497,497,497,497,497,497,497,497,497,497,497,497,497,497,497,497,497,497,497,497,497,497,498,457,424,378,333,266,244,217,210,180,139,133,130,128,128,128,128,128,121,116,107,104,100,95,86,75],"timestamp_mouse":[11,33,51,71,91,112,132,152,171,191,211,232,251,272,291,311,332,352,372,391,412,432,454,472,491,512,531,552,571,591,611,632,651,672,692,711,732,751,772,791,812,831,851,871,891,911,931,951,971,992,1012,1031,1051,1071,1091,1111,1131,1152,1172,1192,1212],"xSR":741.5,"ySR":469.95,"xT1":424.9,"yT1":0,"xT2":1058.1,"yT2":0,"toosoon":0,"cond_shown":"Congruent","ratio_trial":300,"L_num":24,"L_den":30,"R_num":8,"R_den":16,"correct_side":1,"subjID":"anafernandaberriohiguita35","gender":"1","school":"6","age":"11"},{"start_time":1551883112315,"click_time":1551883114253,"finger_time":1551883113933,"fix_duration":960.1300800218072,"trial":9,"RT":1618,"MT":320,"sideResp":1,"stimulus":[],"xmouse":[774,774,774,774,774,774,774,774,774,774,774,774,774,774,774,774,774,774,774,774,774,774,774,774,774,774,774,774,774,774,774,774,774,774,774,774,774,774,774,774,774,774,774,774,774,774,774,774,774,774,774,774,774,774,774,774,774,774,774,774,774,774,774,774,774,774,774,774,774,774,774,774,774,774,774,774,774,774,774,766,748,721,672,590,562,562,562,562,562,562,562,562,562,562,562,562,473],"ymouse":[504,504,504,504,504,504,504,504,504,504,504,504,504,504,504,504,504,504,504,504,504,504,504,504,504,504,504,504,504,504,504,504,504,504,504,504,504,504,504,504,504,504,504,504,504,504,504,504,504,504,504,504,504,504,504,504,504,504,504,504,504,504,504,504,504,504,504,504,504,504,504,504,504,504,504,504,504,504,504,474,404,302,189,50,7,7,7,7,7,7,7,7,7,7,7,7,13],"timestamp_mouse":[18,38,59,79,98,118,137,159,178,198,218,238,258,278,299,318,338,358,378,398,419,438,458,478,498,519,538,558,578,599,618,639,659,678,698,719,738,758,779,798,818,838,859,879,899,919,938,958,978,998,1019,1039,1058,1078,1098,1119,1138,1158,1178,1199,1218,1238,1258,1278,1299,1318,1338,1358,1378,1399,1419,1439,1458,1478,1498,1518,1539,1559,1578,1599,1618,1638,1658,1678,1699,1718,1738,1759,1778,1798,1819,1838,1858,1878,1898,1919,1938],"xSR":741.5,"ySR":469.95,"xT1":424.9,"yT1":0,"xT2":1058.1,"yT2":0,"toosoon":0,"cond_shown":"Congruent","ratio_trial":100,"L_num":4,"L_den":8,"R_num":6,"R_den":10,"correct_side":2,"subjID":"anafernandaberriohiguita35","gender":"1","school":"6","age":"11"},{"start_time":1551883116214,"click_time":1551883118614,"finger_time":1551883117094,"fix_duration":498.1034589383885,"trial":10,"RT":880,"MT":1520,"sideResp":2,"stimulus":[],"xmouse":[800,800,800,800,800,800,800,800,800,800,800,800,800,800,800,800,800,800,800,800,800,800,800,800,800,800,800,800,800,800,800,800,800,800,800,800,800,800,800,800,800,797,790,781,773,763,743,731,727,720,706,694,679,662,647,627,578,570,567,566,566,566,566,566,567,575,578,581,588,591,621,643,677,707,733,760,786,796,804,809,813,813,813,813,813,813,812,808,802,797,792,791,790,788,788,788,788,788,788,788,790,820,860,920,973,1014,1025,1035,1040,1046,1046,1046,1044,1043,1041,1041,1042,1044,1053,1063,1070],"ymouse":[515,515,515,515,515,515,515,515,515,515,515,515,515,515,515,515,515,515,515,515,515,515,515,515,515,515,515,515,515,515,515,515,515,515,515,515,515,515,515,515,515,514,502,483,463,441,409,387,381,368,346,330,310,291,276,258,219,214,211,210,210,210,210,211,211,216,218,220,223,225,261,294,341,392,444,485,537,559,580,587,590,590,590,590,590,590,590,587,559,555,543,539,536,534,533,533,533,533,533,533,531,506,482,440,399,332,309,284,263,241,230,219,216,215,211,193,168,161,130,108,96],"timestamp_mouse":[1,32,40,59,79,100,119,140,160,179,199,219,240,258,279,300,320,339,359,380,400,420,439,459,479,500,519,540,559,579,600,619,639,659,680,699,719,739,759,780,800,820,839,860,880,899,919,939,959,980,1000,1019,1039,1059,1078,1099,1119,1140,1160,1179,1199,1219,1240,1259,1280,1299,1319,1340,1359,1379,1400,1419,1440,1460,1479,1499,1519,1539,1559,1580,1600,1620,1639,1659,1679,1700,1719,1740,1760,1779,1799,1819,1840,1859,1879,1899,1920,1939,1960,1980,2000,2019,2040,2060,2079,2100,2119,2139,2160,2179,2200,2219,2239,2260,2279,2299,2319,2340,2360,2379,2400],"xSR":741.5,"ySR":469.95,"xT1":424.9,"yT1":0,"xT2":1058.1,"yT2":0,"toosoon":0,"cond_shown":"Congruent","ratio_trial":100,"L_num":2,"L_den":5,"R_num":11,"R_den":22,"correct_side":2,"subjID":"anafernandaberriohiguita35","gender":"1","school":"6","age":"11"},{"start_time":1551883120337,"click_time":1551883121933,"finger_time":1551883120973,"fix_duration":743.9942714894587,"trial":11,"RT":636,"MT":960,"sideResp":2,"stimulus":[],"xmouse":[770,770,770,770,770,770,770,770,770,770,770,770,770,770,770,770,770,770,770,770,770,770,770,770,770,770,770,770,770,770,766,759,752,752,750,750,750,750,750,750,750,750,750,750,750,750,750,750,750,750,750,750,750,750,750,751,751,751,769,793,815,843,884,904,1010,1042,1068,1079,1083,1087,1086,1086,1086,1086,1086,1083,1080,1079,1078,1074],"ymouse":[501,501,501,501,501,501,501,501,501,501,501,501,501,501,501,501,501,501,501,501,501,501,501,501,501,501,501,501,501,501,491,468,458,452,449,449,449,449,449,449,449,449,449,449,449,449,449,449,449,449,449,449,449,449,449,449,449,449,450,445,430,408,378,360,268,235,212,194,187,176,174,174,174,174,170,162,150,132,118,90],"timestamp_mouse":[16,43,56,76,97,116,136,156,176,196,216,236,257,276,297,317,337,356,376,397,417,436,457,476,496,517,536,557,576,597,616,636,656,677,697,717,736,756,776,796,816,837,856,877,896,916,936,956,977,997,1017,1036,1057,1077,1097,1116,1137,1157,1176,1196,1217,1237,1257,1276,1297,1317,1337,1356,1376,1396,1417,1437,1456,1476,1496,1516,1535,1556,1577,1596],"xSR":741.5,"ySR":469.95,"xT1":424.9,"yT1":0,"xT2":1058.1,"yT2":0,"toosoon":0,"cond_shown":"Incongruent","ratio_trial":100,"L_num":1,"L_den":2,"R_num":8,"R_den":20,"correct_side":1,"subjID":"anafernandaberriohiguita35","gender":"1","school":"6","age":"11"},{"start_time":1551883123009,"click_time":1551883125415,"finger_time":1551883124915,"fix_duration":254.69076671765188,"trial":12,"RT":1906,"MT":500,"sideResp":2,"stimulus":[],"xmouse":[774,774,774,774,774,774,774,774,774,774,774,774,774,774,774,774,774,774,774,774,774,773,773,772,772,772,772,772,772,772,772,772,772,772,772,772,772,772,772,772,772,772,772,772,772,772,772,772,772,772,772,772,771,771,771,771,771,771,771,771,771,771,771,771,771,771,771,771,771,771,771,771,771,771,771,771,771,771,771,771,771,771,770,769,768,768,768,768,768,768,774,781,789,800,806,812,827,839,853,873,885,915,927,936,947,971,985,1001,1017,1027,1037,1039,1043,1049,1056,1065,1068,1070,1071,1071,1076],"ymouse":[507,507,507,507,507,507,507,507,507,507,507,507,507,507,507,507,507,507,507,507,507,507,507,507,507,507,507,507,507,507,507,507,507,507,507,507,507,507,507,507,507,507,507,507,507,507,507,507,507,507,507,507,507,507,507,507,507,507,507,507,507,507,507,507,507,507,507,507,507,507,507,507,507,507,507,507,507,507,507,507,507,507,506,505,505,505,505,505,505,505,496,488,483,476,471,466,449,435,421,397,380,347,330,316,302,271,254,229,203,186,163,152,140,131,123,112,108,105,101,100,93],"timestamp_mouse":[9,36,44,65,85,106,125,146,166,185,205,225,246,264,286,305,326,345,364,385,404,426,445,465,484,505,526,546,564,586,606,625,644,665,684,706,726,746,765,784,804,826,845,866,885,905,925,945,966,986,1005,1025,1046,1066,1084,1105,1126,1145,1165,1186,1206,1226,1245,1264,1286,1306,1326,1346,1366,1384,1406,1426,1445,1465,1486,1506,1524,1546,1566,1584,1605,1626,1644,1665,1685,1705,1726,1745,1764,1785,1806,1826,1846,1866,1885,1906,1925,1945,1964,1985,2006,2026,2045,2065,2085,2105,2124,2145,2166,2185,2205,2225,2245,2265,2285,2305,2325,2344,2366,2385,2406],"xSR":741.5,"ySR":469.95,"xT1":424.9,"yT1":0,"xT2":1058.1,"yT2":0,"toosoon":0,"cond_shown":"Incongruent","ratio_trial":200,"L_num":7,"L_den":15,"R_num":4,"R_den":6,"correct_side":2,"subjID":"anafernandaberriohiguita35","gender":"1","school":"6","age":"11"},{"start_time":1551883126897,"click_time":1551883128415,"finger_time":1551883127954,"fix_duration":282.96400264519116,"trial":13,"RT":1057,"MT":461,"sideResp":1,"stimulus":[],"xmouse":[762,762,763,763,763,763,763,763,763,763,763,763,763,763,763,763,763,763,763,763,763,763,763,763,763,763,763,763,763,763,763,763,763,763,763,763,763,763,763,763,763,763,763,763,763,763,763,763,763,763,763,760,755,740,726,694,681,671,661,652,634,629,622,616,611,597,587,579,572,564,554,548,543,538,527,520],"ymouse":[488,488,489,489,489,489,489,489,489,489,489,489,489,489,489,489,489,489,489,489,489,489,489,489,489,489,489,489,489,489,489,489,489,489,489,489,489,489,489,489,489,489,489,489,489,489,489,489,489,489,489,471,448,419,393,343,316,288,262,242,212,203,193,186,181,155,140,129,120,110,98,92,87,81,72,67],"timestamp_mouse":[18,36,56,77,97,116,137,156,177,197,217,237,258,277,298,318,338,357,378,397,417,436,459,477,497,518,536,557,577,597,618,638,657,677,697,717,738,757,777,797,816,838,857,876,898,918,936,956,976,998,1018,1037,1057,1078,1098,1117,1137,1157,1177,1198,1217,1237,1256,1277,1297,1318,1336,1358,1378,1398,1417,1436,1457,1478,1496,1518],"xSR":741.5,"ySR":469.95,"xT1":424.9,"yT1":0,"xT2":1058.1,"yT2":0,"toosoon":0,"cond_shown":"Congruent","ratio_trial":300,"L_num":20,"L_den":25,"R_num":9,"R_den":18,"correct_side":1,"subjID":"anafernandaberriohiguita35","gender":"1","school":"6","age":"11"},{"start_time":1551883129925,"click_time":1551883131834,"finger_time":1551883131434,"fix_duration":250,"trial":14,"RT":1509,"MT":400,"sideResp":1,"stimulus":[],"xmouse":[776,776,776,776,776,776,776,776,776,776,776,776,776,776,776,776,776,776,776,776,776,776,776,776,776,776,776,776,776,776,776,776,776,776,776,776,775,775,775,775,776,776,776,776,776,776,776,776,776,776,776,776,776,776,776,776,776,776,776,776,776,776,776,776,776,776,776,776,776,776,776,776,776,775,766,759,739,712,697,667,652,639,623,597,570,561,554,549,545,535,530,529,529,529,526,520],"ymouse":[505,505,505,505,505,505,505,505,505,505,505,505,505,505,505,505,505,505,505,505,505,505,505,505,505,505,505,505,505,505,505,505,505,505,505,505,505,505,504,504,502,502,502,502,502,502,502,502,502,502,502,502,502,502,502,502,502,502,502,502,502,502,502,502,502,502,502,502,502,502,502,502,500,499,480,448,407,359,331,284,264,244,219,188,155,139,125,119,110,99,97,97,97,97,95,92],"timestamp_mouse":[9,37,49,70,88,109,128,150,169,188,208,230,249,268,289,310,328,348,369,390,410,428,449,469,490,508,530,549,570,590,610,629,649,669,689,709,728,750,769,789,810,829,850,868,889,910,928,950,970,989,1009,1028,1049,1069,1089,1110,1130,1149,1170,1189,1208,1230,1248,1268,1289,1308,1330,1349,1369,1388,1409,1429,1449,1470,1489,1509,1530,1550,1569,1590,1609,1629,1650,1669,1690,1709,1729,1750,1770,1789,1808,1828,1849,1869,1890,1909],"xSR":741.5,"ySR":469.95,"xT1":424.9,"yT1":0,"xT2":1058.1,"yT2":0,"toosoon":0,"cond_shown":"Incongruent","ratio_trial":200,"L_num":6,"L_den":20,"R_num":3,"R_den":6,"correct_side":2,"subjID":"anafernandaberriohiguita35","gender":"1","school":"6","age":"11"},{"start_time":1551883134555,"click_time":1551883136274,"finger_time":1551883136014,"fix_duration":1277.9667295224992,"trial":15,"RT":1459,"MT":260,"sideResp":1,"stimulus":[],"xmouse":[752,752,752,752,752,752,752,752,752,752,752,750,750,750,750,750,750,750,750,750,750,750,750,750,750,750,750,750,750,750,750,750,750,751,753,757,760,763,764,765,765,765,765,765,765,765,765,765,765,765,765,765,765,760,760,759,759,759,759,759,759,759,759,759,759,759,759,759,759,759,757,755,748,733,723,715,700,681,621,601,582,550,531,497,484,475,469],"ymouse":[511,511,511,511,511,511,511,511,511,511,511,511,511,511,510,510,510,510,510,510,510,510,510,510,510,510,510,510,510,510,510,510,510,510,511,513,514,515,516,516,516,516,516,516,516,516,516,516,516,516,516,516,516,514,514,514,514,514,514,514,514,514,514,514,514,514,514,514,514,514,513,511,505,471,449,429,402,368,282,256,234,198,177,136,120,107,99],"timestamp_mouse":[1,19,43,59,79,100,120,140,160,179,199,219,240,259,279,299,318,340,358,379,400,420,438,459,479,499,519,539,560,580,598,620,639,659,680,699,720,740,760,780,799,819,840,860,880,899,918,939,959,980,999,1019,1039,1060,1078,1100,1120,1139,1159,1178,1199,1220,1240,1259,1279,1298,1320,1339,1360,1380,1398,1419,1439,1459,1479,1498,1519,1540,1559,1578,1598,1619,1638,1660,1678,1700,1719],"xSR":741.5,"ySR":469.95,"xT1":424.9,"yT1":0,"xT2":1058.1,"yT2":0,"toosoon":0,"cond_shown":"Congruent","ratio_trial":200,"L_num":16,"L_den":20,"R_num":12,"R_den":20,"correct_side":1,"subjID":"anafernandaberriohiguita35","gender":"1","school":"6","age":"11"},{"start_time":1551883138202,"click_time":1551883139815,"finger_time":1551883139675,"fix_duration":386.4817359899697,"trial":16,"RT":1473,"MT":140,"sideResp":1,"stimulus":[],"xmouse":[762,760,760,760,759,759,758,758,758,758,758,757,757,757,757,756,756,756,756,756,756,756,756,756,756,756,756,756,756,756,756,756,756,756,756,756,756,756,756,756,756,756,756,756,756,756,756,756,756,756,756,756,756,756,756,756,756,756,756,756,756,756,756,756,756,756,756,756,756,756,753,751,748,741,716,696,643,614,577,554,514],"ymouse":[481,481,481,481,481,481,481,481,481,481,481,481,481,481,481,481,481,481,481,481,481,481,481,481,481,481,481,481,481,481,481,481,481,481,481,481,481,481,481,481,481,481,481,481,481,481,481,481,481,481,481,481,481,481,481,481,481,481,481,481,481,481,481,481,481,481,481,481,481,481,480,480,474,438,393,352,271,220,152,110,50],"timestamp_mouse":[12,42,52,73,92,113,133,151,173,192,212,232,251,273,293,313,333,352,372,393,411,433,452,473,491,512,532,552,571,592,612,633,651,672,692,712,731,753,773,791,812,832,852,871,892,911,933,952,973,991,1013,1032,1052,1072,1092,1112,1131,1153,1171,1192,1212,1233,1252,1271,1293,1312,1332,1352,1373,1392,1413,1433,1452,1473,1492,1512,1533,1551,1571,1591,1613],"xSR":741.5,"ySR":469.95,"xT1":424.9,"yT1":0,"xT2":1058.1,"yT2":0,"toosoon":0,"cond_shown":"Incongruent","ratio_trial":300,"L_num":1,"L_den":2,"R_num":2,"R_den":10,"correct_side":1,"subjID":"anafernandaberriohiguita35","gender":"1","school":"6","age":"11"},{"start_time":1551883144692,"click_time":1551883146854,"finger_time":1551883146474,"fix_duration":275.8302884635252,"trial":17,"RT":1782,"MT":380,"sideResp":2,"stimulus":[],"xmouse":[781,781,781,781,781,781,781,781,781,781,781,781,781,781,781,781,781,781,781,781,781,781,781,781,781,781,781,781,781,781,781,781,781,781,781,781,781,781,781,781,781,781,781,781,781,781,781,781,781,781,781,781,781,781,781,781,781,781,781,781,781,781,781,781,781,781,781,781,781,781,781,781,781,781,781,781,781,781,781,781,781,781,781,781,781,781,781,782,803,829,866,934,953,970,979,989,997,1019,1026,1031,1037,1043,1043,1045,1047,1051,1057,1058,1059],"ymouse":[505,505,505,505,505,505,505,505,505,505,505,505,505,505,505,505,505,505,505,505,505,505,505,505,505,505,505,505,505,505,505,505,505,505,505,505,505,505,505,505,505,505,505,505,505,505,505,505,505,505,505,505,505,505,505,505,505,505,505,505,505,505,505,505,505,505,505,505,505,505,505,505,505,505,505,505,505,505,505,505,505,505,505,505,505,505,505,503,487,469,439,376,350,324,297,268,236,182,159,136,115,85,68,48,43,30,22,22,22],"timestamp_mouse":[9,22,51,63,82,102,121,143,162,181,203,222,241,262,282,303,322,343,361,382,402,421,443,462,482,502,521,543,561,582,602,621,643,661,682,702,723,743,763,783,802,823,841,862,882,901,923,941,962,983,1002,1022,1043,1063,1082,1103,1121,1141,1163,1182,1201,1221,1243,1262,1281,1302,1323,1342,1363,1381,1403,1421,1443,1463,1481,1502,1523,1542,1562,1583,1603,1622,1643,1662,1682,1701,1722,1741,1762,1782,1801,1823,1842,1862,1882,1902,1922,1943,1962,1982,2002,2022,2042,2062,2083,2101,2123,2142,2161],"xSR":741.5,"ySR":469.95,"xT1":424.9,"yT1":0,"xT2":1058.1,"yT2":0,"toosoon":0,"cond_shown":"Congruent","ratio_trial":100,"L_num":3,"L_den":6,"R_num":2,"R_den":5,"correct_side":1,"subjID":"anafernandaberriohiguita35","gender":"1","school":"6","age":"11"},{"start_time":1551883151267,"click_time":1551883153234,"finger_time":1551883152693,"fix_duration":1191.9431892488499,"trial":18,"RT":1426,"MT":541,"sideResp":1,"stimulus":[],"xmouse":[796,796,796,796,796,796,796,796,796,796,796,796,796,796,796,796,796,796,796,796,796,796,796,796,796,796,796,796,796,796,796,796,796,796,796,796,796,796,796,796,796,796,796,795,795,794,794,794,793,793,793,793,793,793,793,793,793,793,793,793,793,793,793,793,793,793,793,791,787,782,770,753,696,660,616,563,516,492,489,488,488,488,488,488,488,490,492,496,497,497,497,497,496,496,496,495,494,492,492],"ymouse":[498,498,498,498,498,498,498,498,498,498,498,498,498,498,498,498,498,498,498,498,498,498,498,498,498,498,498,498,498,498,498,498,498,498,498,498,498,498,498,498,498,498,498,498,498,498,498,498,498,498,498,498,498,498,498,498,498,498,498,498,498,498,498,498,498,498,498,498,497,495,480,459,393,339,274,207,150,120,112,108,107,107,107,106,106,103,103,103,103,103,103,103,103,103,103,103,103,102,98],"timestamp_mouse":[10,32,47,67,87,108,128,148,168,186,207,227,248,268,286,308,327,348,367,388,408,427,447,468,487,508,527,548,567,586,608,628,647,668,687,708,727,747,768,787,806,828,846,867,886,907,926,947,968,986,1007,1026,1047,1067,1088,1107,1126,1148,1167,1187,1208,1228,1246,1268,1286,1308,1327,1346,1368,1387,1406,1426,1448,1467,1487,1506,1527,1547,1566,1587,1607,1626,1648,1668,1687,1707,1728,1747,1766,1786,1806,1826,1848,1867,1888,1908,1927,1947,1967],"xSR":741.5,"ySR":469.95,"xT1":424.9,"yT1":0,"xT2":1058.1,"yT2":0,"toosoon":0,"cond_shown":"Incongruent","ratio_trial":300,"L_num":7,"L_den":10,"R_num":8,"R_den":20,"correct_side":1,"subjID":"anafernandaberriohiguita35","gender":"1","school":"6","age":"11"},{"start_time":1551883155080,"click_time":1551883156974,"finger_time":1551883156574,"fix_duration":865.4881898859286,"trial":19,"RT":1494,"MT":400,"sideResp":1,"stimulus":[],"xmouse":[790,790,790,790,790,790,790,790,790,790,790,790,790,790,790,790,790,790,790,790,790,790,790,790,790,790,790,790,790,790,790,790,790,790,790,790,790,790,790,790,790,790,790,790,790,790,790,790,790,790,790,790,790,790,790,790,790,790,790,790,790,790,790,790,790,790,790,790,790,790,790,787,780,768,752,739,726,715,702,690,679,659,646,62