[{"start_time":1551892826388,"click_time":1551892828943,"finger_time":1551892826409,"fix_duration":1401.4489565507035,"trial":0,"RT":21,"MT":2534,"sideResp":1,"stimulus":"img/750/randomdotsizeEA/R/11_Ratio_750_L_12_R_16.png","xmouse":[651,651,651,651,651,651,651,651,651,651,651,651,651,651,651,651,651,651,651,651,651,651,651,651,651,651,651,651,651,651,651,651,651,651,651,651,652,652,652,652,650,648,648,648,648,648,648,646,644,644,644,644,644,644,644,644,644,644,644,644,644,644,644,644,644,644,644,644,644,644,644,644,644,644,644,644,644,644,644,644,644,644,644,644,644,644,644,644,644,644,644,644,644,644,644,644,644,644,644,644,644,644,644,644,644,644,644,644,644,640,633,628,620,611,608,606,601,594,565,539,522,500,480,460,423,406,395,387],"ymouse":[404,404,404,404,404,404,404,404,404,404,404,404,404,404,404,404,404,404,404,404,404,404,404,404,404,404,404,404,404,404,404,404,404,408,412,416,418,419,424,436,447,456,460,461,461,464,475,486,498,500,500,500,500,500,500,500,500,500,500,500,500,500,500,500,500,500,500,500,500,500,500,500,500,500,500,500,500,500,500,500,500,500,500,500,500,500,500,500,500,500,500,500,500,500,500,500,500,500,500,500,500,500,500,500,500,500,500,500,500,494,480,467,453,437,432,424,413,396,337,298,273,244,220,195,146,124,105,90],"timestamp_mouse":[21,34,55,75,95,113,135,155,174,194,213,234,254,274,294,314,334,355,374,394,413,434,454,474,495,513,535,555,574,594,614,634,653,674,693,713,735,755,774,793,813,833,853,875,893,915,934,955,974,994,1014,1034,1055,1074,1095,1114,1135,1154,1174,1194,1215,1234,1253,1275,1295,1314,1334,1355,1375,1394,1415,1435,1454,1475,1493,1514,1535,1554,1574,1595,1613,1635,1655,1674,1695,1714,1735,1755,1774,1795,1815,1833,1855,1873,1895,1915,1935,1954,1975,1994,2015,2035,2055,2074,2093,2114,2134,2154,2173,2195,2213,2234,2254,2274,2294,2314,2334,2354,2373,2393,2413,2435,2455,2474,2493,2514,2535,2555],"xSR":583.2000122070312,"ySR":375.96001586914065,"xT1":329.9200073242187,"yT1":0,"xT2":836.4800170898437,"yT2":0,"toosoon":0,"cond_shown":"randomdotsizeEA","ratio_trial":750,"smaller_num":"12","larger_num":"16","correct_side":2,"subjID":"NicolasVasquez#27","gender":"0","age":"12","school":"6","test":{"fix_dur":[250,1500],"timestim":300,"targets_dim":[100,100],"targets_relative_coord":[0.3,0.7],"size_stim":[880,420],"start_dim":[100,100],"size_start":[300,300],"size_fix":60,"samplingrate":20,"img_types":["equaldotsize","equaldotanddens","randomdotsizeEA"],"ratios":[250,500,750,900],"rep_conds":9,"nTrials":120,"trials_to_rest":500,"Trials_order":[44,69,70,101,27,102,63,116,65,48,55,111,80,8,4,68,92,83,107,112,61,18,35,21,6,100,73,20,117,40,84,114,23,74,59,60,49,93,42,90,11,104,81,46,105,39,0,30,10,64,106,91,24,71,115,17,88,110,57,96,56,33,87,113,7,16,67,95,66,29,79,99,31,41,85,5,103,52,43,38,28,3,34,72,97,51,37,98,53,62,108,2,36,13,32,12,82,50,15,118,109,78,76,86,94,58,45,89,119,54,77,1,19,47,25,26,22,9,14,75],"cond_shown":["randomdotsizeEA","equaldotsize","equaldotanddens","randomdotsizeEA","equaldotsize","equaldotsize","equaldotsize","randomdotsizeEA","randomdotsizeEA","equaldotsize","equaldotanddens","equaldotsize","randomdotsizeEA","randomdotsizeEA","equaldotanddens","randomdotsizeEA","randomdotsizeEA","randomdotsizeEA","randomdotsizeEA","equaldotanddens","equaldotanddens","equaldotsize","randomdotsizeEA","equaldotsize","equaldotsize","equaldotanddens","equaldotanddens","randomdotsizeEA","equaldotsize","equaldotanddens","equaldotsize","equaldotsize","randomdotsizeEA","randomdotsizeEA","randomdotsizeEA","equaldotsize","equaldotanddens","equaldotsize","equaldotsize","equaldotsize","randomdotsizeEA","randomdotsizeEA","equaldotsize","equaldotanddens","equaldotsize","equaldotsize","equaldotsize","equaldotsize","equaldotanddens","equaldotanddens","equaldotanddens","equaldotanddens","equaldotsize","randomdotsizeEA","equaldotanddens","randomdotsizeEA","equaldotanddens","randomdotsizeEA","equaldotsize","equaldotsize","randomdotsizeEA","equaldotsize","equaldotsize","randomdotsizeEA","equaldotanddens","equaldotanddens","equaldotanddens","randomdotsizeEA","equaldotsize","randomdotsizeEA","equaldotanddens","equaldotsize","equaldotanddens","randomdotsizeEA","equaldotanddens","randomdotsizeEA","equaldotanddens","equaldotanddens","equaldotanddens","randomdotsizeEA","equaldotanddens","equaldotsize","equaldotanddens","equaldotsize","equaldotanddens","equaldotsize","equaldotanddens","randomdotsizeEA","randomdotsizeEA","randomdotsizeEA","equaldotsize","randomdotsizeEA","equaldotsize","equaldotanddens","randomdotsizeEA","equaldotsize","equaldotanddens","randomdotsizeEA","equaldotsize","equaldotanddens","equaldotanddens","equaldotsize","equaldotanddens","randomdotsizeEA","equaldotanddens","equaldotanddens","equaldotsize","randomdotsizeEA","randomdotsizeEA","equaldotsize","randomdotsizeEA","equaldotanddens","equaldotanddens","randomdotsizeEA","equaldotanddens","randomdotsizeEA","equaldotanddens","equaldotsize","randomdotsizeEA","equaldotsize"],"ratio_trial":[750,900,900,500,500,750,500,750,500,250,750,500,750,750,500,750,750,900,900,500,250,750,900,900,750,500,250,750,900,500,250,750,900,250,900,250,250,900,750,750,900,750,900,900,900,500,250,750,900,500,900,750,250,900,750,500,500,250,900,250,750,900,500,500,750,500,750,900,750,500,750,500,750,500,250,500,750,500,750,250,500,500,900,250,250,500,250,250,500,250,250,250,250,250,750,250,900,250,500,900,250,750,500,250,900,900,900,500,900,750,500,250,750,900,250,250,900,900,250,500],"smaller_num":["12","18","9","2","10","12","9","6","2","3","15","5","15","15","9","3","18","9","18","2","6","18","18","18","15","5","5","3","9","9","6","3","9","2","18","1","6","18","15","3","9","3","18","18","18","6","3","3","9","6","18","6","5","18","15","6","5","6","18","5","12","9","1","5","3","5","3","18","3","3","3","5","15","2","3","6","6","1","3","3","6","5","18","5","4","2","3","3","9","4","4","3","2","4","18","4","18","2","10","18","4","3","9","2","18","18","9","3","18","15","5","2","15","18","4","2","18","18","4","6"],"larger_num":["16","20","10","4","20","16","18","8","4","12","20","10","20","20","18","4","24","10","20","4","24","24","20","20","20","10","20","4","10","18","24","4","10","8","20","4","24","20","20","4","10","4","20","20","20","12","12","4","10","12","20","8","20","20","20","12","10","24","20","20","16","10","2","10","4","10","4","20","4","6","4","10","20","4","12","12","8","2","4","12","12","10","20","20","16","4","12","12","18","16","16","12","8","16","24","16","20","8","20","20","16","4","18","8","20","20","10","6","20","20","10","8","20","20","16","8","20","20","16","12"],"correct_side":[2,2,2,1,2,2,1,1,1,1,1,1,2,2,2,1,1,2,1,1,1,1,1,1,2,1,2,1,2,2,1,1,2,1,1,2,2,1,2,2,2,1,1,1,2,1,2,2,1,1,1,1,2,2,2,1,1,1,1,2,2,2,2,2,1,1,1,2,1,2,1,2,2,1,2,1,2,2,1,1,1,1,2,2,2,1,2,2,1,1,2,2,1,1,1,1,2,1,2,2,2,1,2,1,1,1,2,2,2,1,1,1,1,1,2,1,2,1,2,1],"img_shown":["img/750/randomdotsizeEA/R/11_Ratio_750_L_12_R_16.png","img/900/equaldotsize/R/12_Ratio_900_L_18_R_20.png","img/900/equaldotanddens/R/5_Ratio_900_L_9_R_10.png","img/500/randomdotsizeEA/L/5_Ratio_500_L_4_R_2.png","img/500/equaldotsize/R/3_Ratio_500_L_10_R_20.png","img/750/equaldotsize/R/11_Ratio_750_L_12_R_16.png","img/500/equaldotsize/L/4_Ratio_500_L_18_R_9.png","img/750/randomdotsizeEA/L/14_Ratio_750_L_8_R_6.png","img/500/randomdotsizeEA/L/5_Ratio_500_L_4_R_2.png","img/250/equaldotsize/L/14_Ratio_250_L_12_R_3.png","img/750/equaldotanddens/L/1_Ratio_750_L_20_R_15.png","img/500/equaldotsize/L/7_Ratio_500_L_10_R_5.png","img/750/randomdotsizeEA/R/3_Ratio_750_L_15_R_20.png","img/750/randomdotsizeEA/R/3_Ratio_750_L_15_R_20.png","img/500/equaldotanddens/R/6_Ratio_500_L_9_R_18.png","img/750/randomdotsizeEA/L/9_Ratio_750_L_4_R_3.png","img/750/randomdotsizeEA/L/6_Ratio_750_L_24_R_18.png","img/900/randomdotsizeEA/R/7_Ratio_900_L_9_R_10.png","img/900/randomdotsizeEA/L/2_Ratio_900_L_20_R_18.png","img/500/equaldotanddens/L/10_Ratio_500_L_4_R_2.png","img/250/equaldotanddens/L/5_Ratio_250_L_24_R_6.png","img/750/equaldotsize/L/6_Ratio_750_L_24_R_18.png","img/900/randomdotsizeEA/L/8_Ratio_900_L_20_R_18.png","img/900/equaldotsize/L/4_Ratio_900_L_20_R_18.png","img/750/equaldotsize/R/3_Ratio_750_L_15_R_20.png","img/500/equaldotanddens/L/7_Ratio_500_L_10_R_5.png","img/250/equaldotanddens/R/12_Ratio_250_L_5_R_20.png","img/750/randomdotsizeEA/L/9_Ratio_750_L_4_R_3.png","img/900/equaldotsize/R/7_Ratio_900_L_9_R_10.png","img/500/equaldotanddens/R/1_Ratio_500_L_9_R_18.png","img/250/equaldotsize/L/5_Ratio_250_L_24_R_6.png","img/750/equaldotsize/L/9_Ratio_750_L_4_R_3.png","img/900/randomdotsizeEA/R/7_Ratio_900_L_9_R_10.png","img/250/randomdotsizeEA/L/1_Ratio_250_L_8_R_2.png","img/900/randomdotsizeEA/L/8_Ratio_900_L_20_R_18.png","img/250/equaldotsize/R/8_Ratio_250_L_1_R_4.png","img/250/equaldotanddens/R/6_Ratio_250_L_6_R_24.png","img/900/equaldotsize/L/4_Ratio_900_L_20_R_18.png","img/750/equaldotsize/R/3_Ratio_750_L_15_R_20.png","img/750/equaldotsize/R/12_Ratio_750_L_3_R_4.png","img/900/randomdotsizeEA/R/3_Ratio_900_L_9_R_10.png","img/750/randomdotsizeEA/L/10_Ratio_750_L_4_R_3.png","img/900/equaldotsize/L/10_Ratio_900_L_20_R_18.png","img/900/equaldotanddens/L/2_Ratio_900_L_20_R_18.png","img/900/equaldotsize/R/9_Ratio_900_L_18_R_20.png","img/500/equaldotsize/L/13_Ratio_500_L_12_R_6.png","img/250/equaldotsize/R/9_Ratio_250_L_3_R_12.png","img/750/equaldotsize/R/7_Ratio_750_L_3_R_4.png","img/900/equaldotanddens/L/1_Ratio_900_L_10_R_9.png","img/500/equaldotanddens/L/13_Ratio_500_L_12_R_6.png","img/900/equaldotanddens/L/2_Ratio_900_L_20_R_18.png","img/750/equaldotanddens/L/13_Ratio_750_L_8_R_6.png","img/250/equaldotsize/R/12_Ratio_250_L_5_R_20.png","img/900/randomdotsizeEA/R/14_Ratio_900_L_18_R_20.png","img/750/equaldotanddens/R/3_Ratio_750_L_15_R_20.png","img/500/randomdotsizeEA/L/13_Ratio_500_L_12_R_6.png","img/500/equaldotanddens/L/7_Ratio_500_L_10_R_5.png","img/250/randomdotsizeEA/L/5_Ratio_250_L_24_R_6.png","img/900/equaldotsize/L/4_Ratio_900_L_20_R_18.png","img/250/equaldotsize/R/12_Ratio_250_L_5_R_20.png","img/750/randomdotsizeEA/R/11_Ratio_750_L_12_R_16.png","img/900/equaldotsize/R/7_Ratio_900_L_9_R_10.png","img/500/equaldotsize/R/12_Ratio_500_L_1_R_2.png","img/500/randomdotsizeEA/R/14_Ratio_500_L_5_R_10.png","img/750/equaldotanddens/L/9_Ratio_750_L_4_R_3.png","img/500/equaldotanddens/L/7_Ratio_500_L_10_R_5.png","img/750/equaldotanddens/L/8_Ratio_750_L_4_R_3.png","img/900/randomdotsizeEA/R/13_Ratio_900_L_18_R_20.png","img/750/equaldotsize/L/8_Ratio_750_L_4_R_3.png","img/500/randomdotsizeEA/R/2_Ratio_500_L_3_R_6.png","img/750/equaldotanddens/L/10_Ratio_750_L_4_R_3.png","img/500/equaldotsize/R/14_Ratio_500_L_5_R_10.png","img/750/equaldotanddens/R/3_Ratio_750_L_15_R_20.png","img/500/randomdotsizeEA/L/10_Ratio_500_L_4_R_2.png","img/250/equaldotanddens/R/11_Ratio_250_L_3_R_12.png","img/500/randomdotsizeEA/L/13_Ratio_500_L_12_R_6.png","img/750/equaldotanddens/R/2_Ratio_750_L_6_R_8.png","img/500/equaldotanddens/R/12_Ratio_500_L_1_R_2.png","img/750/equaldotanddens/L/9_Ratio_750_L_4_R_3.png","img/250/randomdotsizeEA/L/15_Ratio_250_L_12_R_3.png","img/500/equaldotanddens/L/11_Ratio_500_L_12_R_6.png","img/500/equaldotsize/L/7_Ratio_500_L_10_R_5.png","img/900/equaldotanddens/R/11_Ratio_900_L_18_R_20.png","img/250/equaldotsize/R/12_Ratio_250_L_5_R_20.png","img/250/equaldotanddens/R/10_Ratio_250_L_4_R_16.png","img/500/equaldotsize/L/5_Ratio_500_L_4_R_2.png","img/250/equaldotanddens/R/4_Ratio_250_L_3_R_12.png","img/250/randomdotsizeEA/R/11_Ratio_250_L_3_R_12.png","img/500/randomdotsizeEA/L/4_Ratio_500_L_18_R_9.png","img/250/randomdotsizeEA/L/2_Ratio_250_L_16_R_4.png","img/250/equaldotsize/R/10_Ratio_250_L_4_R_16.png","img/250/randomdotsizeEA/R/9_Ratio_250_L_3_R_12.png","img/250/equaldotsize/L/1_Ratio_250_L_8_R_2.png","img/250/equaldotanddens/L/2_Ratio_250_L_16_R_4.png","img/750/randomdotsizeEA/L/6_Ratio_750_L_24_R_18.png","img/250/equaldotsize/L/2_Ratio_250_L_16_R_4.png","img/900/equaldotanddens/R/9_Ratio_900_L_18_R_20.png","img/250/randomdotsizeEA/L/3_Ratio_250_L_8_R_2.png","img/500/equaldotsize/R/3_Ratio_500_L_10_R_20.png","img/900/equaldotanddens/R/13_Ratio_900_L_18_R_20.png","img/250/equaldotanddens/R/10_Ratio_250_L_4_R_16.png","img/750/equaldotsize/L/9_Ratio_750_L_4_R_3.png","img/500/equaldotanddens/R/1_Ratio_500_L_9_R_18.png","img/250/randomdotsizeEA/L/3_Ratio_250_L_8_R_2.png","img/900/equaldotanddens/L/2_Ratio_900_L_20_R_18.png","img/900/equaldotanddens/L/10_Ratio_900_L_20_R_18.png","img/900/equaldotsize/R/3_Ratio_900_L_9_R_10.png","img/500/randomdotsizeEA/R/2_Ratio_500_L_3_R_6.png","img/900/randomdotsizeEA/R/9_Ratio_900_L_18_R_20.png","img/750/equaldotsize/L/1_Ratio_750_L_20_R_15.png","img/500/randomdotsizeEA/L/7_Ratio_500_L_10_R_5.png","img/250/equaldotanddens/L/3_Ratio_250_L_8_R_2.png","img/750/equaldotanddens/L/1_Ratio_750_L_20_R_15.png","img/900/randomdotsizeEA/L/2_Ratio_900_L_20_R_18.png","img/250/equaldotanddens/R/10_Ratio_250_L_4_R_16.png","img/250/randomdotsizeEA/L/1_Ratio_250_L_8_R_2.png","img/900/equaldotanddens/R/9_Ratio_900_L_18_R_20.png","img/900/equaldotsize/L/2_Ratio_900_L_20_R_18.png","img/250/randomdotsizeEA/R/10_Ratio_250_L_4_R_16.png","img/500/equaldotsize/L/11_Ratio_500_L_12_R_6.png"],"Rat0":[["12_Ratio_0_L_9_R_0.png","13_Ratio_0_L_6_R_0.png","5_Ratio_0_L_2_R_0.png","6_Ratio_0_L_4_R_0.png","8_Ratio_0_L_6_R_0.png"],["1_Ratio_0_L_0_R_17.png","10_Ratio_0_L_0_R_22.png","11_Ratio_0_L_0_R_1.png","14_Ratio_0_L_0_R_24.png","15_Ratio_0_L_0_R_4.png","2_Ratio_0_L_0_R_5.png","3_Ratio_0_L_0_R_17.png","4_Ratio_0_L_0_R_7.png","7_Ratio_0_L_0_R_19.png","9_Ratio_0_L_0_R_15.png"]],"Rat250":[["1_Ratio_250_L_8_R_2.png","14_Ratio_250_L_12_R_3.png","15_Ratio_250_L_12_R_3.png","2_Ratio_250_L_16_R_4.png","3_Ratio_250_L_8_R_2.png","5_Ratio_250_L_24_R_6.png","7_Ratio_250_L_8_R_2.png"],["10_Ratio_250_L_4_R_16.png","11_Ratio_250_L_3_R_12.png","12_Ratio_250_L_5_R_20.png","13_Ratio_250_L_2_R_8.png","4_Ratio_250_L_3_R_12.png","6_Ratio_250_L_6_R_24.png","8_Ratio_250_L_1_R_4.png","9_Ratio_250_L_3_R_12.png"]],"Rat500":[["10_Ratio_500_L_4_R_2.png","11_Ratio_500_L_12_R_6.png","13_Ratio_500_L_12_R_6.png","4_Ratio_500_L_18_R_9.png","5_Ratio_500_L_4_R_2.png","7_Ratio_500_L_10_R_5.png","8_Ratio_500_L_8_R_4.png"],["1_Ratio_500_L_9_R_18.png","12_Ratio_500_L_1_R_2.png","14_Ratio_500_L_5_R_10.png","15_Ratio_500_L_1_R_2.png","2_Ratio_500_L_3_R_6.png","3_Ratio_500_L_10_R_20.png","6_Ratio_500_L_9_R_18.png","9_Ratio_500_L_2_R_4.png"]],"Rat750":[["1_Ratio_750_L_20_R_15.png","10_Ratio_750_L_4_R_3.png","13_Ratio_750_L_8_R_6.png","14_Ratio_750_L_8_R_6.png","6_Ratio_750_L_24_R_18.png","8_Ratio_750_L_4_R_3.png","9_Ratio_750_L_4_R_3.png"],["11_Ratio_750_L_12_R_16.png","12_Ratio_750_L_3_R_4.png","15_Ratio_750_L_9_R_12.png","2_Ratio_750_L_6_R_8.png","3_Ratio_750_L_15_R_20.png","4_Ratio_750_L_15_R_20.png","5_Ratio_750_L_15_R_20.png","7_Ratio_750_L_3_R_4.png"]],"Rat900":[["1_Ratio_900_L_10_R_9.png","10_Ratio_900_L_20_R_18.png","2_Ratio_900_L_20_R_18.png","4_Ratio_900_L_20_R_18.png","8_Ratio_900_L_20_R_18.png"],["11_Ratio_900_L_18_R_20.png","12_Ratio_900_L_18_R_20.png","13_Ratio_900_L_18_R_20.png","14_Ratio_900_L_18_R_20.png","15_Ratio_900_L_9_R_10.png","3_Ratio_900_L_9_R_10.png","5_Ratio_900_L_9_R_10.png","6_Ratio_900_L_9_R_10.png","7_Ratio_900_L_9_R_10.png","9_Ratio_900_L_18_R_20.png"]],"Rat1000":[["10_Ratio_1000_L_16_R_16.png","11_Ratio_1000_L_6_R_6.png","12_Ratio_1000_L_14_R_14.png","13_Ratio_1000_L_20_R_20.png","15_Ratio_1000_L_15_R_15.png","2_Ratio_1000_L_17_R_17.png","4_Ratio_1000_L_9_R_9.png","5_Ratio_1000_L_6_R_6.png","6_Ratio_1000_L_19_R_19.png","8_Ratio_1000_L_14_R_14.png","9_Ratio_1000_L_25_R_25.png"],["1_Ratio_1000_L_1_R_1.png","14_Ratio_1000_L_17_R_17.png","3_Ratio_1000_L_17_R_17.png","7_Ratio_1000_L_6_R_6.png"]]}},{"start_time":1551892830114,"click_time":1551892832063,"finger_time":1551892831661,"fix_duration":250,"trial":1,"RT":1547,"MT":402,"sideResp":2,"stimulus":"img/900/equaldotsize/R/12_Ratio_900_L_18_R_20.png","xmouse":[628,628,628,628,628,628,628,628,628,628,628,628,628,628,628,628,628,628,628,628,628,628,628,628,628,628,628,628,628,628,628,628,628,628,628,628,628,628,628,628,628,628,628,628,628,628,628,628,628,628,628,628,628,628,628,628,628,628,628,628,628,628,628,628,628,628,628,628,628,628,628,628,628,628,628,629,630,644,661,684,716,745,792,822,837,850,860,877,887,893,898,900,902,902,902,900,899,896],"ymouse":[495,495,495,495,495,495,495,495,495,495,495,495,495,495,495,495,495,495,495,495,495,495,495,495,495,495,495,495,495,495,495,495,495,495,495,495,495,495,495,495,495,495,495,495,495,495,495,495,495,495,495,495,495,495,495,495,495,495,495,495,495,495,495,495,495,495,495,495,495,495,495,495,495,495,495,496,490,440,411,388,362,341,303,272,256,242,232,204,187,172,159,151,135,123,116,108,104,92],"timestamp_mouse":[7,32,49,68,88,108,127,148,169,188,207,227,248,268,287,309,328,348,368,388,408,428,447,468,489,508,528,548,568,588,609,628,648,667,688,709,727,748,768,787,808,827,849,868,888,909,927,949,968,987,1009,1029,1048,1069,1088,1107,1128,1148,1169,1187,1207,1228,1248,1267,1288,1308,1328,1348,1369,1388,1408,1428,1449,1468,1489,1509,1528,1547,1567,1587,1609,1629,1648,1668,1688,1708,1728,1748,1767,1788,1808,1829,1848,1868,1888,1909,1927,1948],"xSR":583.2000122070312,"ySR":459.16001586914064,"xT1":329.9200073242187,"yT1":0,"xT2":836.4800170898437,"yT2":0,"toosoon":0,"cond_shown":"equaldotsize","ratio_trial":900,"smaller_num":"18","larger_num":"20","correct_side":2,"subjID":"NicolasVasquez#27","gender":"0","age":"12","school":"6"},{"start_time":1551892832913,"click_time":1551892833982,"finger_time":1551892833582,"fix_duration":250,"trial":2,"RT":669,"MT":400,"sideResp":2,"stimulus":"img/900/equaldotanddens/R/5_Ratio_900_L_9_R_10.png","xmouse":[662,662,662,662,662,662,662,662,662,662,662,662,662,662,662,662,662,662,662,662,662,662,662,662,662,662,662,662,662,662,662,663,673,687,696,706,714,748,772,804,834,850,858,872,880,884,889,894,899,900,900,900,900,900],"ymouse":[532,532,532,532,532,532,532,532,532,532,532,532,532,532,532,532,532,532,532,532,532,532,532,532,532,532,532,532,532,532,532,529,508,480,460,438,420,360,315,267,227,204,190,168,158,150,142,133,122,117,113,109,100,96],"timestamp_mouse":[9,32,49,69,90,110,129,150,170,188,209,229,250,270,289,308,329,349,369,390,410,428,449,470,489,510,529,550,569,589,610,629,648,669,689,710,729,749,769,789,809,829,849,870,889,909,929,949,969,989,1009,1029,1049,1068],"xSR":583.2000122070312,"ySR":459.16001586914064,"xT1":329.9200073242187,"yT1":0,"xT2":836.4800170898437,"yT2":0,"toosoon":0,"cond_shown":"equaldotanddens","ratio_trial":900,"smaller_num":"9","larger_num":"10","correct_side":2,"subjID":"NicolasVasquez#27","gender":"0","age":"12","school":"6"},{"start_time":1551892834832,"click_time":1551892836542,"finger_time":1551892836341,"fix_duration":269.28110038127994,"trial":3,"RT":1509,"MT":201,"sideResp":1,"stimulus":"img/500/randomdotsizeEA/L/5_Ratio_500_L_4_R_2.png","xmouse":[625,625,625,625,625,625,625,625,625,625,625,625,625,625,625,625,625,625,625,625,625,625,625,625,625,625,625,625,625,625,625,625,625,625,625,625,625,625,625,625,625,625,625,625,625,625,625,625,625,625,625,625,625,625,625,625,625,625,625,625,625,625,625,625,625,625,625,625,625,623,622,621,619,612,597,583,557,543,532,516,496,443,428,422,420,423],"ymouse":[514,514,514,514,514,514,514,514,514,514,514,514,514,514,514,514,514,514,514,514,514,514,514,514,514,514,514,514,514,514,514,514,514,514,514,514,514,514,514,514,514,514,514,514,514,514,514,514,514,514,514,514,514,514,514,514,514,514,514,514,514,514,514,514,514,514,514,514,514,514,513,512,511,504,491,480,453,428,408,376,326,205,169,137,115,96],"timestamp_mouse":[14,33,50,71,90,110,130,149,170,190,210,230,249,269,290,310,330,351,370,390,411,429,450,471,491,510,530,549,571,590,609,631,649,671,691,710,729,751,770,789,810,830,849,871,889,910,931,949,971,991,1010,1029,1050,1070,1090,1110,1130,1149,1169,1190,1210,1230,1249,1271,1289,1309,1330,1349,1370,1389,1410,1430,1450,1470,1491,1509,1530,1550,1570,1589,1609,1629,1650,1670,1691,1710],"xSR":583.2000122070312,"ySR":459.16001586914064,"xT1":329.9200073242187,"yT1":0,"xT2":836.4800170898437,"yT2":0,"toosoon":0,"cond_shown":"randomdotsizeEA","ratio_trial":500,"smaller_num":"2","larger_num":"4","correct_side":1,"subjID":"NicolasVasquez#27","gender":"0","age":"12","school":"6"},{"start_time":1551892837595,"click_time":1551892839262,"finger_time":1551892838942,"fix_duration":250,"trial":4,"RT":1347,"MT":320,"sideResp":2,"stimulus":"img/500/equaldotsize/R/3_Ratio_500_L_10_R_20.png","xmouse":[627,627,627,627,627,627,627,627,627,627,627,627,627,627,627,627,627,627,627,627,627,627,627,627,627,627,627,627,627,627,627,627,627,627,627,627,627,627,627,627,627,627,627,627,627,627,627,627,627,627,627,627,627,627,627,627,627,627,627,627,627,627,627,627,627,634,654,690,765,807,868,900,924,945,948,951,952,954,954,952,947,943,937,928],"ymouse":[503,503,503,503,503,503,503,503,503,503,503,503,503,503,503,503,503,503,503,503,503,503,503,503,503,503,503,503,503,503,503,503,503,503,503,503,503,503,503,503,503,503,503,503,503,503,503,503,503,503,503,503,503,503,503,503,503,503,503,503,503,503,503,503,503,496,480,452,375,327,253,211,174,135,123,110,100,92,83,80,75,72,68,65],"timestamp_mouse":[8,29,47,67,87,107,126,148,167,186,207,228,248,267,287,307,327,347,368,386,407,427,447,467,488,506,526,548,568,587,606,627,648,668,687,707,727,747,768,787,808,826,848,866,886,907,927,948,966,986,1008,1028,1047,1067,1087,1107,1128,1148,1167,1186,1208,1228,1247,1268,1286,1307,1327,1347,1366,1386,1406,1427,1447,1467,1486,1507,1527,1548,1567,1586,1607,1626,1647,1667],"xSR":583.2000122070312,"ySR":459.16001586914064,"xT1":329.9200073242187,"yT1":0,"xT2":836.4800170898437,"yT2":0,"toosoon":0,"cond_shown":"equaldotsize","ratio_trial":500,"smaller_num":"10","larger_num":"20","correct_side":2,"subjID":"NicolasVasquez#27","gender":"0","age":"12","school":"6"},{"start_time":1551892840558,"click_time":1551892842002,"finger_time":1551892841402,"fix_duration":494.24358586270887,"trial":5,"RT":844,"MT":600,"sideResp":2,"stimulus":"img/750/equaldotsize/R/11_Ratio_750_L_12_R_16.png","xmouse":[616,616,616,616,616,616,616,616,616,616,616,616,616,616,616,616,616,616,616,616,616,616,616,616,616,616,616,616,616,616,616,616,616,616,616,616,616,616,616,616,619,635,648,666,684,719,729,739,748,760,780,789,794,794,794,794,794,794,797,800,812,821,828,832,839,849,852,855,856,857,860,862,867],"ymouse":[494,494,494,494,494,494,494,494,494,494,494,494,494,494,494,494,494,494,494,494,494,494,494,494,494,494,494,494,494,494,494,494,494,494,494,494,494,494,494,494,488,466,446,416,373,292,264,241,221,202,174,161,151,149,149,149,148,146,144,140,135,131,128,126,122,115,112,110,108,107,104,100,97],"timestamp_mouse":[3,32,44,64,84,104,124,143,165,184,204,223,245,263,285,304,324,344,365,384,405,425,443,465,484,504,525,545,563,585,605,623,645,665,684,704,724,743,765,784,804,824,844,863,883,904,924,944,963,984,1004,1024,1043,1064,1084,1105,1124,1144,1163,1184,1204,1223,1244,1264,1285,1304,1324,1343,1363,1385,1404,1424,1444],"xSR":583.2000122070312,"ySR":459.16001586914064,"xT1":329.9200073242187,"yT1":0,"xT2":836.4800170898437,"yT2":0,"toosoon":0,"cond_shown":"equaldotsize","ratio_trial":750,"smaller_num":"12","larger_num":"16","correct_side":2,"subjID":"NicolasVasquez#27","gender":"0","age":"12","school":"6"},{"start_time":1551892844132,"click_time":1551892845383,"finger_time":1551892844882,"fix_duration":1287.6599736768756,"trial":6,"RT":750,"MT":501,"sideResp":1,"stimulus":"img/500/equaldotsize/L/4_Ratio_500_L_18_R_9.png","xmouse":[648,648,648,648,648,647,646,646,646,646,646,646,646,646,645,645,645,645,645,645,645,645,645,645,645,645,645,645,645,645,645,645,645,642,638,635,620,599,565,529,496,468,458,453,452,452,449,448,446,446,446,444,443,441,440,439,439,439,439,438,433,430,425],"ymouse":[484,484,484,484,484,486,487,488,488,488,488,488,488,488,489,489,489,489,489,489,489,489,489,489,489,489,489,489,489,489,489,489,489,489,488,485,469,437,392,333,291,255,231,215,204,194,187,184,181,180,176,165,159,148,140,135,126,122,113,103,94,89,84],"timestamp_mouse":[11,32,50,70,90,110,131,150,170,191,210,230,250,271,290,311,330,351,370,391,411,430,451,470,489,511,529,550,570,591,611,629,651,670,690,710,729,750,770,790,810,829,850,870,890,911,930,950,970,990,1011,1029,1051,1070,1091,1110,1129,1150,1170,1190,1210,1230,1251],"xSR":583.2000122070312,"ySR":459.16001586914064,"xT1":329.9200073242187,"yT1":0,"xT2":836.4800170898437,"yT2":0,"toosoon":0,"cond_shown":"equaldotsize","ratio_trial":500,"smaller_num":"9","larger_num":"18","correct_side":1,"subjID":"NicolasVasquez#27","gender":"0","age":"12","school":"6"},{"start_time":1551892846213,"click_time":1551892847623,"finger_time":1551892847162,"fix_duration":250,"trial":7,"RT":949,"MT":461,"sideResp":2,"stimulus":"img/750/randomdotsizeEA/L/14_Ratio_750_L_8_R_6.png","xmouse":[616,616,616,616,616,616,616,616,616,616,616,616,616,616,616,616,616,616,616,616,616,616,616,616,616,616,616,616,616,616,616,616,616,616,616,616,616,616,616,616,616,620,624,628,631,639,648,670,681,700,723,758,826,860,890,920,945,983,995,1002,1006,1007,1007,1007,1007,1007,1004,996,968,940,929],"ymouse":[520,520,520,520,520,520,520,520,520,520,520,520,520,520,520,520,520,520,520,520,520,520,520,520,520,520,520,520,520,520,520,520,520,520,520,520,520,520,520,520,520,516,508,500,493,483,472,452,440,420,403,379,329,306,273,233,196,143,121,108,102,100,99,99,98,97,92,88,78,71,69],"timestamp_mouse":[9,29,49,70,89,110,129,150,170,189,209,230,250,269,289,309,330,349,369,390,410,428,450,470,488,510,529,549,569,589,608,630,650,669,689,709,729,749,770,790,810,829,849,869,890,909,929,949,970,989,1009,1029,1049,1068,1089,1110,1130,1149,1169,1189,1210,1229,1249,1269,1289,1310,1329,1349,1369,1388,1410],"xSR":583.2000122070312,"ySR":459.16001586914064,"xT1":329.9200073242187,"yT1":0,"xT2":836.4800170898437,"yT2":0,"toosoon":0,"cond_shown":"randomdotsizeEA","ratio_trial":750,"smaller_num":"6","larger_num":"8","correct_side":1,"subjID":"NicolasVasquez#27","gender":"0","age":"12","school":"6"},{"start_time":1551892850253,"click_time":1551892851483,"finger_time":1551892851002,"fix_duration":1468.804877242473,"trial":8,"RT":749,"MT":481,"sideResp":1,"stimulus":"img/500/randomdotsizeEA/L/5_Ratio_500_L_4_R_2.png","xmouse":[644,644,644,644,644,644,644,644,644,644,644,644,644,644,644,644,644,644,644,644,644,644,644,644,644,644,644,644,644,644,644,644,644,642,640,631,620,584,547,507,440,391,351,338,338,339,332,315,296,296,300,304,308,308,310,311,312,312,312,314,346,364],"ymouse":[524,524,524,524,524,524,524,524,524,524,524,524,524,524,524,524,524,524,524,524,524,524,524,524,524,524,524,524,524,524,524,524,522,521,518,497,476,433,400,372,340,337,336,331,324,293,262,218,171,162,150,146,141,139,133,128,126,126,126,121,102,90],"timestamp_mouse":[9,29,49,68,89,109,129,150,170,190,210,230,249,269,290,309,330,349,369,389,410,430,449,469,490,509,530,550,568,590,610,629,650,670,690,709,729,749,769,790,809,828,849,869,889,909,929,949,969,990,1009,1029,1049,1069,1089,1108,1130,1149,1170,1189,1209,1230],"xSR":583.2000122070312,"ySR":459.16001586914064,"xT1":329.9200073242187,"yT1":0,"xT2":836.4800170898437,"yT2":0,"toosoon":0,"cond_shown":"randomdotsizeEA","ratio_trial":500,"smaller_num":"2","larger_num":"4","correct_side":1,"subjID":"NicolasVasquez#27","gender":"0","age":"12","school":"6"},{"start_time":1551892853282,"click_time":1551892854322,"finger_time":1551892853882,"fix_duration":817.8000601254745,"trial":9,"RT":600,"MT":440,"sideResp":1,"stimulus":"img/250/equaldotsize/L/14_Ratio_250_L_12_R_3.png","xmouse":[629,629,629,629,629,629,629,629,629,629,629,629,629,629,629,629,629,629,629,629,629,629,629,629,629,629,628,625,620,595,567,521,467,409,300,269,256,256,256,261,262,264,266,269,272,275,285,296,307,320,323,329,344],"ymouse":[532,532,532,532,532,532,532,532,532,532,532,532,532,532,532,532,532,532,532,532,532,532,533,533,533,533,533,529,519,486,448,398,347,288,190,153,124,114,106,95,90,87,81,77,72,72,72,72,76,80,81,83,83],"timestamp_mouse":[5,31,41,60,80,101,121,140,160,180,200,220,241,261,280,300,321,340,360,380,401,420,440,461,479,501,520,540,561,580,600,620,641,661,680,701,720,740,761,780,800,820,840,860,880,901,920,941,960,980,1000,1020,1040],"xSR":583.2000122070312,"ySR":459.16001586914064,"xT1":329.9200073242187,"yT1":0,"xT2":836.4800170898437,"yT2":0,"toosoon":0,"cond_shown":"equaldotsize","ratio_trial":250,"smaller_num":"3","larger_num":"12","correct_side":1,"subjID":"NicolasVasquez#27","gender":"0","age":"12","school":"6"},{"start_time":1551892857506,"click_time":1551892858682,"finger_time":1551892858202,"fix_duration":622.5139172022007,"trial":10,"RT":696,"MT":480,"sideResp":1,"stimulus":"img/750/equaldotanddens/L/1_Ratio_750_L_20_R_15.png","xmouse":[636,636,636,636,636,636,636,636,636,636,636,636,636,636,636,636,636,636,636,636,636,636,636,636,636,636,636,636,636,636,636,633,622,600,556,476,424,327,304,285,267,256,245,245,245,246,248,259,265,272,281,292,304,306,309,312,315,324,336],"ymouse":[512,512,512,512,512,512,512,512,512,512,512,512,512,512,512,512,512,512,512,512,512,512,512,512,512,512,512,512,512,512,512,511,503,487,456,392,336,236,213,190,165,148,128,124,120,116,112,103,100,97,95,92,87,86,85,84,83,82,82],"timestamp_mouse":[16,36,56,76,95,117,137,156,176,196,217,237,257,277,296,316,336,357,377,396,416,437,456,476,496,517,537,556,575,597,616,637,656,677,696,716,736,756,776,796,816,836,856,876,897,916,937,956,976,996,1017,1037,1055,1077,1095,1116,1136,1155,1176],"xSR":583.2000122070312,"ySR":459.16001586914064,"xT1":329.9200073242187,"yT1":0,"xT2":836.4800170898437,"yT2":0,"toosoon":0,"cond_shown":"equaldotanddens","ratio_trial":750,"smaller_num":"15","larger_num":"20","correct_side":1,"subjID":"NicolasVasquez#27","gender":"0","age":"12","school":"6"},{"start_time":1551892860262,"click_time":1551892861362,"finger_time":1551892861022,"fix_duration":878.7337343515323,"trial":11,"RT":760,"MT":340,"sideResp":1,"stimulus":"img/500/equaldotsize/L/7_Ratio_500_L_10_R_5.png","xmouse":[608,608,608,608,608,608,608,608,608,608,608,608,608,608,608,608,608,608,608,608,608,608,608,608,608,608,608,608,608,608,608,608,608,608,608,608,604,591,521,455,327,276,257,253,253,255,255,255,255,255,255,259,269,281,300,382],"ymouse":[514,514,514,514,514,514,514,514,514,514,514,514,514,514,514,514,514,514,514,514,514,514,514,514,514,514,514,514,514,514,514,514,514,514,514,513,506,484,383,298,166,128,109,97,86,76,72,71,70,70,70,66,61,58,56,51],"timestamp_mouse":[3,26,41,61,80,100,120,140,159,180,200,221,240,260,280,300,321,340,361,380,400,420,441,460,481,500,521,541,561,581,600,620,641,661,681,700,720,741,759,781,800,820,840,860,880,900,920,940,960,980,1000,1020,1040,1060,1081,1100],"xSR":583.2000122070312,"ySR":459.16001586914064,"xT1":329.9200073242187,"yT1":0,"xT2":836.4800170898437,"yT2":0,"toosoon":0,"cond_shown":"equaldotsize","ratio_trial":500,"smaller_num":"5","larger_num":"10","correct_side":1,"subjID":"NicolasVasquez#27","gender":"0","age":"12","school":"6"},{"start_time":1551892862394,"click_time":1551892864042,"finger_time":1551892863582,"fix_duration":250,"trial":12,"RT":1188,"MT":460,"sideResp":1,"stimulus":"img/750/randomdotsizeEA/R/3_Ratio_750_L_15_R_20.png","xmouse":[621,621,621,621,621,621,621,621,621,621,621,621,621,621,621,621,621,621,621,621,621,621,621,621,621,621,621,621,621,621,621,621,621,621,621,621,621,621,621,621,621,621,621,621,622,622,622,622,622,622,623,623,623,624,624,624,624,624,620,596,563,518,468,395,375,366,360,357,356,356,354,353,352,350,350,350,350,351,360,361,360,359,359],"ymouse":[502,502,502,502,502,502,502,502,502,502,502,502,502,502,502,502,502,502,502,502,502,502,502,502,502,502,502,502,502,502,502,502,502,502,502,502,502,502,502,502,502,502,502,502,502,502,502,502,502,500,499,497,497,496,495,493,491,486,464,419,376,330,290,216,191,172,159,152,148,146,144,142,142,140,140,138,136,131,115,107,104,101,96],"timestamp_mouse":[8,31,49,68,87,108,129,148,168,189,208,229,249,268,289,308,329,349,368,388,408,429,449,468,489,509,528,549,569,588,608,628,649,668,689,708,728,748,769,787,808,829,849,868,888,908,928,948,968,989,1009,1029,1048,1068,1088,1109,1129,1148,1168,1188,1207,1228,1249,1268,1288,1308,1328,1349,1368,1388,1408,1428,1448,1468,1487,1509,1528,1548,1568,1588,1608,1629,1648],"xSR":583.2000122070312,"ySR":459.16001586914064,"xT1":329.9200073242187,"yT1":0,"xT2":836.4800170898437,"yT2":0,"toosoon":0,"cond_shown":"randomdotsizeEA","ratio_trial":750,"smaller_num":"15","larger_num":"20","correct_side":2,"subjID":"NicolasVasquez#27","gender":"0","age":"12","school":"6"},{"start_time":1551892865921,"click_time":1551892866782,"finger_time":1551892866662,"fix_duration":1157.7655609954975,"trial":13,"RT":741,"MT":120,"sideResp":2,"stimulus":"img/750/randomdotsizeEA/R/3_Ratio_750_L_15_R_20.png","xmouse":[665,665,665,665,665,664,664,664,664,664,664,664,664,664,664,664,664,664,664,664,664,664,664,664,664,664,664,664,664,664,664,664,664,664,664,664,664,684,708,738,769,801,883,915],"ymouse":[500,500,500,500,500,501,503,503,503,503,503,503,503,503,503,503,503,503,503,503,503,503,503,503,503,503,503,503,503,503,503,503,503,503,503,501,496,436,378,321,268,216,130,88],"timestamp_mouse":[3,22,42,62,81,101,121,141,161,182,201,221,241,261,282,302,321,342,362,381,402,422,440,461,482,501,521,542,561,582,600,621,642,662,682,701,721,741,761,780,802,821,842,861],"xSR":583.2000122070312,"ySR":459.16001586914064,"xT1":329.9200073242187,"yT1":0,"xT2":836.4800170898437,"yT2":0,"toosoon":0,"cond_shown":"randomdotsizeEA","ratio_trial":750,"smaller_num":"15","larger_num":"20","correct_side":2,"subjID":"NicolasVasquez#27","gender":"0","age":"12","school":"6"},{"start_time":1551892868469,"click_time":1551892869582,"finger_time":1551892869103,"fix_duration":1025.3404616018643,"trial":14,"RT":634,"MT":479,"sideResp":2,"stimulus":"img/500/equaldotanddens/R/6_Ratio_500_L_9_R_18.png","xmouse":[650,650,650,650,650,650,650,650,650,650,650,650,650,650,650,650,650,650,650,650,650,650,650,650,650,650,650,651,653,657,664,670,677,683,697,717,729,744,751,756,760,766,772,777,783,788,798,808,823,837,853,853,854,855,860,863],"ymouse":[504,504,504,504,504,504,504,504,504,504,504,504,504,504,504,504,504,504,504,504,504,504,504,504,504,504,504,504,498,492,472,458,440,424,378,307,255,219,200,184,176,165,154,146,136,131,125,120,115,111,106,106,105,104,100,99],"timestamp_mouse":[13,32,53,73,94,114,133,153,174,194,213,233,254,273,294,314,334,354,373,393,412,433,453,473,492,514,533,553,573,593,613,634,654,674,693,712,733,753,773,793,812,833,853,873,893,912,933,953,973,993,1013,1033,1053,1074,1093,1113],"xSR":583.2000122070312,"ySR":459.16001586914064,"xT1":329.9200073242187,"yT1":0,"xT2":836.4800170898437,"yT2":0,"toosoon":0,"cond_shown":"equaldotanddens","ratio_trial":500,"smaller_num":"9","larger_num":"18","correct_side":2,"subjID":"NicolasVasquez#27","gender":"0","age":"12","school":"6"},{"start_time":1551892870541,"click_time":1551892872343,"finger_time":1551892872122,"fix_duration":276.86445705897046,"trial":15,"RT":1581,"MT":221,"sideResp":1,"stimulus":"img/750/randomdotsizeEA/L/9_Ratio_750_L_4_R_3.png","xmouse":[629,629,629,629,629,629,629,629,629,629,629,629,629,629,629,629,629,629,629,629,629,629,629,629,629,629,629,629,629,629,629,629,629,629,629,629,629,629,629,629,629,629,629,629,629,629,629,629,629,629,629,629,629,629,629,629,629,629,629,629,629,629,629,629,629,629,629,629,629,629,629,629,629,629,629,630,619,609,598,591,582,559,520,485,453,424,405,404,404,404,400],"ymouse":[493,493,493,493,493,493,493,493,493,493,493,493,493,493,493,493,493,493,493,493,493,493,493,493,493,493,493,493,493,493,493,493,493,493,493,493,493,493,493,493,493,493,493,493,493,493,493,493,493,493,493,493,493,493,493,493,493,493,493,493,493,493,493,493,493,493,493,493,493,493,493,493,493,493,493,489,476,468,460,454,444,410,352,301,253,204,144,128,116,105,91],"timestamp_mouse":[6,22,42,61,81,102,122,141,161,185,201,222,241,261,282,301,321,341,360,382,402,421,441,462,481,500,522,542,561,581,601,621,642,660,682,701,722,742,761,781,802,822,842,862,882,902,920,941,962,982,1001,1021,1042,1061,1082,1101,1122,1142,1161,1182,1202,1221,1241,1261,1281,1302,1322,1342,1362,1381,1401,1421,1441,1462,1480,1501,1521,1541,1562,1580,1601,1621,1642,1661,1681,1701,1721,1741,1761,1782,1802],"xSR":583.2000122070312,"ySR":459.16001586914064,"xT1":329.9200073242187,"yT1":0,"xT2":836.4800170898437,"yT2":0,"toosoon":0,"cond_shown":"randomdotsizeEA","ratio_trial":750,"smaller_num":"3","larger_num":"4","correct_side":1,"subjID":"NicolasVasquez#27","gender":"0","age":"12","school":"6"},{"start_time":1551892874380,"click_time":1551892875542,"finger_time":1551892875083,"fix_duration":1416.0002656828856,"trial":16,"RT":703,"MT":459,"sideResp":1,"stimulus":"img/750/randomdotsizeEA/L/6_Ratio_750_L_24_R_18.png","xmouse":[614,614,614,614,614,614,614,614,614,614,614,614,614,614,614,614,614,614,614,614,614,614,614,614,614,614,614,614,614,614,614,614,614,610,600,590,572,542,513,448,410,399,395,393,392,388,384,380,379,379,379,379,379,379,380,380,380,383,384],"ymouse":[492,492,492,492,492,492,492,492,492,492,492,492,492,492,492,492,492,492,492,492,492,492,492,492,492,492,492,492,492,492,492,492,492,486,470,452,420,378,325,244,198,183,176,173,167,160,152,145,142,138,135,130,122,116,108,106,103,100,98],"timestamp_mouse":[3,28,43,63,83,102,123,142,162,182,202,222,243,263,282,302,322,343,362,382,403,423,443,462,483,503,523,541,563,582,602,623,643,662,682,703,722,742,763,782,802,822,842,863,882,901,922,942,962,982,1002,1022,1042,1063,1082,1102,1122,1142,1162],"xSR":583.2000122070312,"ySR":459.16001586914064,"xT1":329.9200073242187,"yT1":0,"xT2":836.4800170898437,"yT2":0,"toosoon":0,"cond_shown":"randomdotsizeEA","ratio_trial":750,"smaller_num":"18","larger_num":"24","correct_side":1,"subjID":"NicolasVasquez#27","gender":"0","age":"12","school":"6"},{"start_time":1551892876434,"click_time":1551892877642,"finger_time":1551892877262,"fix_duration":250,"trial":17,"RT":828,"MT":380,"sideResp":1,"stimulus":"img/900/randomdotsizeEA/R/7_Ratio_900_L_9_R_10.png","xmouse":[610,610,610,610,610,610,610,610,610,610,610,610,610,610,610,610,610,610,610,610,610,610,610,610,610,610,610,610,610,610,610,610,610,610,610,610,610,610,610,610,606,572,538,490,426,357,292,268,268,268,268,266,266,266,266,266,268,284,303,326,344],"ymouse":[491,491,491,491,491,491,491,491,491,491,491,491,491,491,491,491,491,491,491,491,491,491,491,491,491,491,491,491,491,491,491,491,491,491,491,491,491,491,491,490,476,414,352,277,202,143,109,97,97,96,93,89,88,87,85,84,80,74,71,68,65],"timestamp_mouse":[7,31,49,68,88,110,128,148,168,188,209,228,248,269,289,309,327,349,368,389,409,428,449,469,488,508,529,548,568,589,608,628,649,669,689,708,729,748,769,788,809,828,848,868,888,908,928,948,967,989,1008,1028,1048,1068,1088,1109,1128,1149,1168,1188,1208],"xSR":583.2000122070312,"ySR":459.16001586914064,"xT1":329.9200073242187,"yT1":0,"xT2":836.4800170898437,"yT2":0,"toosoon":0,"cond_shown":"randomdotsizeEA","ratio_trial":900,"smaller_num":"9","larger_num":"10","correct_side":2,"subjID":"NicolasVasquez#27","gender":"0","age":"12","school":"6"},{"start_time":1551892882214,"click_time":1551892883562,"finger_time":1551892882901,"fix_duration":250,"trial":18,"RT":687,"MT":661,"sideResp":2,"stimulus":"img/900/randomdotsizeEA/L/2_Ratio_900_L_20_R_18.png","xmouse":[623,623,623,623,623,623,623,623,623,623,623,623,623,623,623,623,623,623,623,623,623,623,623,623,623,623,623,623,623,623,623,623,624,628,633,641,649,655,659,660,665,675,698,708,716,726,738,772,790,808,826,872,1012,1060,1078,1080,1080,1080,1076,1073,1070,1064,1056,1024,998,968,942,921],"ymouse":[506,506,506,506,506,506,506,506,506,506,506,506,506,506,506,506,506,506,506,506,506,506,506,506,506,506,506,506,506,506,506,505,497,480,450,402,365,332,282,261,248,237,219,212,207,200,192,171,161,149,138,111,17,0,0,0,0,0,4,8,11,13,15,15,15,20,24,28],"timestamp_mouse":[8,40,47,69,89,108,129,148,169,188,208,228,248,269,288,309,329,349,368,388,409,429,448,469,488,508,528,548,569,589,608,628,648,668,687,709,729,748,768,788,808,828,848,868,888,908,928,948,968,988,1008,1028,1048,1067,1088,1107,1128,1148,1168,1188,1209,1228,1248,1268,1289,1309,1328,1348],"xSR":583.2000122070312,"ySR":459.16001586914064,"xT1":329.9200073242187,"yT1":0,"xT2":836.4800170898437,"yT2":0,"toosoon":0,"cond_shown":"randomdotsizeEA","ratio_trial":900,"smaller_num":"18","larger_num":"20","correct_side":1,"subjID":"NicolasVasquez#27","gender":"0","age":"12","school":"6"},{"start_time":1551892885724,"click_time":1551892886702,"finger_time":1551892886523,"fix_duration":1100.2849416889903,"trial":19,"RT":799,"MT":179,"sideResp":1,"stimulus":"img/500/equaldotanddens/L/10_Ratio_500_L_4_R_2.png","xmouse":[630,630,630,630,630,630,630,630,630,630,630,630,630,630,630,630,630,630,630,630,630,630,630,630,630,631,631,631,631,631,631,631,631,631,631,631,631,631,628,614,597,536,485,457,442,436,434,430,429],"ymouse":[505,505,505,505,505,505,505,505,505,505,505,505,505,505,505,505,505,505,505,505,505,505,505,505,505,505,505,505,505,505,505,505,505,505,505,505,500,491,476,447,400,282,198,149,119,97,79,56,48],"timestamp_mouse":[18,38,58,78,98,119,139,159,178,198,219,239,258,277,299,318,338,358,378,398,419,439,458,478,499,519,538,558,578,599,618,639,658,678,699,719,738,758,778,799,819,838,857,878,899,918,938,958,978],"xSR":583.2000122070312,"ySR":459.16001586914064,"xT1":329.9200073242187,"yT1":0,"xT2":836.4800170898437,"yT2":0,"toosoon":0,"cond_shown":"equaldotanddens","ratio_trial":500,"smaller_num":"2","larger_num":"4","correct_side":1,"subjID":"NicolasVasquez#27","gender":"0","age":"12","school":"6"},{"start_time":1551892889099,"click_time":1551892890062,"finger_time":1551892889682,"fix_duration":1475.668036461146,"trial":20,"RT":583,"MT":380,"sideResp":1,"stimulus":"img/250/equaldotanddens/L/5_Ratio_250_L_24_R_6.png","xmouse":[626,626,626,626,626,626,626,626,626,626,626,626,626,626,626,626,626,626,626,626,626,626,626,626,626,626,626,626,620,586,544,491,416,306,284,282,282,282,282,282,282,283,290,308,319,323,326,329,340],"ymouse":[489,489,489,489,489,489,489,489,489,489,489,489,489,489,489,489,489,489,489,489,489,489,489,489,489,489,489,489,480,429,378,317,248,120,69,53,42,39,37,37,37,36,35,33,33,33,36,40,47],"timestamp_mouse":[3,32,44,64,83,104,122,144,163,182,204,224,243,263,283,303,324,344,363,383,403,423,443,463,483,504,523,543,563,583,603,624,644,663,684,703,723,743,764,783,803,824,844,863,883,903,923,943,963],"xSR":583.2000122070312,"ySR":459.16001586914064,"xT1":329.9200073242187,"yT1":0,"xT2":836.4800170898437,"yT2":0,"toosoon":0,"cond_shown":"equaldotanddens","ratio_trial":250,"smaller_num":"6","larger_num":"24","correct_side":1,"subjID":"NicolasVasquez#27","gender":"0","age":"12","school":"6"},{"start_time":1551892891469,"click_time":1551892892262,"finger_time":1551892892162,"fix_duration":605.5693058582317,"trial":21,"RT":693,"MT":100,"sideResp":1,"stimulus":"img/750/equaldotsize/L/6_Ratio_750_L_24_R_18.png","xmouse":[620,620,620,620,620,620,620,620,620,620,620,620,620,620,620,620,620,620,620,620,620,620,620,620,620,620,620,620,620,620,620,620,616,605,568,526,488,452,421,387],"ymouse":[524,524,524,524,524,524,524,524,524,524,524,524,524,524,524,524,524,524,524,524,524,524,524,524,524,524,524,524,524,524,524,520,510,484,404,308,236,172,117,57],"timestamp_mouse":[13,33,53,73,93,113,133,154,174,194,214,234,253,274,294,314,334,353,374,393,413,433,453,473,493,514,533,553,573,593,613,634,653,674,693,713,732,753,773,793],"xSR":583.2000122070312,"ySR":459.16001586914064,"xT1":329.9200073242187,"yT1":0,"xT2":836.4800170898437,"yT2":0,"toosoon":0,"cond_shown":"equaldotsize","ratio_trial":750,"smaller_num":"18","larger_num":"24","correct_side":1,"subjID":"NicolasVasquez#27","gender":"0","age":"12","school":"6"},{"start_time":1551892894154,"click_time":1551892895262,"finger_time":1551892894802,"fix_duration":1190.009297522899,"trial":22,"RT":648,"MT":460,"sideResp":2,"stimulus":"img/900/randomdotsizeEA/L/8_Ratio_900_L_20_R_18.png","xmouse":[624,624,624,624,624,624,624,624,624,624,624,624,624,624,624,624,624,624,624,624,624,624,624,624,624,624,624,624,624,624,625,631,634,639,651,706,739,760,776,786,794,798,798,799,800,801,805,807,808,810,818,822,830,832,834,837],"ymouse":[476,476,476,476,476,476,476,476,476,476,476,476,476,476,476,476,476,476,476,476,476,476,476,476,476,476,476,476,476,476,477,466,454,437,404,289,240,194,157,134,116,98,94,92,90,87,80,78,76,74,69,68,67,67,67,67],"timestamp_mouse":[9,28,53,68,88,108,128,148,168,187,208,229,248,268,288,308,327,348,368,389,409,428,449,468,488,509,527,548,569,589,608,628,648,668,688,708,728,748,768,788,808,828,847,868,889,908,928,948,968,989,1008,1028,1048,1069,1088,1108],"xSR":583.2000122070312,"ySR":459.16001586914064,"xT1":329.9200073242187,"yT1":0,"xT2":836.4800170898437,"yT2":0,"toosoon":0,"cond_shown":"randomdotsizeEA","ratio_trial":900,"smaller_num":"18","larger_num":"20","correct_side":1,"subjID":"NicolasVasquez#27","gender":"0","age":"12","school":"6"},{"start_time":1551892896777,"click_time":1551892897762,"finger_time":1551892897563,"fix_duration":713.4736479643254,"trial":23,"RT":786,"MT":199,"sideResp":1,"stimulus":"img/900/equaldotsize/L/4_Ratio_900_L_20_R_18.png","xmouse":[610,610,610,610,610,610,610,610,610,610,610,610,610,610,610,610,610,610,610,610,610,610,610,610,610,610,610,610,610,611,611,612,612,613,615,615,616,616,617,612,605,576,549,517,470,457,447,438,432,421],"ymouse":[501,501,501,501,501,501,501,501,501,501,501,501,501,501,501,501,501,501,501,501,501,501,501,501,501,501,501,501,501,501,501,500,500,498,496,496,492,488,480,432,412,338,284,237,172,156,141,126,112,88],"timestamp_mouse":[5,31,45,64,85,106,126,145,166,185,205,225,246,266,285,305,326,346,365,386,406,426,446,465,485,506,525,545,566,585,606,625,646,665,685,705,725,745,765,786,806,825,845,864,885,905,925,946,966,985],"xSR":583.2000122070312,"ySR":459.16001586914064,"xT1":329.9200073242187,"yT1":0,"xT2":836.4800170898437,"yT2":0,"toosoon":0,"cond_shown":"equaldotsize","ratio_trial":900,"smaller_num":"18","larger_num":"20","correct_side":1,"subjID":"NicolasVasquez#27","gender":"0","age":"12","school":"6"},{"start_time":1551892898733,"click_time":1551892899562,"finger_time":1551892899462,"fix_duration":250,"trial":24,"RT":729,"MT":100,"sideResp":2,"stimulus":"img/750/equaldotsize/R/3_Ratio_750_L_15_R_20.png","xmouse":[628,628,628,628,628,628,628,628,628,628,628,628,628,628,628,628,628,628,628,628,628,628,628,628,628,628,628,628,628,628,628,628,628,630,636,646,690,727,772,816,856,899],"ymouse":[495,495,495,495,495,495,495,495,495,495,495,495,495,495,495,495,495,495,495,495,495,495,495,495,495,495,495,495,495,495,495,495,495,495,487,473,414,365,300,225,151,69],"timestamp_mouse":[10,29,48,69,90,109,129,149,170,190,209,229,250,269,289,309,329,349,370,389,410,429,449,470,489,509,530,549,569,590,610,630,649,669,689,709,729,749,769,789,809,829],"xSR":583.2000122070312,"ySR":459.16001586914064,"xT1":329.9200073242187,"yT1":0,"xT2":836.4800170898437,"yT2":0,"toosoon":0,"cond_shown":"equaldotsize","ratio_trial":750,"smaller_num":"15","larger_num":"20","correct_side":2,"subjID":"NicolasVasquez#27","gender":"0","age":"12","school":"6"},{"start_time":1551892901167,"click_time":1551892901862,"finger_time":1551892901742,"fix_duration":903.5982917821802,"trial":25,"RT":575,"MT":120,"sideResp":1,"stimulus":"img/500/equaldotanddens/L/7_Ratio_500_L_10_R_5.png","xmouse":[643,643,643,643,643,643,643,643,643,643,643,643,643,643,643,643,643,643,643,643,643,643,643,643,643,643,643,643,643,600,529,485,446,414,396],"ymouse":[484,484,484,484,484,484,484,484,484,484,484,484,484,484,484,484,484,484,484,484,484,484,484,484,484,484,479,473,454,352,241,182,135,100,77],"timestamp_mouse":[15,35,55,76,95,116,135,155,176,194,215,235,256,276,295,315,335,355,375,395,416,435,455,474,495,515,535,555,575,595,615,634,655,676,695],"xSR":583.2000122070312,"ySR":459.16001586914064,"xT1":329.9200073242187,"yT1":0,"xT2":836.4800170898437,"yT2":0,"toosoon":0,"cond_shown":"equaldotanddens","ratio_trial":500,"smaller_num":"5","larger_num":"10","correct_side":1,"subjID":"NicolasVasquez#27","gender":"0","age":"12","school":"6"},{"start_time":1551892903355,"click_time":1551892904362,"finger_time":1551892904243,"fix_duration":850.7055149442042,"trial":26,"RT":888,"MT":119,"sideResp":2,"stimulus":"img/250/equaldotanddens/R/12_Ratio_250_L_5_R_20.png","xmouse":[609,609,609,609,609,609,609,609,609,609,609,609,609,609,609,609,609,609,609,609,609,609,609,609,609,609,609,609,609,609,609,609,609,609,609,609,609,609,609,609,609,609,620,651,702,819,864,887,902,905,911],"ymouse":[500,500,500,500,500,500,500,500,500,500,500,500,500,500,500,500,500,500,500,500,500,500,500,500,500,500,500,500,500,500,500,500,500,500,500,500,500,500,500,500,500,500,495,478,443,317,244,182,132,108,83],"timestamp_mouse":[8,27,47,68,87,108,128,147,167,188,208,228,247,268,287,307,328,347,368,388,407,427,447,468,488,508,527,546,568,587,607,627,647,667,688,707,728,748,768,788,808,827,847,867,888,907,926,947,967,987,1007],"xSR":583.2000122070312,"ySR":459.16001586914064,"xT1":329.9200073242187,"yT1":0,"xT2":836.4800170898437,"yT2":0,"toosoon":0,"cond_shown":"equaldotanddens","ratio_trial":250,"smaller_num":"5","larger_num":"20","correct_side":2,"subjID":"NicolasVasquez#27","gender":"0","age":"12","school":"6"},{"start_time":1551892905844,"click_time":1551892907105,"finger_time":1551892906765,"fix_duration":580.008997976158,"trial":27,"RT":921,"MT":340,"sideResp":1,"stimulus":"img/750/randomdotsizeEA/L/9_Ratio_750_L_4_R_3.png","xmouse":[629,629,629,629,629,629,629,629,629,629,629,629,629,629,629,629,629,629,629,629,629,629,629,629,629,629,629,629,629,629,629,629,629,629,629,629,629,629,629,629,629,629,630,628,622,581,519,469,412,367,324,317,316,316,316,316,316,316,316,316,316,322,331],"ymouse":[511,511,511,511,511,511,511,511,511,511,511,511,511,511,511,511,511,511,511,511,511,511,511,511,511,511,511,511,511,511,511,511,511,511,511,511,511,511,511,511,511,511,504,496,468,372,290,226,154,104,60,54,52,50,49,49,48,48,48,48,48,50,56],"timestamp_mouse":[30,38,58,78,98,118,139,158,178,198,218,237,259,278,299,318,338,359,381,401,422,441,461,481,501,521,541,560,581,601,622,641,660,680,702,721,742,762,781,801,822,842,860,881,902,921,940,961,982,1001,1021,1041,1061,1080,1101,1121,1142,1160,1181,1201,1222,1241,1261],"xSR":583.2000122070312,"ySR":459.16001586914064,"xT1":329.9200073242187,"yT1":0,"xT2":836.4800170898437,"yT2":0,"toosoon":0,"cond_shown":"randomdotsizeEA","ratio_trial":750,"smaller_num":"3","larger_num":"4","correct_side":1,"subjID":"NicolasVasquez#27","gender":"0","age":"12","school":"6"},{"start_time":1551892909220,"click_time":1551892910805,"finger_time":1551892910105,"fix_duration":1193.0344498081163,"trial":28,"RT":885,"MT":700,"sideResp":2,"stimulus":"img/900/equaldotsize/R/7_Ratio_900_L_9_R_10.png","xmouse":[621,621,621,621,621,621,621,621,621,621,621,621,621,621,621,621,621,621,621,621,621,621,621,621,621,621,621,621,621,621,621,621,621,621,621,621,621,621,621,621,622,626,640,650,668,708,766,864,904,913,916,917,915,909,904,900,894,881,874,861,858,856,856,856,856,856,856,856,856,856,856,856,856,856,856,856,856,856,856,856],"ymouse":[502,502,502,502,502,502,502,502,502,502,502,502,502,502,502,502,502,502,502,502,502,502,502,502,502,502,502,502,502,502,502,502,502,502,502,502,502,502,502,502,502,500,480,466,444,411,370,276,226,208,200,194,184,175,168,160,156,147,140,122,116,112,108,108,108,108,108,108,106,106,106,106,106,106,106,106,106,105,101,97],"timestamp_mouse":[4,30,46,65,84,106,125,144,165,186,204,226,244,264,285,305,326,345,364,385,405,424,445,466,486,504,526,546,566,586,604,626,645,665,685,705,726,744,766,784,805,825,844,865,885,905,924,945,966,984,1005,1025,1044,1065,1085,1104,1125,1145,1165,1185,1204,1224,1244,1265,1285,1305,1325,1345,1366,1385,1404,1425,1445,1465,1485,1504,1526,1544,1565,1585],"xSR":583.2000122070312,"ySR":459.16001586914064,"xT1":329.9200073242187,"yT1":0,"xT2":836.4800170898437,"yT2":0,"toosoon":0,"cond_shown":"equaldotsize","ratio_trial":900,"smaller_num":"9","larger_num":"10","correct_side":2,"subjID":"NicolasVasquez#27","gender":"0","age":"12","school":"6"},{"start_time":1551892913740,"click_time":1551892914604,"finger_time":1551892914365,"fix_duration":554.6485287107984,"trial":29,"RT":625,"MT":239,"sideResp":2,"stimulus":"img/500/equaldotanddens/R/1_Ratio_500_L_9_R_18.png","xmouse":[603,603,603,603,603,603,603,603,603,603,603,603,603,603,603,603,603,603,603,603,603,603,603,603,603,603,603,603,603,604,607,625,639,660,695,728,807,849,887,908,919,924,924,924],"ymouse":[504,504,504,504,504,504,504,504,504,504,504,504,504,504,504,504,504,504,504,504,504,504,504,504,504,504,504,504,504,504,500,445,413,373,327,284,200,165,136,120,109,103,100,98],"timestamp_mouse":[5,35,45,66,85,106,125,145,166,185,206,226,244,266,286,306,325,346,366,386,405,425,445,466,486,506,525,544,565,585,605,625,644,665,685,705,725,744,764,784,805,825,846,864],"xSR":583.2000122070312,"ySR":459.16001586914064,"xT1":329.9200073242187,"yT1":0,"xT2":836.4800170898437,"yT2":0,"toosoon":0,"cond_shown":"equaldotanddens","ratio_trial":500,"smaller_num":"9","larger_num":"18","correct_side":2,"subjID":"NicolasVasquez#27","gender":"0","age":"12","school":"6"},{"start_time":1551892915816,"click_time":1551892916465,"finger_time":1551892916365,"fix_duration":250,"trial":30,"RT":549,"MT":100,"sideResp":1,"stimulus":"img/250/equaldotsize/L/5_Ratio_250_L_24_R_6.png","xmouse":[608,609,609,609,609,609,609,609,609,609,609,609,609,609,609,609,609,609,609,609,609,609,609,609,611,611,611,598,570,514,474,436,403],"ymouse":[484,484,484,484,484,484,484,484,484,484,484,484,484,484,484,484,484,484,484,484,484,484,484,484,484,482,474,424,375,292,226,152,15],"timestamp_mouse":[9,33,49,69,89,110,129,149,170,188,210,229,249,270,288,309,329,349,369,388,409,429,448,470,488,508,528,549,569,589,609,629,649],"xSR":583.2000122070312,"ySR":459.16001586914064,"xT1":329.9200073242187,"yT1":0,"xT2":836.4800170898437,"yT2":0,"toosoon":0,"cond_shown":"equaldotsize","ratio_trial":250,"smaller_num":"6","larger_num":"24","correct_side":1,"subjID":"NicolasVasquez#27","gender":"0","age":"12","school":"6"},{"start_time":1551892919462,"click_time":1551892920605,"finger_time":1551892920185,"fix_duration":836.0890290946736,"trial":31,"RT":723,"MT":420,"sideResp":1,"stimulus":"img/750/equaldotsize/L/9_Ratio_750_L_4_R_3.png","xmouse":[646,646,646,646,646,646,646,646,646,646,646,646,646,646,646,646,646,646,646,646,646,646,646,646,646,646,646,646,646,646,646,646,646,646,643,626,608,574,534,492,454,415,414,414,415,416,417,417,418,420,421,424,424,424,424,416,413,412],"ymouse":[502,502,502,502,502,502,502,502,502,502,502,502,502,502,502,502,502,502,502,502,502,502,502,502,502,502,502,502,502,502,502,502,502,503,498,475,452,415,376,334,292,204,185,172,161,152,151,150,147,144,140,133,130,126,123,108,101,98],"timestamp_mouse":[3,32,42,63,82,102,122,143,164,184,202,222,242,263,282,303,324,342,364,383,403,423,444,464,483,503,523,543,563,582,603,623,643,663,683,703,723,743,763,784,802,823,842,863,883,903,922,943,963,984,1003,1023,1042,1062,1083,1103,1123,1143],"xSR":583.2000122070312,"ySR":459.16001586914064,"xT1":329.9200073242187,"yT1":0,"xT2":836.4800170898437,"yT2":0,"toosoon":0,"cond_shown":"equaldotsize","ratio_trial":750,"smaller_num":"3","larger_num":"4","correct_side":1,"subjID":"NicolasVasquez#27","gender":"0","age":"12","school":"6"},{"start_time":1551892922168,"click_time":1551892923445,"finger_time":1551892922825,"fix_duration":962.6462671861445,"trial":32,"RT":657,"MT":620,"sideResp":2,"stimulus":"img/900/randomdotsizeEA/R/7_Ratio_900_L_9_R_10.png","xmouse":[640,640,640,640,640,640,640,640,640,640,640,640,640,640,640,640,640,640,640,640,640,640,640,640,640,640,640,640,640,640,640,646,666,699,756,789,818,844,860,876,880,886,889,892,896,899,900,900,900,900,900,900,900,900,902,904,905,908,909,912,913,913,916,916],"ymouse":[488,488,488,488,488,488,488,488,488,488,488,488,488,488,488,488,488,488,488,488,488,488,488,488,488,488,488,488,488,488,488,482,459,408,305,272,245,221,207,188,182,176,171,166,156,153,150,148,146,141,138,136,134,133,131,129,128,126,124,121,117,113,101,84],"timestamp_mouse":[26,37,65,77,97,117,137,157,177,197,216,238,256,276,297,317,336,358,378,397,417,436,456,478,496,518,537,558,577,598,616,637,657,678,697,716,737,757,777,797,817,837,858,877,897,916,937,957,977,997,1017,1036,1057,1076,1097,1117,1136,1157,1177,1197,1218,1236,1258,1277],"xSR":583.2000122070312,"ySR":459.16001586914064,"xT1":329.9200073242187,"yT1":0,"xT2":836.4800170898437,"yT2":0,"toosoon":0,"cond_shown":"randomdotsizeEA","ratio_trial":900,"smaller_num":"9","larger_num":"10","correct_side":2,"subjID":"NicolasVasquez#27","gender":"0","age":"12","school":"6"},{"start_time":1551892926476,"click_time":1551892927664,"finger_time":1551892927165,"fix_duration":869.9603828491669,"trial":33,"RT":689,"MT":499,"sideResp":1,"stimulus":"img/250/randomdotsizeEA/L/1_Ratio_250_L_8_R_2.png","xmouse":[640,640,640,640,640,640,640,640,640,640,640,640,640,640,640,640,640,640,640,640,640,640,640,640,640,640,640,640,640,640,639,636,627,616,584,562,520,491,485,484,484,482,473,460,428,416,403,397,395,394,395,399,402,406,412,414,416,417,419,421],"ymouse":[523,523,523,523,523,523,523,523,523,523,523,523,523,523,523,523,523,523,523,523,523,523,523,523,523,523,523,523,523,523,517,504,484,461,404,369,312,274,260,237,225,216,204,192,170,162,151,146,143,139,135,131,127,124,116,112,109,105,102,98],"timestamp_mouse":[9,34,49,70,89,110,130,149,170,189,208,229,248,269,290,310,330,350,368,388,409,430,450,468,489,510,530,549,569,589,608,629,648,669,689,710,728,748,768,789,808,829,849,870,888,910,928,949,969,989,1009,1029,1049,1070,1089,1108,1128,1149,1168,1188],"xSR":583.2000122070312,"ySR":459.16001586914064,"xT1":329.9200073242187,"yT1":0,"xT2":836.4800170898437,"yT2":0,"toosoon":0,"cond_shown":"randomdotsizeEA","ratio_trial":250,"smaller_num":"2","larger_num":"8","correct_side":1,"subjID":"NicolasVasquez#27","gender":"0","age":"12","school":"6"},{"start_time":1551892929118,"click_time":1551892930385,"finger_time":1551892930125,"fix_duration":250,"trial":34,"RT":1007,"MT":260,"sideResp":1,"stimulus":"img/900/randomdotsizeEA/L/8_Ratio_900_L_20_R_18.png","xmouse":[620,620,620,621,621,621,621,621,621,621,621,621,621,621,621,621,621,621,621,621,621,621,621,621,621,621,621,621,621,621,621,621,621,621,621,621,621,621,621,621,621,621,621,621,621,621,621,621,621,619,611,594,547,517,500,491,484,484,484,481,476,468,432,408],"ymouse":[485,485,488,488,488,488,488,488,488,488,488,488,488,488,488,488,488,488,488,488,488,488,488,488,488,488,488,488,488,488,488,488,488,488,488,488,488,488,488,488,488,488,488,488,488,488,488,488,484,473,450,419,334,287,259,242,229,207,194,179,162,147,116,92],"timestamp_mouse":[7,26,47,67,86,108,127,147,168,187,208,226,248,268,286,307,328,346,367,387,406,427,446,466,487,507,527,547,567,587,607,627,646,668,686,707,726,747,767,787,807,826,846,867,886,907,926,947,966,987,1007,1026,1046,1066,1086,1107,1126,1146,1166,1186,1207,1227,1247,1267],"xSR":583.2000122070312,"ySR":459.16001586914064,"xT1":329.9200073242187,"yT1":0,"xT2":836.4800170898437,"yT2":0,"toosoon":0,"cond_shown":"randomdotsizeEA","ratio_trial":900,"smaller_num":"18","larger_num":"20","correct_side":1,"subjID":"NicolasVasquez#27","gender":"0","age":"12","school":"6"},{"start_time":1551892932720,"click_time":1551892934785,"finger_time":1551892934446,"fix_duration":1394.5810341335557,"trial":35,"RT":1726,"MT":339,"sideResp":2,"stimulus":"img/250/equaldotsize/R/8_Ratio_250_L_1_R_4.png","xmouse":[631,632,632,632,632,632,632,632,632,632,632,632,632,632,632,632,632,632,632,632,632,633,633,633,633,633,633,633,633,633,633,633,633,633,633,633,633,633,633,633,633,633,633,633,633,633,633,633,633,633,633,633,633,633,633,633,633,633,633,633,633,633,633,633,633,633,633,633,633,633,633,633,633,633,633,633,633,633,633,633,633,633,633,639,641,648,659,688,697,702,706,711,724,736,740,746,753,776,791,808,836,866,889,915],"ymouse":[494,494,494,494,494,494,494,494,494,494,493,492,492,492,492,492,492,492,492,492,492,492,492,492,492,491,491,491,491,491,491,490,490,490,490,490,490,490,490,490,490,490,490,490,490,490,490,490,490,490,490,490,490,490,490,490,490,490,490,490,490,490,490,490,490,490,490,490,490,490,490,490,490,490,490,490,490,490,490,490,490,490,490,484,479,463,436,363,346,330,316,302,271,253,244,236,228,204,189,172,151,124,105,76],"timestamp_mouse":[4,26,45,65,85,106,125,145,165,185,205,225,246,265,285,305,325,345,365,385,404,425,446,466,485,505,525,546,565,584,606,626,645,665,685,706,725,745,766,785,806,825,845,866,886,904,924,946,966,984,1004,1025,1046,1065,1085,1105,1125,1144,1166,1185,1205,1225,1245,1265,1285,1304,1324,1346,1366,1386,1405,1425,1445,1465,1485,1505,1525,1546,1564,1586,1605,1625,1645,1666,1685,1706,1726,1745,1765,1784,1804,1825,1845,1865,1884,1905,1924,1944,1964,1984,2004,2026,2045,2065],"xSR":583.2000122070312,"ySR":459.16001586914064,"xT1":329.9200073242187,"yT1":0,"xT2":836.4800170898437,"yT2":0,"toosoon":0,"cond_shown":"equaldotsize","ratio_trial":250,"smaller_num":"1","larger_num":"4","correct_side":2,"subjID":"NicolasVasquez#27","gender":"0","age":"12","school":"6"},{"start_time":1551892937503,"click_time":1551892938204,"finger_time":1551892938105,"fix_duration":457.8990449291914,"trial":36,"RT":602,"MT":99,"sideResp":2,"stimulus":"img/250/equaldotanddens/R/6_Ratio_250_L_6_R_24.png","xmouse":[611,611,611,611,611,611,611,611,611,611,611,611,611,611,611,611,611,611,611,611,611,611,611,611,611,611,611,611,612,619,645,690,738,828,843,845],"ymouse":[531,531,531,531,531,531,531,531,531,531,531,531,531,531,531,531,531,531,531,531,531,531,531,531,531,531,531,531,530,517,451,341,252,137,110,92],"timestamp_mouse":[3,23,41,62,82,102,122,142,163,181,203,223,241,263,283,302,322,343,361,382,402,422,442,462,483,503,522,543,562,581,602,622,642,662,682,701],"xSR":583.2000122070312,"ySR":459.16001586914064,"xT1":329.9200073242187,"yT1":0,"xT2":836.4800170898437,"yT2":0,"toosoon":0,"cond_shown":"equaldotanddens","ratio_trial":250,"smaller_num":"6","larger_num":"24","correct_side":2,"subjID":"NicolasVasquez#27","gender":"0","age":"12","school":"6"},{"start_time":1551892939254,"click_time":1551892940026,"finger_time":1551892939925,"fix_duration":327.02097365298266,"trial":37,"RT":671,"MT":101,"sideResp":1,"stimulus":"img/900/equaldotsize/L/4_Ratio_900_L_20_R_18.png","xmouse":[608,608,608,608,608,608,608,608,608,608,608,608,608,608,608,608,608,608,608,608,608,608,608,608,608,608,608,608,608,608,608,604,594,576,543,460,410,382,358],"ymouse":[536,536,536,536,536,536,536,536,536,536,536,536,536,536,536,536,536,536,536,536,536,536,536,536,536,536,536,536,536,532,521,506,484,449,400,272,176,102,34],"timestamp_mouse":[25,31,51,71,91,111,131,151,171,191,211,230,251,270,291,311,331,352,371,392,411,432,450,470,491,512,532,551,571,591,610,631,650,671,691,710,730,750,772],"xSR":583.2000122070312,"ySR":459.16001586914064,"xT1":329.9200073242187,"yT1":0,"xT2":836.4800170898437,"yT2":0,"toosoon":0,"cond_shown":"equaldotsize","ratio_trial":900,"smaller_num":"18","larger_num":"20","correct_side":1,"subjID":"NicolasVasquez#27","gender":"0","age":"12","school":"6"},{"start_time":1551892941056,"click_time":1551892942045,"finger_time":1551892941805,"fix_duration":250,"trial":38,"RT":749,"MT":240,"sideResp":2,"stimulus":"img/750/equaldotsize/R/3_Ratio_750_L_15_R_20.png","xmouse":[636,636,636,636,636,636,636,636,636,636,636,636,636,636,636,636,636,636,636,636,636,636,636,636,636,636,636,636,636,636,636,636,636,636,637,644,667,692,722,751,782,829,837,840,841,839,839,839,839,839],"ymouse":[504,504,504,504,504,504,504,504,504,504,504,504,504,504,504,504,504,504,504,504,504,504,504,504,504,504,504,504,504,504,504,504,504,504,504,496,470,436,385,326,269,176,155,140,128,112,107,104,102,99],"timestamp_mouse":[8,28,50,69,90,108,129,149,168,189,209,228,249,270,288,309,329,350,368,389,410,429,450,469,490,510,530,550,569,590,610,628,649,669,688,708,730,749,770,789,808,829,850,869,889,909,929,948,969,989],"xSR":583.2000122070312,"ySR":459.16001586914064,"xT1":329.9200073242187,"yT1":0,"xT2":836.4800170898437,"yT2":0,"toosoon":0,"cond_shown":"equaldotsize","ratio_trial":750,"smaller_num":"15","larger_num":"20","correct_side":2,"subjID":"NicolasVasquez#27","gender":"0","age":"12","school":"6"},{"start_time":1551892944715,"click_time":1551892946165,"finger_time":1551892945685,"fix_duration":508.7576360155418,"trial":39,"RT":970,"MT":480,"sideResp":2,"stimulus":"img/750/equaldotsize/R/12_Ratio_750_L_3_R_4.png","xmouse":[652,652,652,652,652,652,652,652,652,652,652,652,652,652,652,652,652,652,652,652,652,652,652,652,652,652,652,652,652,652,652,652,652,652,652,652,652,652,652,652,652,654,666,671,674,676,676,680,690,697,704,707,709,709,709,709,709,709,710,711,714,719,739,772,798,816,835,867,876,879,880,880,880],"ymouse":[520,520,520,520,520,520,520,520,520,520,520,520,520,520,520,520,520,520,520,520,520,520,520,520,520,520,520,520,520,520,520,520,520,520,520,520,520,520,520,520,514,510,486,479,474,472,468,461,444,433,424,420,415,415,415,415,415,415,413,410,403,393,358,304,269,237,204,148,127,116,106,100,92],"timestamp_mouse":[9,30,50,71,91,110,131,151,169,191,211,231,250,269,290,310,331,350,370,390,410,430,449,471,491,509,531,551,569,589,610,629,649,670,691,710,729,749,771,791,810,831,850,870,890,910,929,949,970,990,1010,1031,1050,1071,1090,1110,1130,1149,1170,1190,1211,1230,1249,1269,1289,1310,1330,1349,1369,1391,1410,1431,1450],"xSR":583.2000122070312,"ySR":459.16001586914064,"xT1":329.9200073242187,"yT1":0,"xT2":836.4800170898437,"yT2":0,"toosoon":0,"cond_shown":"equaldotsize","ratio_trial":750,"smaller_num":"3","larger_num":"4","correct_side":2,"subjID":"NicolasVasquez#27","gender":"0","age":"12","school":"6"},{"start_time":1551892947772,"click_time":1551892949126,"finger_time":1551892948564,"fix_duration":1045.7461720773422,"trial":40,"RT":792,"MT":562,"sideResp":2,"stimulus":"img/900/randomdotsizeEA/R/3_Ratio_900_L_9_R_10.png","xmouse":[618,618,618,618,618,618,618,618,618,618,618,618,618,618,618,618,618,618,618,618,618,618,618,618,618,618,618,618,618,618,618,618,618,618,618,618,620,624,635,656,679,700,712,717,723,724,727,730,736,764,777,784,792,800,812,816,820,823,825,830,832,832,832,833,834,835,836,838],"ymouse":[516,516,516,516,516,516,516,516,516,516,516,516,516,516,516,516,516,516,516,516,516,516,516,516,516,516,516,516,516,516,516,516,516,516,516,516,516,511,492,436,392,356,325,306,266,245,225,210,195,158,144,132,121,112,97,91,88,83,79,74,73,73,73,73,73,73,73,73],"timestamp_mouse":[12,36,53,73,94,114,134,153,174,194,213,234,253,272,292,313,333,353,378,393,414,433,453,473,494,513,533,552,572,594,612,633,653,672,693,713,733,753,773,792,812,832,853,873,893,912,933,952,973,993,1014,1033,1053,1072,1093,1112,1133,1153,1172,1193,1212,1234,1253,1273,1293,1312,1332,1354],"xSR":583.2000122070312,"ySR":459.16001586914064,"xT1":329.9200073242187,"yT1":0,"xT2":836.4800170898437,"yT2":0,"toosoon":0,"cond_shown":"randomdotsizeEA","ratio_trial":900,"smaller_num":"9","larger_num":"10","correct_side":2,"subjID":"NicolasVasquez#27","gender":"0","age":"12","school":"6"},{"start_time":1551892951195,"click_time":1551892953385,"finger_time":1551892951985,"fix_duration":1367.0253850703978,"trial":41,"RT":790,"MT":1400,"sideResp":1,"stimulus":"img/750/randomdotsizeEA/L/10_Ratio_750_L_4_R_3.png","xmouse":[608,608,608,608,608,608,608,608,608,608,608,608,608,608,608,608,608,608,608,608,608,608,608,608,608,608,608,608,608,608,608,608,608,608,608,608,606,603,587,575,563,557,555,553,552,551,548,547,545,545,545,545,545,545,545,545,545,545,545,545,545,544,544,544,544,544,544,544,544,553,560,568,576,587,610,615,618,619,619,619,619,619,619,619,620,620,620,620,620,615,592,568,544,509,485,461,441,424,403,396,390,385,383,381,381,383,384,384,383,380],"ymouse":[539,539,539,539,539,539,539,539,539,539,539,539,539,539,539,539,539,539,539,539,539,539,539,539,539,539,539,539,539,539,539,539,539,538,536,534,530,524,498,484,470,459,449,436,432,428,424,423,422,422,422,422,422,422,422,422,422,422,422,422,422,420,420,420,420,420,420,420,424,438,449,464,476,489,508,511,512,512,512,512,512,512,512,512,512,512,512,511,504,488,440,404,378,339,314,294,276,258,226,214,202,192,182,161,152,140,128,119,103,96],"timestamp_mouse":[11,35,50,70,90,109,131,149,171,190,209,231,251,270,290,310,331,350,370,390,409,430,451,470,491,511,529,549,571,590,609,630,649,671,690,710,730,751,770,790,809,831,850,869,889,910,930,950,969,990,1010,1029,1051,1070,1091,1109,1131,1151,1171,1191,1209,1230,1250,1270,1289,1309,1330,1350,1370,1389,1409,1431,1450,1469,1490,1511,1529,1550,1570,1589,1611,1630,1649,1671,1689,1709,1731,1750,1770,1790,1809,1831,1849,1869,1890,1910,1930,1949,1970,1989,2009,2031,2050,2070,2090,2109,2129,2151,2170,2190],"xSR":583.2000122070312,"ySR":459.16001586914064,"xT1":329.9200073242187,"yT1":0,"xT2":836.4800170898437,"yT2":0,"toosoon":0,"cond_shown":"randomdotsizeEA","ratio_trial":750,"smaller_num":"3","larger_num":"4","correct_side":1,"subjID":"NicolasVasquez#27","gender":"0","age":"12","school":"6"},{"start_time":1551892954778,"click_time":1551892956084,"finger_time":1551892955464,"fix_duration":852.9193624772039,"trial":42,"RT":686,"MT":620,"sideResp":1,"stimulus":"img/900/equaldotsize/L/10_Ratio_900_L_20_R_18.png","xmouse":[647,647,647,647,647,647,647,647,647,647,647,647,647,647,647,647,647,647,647,647,647,647,647,647,647,647,647,647,647,647,642,636,628,616,593,582,570,561,548,506,479,464,453,446,441,440,440,440,439,439,440,441,443,444,441,435,428,422,419,415,402,400,400,399,399,399],"ymouse":[532,532,532,532,532,532,532,532,532,532,532,532,532,532,532,532,532,532,532,532,532,532,532,532,532,532,532,532,530,526,517,508,499,484,448,426,404,377,340,268,241,231,226,223,219,217,216,216,215,212,209,208,204,198,180,168,157,149,144,139,117,113,112,112,105,99],"timestamp_mouse":[6,32,48,67,86,106,128,148,167,187,206,228,246,267,288,307,327,346,366,386,408,428,448,468,487,506,527,548,567,586,606,627,648,667,686,706,727,747,767,787,807,826,847,866,886,907,927,947,968,986,1006,1026,1046,1068,1086,1106,1126,1146,1168,1187,1208,1227,1246,1266,1286,1306],"xSR":583.2000122070312,"ySR":459.16001586914064,"xT1":329.9200073242187,"yT1":0,"xT2":836.4800170898437,"yT2":0,"toosoon":0,"cond_shown":"equaldotsize","ratio_trial":900,"smaller_num":"18","larger_num":"20","correct_side":1,"subjID":"NicolasVasquez#27","gender":"0","age":"12","school":"6"},{"start_time":1551892957286,"click_time":1551892958404,"finger_time":1551892958044,"fix_duration":359.97860531278945,"trial":43,"RT":758,"MT":360,"sideResp":1,"stimulus":"img/900/equaldotanddens/L/2_Ratio_900_L_20_R_18.png","xmouse":[666,666,666,666,666,666,666,666,666,666,666,666,666,666,666,666,666,666,666,666,666,666,666,666,666,666,666,666,666,666,666,666,665,665,659,658,657,655,646,577,512,455,419,391,356,345,328,319,309,290,289,288,288,291,310,320,335],"ymouse":[506,506,506,506,506,506,506,506,506,506,506,506,506,506,506,506,506,506,506,506,506,506,506,506,506,506,506,506,506,506,506,506,501,499,485,483,479,473,458,400,357,321,295,270,223,200,168,152,136,111,108,108,107,105,98,93,88],"timestamp_mouse":[1,20,39,59,79,99,119,139,159,179,200,218,240,259,279,299,320,339,359,379,400,419,440,459,478,499,519,539,559,580,600,620,638,659,678,700,719,739,758,778,798,818,838,859,878,899,919,938,960,979,998,1019,1039,1059,1079,1098,1118],"xSR":583.2000122070312,"ySR":459.16001586914064,"xT1":329.9200073242187,"yT1":0,"xT2":836.4800170898437,"yT2":0,"toosoon":0,"cond_shown":"equaldotanddens","ratio_trial":900,"smaller_num":"18","larger_num":"20","correct_side":1,"subjID":"NicolasVasquez#27","gender":"0","age":"12","school":"6"},{"start_time":1551892959377,"click_time":1551892960285,"finger_time":1551892960045,"fix_duration":390.07042610973764,"trial":44,"RT":668,"MT":240,"sideResp":2,"stimulus":"img/900/equaldotsize/R/9_Ratio_900_L_18_R_20.png","xmouse":[656,656,656,656,656,656,656,656,656,656,656,656,656,656,656,656,656,656,656,656,654,653,652,652,652,652,652,652,652,652,651,653,658,660,671,675,681,692,707,742,764,792,812,824,835,837],"ymouse":[520,520,520,520,520,520,520,520,520,520,520,520,520,520,520,520,520,520,520,520,520,520,520,520,520,520,520,520,520,520,520,508,483,452,379,348,318,287,263,214,180,144,112,86,73,71],"timestamp_mouse":[8,27,48,68,87,107,128,147,168,187,208,228,248,268,289,307,329,348,369,387,408,427,448,467,489,508,529,548,568,588,609,627,648,668,687,707,728,748,769,787,807,827,848,868,887,908],"xSR":583.2000122070312,"ySR":459.16001586914064,"xT1":329.9200073242187,"yT1":0,"xT2":836.4800170898437,"yT2":0,"toosoon":0,"cond_shown":"equaldotsize","ratio_trial":900,"smaller_num":"18","larger_num":"20","correct_side":2,"subjID":"NicolasVasquez#27","gender":"0","age":"12","school":"6"},{"start_time":1551892961157,"click_time":1551892962385,"finger_time":1551892961906,"fix_duration":250,"trial":45,"RT":749,"MT":479,"sideResp":1,"stimulus":"img/500/equaldotsize/L/13_Ratio_500_L_12_R_6.png","xmouse":[642,642,642,642,642,642,642,642,642,642,642,642,642,642,642,642,642,642,642,642,642,642,642,642,642,642,642,642,642,642,642,642,642,642,642,632,621,595,556,496,316,248,238,236,235,235,235,236,243,256,281,288,291,294,298,303,304,308,310,314,321,332],"ymouse":[540,540,540,540,540,540,540,540,540,540,540,540,540,540,540,540,540,540,540,540,540,540,540,540,539,539,539,539,539,539,539,539,539,538,536,513,485,446,396,336,188,130,115,107,104,101,99,94,83,75,66,66,65,65,64,64,64,64,66,67,70,73],"timestamp_mouse":[8,28,49,68,88,108,128,148,169,188,208,229,248,268,289,308,327,349,367,388,408,428,449,468,488,508,528,548,567,589,608,629,648,669,688,707,727,749,768,788,808,828,847,867,888,907,927,947,968,989,1008,1028,1047,1068,1088,1107,1127,1148,1168,1188,1207,1228],"xSR":583.2000122070312,"ySR":459.16001586914064,"xT1":329.9200073242187,"yT1":0,"xT2":836.4800170898437,"yT2":0,"toosoon":0,"cond_shown":"equaldotsize","ratio_trial":500,"smaller_num":"6","larger_num":"12","correct_side":1,"subjID":"NicolasVasquez#27","gender":"0","age":"12","school":"6"},{"start_time":1551892963777,"click_time":1551892964644,"finger_time":1551892964364,"fix_duration":591.6751439870246,"trial":46,"RT":587,"MT":280,"sideResp":2,"stimulus":"img/250/equaldotsize/R/9_Ratio_250_L_3_R_12.png","xmouse":[602,602,602,602,602,602,602,602,602,602,602,602,602,602,602,602,602,602,602,602,602,602,602,602,602,602,604,606,612,639,659,681,692,704,724,731,737,749,757,776,788,816,831,840],"ymouse":[490,490,490,490,490,490,490,490,490,490,490,490,490,490,490,490,490,490,490,490,490,490,490,490,490,490,489,486,478,452,434,402,378,348,248,200,164,131,109,72,57,40,34,31],"timestamp_mouse":[7,28,48,69,88,108,128,148,167,188,207,227,249,267,287,307,329,347,367,388,409,427,449,468,488,509,528,547,568,587,609,627,648,667,688,707,727,747,769,788,808,827,848,867],"xSR":583.2000122070312,"ySR":459.16001586914064,"xT1":329.9200073242187,"yT1":0,"xT2":836.4800170898437,"yT2":0,"toosoon":0,"cond_shown":"equaldotsize","ratio_trial":250,"smaller_num":"3","larger_num":"12","correct_side":2,"subjID":"NicolasVasquez#27","gender":"0","age":"12","school":"6"},{"start_time":1551892966615,"click_time":1551892967767,"finger_time":1551892967466,"fix_duration":1127.4452316118275,"trial":47,"RT":851,"MT":301,"sideResp":2,"stimulus":"img/750/equaldotsize/R/7_Ratio_750_L_3_R_4.png","xmouse":[633,633,633,633,633,633,633,633,633,633,633,633,633,633,633,633,633,633,633,633,633,633,633,633,633,633,633,633,633,633,633,633,633,633,633,633,633,633,639,643,652,658,683,707,733,762,786,817,829,842,850,862,874,899,905,910,915,925],"ymouse":[496,496,496,496,496,496,496,496,496,496,496,496,496,496,496,496,496,496,496,496,496,496,496,496,496,496,496,496,496,496,496,496,496,496,496,496,496,496,491,488,480,472,436,382,308,223,140,50,20,0,0,0,0,0,0,0,0,4],"timestamp_mouse":[12,37,52,71,92,112,132,152,172,191,213,232,252,273,291,312,331,352,372,392,412,432,453,472,492,513,532,551,573,593,611,632,651,673,691,712,732,751,772,792,813,832,851,871,892,911,931,951,972,991,1011,1031,1051,1071,1091,1113,1133,1152],"xSR":583.2000122070312,"ySR":459.16001586914064,"xT1":329.9200073242187,"yT1":0,"xT2":836.4800170898437,"yT2":0,"toosoon":0,"cond_shown":"equaldotsize","ratio_trial":750,"smaller_num":"3","larger_num":"4","correct_side":2,"subjID":"NicolasVasquez#27","gender":"0","age":"12","school":"6"},{"start_time":1551892970962,"click_time":1551892972227,"finger_time":1551892971686,"fix_duration":1033.3098024466556,"trial":48,"RT":724,"MT":541,"sideResp":2,"stimulus":"img/900/equaldotanddens/L/1_Ratio_900_L_10_R_9.png","xmouse":[627,627,627,627,627,627,627,627,627,627,627,627,627,627,627,627,627,627,627,627,627,627,627,627,627,627,627,627,627,627,628,628,629,630,632,639,647,660,678,700,741,757,764,770,777,796,805,809,813,815,817,817,818,819,820,822,824,826,830,834,837,845,849,853],"ymouse":[524,525,525,525,525,525,525,525,525,525,525,525,525,525,524,523,522,522,522,522,522,522,522,522,522,522,522,522,522,520,518,514,511,506,498,469,447,414,373,333,266,248,239,231,220,197,186,177,172,169,167,167,166,165,164,153,148,144,139,133,129,113,105,98],"timestamp_mouse":[7,32,44,65,86,104,124,145,164,184,206,225,244,266,284,306,324,345,364,384,404,424,445,464,484,504,524,545,565,585,604,626,644,665,685,704,724,745,764,785,805,824,844,864,884,904,924,945,964,984,1005,1025,1045,1064,1085,1104,1124,1144,1165,1185,1204,1225,1244,1265],"xSR":583.2000122070312,"ySR":459.16001586914064,"xT1":329.9200073242187,"yT1":0,"xT2":836.4800170898437,"yT2":0,"toosoon":0,"cond_shown":"equaldotanddens","ratio_trial":900,"smaller_num":"9","larger_num":"10","correct_side":1,"subjID":"NicolasVasquez#27","gender":"0","age":"12","school":"6"},{"start_time":1551892973517,"click_time":1551892974447,"finger_time":1551892974148,"fix_duration":250,"trial":49,"RT":631,"MT":299,"sideResp":1,"stimulus":"img/500/equaldotanddens/L/13_Ratio_500_L_12_R_6.png","xmouse":[673,673,673,673,673,673,673,673,673,673,673,673,673,673,673,673,673,673,672,672,671,670,670,670,670,670,670,669,665,660,651,640,604,580,565,554,545,531,524,517,513,505,482,453,440,433,428],"ymouse":[508,508,508,508,508,508,508,508,508,508,508,508,508,508,508,508,508,508,509,509,509,509,509,509,509,509,509,509,509,500,480,456,348,257,207,166,133,88,74,64,57,51,37,26,22,20,20],"timestamp_mouse":[10,34,49,71,90,110,130,149,169,189,209,229,249,269,290,309,330,349,369,389,411,429,449,470,490,509,529,549,569,589,610,631,649,669,689,710,730,749,769,789,809,829,850,869,889,909,930],"xSR":583.2000122070312,"ySR":459.16001586914064,"xT1":329.9200073242187,"yT1":0,"xT2":836.4800170898437,"yT2":0,"toosoon":0,"cond_shown":"equaldotanddens","ratio_trial":500,"smaller_num":"6","larger_num":"12","correct_side":1,"subjID":"NicolasVasquez#27","gender":"0","age":"12","school":"6"},{"start_time":1551892975639,"click_time":1551892976366,"finger_time":1551892976286,"fix_duration":449.3279193739959,"trial":50,"RT":647,"MT":80,"sideResp":1,"stimulus":"img/900/equaldotanddens/L/2_Ratio_900_L_20_R_18.png","xmouse":[615,615,615,615,615,615,615,615,615,615,615,615,615,615,615,615,615,615,615,615,615,615,615,615,615,615,615,615,616,616,616,611,597,572,540,499,429],"ymouse":[528,528,528,528,528,528,528,528,528,528,528,528,528,528,528,528,528,528,528,528,528,528,528,528,528,528,528,528,525,521,514,460,402,332,256,184,63],"timestamp_mouse":[13,28,48,68,87,108,128,147,168,189,207,228,247,267,288,308,329,347,368,389,408,427,447,469,487,507,527,549,567,588,607,627,647,668,688,708,727],"xSR":583.2000122070312,"ySR":459.16001586914064,"xT1":329.9200073242187,"yT1":0,"xT2":836.4800170898437,"yT2":0,"toosoon":0,"cond_shown":"equaldotanddens","ratio_trial":900,"smaller_num":"18","larger_num":"20","correct_side":1,"subjID":"NicolasVasquez#27","gender":"0","age":"12","school":"6"},{"start_time":1551892977971,"click_time":1551892978848,"finger_time":1551892978666,"fix_duration":782.5696949897629,"trial":51,"RT":695,"MT":182,"sideResp":1,"stimulus":"img/750/equaldotanddens/L/13_Ratio_750_L_8_R_6.png","xmouse":[595,595,595,595,595,595,595,595,595,595,595,595,595,595,595,595,595,595,595,595,595,595,595,595,595,595,595,595,595,595,595,597,593,586,561,541,523,499,476,438,417,407,400,395],"ymouse":[500,500,500,500,500,500,500,500,500,500,500,500,500,500,500,500,500,500,500,500,500,500,500,500,500,500,500,500,500,500,500,498,487,470,408,361,318,264,224,156,129,117,108,99],"timestamp_mouse":[16,36,57,76,95,116,135,155,176,195,216,236,256,275,297,316,337,355,376,397,415,436,457,475,495,516,536,555,577,596,616,635,655,675,695,715,736,756,776,795,815,835,856,877],"xSR":583.2000122070312,"ySR":459.16001586914064,"xT1":329.9200073242187,"yT1":0,"xT2":836.4800170898437,"yT2":0,"toosoon":0,"cond_shown":"equaldotanddens","ratio_trial":750,"smaller_num":"6","larger_num":"8","correct_side":1,"subjID":"NicolasVasquez#27","gender":"0","age":"12","school":"6"},{"start_time":1551892981909,"click_time":1551892982786,"finger_time":1551892982386,"fix_duration":840.2142523815197,"trial":52,"RT":477,"MT":400,"sideResp":2,"stimulus":"img/250/equaldotsize/R/12_Ratio_250_L_5_R_20.png","xmouse":[637,637,637,637,637,637,637,637,637,637,637,637,637,637,637,637,637,637,637,637,640,641,648,661,676,692,712,756,778,790,799,803,811,815,817,818,819,819,819,820,823,826,834,840],"ymouse":[498,498,498,498,498,498,498,498,498,498,497,497,497,497,497,497,497,497,497,497,497,496,485,456,422,384,340,260,221,193,172,154,128,113,109,107,105,102,96,92,88,84,80,77],"timestamp_mouse":[17,37,57,79,97,118,139,157,179,197,217,239,257,278,297,319,338,357,379,399,417,438,457,477,497,517,538,557,577,598,617,637,657,677,697,718,737,757,777,797,818,837,858,877],"xSR":583.2000122070312,"ySR":459.16001586914064,"xT1":329.9200073242187,"yT1":0,"xT2":836.4800170898437,"yT2":0,"toosoon":0,"cond_shown":"equaldotsize","ratio_trial":250,"smaller_num":"5","larger_num":"20","correct_side":2,"subjID":"NicolasVasquez#27","gender":"0","age":"12","school":"6"},{"start_time":1551892984987,"click_time":1551892985907,"finger_time":1551892985526,"fix_duration":1219.5702189182553,"trial":53,"RT":539,"MT":381,"sideResp":2,"stimulus":"img/900/randomdotsizeEA/R/14_Ratio_900_L_18_R_20.png","xmouse":[657,657,657,657,657,657,657,657,657,657,657,656,655,655,654,654,654,654,654,654,654,654,655,656,658,668,680,697,719,749,771,783,793,808,832,840,845,848,848,848,848,848,849,850,852,853,854],"ymouse":[544,544,544,544,544,544,544,544,544,544,544,544,544,544,545,545,545,545,545,544,544,544,541,539,529,496,462,417,360,281,225,199,180,160,132,122,116,112,111,109,109,108,106,104,101,100,99],"timestamp_mouse":[3,20,39,59,80,99,119,139,160,179,201,221,239,259,279,301,321,340,359,379,400,419,439,460,479,499,520,539,559,579,599,619,640,660,680,699,719,739,760,779,799,819,839,859,879,899,920],"xSR":583.2000122070312,"ySR":459.16001586914064,"xT1":329.9200073242187,"yT1":0,"xT2":836.4800170898437,"yT2":0,"toosoon":0,"cond_shown":"randomdotsizeEA","ratio_trial":900,"smaller_num":"18","larger_num":"20","correct_side":2,"subjID":"NicolasVasquez#27","gender":"0","age":"12","school":"6"},{"start_time":1551892987972,"click_time":1551892990666,"finger_time":1551892989806,"fix_duration":1105.6401533688063,"trial":54,"RT":1834,"MT":860,"sideResp":2,"stimulus":"img/750/equaldotanddens/R/3_Ratio_750_L_15_R_20.png","xmouse":[662,662,662,662,662,662,662,662,662,662,662,662,662,662,662,662,662,662,662,662,662,662,662,662,662,662,662,662,662,662,662,662,662,662,662,662,662,662,662,662,662,662,662,662,662,662,662,662,662,662,662,662,662,662,662,662,662,662,662,662,662,662,662,662,662,662,662,662,662,662,662,662,662,662,662,662,662,662,662,662,662,662,664,664,664,664,664,664,664,664,668,671,672,673,673,673,673,673,673,673,673,673,673,673,672,672,672,672,672,664,660,660,659,659,656,656,656,655,655,655,655,655,655,655,655,655,658,662,675,732,768,805,848,884,920],"ymouse":[511,511,511,511,511,511,511,511,511,511,511,511,511,511,511,511,511,511,511,511,511,511,511,511,511,511,511,511,511,511,511,511,511,511,511,511,511,511,511,511,511,511,511,511,511,511,511,511,511,511,511,511,511,511,511,511,511,511,511,511,511,511,511,511,511,511,511,511,511,511,511,511,511,511,511,511,511,511,511,511,506,500,494,491,491,491,491,491,488,482,468,458,453,449,449,449,449,449,449,449,449,449,449,449,450,451,451,451,452,461,464,466,468,468,475,480,486,488,488,488,488,490,490,490,490,490,480,472,442,323,257,199,153,116,82],"timestamp_mouse":[14,40,55,74,94,114,135,154,175,195,214,234,254,275,295,314,335,356,375,394,415,436,455,474,495,515,534,554,575,595,615,636,655,675,695,714,734,755,774,794,816,836,854,874,895,914,934,954,974,994,1014,1035,1054,1075,1096,1114,1135,1156,1176,1195,1215,1235,1255,1276,1294,1316,1335,1356,1374,1395,1415,1436,1455,1475,1496,1514,1536,1556,1574,1594,1614,1634,1654,1676,1694,1715,1736,1755,1775,1794,1814,1834,1854,1874,1894,1916,1935,1954,1975,1995,2016,2035,2054,2074,2095,2114,2135,2154,2175,2194,2214,2234,2254,2274,2295,2314,2335,2354,2376,2395,2415,2436,2455,2474,2495,2514,2535,2554,2575,2595,2616,2634,2655,2674,2694],"xSR":583.2000122070312,"ySR":459.16001586914064,"xT1":329.9200073242187,"yT1":0,"xT2":836.4800170898437,"yT2":0,"toosoon":0,"cond_shown":"equaldotanddens","ratio_trial":750,"smaller_num":"15","larger_num":"20","correct_side":2,"subjID":"NicolasVasquez#27","gender":"0","age":"12","school":"6"},{"start_time":1551892992132,"click_time":1551892993286,"finger_time":1551892992806,"fix_duration":581.1576357198574,"trial":55,"RT":674,"MT":480,"sideResp":1,"stimulus":"img/500/randomdotsizeEA/L/13_Ratio_500_L_12_R_6.png","xmouse":[662,662,662,662,662,662,662,662,662,662,662,662,662,662,662,662,662,662,662,662,662,662,662,662,662,662,662,662,662,662,661,656,644,633,616,590,523,499,481,468,452,448,448,445,444,440,438,438,438,437,436,436,436,436,436,436,430,421],"ymouse":[496,496,496,496,496,496,496,496,496,496,496,496,496,496,496,496,496,496,496,496,496,496,496,496,496,496,496,496,496,496,496,490,473,456,429,384,277,223,174,124,86,63,59,54,48,42,40,39,39,39,39,41,41,41,41,41,42,42],"timestamp_mouse":[14,41,56,74,94,114,135,154,174,195,214,234,254,276,294,314,334,354,376,394,415,435,454,474,495,514,536,554,574,594,615,634,655,674,695,715,735,754,775,795,814,835,855,874,894,914,934,954,975,994,1015,1035,1056,1074,1094,1114,1135,1154],"xSR":583.2000122070312,"ySR":459.16001586914064,"xT1":329.9200073242187,"yT1":0,"xT2":836.4800170898437,"yT2":0,"toosoon":0,"cond_shown":"randomdotsizeEA","ratio_trial":500,"smaller_num":"6","larger_num":"12","correct_side":1,"subjID":"NicolasVasquez#27","gender":"0","age":"12","school":"6"},{"start_time":1551892995549,"click_time":1551892996246,"finger_time":1551892996106,"fix_duration":1462.7139239443663,"trial":56,"RT":557,"MT":140,"sideResp":1,"stimulus":"img/500/equaldotanddens/L/7_Ratio_500_L_10_R_5.png","xmouse":[648,648,648,648,648,648,648,648,648,648,647,646,646,646,646,646,646,646,646,646,646,646,646,646,646,644,639,626,605,581,511,460,441,430,424],"ymouse":[484,484,484,484,484,484,484,484,484,484,484,484,484,484,484,484,484,484,484,484,484,484,484,484,484,484,476,454,406,350,223,151,119,94,83],"timestamp_mouse":[28,39,57,77,99,118,138,157,177,198,218,238,258,277,298,318,338,359,378,398,418,439,458,479,498,518,538,557,577,599,617,638,657,677,697],"xSR":583.2000122070312,"ySR":459.16001586914064,"xT1":329.9200073242187,"yT1":0,"xT2":836.4800170898437,"yT2":0,"toosoon":0,"cond_shown":"equaldotanddens","ratio_trial":500,"smaller_num":"5","larger_num":"10","correct_side":1,"subjID":"NicolasVasquez#27","gender":"0","age":"12","school":"6"},{"start_time":1551892997520,"click_time":1551892998588,"finger_time":1551892998026,"fix_duration":552.2861067188383,"trial":57,"RT":506,"MT":562,"sideResp":1,"stimulus":"img/250/randomdotsizeEA/L/5_Ratio_250_L_24_R_6.png","xmouse":[620,620,620,620,620,620,620,620,620,620,620,620,620,620,620,620,620,620,620,620,620,620,621,624,627,636,642,645,645,645,645,645,645,640,635,630,624,587,549,520,485,451,392,373,369,368,368,363,356,350,347,346,346,345],"ymouse":[499,499,499,499,499,499,499,499,499,499,499,499,499,499,499,499,499,499,499,499,499,498,491,483,470,451,436,428,427,427,427,427,427,427,426,424,419,300,214,155,108,66,0,0,0,0,0,0,0,0,0,0,0,3],"timestamp_mouse":[7,34,47,66,87,108,126,148,166,186,208,227,246,268,288,306,328,347,367,386,406,426,447,467,486,506,527,546,567,586,606,628,647,667,686,707,726,747,766,786,806,828,846,867,886,908,926,947,966,988,1007,1028,1047,1068],"xSR":583.2000122070312,"ySR":459.16001586914064,"xT1":329.9200073242187,"yT1":0,"xT2":836.4800170898437,"yT2":0,"toosoon":0,"cond_shown":"randomdotsizeEA","ratio_trial":250,"smaller_num":"6","larger_num":"24","correct_side":1,"subjID":"NicolasVasquez#27","gender":"0","age":"12","school":"6"},{"start_time":1551893001332,"click_time":1551893002046,"finger_time":1551893001867,"fix_duration":543.5564988316389,"trial":58,"RT":535,"MT":179,"sideResp":2,"stimulus":"img/900/equaldotsize/L/4_Ratio_900_L_20_R_18.png","xmouse":[631,632,632,634,634,636,636,636,636,636,636,636,636,636,636,636,636,636,636,636,636,636,636,638,640,643,654,669,684,711,755,823,872,900,920,925],"ymouse":[504,503,496,494,492,489,488,488,488,488,488,488,488,488,488,488,488,488,487,487,487,487,486,483,476,469,448,410,364,309,254,188,150,128,106,99],"timestamp_mouse":[15,34,56,74,95,115,134,154,175,196,215,234,254,275,295,314,334,356,375,394,414,435,454,474,494,514,535,554,574,595,615,634,654,674,696,714],"xSR":583.2000122070312,"ySR":459.16001586914064,"xT1":329.9200073242187,"yT1":0,"xT2":836.4800170898437,"yT2":0,"toosoon":0,"cond_shown":"equaldotsize","ratio_trial":900,"smaller_num":"18","larger_num":"20","correct_side":1,"subjID":"NicolasVasquez#27","gender":"0","age":"12","school":"6"},{"start_time":1551893004096,"click_time":1551893004867,"finger_time":1551893004786,"fix_duration":1147.814310353941,"trial":59,"RT":690,"MT":81,"sideResp":2,"stimulus":"img/250/equaldotsize/R/12_Ratio_250_L_5_R_20.png","xmouse":[618,619,620,621,623,624,624,624,624,624,624,624,624,624,624,624,624,624,624,624,624,624,624,624,624,624,624,624,624,624,624,624,626,636,665,707,762,821,863],"ymouse":[513,513,513,514,516,517,517,517,517,517,517,517,517,517,517,518,518,518,518,518,518,518,518,517,517,515,513,512,511,509,508,505,496,460,395,332,256,171,79],"timestamp_mouse":[10,33,51,70,92,111,131,150,171,191,212,230,250,271,290,310,331,351,370,392,410,432,450,470,490,510,530,551,571,590,611,631,652,670,690,710,731,750,770],"xSR":583.2000122070312,"ySR":459.16001586914064,"xT1":329.9200073242187,"yT1":0,"xT2":836.4800170898437,"yT2":0,"toosoon":0,"cond_shown":"equaldotsize","ratio_trial":250,"smaller_num":"5","larger_num":"20","correct_side":2,"subjID":"NicolasVasquez#27","gender":"0","age":"12","school":"6"},{"start_time":1551893008420,"click_time":1551893009486,"finger_time":1551893009166,"fix_duration":971.5204550060608,"trial":60,"RT":746,"MT":320,"sideResp":2,"stimulus":"img/750/randomdotsizeEA/R/11_Ratio_750_L_12_R_16.png","xmouse":[637,637,637,637,637,637,637,637,637,637,637,637,637,637,637,637,637,637,637,637,637,637,637,637,637,638,638,638,638,638,638,638,638,639,640,643,656,704,739,765,788,805,826,832,837,840,840,840,840,841,843,844,844,844],"ymouse":[532,533,533,533,533,533,533,533,533,533,533,533,533,533,533,532,532,532,532,532,532,532,532,532,530,530,529,529,528,528,528,528,525,524,520,513,481,339,262,223,197,181,164,158,145,133,124,120,112,108,104,103,100,96],"timestamp_mouse":[8,27,48,67,86,107,126,147,166,187,206,228,247,267,286,307,327,346,366,387,406,428,446,466,488,506,526,546,567,588,606,626,646,666,686,706,728,746,767,786,807,826,847,866,887,906,927,947,968,986,1007,1026,1047,1066],"xSR":583.2000122070312,"ySR":459.16001586914064,"xT1":329.9200073242187,"yT1":0,"xT2":836.4800170898437,"yT2":0,"toosoon":0,"cond_shown":"randomdotsizeEA","ratio_trial":750,"smaller_num":"12","larger_num":"16","correct_side":2,"subjID":"NicolasVasquez#27","gender":"0","age":"12","school":"6"},{"start_time":1551893011880,"click_time":1551893012966,"finger_time":1551893012606,"fix_duration":1311.421786006733,"trial":61,"RT":726,"MT":360,"sideResp":2,"stimulus":"img/900/equaldotsize/R/7_Ratio_900_L_9_R_10.png","xmouse":[660,660,660,660,660,660,660,660,660,660,660,660,660,660,660,660,660,660,660,661,661,662,662,662,662,662,662,662,662,662,662,662,663,663,664,672,788,888,930,959,960,960,958,958,958,964,969,969,968,963,958,954,948,940,913],"ymouse":[496,496,496,496,496,496,496,496,496,496,496,496,496,496,496,496,496,496,496,496,496,494,494,494,494,494,494,494,494,494,494,494,493,492,492,484,405,331,272,156,120,103,96,93,92,77,56,47,37,28,25,24,24,24,21],"timestamp_mouse":[6,32,46,67,88,106,127,147,166,186,206,228,246,268,286,307,327,346,366,387,406,428,447,467,486,507,527,547,568,587,606,628,646,667,686,706,726,747,767,786,806,827,847,866,886,906,926,946,967,987,1006,1026,1046,1066,1086],"xSR":583.2000122070312,"ySR":459.16001586914064,"xT1":329.9200073242187,"yT1":0,"xT2":836.4800170898437,"yT2":0,"toosoon":0,"cond_shown":"equaldotsize","ratio_trial":900,"smaller_num":"9","larger_num":"10","correct_side":2,"subjID":"NicolasVasquez#27","gender":"0","age":"12","school":"6"},{"start_time":1551893015245,"click_time":1551893016028,"finger_time":1551893015947,"fix_duration":1297.7134562587864,"trial":62,"RT":702,"MT":81,"sideResp":2,"stimulus":"img/500/equaldotsize/R/12_Ratio_500_L_1_R_2.png","xmouse":[667,664,664,664,664,664,664,664,664,664,664,664,664,664,664,664,664,664,664,664,664,664,664,664,664,664,664,664,664,664,664,664,664,664,672,702,794,845,865,884],"ymouse":[520,520,520,520,520,520,520,520,520,520,520,520,520,520,520,520,520,520,520,520,520,520,520,520,520,520,520,520,520,520,520,517,512,502,481,426,282,171,101,40],"timestamp_mouse":[5,32,43,61,81,101,123,141,162,182,202,222,241,263,281,301,322,341,361,381,402,423,442,463,481,502,522,542,561,583,601,621,641,661,682,702,722,742,761,783],"xSR":583.2000122070312,"ySR":459.16001586914064,"xT1":329.9200073242187,"yT1":0,"xT2":836.4800170898437,"yT2":0,"toosoon":0,"cond_shown":"equaldotsize","ratio_trial":500,"smaller_num":"1","larger_num":"2","correct_side":2,"subjID":"NicolasVasquez#27","gender":"0","age":"12","school":"6"},{"start_time":1551893018433,"click_time":1551893019527,"finger_time":1551893019167,"fix_duration":1485.2619766016596,"trial":63,"RT":734,"MT":360,"sideResp":2,"stimulus":"img/500/randomdotsizeEA/R/14_Ratio_500_L_5_R_10.png","xmouse":[666,666,666,666,666,666,666,666,666,666,666,666,666,666,666,666,666,666,666,666,666,666,666,667,667,668,668,668,668,668,668,668,668,668,669,672,684,689,703,739,791,913,942,953,959,960,960,960,960,960,960,959,956,944,924],"ymouse":[512,512,512,512,512,512,512,512,512,512,512,512,512,512,512,512,512,512,512,512,511,509,508,508,507,506,506,506,506,506,506,506,504,503,501,498,477,465,441,379,300,122,79,59,48,45,44,40,35,32,29,27,24,21,19],"timestamp_mouse":[13,33,54,73,94,114,133,153,173,193,214,240,254,274,295,313,334,354,374,393,413,433,454,474,494,515,534,554,573,593,614,633,653,674,693,714,734,754,773,794,814,834,853,873,894,915,933,953,973,994,1014,1034,1055,1074,1093],"xSR":583.2000122070312,"ySR":459.16001586914064,"xT1":329.9200073242187,"yT1":0,"xT2":836.4800170898437,"yT2":0,"toosoon":0,"cond_shown":"randomdotsizeEA","ratio_trial":500,"smaller_num":"5","larger_num":"10","correct_side":2,"subjID":"NicolasVasquez#27","gender":"0","age":"12","school":"6"},{"start_time":1551893021206,"click_time":1551893022447,"finger_time":1551893021806,"fix_duration":557.4326807311298,"trial":64,"RT":600,"MT":641,"sideResp":1,"stimulus":"img/750/equaldotanddens/L/9_Ratio_750_L_4_R_3.png","xmouse":[664,664,664,664,664,664,663,663,663,663,662,662,662,662,662,662,662,662,662,662,662,662,662,662,662,662,662,661,660,657,653,644,634,622,612,602,593,586,579,577,574,567,560,541,538,534,528,522,503,492,488,482,474,464,462,462,462,461,458,450,444,432,421],"ymouse":[482,482,481,481,481,481,481,480,477,476,475,474,474,474,474,474,474,474,474,474,474,474,474,474,474,474,474,473,468,464,454,437,416,378,340,298,263,239,213,204,197,184,168,143,140,137,133,131,119,110,107,100,91,84,83,82,82,82,81,80,79,79,79],"timestamp_mouse":[1,21,40,61,81,102,120,142,161,180,200,221,242,261,282,300,321,342,360,380,402,420,441,460,480,502,521,540,561,581,600,620,640,660,680,700,721,741,760,781,800,821,840,861,880,901,921,942,960,980,1000,1021,1041,1060,1080,1100,1120,1142,1160,1180,1200,1221,1241],"xSR":583.2000122070312,"ySR":459.16001586914064,"xT1":329.9200073242187,"yT1":0,"xT2":836.4800170898437,"yT2":0,"toosoon":0,"cond_shown":"equaldotanddens","ratio_trial":750,"smaller_num":"3","larger_num":"4","correct_side":1,"subjID":"NicolasVasquez#27","gender":"0","age":"12","school":"6"},{"start_time":1551893025608,"click_time":1551893026466,"finger_time":1551893026226,"fix_duration":699.9131339886015,"trial":65,"RT":618,"MT":240,"sideResp":1,"stimulus":"img/500/equaldotanddens/L/7_Ratio_500_L_10_R_5.png","xmouse":[628,628,628,628,628,628,628,628,628,628,628,628,628,628,628,628,628,628,628,628,628,628,628,628,628,628,628,628,621,611,599,580,538,521,512,506,503,500,492,486,476,456,412],"ymouse":[504,504,504,504,504,504,504,504,504,504,504,504,504,504,504,504,504,504,504,504,504,504,504,504,504,504,504,504,487,462,412,333,178,143,124,116,109,103,94,89,81,70,52],"timestamp_mouse":[21,39,58,80,99,120,138,160,178,199,219,238,258,280,298,318,340,358,379,399,418,440,458,480,498,518,539,558,578,598,618,638,658,678,700,719,739,758,779,798,819,839,858],"xSR":583.2000122070312,"ySR":459.16001586914064,"xT1":329.9200073242187,"yT1":0,"xT2":836.4800170898437,"yT2":0,"toosoon":0,"cond_shown":"equaldotanddens","ratio_trial":500,"smaller_num":"5","larger_num":"10","correct_side":1,"subjID":"NicolasVasquez#27","gender":"0","age":"12","school":"6"},{"start_time":1551893027738,"click_time":1551893028626,"finger_time":1551893028246,"fix_duration":250,"trial":66,"RT":508,"MT":380,"sideResp":2,"stimulus":"img/750/equaldotanddens/L/8_Ratio_750_L_4_R_3.png","xmouse":[662,662,662,661,660,660,660,660,660,660,660,660,660,660,660,660,660,660,660,660,660,660,660,663,665,666,674,679,685,696,710,736,742,748,756,771,781,780,779,779,779,780,801,826,864],"ymouse":[492,492,492,492,491,491,491,491,491,491,491,491,491,491,491,491,491,490,488,487,485,479,475,470,461,453,427,408,386,344,295,200,176,156,132,103,72,68,65,65,65,64,62,59,53],"timestamp_mouse":[9,30,48,69,90,109,129,149,169,190,209,229,250,270,289,308,330,348,369,389,410,429,449,468,489,508,529,549,569,589,610,629,649,669,688,710,729,748,770,790,808,828,849,869,888],"xSR":583.2000122070312,"ySR":459.16001586914064,"xT1":329.9200073242187,"yT1":0,"xT2":836.4800170898437,"yT2":0,"toosoon":0,"cond_shown":"equaldotanddens","ratio_trial":750,"smaller_num":"3","larger_num":"4","correct_side":1,"subjID":"NicolasVasquez#27","gender":"0","age":"12","school":"6"},{"start_time":1551893033879,"click_time":1551893034767,"finger_time":1551893034627,"fix_duration":250,"trial":67,"RT":748,"MT":140,"sideResp":2,"stimulus":"img/900/randomdotsizeEA/R/13_Ratio_900_L_18_R_20.png","xmouse":[672,672,672,672,672,672,672,672,672,672,672,672,672,672,672,672,672,672,672,672,672,672,672,672,672,672,672,672,672,672,672,672,672,672,672,671,671,671,671,703,732,763,794,822,840],"ymouse":[511,511,511,511,511,511,511,511,511,511,511,511,511,511,511,511,511,511,511,511,511,511,511,511,511,511,511,511,511,511,511,511,511,511,511,504,481,446,392,293,248,204,162,122,94],"timestamp_mouse":[9,36,48,69,88,109,127,149,168,188,209,228,249,269,289,307,328,348,367,388,408,428,449,468,488,507,528,549,568,589,609,629,647,668,688,709,727,748,768,788,809,829,848,869,888],"xSR":583.2000122070312,"ySR":459.16001586914064,"xT1":329.9200073242187,"yT1":0,"xT2":836.4800170898437,"yT2":0,"toosoon":0,"cond_shown":"randomdotsizeEA","ratio_trial":900,"smaller_num":"18","larger_num":"20","correct_side":2,"subjID":"NicolasVasquez#27","gender":"0","age":"12","school":"6"},{"start_time":1551893035929,"click_time":1551893036927,"finger_time":1551893036627,"fix_duration":420.4375204039418,"trial":68,"RT":698,"MT":300,"sideResp":1,"stimulus":"img/750/equaldotsize/L/8_Ratio_750_L_4_R_3.png","xmouse":[648,648,648,648,648,648,648,648,648,648,648,6