[{"start_time":1551891754432,"click_time":1551891760921,"finger_time":1551891754440,"fix_duration":1227.1703776349946,"trial":0,"RT":8,"MT":6481,"sideResp":1,"stimulus":[],"xmouse":[793,793,793,793,793,793,793,793,793,793,793,793,793,793,793,793,793,793,793,793,793,793,793,793,793,793,793,793,794,796,800,802,802,802,802,802,803,804,805,805,805,805,805,805,805,805,805,805,805,805,805,805,805,805,805,805,805,805,805,805,805,805,805,805,805,805,805,805,805,805,805,805,805,805,805,805,805,805,805,805,805,805,805,805,805,805,805,805,805,805,805,805,805,805,805,805,805,805,805,805,805,805,805,805,805,805,805,805,805,805,805,805,805,805,805,805,805,805,805,805,803,802,801,800,800,799,798,795,792,782,768,759,753,750,750,750,750,750,751,765,796,809,815,818,819,819,819,819,810,804,779,770,764,762,761,761,761,766,771,775,779,779,779,780,780,782,782,782,779,777,777,777,775,773,771,767,767,767,766,770,782,786,789,791,792,793,793,793,793,793,791,789,785,780,775,768,766,766,766,765,765,765,767,769,774,783,784,785,786,786,787,789,790,790,791,791,791,791,791,791,789,787,784,780,777,776,776,776,778,781,790,795,799,802,803,807,807,808,809,809,809,809,808,807,805,796,792,787,781,778,778,781,787,791,799,807,809,811,817,818,819,819,819,819,818,815,812,808,799,785,772,767,767,767,774,790,792,792,792,792,796,802,812,822,831,838,838,838,838,838,840,840,841,841,841,841,841,839,826,810,775,756,744,739,738,738,738,738,738,738,738,738,738,738,736,720,713,708,706,702,655,605,557,514,479],"ymouse":[541,541,541,541,541,541,541,541,541,541,541,541,541,541,541,541,541,541,541,541,541,541,541,541,541,541,541,541,545,551,560,563,563,563,563,566,574,583,591,598,603,604,604,604,604,604,604,604,604,604,604,604,606,606,606,606,606,606,606,606,607,608,608,608,608,608,608,608,608,608,608,608,608,608,608,608,608,608,608,608,608,608,608,608,608,608,608,608,608,608,608,608,608,608,608,608,608,608,608,608,608,608,608,608,608,608,608,608,608,608,608,608,608,608,608,608,608,608,608,608,609,610,610,610,610,610,610,610,610,610,610,611,611,612,612,612,612,612,612,614,623,628,630,631,631,631,632,633,636,638,640,640,640,639,638,638,635,632,630,628,626,626,626,626,626,627,631,632,638,640,640,640,640,640,640,639,638,638,636,631,626,625,624,624,624,624,624,625,626,628,630,631,632,633,636,637,637,637,637,637,637,635,633,632,630,626,626,626,626,626,626,626,628,629,631,633,634,634,635,636,637,637,637,634,632,629,627,625,622,620,620,620,620,620,620,622,623,624,626,628,630,631,633,633,633,633,633,631,626,622,620,615,609,605,600,597,597,597,604,609,617,619,620,622,623,624,625,625,626,623,612,604,598,591,578,548,533,507,498,476,450,435,414,397,383,375,374,374,374,374,369,365,362,357,353,339,334,327,309,290,256,240,230,226,226,226,226,226,226,226,226,226,226,226,226,251,262,268,269,268,218,178,142,112,91],"timestamp_mouse":[8,28,47,68,88,109,129,148,167,189,208,228,248,268,289,309,328,349,367,387,408,428,449,468,487,507,528,548,568,587,608,628,647,668,688,708,728,748,768,789,808,828,847,867,888,909,928,949,968,989,1008,1028,1048,1069,1088,1108,1127,1148,1168,1188,1207,1228,1248,1267,1287,1309,1329,1347,1368,1389,1408,1428,1447,1469,1488,1508,1527,1547,1568,1588,1609,1627,1648,1669,1689,1707,1729,1747,1769,1787,1807,1829,1847,1868,1888,1908,1929,1948,1968,1987,2007,2027,2048,2068,2087,2108,2127,2148,2168,2187,2208,2228,2248,2269,2288,2307,2329,2349,2369,2388,2408,2428,2449,2469,2488,2507,2528,2548,2567,2589,2609,2627,2648,2668,2687,2707,2729,2748,2768,2788,2808,2828,2847,2868,2888,2908,2929,2948,2968,2987,3007,3028,3048,3067,3089,3108,3129,3148,3168,3189,3209,3228,3249,3267,3289,3308,3328,3347,3368,3387,3408,3428,3448,3468,3488,3508,3527,3548,3569,3588,3607,3628,3648,3667,3687,3709,3729,3748,3768,3788,3807,3828,3848,3869,3889,3908,3929,3949,3968,3988,4009,4028,4048,4069,4088,4108,4128,4148,4168,4188,4207,4227,4248,4267,4289,4308,4329,4347,4367,4388,4408,4428,4448,4468,4489,4508,4528,4547,4569,4589,4608,4628,4647,4668,4689,4708,4727,4748,4769,4787,4807,4828,4849,4868,4889,4908,4927,4948,4968,4988,5007,5028,5048,5068,5088,5108,5128,5147,5168,5189,5208,5228,5249,5268,5287,5308,5328,5348,5369,5388,5408,5428,5448,5469,5488,5508,5527,5548,5567,5589,5608,5628,5647,5669,5688,5708,5728,5747,5767,5788,5808,5828,5849,5867,5889,5908,5928,5948,5967,5988,6008,6028,6048,6068,6088,6107,6128,6149,6167,6188,6207,6228,6248,6268,6288,6307,6328,6348,6368,6389,6409,6428,6447,6468,6488],"xSR":741.5,"ySR":469.95,"xT1":424.9,"yT1":0,"xT2":1058.1,"yT2":0,"toosoon":0,"cond_shown":"Incongruent","ratio_trial":200,"L_num":4,"L_den":30,"R_num":1,"R_den":3,"correct_side":2,"subjID":"NicolásVásquez#27","gender":"0","age":"12","school":"6","test":{"fix_dur":[250,1500],"timestim":1000,"targets_dim":[100,100],"targets_relative_coord":[0.3,0.7],"size_stim":[880,420],"start_dim":[100,100],"size_start":[300,300],"size_fix":60,"samplingrate":20,"img_types":["Congruent","Incongruent"],"ratios":[100,200,300],"rep_conds":19,"nTrials":120,"trials_to_rest":500,"Trials_order":[39,82,9,117,35,101,81,45,79,64,52,41,113,98,53,13,97,49,50,14,73,55,47,68,8,69,23,71,19,114,42,56,104,103,67,62,34,93,91,17,7,65,74,36,46,78,94,90,21,96,109,110,116,89,0,112,99,92,111,119,4,86,29,30,16,83,24,118,40,107,33,26,105,54,11,95,27,18,77,10,51,102,6,85,44,57,80,43,106,61,72,108,59,84,37,2,25,100,1,3,58,5,70,66,76,32,31,60,20,48,88,22,15,12,87,63,28,38,75,115],"cond_shown":["Incongruent","Congruent","Incongruent","Incongruent","Incongruent","Incongruent","Incongruent","Incongruent","Incongruent","Congruent","Congruent","Incongruent","Incongruent","Congruent","Incongruent","Incongruent","Incongruent","Incongruent","Congruent","Congruent","Incongruent","Incongruent","Incongruent","Congruent","Congruent","Incongruent","Incongruent","Incongruent","Incongruent","Congruent","Congruent","Congruent","Congruent","Incongruent","Incongruent","Congruent","Congruent","Incongruent","Incongruent","Incongruent","Incongruent","Incongruent","Congruent","Congruent","Congruent","Congruent","Congruent","Congruent","Incongruent","Congruent","Incongruent","Congruent","Congruent","Incongruent","Congruent","Congruent","Incongruent","Congruent","Incongruent","Incongruent","Congruent","Congruent","Incongruent","Congruent","Congruent","Incongruent","Congruent","Congruent","Congruent","Incongruent","Incongruent","Congruent","Incongruent","Congruent","Incongruent","Incongruent","Incongruent","Congruent","Incongruent","Congruent","Incongruent","Congruent","Congruent","Incongruent","Congruent","Incongruent","Congruent","Incongruent","Congruent","Incongruent","Congruent","Congruent","Incongruent","Congruent","Incongruent","Congruent","Incongruent","Congruent","Incongruent","Incongruent","Congruent","Incongruent","Congruent","Congruent","Congruent","Congruent","Incongruent","Congruent","Congruent","Congruent","Congruent","Congruent","Incongruent","Congruent","Incongruent","Incongruent","Congruent","Congruent","Incongruent","Incongruent"],"ratio_trial":[200,300,200,200,300,300,200,200,100,300,300,300,300,200,300,100,100,100,200,200,100,100,300,200,200,200,300,300,100,100,100,200,200,100,100,200,300,200,100,300,100,300,200,100,300,100,300,100,200,100,100,200,200,300,100,300,200,200,200,300,300,200,300,100,300,300,100,300,300,300,200,200,200,100,300,300,200,100,300,300,200,100,100,100,200,200,200,100,300,100,100,100,300,100,100,200,100,300,100,200,300,300,300,100,300,200,100,100,200,100,300,300,200,100,200,200,300,200,200,100],"left_num":[4,7,7,7,4,1,1,14,2,5,24,4,8,14,4,13,3,6,3,3,6,12,1,15,21,7,2,4,10,15,11,12,8,13,13,9,4,7,8,13,6,2,6,2,20,11,1,2,4,7,12,16,5,4,1,20,4,9,9,13,4,1,4,1,8,1,10,11,1,2,1,4,1,11,4,4,7,15,4,1,4,4,6,3,1,7,7,11,11,2,3,11,8,4,1,8,3,4,2,3,20,4,8,8,8,3,12,11,9,2,20,11,7,4,3,14,1,8,7,12],"right_num":[1,20,8,14,2,2,2,6,6,6,8,6,14,6,2,12,11,7,11,7,13,2,2,4,2,14,6,2,8,13,6,6,3,6,6,4,1,12,6,12,3,6,7,11,8,4,7,11,6,9,2,12,14,8,18,5,1,13,8,12,1,21,6,3,1,2,3,1,19,6,2,3,2,6,2,2,8,13,8,8,1,15,5,11,21,12,18,9,4,8,4,4,14,15,8,2,11,13,8,1,8,2,1,2,1,14,9,4,4,6,13,4,4,6,11,6,3,7,8,9],"left_den":[30,14,10,10,20,2,3,30,4,25,30,5,10,28,20,26,5,10,10,10,10,30,2,25,30,10,4,20,25,25,22,20,15,26,26,20,10,10,16,26,12,4,12,5,25,22,20,5,5,14,30,20,10,5,2,25,30,30,15,26,10,2,5,2,16,2,25,22,3,4,3,10,3,22,20,20,10,25,5,30,30,10,20,5,2,10,15,22,22,4,20,22,10,10,2,15,5,20,4,10,25,20,16,16,16,6,24,22,20,5,25,22,15,8,4,30,5,15,10,24],"right_den":[3,25,16,28,4,10,15,9,15,12,16,12,28,20,4,20,22,14,22,14,26,4,10,10,4,28,30,4,16,26,15,15,9,10,10,16,10,24,10,15,5,30,10,22,16,10,20,22,10,15,4,20,20,16,30,10,3,26,10,15,10,30,12,5,5,10,10,5,30,30,15,15,15,15,4,4,16,26,16,24,3,30,25,22,30,24,27,15,20,20,16,10,28,30,20,6,22,26,20,2,16,4,5,5,5,20,15,10,16,12,26,20,6,10,20,9,6,21,16,15],"correct_side":[2,2,1,1,2,1,1,2,1,2,1,1,1,1,2,2,1,1,2,2,1,2,1,1,1,1,1,2,2,1,1,1,1,2,2,1,1,1,2,2,2,1,2,2,1,1,2,2,1,2,2,1,2,1,2,1,2,2,2,2,1,2,1,2,1,1,1,1,2,1,1,1,1,1,2,2,1,1,1,2,2,2,1,1,2,1,2,2,1,1,2,1,1,2,1,1,1,2,1,2,1,2,1,1,1,2,2,1,1,2,1,1,2,2,1,2,2,1,1,2],"img_shown":["img2/200/Incongruent/R/I_Dist_200_LN_4_LD_30_RN_1_RD_3_1.png","img2/300/Congruent/R/C_Dist_300_LN_7_LD_14_RN_20_RD_25_1.png","img2/200/Incongruent/L/I_Dist_200_LN_7_LD_10_RN_8_RD_16_0.png","img2/200/Incongruent/L/I_Dist_200_LN_7_LD_10_RN_14_RD_28_0.png","img2/300/Incongruent/R/I_Dist_300_LN_4_LD_20_RN_2_RD_4_1.png","img2/300/Incongruent/L/I_Dist_300_LN_1_LD_2_RN_2_RD_10_0.png","img2/200/Incongruent/L/I_Dist_200_LN_1_LD_3_RN_2_RD_15_0.png","img2/200/Incongruent/R/I_Dist_200_LN_14_LD_30_RN_6_RD_9_1.png","img2/100/Incongruent/L/I_Dist_100_LN_2_LD_4_RN_6_RD_15_0.png","img2/300/Congruent/R/C_Dist_300_LN_5_LD_25_RN_6_RD_12_1.png","img2/300/Congruent/L/C_Dist_300_LN_24_LD_30_RN_8_RD_16_0.png","img2/300/Incongruent/L/I_Dist_300_LN_4_LD_5_RN_6_RD_12_0.png","img2/300/Incongruent/L/I_Dist_300_LN_8_LD_10_RN_14_RD_28_0.png","img2/200/Congruent/L/C_Dist_200_LN_14_LD_28_RN_6_RD_20_0.png","img2/300/Incongruent/R/I_Dist_300_LN_4_LD_20_RN_2_RD_4_1.png","img2/100/Incongruent/R/I_Dist_100_LN_13_LD_26_RN_12_RD_20_1.png","img2/100/Incongruent/L/I_Dist_100_LN_3_LD_5_RN_11_RD_22_0.png","img2/100/Incongruent/L/I_Dist_100_LN_6_LD_10_RN_7_RD_14_0.png","img2/200/Congruent/R/C_Dist_200_LN_3_LD_10_RN_11_RD_22_1.png","img2/200/Congruent/R/C_Dist_200_LN_3_LD_10_RN_7_RD_14_1.png","img2/100/Incongruent/L/I_Dist_100_LN_6_LD_10_RN_13_RD_26_0.png","img2/100/Incongruent/R/I_Dist_100_LN_12_LD_30_RN_2_RD_4_1.png","img2/300/Incongruent/L/I_Dist_300_LN_1_LD_2_RN_2_RD_10_0.png","img2/200/Congruent/L/C_Dist_200_LN_15_LD_25_RN_4_RD_10_0.png","img2/200/Congruent/L/C_Dist_200_LN_21_LD_30_RN_2_RD_4_0.png","img2/200/Incongruent/L/I_Dist_200_LN_7_LD_10_RN_14_RD_28_0.png","img2/300/Incongruent/L/I_Dist_300_LN_2_LD_4_RN_6_RD_30_0.png","img2/300/Incongruent/R/I_Dist_300_LN_4_LD_20_RN_2_RD_4_1.png","img2/100/Incongruent/R/I_Dist_100_LN_10_LD_25_RN_8_RD_16_1.png","img2/100/Congruent/L/C_Dist_100_LN_15_LD_25_RN_13_RD_26_0.png","img2/100/Congruent/L/C_Dist_100_LN_11_LD_22_RN_6_RD_15_0.png","img2/200/Congruent/L/C_Dist_200_LN_12_LD_20_RN_6_RD_15_0.png","img2/200/Congruent/L/C_Dist_200_LN_8_LD_15_RN_3_RD_9_0.png","img2/100/Incongruent/R/I_Dist_100_LN_13_LD_26_RN_6_RD_10_1.png","img2/100/Incongruent/R/I_Dist_100_LN_13_LD_26_RN_6_RD_10_1.png","img2/200/Congruent/L/C_Dist_200_LN_9_LD_20_RN_4_RD_16_0.png","img2/300/Congruent/L/C_Dist_300_LN_4_LD_10_RN_1_RD_10_0.png","img2/200/Incongruent/L/I_Dist_200_LN_7_LD_10_RN_12_RD_24_0.png","img2/100/Incongruent/R/I_Dist_100_LN_8_LD_16_RN_6_RD_10_1.png","img2/300/Incongruent/R/I_Dist_300_LN_13_LD_26_RN_12_RD_15_1.png","img2/100/Incongruent/R/I_Dist_100_LN_6_LD_12_RN_3_RD_5_1.png","img2/300/Incongruent/L/I_Dist_300_LN_2_LD_4_RN_6_RD_30_0.png","img2/200/Congruent/R/C_Dist_200_LN_6_LD_12_RN_7_RD_10_1.png","img2/100/Congruent/R/C_Dist_100_LN_2_LD_5_RN_11_RD_22_1.png","img2/300/Congruent/L/C_Dist_300_LN_20_LD_25_RN_8_RD_16_0.png","img2/100/Congruent/L/C_Dist_100_LN_11_LD_22_RN_4_RD_10_0.png","img2/300/Congruent/R/C_Dist_300_LN_1_LD_20_RN_7_RD_20_1.png","img2/100/Congruent/R/C_Dist_100_LN_2_LD_5_RN_11_RD_22_1.png","img2/200/Incongruent/L/I_Dist_200_LN_4_LD_5_RN_6_RD_10_0.png","img2/100/Congruent/R/C_Dist_100_LN_7_LD_14_RN_9_RD_15_1.png","img2/100/Incongruent/R/I_Dist_100_LN_12_LD_30_RN_2_RD_4_1.png","img2/200/Congruent/L/C_Dist_200_LN_16_LD_20_RN_12_RD_20_0.png","img2/200/Congruent/R/C_Dist_200_LN_5_LD_10_RN_14_RD_20_1.png","img2/300/Incongruent/L/I_Dist_300_LN_4_LD_5_RN_8_RD_16_0.png","img2/100/Congruent/R/C_Dist_100_LN_1_LD_2_RN_18_RD_30_1.png","img2/300/Congruent/L/C_Dist_300_LN_20_LD_25_RN_5_RD_10_0.png","img2/200/Incongruent/R/I_Dist_200_LN_4_LD_30_RN_1_RD_3_1.png","img2/200/Congruent/R/C_Dist_200_LN_9_LD_30_RN_13_RD_26_1.png","img2/200/Incongruent/R/I_Dist_200_LN_9_LD_15_RN_8_RD_10_1.png","img2/300/Incongruent/R/I_Dist_300_LN_13_LD_26_RN_12_RD_15_1.png","img2/300/Congruent/L/C_Dist_300_LN_4_LD_10_RN_1_RD_10_0.png","img2/200/Congruent/R/C_Dist_200_LN_1_LD_2_RN_21_RD_30_1.png","img2/300/Incongruent/L/I_Dist_300_LN_4_LD_5_RN_6_RD_12_0.png","img2/100/Congruent/R/C_Dist_100_LN_1_LD_2_RN_3_RD_5_1.png","img2/300/Congruent/L/C_Dist_300_LN_8_LD_16_RN_1_RD_5_0.png","img2/300/Incongruent/L/I_Dist_300_LN_1_LD_2_RN_2_RD_10_0.png","img2/100/Congruent/L/C_Dist_100_LN_10_LD_25_RN_3_RD_10_0.png","img2/300/Congruent/L/C_Dist_300_LN_11_LD_22_RN_1_RD_5_0.png","img2/300/Congruent/R/C_Dist_300_LN_1_LD_3_RN_19_RD_30_1.png","img2/300/Incongruent/L/I_Dist_300_LN_2_LD_4_RN_6_RD_30_0.png","img2/200/Incongruent/L/I_Dist_200_LN_1_LD_3_RN_2_RD_15_0.png","img2/200/Congruent/L/C_Dist_200_LN_4_LD_10_RN_3_RD_15_0.png","img2/200/Incongruent/L/I_Dist_200_LN_1_LD_3_RN_2_RD_15_0.png","img2/100/Congruent/L/C_Dist_100_LN_11_LD_22_RN_6_RD_15_0.png","img2/300/Incongruent/R/I_Dist_300_LN_4_LD_20_RN_2_RD_4_1.png","img2/300/Incongruent/R/I_Dist_300_LN_4_LD_20_RN_2_RD_4_1.png","img2/200/Incongruent/L/I_Dist_200_LN_7_LD_10_RN_8_RD_16_0.png","img2/100/Congruent/L/C_Dist_100_LN_15_LD_25_RN_13_RD_26_0.png","img2/300/Incongruent/L/I_Dist_300_LN_4_LD_5_RN_8_RD_16_0.png","img2/300/Congruent/R/C_Dist_300_LN_1_LD_30_RN_8_RD_24_1.png","img2/200/Incongruent/R/I_Dist_200_LN_4_LD_30_RN_1_RD_3_1.png","img2/100/Congruent/R/C_Dist_100_LN_4_LD_10_RN_15_RD_30_1.png","img2/100/Congruent/L/C_Dist_100_LN_6_LD_20_RN_5_RD_25_0.png","img2/100/Incongruent/L/I_Dist_100_LN_3_LD_5_RN_11_RD_22_0.png","img2/200/Congruent/R/C_Dist_200_LN_1_LD_2_RN_21_RD_30_1.png","img2/200/Incongruent/L/I_Dist_200_LN_7_LD_10_RN_12_RD_24_0.png","img2/200/Congruent/R/C_Dist_200_LN_7_LD_15_RN_18_RD_27_1.png","img2/100/Incongruent/R/I_Dist_100_LN_11_LD_22_RN_9_RD_15_1.png","img2/300/Congruent/L/C_Dist_300_LN_11_LD_22_RN_4_RD_20_0.png","img2/100/Incongruent/L/I_Dist_100_LN_2_LD_4_RN_8_RD_20_0.png","img2/100/Congruent/R/C_Dist_100_LN_3_LD_20_RN_4_RD_16_1.png","img2/100/Congruent/L/C_Dist_100_LN_11_LD_22_RN_4_RD_10_0.png","img2/300/Incongruent/L/I_Dist_300_LN_8_LD_10_RN_14_RD_28_0.png","img2/100/Congruent/R/C_Dist_100_LN_4_LD_10_RN_15_RD_30_1.png","img2/100/Incongruent/L/I_Dist_100_LN_1_LD_2_RN_8_RD_20_0.png","img2/200/Congruent/L/C_Dist_200_LN_8_LD_15_RN_2_RD_6_0.png","img2/100/Incongruent/L/I_Dist_100_LN_3_LD_5_RN_11_RD_22_0.png","img2/300/Congruent/R/C_Dist_300_LN_4_LD_20_RN_13_RD_26_1.png","img2/100/Incongruent/L/I_Dist_100_LN_2_LD_4_RN_8_RD_20_0.png","img2/200/Incongruent/R/I_Dist_200_LN_3_LD_10_RN_1_RD_2_1.png","img2/300/Congruent/L/C_Dist_300_LN_20_LD_25_RN_8_RD_16_0.png","img2/300/Incongruent/R/I_Dist_300_LN_4_LD_20_RN_2_RD_4_1.png","img2/300/Congruent/L/C_Dist_300_LN_8_LD_16_RN_1_RD_5_0.png","img2/100/Congruent/L/C_Dist_100_LN_8_LD_16_RN_2_RD_5_0.png","img2/300/Congruent/L/C_Dist_300_LN_8_LD_16_RN_1_RD_5_0.png","img2/200/Congruent/R/C_Dist_200_LN_3_LD_6_RN_14_RD_20_1.png","img2/100/Incongruent/R/I_Dist_100_LN_12_LD_24_RN_9_RD_15_1.png","img2/100/Congruent/L/C_Dist_100_LN_11_LD_22_RN_4_RD_10_0.png","img2/200/Congruent/L/C_Dist_200_LN_9_LD_20_RN_4_RD_16_0.png","img2/100/Congruent/R/C_Dist_100_LN_2_LD_5_RN_6_RD_12_1.png","img2/300/Congruent/L/C_Dist_300_LN_20_LD_25_RN_13_RD_26_0.png","img2/300/Congruent/L/C_Dist_300_LN_11_LD_22_RN_4_RD_20_0.png","img2/200/Incongruent/R/I_Dist_200_LN_7_LD_15_RN_4_RD_6_1.png","img2/100/Congruent/R/C_Dist_100_LN_4_LD_8_RN_6_RD_10_1.png","img2/200/Incongruent/L/I_Dist_200_LN_3_LD_4_RN_11_RD_20_0.png","img2/200/Incongruent/R/I_Dist_200_LN_14_LD_30_RN_6_RD_9_1.png","img2/300/Congruent/R/C_Dist_300_LN_1_LD_5_RN_3_RD_6_1.png","img2/200/Congruent/L/C_Dist_200_LN_8_LD_15_RN_7_RD_21_0.png","img2/200/Incongruent/L/I_Dist_200_LN_7_LD_10_RN_8_RD_16_0.png","img2/100/Incongruent/R/I_Dist_100_LN_12_LD_24_RN_9_RD_15_1.png"],"dist100_C":[["C_Dist_100_LN_10_LD_25_RN_3_RD_10_0.png","C_Dist_100_LN_11_LD_22_RN_4_RD_10_0.png","C_Dist_100_LN_11_LD_22_RN_6_RD_15_0.png","C_Dist_100_LN_15_LD_25_RN_13_RD_26_0.png","C_Dist_100_LN_3_LD_6_RN_2_RD_5_0.png","C_Dist_100_LN_6_LD_20_RN_5_RD_25_0.png","C_Dist_100_LN_8_LD_16_RN_2_RD_5_0.png","C_Dist_100_LN_9_LD_15_RN_8_RD_16_0.png"],["C_Dist_100_LN_1_LD_2_RN_18_RD_30_1.png","C_Dist_100_LN_1_LD_2_RN_3_RD_5_1.png","C_Dist_100_LN_12_LD_30_RN_13_RD_26_1.png","C_Dist_100_LN_2_LD_5_RN_11_RD_22_1.png","C_Dist_100_LN_2_LD_5_RN_6_RD_12_1.png","C_Dist_100_LN_3_LD_20_RN_4_RD_16_1.png","C_Dist_100_LN_4_LD_10_RN_15_RD_30_1.png","C_Dist_100_LN_4_LD_8_RN_6_RD_10_1.png","C_Dist_100_LN_6_LD_12_RN_15_RD_25_1.png","C_Dist_100_LN_7_LD_14_RN_15_RD_25_1.png","C_Dist_100_LN_7_LD_14_RN_9_RD_15_1.png"]],"dist100_I":[["I_Dist_100_LN_1_LD_2_RN_8_RD_20_0.png","I_Dist_100_LN_2_LD_4_RN_6_RD_15_0.png","I_Dist_100_LN_2_LD_4_RN_8_RD_20_0.png","I_Dist_100_LN_3_LD_5_RN_11_RD_22_0.png","I_Dist_100_LN_3_LD_5_RN_8_RD_16_0.png","I_Dist_100_LN_3_LD_6_RN_4_RD_10_0.png","I_Dist_100_LN_3_LD_9_RN_7_RD_30_0.png","I_Dist_100_LN_4_LD_8_RN_8_RD_20_0.png","I_Dist_100_LN_6_LD_10_RN_11_RD_22_0.png","I_Dist_100_LN_6_LD_10_RN_13_RD_26_0.png","I_Dist_100_LN_6_LD_10_RN_7_RD_14_0.png","I_Dist_100_LN_9_LD_10_RN_20_RD_25_0.png","I_Dist_100_LN_9_LD_15_RN_13_RD_26_0.png","I_Dist_100_LN_9_LD_15_RN_14_RD_28_0.png"],["I_Dist_100_LN_10_LD_25_RN_8_RD_16_1.png","I_Dist_100_LN_10_LD_25_RN_9_RD_18_1.png","I_Dist_100_LN_11_LD_22_RN_9_RD_15_1.png","I_Dist_100_LN_12_LD_24_RN_9_RD_15_1.png","I_Dist_100_LN_12_LD_30_RN_2_RD_4_1.png","I_Dist_100_LN_13_LD_26_RN_12_RD_20_1.png","I_Dist_100_LN_13_LD_26_RN_6_RD_10_1.png","I_Dist_100_LN_17_LD_30_RN_10_RD_15_1.png","I_Dist_100_LN_6_LD_12_RN_3_RD_5_1.png","I_Dist_100_LN_8_LD_16_RN_6_RD_10_1.png","I_Dist_100_LN_8_LD_20_RN_1_RD_2_1.png","I_Dist_100_LN_9_LD_18_RN_6_RD_10_1.png"]],"dist100_S":[["E_Dist_100_LN_2_LD_12_RN_2_RD_30_0.png","E_Dist_100_LN_6_LD_10_RN_6_RD_12_0.png"],["E_Dist_100_LN_6_LD_12_RN_6_RD_10_1.png"]],"dist200_C":[["C_Dist_200_LN_11_LD_22_RN_3_RD_10_0.png","C_Dist_200_LN_12_LD_15_RN_6_RD_10_0.png","C_Dist_200_LN_12_LD_20_RN_6_RD_15_0.png","C_Dist_200_LN_14_LD_28_RN_6_RD_20_0.png","C_Dist_200_LN_15_LD_25_RN_4_RD_10_0.png","C_Dist_200_LN_16_LD_20_RN_12_RD_20_0.png","C_Dist_200_LN_16_LD_30_RN_9_RD_27_0.png","C_Dist_200_LN_20_LD_25_RN_9_RD_15_0.png","C_Dist_200_LN_21_LD_30_RN_2_RD_4_0.png","C_Dist_200_LN_4_LD_10_RN_3_RD_15_0.png","C_Dist_200_LN_4_LD_8_RN_3_RD_10_0.png","C_Dist_200_LN_6_LD_15_RN_3_RD_15_0.png","C_Dist_200_LN_7_LD_21_RN_2_RD_15_0.png","C_Dist_200_LN_8_LD_15_RN_2_RD_6_0.png","C_Dist_200_LN_8_LD_15_RN_3_RD_9_0.png","C_Dist_200_LN_8_LD_15_RN_7_RD_21_0.png","C_Dist_200_LN_9_LD_20_RN_4_RD_16_0.png"],["C_Dist_200_LN_1_LD_2_RN_21_RD_30_1.png","C_Dist_200_LN_13_LD_26_RN_14_RD_20_1.png","C_Dist_200_LN_3_LD_10_RN_11_RD_22_1.png","C_Dist_200_LN_3_LD_10_RN_14_RD_28_1.png","C_Dist_200_LN_3_LD_10_RN_7_RD_14_1.png","C_Dist_200_LN_3_LD_12_RN_9_RD_20_1.png","C_Dist_200_LN_3_LD_6_RN_14_RD_20_1.png","C_Dist_200_LN_5_LD_10_RN_14_RD_20_1.png","C_Dist_200_LN_6_LD_12_RN_7_RD_10_1.png","C_Dist_200_LN_6_LD_20_RN_11_RD_22_1.png","C_Dist_200_LN_7_LD_15_RN_18_RD_27_1.png","C_Dist_200_LN_9_LD_30_RN_13_RD_26_1.png"]],"dist200_I":[["I_Dist_200_LN_1_LD_2_RN_3_RD_10_0.png","I_Dist_200_LN_1_LD_3_RN_2_RD_15_0.png","I_Dist_200_LN_3_LD_4_RN_11_RD_20_0.png","I_Dist_200_LN_4_LD_5_RN_6_RD_10_0.png","I_Dist_200_LN_4_LD_6_RN_14_RD_30_0.png","I_Dist_200_LN_7_LD_10_RN_12_RD_24_0.png","I_Dist_200_LN_7_LD_10_RN_14_RD_28_0.png","I_Dist_200_LN_7_LD_10_RN_8_RD_16_0.png"],["I_Dist_200_LN_11_LD_20_RN_3_RD_4_1.png","I_Dist_200_LN_14_LD_30_RN_12_RD_18_1.png","I_Dist_200_LN_14_LD_30_RN_6_RD_9_1.png","I_Dist_200_LN_3_LD_10_RN_1_RD_2_1.png","I_Dist_200_LN_4_LD_30_RN_1_RD_3_1.png","I_Dist_200_LN_6_LD_20_RN_3_RD_6_1.png","I_Dist_200_LN_7_LD_15_RN_4_RD_6_1.png","I_Dist_200_LN_7_LD_15_RN_6_RD_9_1.png","I_Dist_200_LN_9_LD_15_RN_8_RD_10_1.png"]],"dist200_S":[["E_Dist_200_LN_3_LD_6_RN_3_RD_10_0.png"],["E_Dist_200_LN_3_LD_10_RN_3_RD_6_1.png"]],"dist300_C":[["C_Dist_300_LN_11_LD_22_RN_1_RD_5_0.png","C_Dist_300_LN_11_LD_22_RN_2_RD_10_0.png","C_Dist_300_LN_11_LD_22_RN_4_RD_20_0.png","C_Dist_300_LN_12_LD_24_RN_2_RD_10_0.png","C_Dist_300_LN_18_LD_20_RN_9_RD_15_0.png","C_Dist_300_LN_20_LD_25_RN_13_RD_26_0.png","C_Dist_300_LN_20_LD_25_RN_14_RD_28_0.png","C_Dist_300_LN_20_LD_25_RN_5_RD_10_0.png","C_Dist_300_LN_20_LD_25_RN_8_RD_16_0.png","C_Dist_300_LN_20_LD_25_RN_9_RD_18_0.png","C_Dist_300_LN_24_LD_30_RN_2_RD_4_0.png","C_Dist_300_LN_24_LD_30_RN_8_RD_16_0.png","C_Dist_300_LN_3_LD_6_RN_2_RD_10_0.png","C_Dist_300_LN_4_LD_10_RN_1_RD_10_0.png","C_Dist_300_LN_4_LD_5_RN_2_RD_4_0.png","C_Dist_300_LN_8_LD_16_RN_1_RD_5_0.png","C_Dist_300_LN_9_LD_10_RN_3_RD_5_0.png"],["C_Dist_300_LN_1_LD_20_RN_7_RD_20_1.png","C_Dist_300_LN_1_LD_3_RN_19_RD_30_1.png","C_Dist_300_LN_1_LD_30_RN_8_RD_24_1.png","C_Dist_300_LN_1_LD_5_RN_11_RD_22_1.png","C_Dist_300_LN_1_LD_5_RN_3_RD_6_1.png","C_Dist_300_LN_1_LD_5_RN_6_RD_12_1.png","C_Dist_300_LN_2_LD_10_RN_12_RD_24_1.png","C_Dist_300_LN_2_LD_20_RN_10_RD_25_1.png","C_Dist_300_LN_3_LD_12_RN_11_RD_20_1.png","C_Dist_300_LN_3_LD_6_RN_4_RD_5_1.png","C_Dist_300_LN_4_LD_20_RN_13_RD_26_1.png","C_Dist_300_LN_5_LD_25_RN_6_RD_12_1.png","C_Dist_300_LN_5_LD_25_RN_7_RD_14_1.png","C_Dist_300_LN_7_LD_14_RN_20_RD_25_1.png","C_Dist_300_LN_8_LD_15_RN_10_RD_12_1.png"]],"dist300_I":[["I_Dist_300_LN_1_LD_2_RN_2_RD_10_0.png","I_Dist_300_LN_1_LD_2_RN_3_RD_15_0.png","I_Dist_300_LN_2_LD_4_RN_6_RD_30_0.png","I_Dist_300_LN_3_LD_6_RN_4_RD_20_0.png","I_Dist_300_LN_4_LD_5_RN_6_RD_12_0.png","I_Dist_300_LN_4_LD_5_RN_8_RD_16_0.png","I_Dist_300_LN_7_LD_10_RN_8_RD_20_0.png","I_Dist_300_LN_8_LD_10_RN_14_RD_28_0.png","I_Dist_300_LN_8_LD_10_RN_9_RD_18_0.png"],["I_Dist_300_LN_13_LD_26_RN_12_RD_15_1.png","I_Dist_300_LN_4_LD_20_RN_2_RD_4_1.png"]],"dist300_S":[["E_Dist_300_LN_9_LD_12_RN_9_RD_20_0.png"],["E_Dist_300_LN_18_LD_30_RN_18_RD_20_1.png","E_Dist_300_LN_3_LD_10_RN_3_RD_5_1.png","E_Dist_300_LN_9_LD_20_RN_9_RD_12_1.png"]],"dist500_C":[["C_Dist_500_LN_10_LD_13_RN_7_RD_26_0.png","C_Dist_500_LN_10_LD_15_RN_4_RD_24_0.png","C_Dist_500_LN_12_LD_16_RN_3_RD_12_0.png","C_Dist_500_LN_12_LD_18_RN_4_RD_24_0.png","C_Dist_500_LN_15_LD_18_RN_5_RD_15_0.png","C_Dist_500_LN_15_LD_20_RN_1_RD_4_0.png","C_Dist_500_LN_18_LD_27_RN_1_RD_6_0.png","C_Dist_500_LN_20_LD_24_RN_1_RD_3_0.png","C_Dist_500_LN_20_LD_24_RN_3_RD_9_0.png","C_Dist_500_LN_20_LD_24_RN_7_RD_21_0.png","C_Dist_500_LN_20_LD_28_RN_3_RD_14_0.png","C_Dist_500_LN_21_LD_28_RN_6_RD_24_0.png","C_Dist_500_LN_22_LD_28_RN_2_RD_7_0.png","C_Dist_500_LN_25_LD_30_RN_9_RD_27_0.png","C_Dist_500_LN_4_LD_6_RN_1_RD_6_0.png","C_Dist_500_LN_5_LD_6_RN_2_RD_6_0.png","C_Dist_500_LN_6_LD_9_RN_1_RD_6_0.png","C_Dist_500_LN_7_LD_10_RN_1_RD_5_0.png","C_Dist_500_LN_8_LD_12_RN_1_RD_6_0.png","C_Dist_500_LN_8_LD_12_RN_4_RD_24_0.png"],["C_Dist_500_LN_1_LD_4_RN_12_RD_16_1.png","C_Dist_500_LN_1_LD_4_RN_9_RD_12_1.png","C_Dist_500_LN_1_LD_9_RN_11_RD_18_1.png","C_Dist_500_LN_10_LD_24_RN_22_RD_24_1.png","C_Dist_500_LN_2_LD_12_RN_10_RD_15_1.png","C_Dist_500_LN_2_LD_12_RN_12_RD_18_1.png","C_Dist_500_LN_2_LD_12_RN_4_RD_6_1.png","C_Dist_500_LN_2_LD_24_RN_7_RD_12_1.png","C_Dist_500_LN_2_LD_5_RN_18_RD_20_1.png","C_Dist_500_LN_2_LD_5_RN_9_RD_10_1.png","C_Dist_500_LN_2_LD_8_RN_12_RD_16_1.png","C_Dist_500_LN_2_LD_8_RN_21_RD_28_1.png","C_Dist_500_LN_3_LD_10_RN_4_RD_5_1.png","C_Dist_500_LN_3_LD_12_RN_15_RD_20_1.png","C_Dist_500_LN_3_LD_30_RN_6_RD_10_1.png","C_Dist_500_LN_3_LD_8_RN_14_RD_16_1.png","C_Dist_500_LN_4_LD_16_RN_15_RD_20_1.png","C_Dist_500_LN_4_LD_24_RN_12_RD_18_1.png","C_Dist_500_LN_5_LD_14_RN_6_RD_7_1.png","C_Dist_500_LN_7_LD_21_RN_20_RD_24_1.png","C_Dist_500_LN_7_LD_28_RN_12_RD_16_1.png","C_Dist_500_LN_7_LD_28_RN_9_RD_12_1.png","C_Dist_500_LN_9_LD_27_RN_20_RD_24_1.png"]],"dist500_I":[["I_Dist_500_LN_2_LD_3_RN_4_RD_24_0.png","I_Dist_500_LN_5_LD_6_RN_6_RD_18_0.png","I_Dist_500_LN_7_LD_8_RN_9_RD_24_0.png"],["I_Dist_500_LN_7_LD_21_RN_5_RD_6_1.png"]],"dist500_S":[["E_Dist_500_LN_6_LD_8_RN_6_RD_24_0.png"],["E_Dist_500_LN_2_LD_12_RN_2_RD_3_1.png","E_Dist_500_LN_6_LD_24_RN_6_RD_8_1.png"]]}},{"start_time":1551891762679,"click_time":1551891764721,"finger_time":1551891764260,"fix_duration":478.69998783141745,"trial":1,"RT":1581,"MT":461,"sideResp":2,"stimulus":[],"xmouse":[810,810,810,810,810,810,810,810,810,810,810,810,810,810,810,810,810,810,810,810,810,810,810,810,810,810,810,810,810,810,810,810,810,810,810,810,810,810,810,810,810,810,810,810,810,810,810,810,810,810,810,810,810,810,810,810,810,810,810,810,810,810,810,810,810,810,810,810,810,810,810,810,810,810,810,810,810,811,834,844,853,860,867,890,925,1017,1057,1167,1241,1250,1251,1251,1251,1251,1251,1251,1251,1249,1231,1210,1186,1163,1138],"ymouse":[623,623,623,623,623,623,623,623,623,623,623,623,623,623,623,623,623,623,623,623,623,623,623,623,623,623,623,623,623,623,623,623,623,623,623,623,623,623,623,623,623,623,623,623,623,623,623,623,623,623,623,623,623,623,623,623,623,623,623,623,623,623,623,623,623,623,623,623,623,623,623,623,623,623,623,623,623,619,591,580,567,556,542,484,411,255,198,34,0,0,0,0,0,0,0,0,0,0,8,17,27,37,44],"timestamp_mouse":[8,20,40,61,81,101,122,140,160,181,202,221,241,260,280,301,321,340,360,381,402,420,441,460,480,501,521,540,560,580,602,621,641,660,680,700,721,740,761,781,801,822,840,860,882,901,921,940,960,980,1001,1021,1042,1060,1082,1100,1121,1141,1160,1182,1201,1221,1241,1262,1280,1302,1320,1341,1361,1381,1400,1421,1441,1461,1481,1501,1521,1541,1561,1581,1601,1622,1640,1660,1681,1701,1722,1741,1762,1781,1801,1822,1842,1861,1880,1901,1921,1941,1961,1981,2000,2020,2041],"xSR":741.5,"ySR":573.95,"xT1":424.9,"yT1":0,"xT2":1058.1,"yT2":0,"toosoon":0,"cond_shown":"Congruent","ratio_trial":300,"L_num":7,"L_den":14,"R_num":20,"R_den":25,"correct_side":2,"subjID":"NicolásVásquez#27","gender":"0","school":"6","age":"12"},{"start_time":1551891766384,"click_time":1551891768201,"finger_time":1551891768020,"fix_duration":962.185825864042,"trial":2,"RT":1636,"MT":181,"sideResp":1,"stimulus":[],"xmouse":[786,786,786,786,786,786,786,786,786,786,786,786,786,786,786,786,786,786,786,786,786,786,786,786,786,786,786,786,786,786,786,786,786,786,786,786,786,786,786,786,786,786,786,786,786,786,786,786,786,786,786,786,786,786,786,786,786,786,786,786,786,786,786,786,786,786,786,786,786,786,786,786,786,786,786,786,786,784,776,766,748,694,652,642,632,619,599,542,524,518,517],"ymouse":[623,623,623,623,623,623,623,623,623,623,623,623,623,623,623,623,623,623,623,623,623,623,623,623,623,623,623,623,623,623,623,623,623,623,623,623,623,623,623,623,623,623,623,623,623,623,623,623,623,623,623,623,623,623,623,623,623,623,623,623,623,623,623,623,623,623,623,623,623,623,623,623,623,623,623,623,623,621,614,605,586,523,437,397,361,323,284,183,140,109,83],"timestamp_mouse":[16,36,56,77,96,116,136,157,175,196,215,237,256,276,296,316,335,357,375,397,416,436,455,477,495,516,536,555,576,595,615,637,657,676,695,716,736,757,776,795,815,837,857,876,897,915,937,957,977,995,1016,1036,1056,1077,1096,1116,1136,1155,1177,1195,1215,1236,1257,1277,1296,1316,1335,1357,1377,1395,1417,1436,1457,1476,1496,1517,1537,1556,1577,1597,1616,1636,1656,1676,1696,1716,1736,1756,1776,1797,1817],"xSR":741.5,"ySR":573.95,"xT1":424.9,"yT1":0,"xT2":1058.1,"yT2":0,"toosoon":0,"cond_shown":"Incongruent","ratio_trial":200,"L_num":7,"L_den":10,"R_num":8,"R_den":16,"correct_side":1,"subjID":"NicolásVásquez#27","gender":"0","school":"6","age":"12"},{"start_time":1551891770500,"click_time":1551891773140,"finger_time":1551891771939,"fix_duration":1298.5173147863904,"trial":3,"RT":1439,"MT":1201,"sideResp":1,"stimulus":[],"xmouse":[757,757,757,757,757,757,757,757,757,757,757,757,757,757,757,757,757,757,757,757,757,757,757,757,757,757,757,757,757,757,757,757,757,757,757,757,757,757,757,757,757,757,757,757,757,757,757,757,757,757,757,757,757,757,757,757,757,757,757,757,757,757,757,757,757,757,757,757,760,763,780,821,900,936,972,985,996,1013,1022,1026,1031,1035,1038,1039,1041,1041,1042,1042,1042,1041,1036,1027,997,977,951,901,864,812,798,786,777,769,751,739,724,709,692,681,680,680,680,679,670,665,649,643,617,555,534,524,521,519,515,513,512,513,516,521,521,521,521,521,520],"ymouse":[660,660,660,660,660,660,660,660,660,660,660,660,660,660,660,660,660,660,660,660,660,660,660,660,660,660,660,660,660,660,660,660,660,660,660,660,660,660,660,660,660,660,660,660,660,660,660,660,660,660,660,660,660,660,660,660,660,660,660,660,660,660,660,660,660,660,660,660,657,652,632,592,504,457,399,371,350,310,295,285,274,265,255,249,243,240,240,240,239,239,241,247,268,283,306,350,387,452,472,487,495,498,495,483,465,442,406,356,332,311,292,276,253,246,230,223,204,177,167,162,161,158,147,142,135,128,122,113,110,106,103,100,96],"timestamp_mouse":[7,20,40,60,80,99,121,140,159,179,200,219,240,259,281,300,319,341,359,380,400,420,441,459,479,499,521,539,561,581,601,620,641,660,679,699,720,739,759,781,799,820,840,859,880,901,920,941,960,980,1000,1020,1041,1061,1079,1101,1121,1139,1160,1181,1199,1221,1241,1259,1280,1300,1321,1341,1360,1380,1400,1420,1439,1461,1480,1501,1520,1539,1560,1581,1600,1621,1640,1660,1680,1700,1719,1739,1760,1780,1800,1820,1840,1859,1881,1900,1920,1939,1959,1981,2000,2020,2040,2061,2080,2101,2120,2140,2160,2180,2200,2219,2239,2260,2280,2300,2320,2339,2360,2379,2401,2419,2439,2460,2481,2501,2520,2541,2560,2580,2600,2620,2640],"xSR":741.5,"ySR":573.95,"xT1":424.9,"yT1":0,"xT2":1058.1,"yT2":0,"toosoon":0,"cond_shown":"Incongruent","ratio_trial":200,"L_num":7,"L_den":10,"R_num":14,"R_den":28,"correct_side":1,"subjID":"NicolásVásquez#27","gender":"0","school":"6","age":"12"},{"start_time":1551891775591,"click_time":1551891777721,"finger_time":1551891777280,"fix_duration":250,"trial":4,"RT":1689,"MT":441,"sideResp":1,"stimulus":[],"xmouse":[801,801,801,801,801,801,801,801,801,801,801,801,801,801,801,801,801,801,801,801,801,801,801,801,801,801,801,801,801,801,801,801,801,801,801,801,801,801,801,801,801,801,801,801,801,801,801,801,801,801,801,801,801,801,801,801,801,801,801,801,801,801,801,801,801,801,801,801,801,801,801,801,801,801,801,801,801,801,801,801,798,795,779,760,736,699,639,630,628,628,628,628,621,616,613,603,562,543,527,510,499,497,492,487,480,463,454],"ymouse":[660,660,660,660,660,660,660,660,660,660,660,660,660,660,660,660,660,660,660,660,660,660,660,660,660,660,660,660,660,660,660,660,660,660,660,660,660,660,660,660,660,660,660,660,660,660,660,660,660,660,660,660,660,660,660,660,660,660,660,660,660,660,660,660,660,660,660,660,660,660,660,660,660,660,660,660,660,660,660,660,656,647,613,581,539,487,369,316,267,231,200,175,166,164,163,162,161,161,161,161,159,157,152,145,129,102,88],"timestamp_mouse":[9,28,50,70,89,109,130,150,170,189,209,229,250,268,290,309,329,350,368,390,409,430,449,469,488,510,530,548,570,589,608,629,650,669,689,709,729,749,769,789,810,830,848,868,890,908,930,950,969,989,1009,1029,1048,1070,1089,1109,1129,1149,1169,1189,1209,1229,1250,1269,1290,1309,1330,1348,1369,1389,1409,1429,1448,1470,1490,1508,1528,1549,1569,1588,1609,1628,1648,1669,1689,1710,1730,1749,1768,1789,1810,1830,1849,1869,1889,1909,1930,1948,1969,1989,2009,2030,2049,2069,2090,2109,2129],"xSR":741.5,"ySR":573.95,"xT1":424.9,"yT1":0,"xT2":1058.1,"yT2":0,"toosoon":0,"cond_shown":"Incongruent","ratio_trial":300,"L_num":4,"L_den":20,"R_num":2,"R_den":4,"correct_side":2,"subjID":"NicolásVásquez#27","gender":"0","school":"6","age":"12"},{"start_time":1551891779835,"click_time":1551891783660,"finger_time":1551891781300,"fix_duration":1373.961861526486,"trial":5,"RT":1465,"MT":2360,"sideResp":1,"stimulus":[],"xmouse":[769,769,769,769,769,769,769,769,769,769,769,769,769,769,769,769,769,769,769,769,769,770,774,780,785,789,789,789,789,789,789,789,789,789,789,789,789,789,789,790,790,790,790,790,790,790,790,790,791,791,791,791,791,791,791,791,791,790,790,790,790,790,790,790,790,790,790,790,789,787,782,773,764,753,739,688,662,643,634,634,634,634,634,632,631,624,621,615,605,598,596,596,596,596,595,602,610,621,630,632,635,638,643,646,651,656,660,666,676,688,718,735,751,765,775,785,785,785,785,786,792,794,797,800,804,810,810,810,810,810,810,810,810,810,810,810,810,810,810,810,810,810,810,810,810,810,810,810,810,810,810,810,810,811,813,818,821,823,824,824,824,824,824,824,824,824,824,824,824,824,824,825,819,809,795,758,740,719,692,672,643,629,616,607,598,581,575,569,565,556,541,518],"ymouse":[624,624,624,624,624,624,624,624,624,624,624,624,624,624,624,624,624,624,624,624,624,625,625,625,626,627,627,627,627,627,627,627,627,627,627,627,627,627,627,627,627,627,627,627,627,627,627,627,627,627,627,627,626,625,625,625,625,625,624,624,622,622,621,621,621,621,621,620,619,618,614,605,593,571,534,413,364,331,312,311,311,311,311,311,309,303,299,295,290,286,286,286,286,286,288,299,310,324,335,338,341,346,353,357,362,368,373,380,390,399,414,422,427,431,433,433,433,433,433,433,433,433,431,429,427,424,424,424,424,424,424,424,424,424,424,424,424,423,421,421,421,421,421,421,421,421,421,421,421,421,421,420,418,417,415,408,404,402,401,401,401,401,401,401,401,401,401,401,401,401,401,399,394,386,376,352,339,320,287,258,212,192,170,146,126,97,92,92,92,93,93,93],"timestamp_mouse":[10,32,44,65,86,106,124,146,166,186,206,224,246,266,284,304,325,345,365,385,405,424,445,465,485,506,526,544,565,585,606,625,645,666,684,706,724,744,764,785,806,824,844,866,886,904,924,944,966,986,1005,1024,1045,1065,1085,1105,1125,1146,1166,1185,1206,1225,1245,1264,1285,1304,1325,1345,1364,1384,1405,1425,1445,1465,1484,1505,1525,1544,1565,1585,1605,1624,1644,1665,1686,1705,1725,1746,1765,1785,1805,1824,1846,1865,1884,1904,1926,1946,1965,1985,2004,2025,2045,2065,2085,2105,2125,2145,2165,2185,2206,2225,2244,2265,2286,2305,2326,2346,2364,2385,2405,2425,2445,2466,2486,2506,2524,2544,2565,2585,2606,2625,2645,2665,2684,2704,2724,2746,2765,2785,2804,2824,2845,2865,2885,2905,2924,2945,2965,2985,3004,3025,3045,3065,3085,3105,3125,3145,3165,3185,3205,3224,3246,3265,3284,3304,3326,3344,3365,3384,3404,3425,3444,3465,3485,3505,3525,3545,3565,3585,3605,3625,3645,3666,3685,3705,3725,3745,3766,3785,3806,3825],"xSR":741.5,"ySR":573.95,"xT1":424.9,"yT1":0,"xT2":1058.1,"yT2":0,"toosoon":0,"cond_shown":"Incongruent","ratio_trial":300,"L_num":1,"L_den":2,"R_num":2,"R_den":10,"correct_side":1,"subjID":"NicolásVásquez#27","gender":"0","school":"6","age":"12"},{"start_time":1551891787402,"click_time":1551891790540,"finger_time":1551891790020,"fix_duration":1460.3252925886159,"trial":6,"RT":2618,"MT":520,"sideResp":1,"stimulus":[],"xmouse":[806,806,806,806,806,806,806,806,806,806,806,806,806,806,806,806,806,806,806,806,806,806,806,806,806,806,806,806,806,806,806,806,806,806,806,806,806,806,806,806,806,806,806,806,806,806,806,806,806,806,806,806,806,806,806,806,806,806,806,806,806,806,806,806,806,806,806,806,806,806,806,806,806,806,806,806,806,806,806,806,806,806,806,806,806,806,806,806,806,806,806,806,806,806,806,806,806,806,806,806,806,806,806,806,806,806,806,806,806,806,806,806,806,806,806,806,806,806,806,806,805,801,799,798,798,796,791,789,784,778,752,673,639,604,571,556,552,549,547,544,543,542,542,542,542,542,545,545,545,539,534,522,517,512,509,504,497],"ymouse":[650,650,650,650,650,650,650,650,650,650,650,650,650,650,650,650,650,650,650,650,650,650,650,650,650,650,650,650,650,650,650,650,650,650,650,650,650,650,650,650,650,650,650,650,650,650,650,650,650,650,650,650,650,650,650,650,650,650,650,650,650,650,650,650,650,650,650,650,650,650,650,650,650,650,650,650,650,650,650,650,650,650,650,650,650,650,650,650,650,650,650,650,650,650,650,650,650,650,650,650,650,650,650,650,650,650,650,650,650,650,650,650,650,650,650,650,650,647,643,638,634,627,625,624,622,620,612,605,596,580,529,419,379,348,325,314,310,305,301,298,295,290,285,276,262,251,234,224,214,187,168,137,125,119,112,105,92],"timestamp_mouse":[17,38,58,78,97,118,138,158,177,197,217,238,257,279,297,317,338,357,379,397,418,438,457,477,498,519,537,559,577,599,618,638,659,678,698,719,738,757,779,799,817,838,858,878,899,918,939,959,978,997,1019,1037,1059,1079,1098,1119,1137,1158,1178,1197,1217,1238,1258,1279,1298,1319,1337,1358,1378,1397,1419,1438,1457,1477,1498,1517,1539,1559,1579,1598,1619,1638,1658,1678,1698,1719,1738,1757,1779,1799,1818,1837,1859,1878,1898,1917,1939,1958,1978,1998,2019,2039,2059,2077,2099,2119,2137,2158,2178,2198,2217,2238,2258,2278,2298,2319,2339,2358,2377,2399,2418,2438,2458,2478,2499,2518,2538,2559,2578,2598,2618,2639,2658,2679,2698,2718,2737,2758,2778,2797,2818,2839,2858,2879,2899,2918,2938,2957,2977,2998,3019,3039,3058,3077,3097,3119,3138],"xSR":741.5,"ySR":573.95,"xT1":424.9,"yT1":0,"xT2":1058.1,"yT2":0,"toosoon":0,"cond_shown":"Incongruent","ratio_trial":200,"L_num":1,"L_den":3,"R_num":2,"R_den":15,"correct_side":1,"subjID":"NicolásVásquez#27","gender":"0","school":"6","age":"12"},{"start_time":1551891792353,"click_time":1551891794639,"finger_time":1551891793860,"fix_duration":811.6968120138914,"trial":7,"RT":1507,"MT":779,"sideResp":1,"stimulus":[],"xmouse":[797,797,797,797,797,797,797,797,797,797,797,797,797,797,797,797,797,797,797,797,797,797,797,797,797,797,797,797,797,797,797,797,797,797,797,797,797,797,797,797,797,797,797,797,797,797,797,797,797,797,797,797,797,797,797,797,797,797,797,797,797,797,797,797,797,797,797,796,796,795,794,793,788,782,758,734,701,663,632,601,598,597,597,597,597,597,596,596,596,596,593,591,584,575,537,518,506,504,504,501,497,495,494,494,495,495,495,492,489,487,487,485,485,485,487],"ymouse":[652,652,652,652,652,652,652,652,652,652,652,652,652,652,652,652,652,652,652,652,652,652,652,652,652,652,652,652,652,652,652,652,652,652,652,652,652,652,652,652,652,652,652,652,652,652,652,652,652,652,652,652,652,652,652,652,652,652,652,652,652,652,652,652,652,652,652,651,650,647,644,640,630,618,578,545,498,452,415,379,373,372,372,372,372,371,371,371,371,369,359,344,316,295,255,240,228,217,215,211,209,207,203,196,187,182,177,169,162,152,148,138,127,109,83],"timestamp_mouse":[6,33,48,68,87,107,127,147,168,188,207,227,246,268,288,307,327,346,367,387,407,427,447,467,487,506,527,546,568,587,606,628,646,666,687,707,727,747,768,788,807,827,848,868,887,907,928,946,968,986,1006,1027,1048,1067,1087,1106,1128,1146,1168,1187,1207,1227,1246,1268,1287,1307,1328,1346,1367,1387,1407,1427,1448,1467,1487,1507,1527,1547,1567,1586,1607,1628,1646,1667,1687,1707,1727,1746,1766,1786,1807,1827,1848,1867,1887,1907,1927,1947,1968,1987,2006,2028,2047,2067,2086,2107,2127,2147,2167,2187,2206,2226,2247,2266,2286],"xSR":741.5,"ySR":573.95,"xT1":424.9,"yT1":0,"xT2":1058.1,"yT2":0,"toosoon":0,"cond_shown":"Incongruent","ratio_trial":200,"L_num":14,"L_den":30,"R_num":6,"R_den":9,"correct_side":2,"subjID":"NicolásVásquez#27","gender":"0","school":"6","age":"12"},{"start_time":1551891799694,"click_time":1551891802019,"finger_time":1551891801619,"fix_duration":352.4077445244532,"trial":8,"RT":1925,"MT":400,"sideResp":2,"stimulus":[],"xmouse":[780,780,780,780,780,780,780,780,780,780,780,780,780,780,780,780,780,780,780,780,780,780,780,780,780,780,780,780,780,780,780,780,780,780,780,780,780,780,780,780,780,780,780,780,780,780,780,780,780,780,780,780,780,780,780,780,780,780,780,780,780,780,780,780,780,780,780,780,780,780,780,780,780,780,780,780,780,780,780,780,780,780,780,780,780,780,780,780,780,780,780,780,781,786,794,804,813,825,840,858,877,910,921,932,950,958,987,1027,1045,1056,1060,1066,1082,1087,1090,1090,1091],"ymouse":[663,663,663,665,665,665,665,665,665,666,666,666,666,666,666,666,666,666,666,666,666,666,666,666,666,666,666,666,666,666,666,666,666,666,666,666,666,666,666,666,666,666,666,666,666,666,666,666,666,666,666,666,666,666,666,666,666,666,666,666,666,666,666,666,666,666,666,666,666,666,666,666,666,666,666,666,666,666,666,666,666,666,666,666,666,666,666,666,666,666,666,665,661,651,630,592,537,485,450,409,366,295,271,248,223,217,205,194,189,181,167,150,118,107,102,101,99],"timestamp_mouse":[8,36,46,66,85,106,126,147,166,186,205,225,246,266,286,306,325,345,366,387,406,427,447,466,485,505,525,546,567,585,607,625,647,665,686,706,725,746,766,787,805,827,845,865,885,906,926,946,965,985,1005,1026,1046,1067,1086,1105,1125,1147,1166,1186,1206,1227,1246,1265,1287,1305,1327,1346,1367,1387,1406,1427,1447,1467,1486,1506,1525,1545,1565,1585,1607,1627,1647,1666,1687,1707,1726,1746,1766,1786,1806,1826,1846,1866,1887,1907,1925,1946,1966,1986,2006,2027,2046,2065,2085,2106,2126,2146,2166,2186,2206,2225,2246,2267,2286,2306,2325],"xSR":741.5,"ySR":573.95,"xT1":424.9,"yT1":0,"xT2":1058.1,"yT2":0,"toosoon":0,"cond_shown":"Incongruent","ratio_trial":100,"L_num":2,"L_den":4,"R_num":6,"R_den":15,"correct_side":1,"subjID":"NicolásVásquez#27","gender":"0","school":"6","age":"12"},{"start_time":1551891803563,"click_time":1551891805221,"finger_time":1551891805040,"fix_duration":461.59533705562717,"trial":9,"RT":1477,"MT":181,"sideResp":1,"stimulus":[],"xmouse":[815,815,815,815,815,815,815,815,815,815,815,815,815,815,815,815,815,815,815,815,815,815,815,815,815,815,815,815,815,815,815,815,815,815,815,815,815,815,815,815,815,815,815,815,815,815,815,815,815,815,815,815,815,815,815,815,815,815,815,815,815,815,815,815,815,815,815,815,815,815,815,815,815,815,815,804,780,703,658,617,578,545,495],"ymouse":[583,583,583,583,583,583,583,583,583,583,583,583,583,583,583,583,583,583,583,583,583,583,583,583,583,583,583,583,583,583,583,583,583,583,583,583,583,583,583,583,583,583,583,583,583,583,583,583,583,583,583,583,583,583,583,583,583,583,583,583,583,583,583,583,583,583,583,583,583,583,583,583,583,556,528,486,435,325,280,234,182,121,13],"timestamp_mouse":[17,38,57,77,97,117,138,158,178,197,218,237,256,277,296,316,338,357,377,397,417,436,458,476,497,517,538,556,578,597,616,637,656,677,696,717,736,757,776,797,816,838,856,877,896,918,937,957,978,997,1017,1037,1056,1077,1097,1116,1138,1156,1177,1197,1217,1238,1256,1276,1297,1316,1338,1356,1377,1397,1416,1436,1457,1477,1497,1516,1538,1558,1577,1598,1617,1638,1657],"xSR":741.5,"ySR":573.95,"xT1":424.9,"yT1":0,"xT2":1058.1,"yT2":0,"toosoon":0,"cond_shown":"Congruent","ratio_trial":300,"L_num":5,"L_den":25,"R_num":6,"R_den":12,"correct_side":2,"subjID":"NicolásVásquez#27","gender":"0","school":"6","age":"12"},{"start_time":1551891807382,"click_time":1551891808500,"finger_time":1551891808160,"fix_duration":1101.0145757200935,"trial":10,"RT":778,"MT":340,"sideResp":1,"stimulus":[],"xmouse":[794,794,794,794,794,794,794,794,794,794,794,794,794,794,794,794,794,794,794,794,794,794,794,794,794,794,794,794,794,794,794,794,794,794,792,790,786,774,767,758,745,733,705,686,660,640,623,601,594,589,582,579,563,552,541,521],"ymouse":[631,631,631,631,631,631,631,631,631,631,631,631,631,631,631,631,631,631,631,631,631,631,631,631,631,631,631,631,631,631,631,631,631,631,628,625,614,579,558,534,502,479,398,333,269,223,185,133,120,113,104,97,77,66,61,55],"timestamp_mouse":[17,42,58,77,98,118,137,157,178,198,217,238,258,277,299,318,338,359,377,397,418,437,458,477,498,517,539,558,578,599,617,637,657,677,697,719,738,758,778,798,818,838,858,878,899,918,938,958,979,999,1018,1038,1058,1078,1098,1118],"xSR":741.5,"ySR":573.95,"xT1":424.9,"yT1":0,"xT2":1058.1,"yT2":0,"toosoon":0,"cond_shown":"Congruent","ratio_trial":300,"L_num":24,"L_den":30,"R_num":8,"R_den":16,"correct_side":1,"subjID":"NicolásVásquez#27","gender":"0","school":"6","age":"12"},{"start_time":1551891809782,"click_time":1551891811659,"finger_time":1551891810820,"fix_duration":420.3825648196565,"trial":11,"RT":1038,"MT":839,"sideResp":1,"stimulus":[],"xmouse":[788,787,787,787,787,787,787,787,787,787,787,787,787,787,787,787,787,787,787,787,787,787,787,787,787,787,787,787,787,787,787,787,787,787,787,787,787,787,787,787,787,787,787,787,787,787,787,787,787,786,774,740,646,591,533,477,450,440,440,440,442,447,472,490,501,511,515,522,523,523,523,523,521,519,519,517,516,516,516,516,517,521,541,547,549,549,549,534,519,492,467,439,431,431],"ymouse":[644,643,643,643,643,643,643,643,643,643,643,643,643,643,643,643,643,643,643,643,643,643,643,643,643,643,643,643,643,643,643,643,643,643,643,643,643,643,643,643,643,643,643,643,643,643,643,643,643,643,630,604,525,490,455,423,403,372,362,352,349,342,314,297,282,267,254,222,212,207,204,200,178,168,165,161,156,141,136,133,131,126,95,83,74,68,63,23,0,0,0,0,0,4],"timestamp_mouse":[18,38,58,77,98,118,139,158,178,197,218,239,258,279,298,317,339,357,378,399,417,438,458,478,498,519,537,557,578,598,618,637,657,677,699,717,737,758,778,798,817,838,857,878,898,917,937,957,977,998,1017,1038,1057,1078,1098,1118,1138,1158,1178,1198,1219,1238,1257,1277,1298,1318,1337,1358,1378,1398,1419,1439,1458,1478,1499,1519,1538,1557,1578,1597,1618,1639,1658,1678,1698,1718,1739,1758,1778,1798,1817,1837,1858,1877],"xSR":741.5,"ySR":573.95,"xT1":424.9,"yT1":0,"xT2":1058.1,"yT2":0,"toosoon":0,"cond_shown":"Incongruent","ratio_trial":300,"L_num":4,"L_den":5,"R_num":6,"R_den":12,"correct_side":1,"subjID":"NicolásVásquez#27","gender":"0","school":"6","age":"12"},{"start_time":1551891813384,"click_time":1551891814881,"finger_time":1551891814360,"fix_duration":282.2218177520239,"trial":12,"RT":976,"MT":521,"sideResp":1,"stimulus":[],"xmouse":[828,828,828,828,828,828,828,828,828,828,828,828,828,828,828,828,828,828,828,828,828,828,828,828,828,828,828,828,828,828,828,828,828,828,828,828,828,828,828,828,828,828,828,828,828,828,828,831,851,898,917,924,867,811,776,758,734,680,665,651,624,609,575,561,557,554,551,541,535,529,522,516,507,500,492],"ymouse":[657,658,658,658,658,658,658,658,658,658,658,658,658,658,658,658,658,658,658,658,658,658,658,658,658,658,658,658,658,658,658,658,658,658,658,658,658,658,658,658,658,658,658,658,658,658,658,658,665,679,680,677,615,536,466,418,375,309,285,266,234,204,128,91,63,39,22,5,0,0,0,0,0,0,3],"timestamp_mouse":[15,36,55,76,97,115,137,156,176,196,216,237,256,276,297,317,337,355,375,396,417,435,455,476,497,516,536,557,576,596,616,635,656,676,696,715,737,757,776,796,815,836,856,875,895,916,936,955,976,996,1017,1036,1055,1076,1095,1116,1137,1156,1176,1195,1217,1236,1257,1276,1295,1315,1336,1356,1376,1396,1415,1435,1456,1476,1497],"xSR":741.5,"ySR":573.95,"xT1":424.9,"yT1":0,"xT2":1058.1,"yT2":0,"toosoon":0,"cond_shown":"Incongruent","ratio_trial":300,"L_num":8,"L_den":10,"R_num":14,"R_den":28,"correct_side":1,"subjID":"NicolásVásquez#27","gender":"0","school":"6","age":"12"},{"start_time":1551891817330,"click_time":1551891819140,"finger_time":1551891818800,"fix_duration":688.4847893948477,"trial":13,"RT":1470,"MT":340,"sideResp":1,"stimulus":[],"xmouse":[814,814,814,814,814,814,814,814,814,814,814,814,814,814,814,814,814,814,814,814,814,814,814,814,814,814,814,814,814,814,814,814,814,814,814,814,814,814,814,814,814,814,814,814,814,814,814,814,814,814,814,814,814,814,814,814,814,814,814,814,814,814,814,814,814,814,814,814,814,814,814,814,814,799,769,680,633,603,594,591,585,585,584,584,583,579,576,570,563,552,523],"ymouse":[617,617,617,617,617,617,617,617,617,617,617,617,617,617,617,617,617,617,617,617,617,617,617,617,617,617,617,617,617,617,617,617,617,617,617,617,617,617,617,617,617,617,617,617,617,617,617,617,617,617,617,617,617,617,617,617,617,617,617,617,617,617,617,617,617,616,615,615,614,612,606,599,584,534,469,315,237,186,161,144,129,128,128,127,125,119,112,103,92,80,49],"timestamp_mouse":[11,38,50,70,90,111,130,150,169,190,210,230,249,270,289,309,330,349,369,390,409,429,449,471,491,509,530,550,569,591,610,630,650,669,689,710,730,749,770,791,811,829,851,870,889,909,930,950,969,989,1011,1030,1049,1069,1090,1109,1130,1149,1171,1189,1210,1229,1250,1270,1291,1310,1330,1351,1370,1391,1410,1430,1451,1470,1490,1510,1530,1550,1569,1591,1609,1630,1650,1671,1690,1709,1729,1750,1770,1791,1810],"xSR":741.5,"ySR":573.95,"xT1":424.9,"yT1":0,"xT2":1058.1,"yT2":0,"toosoon":0,"cond_shown":"Congruent","ratio_trial":200,"L_num":14,"L_den":28,"R_num":6,"R_den":20,"correct_side":1,"subjID":"NicolásVásquez#27","gender":"0","school":"6","age":"12"},{"start_time":1551891820844,"click_time":1551891822860,"finger_time":1551891821780,"fix_duration":822.5615837953706,"trial":14,"RT":936,"MT":1080,"sideResp":2,"stimulus":[],"xmouse":[808,808,808,808,808,808,808,808,808,808,808,808,807,807,807,807,807,807,807,807,807,807,807,807,807,807,807,807,807,807,807,807,807,808,811,813,815,816,817,817,817,817,817,817,817,819,825,838,851,872,874,874,874,874,874,874,874,874,874,875,875,875,873,873,871,871,871,871,871,871,871,871,871,871,871,871,869,869,864,854,846,836,817,794,760,752,749,747,747,747,747,748,756,774,844,889,934,991,1025,1065,1075],"ymouse":[609,609,609,609,609,609,609,609,609,609,609,609,609,608,606,605,605,605,605,605,605,605,603,602,602,602,602,602,602,602,602,599,598,594,590,588,586,586,585,585,585,585,585,585,585,581,572,553,537,511,508,508,508,508,508,508,508,508,508,508,511,513,515,516,518,518,518,518,518,518,518,518,518,518,518,518,520,521,524,529,531,534,539,546,558,561,564,565,565,565,565,562,547,520,417,361,301,221,174,107,86],"timestamp_mouse":[27,36,56,76,95,116,136,155,177,196,215,237,256,276,296,316,336,355,377,396,416,437,456,476,497,516,536,555,577,595,616,635,655,676,696,715,736,756,775,797,815,837,856,875,897,916,936,956,975,996,1016,1036,1057,1077,1097,1116,1135,1155,1176,1196,1215,1236,1256,1275,1296,1316,1336,1356,1376,1396,1415,1436,1457,1476,1496,1516,1536,1555,1576,1596,1616,1635,1655,1676,1696,1716,1736,1755,1776,1796,1816,1837,1856,1876,1896,1916,1936,1956,1976,1996,2016],"xSR":741.5,"ySR":573.95,"xT1":424.9,"yT1":0,"xT2":1058.1,"yT2":0,"toosoon":0,"cond_shown":"Incongruent","ratio_trial":300,"L_num":4,"L_den":20,"R_num":2,"R_den":4,"correct_side":2,"subjID":"NicolásVásquez#27","gender":"0","school":"6","age":"12"},{"start_time":1551891824040,"click_time":1551891825440,"finger_time":1551891825060,"fix_duration":259.9678936429467,"trial":15,"RT":1020,"MT":380,"sideResp":1,"stimulus":[],"xmouse":[808,808,808,808,808,808,808,808,808,808,808,808,808,808,808,808,808,808,808,808,808,808,808,808,808,808,808,808,808,808,808,808,808,808,808,808,808,808,808,808,808,808,808,808,808,808,808,808,808,808,808,808,801,790,775,751,745,743,742,739,729,726,723,718,713,682,656,627,595,538,479],"ymouse":[603,603,603,603,603,603,603,603,603,603,603,603,603,603,603,603,603,603,603,603,603,603,603,603,603,603,603,603,603,603,603,603,603,603,603,603,603,603,603,603,603,603,603,603,603,603,603,603,603,602,590,572,552,534,516,482,468,449,427,396,363,354,345,335,323,280,250,215,182,136,86],"timestamp_mouse":[1,19,39,60,79,99,121,140,160,180,200,221,240,259,280,300,320,341,359,379,400,420,440,460,479,500,521,540,560,580,599,620,641,659,679,701,721,741,759,780,799,819,841,860,879,900,921,940,960,980,1000,1020,1040,1060,1079,1100,1120,1140,1160,1180,1200,1221,1241,1260,1280,1299,1321,1340,1359,1380,1399],"xSR":741.5,"ySR":573.95,"xT1":424.9,"yT1":0,"xT2":1058.1,"yT2":0,"toosoon":0,"cond_shown":"Incongruent","ratio_trial":100,"L_num":13,"L_den":26,"R_num":12,"R_den":20,"correct_side":2,"subjID":"NicolásVásquez#27","gender":"0","school":"6","age":"12"},{"start_time":1551891827248,"click_time":1551891828639,"finger_time":1551891828240,"fix_duration":966.4126072249614,"trial":16,"RT":992,"MT":399,"sideResp":1,"stimulus":[],"xmouse":[790,790,790,790,790,790,790,790,790,790,790,790,790,790,790,790,790,792,793,794,794,794,794,794,794,794,794,794,794,794,794,794,794,794,794,794,794,794,794,794,794,794,794,794,789,784,776,761,752,724,705,676,648,614,566,559,558,558,558,557,557,556,554,550,536,522,505,490,475,448],"ymouse":[636,636,636,636,636,636,636,636,636,636,636,636,636,636,636,636,636,636,636,636,636,636,636,636,636,636,636,636,636,636,636,636,636,636,636,636,636,636,636,636,636,635,634,633,630,627,623,614,606,566,531,476,409,343,259,241,229,222,220,217,216,214,210,201,175,158,141,125,108,72],"timestamp_mouse":[13,35,53,72,92,111,133,153,172,192,211,232,251,272,292,313,332,351,373,392,412,431,453,472,493,512,531,553,573,592,612,631,652,673,692,712,732,752,773,792,813,832,852,872,892,913,932,951,973,992,1012,1032,1052,1072,1092,1113,1132,1151,1172,1192,1212,1232,1252,1272,1291,1311,1332,1353,1372,1391],"xSR":741.5,"ySR":573.95,"xT1":424.9,"yT1":0,"xT2":1058.1,"yT2":0,"toosoon":0,"cond_shown":"Incongruent","ratio_trial":100,"L_num":3,"L_den":5,"R_num":11,"R_den":22,"correct_side":1,"subjID":"NicolásVásquez#27","gender":"0","school":"6","age":"12"},{"start_time":1551891830782,"click_time":1551891833080,"finger_time":1551891832020,"fix_duration":1201.8529733628209,"trial":17,"RT":1238,"MT":1060,"sideResp":1,"stimulus":[],"xmouse":[781,781,781,781,781,781,781,781,781,781,781,781,781,781,781,781,781,781,781,781,781,781,781,781,781,781,781,781,781,781,781,781,781,781,781,781,781,781,781,781,781,781,781,781,781,781,781,781,781,781,781,781,781,781,781,781,781,781,781,781,781,781,781,781,781,781,781,781,781,781,781,781,781,781,781,781,781,781,781,781,781,781,781,781,781,781,781,781,781,781,781,781,781,781,781,781,781,781,781,781,779,775,764,754,743,732,717,687,666,644,624,597,557,540,523],"ymouse":[672,672,672,672,672,672,672,672,672,672,672,672,672,672,672,672,672,672,672,672,672,672,672,672,672,672,672,672,672,672,672,672,672,672,672,672,672,672,672,672,672,672,672,672,672,672,672,672,672,672,672,672,672,672,672,672,672,672,672,672,673,674,675,675,675,675,675,675,675,675,675,675,675,675,675,675,675,675,675,676,676,676,676,676,676,676,676,676,676,676,676,676,676,676,676,676,676,676,676,676,674,666,629,597,559,518,464,355,302,255,216,167,98,64,29],"timestamp_mouse":[19,37,58,78,97,119,139,157,177,198,218,239,258,278,298,318,338,357,379,397,418,438,458,478,498,519,539,558,577,598,618,639,658,677,698,718,737,758,779,797,819,837,857,879,899,918,939,958,979,997,1018,1039,1057,1079,1098,1119,1138,1158,1178,1198,1217,1238,1259,1277,1298,1318,1338,1358,1378,1397,1417,1439,1457,1478,1498,1517,1538,1558,1579,1598,1618,1638,1658,1679,1699,1718,1737,1758,1778,1797,1817,1838,1858,1879,1897,1917,1939,1959,1978,1997,2017,2038,2059,2078,2099,2119,2139,2158,2178,2198,2217,2237,2257,2277,2298],"xSR":741.5,"ySR":573.95,"xT1":424.9,"yT1":0,"xT2":1058.1,"yT2":0,"toosoon":0,"cond_shown":"Incongruent","ratio_trial":100,"L_num":6,"L_den":10,"R_num":7,"R_den":14,"correct_side":1,"subjID":"NicolásVásquez#27","gender":"0","school":"6","age":"12"},{"start_time":1551891834972,"click_time":1551891836440,"finger_time":1551891835460,"fix_duration":929.5851632475212,"trial":18,"RT":488,"MT":980,"sideResp":2,"stimulus":[],"xmouse":[793,793,793,793,793,793,793,793,793,793,793,793,793,793,793,793,793,793,793,793,793,793,795,840,844,844,844,844,844,843,842,842,845,842,835,831,831,831,830,827,825,816,811,809,806,802,798,796,793,793,793,792,788,800,826,859,894,944,1024,1039,1049,1056,1060,1094,1126,1145,1162,1173,1174,1174,1174,1174,1169,1156],"ymouse":[637,637,637,637,637,637,637,637,637,637,637,637,637,637,637,637,637,637,637,637,637,637,637,639,639,639,639,639,639,641,649,662,677,693,698,701,701,701,701,700,700,698,698,697,693,686,681,678,674,673,670,654,623,486,399,308,233,152,37,16,1,0,0,0,0,0,0,0,0,0,0,2,5,16],"timestamp_mouse":[7,29,48,67,87,108,129,147,168,187,209,228,249,269,288,307,327,349,367,388,409,428,449,468,488,508,528,549,568,588,607,628,649,668,688,709,728,747,767,788,808,829,848,868,887,907,929,948,968,988,1009,1028,1049,1068,1088,1108,1129,1149,1168,1189,1208,1228,1248,1268,1288,1307,1327,1347,1367,1388,1407,1427,1448,1467],"xSR":741.5,"ySR":573.95,"xT1":424.9,"yT1":0,"xT2":1058.1,"yT2":0,"toosoon":0,"cond_shown":"Congruent","ratio_trial":200,"L_num":3,"L_den":10,"R_num":11,"R_den":22,"correct_side":2,"subjID":"NicolásVásquez#27","gender":"0","school":"6","age":"12"},{"start_time":1551891837711,"click_time":1551891838839,"finger_time":1551891838559,"fix_duration":250,"trial":19,"RT":848,"MT":280,"sideResp":2,"stimulus":[],"xmouse":[832,832,832,832,832,832,832,832,832,832,832,832,832,832,832,832,832,832,832,832,832,832,832,832,832,832,832,832,832,832,832,832,832,832,832,832,833,834,834,834,834,837,844,853,862,867,871,871,873,877,887,931,961,991,1021,1042,1085],"ymouse":[592,592,592,592,592,592,592,592,592,592,592,592,592,592,592,592,592,592,592,592,592,592,592,592,592,592,592,592,592,592,592,592,592,592,592,592,589,588,588,588,588,585,580,572,557,546,535,534,532,518,481,344,279,226,160,121,51],"timestamp_mouse":[18,30,50,69,90,109,129,149,169,190,209,229,249,268,289,308,330,348,369,389,409,428,449,469,490,509,528,549,570,589,609,630,649,668,689,708,729,749,768,789,810,829,848,869,889,908,929,949,970,989,1009,1028,1049,1069,1088,1108,1128],"xSR":741.5,"ySR":573.95,"xT1":424.9,"yT1":0,"xT2":1058.1,"yT2":0,"toosoon":0,"cond_shown":"Congruent","ratio_trial":200,"L_num":3,"L_den":10,"R_num":7,"R_den":14,"correct_side":2,"subjID":"NicolásVásquez#27","gender":"0","school":"6","age":"12"},{"start_time":1551891840102,"click_time":1551891841400,"finger_time":1551891841139,"fix_duration":340.7370511111103,"trial":20,"RT":1037,"MT":261,"sideResp":2,"stimulus":[],"xmouse":[771,771,771,771,771,771,771,771,771,771,771,771,771,772,772,772,772,772,772,772,772,772,772,772,772,772,772,772,773,774,774,775,775,775,775,775,775,775,775,775,776,776,776,776,776,776,776,778,782,786,791,825,843,862,889,898,915,930,950,967,980,1002,1018,1043,1111],"ymouse":[617,617,617,617,617,617,617,617,617,617,617,617,617,617,617,617,617,617,617,617,617,617,617,617,617,617,617,617,616,616,615,614,614,614,614,614,614,614,614,613,612,612,612,612,612,612,611,609,605,602,597,566,534,496,428,392,335,296,252,221,203,171,146,108,35],"timestamp_mouse":[18,39,58,79,97,118,137,159,177,199,219,239,259,278,307,318,337,359,379,398,417,439,458,479,497,518,538,559,578,599,618,639,658,678,698,718,738,758,777,798,818,838,857,879,899,917,938,957,978,999,1019,1037,1058,1079,1098,1119,1139,1158,1177,1199,1218,1237,1259,1278,1298],"xSR":741.5,"ySR":573.95,"xT1":424.9,"yT1":0,"xT2":1058.1,"yT2":0,"toosoon":0,"cond_shown":"Incongruent","ratio_trial":100,"L_num":6,"L_den":10,"R_num":13,"R_den":26,"correct_side":1,"subjID":"NicolásVásquez#27","gender":"0","school":"6","age":"12"},{"start_time":1551891843532,"click_time":1551891847281,"finger_time":1551891844259,"fix_duration":1111.5164575614597,"trial":21,"RT":727,"MT":3022,"sideResp":2,"stimulus":[],"xmouse":[806,806,806,806,806,806,806,806,806,806,806,806,806,806,806,806,806,806,806,806,807,807,807,807,807,807,807,807,808,809,810,810,810,810,810,810,810,810,810,810,810,810,810,810,810,810,810,810,810,810,810,810,810,813,820,827,828,828,828,828,828,828,828,828,828,828,828,828,827,827,825,821,817,812,811,809,809,807,805,803,800,797,793,787,782,771,767,760,752,744,726,722,721,721,721,721,721,721,721,721,721,721,721,721,721,721,721,721,721,721,721,721,721,721,721,722,722,722,723,723,727,730,735,736,737,738,738,738,738,738,738,738,738,738,738,738,738,738,738,739,740,741,742,742,743,750,754,763,773,790,796,801,806,817,842,933,989,1024,1047,1053,1057,1057,1057,1057,1055,1050,1050,1050,1051,1055,1062,1065,1069,1074,1080,1084,1085,1087,1087,1087,1087,1087,1088,1088,1088,1089,1093,1097],"ymouse":[606,606,606,606,606,606,606,606,606,606,606,606,606,606,605,605,605,605,605,604,603,603,603,603,603,603,603,599,594,590,582,580,579,578,577,574,573,573,571,569,565,562,562,562,562,562,562,562,562,562,562,562,561,557,552,548,546,546,546,546,546,546,546,546,546,546,546,547,548,548,549,552,555,559,559,560,560,560,560,560,560,559,556,551,547,535,527,515,503,489,468,465,465,465,465,465,465,465,465,465,465,465,465,465,465,465,465,465,465,465,465,465,464,463,463,463,463,463,463,463,463,462,462,462,462,462,462,462,462,462,462,462,462,462,462,462,462,462,462,462,460,460,460,459,459,456,455,452,449,444,441,439,436,430,422,395,375,361,349,343,333,331,327,322,317,288,267,240,216,196,165,155,142,130,121,111,107,106,106,105,105,105,104,104,104,104,101,96],"timestamp_mouse":[11,27,47,69,89,108,129,147,168,188,208,229,248,268,288,307,328,347,369,387,407,429,449,468,488,508,527,547,569,587,608,628,647,668,688,707,727,749,768,789,808,828,847,868,889,908,928,947,967,989,1008,1029,1048,1069,1089,1108,1129,1148,1168,1189,1209,1229,1247,1268,1287,1308,1328,1349,1369,1388,1407,1427,1448,1469,1488,1507,1528,1548,1568,1589,1608,1627,1648,1668,1687,1708,1727,1748,1769,1789,1807,1827,1847,1869,1888,1908,1928,1947,1967,1989,2008,2028,2047,2068,2088,2109,2127,2148,2168,2187,2209,2229,2247,2268,2288,2309,2327,2348,2369,2388,2408,2429,2448,2468,2487,2508,2529,2547,2568,2588,2608,2628,2647,2667,2689,2707,2728,2748,2768,2788,2808,2828,2847,2868,2888,2908,2927,2948,2968,2989,3007,3028,3048,3069,3088,3108,3128,3148,3167,3187,3207,3228,3248,3267,3288,3307,3328,3348,3369,3388,3407,3429,3447,3469,3488,3507,3528,3548,3568,3588,3607,3628,3648,3667,3688,3708,3728,3748],"xSR":741.5,"ySR":573.95,"xT1":424.9,"yT1":0,"xT2":1058.1,"yT2":0,"toosoon":0,"cond_shown":"Incongruent","ratio_trial":100,"L_num":12,"L_den":30,"R_num":2,"R_den":4,"correct_side":2,"subjID":"NicolásVásquez#27","gender":"0","school":"6","age":"12"},{"start_time":1551891849500,"click_time":1551891852521,"finger_time":1551891851380,"fix_duration":1159.8601805054166,"trial":22,"RT":1880,"MT":1141,"sideResp":1,"stimulus":[],"xmouse":[809,809,809,809,809,809,809,809,809,809,809,809,809,809,809,809,809,809,809,809,809,809,809,809,809,809,809,809,809,809,809,809,809,809,809,809,809,809,809,809,809,809,809,809,809,809,809,809,809,809,809,809,809,809,809,809,809,809,809,809,809,809,809,809,809,809,809,809,809,809,809,809,809,809,810,811,811,811,811,811,811,811,812,813,813,814,814,815,815,815,815,815,813,810,808,807,807,805,805,805,804,804,801,799,798,796,795,795,795,795,795,795,795,795,795,795,795,795,795,795,795,795,795,795,795,795,795,795,795,795,795,794,792,790,786,773,759,709,671,630,591,565,536,532,525,505,472,461,461,464,468,475],"ymouse":[594,594,594,594,594,594,594,594,594,594,594,594,594,594,594,594,594,594,594,594,594,594,594,594,594,594,594,594,594,594,594,594,594,594,594,594,594,594,594,594,594,594,594,594,594,594,594,594,594,594,594,594,594,594,594,594,594,594,594,594,594,594,594,594,594,594,594,594,594,594,594,594,594,594,594,594,594,594,594,594,594,594,594,594,594,594,594,594,593,591,589,587,581,576,572,571,569,564,563,562,561,558,554,552,550,548,547,547,547,547,547,547,547,547,547,547,547,547,547,547,547,547,547,547,547,547,547,547,547,547,547,546,544,541,535,517,501,448,416,387,359,340,316,294,256,210,159,139,132,125,116,91],"timestamp_mouse":[1,21,41,60,80,100,119,140,160,181,199,220,240,259,281,299,319,341,361,380,400,420,439,459,480,499,520,540,560,579,599,619,639,660,680,700,720,739,759,781,800,820,841,860,879,901,920,940,961,979,1000,1021,1040,1061,1080,1099,1120,1140,1161,1179,1199,1221,1239,1261,1279,1300,1320,1339,1360,1381,1399,1420,1439,1460,1479,1500,1521,1539,1561,1580,1599,1620,1640,1660,1679,1700,1719,1741,1760,1780,1800,1821,1840,1860,1880,1901,1920,1941,1959,1980,2001,2021,2039,2060,2080,2100,2121,2139,2160,2181,2200,2219,2241,2260,2280,2300,2320,2339,2359,2380,2401,2421,2439,2460,2480,2501,2519,2539,2561,2581,2600,2620,2639,2660,2680,2700,2719,2740,2760,2780,2800,2821,2839,2860,2880,2900,2920,2941,2960,2981,2999,3021],"xSR":741.5,"ySR":573.95,"xT1":424.9,"yT1":0,"xT2":1058.1,"yT2":0,"toosoon":0,"cond_shown":"Incongruent","ratio_trial":300,"L_num":1,"L_den":2,"R_num":2,"R_den":10,"correct_side":1,"subjID":"NicolásVásquez#27","gender":"0","school":"6","age":"12"},{"start_time":1551891855012,"click_time":1551891856820,"finger_time":1551891856481,"fix_duration":250,"trial":23,"RT":1469,"MT":339,"sideResp":1,"stimulus":[],"xmouse":[788,788,788,788,788,788,788,788,788,788,788,788,788,788,788,788,788,788,788,788,788,788,788,788,788,788,788,788,788,788,788,788,788,788,788,788,788,788,788,788,788,788,788,788,788,788,788,788,788,788,788,788,788,788,788,788,788,788,788,788,788,788,788,788,788,788,788,787,786,785,782,773,763,748,727,691,587,561,556,554,554,554,554,551,547,543,541,540,539,530,513],"ymouse":[651,651,651,651,651,651,651,651,651,651,651,651,651,651,651,651,651,651,651,651,651,651,651,651,651,651,651,651,651,651,651,651,651,651,651,651,651,651,651,651,651,651,651,651,651,651,651,651,651,651,651,651,651,651,651,651,651,651,651,651,651,651,651,651,651,651,651,648,647,640,634,608,590,564,510,424,233,168,144,125,105,92,85,79,72,66,57,56,54,51,47],"timestamp_mouse":[7,28,47,67,87,108,129,147,167,187,208,228,249,267,287,309,329,347,367,388,408,427,449,467,488,508,529,549,568,588,609,628,648,667,688,708,729,747,768,788,808,827,848,869,887,907,929,947,967,987,1007,1028,1048,1068,1089,1108,1128,1148,1168,1189,1207,1228,1248,1269,1288,1307,1329,1348,1367,1387,1409,1428,1447,1469,1488,1508,1527,1549,1567,1589,1608,1628,1647,1669,1689,1708,1728,1749,1768,1787,1807],"xSR":741.5,"ySR":573.95,"xT1":424.9,"yT1":0,"xT2":1058.1,"yT2":0,"toosoon":0,"cond_shown":"Congruent","ratio_trial":200,"L_num":15,"L_den":25,"R_num":4,"R_den":10,"correct_side":1,"subjID":"NicolásVásquez#27","gender":"0","school":"6","age":"12"},{"start_time":1551891858211,"click_time":1551891859439,"finger_time":1551891858899,"fix_duration":490.99031652981415,"trial":24,"RT":688,"MT":540,"sideResp":1,"stimulus":[],"xmouse":[762,762,762,762,762,762,762,762,762,762,762,763,763,763,763,763,763,763,763,763,763,763,763,763,763,763,763,763,763,763,763,763,762,757,751,735,705,683,671,665,665,661,658,655,655,664,660,654,641,621,588,542,516,490,471,462,461,461,461,462,465,472],"ymouse":[641,641,641,641,641,641,641,641,641,641,641,641,642,642,642,642,642,642,642,642,642,642,642,642,642,642,642,642,642,642,642,637,620,590,541,474,348,296,277,270,269,260,248,227,202,163,155,148,142,136,126,119,119,119,117,114,110,109,107,105,101,96],"timestamp_mouse":[8,29,49,68,90,109,129,150,170,189,210,229,249,270,288,310,328,349,369,388,410,428,448,470,489,508,528,550,569,588,608,628,649,670,688,709,729,748,769,788,808,828,849,869,889,910,928,949,970,989,1009,1030,1049,1069,1088,1109,1129,1148,1168,1189,1209,1228],"xSR":741.5,"ySR":573.95,"xT1":424.9,"yT1":0,"xT2":1058.1,"yT2":0,"toosoon":0,"cond_shown":"Congruent","ratio_trial":200,"L_num":21,"L_den":30,"R_num":2,"R_den":4,"correct_side":1,"subjID":"NicolásVásquez#27","gender":"0","school":"6","age":"12"},{"start_time":1551891862393,"click_time":1551891864320,"finger_time":1551891864041,"fix_duration":1493.6667212149137,"trial":25,"RT":1648,"MT":279,"sideResp":1,"stimulus":[],"xmouse":[767,767,767,767,767,767,767,767,767,767,767,767,767,767,767,767,767,767,767,767,767,767,767,767,767,767,767,767,767,767,767,767,767,767,767,767,767,767,767,767,767,767,767,767,767,767,767,773,779,782,784,785,786,787,787,787,787,787,787,787,787,787,787,787,787,787,787,787,787,787,787,787,787,787,787,787,787,787,787,787,787,787,787,787,787,788,788,788,788,788,785,780,706,650,583,519,464],"ymouse":[604,603,602,602,601,601,600,600,600,600,600,600,600,600,599,599,599,599,599,599,599,599,599,599,599,599,599,599,599,599,599,599,599,599,599,599,599,599,599,599,599,599,599,599,599,598,597,592,588,585,582,580,576,574,574,574,574,574,574,574,574,574,574,574,574,574,574,574,574,574,574,574,574,574,574,574,574,574,574,574,574,574,572,571,569,567,566,564,562,560,552,544,434,358,255,153,44],"timestamp_mouse":[9,30,48,68,88,107,127,146,167,188,208,227,247,267,286,307,327,347,368,387,408,427,447,467,488,508,528,547,566,588,608,627,648,666,688,708,727,746,766,788,808,828,846,866,886,907,927,946,968,986,1007,1027,1046,1067,1088,1107,1126,1146,1168,1186,1208,1228,1246,1267,1287,1308,1328,1346,1368,1387,1408,1428,1446,1468,1488,1507,1527,1547,1568,1587,1606,1627,1648,1667,1688,1707,1727,1747,1766,1787,1808,1827,1847,1867,1888,1907,1927],"xSR":741.5,"ySR":573.95,"xT1":424.9,"yT1":0,"xT2":1058.1,"yT2":0,"toosoon":0,"cond_shown":"Incongruent","ratio_trial":200,"L_num":7,"L_den":10,"R_num":14,"R_den":28,"correct_side":1,"subjID":"NicolásVásquez#27","gender":"0","school":"6","age":"12"},{"start_time":1551891868183,"click_time":1551891870019,"finger_time":1551891869881,"fix_duration":1362.9339090113556,"trial":26,"RT":1698,"MT":138,"sideResp":1,"stimulus":[],"xmouse":[816,815,815,815,815,815,815,815,815,815,815,815,815,815,815,815,815,815,815,815,815,815,815,815,815,815,815,815,815,815,815,815,815,815,815,815,815,815,815,815,815,815,815,815,815,815,815,815,815,815,815,815,815,815,815,815,815,815,815,815,815,815,815,815,815,815,815,815,815,815,815,815,815,815,815,815,815,815,815,815,815,815,805,793,768,734,704,633,602,570,533,519],"ymouse":[617,616,615,615,615,615,615,615,615,615,615,615,615,615,615,615,615,615,615,615,615,615,615,615,615,615,615,615,615,615,615,615,615,615,615,615,615,615,615,615,615,615,615,615,615,615,615,615,615,615,615,615,615,615,615,615,615,615,615,615,615,615,615,615,615,615,615,615,615,615,615,615,615,615,615,615,615,615,615,615,615,615,606,593,560,510,443,291,216,145,60,30],"timestamp_mouse":[17,37,56,77,97,117,138,157,177,197,217,236,258,276,296,318,337,358,376,397,418,436,458,477,496,517,538,556,578,598,616,637,658,676,698,718,736,757,777,797,818,838,856,876,898,918,937,957,977,997,1018,1038,1056,1076,1098,1118,1136,1156,1178,1198,1216,1237,1257,1277,1298,1318,1337,1357,1378,1398,1417,1438,1458,1476,1498,1516,1538,1557,1576,1598,1618,1637,1656,1677,1698,1716,1738,1757,1778,1798,1816,1836],"xSR":741.5,"ySR":573.95,"xT1":424.9,"yT1":0,"xT2":1058.1,"yT2":0,"toosoon":0,"cond_shown":"Incongruent","ratio_trial":300,"L_num":2,"L_den":4,"R_num":6,"R_den":30,"correct_side":1,"subjID":"NicolásVásquez#27","gender":"0","school":"6","age":"12"},{"start_time":1551891873013,"click_time":1551891874843,"finger_time":1551891874103,"fix_duration":810.2367605261871,"trial":27,"RT":1090,"MT":740,"sideResp":2,"stimulus":[],"xmouse":[800,798,797,797,797,797,797,797,797,797,797,797,797,797,797,797,797,797,797,797,797,797,797,797,797,797,797,797,797,797,797,797,797,797,797,797,797,797,797,797,797,797,797,797,797,797,797,797,797,798,800,803,810,819,829,839,859,867,870,871,872,878,886,900,915,926,959,1024,1136,1327,1420,1470,1473,1473,1473,1464,1430,1405,1386,1355,1327,1306,1298,1292,1292,1291,1275,1259,1240,1216,1176,1158],"ymouse":[623,623,623,623,623,623,623,623,623,623,623,623,623,623,623,623,623,623,623,623,623,623,623,623,623,623,623,623,623,623,623,623,623,623,623,623,623,623,623,623,623,623,623,623,623,623,623,623,623,623,622,619,608,587,559,521,440,410,384,374,369,361,356,350,344,340,327,309,280,237,218,194,189,183,175,163,138,124,110,90,80,69,65,61,61,61,56,55,55,55,55,55],"timestamp_mouse":[9,39,47,68,87,108,128,146,168,186,208,227,247,267,288,307,328,347,367,390,410,429,449,470,489,510,529,549,570,589,610,629,649,670,690,711,729,750,769,791,810,830,849,869,890,910,930,949,969,990,1009,1029,1049,1069,1090,1110,1129,1150,1169,1189,1209,1229,1249,1269,1289,1310,1329,1350,1369,1389,1410,1429,1449,1469,1489,1510,1529,1549,1569,1590,1609,1629,1649,1670,1689,1710,1729,1749,1769,1789,1809,1830],"xSR":741.5,"ySR":573.95,"xT1":424.9,"yT1":0,"xT2":1058.1,"yT2":0,"toosoon":0,"cond_shown":"Incongruent","ratio_trial":300,"L_num":4,"L_den":20,"R_num":2,"R_den":4,"correct_side":2,"subjID":"NicolásVásquez#27","gender":"0","school":"6","age":"12"},{"start_time":1551891878294,"click_time":1551891880223,"finger_time":1551891879942,"fix_duration":250,"trial":28,"RT":1648,"MT":281,"sideResp":2,"stimulus":[],"xmouse":[781,781,781,781,781,781,781,781,781,781,781,781,781,781,781,781,781,781,781,781,781,781,781,781,781,781,781,781,781,781,781,781,781,781,781,781,781,781,781,781,781,781,781,781,781,781,781,781,781,781,781,781,781,781,781,781,781,781,781,781,781,781,781,781,781,781,781,781,781,781,781,781,781,781,781,781,781,781,781,782,787,797,844,876,903,930,945,971,982,993,1001,1007,1016,1028,1053,1067,1076],"ymouse":[625,625,625,625,625,625,625,625,625,625,625,625,625,625,625,625,625,625,625,625,625,625,625,625,625,625,625,625,625,625,625,625,625,625,625,625,625,625,625,625,625,625,625,625,625,625,625,625,625,625,625,625,625,625,625,625,625,625,625,625,625,625,625,625,625,625,625,625,625,625,625,625,625,625,625,625,625,625,625,619,612,594,515,461,404,345,310,253,231,210,195,186,168,152,121,106,96],"timestamp_mouse":[9,38,48,68,88,108,128,149,168,189,209,228,248,269,288,309,328,348,368,388,408,429,449,468,489,510,529,548,568,588,608,629,648,668,688,709,729,749,770,788,808,828,848,868,888,909,928,948,968,989,1009,1028,1050,1069,1089,1109,1129,1149,1168,1188,1209,1230,1249,1268,1288,1309,1328,1349,1369,1389,1410,1429,1448,1468,1488,1508,1529,1549,1568,1589,1608,1628,1648,1669,1689,1708,1728,1748,1768,1788,1809,1829,1848,1868,1888,1909,1929],"xSR":741.5,"ySR":573.95,"xT1":424.9,"yT1":0,"xT2":1058.1,"yT2":0,"toosoon":0,"cond_shown":"Incongruent","ratio_trial":100,"L_num":10,"L_den":25,"R_num":8,"R_den":16,"correct_side":2,"subjID":"NicolásVásquez#27","gender":"0","school":"6","age":"12"},{"start_time":1551891881657,"click_time":1551891883283,"finger_time":1551891883044,"fix_duration":651.0778402984708,"trial":29,"RT":1387,"MT":239,"sideResp":2,"stimulus":[],"xmouse":[812,812,812,812,812,812,812,812,812,812,812,812,812,812,812,812,812,812,812,812,812,812,812,812,812,812,812,812,812,812,812,812,812,812,812,812,812,812,812,812,812,812,812,812,812,812,812,812,812,812,812,812,812,812,812,812,812,812,812,812,812,812,812,812,812,812,815,820,839,862,880,905,937,965,1024,1041,1050,1056,1063,1077,1088,1106],"ymouse":[612,612,612,612,612,612,612,612,612,612,612,612,612,612,612,612,612,612,612,612,612,612,612,612,612,612,612,612,612,612,612,612,612,612,612,612,612,612,612,612,612,612,612,612,612,612,612,612,612,612,612,612,612,612,612,612,612,612,612,612,612,612,612,612,612,612,611,604,583,555,531,497,450,400,294,256,233,215,191,155,128,88],"timestamp_mouse":[7,34,45,66,86,106,125,145,166,185,205,225,246,265,285,306,326,346,365,386,405,425,446,466,486,506,525,546,566,586,606,625,645,665,685,707,725,746,766,785,805,826,845,866,885,905,926,945,965,985,1005,1025,1045,1065,1085,1105,1125,1145,1166,1185,1205,1225,1245,1266,1286,1305,1325,1346,1366,1387,1405,1426,1445,1466,1485,1506,1526,1545,1565,1585,1605,1626],"xSR":741.5,"ySR":573.95,"xT1":424.9,"yT1":0,"xT2":1058.1,"yT2":0,"toosoon":0,"cond_shown":"Congruent","ratio_trial":100,"L_num":15,"L_den":25,"R_num":13,"R_den":26,"correct_side":1,"subjID":"NicolásVásquez#27","gender":"0","school":"6","age":"12"},{"start_time":1551891884487,"click_time":1551891886342,"finger_time":1551891885962,"fix_duration":483.4215412815722,"trial":30,"RT":1475,"MT":380,"sideResp":1,"stimulus":[],"xmouse":[792,792,792,792,792,792,792,792,792,792,792,792,792,792,792,792,792,792,792,792,792,792,792,792,792,792,792,792,792,792,792,792,792,792,792,792,792,792,792,792,792,792,792,792,792,792,792,792,792,792,792,792,792,792,792,792,792,792,792,792,792,792,792,792,792,792,792,792,792,792,792,792,786,765,735,684,655,642,644,644,644,637,616,608,590,582,561,503,492,484,474,459,440],"ymouse":[648,648,648,648,648,648,648,648,648,648,648,648,648,648,648,648,648,648,648,648,648,648,648,648,648,648,648,648,648,648,648,648,648,648,648,648,648,648,648,648,648,648,648,648,648,648,648,648,648,648,648,648,648,648,648,648,648,648,648,648,648,648,648,648,648,648,648,648,648,648,648,639,616,563,495,368,278,112,54,18,0,0,0,0,0,0,0,0,0,0,0,0,1],"timestamp_mouse":[19,36,56,75,95,115,136,155,175,197,216,237,255,275,296,316,335,356,376,396,415,436,456,476,496,516,535,556,575,595,617,636,656,675,695,716,735,757,775,795,816,835,855,875,896,916,936,955,975,995,1015,1035,1055,1075,1095,1115,1135,1155,1177,1195,1216,1235,1255,1275,1295,1315,1335,1355,1376,1395,1416,1435,1455,1475,1495,1516,1535,1557,1575,1595,1615,1635,1656,1676,1695,1716,1736,1755,1775,1795,1815,1836,1855],"xSR":741.5,"ySR":573.95,"xT1":424.9,"yT1":0,"xT2":1058.1,"yT2":0,"toosoon":0,"cond_shown":"Congruent","ratio_trial":100,"L_num":11,"L_den":22,"R_num":6,"R_den":15,"correct_side":1,"subjID":"NicolásVásquez#27","gender":"0","school":"6","age":"12"},{"start_time":1551891887854,"click_time":1551891889262,"finger_time":1551891888842,"fix_duration":890.3334735123748,"trial":31,"RT":988,"MT":420,"sideResp":1,"stimulus":[],"xmouse":[764,764,764,764,764,764,764,764,764,764,764,764,764,764,764,764,764,764,764,764,764,764,764,764,764,764,764,764,764,764,764,764,764,764,764,764,764,764,764,764,764,764,764,764,764,764,764,764,764,740,722,707,695,675,620,599,580,566,560,551,547,545,544,542,535,530,524,518,513,496,483],"ymouse":[650,650,650,650,650,650,650,650,650,650,650,650,650,650,650,650,650,650,650,650,650,650,650,650,650,650,650,650,650,650,650,650,650,650,650,650,650,650,650,650,650,650,650,650,650,650,650,650,650,625,605,582,561,526,413,348,278,194,150,82,62,48,40,30,9,0,0,0,0,0,3],"timestamp_mouse":[8,34,48,68,89,108,128,148,169,188,208,228,249,268,288,309,329,349,369,388,408,429,448,469,488,508,528,549,569,588,608,629,649,668,688,708,728,748,768,788,808,830,849,868,888,909,928,948,968,988,1009,1028,1049,1068,1088,1109,1128,1148,1169,1188,1209,1229,1248,1268,1288,1309,1329,1349,1368,1388,1408],"xSR":741.5,"ySR":573.95,"xT1":424.9,"yT1":0,"xT2":1058.1,"yT2":0,"toosoon":0,"cond_shown":"Congruent","ratio_trial":200,"L_num":12,"L_den":20,"R_num":6,"R_den":15,"correct_side":1,"subjID":"NicolásVásquez#27","gender":"0","school":"6","age":"12"},{"start_time":1551891890732,"click_time":1551891892123,"finger_time":1551891891823,"fix_duration":788.1778953328271,"trial":32,"RT":1091,"MT":300,"sideResp":1,"stimulus":[],"xmouse":[817,817,817,817,817,817,817,817,817,817,817,817,817,817,817,817,817,817,817,817,817,817,817,817,817,817,817,817,817,817,817,817,817,817,817,817,817,817,817,817,817,817,817,817,817,817,817,817,817,815,812,806,786,769,740,668,628,598,580,561,535,524,514,498,485,472,470,465,463,461],"ymouse":[673,673,673,673,673,673,673,673,673,673,673,673,673,673,673,673,673,673,673,673,673,673,673,673,673,673,673,673,673,673,673,673,673,673,673,673,673,673,673,673,673,673,673,673,673,673,673,673,673,673,672,667,648,629,598,509,447,397,354,308,247,222,200,169,148,119,115,107,103,99],"timestamp_mouse":[10,37,51,70,90,111,130,151,170,190,212,231,250,270,292,310,330,352,370,390,411,431,451,470,490,510,530,550,571,590,610,630,650,671,690,710,730,750,771,791,810,830,851,871,890,911,930,951,970,990,1011,1031,1050,1070,1091,1110,1130,1150,1170,1190,1210,1230,1251,1271,1290,1311,1330,1350,1370,1391],"xSR":741.5,"ySR":573.95,"xT1":424.9,"yT1":0,"xT2":1058.1,"yT2":0,"toosoon":0,"cond_shown":"Congruent","ratio_trial":200,"L_num":8,"L_den":15,"R_num":3,"R_den":9,"correct_side":1,"subjID":"NicolásVásquez#27","gender":"0","school":"6","age":"12"},{"start_time":1551891893753,"click_time":1551891895142,"finger_time":1551891894562,"fix_duration":869.8399400000367,"trial":33,"RT":809,"MT":580,"sideResp":1,"stimulus":[],"xmouse":[754,754,754,754,754,754,754,754,754,754,754,754,754,754,754,754,754,754,754,754,754,754,754,754,754,754,754,754,754,754,754,754,754,754,754,754,754,753,751,743,738,727,713,680,627,606,592,578,561,528,517,514,514,513,509,508,506,503,498,491,487,485,482,480,478,478,478,478,476,472],"ymouse":[654,654,654,654,654,654,654,654,654,654,654,654,654,654,654,654,654,654,654,654,654,654,654,654,654,654,654,654,654,654,654,654,654,654,654,654,654,651,647,637,628,609,585,534,449,412,386,361,332,288,277,274,271,270,259,253,244,238,230,216,200,185,175,167,152,137,125,112,101,84],"timestamp_mouse":[9,41,51,70,89,110,130,150,170,189,209,230,249,270,290,309,329,349,370,389,409,430,449,469,489,509,529,549,570,589,609,629,649,669,690,709,729,749,770,789,809,830,850,869,890,909,930,949,969,989,1010,1029,1050,1070,1089,1109,1129,1150,1169,1189,1209,1230,1250,1270,1289,1309,1329,1350,1370,1389],"xSR":741.5,"ySR":573.95,"xT1":424.9,"yT1":0,"xT2":1058.1,"yT2":0,"toosoon":0,"cond_shown":"Incongruent","ratio_trial":100,"L_num":13,"L_den":26,"R_num":6,"R_den":10,"correct_side":2,"subjID":"NicolásVásquez#27","gender":"0","school":"6","age":"12"},{"start_time":1551891896759,"click_time":1551891898382,"finger_time":1551891898262,"fix_duration":895.5900442206657,"trial":34,"RT":1503,"MT":120,"sideResp":2,"stimulus":[],"xmouse":[816,814,814,814,814,814,814,814,814,814,814,814,814,814,814,814,814,814,814,814,814,814,814,814,814,814,814,814,814,814,814,814,814,814,814,814,814,814,814,814,814,814,814,814,814,814,814,814,814,814,814,814,814,814,814,814,814,814,814,814,814,814,814,814,814,814,814,814,814,814,814,814,813,814,829,853,902,963,1014,1084,1099,1105],"ymouse":[652,651,651,651,651,651,651,651,651,651,651,651,651,651,651,651,651,651,651,651,651,651,651,651,651,651,651,651,651,651,651,651,651,651,651,651,651,651,651,651,651,651,651,651,651,651,651,651,651,651,651,651,651,651,651,651,651,651,651,651,651,651,651,651,651,651,651,651,651,651,651,651,648,643,609,562,484,384,291,150,108,83],"timestamp_mouse":[5,23,43,64,83,103,123,143,163,184,204,223,244,264,283,303,324,344,363,384,404,423,443,464,483,503,523,543,563,583,603,623,643,663,684,703,724,744,765,783,803,823,844,863,883,904,923,943,963,984,1003,1023,1043,1063,1084,1104,1123,1143,1164,1184,1203,1223,1244,1263,1283,1303,1324,1344,1364,1385,1404,1423,1444,1464,1483,1503,1524,1544,1563,1583,1603,1623],"xSR":741.5,"ySR":573.95,"xT1":424.9,"yT1":0,"xT2":1058.1,"yT2":0,"toosoon":0,"cond_shown":"Incongruent","ratio_trial":100,"L_num":13,"L_den":26,"R_num":6,"R_den":10,"correct_side":2,"subjID":"NicolásVásquez#27","gender":"0","school":"6","age":"12"},{"start_time":1551891900159,"click_time":1551891901883,"finger_time":1551891901342,"fix_duration":876.0653611923176,"trial":35,"RT":1183,"MT":541,"sideResp":1,"stimulus":[],"xmouse":[771,771,771,771,771,771,771,771,771,771,771,771,771,771,771,771,771,771,771,771,771,771,771,771,771,771,771,771,771,771,771,771,771,771,771,771,771,771,771,771,771,771,771,771,771,771,771,771,771,771,771,771,771,771,771,771,771,771,767,747,722,676,596,540,439,391,350,320,303,296,296,296,296,296,297,303,318,338,357,381,387,393,401,407,421,424,426],"ymouse":[611,611,611,611,611,611,611,611,611,611,611,611,611,611,611,611,611,611,611,611,611,611,611,611,611,611,611,611,611,611,611,611,611,611,611,611,611,611,611,611,611,611,611,611,611,611,611,611,611,611,611,611,611,611,611,611,611,611,604,570,528,467,365,300,165,97,35,0,0,0,0,0,0,0,0,0,4,9,18,29,33,34,34,34,34,34,34],"timestamp_mouse":[8,29,44,63,84,105,123,144,163,183,203,223,244,264,283,303,324,344,363,383,403,424,443,463,484,503,523,544,564,584,604,623,644,663,683,703,723,743,763,784,803,824,843,863,884,903,923,943,963,983,1003,1023,1043,1064,1083,1104,1123,1143,1164,1183,1203,1224,1244,1264,1283,1303,1324,1343,1364,1383,1403,1423,1444,1463,1483,1503,1523,1544,1563,1583,1604,1623,1643,1664,1683,1703,1724],"xSR":741.5,"ySR":573.95,"xT1":424.9,"yT1":0,"xT2":1058.1,"yT2":0,"toosoon":0,"cond_shown":"Congruent","ratio_trial":200,"L_num":9,"L_den":20,"R_num":4,"R_den":16,"correct_side":1,"subjID":"NicolásVásquez#27","gender":"0","school":"6","age":"12"},{"start_time":1551891903971,"click_time":1551891906722,"finger_time":1551891905742,"fix_duration":1266.871661013706,"trial":36,"RT":1771,"MT":980,"sideResp":1,"stimulus":[],"xmouse":[755,755,755,755,755,755,755,755,755,755,755,755,755,755,755,755,755,755,755,755,755,755,755,755,755,755,755,755,755,755,755,755,755,755,755,755,755,755,755,755,755,755,755,755,755,755,755,755,755,755,755,755,755,755,755,755,755,755,755,755,755,755,755,755,755,755,755,755,755,755,755,755,755,755,755,754,754,754,754,754,754,754,754,754,754,758,765,774,792,799,812,826,852,919,951,971,984,992,1005,1010,1012,1015,1016,1016,1016,1016,1016,1016,1008,999,988,963,933,856,824,796,779,769,741,709,667,581,517,426,406,397,386,375,361,361,361,357,356,361,370,389,412,427],"ymouse":[641,641,641,641,641,641,641,641,641,641,641,641,641,641,641,641,641,641,641,641,641,641,641,641,641,641,641,641,641,641,641,641,641,641,641,641,641,641,641,641,641,641,641,641,641,641,641,641,641,641,641,641,641,641,641,641,641,641,641,641,641,641,641,641,641,641,641,642,642,642,642,642,642,642,642,642,642,642,642,642,642,642,642,642,639,627,611,591,556,539,515,492,455,366,329,300,275,254,222,208,201,195,190,190,190,190,190,190,194,201,209,228,252,316,342,361,367,369,339,268,172,9,0,0,0,0,0,0,0,0,0,12,23,43,53,62,68,70],"timestamp_mouse":[17,33,52,73,91,111,131,151,172,191,211,231,251,271,292,311,331,351,372,393,412,432,451,471,491,512,532,552,571,591,611,631,651,672,691,712,731,751,771,792,812,831,853,871,891,912,933,952,971,993,1013,1031,1051,1071,1091,1111,1131,1151,1171,1191,1212,1231,1251,1271,1291,1311,1331,1351,1372,1392,1412,1432,1452,1471,1491,1512,1531,1551,1571,1591,1611,1631,1652,1671,1691,1712,1732,1751,1771,1791,1811,1831,1852,1871,1891,1911,1931,1952,1971,1991,2011,2031,2052,2071,2091,2112,2132,2151,2171,2191,2212,2231,2251,2271,2291,2311,2332,2351,2371,2391,2412,2431,2451,2472,2491,2512,2531,2551,2572,2593,2612,2631,2651,2671,2692,2712,2731,2751],"xSR":741.5,"ySR":573.95,"xT1":424.9,"yT1":0,"xT2":1058.1,"yT2":0,"toosoon":0,"cond_shown":"Congruent","ratio_trial":300,"L_num":4,"L_den":10,"R_num":1,"R_den":10,"correct_side":1,"subjID":"NicolásVásquez#27","gender":"0","school":"6","age":"12"},{"start_time":1551891908546,"click_time":1551891910562,"finger_time":1551891910242,"fix_duration":1002.7935327262553,"trial":37,"RT":1696,"MT":320,"sideResp":2,"stimulus":[],"xmouse":[813,813,813,814,814,814,814,811,809,806,806,806,806,806,805,804,804,804,804,804,804,804,804,804,804,804,804,804,804,804,804,804,807,809,809,809,809,809,809,809,809,809,809,809,807,807,807,807,806,803,802,801,801,800,800,800,800,800,800,800,800,800,800,800,800,800,800,800,800,800,800,800,800,800,800,800,800,800,799,798,797,798,804,827,930,1044,1155,1241,1287,1307,1307,1307,1304,1300,1279,1256,1230,1198,1174,1143,1122],"ymouse":[643,643,643,643,643,643,642,641,641,641,641,641,641,641,641,641,641,641,641,641,641,641,641,641,641,641,641,641,641,641,640,639,631,629,627,625,625,625,625,625,625,625,625,624,615,614,614,614,614,613,612,612,612,612,611,611,611,611,611,611,611,611,611,611,611,611,611,611,611,611,611,611,611,611,611,611,611,611,611,611,609,607,601,579,496,416,336,267,217,167,146,121,82,55,20,7,2,0,0,0,2],"timestamp_mouse":[29,37,56,77,97,116,137,156,177,196,216,236,258,276,297,316,338,357,376,396,417,436,456,477,496,516,536,556,577,596,617,637,656,676,696,716,736,757,776,796,816,837,856,877,896,916,936,956,977,996,1016,1037,1056,1076,1096,1116,1136,1157,1177,1196,1216,1237,1257,1277,1296,1317,1336,1357,1377,1397,1416,1438,1457,1476,1497,1516,1536,1556,1577,1597,1616,1636,1658,1677,1696,1716,1736,1757,1777,1796,1817,1836,1856,1876,1896,1916,1937,1957,1976,1996,2016],"xSR":741.5,"ySR":573.95,"xT1":424.9,"yT1":0,"xT2":1058.1,"yT2":0,"toosoon":0,"cond_shown":"Incongruent","ratio_trial":200,"L_num":7,"L_den":10,"R_num":12,"R_den":24,"correct_side":1,"subjID":"NicolásVásquez#27","gender":"0","school":"6","age":"12"},{"start_time":1551891912189,"click_time":1551891913682,"finger_time":1551891913142,"fix_duration":345.13419072172246,"trial":38,"RT":953,"MT":540,"sideResp":1,"stimulus":[],"xmouse":[769,769,772,777,778,779,779,779,779,779,779,779,779,779,779,779,779,779,780,781,783,784,784,784,784,784,784,784,784,784,784,784,784,784,784,784,784,784,784,784,784,784,784,784,782,778,772,754,734,711,689,664,648,643,637,629,606,600,593,591,590,590,589,587,585,584,583,583,582,581,575,562,522,508,497],"ymouse":[619,619,619,618,618,617,617,617,617,617,617,617,617,617,617,617,617,617,617,616,615,615,615,615,615,615,615,615,615,615,615,615,615,615,615,615,615,615,615,615,615,615,615,615,609,602,593,556,523,488,452,412,377,359,338,320,289,280,270,268,266,266,265,263,263,262,262,262,261,260,241,196,125,109,95],"timestamp_mouse":[13,33,53,74,93,113,133,154,173,193,213,233,253,273,294,313,333,353,373,393,413,433,454,473,494,517,533,554,573,593,615,634,653,673,694,714,733,753,773,793,814,834,854,873,894,913,934,953,973,994,1013,1033,1053,1074,1094,1113,1135,1153,1173,1194,1213,1233,1255,1273,1294,1313,1334,1354,1373,1394,1413,1433,1453,1473,1493],"xSR":741.5,"ySR":573.95,"xT1":424.9,"yT1":0,"xT2":1058.1,"yT2":0,"toosoon":0,"cond_shown":"Incongruent","ratio_trial":100,"L_num":8,"L_den":16,"R_num":6,"R_den":10,"correct_side":2,"subjID":"NicolásVásquez#27","gender":"0","school":"6","age":"12"},{"start_time":1551891915127,"click_time":1551891916443,"finger_time":1551891916062,"fix_duration":403.7941991095632,"trial":39,"RT":935,"MT":381,"sideResp":2,"stimulus":[],"xmouse":[817,817,817,817,817,817,817,817,817,817,817,817,817,817,817,817,817,817,817,817,817,817,817,817,817,817,817,817,817,817,817,817,817,817,817,817,817,817,817,817,817,817,818,821,824,833,837,847,873,916,998,1021,1031,1032,1032,1032,1032,1032,1032,1032,1035,1037,1041,1048,1051,1060],"ymouse":[595,595,595,595,595,595,595,595,595,595,595,595,595,595,595,595,595,595,595,595,595,595,595,595,595,595,595,595,595,595,595,595,595,595,595,595,595,595,595,595,595,595,594,591,588,575,566,550,518,464,340,281,231,197,164,137,129,123,120,117,104,97,88,79,76,72],"timestamp_mouse":[28,35,56,76,97,115,135,156,176,195,216,236,256,275,295,315,335,355,375,395,415,435,456,475,495,516,535,555,575,595,615,635,656,676,696,716,735,755,777,795,815,835,855,875,896,915,935,955,975,996,1015,1036,1056,1075,1095,1115,1135,1155,1175,1195,1215,1235,1256,1276,1295,1316],"xSR":741.5,"ySR":573.95,"xT1":424.9,"yT1":0,"xT2":1058.1,"yT2":0,"toosoon":0,"cond_shown":"Incongruent","ratio_trial":300,"L_num":13,"L_den":26,"R_num":12,"R_den":15,"correct_side":2,"subjID":"NicolásVásquez#27","gender":"0","school":"6","age":"12"},{"start_time":1551891918235,"click_time":1551891920022,"finger_time":1551891919482,"fix_duration":872.5168557587676,"trial":40,"RT":1247,"MT":540,"sideResp":2,"stimulus":[],"xmouse":[822,822,822,822,822,822,822,822,822,822,822,822,822,822,822,822,822,822,822,822,822,822,822,822,822,822,822,822,822,822,822,822,822,822,822,822,822,822,822,822,822,822,822,822,822,822,822,822,822,822,822,822,822,822,822,822,822,822,822,822,822,833,848,871,909,1016,1066,1098,1109,1107,1094,1089,1085,1085,1085,1085,1084,1082,1081,1081,1081,1081,1081,1081,1081,1081,1081,1081,1081,1082],"ymouse":[648,648,648,648,648,648,648,648,648,648,648,648,648,648,648,648,648,648,648,648,648,648,648,648,648,648,648,648,648,648,648,648,648,648,648,648,648,648,648,648,648,648,648,648,648,648,648,648,648,648,648,648,648,648,648,648,648,648,648,648,646,638,624,604,568,456,395,341,290,267,226,208,194,179,164,140,129,121,115,111,105,103,102,102,102,102,102,101,100,98],"timestamp_mouse":[14,36,48,67,89,107,127,147,167,188,207,227,248,268,288,307,328,347,368,388,407,427,447,468,488,508,527,548,568,588,608,628,648,669,687,708,728,748,767,788,809,828,848,868,888,908,927,948,968,987,1007,1027,1048,1067,1088,1108,1128,1149,1168,1187,1207,1227,1247,1268,1288,1307,1327,1348,1368,1388,1407,1427,1447,1467,1487,1507,1527,1548,1567,1587,1608,1627,1648,1667,1688,1707,1727,1748,1767,1787],"xSR":741.5,"ySR":573.95,"xT1":424.9,"yT1":0,"xT2":1058.1,"yT2":0,"toosoon":0,"cond_shown":"Incongruent","ratio_trial":100,"L_num":6,"L_den":12,"R_num":3,"R_den":5,"correct_side":2,"subjID":"NicolásVásquez#27","gender":"0","school":"6","age":"12"},{"start_time":1551891922692,"click_time":1551891924522,"finger_time":1551891924243,"fix_duration":346.0281419550518,"trial":41,"RT":1551,"MT":279,"sideResp":1,"stimulus":[],"xmouse":[808,808,808,808,808,808,808,808,808,808,808,808,808,808,808,808,808,808,808,808,808,808,808,808,808,808,808,808,808,808,808,808,808,808,808,808,808,808,808,808,808,808,808,808,808,808,808,808,808,808,808,808,808,808,808,808,808,808,808,808,808,808,808,808,808,808,808,808,808,808,808,808,808,807,805,798,779,732,691,656,629,610,592,587,582,578,572,564,561,553,538,511],"ymouse":[662,662,662,662,662,662,662,662,662,662,662,662,662,662,662,662,662,662,662,662,662,662,662,662,662,662,662,662,662,662,662,662,662,662,662,662,662,662,662,662,662,662,662,662,662,662,662,662,662,662,662,662,662,662,662,662,662,662,662,662,662,662,662,662,662,662,662,662,662,662,662,662,662,660,658,647,625,583,556,525,497,471,432,419,409,401,385,354,330,272,190,95],"timestamp_mouse":[11,30,51,71,91,110,130,150,172,190,211,230,251,271,291,310,330,350,371,390,410,431,450,470,490,510,531,551,571,591,610,630,650,670,690,710,730,750,770,792,811,830,850,870,890,910,930,950,970,991,1011,1031,1050,1070,1090,1110,1130,1151,1170,1190,1211,1230,1250,1271,1290,1310,1330,1350,1370,1390,1411,1430,1450,1470,1491,1510,1530,1551,1570,1590,1610,1630,1650,1670,1690,1712,1731,1751,1770,1791,1811,1830],"xSR":741.5,"ySR":573.95,"xT1":424.9,"yT1":0,"xT2":1058.1,"yT2":0,"toosoon":0,"cond_shown":"Incongruent","ratio_trial":300,"L_num":2,"L_den":4,"R_num":6,"R_den":30,"correct_side":1,"subjID":"NicolásVásquez#27","gender":"0","school":"6","age":"12"},{"start_time":1551891925994,"click_time":1551891927803,"finger_time":1551891927402,"fix_duration":250,"trial":42,"RT":1408,"MT":401,"sideResp":1,"stimulus":[],"xmouse":[774,774,774,774,774,774,774,774,774,774,774,774,774,774,774,774,774,774,774,774,774,774,774,774,774,774,774,774,774,774,774,774,774,774,774,774,774,774,774,774,774,774,774,774,774,774,774,774,774,774,774,774,774,774,774,774,774,774,774,774,774,774,774,774,774,774,774,774,774,748,688,628,540,512,490,479,476,476,476,475,475,472,469,467,467,467,467,470,481,491,500],"ymouse":[653,653,653,653,653,653,653,653,653,653,653,653,653,653,653,653,653,653,653,653,653,653,653,653,653,653,653,653,653,653,653,653,653,653,653,653,653,653,653,653,653,653,653,653,653,653,653,653,653,653,653,653,653,653,653,653,653,653,653,653,653,653,653,653,653,653,653,653,650,633,615,598,560,530,491,457,436,409,399,393,388,381,368,357,341,321,300,237,184,121,48],"timestamp_mouse":[8,33,48,68,89,109,128,148,168,189,210,228,249,269,288,309,329,348,368,389,408,428,449,468,488,508,528,548,568,588,609,628,648,668,689,708,729,749,769,789,810,829,849,869,888,908,929,948,968,988,1009,1028,1048,1068,1088,1109,1128,1148,1169,1189,1208,1229,1249,1268,1290,1309,1329,1348,1369,1388,1408,1429,1448,1469,1489,1508,1529,1548,1568,1588,1608,1629,1648,1668,1688,1708,1728,1748,1768,1788,1809],"xSR":741.5,"ySR":573.95,"xT1":424.9,"yT1":0,"xT2":1058.1,"yT2":0,"toosoon":0,"cond_shown":"Congruent","ratio_trial":200,"L_num":6,"L_den":12,"R_num":7,"R_den":10,"correct_side":2,"subjID":"NicolásVásquez#27","gender":"0","school":"6","age":"12"},{"start_time":1551891931377,"click_time":1551891932843,"finger_time":1551891932763,"fix_duration":1252.1244177141816,"trial":43,"RT":1386,"MT":80,"sideResp":2,"stimulus":[],"xmouse":[789,789,789,789,789,789,789,789,789,789,789,789,789,789,789,789,789,789,789,789,789,789,789,789,789,789,789,789,789,789,789,788,787,785,785,785,785,785,785,785,785,785,785,785,785,785,785,785,785,785,785,785,785,785,785,785,785,785,785,785,785,785,785,785,785,785,785,785,785,801,844,954,1037,1149],"ymouse":[623,623,623,623,623,623,623,623,623,623,623,623,623,623,623,623,623,623,623,623,623,623,623,623,623,623,623,623,623,623,623,622,620,611,611,611,611,611,611,611,611,611,611,611,611,611,611,611,611,611,611,611,611,611,611,611,611,611,611,611,611,611,611,611,611,611,608,607,590,529,422,257,175,93],"timestamp_mouse":[9,38,46,65,85,106,125,145,166,185,206,225,245,266,285,305,326,346,365,386,405,427,446,465,485,505,526,547,565,585,606,627,646,665,685,706,725,745,765,785,806,825,846,865,886,907,926,946,965,986,1005,1025,1045,1067,1086,1106,1126,1146,1166,1187,1205,1225,1246,1265,1285,1307,1325,1345,1365,1386,1406,1425,1445,1466],"xSR":741.5,"ySR":573.95,"xT1":424.9,"yT1":0,"xT2":1058.1,"yT2":0,"toosoon":0,"cond_shown":"Congruent","ratio_trial":100,"L_num":2,"L_den":5,"R_num":11,"R_den":22,"correct_side":2,"subjID":"NicolásVásquez#27","gender":"0","school":"6","age":"12"},{"start_time":1551891934602,"click_time":1551891936283,"finger_time":1551891935903,"fix_duration":817.9587470600068,"trial":44,"RT":1301,"MT":380,"sideResp":1,"stimulus":[],"xmouse":[799,799,799,799,799,799,799,799,799,799,799,799,799,799,799,799,799,799,799,799,799,799,799,799,799,799,799,799,799,799,799,799,799,799,799,799,799,799,799,799,799,799,799,799,799,799,799,799,799,799,799,799,799,799,799,799,799,799,799,800,800,801,801,801,798,788,766,679,629,581,562,562,570,571,571,571,571,567,563,552,549,529,497,485,480],"ymouse":[596,596,596,596,596,596,596,596,596,596,596,596,596,596,596,596,596,596,596,596,596,596,596,596,596,596,596,596,596,596,596,596,596,596,596,596,596,596,596,596,596,596,596,596,596,596,596,596,596,596,596,596,596,596,596,596,596,596,596,597,597,595,588,583,574,557,528,424,365,297,217,189,169,167,167,165,162,154,146,135,132,121,106,100,96],"timestamp_mouse":[7,21,43,62,81,102,120,142,162,182,200,221,241,261,281,300,321,341,361,381,401,420,441,461,481,501,521,542,561,580,602,620,642,660,680,701,721,741,761,781,801,822,840,860,880,901,920,941,961,982,1001,1021,1041,1060,1081,1102,1121,1142,1161,1182,1202,1221,1240,1261,1282,1301,1321,1340,1361,1380,1401,1421,1440,1460,1481,1501,1520,1541,1562,1581,1601,1620,1641,1661,1681],"xSR":741.5,"ySR":573.95,"xT1":424.9,"yT1":0,"xT2":1058.1,"yT2":0,"toosoon":0,"cond_shown":"Congruent","ratio_trial":300,"L_num":20,"L_den":25,"R_num":8,"R_den":16,"correct_side":1,"subjID":"NicolásVásquez#27","gender":"0","school":"6","age":"12"},{"start_time":1551891937896,"click_time":1551891939942,"finger_time":1551891939463,"fix_duration":491.94700494545276,"trial":45,"RT":1567,"MT":479,"sideResp":1,"stimulus":[],"xmouse":[793,793,793,790,789,787,787,787,787,787,787,787,787,787,787,787,787,787,787,787,787,787,787,787,787,787,787,787,787,787,787,787,787,787,787,787,787,787,787,787,787,787,787,787,787,787,787,787,787,787,787,787,787,787,787,787,787,787,787,787,787,787,787,787,787,787,787,787,787,787,787,787,786,783,779,777,775,762,740,720,712,669,537,506,493,490,490,492,493,494,495,496,501,503,504,505,505,503,500,495,490,485,482],"ymouse":[617,617,617,617,617,617,617,617,617,617,617,617,617,617,617,617,617,617,617,617,617,617,617,617,617,617,617,617,617,617,617,617,617,617,617,617,617,617,617,617,617,617,617,617,617,617,617,617,617,617,617,617,617,617,617,617,617,617,617,617,617,617,617,617,617,617,617,617,617,617,617,617,617,614,609,605,602,586,569,552,531,444,273,242,230,227,224,218,215,212,207,200,192,189,182,173,154,142,137,130,121,113,97],"timestamp_mouse":[9,27,46,67,87,107,127,146,168,187,208,227,247,266,287,307,327,347,367,387,406,428,447,467,488,508,527,547,568,588,608,627,648,667,687,707,728,747,767,786,808,826,847,867,888,908,927,948,966,987,1007,1027,1047,1066,1088,1108,1126,1148,1168,1188,1207,1228,1248,1268,1287,1307,1327,1348,1368,1388,1408,1428,1446,1466,1487,1508,1527,1547,1567,1587,1607,1628,1646,1667,1687,1707,1727,1747,1766,1786,1807,1827,1846,1867,1887,1908,1927,1947,1967,1987,2007,2027,2046],"xSR":741.5,"ySR":573.95,"xT1":424.9,"yT1":0,"xT2":1058.1,"yT2":0,"toosoon":0,"cond_shown":"Congruent","ratio_trial":100,"L_num":11,"L_den":22,"R_num":4,"R_den":10,"correct_side":1,"subjID":"NicolásVásquez#27","gender":"0","school":"6","age":"12"},{"start_time":1551891940834,"click_time":1551891941823,"finger_time":1551891941702,"fix_duration":250,"trial":46,"RT":868,"MT":121,"sideResp":2,"stimulus":[],"xmouse":[783,784,785,785,789,792,793,794,794,794,794,794,794,794,794,794,794,794,794,794,794,794,794,794,794,794,794,794,794,794,794,794,794,794,794,794,794,794,794,794,795,802,813,831,851,904,946,994,1046,1100],"ymouse":[608,612,613,613,619,625,628,628,629,630,631,631,631,631,631,631,631,631,631,631,631,631,631,631,631,631,631,631,631,631,631,631,631,631,631,631,631,631,631,631,631,620,593,551,502,378,311,240,162,64],"timestamp_mouse":[11,28,55,70,89,108,129,150,169,190,209,230,250,269,289,309,329,349,369,390,410,429,450,470,489,509,530,549,568,590,609,629,650,670,688,710,728,748,769,788,809,829,849,868,889,909,928,949,969,989],"xSR":741.5,"ySR":573.95,"xT1":424.9,"yT1":0,"xT2":1058.1,"yT2":0,"toosoon":0,"cond_shown":"Congruent","ratio_trial":300,"L_num":1,"L_den":20,"R_num":7,"R_den":20,"correct_side":2,"subjID":"NicolásVásquez#27","gender":"0","school":"6","age":"12"},{"start_time":1551891943835,"click_time":1551891944943,"finger_time":1551891944644,"fix_durat