[{"start_time":1551801318276,"click_time":1551801319381,"finger_time":1551801319080,"fix_duration":250,"trial":0,"RT":804,"MT":301,"sideResp":1,"stimulus":"img/250/equaldotanddens/L/3_Ratio_250_L_8_R_2.png","xmouse":[791,791,791,791,791,791,791,791,791,791,791,791,791,791,791,791,791,791,791,791,791,791,791,791,791,791,791,791,791,791,791,791,791,791,791,791,791,791,787,719,594,442,311,290,299,313,322,328,334,336,341,356,389,418,462],"ymouse":[533,533,533,533,533,533,533,533,533,533,533,533,533,533,533,533,533,533,533,533,533,533,533,533,533,533,533,533,533,533,533,533,533,533,533,533,533,533,529,485,392,290,167,125,70,48,39,30,22,20,19,19,19,26,40],"timestamp_mouse":[8,45,65,86,105,125,146,165,184,206,225,244,266,284,304,325,345,364,386,405,425,445,465,485,506,525,545,566,584,605,625,644,666,684,706,724,745,766,784,804,825,844,864,884,904,925,944,964,985,1004,1026,1045,1065,1084,1104],"xSR":741.5,"ySR":501.8,"xT1":424.9,"yT1":0,"xT2":1058.1,"yT2":0,"toosoon":0,"cond_shown":"equaldotanddens","ratio_trial":250,"smaller_num":"2","larger_num":"8","correct_side":1,"subjID":"JohanSebastianCarvajalSalazar34","gender":"0","age":"12","school":"6","test":{"fix_dur":[250,1500],"timestim":300,"targets_dim":[100,100],"targets_relative_coord":[0.3,0.7],"size_stim":[880,420],"start_dim":[100,100],"size_start":[300,300],"size_fix":60,"samplingrate":20,"img_types":["equaldotsize","equaldotanddens","randomdotsizeEA"],"ratios":[250,500,750,900],"rep_conds":9,"nTrials":120,"trials_to_rest":500,"Trials_order":[25,30,91,52,86,114,79,54,89,13,69,50,56,82,26,113,81,66,27,84,110,92,90,116,29,42,87,85,23,104,65,80,97,117,8,105,44,112,21,99,75,53,47,111,4,93,76,11,118,18,60,39,94,38,115,46,107,41,62,22,48,63,10,88,57,40,31,24,0,61,15,45,19,43,74,101,32,68,5,1,49,12,51,72,9,77,64,6,108,35,2,28,20,119,78,36,106,14,16,67,55,96,59,103,58,100,33,7,34,83,37,3,17,71,109,102,95,73,70,98],"cond_shown":["equaldotanddens","equaldotsize","equaldotanddens","equaldotanddens","randomdotsizeEA","equaldotsize","equaldotanddens","equaldotsize","randomdotsizeEA","equaldotanddens","equaldotsize","randomdotsizeEA","randomdotsizeEA","equaldotanddens","randomdotsizeEA","randomdotsizeEA","equaldotsize","equaldotsize","equaldotsize","equaldotsize","randomdotsizeEA","randomdotsizeEA","equaldotsize","randomdotsizeEA","randomdotsizeEA","equaldotsize","equaldotsize","equaldotanddens","randomdotsizeEA","randomdotsizeEA","randomdotsizeEA","randomdotsizeEA","equaldotanddens","equaldotsize","randomdotsizeEA","equaldotsize","randomdotsizeEA","equaldotanddens","equaldotsize","equaldotsize","equaldotsize","randomdotsizeEA","randomdotsizeEA","equaldotsize","equaldotanddens","equaldotsize","equaldotanddens","randomdotsizeEA","equaldotanddens","equaldotsize","equaldotsize","equaldotsize","equaldotanddens","randomdotsizeEA","equaldotanddens","equaldotanddens","randomdotsizeEA","randomdotsizeEA","randomdotsizeEA","equaldotanddens","equaldotsize","equaldotsize","equaldotanddens","equaldotanddens","equaldotsize","equaldotanddens","equaldotanddens","equaldotsize","equaldotsize","equaldotanddens","equaldotsize","equaldotsize","equaldotanddens","equaldotanddens","randomdotsizeEA","randomdotsizeEA","randomdotsizeEA","randomdotsizeEA","randomdotsizeEA","equaldotanddens","equaldotanddens","equaldotsize","equaldotsize","equaldotsize","equaldotsize","randomdotsizeEA","equaldotanddens","equaldotsize","equaldotsize","randomdotsizeEA","randomdotsizeEA","equaldotanddens","randomdotsizeEA","randomdotsizeEA","equaldotsize","equaldotsize","equaldotanddens","randomdotsizeEA","equaldotanddens","equaldotanddens","equaldotanddens","equaldotsize","randomdotsizeEA","equaldotanddens","equaldotanddens","equaldotanddens","equaldotsize","equaldotanddens","equaldotanddens","randomdotsizeEA","equaldotanddens","equaldotsize","randomdotsizeEA","randomdotsizeEA","equaldotanddens","equaldotsize","randomdotsizeEA","equaldotanddens","equaldotanddens","randomdotsizeEA"],"ratio_trial":[250,750,750,500,250,750,750,750,500,250,900,250,750,900,250,500,900,750,500,250,250,750,750,750,500,750,500,250,900,750,500,750,250,900,750,900,750,500,900,500,500,500,900,500,500,900,500,900,900,750,250,500,900,250,750,900,900,500,250,900,250,500,900,500,900,500,750,250,250,250,500,900,750,750,250,500,750,750,500,250,250,250,500,250,900,500,500,750,250,900,250,500,750,900,750,250,900,250,500,750,750,250,900,750,900,500,900,750,900,900,250,500,500,900,250,750,900,250,900,250],"smaller_num":["2","3","6","5","2","3","3","6","4","4","18","3","3","9","2","4","9","3","9","6","3","6","18","3","5","18","3","2","18","6","9","3","3","18","9","18","3","2","9","9","1","3","18","5","9","18","3","18","18","15","3","1","18","3","15","9","9","9","5","18","3","6","18","2","18","9","6","3","3","5","2","9","3","6","2","1","6","12","9","2","2","3","2","6","9","1","10","6","3","9","2","1","3","18","12","3","9","6","3","3","6","2","18","15","18","6","18","3","18","9","6","5","2","9","3","3","9","1","9","6"],"larger_num":["8","4","8","10","8","4","4","8","8","16","20","12","4","10","8","8","10","4","18","24","12","8","24","4","10","24","6","8","20","8","18","4","12","20","12","20","4","4","10","18","2","6","20","10","18","20","6","20","20","20","12","2","20","12","20","10","10","18","20","20","12","12","20","4","20","18","8","12","12","20","4","10","4","8","8","2","8","16","18","8","8","12","4","24","10","2","20","8","12","10","8","2","4","20","16","12","10","24","6","4","8","8","20","20","20","12","20","4","20","10","24","10","4","10","12","4","10","4","10","24"],"correct_side":[1,2,1,2,1,1,1,1,1,2,1,2,1,1,1,1,2,2,2,1,2,2,1,1,2,1,2,1,2,2,2,1,1,1,2,1,2,2,2,2,2,2,1,1,1,1,2,1,2,2,2,2,1,2,2,2,2,2,2,1,2,1,1,2,1,2,1,2,2,2,1,2,2,2,1,2,1,2,1,1,1,2,1,1,2,2,2,1,2,2,1,2,1,1,2,2,1,2,2,1,1,1,1,2,1,1,1,2,2,1,1,1,1,2,1,2,1,2,2,1],"img_shown":["img/250/equaldotanddens/L/3_Ratio_250_L_8_R_2.png","img/750/equaldotsize/R/7_Ratio_750_L_3_R_4.png","img/750/equaldotanddens/L/13_Ratio_750_L_8_R_6.png","img/500/equaldotanddens/R/14_Ratio_500_L_5_R_10.png","img/250/randomdotsizeEA/L/1_Ratio_250_L_8_R_2.png","img/750/equaldotsize/L/8_Ratio_750_L_4_R_3.png","img/750/equaldotanddens/L/8_Ratio_750_L_4_R_3.png","img/750/equaldotsize/L/13_Ratio_750_L_8_R_6.png","img/500/randomdotsizeEA/L/8_Ratio_500_L_8_R_4.png","img/250/equaldotanddens/R/10_Ratio_250_L_4_R_16.png","img/900/equaldotsize/L/2_Ratio_900_L_20_R_18.png","img/250/randomdotsizeEA/R/9_Ratio_250_L_3_R_12.png","img/750/randomdotsizeEA/L/9_Ratio_750_L_4_R_3.png","img/900/equaldotanddens/L/1_Ratio_900_L_10_R_9.png","img/250/randomdotsizeEA/L/7_Ratio_250_L_8_R_2.png","img/500/randomdotsizeEA/L/8_Ratio_500_L_8_R_4.png","img/900/equaldotsize/R/5_Ratio_900_L_9_R_10.png","img/750/equaldotsize/R/12_Ratio_750_L_3_R_4.png","img/500/equaldotsize/R/1_Ratio_500_L_9_R_18.png","img/250/equaldotsize/L/5_Ratio_250_L_24_R_6.png","img/250/randomdotsizeEA/R/11_Ratio_250_L_3_R_12.png","img/750/randomdotsizeEA/R/2_Ratio_750_L_6_R_8.png","img/750/equaldotsize/L/6_Ratio_750_L_24_R_18.png","img/750/randomdotsizeEA/L/10_Ratio_750_L_4_R_3.png","img/500/randomdotsizeEA/R/14_Ratio_500_L_5_R_10.png","img/750/equaldotsize/L/6_Ratio_750_L_24_R_18.png","img/500/equaldotsize/R/2_Ratio_500_L_3_R_6.png","img/250/equaldotanddens/L/7_Ratio_250_L_8_R_2.png","img/900/randomdotsizeEA/R/11_Ratio_900_L_18_R_20.png","img/750/randomdotsizeEA/R/2_Ratio_750_L_6_R_8.png","img/500/randomdotsizeEA/R/6_Ratio_500_L_9_R_18.png","img/750/randomdotsizeEA/L/10_Ratio_750_L_4_R_3.png","img/250/equaldotanddens/L/14_Ratio_250_L_12_R_3.png","img/900/equaldotsize/L/2_Ratio_900_L_20_R_18.png","img/750/randomdotsizeEA/R/15_Ratio_750_L_9_R_12.png","img/900/equaldotsize/L/10_Ratio_900_L_20_R_18.png","img/750/randomdotsizeEA/R/7_Ratio_750_L_3_R_4.png","img/500/equaldotanddens/R/9_Ratio_500_L_2_R_4.png","img/900/equaldotsize/R/6_Ratio_900_L_9_R_10.png","img/500/equaldotsize/R/6_Ratio_500_L_9_R_18.png","img/500/equaldotsize/R/15_Ratio_500_L_1_R_2.png","img/500/randomdotsizeEA/R/2_Ratio_500_L_3_R_6.png","img/900/randomdotsizeEA/L/8_Ratio_900_L_20_R_18.png","img/500/equaldotsize/L/7_Ratio_500_L_10_R_5.png","img/500/equaldotanddens/L/4_Ratio_500_L_18_R_9.png","img/900/equaldotsize/L/10_Ratio_900_L_20_R_18.png","img/500/equaldotanddens/R/2_Ratio_500_L_3_R_6.png","img/900/randomdotsizeEA/L/10_Ratio_900_L_20_R_18.png","img/900/equaldotanddens/R/9_Ratio_900_L_18_R_20.png","img/750/equaldotsize/R/5_Ratio_750_L_15_R_20.png","img/250/equaldotsize/R/11_Ratio_250_L_3_R_12.png","img/500/equaldotsize/R/15_Ratio_500_L_1_R_2.png","img/900/equaldotanddens/L/2_Ratio_900_L_20_R_18.png","img/250/randomdotsizeEA/R/9_Ratio_250_L_3_R_12.png","img/750/equaldotanddens/R/3_Ratio_750_L_15_R_20.png","img/900/equaldotanddens/R/15_Ratio_900_L_9_R_10.png","img/900/randomdotsizeEA/R/3_Ratio_900_L_9_R_10.png","img/500/randomdotsizeEA/R/1_Ratio_500_L_9_R_18.png","img/250/randomdotsizeEA/R/12_Ratio_250_L_5_R_20.png","img/900/equaldotanddens/L/8_Ratio_900_L_20_R_18.png","img/250/equaldotsize/R/4_Ratio_250_L_3_R_12.png","img/500/equaldotsize/L/11_Ratio_500_L_12_R_6.png","img/900/equaldotanddens/L/2_Ratio_900_L_20_R_18.png","img/500/equaldotanddens/R/9_Ratio_500_L_2_R_4.png","img/900/equaldotsize/L/10_Ratio_900_L_20_R_18.png","img/500/equaldotanddens/R/1_Ratio_500_L_9_R_18.png","img/750/equaldotanddens/L/14_Ratio_750_L_8_R_6.png","img/250/equaldotsize/R/4_Ratio_250_L_3_R_12.png","img/250/equaldotsize/R/9_Ratio_250_L_3_R_12.png","img/250/equaldotanddens/R/12_Ratio_250_L_5_R_20.png","img/500/equaldotsize/L/10_Ratio_500_L_4_R_2.png","img/900/equaldotsize/R/15_Ratio_900_L_9_R_10.png","img/750/equaldotanddens/R/7_Ratio_750_L_3_R_4.png","img/750/equaldotanddens/R/2_Ratio_750_L_6_R_8.png","img/250/randomdotsizeEA/L/3_Ratio_250_L_8_R_2.png","img/500/randomdotsizeEA/R/12_Ratio_500_L_1_R_2.png","img/750/randomdotsizeEA/L/13_Ratio_750_L_8_R_6.png","img/750/randomdotsizeEA/R/11_Ratio_750_L_12_R_16.png","img/500/randomdotsizeEA/L/4_Ratio_500_L_18_R_9.png","img/250/equaldotanddens/L/7_Ratio_250_L_8_R_2.png","img/250/equaldotanddens/L/3_Ratio_250_L_8_R_2.png","img/250/equaldotsize/R/11_Ratio_250_L_3_R_12.png","img/500/equaldotsize/L/5_Ratio_500_L_4_R_2.png","img/250/equaldotsize/L/5_Ratio_250_L_24_R_6.png","img/900/equaldotsize/R/3_Ratio_900_L_9_R_10.png","img/500/randomdotsizeEA/R/15_Ratio_500_L_1_R_2.png","img/500/equaldotanddens/R/3_Ratio_500_L_10_R_20.png","img/750/equaldotsize/L/13_Ratio_750_L_8_R_6.png","img/250/equaldotsize/R/11_Ratio_250_L_3_R_12.png","img/900/randomdotsizeEA/R/3_Ratio_900_L_9_R_10.png","img/250/randomdotsizeEA/L/7_Ratio_250_L_8_R_2.png","img/500/equaldotanddens/R/15_Ratio_500_L_1_R_2.png","img/750/randomdotsizeEA/L/8_Ratio_750_L_4_R_3.png","img/900/randomdotsizeEA/L/2_Ratio_900_L_20_R_18.png","img/750/equaldotsize/R/11_Ratio_750_L_12_R_16.png","img/250/equaldotsize/R/9_Ratio_250_L_3_R_12.png","img/900/equaldotanddens/L/1_Ratio_900_L_10_R_9.png","img/250/randomdotsizeEA/R/6_Ratio_250_L_6_R_24.png","img/500/equaldotanddens/R/2_Ratio_500_L_3_R_6.png","img/750/equaldotanddens/L/10_Ratio_750_L_4_R_3.png","img/750/equaldotanddens/L/13_Ratio_750_L_8_R_6.png","img/250/equaldotsize/L/3_Ratio_250_L_8_R_2.png","img/900/randomdotsizeEA/L/4_Ratio_900_L_20_R_18.png","img/750/equaldotanddens/R/3_Ratio_750_L_15_R_20.png","img/900/equaldotanddens/L/2_Ratio_900_L_20_R_18.png","img/500/equaldotanddens/L/11_Ratio_500_L_12_R_6.png","img/900/equaldotsize/L/10_Ratio_900_L_20_R_18.png","img/750/equaldotanddens/R/12_Ratio_750_L_3_R_4.png","img/900/equaldotanddens/R/13_Ratio_900_L_18_R_20.png","img/900/randomdotsizeEA/L/1_Ratio_900_L_10_R_9.png","img/250/equaldotanddens/L/5_Ratio_250_L_24_R_6.png","img/500/equaldotsize/L/7_Ratio_500_L_10_R_5.png","img/500/randomdotsizeEA/L/10_Ratio_500_L_4_R_2.png","img/900/randomdotsizeEA/R/7_Ratio_900_L_9_R_10.png","img/250/equaldotanddens/L/14_Ratio_250_L_12_R_3.png","img/750/equaldotsize/R/7_Ratio_750_L_3_R_4.png","img/900/randomdotsizeEA/L/1_Ratio_900_L_10_R_9.png","img/250/equaldotanddens/R/8_Ratio_250_L_1_R_4.png","img/900/equaldotanddens/R/5_Ratio_900_L_9_R_10.png","img/250/randomdotsizeEA/L/5_Ratio_250_L_24_R_6.png"],"Rat0":[["12_Ratio_0_L_9_R_0.png","13_Ratio_0_L_6_R_0.png","5_Ratio_0_L_2_R_0.png","6_Ratio_0_L_4_R_0.png","8_Ratio_0_L_6_R_0.png"],["1_Ratio_0_L_0_R_17.png","10_Ratio_0_L_0_R_22.png","11_Ratio_0_L_0_R_1.png","14_Ratio_0_L_0_R_24.png","15_Ratio_0_L_0_R_4.png","2_Ratio_0_L_0_R_5.png","3_Ratio_0_L_0_R_17.png","4_Ratio_0_L_0_R_7.png","7_Ratio_0_L_0_R_19.png","9_Ratio_0_L_0_R_15.png"]],"Rat250":[["1_Ratio_250_L_8_R_2.png","14_Ratio_250_L_12_R_3.png","15_Ratio_250_L_12_R_3.png","2_Ratio_250_L_16_R_4.png","3_Ratio_250_L_8_R_2.png","5_Ratio_250_L_24_R_6.png","7_Ratio_250_L_8_R_2.png"],["10_Ratio_250_L_4_R_16.png","11_Ratio_250_L_3_R_12.png","12_Ratio_250_L_5_R_20.png","13_Ratio_250_L_2_R_8.png","4_Ratio_250_L_3_R_12.png","6_Ratio_250_L_6_R_24.png","8_Ratio_250_L_1_R_4.png","9_Ratio_250_L_3_R_12.png"]],"Rat500":[["10_Ratio_500_L_4_R_2.png","11_Ratio_500_L_12_R_6.png","13_Ratio_500_L_12_R_6.png","4_Ratio_500_L_18_R_9.png","5_Ratio_500_L_4_R_2.png","7_Ratio_500_L_10_R_5.png","8_Ratio_500_L_8_R_4.png"],["1_Ratio_500_L_9_R_18.png","12_Ratio_500_L_1_R_2.png","14_Ratio_500_L_5_R_10.png","15_Ratio_500_L_1_R_2.png","2_Ratio_500_L_3_R_6.png","3_Ratio_500_L_10_R_20.png","6_Ratio_500_L_9_R_18.png","9_Ratio_500_L_2_R_4.png"]],"Rat750":[["1_Ratio_750_L_20_R_15.png","10_Ratio_750_L_4_R_3.png","13_Ratio_750_L_8_R_6.png","14_Ratio_750_L_8_R_6.png","6_Ratio_750_L_24_R_18.png","8_Ratio_750_L_4_R_3.png","9_Ratio_750_L_4_R_3.png"],["11_Ratio_750_L_12_R_16.png","12_Ratio_750_L_3_R_4.png","15_Ratio_750_L_9_R_12.png","2_Ratio_750_L_6_R_8.png","3_Ratio_750_L_15_R_20.png","4_Ratio_750_L_15_R_20.png","5_Ratio_750_L_15_R_20.png","7_Ratio_750_L_3_R_4.png"]],"Rat900":[["1_Ratio_900_L_10_R_9.png","10_Ratio_900_L_20_R_18.png","2_Ratio_900_L_20_R_18.png","4_Ratio_900_L_20_R_18.png","8_Ratio_900_L_20_R_18.png"],["11_Ratio_900_L_18_R_20.png","12_Ratio_900_L_18_R_20.png","13_Ratio_900_L_18_R_20.png","14_Ratio_900_L_18_R_20.png","15_Ratio_900_L_9_R_10.png","3_Ratio_900_L_9_R_10.png","5_Ratio_900_L_9_R_10.png","6_Ratio_900_L_9_R_10.png","7_Ratio_900_L_9_R_10.png","9_Ratio_900_L_18_R_20.png"]],"Rat1000":[["10_Ratio_1000_L_16_R_16.png","11_Ratio_1000_L_6_R_6.png","12_Ratio_1000_L_14_R_14.png","13_Ratio_1000_L_20_R_20.png","15_Ratio_1000_L_15_R_15.png","2_Ratio_1000_L_17_R_17.png","4_Ratio_1000_L_9_R_9.png","5_Ratio_1000_L_6_R_6.png","6_Ratio_1000_L_19_R_19.png","8_Ratio_1000_L_14_R_14.png","9_Ratio_1000_L_25_R_25.png"],["1_Ratio_1000_L_1_R_1.png","14_Ratio_1000_L_17_R_17.png","3_Ratio_1000_L_17_R_17.png","7_Ratio_1000_L_6_R_6.png"]]}},{"start_time":1551801321103,"click_time":1551801322641,"finger_time":1551801322161,"fix_duration":779.8565982449701,"trial":1,"RT":1058,"MT":480,"sideResp":2,"stimulus":"img/750/equaldotsize/R/7_Ratio_750_L_3_R_4.png","xmouse":[779,779,779,779,779,779,779,779,779,779,779,779,779,779,779,779,779,779,779,779,779,779,779,779,779,779,779,779,779,779,779,779,779,779,779,779,779,779,779,779,779,779,779,779,779,779,779,779,781,797,815,827,863,904,915,921,928,937,946,952,963,967,982,989,997,1003,1006,1014,1023,1034,1048,1067,1087,1091,1094,1096,1098],"ymouse":[518,518,518,518,518,518,518,518,518,518,518,518,518,518,518,518,518,518,518,518,518,518,518,518,518,518,518,518,518,518,518,518,518,518,518,518,518,518,518,518,518,518,518,518,518,518,518,518,518,511,503,496,469,426,406,384,360,325,307,291,262,247,213,197,185,176,172,164,159,153,146,133,119,112,107,102,99],"timestamp_mouse":[19,39,58,79,98,117,139,158,179,198,218,238,259,278,298,317,337,357,379,397,418,437,458,478,497,519,537,558,578,598,618,638,657,678,698,717,739,757,777,798,818,838,857,877,898,917,937,957,978,997,1019,1038,1058,1078,1098,1117,1137,1158,1177,1199,1218,1237,1259,1277,1298,1317,1338,1359,1378,1397,1417,1437,1458,1477,1498,1519,1538],"xSR":741.5,"ySR":469.95,"xT1":424.9,"yT1":0,"xT2":1058.1,"yT2":0,"toosoon":0,"cond_shown":"equaldotsize","ratio_trial":750,"smaller_num":"3","larger_num":"4","correct_side":2,"subjID":"JohanSebastianCarvajalSalazar34","gender":"0","age":"12","school":"6"},{"start_time":1551801324232,"click_time":1551801325680,"finger_time":1551801325062,"fix_duration":449.9355171504118,"trial":2,"RT":830,"MT":618,"sideResp":1,"stimulus":"img/750/equaldotanddens/L/13_Ratio_750_L_8_R_6.png","xmouse":[794,794,794,794,794,794,794,794,794,794,794,794,794,794,794,794,794,794,794,794,794,794,794,794,794,794,794,794,794,794,794,794,794,794,794,794,794,794,794,794,795,785,768,753,740,728,717,713,708,704,698,694,677,668,661,645,636,613,599,584,571,548,536,526,519,514,509,506,505,504,503,503,503],"ymouse":[512,512,512,512,512,512,512,512,512,512,512,512,512,512,512,512,512,512,512,512,512,512,512,512,512,512,512,512,512,512,512,512,512,512,512,512,512,512,512,512,501,464,427,397,372,345,320,313,306,301,295,288,268,257,246,232,227,212,204,195,188,173,166,159,152,144,134,129,121,116,110,100,96],"timestamp_mouse":[13,29,49,69,88,110,129,149,168,189,209,229,250,268,290,310,328,349,369,389,409,429,449,468,490,508,528,550,569,588,608,629,648,670,689,709,728,750,769,790,808,830,848,869,888,909,930,948,969,990,1009,1029,1049,1069,1090,1108,1128,1148,1168,1188,1208,1230,1249,1269,1288,1308,1330,1348,1368,1389,1408,1430,1448],"xSR":741.5,"ySR":469.95,"xT1":424.9,"yT1":0,"xT2":1058.1,"yT2":0,"toosoon":0,"cond_shown":"equaldotanddens","ratio_trial":750,"smaller_num":"6","larger_num":"8","correct_side":1,"subjID":"JohanSebastianCarvajalSalazar34","gender":"0","age":"12","school":"6"},{"start_time":1551801326892,"click_time":1551801328260,"finger_time":1551801327600,"fix_duration":250,"trial":3,"RT":708,"MT":660,"sideResp":2,"stimulus":"img/500/equaldotanddens/R/14_Ratio_500_L_5_R_10.png","xmouse":[799,799,799,799,799,799,799,799,799,799,799,799,799,799,799,799,799,799,799,799,799,799,799,799,799,799,799,799,799,799,799,800,803,808,832,848,863,877,897,907,916,927,941,950,970,978,986,997,1007,1030,1046,1061,1081,1092,1103,1107,1107,1108,1108,1108,1108,1108,1108,1108,1108,1108,1108,1108,1108],"ymouse":[539,539,539,539,539,539,539,539,539,539,539,539,539,539,539,539,539,539,539,539,539,539,539,539,539,539,539,539,539,539,539,538,535,530,506,492,478,462,439,428,414,397,375,362,335,320,305,286,270,236,217,200,177,164,138,128,123,122,122,122,121,119,117,115,111,108,106,103,98],"timestamp_mouse":[8,38,49,69,89,108,128,149,169,189,208,229,248,268,289,308,328,349,368,388,409,428,450,468,488,510,529,548,570,589,609,628,648,668,689,708,730,748,769,789,809,829,848,868,889,908,929,948,968,988,1009,1028,1049,1068,1088,1108,1129,1150,1170,1190,1210,1229,1249,1270,1289,1308,1329,1349,1368],"xSR":741.5,"ySR":469.95,"xT1":424.9,"yT1":0,"xT2":1058.1,"yT2":0,"toosoon":0,"cond_shown":"equaldotanddens","ratio_trial":500,"smaller_num":"5","larger_num":"10","correct_side":2,"subjID":"JohanSebastianCarvajalSalazar34","gender":"0","age":"12","school":"6"},{"start_time":1551801330216,"click_time":1551801331762,"finger_time":1551801331422,"fix_duration":1015.3033324204214,"trial":4,"RT":1206,"MT":340,"sideResp":2,"stimulus":"img/250/randomdotsizeEA/L/1_Ratio_250_L_8_R_2.png","xmouse":[815,815,815,815,815,815,815,815,815,815,815,815,815,815,815,815,815,815,815,815,815,815,815,815,815,815,815,815,815,815,815,815,815,815,815,815,815,815,815,815,815,815,815,815,815,815,815,815,815,815,815,815,815,815,815,815,817,824,827,832,840,845,851,867,877,880,892,911,930,954,982,1010,1054,1069,1076,1082,1093,1107],"ymouse":[523,523,523,523,523,523,523,523,523,523,523,523,523,523,523,523,523,523,523,523,523,523,523,523,523,523,523,523,523,523,523,523,523,523,523,523,523,523,523,523,523,523,523,523,523,523,523,523,523,523,523,523,523,523,523,523,523,506,496,470,413,382,348,288,264,257,237,212,196,182,168,155,136,129,124,119,110,98],"timestamp_mouse":[9,39,44,64,86,104,126,146,164,184,206,224,246,265,285,304,325,344,364,385,405,424,445,465,485,505,524,546,565,585,605,625,645,664,684,704,725,744,766,784,805,825,844,865,886,906,924,945,964,985,1005,1025,1044,1065,1086,1105,1126,1145,1164,1184,1206,1226,1244,1264,1285,1304,1324,1346,1364,1384,1404,1424,1446,1465,1484,1505,1524,1545],"xSR":741.5,"ySR":469.95,"xT1":424.9,"yT1":0,"xT2":1058.1,"yT2":0,"toosoon":0,"cond_shown":"randomdotsizeEA","ratio_trial":250,"smaller_num":"2","larger_num":"8","correct_side":1,"subjID":"JohanSebastianCarvajalSalazar34","gender":"0","age":"12","school":"6"},{"start_time":1551801333801,"click_time":1551801336063,"finger_time":1551801335562,"fix_duration":719.7382362563894,"trial":5,"RT":1761,"MT":501,"sideResp":1,"stimulus":"img/750/equaldotsize/L/8_Ratio_750_L_4_R_3.png","xmouse":[768,768,767,767,767,767,767,767,767,767,766,765,763,762,761,761,760,759,758,757,755,754,753,753,753,752,751,750,750,749,748,748,748,748,748,747,747,747,747,747,747,747,747,747,747,747,747,747,747,747,747,747,747,747,747,747,747,747,747,747,747,747,747,747,747,747,747,747,747,747,747,747,747,747,747,747,747,747,747,747,747,747,747,747,747,747,743,703,670,633,598,578,558,555,551,547,540,538,537,537,537,537,537,537,537,533,529,526,519,515,509,504,492],"ymouse":[551,551,551,551,551,550,550,549,548,547,545,544,541,538,538,538,537,537,536,536,535,535,535,535,535,534,533,533,533,533,532,532,532,532,532,531,531,531,531,531,531,531,531,531,531,531,531,531,531,531,531,531,531,531,531,531,531,531,531,531,531,531,531,531,531,531,531,531,531,531,531,531,531,531,531,531,531,531,531,531,531,531,531,531,531,529,517,423,380,338,299,278,257,254,249,245,238,234,226,221,216,209,192,182,176,167,160,156,146,139,127,113,76],"timestamp_mouse":[21,41,61,79,101,119,140,160,180,200,220,239,260,281,300,320,341,359,379,399,420,439,460,480,500,519,540,560,580,599,620,640,659,680,700,721,739,760,779,800,819,841,859,880,900,919,940,960,980,1000,1021,1040,1060,1080,1100,1121,1140,1160,1181,1200,1220,1239,1260,1279,1300,1320,1339,1359,1380,1400,1420,1440,1460,1480,1500,1521,1541,1560,1580,1599,1621,1640,1659,1680,1700,1720,1740,1761,1780,1799,1820,1839,1860,1879,1900,1920,1939,1961,1981,1999,2020,2040,2061,2080,2100,2119,2140,2159,2179,2199,2221,2241,2262],"xSR":741.5,"ySR":469.95,"xT1":424.9,"yT1":0,"xT2":1058.1,"yT2":0,"toosoon":0,"cond_shown":"equaldotsize","ratio_trial":750,"smaller_num":"3","larger_num":"4","correct_side":1,"subjID":"JohanSebastianCarvajalSalazar34","gender":"0","age":"12","school":"6"},{"start_time":1551801337434,"click_time":1551801339560,"finger_time":1551801339281,"fix_duration":391.8216675266197,"trial":6,"RT":1847,"MT":279,"sideResp":1,"stimulus":"img/750/equaldotanddens/L/8_Ratio_750_L_4_R_3.png","xmouse":[794,794,794,794,794,794,794,794,794,794,794,794,794,794,794,794,794,794,794,794,794,794,794,794,794,794,794,794,795,795,796,796,796,796,796,796,797,797,797,798,798,798,798,798,798,798,798,798,798,798,798,798,798,798,798,799,799,799,799,799,799,799,799,799,799,799,799,799,799,799,799,799,799,799,799,799,799,799,799,799,799,799,799,799,799,799,799,798,794,786,773,761,738,726,717,711,710,705,696,684,670,655,619,595,578,543,516],"ymouse":[514,514,514,514,514,514,514,514,514,514,514,514,514,514,514,514,514,514,514,514,514,514,514,514,514,514,514,514,514,514,514,514,514,514,514,514,514,514,514,514,514,514,514,514,514,514,514,514,514,514,514,514,514,514,514,514,514,514,514,514,514,514,514,514,514,514,514,514,514,514,514,514,514,514,514,514,514,514,514,514,514,514,514,514,514,515,516,516,513,506,488,472,440,422,405,387,380,359,343,322,298,272,222,204,187,133,92],"timestamp_mouse":[9,39,46,68,87,107,126,148,166,188,207,227,247,267,287,307,328,346,368,386,408,427,446,468,487,508,527,547,566,587,606,627,647,666,687,707,727,748,767,787,807,827,847,867,887,907,927,947,967,988,1007,1027,1047,1068,1087,1107,1127,1147,1167,1188,1208,1227,1247,1268,1287,1307,1327,1348,1367,1386,1407,1428,1446,1468,1486,1506,1526,1546,1566,1588,1607,1627,1648,1667,1687,1707,1727,1747,1768,1787,1807,1827,1847,1868,1887,1907,1928,1947,1966,1986,2006,2026,2048,2067,2088,2106,2126],"xSR":741.5,"ySR":469.95,"xT1":424.9,"yT1":0,"xT2":1058.1,"yT2":0,"toosoon":0,"cond_shown":"equaldotanddens","ratio_trial":750,"smaller_num":"3","larger_num":"4","correct_side":1,"subjID":"JohanSebastianCarvajalSalazar34","gender":"0","age":"12","school":"6"},{"start_time":1551801341418,"click_time":1551801342581,"finger_time":1551801342200,"fix_duration":956.2963139560655,"trial":7,"RT":782,"MT":381,"sideResp":1,"stimulus":"img/750/equaldotsize/L/13_Ratio_750_L_8_R_6.png","xmouse":[802,802,802,802,802,802,802,802,802,803,803,804,804,804,804,804,804,804,804,804,805,805,805,805,805,805,805,805,805,805,805,805,805,806,806,806,801,796,778,760,731,702,683,661,655,650,646,624,615,608,600,593,581,574,563,551,535,528,520],"ymouse":[540,540,540,540,540,540,540,540,540,540,540,541,541,541,541,541,541,541,541,541,542,542,542,542,542,542,542,542,542,542,542,542,542,542,542,541,535,525,491,461,413,363,322,255,230,197,177,124,105,91,78,70,64,63,63,61,61,61,61],"timestamp_mouse":[10,24,44,63,83,103,123,144,162,183,204,222,243,264,282,302,323,343,364,383,403,423,444,462,483,504,522,543,564,584,603,624,643,663,683,702,723,743,762,782,804,824,842,862,883,902,924,944,962,983,1003,1023,1044,1063,1083,1103,1122,1142,1163],"xSR":741.5,"ySR":469.95,"xT1":424.9,"yT1":0,"xT2":1058.1,"yT2":0,"toosoon":0,"cond_shown":"equaldotsize","ratio_trial":750,"smaller_num":"6","larger_num":"8","correct_side":1,"subjID":"JohanSebastianCarvajalSalazar34","gender":"0","age":"12","school":"6"},{"start_time":1551801344329,"click_time":1551801345741,"finger_time":1551801345380,"fix_duration":866.2180506456507,"trial":8,"RT":1051,"MT":361,"sideResp":1,"stimulus":"img/500/randomdotsizeEA/L/8_Ratio_500_L_8_R_4.png","xmouse":[801,801,801,801,801,801,801,801,801,801,801,801,801,801,801,801,801,801,801,801,801,801,801,802,803,803,803,803,803,803,803,803,803,803,803,803,803,803,803,803,803,803,803,803,803,803,803,803,803,799,791,773,704,672,650,633,609,603,598,593,586,578,577,576,575,572,564,539,524,486,425],"ymouse":[530,530,530,530,530,530,530,530,530,530,530,530,530,530,530,530,530,530,530,530,530,530,530,530,531,531,531,531,531,531,531,531,531,531,531,531,531,531,531,531,531,531,531,531,531,531,531,531,531,529,525,517,480,462,448,435,409,396,383,366,344,317,306,295,284,270,251,210,191,157,95],"timestamp_mouse":[13,40,52,72,92,111,133,153,171,192,211,232,251,273,292,312,333,353,371,393,413,433,452,472,492,513,531,552,572,591,612,632,653,671,691,712,731,753,771,791,813,831,853,872,892,912,932,952,973,992,1013,1032,1051,1071,1093,1111,1132,1152,1172,1193,1212,1233,1251,1272,1292,1311,1331,1351,1371,1391,1412],"xSR":741.5,"ySR":469.95,"xT1":424.9,"yT1":0,"xT2":1058.1,"yT2":0,"toosoon":0,"cond_shown":"randomdotsizeEA","ratio_trial":500,"smaller_num":"4","larger_num":"8","correct_side":1,"subjID":"JohanSebastianCarvajalSalazar34","gender":"0","age":"12","school":"6"},{"start_time":1551801347719,"click_time":1551801349062,"finger_time":1551801348640,"fix_duration":834.0982934900044,"trial":9,"RT":921,"MT":422,"sideResp":2,"stimulus":"img/250/equaldotanddens/R/10_Ratio_250_L_4_R_16.png","xmouse":[756,756,756,756,756,756,756,756,756,756,756,756,756,756,756,756,756,756,756,756,756,756,756,756,756,756,756,756,756,756,756,756,756,756,756,756,756,756,757,761,765,773,796,811,827,838,846,856,876,889,903,925,939,956,962,966,969,972,983,997,1002,1013,1030,1042,1054,1066,1074,1087],"ymouse":[510,510,510,510,510,510,510,510,510,510,510,510,510,510,510,510,510,510,510,510,510,510,510,510,510,510,510,510,510,510,510,510,510,510,510,510,510,510,510,510,510,507,500,494,485,476,460,438,390,366,340,302,279,243,230,221,215,208,192,175,170,154,136,126,118,109,103,88],"timestamp_mouse":[11,21,41,61,82,102,122,142,163,183,203,222,241,262,283,301,322,342,361,382,402,422,441,463,481,503,522,542,561,582,602,623,642,661,682,702,722,743,761,782,801,823,843,861,881,901,921,941,962,981,1001,1022,1041,1061,1081,1101,1121,1143,1162,1182,1202,1222,1242,1261,1282,1301,1321,1343],"xSR":741.5,"ySR":469.95,"xT1":424.9,"yT1":0,"xT2":1058.1,"yT2":0,"toosoon":0,"cond_shown":"equaldotanddens","ratio_trial":250,"smaller_num":"4","larger_num":"16","correct_side":2,"subjID":"JohanSebastianCarvajalSalazar34","gender":"0","age":"12","school":"6"},{"start_time":1551801350763,"click_time":1551801352381,"finger_time":1551801352162,"fix_duration":881.742157940633,"trial":10,"RT":1399,"MT":219,"sideResp":1,"stimulus":"img/900/equaldotsize/L/2_Ratio_900_L_20_R_18.png","xmouse":[805,805,805,805,805,805,805,805,805,805,805,805,805,805,805,805,805,805,805,805,805,805,805,805,805,805,805,805,805,805,805,805,805,805,805,805,805,805,805,805,805,805,805,805,805,805,805,805,805,806,810,812,814,814,814,814,814,814,814,814,814,814,814,814,814,814,814,814,812,779,748,712,677,647,626,596,587,577,558,545,479],"ymouse":[517,517,517,517,517,517,517,517,517,517,517,517,517,517,517,517,517,517,517,517,517,517,517,517,517,517,517,517,517,517,517,517,517,517,517,517,517,517,517,517,517,517,517,517,517,517,517,517,517,518,515,514,513,513,513,513,513,513,513,513,513,513,513,513,513,513,512,511,490,417,369,319,283,256,240,215,205,192,169,151,70],"timestamp_mouse":[17,41,58,77,99,119,139,158,177,199,219,239,258,278,299,318,339,357,378,398,418,438,458,477,499,518,537,557,579,597,619,637,657,678,697,719,738,757,777,798,819,839,857,879,898,919,938,958,978,998,1017,1038,1059,1079,1097,1119,1139,1158,1179,1198,1218,1238,1259,1278,1298,1319,1337,1358,1378,1399,1417,1438,1459,1478,1497,1517,1538,1558,1578,1597,1617],"xSR":741.5,"ySR":469.95,"xT1":424.9,"yT1":0,"xT2":1058.1,"yT2":0,"toosoon":0,"cond_shown":"equaldotsize","ratio_trial":900,"smaller_num":"18","larger_num":"20","correct_side":1,"subjID":"JohanSebastianCarvajalSalazar34","gender":"0","age":"12","school":"6"},{"start_time":1551801354653,"click_time":1551801356363,"finger_time":1551801356101,"fix_duration":1431.072936472825,"trial":11,"RT":1448,"MT":262,"sideResp":2,"stimulus":"img/250/randomdotsizeEA/R/9_Ratio_250_L_3_R_12.png","xmouse":[783,783,783,783,783,783,783,783,784,784,784,784,784,784,784,785,785,786,788,788,788,788,788,788,788,788,788,788,788,788,788,788,788,788,788,788,788,788,788,788,788,788,788,788,788,788,788,788,788,788,788,788,788,788,788,788,788,788,788,788,788,788,788,788,788,788,788,788,788,789,793,795,802,807,827,865,884,903,918,932,960,975,1003,1035,1087,1128],"ymouse":[545,545,545,545,545,545,545,545,545,545,545,545,545,545,545,545,545,545,545,545,545,545,545,545,545,545,545,545,545,545,545,545,545,545,545,545,545,545,545,545,545,545,545,545,545,545,545,545,545,545,545,545,545,545,545,545,545,545,545,545,545,545,545,545,545,545,545,544,541,536,512,495,456,437,383,310,282,259,240,223,190,178,157,139,111,91],"timestamp_mouse":[8,39,48,68,88,108,128,148,168,187,208,227,249,268,288,308,328,347,368,388,409,428,448,469,489,509,529,548,568,587,609,629,647,668,687,708,729,747,769,788,808,827,849,869,887,908,928,948,969,987,1009,1028,1047,1069,1089,1109,1128,1147,1169,1190,1209,1228,1248,1269,1287,1309,1329,1348,1367,1388,1409,1427,1448,1467,1488,1509,1528,1548,1567,1587,1608,1627,1648,1668,1689,1709],"xSR":741.5,"ySR":469.95,"xT1":424.9,"yT1":0,"xT2":1058.1,"yT2":0,"toosoon":0,"cond_shown":"randomdotsizeEA","ratio_trial":250,"smaller_num":"3","larger_num":"12","correct_side":2,"subjID":"JohanSebastianCarvajalSalazar34","gender":"0","age":"12","school":"6"},{"start_time":1551801357680,"click_time":1551801359201,"finger_time":1551801358702,"fix_duration":278.13904912710484,"trial":12,"RT":1022,"MT":499,"sideResp":2,"stimulus":"img/750/randomdotsizeEA/L/9_Ratio_750_L_4_R_3.png","xmouse":[792,792,792,792,792,792,792,792,792,792,792,792,792,792,792,792,792,792,793,794,794,794,794,794,794,794,794,794,794,794,794,794,794,794,794,794,794,794,795,796,796,796,796,796,796,798,800,800,803,806,814,821,829,835,843,848,850,850,850,856,862,868,879,895,903,920,926,930,933,936,948,982,1014,1042,1051,1056,1061],"ymouse":[503,503,503,503,503,503,503,503,503,503,503,503,503,503,503,503,503,503,503,503,503,503,503,503,503,503,503,503,503,503,503,503,502,502,502,502,502,502,501,501,501,501,501,501,501,500,498,496,493,488,471,458,439,421,397,358,335,309,284,233,211,193,173,155,146,130,124,120,111,103,88,78,71,61,58,57,57],"timestamp_mouse":[9,21,41,64,80,101,121,141,161,181,201,220,240,261,282,301,320,341,361,380,401,422,441,461,482,500,521,542,561,581,601,621,641,662,681,702,721,741,762,780,801,820,842,860,881,901,920,941,962,980,1001,1022,1042,1061,1080,1100,1122,1141,1161,1181,1200,1221,1241,1261,1280,1301,1322,1342,1362,1380,1400,1421,1441,1460,1482,1500,1520],"xSR":741.5,"ySR":469.95,"xT1":424.9,"yT1":0,"xT2":1058.1,"yT2":0,"toosoon":0,"cond_shown":"randomdotsizeEA","ratio_trial":750,"smaller_num":"3","larger_num":"4","correct_side":1,"subjID":"JohanSebastianCarvajalSalazar34","gender":"0","age":"12","school":"6"},{"start_time":1551801361650,"click_time":1551801362901,"finger_time":1551801362422,"fix_duration":1487.328556300653,"trial":13,"RT":772,"MT":479,"sideResp":1,"stimulus":"img/900/equaldotanddens/L/1_Ratio_900_L_10_R_9.png","xmouse":[755,755,755,755,755,755,755,755,755,755,755,755,755,755,755,755,755,755,755,755,755,755,755,755,755,755,755,755,755,755,755,755,755,755,755,755,755,755,754,749,744,734,719,711,679,623,600,580,567,557,548,546,545,544,544,544,544,544,544,542,534,529,524],"ymouse":[484,484,484,484,484,484,484,484,484,484,484,484,484,484,484,484,484,484,484,484,484,484,484,484,484,484,484,484,484,484,484,484,484,484,484,484,483,473,460,448,436,404,367,352,301,226,195,165,142,124,104,100,97,95,95,95,95,95,94,93,90,89,88],"timestamp_mouse":[11,36,51,71,90,112,131,150,172,192,211,231,251,272,290,311,331,352,370,390,411,431,452,471,491,511,532,551,570,592,612,632,651,671,691,711,731,750,772,791,811,830,851,871,891,912,931,950,970,990,1012,1030,1052,1070,1090,1112,1131,1151,1170,1191,1212,1230,1250],"xSR":741.5,"ySR":469.95,"xT1":424.9,"yT1":0,"xT2":1058.1,"yT2":0,"toosoon":0,"cond_shown":"equaldotanddens","ratio_trial":900,"smaller_num":"9","larger_num":"10","correct_side":1,"subjID":"JohanSebastianCarvajalSalazar34","gender":"0","age":"12","school":"6"},{"start_time":1551801366187,"click_time":1551801367881,"finger_time":1551801367181,"fix_duration":1005.0203743956998,"trial":14,"RT":994,"MT":700,"sideResp":1,"stimulus":"img/250/randomdotsizeEA/L/7_Ratio_250_L_8_R_2.png","xmouse":[798,798,798,798,798,798,798,798,798,798,798,798,798,798,798,798,798,798,798,798,798,798,798,798,798,798,798,798,798,798,798,798,798,798,798,798,798,798,798,798,798,798,798,798,798,798,798,798,795,776,762,750,739,732,715,709,706,703,696,685,679,668,660,648,637,626,618,604,589,578,572,566,560,545,535,525,514,510,504,502,500,497,494,485,482],"ymouse":[498,498,498,498,498,498,498,498,498,498,498,498,498,498,498,498,498,498,498,498,498,498,498,498,498,498,498,498,498,498,498,498,498,498,498,498,498,498,498,498,498,498,498,498,498,498,498,498,495,463,443,425,409,396,372,364,359,356,349,336,329,318,306,281,264,250,238,222,208,201,197,193,188,172,163,152,141,137,130,126,123,119,112,102,98],"timestamp_mouse":[16,44,54,73,94,115,135,154,174,194,215,234,255,275,294,314,333,354,374,394,413,434,454,474,494,514,534,554,574,594,615,635,655,673,694,714,735,755,775,795,814,834,853,875,895,913,934,953,974,994,1013,1033,1053,1073,1094,1113,1134,1155,1174,1195,1214,1233,1253,1274,1294,1313,1335,1353,1375,1394,1413,1435,1455,1474,1493,1514,1534,1555,1575,1593,1614,1633,1653,1675,1694],"xSR":741.5,"ySR":469.95,"xT1":424.9,"yT1":0,"xT2":1058.1,"yT2":0,"toosoon":0,"cond_shown":"randomdotsizeEA","ratio_trial":250,"smaller_num":"2","larger_num":"8","correct_side":1,"subjID":"JohanSebastianCarvajalSalazar34","gender":"0","age":"12","school":"6"},{"start_time":1551801369412,"click_time":1551801371842,"finger_time":1551801371241,"fix_duration":490.8980526981991,"trial":15,"RT":1829,"MT":601,"sideResp":1,"stimulus":"img/500/randomdotsizeEA/L/8_Ratio_500_L_8_R_4.png","xmouse":[816,816,816,816,816,816,816,816,816,816,816,816,816,816,816,816,816,816,816,816,816,816,816,816,816,816,816,816,816,816,816,816,816,816,816,816,816,816,816,816,816,816,816,816,816,816,816,816,816,816,816,816,816,816,816,816,816,816,816,816,816,816,816,816,816,816,816,816,816,816,816,816,816,816,816,816,816,816,816,816,816,816,816,816,816,816,816,816,803,786,768,749,715,701,690,683,680,676,673,669,667,664,660,653,646,646,642,640,631,623,599,573,552,546,545,544,541,529,515,500,488,479],"ymouse":[529,529,529,529,529,526,524,522,516,515,515,515,515,515,515,514,513,512,512,512,512,512,512,512,512,512,512,512,512,512,512,512,512,512,512,512,512,512,512,512,512,512,512,512,512,512,512,512,512,512,512,512,512,512,512,512,512,512,512,512,512,512,512,512,512,512,512,512,512,512,512,512,512,512,512,512,512,512,512,512,512,512,512,512,512,512,512,510,503,493,482,469,434,416,400,391,381,359,350,341,335,329,322,313,306,305,299,295,280,269,229,199,172,161,160,158,155,141,127,114,104,94],"timestamp_mouse":[10,32,50,70,88,109,129,149,170,188,209,230,249,269,290,309,328,349,368,389,410,430,450,468,489,510,528,548,570,588,609,629,649,668,690,708,730,750,769,789,810,829,848,869,889,910,928,950,970,988,1010,1030,1049,1070,1088,1109,1128,1149,1170,1188,1209,1229,1249,1268,1289,1309,1330,1349,1369,1389,1409,1430,1449,1469,1489,1510,1530,1549,1570,1588,1609,1630,1648,1668,1689,1709,1729,1749,1769,1788,1810,1829,1851,1869,1889,1908,1930,1950,1969,1989,2008,2028,2048,2068,2089,2108,2129,2148,2168,2188,2208,2228,2250,2269,2289,2308,2328,2350,2368,2388,2410,2430],"xSR":741.5,"ySR":469.95,"xT1":424.9,"yT1":0,"xT2":1058.1,"yT2":0,"toosoon":0,"cond_shown":"randomdotsizeEA","ratio_trial":500,"smaller_num":"4","larger_num":"8","correct_side":1,"subjID":"JohanSebastianCarvajalSalazar34","gender":"0","age":"12","school":"6"},{"start_time":1551801373651,"click_time":1551801374541,"finger_time":1551801374280,"fix_duration":848.1526508736904,"trial":16,"RT":629,"MT":261,"sideResp":2,"stimulus":"img/900/equaldotsize/R/5_Ratio_900_L_9_R_10.png","xmouse":[823,823,823,823,823,823,823,823,823,823,823,823,823,823,823,823,823,823,823,823,823,823,823,823,823,823,823,823,823,824,829,859,870,878,896,913,962,994,1027,1061,1102,1111,1120,1125,1130],"ymouse":[541,541,541,541,541,541,541,541,541,541,541,541,541,541,541,541,541,541,541,541,541,541,541,541,541,541,541,541,541,541,538,497,478,459,421,390,321,281,246,211,163,145,126,110,90],"timestamp_mouse":[9,29,50,71,89,111,131,149,169,190,209,231,250,270,291,309,329,349,371,389,409,431,450,471,490,510,529,551,570,590,611,629,650,671,690,709,731,750,770,790,811,829,850,869,890],"xSR":741.5,"ySR":469.95,"xT1":424.9,"yT1":0,"xT2":1058.1,"yT2":0,"toosoon":0,"cond_shown":"equaldotsize","ratio_trial":900,"smaller_num":"9","larger_num":"10","correct_side":2,"subjID":"JohanSebastianCarvajalSalazar34","gender":"0","age":"12","school":"6"},{"start_time":1551801376434,"click_time":1551801377541,"finger_time":1551801377381,"fix_duration":1071.3943470286333,"trial":17,"RT":947,"MT":160,"sideResp":2,"stimulus":"img/750/equaldotsize/R/12_Ratio_750_L_3_R_4.png","xmouse":[798,798,798,798,798,798,798,798,798,798,798,798,798,798,798,798,798,798,798,798,798,798,798,798,798,798,798,798,798,798,798,798,798,798,798,798,798,798,798,798,798,798,798,798,798,799,813,860,898,932,961,996,1058,1084,1099,1108],"ymouse":[521,521,521,521,521,521,521,521,521,521,521,521,521,521,521,521,521,521,521,521,521,521,521,521,521,521,521,521,521,521,521,521,521,521,521,521,521,521,521,521,521,521,521,521,521,521,510,475,441,399,358,308,190,138,100,64],"timestamp_mouse":[9,26,47,66,88,107,126,147,166,188,207,228,246,267,287,307,327,346,368,386,407,427,447,467,487,507,527,547,568,588,608,627,647,668,688,707,728,746,767,788,807,827,848,868,887,907,927,947,967,986,1006,1027,1047,1067,1087,1107],"xSR":741.5,"ySR":469.95,"xT1":424.9,"yT1":0,"xT2":1058.1,"yT2":0,"toosoon":0,"cond_shown":"equaldotsize","ratio_trial":750,"smaller_num":"3","larger_num":"4","correct_side":2,"subjID":"JohanSebastianCarvajalSalazar34","gender":"0","age":"12","school":"6"},{"start_time":1551801380318,"click_time":1551801381263,"finger_time":1551801380962,"fix_duration":1215.2235946749681,"trial":18,"RT":644,"MT":301,"sideResp":2,"stimulus":"img/500/equaldotsize/R/1_Ratio_500_L_9_R_18.png","xmouse":[773,773,773,773,773,773,773,773,773,773,773,773,773,773,773,773,773,773,773,773,773,773,773,773,773,773,773,773,773,777,796,820,874,899,920,944,961,976,1001,1013,1025,1034,1055,1062,1069,1076,1083,1093],"ymouse":[532,532,532,532,532,532,532,532,532,532,532,532,532,532,532,532,532,532,532,532,532,532,532,532,532,532,532,532,532,526,514,503,477,460,441,389,348,320,271,248,228,211,163,149,133,122,110,87],"timestamp_mouse":[12,23,43,63,83,102,124,143,163,182,203,222,244,263,284,302,323,343,364,383,403,423,442,464,483,503,523,543,562,583,603,622,644,662,683,702,722,743,763,782,803,823,843,862,882,902,923,945],"xSR":741.5,"ySR":469.95,"xT1":424.9,"yT1":0,"xT2":1058.1,"yT2":0,"toosoon":0,"cond_shown":"equaldotsize","ratio_trial":500,"smaller_num":"9","larger_num":"18","correct_side":2,"subjID":"JohanSebastianCarvajalSalazar34","gender":"0","age":"12","school":"6"},{"start_time":1551801383132,"click_time":1551801384281,"finger_time":1551801383602,"fix_duration":890.1044602975861,"trial":19,"RT":470,"MT":679,"sideResp":1,"stimulus":"img/250/equaldotsize/L/5_Ratio_250_L_24_R_6.png","xmouse":[742,742,742,742,742,742,742,742,742,742,742,742,742,742,742,742,742,747,749,753,757,757,759,760,760,760,760,752,746,736,714,655,591,515,438,373,319,305,305,305,305,305,305,305,305,305,305,305,305,305,305,305,305,305,305,305,512,512],"ymouse":[531,531,531,531,531,531,531,531,531,531,531,531,531,531,531,525,522,512,509,504,499,498,489,457,433,426,423,411,404,394,377,323,270,221,175,134,67,10,10,10,10,10,10,10,10,10,10,10,10,10,10,10,10,10,10,10,0,6],"timestamp_mouse":[8,36,48,68,89,109,128,149,169,189,209,230,249,269,288,309,328,348,368,388,409,428,449,470,488,509,528,549,569,590,609,629,648,670,688,708,730,748,769,790,809,830,850,869,889,909,929,948,970,990,1010,1029,1049,1069,1089,1110,1129,1149],"xSR":741.5,"ySR":469.95,"xT1":424.9,"yT1":0,"xT2":1058.1,"yT2":0,"toosoon":0,"cond_shown":"equaldotsize","ratio_trial":250,"smaller_num":"6","larger_num":"24","correct_side":1,"subjID":"JohanSebastianCarvajalSalazar34","gender":"0","age":"12","school":"6"},{"start_time":1551801386102,"click_time":1551801387681,"finger_time":1551801386740,"fix_duration":1020.7793647842553,"trial":20,"RT":638,"MT":941,"sideResp":2,"stimulus":"img/250/randomdotsizeEA/R/11_Ratio_250_L_3_R_12.png","xmouse":[780,780,780,780,780,780,780,780,780,780,780,780,780,780,780,780,780,780,780,780,780,780,780,780,780,780,780,780,779,774,750,732,709,694,679,663,658,644,640,637,634,628,609,599,587,571,567,556,555,554,554,554,554,554,554,554,554,554,554,569,586,608,650,666,678,686,689,706,719,734,775,817,865,981,1035,1080,1102,1124,1125],"ymouse":[534,534,534,534,534,534,534,534,534,534,534,534,534,534,534,534,534,534,534,534,534,534,534,534,534,534,534,531,518,510,475,456,437,424,412,391,385,366,360,357,351,342,307,290,269,239,232,214,210,210,210,210,210,210,210,210,210,210,210,216,229,246,274,286,295,300,303,311,312,312,305,292,270,209,173,141,126,102,97],"timestamp_mouse":[18,38,60,79,98,119,138,158,178,199,219,239,259,280,299,319,338,358,379,399,419,438,459,479,499,518,538,560,578,600,619,638,660,679,699,718,739,760,779,798,818,839,859,878,898,920,940,959,979,998,1018,1040,1060,1079,1100,1118,1140,1159,1179,1200,1219,1238,1260,1279,1300,1318,1339,1360,1378,1399,1419,1440,1458,1479,1499,1519,1539,1560,1579],"xSR":741.5,"ySR":469.95,"xT1":424.9,"yT1":0,"xT2":1058.1,"yT2":0,"toosoon":0,"cond_shown":"randomdotsizeEA","ratio_trial":250,"smaller_num":"3","larger_num":"12","correct_side":2,"subjID":"JohanSebastianCarvajalSalazar34","gender":"0","age":"12","school":"6"},{"start_time":1551801389460,"click_time":1551801391741,"finger_time":1551801390421,"fix_duration":458.69197854152435,"trial":21,"RT":961,"MT":1320,"sideResp":2,"stimulus":"img/750/randomdotsizeEA/R/2_Ratio_750_L_6_R_8.png","xmouse":[814,814,814,814,814,814,814,814,814,814,814,814,814,814,814,814,814,814,814,814,814,814,814,814,814,814,814,814,814,814,814,814,814,814,814,814,814,814,814,814,814,814,814,815,820,829,833,838,843,848,860,870,874,880,883,893,895,899,902,905,905,907,908,908,908,907,906,905,903,900,888,878,862,854,848,837,834,830,825,821,821,834,857,907,962,1000,1013,1020,1021,1023,1025,1027,1031,1033,1033,1033,1033,1033,1033,1033,1033,1036,1040,1046,1048,1050,1052,1053,1054,1056,1057,1057,1058,1058,1060],"ymouse":[533,533,533,533,533,533,533,533,533,533,533,533,533,533,533,533,533,533,533,533,533,533,533,533,533,533,533,533,533,533,533,533,533,533,533,533,533,533,533,533,533,533,533,532,531,529,529,529,527,525,522,518,516,513,510,502,500,496,492,489,489,487,485,482,477,467,465,464,463,461,456,454,450,447,445,440,438,435,432,400,370,330,286,217,154,110,91,79,73,68,62,55,43,40,38,38,38,38,38,38,38,38,38,39,42,42,43,43,44,45,45,46,46,48,49],"timestamp_mouse":[3,23,42,61,82,101,121,141,161,181,200,221,240,261,282,300,321,341,360,381,402,421,440,461,481,500,522,541,560,581,601,620,642,661,680,702,720,742,761,781,800,821,841,861,881,901,921,942,960,982,1000,1022,1041,1061,1080,1102,1121,1141,1161,1180,1201,1220,1240,1262,1280,1301,1321,1341,1361,1382,1401,1421,1440,1461,1481,1502,1520,1540,1562,1581,1601,1621,1642,1662,1680,1701,1721,1741,1761,1781,1802,1820,1840,1861,1881,1902,1921,1942,1960,1981,2001,2021,2040,2061,2081,2102,2121,2141,2162,2180,2201,2220,2241,2261,2281],"xSR":741.5,"ySR":469.95,"xT1":424.9,"yT1":0,"xT2":1058.1,"yT2":0,"toosoon":0,"cond_shown":"randomdotsizeEA","ratio_trial":750,"smaller_num":"6","larger_num":"8","correct_side":2,"subjID":"JohanSebastianCarvajalSalazar34","gender":"0","age":"12","school":"6"},{"start_time":1551801393727,"click_time":1551801394521,"finger_time":1551801394440,"fix_duration":925.1028233422877,"trial":22,"RT":713,"MT":81,"sideResp":1,"stimulus":"img/750/equaldotsize/L/6_Ratio_750_L_24_R_18.png","xmouse":[788,788,788,789,789,789,789,789,789,789,789,789,789,789,789,789,789,789,789,789,789,789,789,790,790,790,790,790,790,790,790,790,790,790,786,738,738,647,564,517],"ymouse":[551,551,551,552,552,552,552,552,552,552,552,552,552,552,552,552,552,552,552,552,552,552,552,552,552,553,553,553,553,553,553,553,553,543,531,439,439,281,139,61],"timestamp_mouse":[13,34,54,74,95,114,133,155,173,193,214,233,253,273,293,314,335,353,373,393,414,434,453,474,494,513,533,555,573,593,613,634,654,674,694,713,733,753,773,794],"xSR":741.5,"ySR":469.95,"xT1":424.9,"yT1":0,"xT2":1058.1,"yT2":0,"toosoon":0,"cond_shown":"equaldotsize","ratio_trial":750,"smaller_num":"18","larger_num":"24","correct_side":1,"subjID":"JohanSebastianCarvajalSalazar34","gender":"0","age":"12","school":"6"},{"start_time":1551801396515,"click_time":1551801398641,"finger_time":1551801398141,"fix_duration":833.1345938396571,"trial":23,"RT":1626,"MT":500,"sideResp":2,"stimulus":"img/750/randomdotsizeEA/L/10_Ratio_750_L_4_R_3.png","xmouse":[802,802,802,802,802,802,802,802,802,802,802,802,802,802,802,802,802,802,802,802,802,802,802,802,802,802,802,802,802,802,802,802,802,802,802,802,802,802,802,802,802,802,802,802,802,802,802,802,802,802,802,802,802,802,802,802,802,802,802,802,802,802,802,802,802,802,802,802,802,802,802,802,802,802,802,802,805,810,813,816,830,845,859,870,879,886,898,905,921,931,943,950,958,970,977,979,988,991,1003,1014,1017,1022,1029,1035,1043,1051,1063],"ymouse":[555,555,555,555,555,555,555,555,555,555,555,555,555,555,555,555,555,555,555,555,555,555,555,555,555,555,555,555,555,555,555,555,555,555,555,555,555,555,555,555,555,555,555,555,555,555,555,555,555,555,555,555,555,555,555,555,555,555,555,555,555,555,555,555,555,555,555,555,555,555,555,555,555,555,555,555,553,549,547,542,528,508,490,476,461,446,418,400,348,325,293,274,254,218,197,193,172,166,139,120,117,108,99,94,87,82,74],"timestamp_mouse":[5,26,47,65,86,105,126,146,165,187,205,225,245,265,285,305,326,345,366,385,405,427,447,465,486,507,526,546,565,586,605,625,646,667,686,705,726,745,767,786,805,825,847,866,886,905,925,945,966,985,1006,1026,1045,1067,1086,1106,1125,1147,1166,1185,1206,1225,1247,1266,1285,1306,1327,1345,1365,1386,1405,1425,1445,1465,1487,1506,1526,1545,1566,1585,1606,1626,1645,1667,1686,1705,1726,1745,1766,1785,1807,1825,1846,1865,1887,1907,1926,1945,1965,1986,2007,2025,2045,2065,2085,2105,2126],"xSR":741.5,"ySR":469.95,"xT1":424.9,"yT1":0,"xT2":1058.1,"yT2":0,"toosoon":0,"cond_shown":"randomdotsizeEA","ratio_trial":750,"smaller_num":"3","larger_num":"4","correct_side":1,"subjID":"JohanSebastianCarvajalSalazar34","gender":"0","age":"12","school":"6"},{"start_time":1551801403494,"click_time":1551801405241,"finger_time":1551801405000,"fix_duration":930.2842321075084,"trial":24,"RT":1506,"MT":241,"sideResp":2,"stimulus":"img/500/randomdotsizeEA/R/14_Ratio_500_L_5_R_10.png","xmouse":[803,803,803,803,803,803,803,803,803,803,803,803,803,803,803,803,803,803,803,803,803,803,803,803,803,803,803,803,803,803,803,803,803,803,803,803,803,803,803,803,803,803,803,803,803,803,803,803,803,803,803,803,803,803,803,803,803,803,803,803,803,803,803,803,803,803,803,803,803,803,803,803,803,812,832,860,890,928,1001,1024,1043,1065,1077,1088,1097,1098,1098,1097],"ymouse":[562,562,562,562,562,562,562,562,562,562,562,562,562,562,562,562,562,562,562,562,562,562,562,562,562,562,562,562,562,562,562,562,562,562,562,562,562,562,562,562,562,562,562,562,562,562,562,562,562,562,562,562,562,562,562,562,562,562,562,562,562,562,562,562,562,562,562,562,562,562,562,562,562,554,536,510,475,430,331,293,259,218,197,178,148,133,114,94],"timestamp_mouse":[8,40,47,68,88,106,127,146,166,186,206,227,246,266,286,306,326,346,367,386,408,427,447,468,486,506,527,547,566,587,607,627,647,667,686,707,728,747,766,788,807,827,847,866,887,908,926,946,966,987,1006,1028,1046,1067,1088,1106,1127,1146,1166,1186,1206,1227,1247,1267,1288,1306,1327,1347,1366,1386,1408,1426,1447,1468,1487,1506,1527,1546,1568,1586,1606,1627,1648,1666,1686,1706,1726,1747],"xSR":741.5,"ySR":469.95,"xT1":424.9,"yT1":0,"xT2":1058.1,"yT2":0,"toosoon":0,"cond_shown":"randomdotsizeEA","ratio_trial":500,"smaller_num":"5","larger_num":"10","correct_side":2,"subjID":"JohanSebastianCarvajalSalazar34","gender":"0","age":"12","school":"6"},{"start_time":1551801407514,"click_time":1551801408881,"finger_time":1551801408300,"fix_duration":1450.6376939196552,"trial":25,"RT":786,"MT":581,"sideResp":1,"stimulus":"img/750/equaldotsize/L/6_Ratio_750_L_24_R_18.png","xmouse":[825,825,825,825,825,825,825,825,825,825,825,825,825,825,825,825,825,825,825,825,825,825,825,825,825,825,825,825,825,825,825,825,825,825,825,825,821,800,762,721,687,653,636,630,629,627,625,621,620,620,619,618,616,608,601,591,577,554,549,544,540,537,535,532,532,532,532,526,517],"ymouse":[517,517,517,517,517,517,517,517,517,517,517,517,517,517,517,517,517,517,517,517,517,517,517,517,517,517,517,517,517,517,517,517,517,517,517,517,512,495,472,443,416,381,342,324,312,300,285,258,245,233,220,207,202,189,183,170,157,136,131,124,117,113,110,105,103,103,103,97,92],"timestamp_mouse":[10,29,47,67,86,106,126,146,166,187,207,227,247,266,286,306,326,346,367,387,408,426,447,467,488,508,526,548,567,587,607,627,647,668,687,707,726,747,767,786,806,827,848,866,887,907,928,947,966,986,1007,1028,1046,1067,1086,1107,1127,1147,1166,1186,1206,1227,1246,1266,1287,1306,1327,1347,1366],"xSR":741.5,"ySR":469.95,"xT1":424.9,"yT1":0,"xT2":1058.1,"yT2":0,"toosoon":0,"cond_shown":"equaldotsize","ratio_trial":750,"smaller_num":"18","larger_num":"24","correct_side":1,"subjID":"JohanSebastianCarvajalSalazar34","gender":"0","age":"12","school":"6"},{"start_time":1551801410356,"click_time":1551801411401,"finger_time":1551801411061,"fix_duration":473.0535554150073,"trial":26,"RT":705,"MT":340,"sideResp":2,"stimulus":"img/500/equaldotsize/R/2_Ratio_500_L_3_R_6.png","xmouse":[801,801,801,801,801,801,801,801,801,801,801,801,801,801,801,801,801,801,801,801,801,801,801,801,801,801,801,801,801,801,802,806,807,814,823,854,876,894,913,943,979,996,1011,1025,1035,1052,1059,1064,1070,1076,1080,1083,1085],"ymouse":[519,519,519,519,519,519,518,518,518,518,518,518,518,518,518,518,518,518,518,518,518,518,518,518,518,518,518,518,517,516,513,505,500,488,470,405,372,348,324,282,250,235,222,210,199,178,166,156,142,131,115,103,93],"timestamp_mouse":[8,39,45,66,84,105,124,145,164,185,205,224,244,266,285,305,326,344,365,385,405,424,444,465,486,504,525,544,564,585,605,626,644,665,686,705,724,744,765,785,806,824,844,864,885,906,925,945,964,984,1006,1024,1045],"xSR":741.5,"ySR":469.95,"xT1":424.9,"yT1":0,"xT2":1058.1,"yT2":0,"toosoon":0,"cond_shown":"equaldotsize","ratio_trial":500,"smaller_num":"3","larger_num":"6","correct_side":2,"subjID":"JohanSebastianCarvajalSalazar34","gender":"0","age":"12","school":"6"},{"start_time":1551801413574,"click_time":1551801414562,"finger_time":1551801414122,"fix_duration":1173.3036221014804,"trial":27,"RT":548,"MT":440,"sideResp":1,"stimulus":"img/250/equaldotanddens/L/7_Ratio_250_L_8_R_2.png","xmouse":[757,757,757,757,757,757,757,757,757,757,757,757,757,758,763,768,771,774,776,778,781,782,782,782,782,775,767,748,732,679,643,604,562,532,500,494,491,487,482,478,477,477,477,477,477,477,477,477,477,477],"ymouse":[508,508,508,508,508,508,508,508,508,508,508,508,508,508,506,504,503,502,501,500,497,497,496,495,492,480,474,460,451,412,378,332,281,235,180,165,155,147,139,132,131,131,131,131,128,121,115,110,101,92],"timestamp_mouse":[9,39,47,66,87,108,126,146,167,186,207,226,246,267,287,306,327,347,368,388,407,426,447,466,487,507,527,548,568,587,606,627,647,668,687,706,727,746,768,787,806,826,847,867,886,906,926,946,967,988],"xSR":741.5,"ySR":469.95,"xT1":424.9,"yT1":0,"xT2":1058.1,"yT2":0,"toosoon":0,"cond_shown":"equaldotanddens","ratio_trial":250,"smaller_num":"2","larger_num":"8","correct_side":1,"subjID":"JohanSebastianCarvajalSalazar34","gender":"0","age":"12","school":"6"},{"start_time":1551801417049,"click_time":1551801418221,"finger_time":1551801417880,"fix_duration":1328.9776106624859,"trial":28,"RT":831,"MT":341,"sideResp":2,"stimulus":"img/900/randomdotsizeEA/R/11_Ratio_900_L_18_R_20.png","xmouse":[803,803,803,803,803,803,803,803,803,803,803,803,803,803,803,803,803,803,803,803,803,803,803,803,803,803,803,803,803,803,803,803,803,803,803,803,803,804,808,817,829,863,886,908,932,943,961,974,984,989,1003,1009,1019,1033,1052,1068,1072,1076,1079],"ymouse":[527,527,527,527,527,527,527,527,527,527,527,527,527,527,527,527,527,527,527,527,527,527,527,527,527,527,527,527,527,527,527,527,527,527,527,527,527,522,518,505,486,389,336,294,251,232,209,202,196,191,177,170,159,146,132,119,112,103,95],"timestamp_mouse":[11,43,51,73,91,111,131,152,173,191,212,232,252,271,292,312,332,352,371,393,412,431,451,473,491,511,533,551,571,592,612,633,652,672,691,711,731,752,772,792,812,831,851,872,892,912,931,951,973,992,1012,1031,1052,1071,1092,1113,1131,1151,1171],"xSR":741.5,"ySR":469.95,"xT1":424.9,"yT1":0,"xT2":1058.1,"yT2":0,"toosoon":0,"cond_shown":"randomdotsizeEA","ratio_trial":900,"smaller_num":"18","larger_num":"20","correct_side":2,"subjID":"JohanSebastianCarvajalSalazar34","gender":"0","age":"12","school":"6"},{"start_time":1551801419252,"click_time":1551801420661,"finger_time":1551801420040,"fix_duration":250,"trial":29,"RT":788,"MT":621,"sideResp":2,"stimulus":"img/750/randomdotsizeEA/R/2_Ratio_750_L_6_R_8.png","xmouse":[807,808,808,808,808,808,808,808,808,808,808,808,808,808,808,808,808,808,808,808,808,808,808,808,808,808,808,808,808,808,808,808,808,808,808,802,795,783,769,755,735,732,732,732,732,732,732,732,743,759,782,856,894,931,970,1013,1032,1051,1069,1087,1122,1139,1152,1161,1164,1166,1166,1162,1160,1157,1146],"ymouse":[510,509,509,509,509,509,509,509,509,509,509,509,509,509,509,509,509,509,509,509,509,509,509,509,509,509,509,509,509,509,509,509,509,509,509,501,494,483,471,460,448,447,447,447,447,447,447,442,431,420,404,369,352,336,320,300,290,280,269,257,228,210,194,174,162,142,132,122,114,106,91],"timestamp_mouse":[10,40,48,69,88,108,128,148,168,189,210,228,248,268,290,309,328,350,370,388,409,428,448,469,488,508,529,549,569,588,609,628,648,668,690,710,729,748,768,788,810,828,848,868,889,910,929,948,969,990,1008,1028,1049,1069,1089,1110,1128,1148,1169,1190,1209,1228,1248,1268,1289,1308,1328,1349,1368,1389,1409],"xSR":741.5,"ySR":469.95,"xT1":424.9,"yT1":0,"xT2":1058.1,"yT2":0,"toosoon":0,"cond_shown":"randomdotsizeEA","ratio_trial":750,"smaller_num":"6","larger_num":"8","correct_side":2,"subjID":"JohanSebastianCarvajalSalazar34","gender":"0","age":"12","school":"6"},{"start_time":1551801423212,"click_time":1551801425002,"finger_time":1551801424480,"fix_duration":250,"trial":30,"RT":1268,"MT":522,"sideResp":2,"stimulus":"img/500/randomdotsizeEA/R/6_Ratio_500_L_9_R_18.png","xmouse":[800,800,800,800,800,800,800,800,800,800,800,800,800,800,800,800,800,800,800,800,800,800,800,800,800,800,800,800,800,800,800,800,800,800,800,800,800,800,800,800,800,800,800,800,800,800,800,800,800,800,800,800,800,800,800,800,800,800,800,806,814,829,841,854,859,864,871,878,886,901,916,941,989,1012,1033,1036,1038,1038,1041,1045,1051,1055,1058,1061,1061,1061,1062,1064,1070,1073],"ymouse":[533,533,533,533,533,533,533,533,533,533,533,533,533,533,533,533,533,533,533,533,533,533,533,533,533,533,533,533,533,533,533,533,533,533,533,533,533,533,533,533,533,533,533,533,533,533,533,533,533,533,533,533,533,533,533,533,533,533,533,536,539,541,542,544,545,545,546,546,546,542,533,516,477,441,384,366,323,274,250,230,213,198,184,164,153,137,128,121,102,90],"timestamp_mouse":[8,41,48,69,89,108,130,149,169,188,210,229,248,269,290,308,328,348,368,388,408,430,450,469,489,508,530,550,568,588,608,630,649,668,690,709,728,749,769,788,810,828,849,869,890,909,930,948,969,989,1008,1028,1049,1069,1089,1108,1128,1149,1168,1189,1208,1228,1248,1268,1288,1310,1328,1349,1369,1389,1410,1428,1450,1468,1490,1510,1529,1549,1568,1589,1609,1628,1648,1669,1690,1709,1728,1748,1768,1790],"xSR":741.5,"ySR":469.95,"xT1":424.9,"yT1":0,"xT2":1058.1,"yT2":0,"toosoon":0,"cond_shown":"randomdotsizeEA","ratio_trial":500,"smaller_num":"9","larger_num":"18","correct_side":2,"subjID":"JohanSebastianCarvajalSalazar34","gender":"0","age":"12","school":"6"},{"start_time":1551801426723,"click_time":1551801429180,"finger_time":1551801428162,"fix_duration":1040.1160082730191,"trial":31,"RT":1439,"MT":1018,"sideResp":1,"stimulus":"img/750/randomdotsizeEA/L/10_Ratio_750_L_4_R_3.png","xmouse":[803,803,803,803,803,803,803,803,803,803,803,803,803,803,803,803,803,803,803,803,803,803,803,803,803,803,803,803,803,803,803,803,803,803,803,803,803,803,803,803,803,803,803,803,803,803,803,803,803,803,803,803,803,803,803,803,803,803,803,803,803,803,803,803,803,803,803,803,803,803,806,844,860,874,884,890,895,895,895,895,895,895,895,895,895,896,869,848,830,815,805,802,798,796,795,793,792,791,791,791,791,791,791,791,791,791,787,779,767,751,742,727,722,712,702,688,669,615,589,562,541,503,484],"ymouse":[546,546,546,546,546,546,546,546,546,546,546,546,546,546,546,546,546,546,546,546,546,546,546,546,546,546,546,546,546,546,546,546,546,546,546,546,546,546,546,546,546,546,546,546,546,546,546,546,546,546,546,546,546,546,546,546,546,546,546,546,546,546,546,546,546,546,546,546,546,546,541,490,466,446,432,425,420,420,420,420,420,420,420,420,420,419,434,446,457,472,487,494,506,512,517,521,525,526,527,527,527,527,527,527,527,527,524,511,495,477,470,459,455,447,437,419,398,336,306,265,226,139,91],"timestamp_mouse":[17,38,57,78,98,117,138,157,178,198,218,238,258,277,298,317,339,358,377,398,417,437,457,478,499,517,538,558,577,597,617,637,657,677,697,717,739,758,779,798,817,837,858,878,899,917,938,959,977,998,1018,1039,1057,1077,1099,1117,1139,1158,1177,1198,1217,1239,1257,1277,1298,1319,1338,1358,1378,1398,1417,1439,1457,1477,1497,1519,1538,1558,1577,1598,1617,1639,1658,1678,1699,1719,1738,1757,1778,1799,1818,1838,1858,1877,1897,1919,1938,1957,1977,1998,2017,2037,2059,2077,2097,2117,2139,2158,2178,2199,2217,2239,2257,2277,2299,2318,2338,2357,2378,2398,2417,2439,2457],"xSR":741.5,"ySR":469.95,"xT1":424.9,"yT1":0,"xT2":1058.1,"yT2":0,"toosoon":0,"cond_shown":"randomdotsizeEA","ratio_trial":750,"smaller_num":"3","larger_num":"4","correct_side":1,"subjID":"JohanSebastianCarvajalSalazar34","gender":"0","age":"12","school":"6"},{"start_time":1551801431329,"click_time":1551801432700,"finger_time":1551801432140,"fix_duration":1147.5792539453766,"trial":32,"RT":811,"MT":560,"sideResp":1,"stimulus":"img/250/equaldotanddens/L/14_Ratio_250_L_12_R_3.png","xmouse":[758,758,757,754,753,753,753,753,753,753,753,753,753,753,753,753,754,754,754,754,754,754,754,754,754,754,755,759,760,762,764,765,765,765,765,765,765,765,764,760,734,703,622,578,546,521,491,484,481,479,479,479,479,479,481,482,483,488,491,495,498,499,502,502,502,502,502,502,502],"ymouse":[505,505,505,503,503,503,503,503,503,503,504,505,510,511,512,514,515,515,515,515,515,515,515,515,515,515,515,515,515,515,516,517,517,518,518,518,518,518,518,515,497,479,427,398,378,361,335,325,316,309,292,279,274,268,259,251,240,207,188,157,138,125,112,109,106,104,101,100,98],"timestamp_mouse":[12,31,51,72,91,111,133,153,173,191,213,233,251,272,291,313,333,352,372,391,412,431,452,471,492,511,532,552,571,591,611,631,652,673,692,712,731,751,773,791,811,832,852,872,892,911,932,951,972,991,1012,1033,1051,1072,1093,1112,1132,1151,1173,1192,1211,1233,1252,1273,1291,1313,1332,1351,1371],"xSR":741.5,"ySR":469.95,"xT1":424.9,"yT1":0,"xT2":1058.1,"yT2":0,"toosoon":0,"cond_shown":"equaldotanddens","ratio_trial":250,"smaller_num":"3","larger_num":"12","correct_side":1,"subjID":"JohanSebastianCarvajalSalazar34","gender":"0","age":"12","school":"6"},{"start_time":1551801434552,"click_time":1551801436040,"finger_time":1551801435381,"fix_duration":890.408437944894,"trial":33,"RT":829,"MT":659,"sideResp":1,"stimulus":"img/900/equaldotsize/L/2_Ratio_900_L_20_R_18.png","xmouse":[804,804,804,804,804,804,804,804,804,804,804,804,804,804,804,804,804,804,804,804,804,804,804,804,804,804,804,804,804,804,804,804,804,804,804,804,804,800,790,776,760,740,737,734,728,702,687,672,666,663,652,636,628,618,608,590,582,576,562,549,534,532,531,528,523,513,512,511,511,510,508,507,505,504,503],"ymouse":[558,558,558,558,558,558,558,558,558,558,558,558,558,558,558,558,558,557,555,553,553,553,553,553,553,553,553,553,553,553,553,553,553,553,553,553,553,547,535,518,499,466,454,440,423,368,337,303,286,278,256,230,219,207,194,178,171,166,157,147,136,133,131,128,123,115,113,112,111,109,107,105,101,100,97],"timestamp_mouse":[9,40,49,69,88,110,129,149,168,189,209,230,249,269,290,309,328,349,368,388,408,428,448,469,488,510,529,548,570,590,609,629,648,670,688,708,729,749,768,789,808,829,849,870,890,909,929,948,968,988,1008,1028,1050,1069,1089,1109,1128,1149,1169,1189,1209,1228,1249,1269,1289,1309,1328,1348,1368,1389,1409,1428,1449,1468,1488],"xSR":741.5,"ySR":469.95,"xT1":424.9,"yT1":0,"xT2":1058.1,"yT2":0,"toosoon":0,"cond_shown":"equaldotsize","ratio_trial":900,"smaller_num":"18","larger_num":"20","correct_side":1,"subjID":"JohanSebastianCarvajalSalazar34","gender":"0","age":"12","school":"6"},{"start_time":1551801437552,"click_time":1551801439222,"finger_time":1551801438540,"fix_duration":250,"trial":34,"RT":988,"MT":682,"sideResp":2,"stimulus":"img/750/randomdotsizeEA/R/15_Ratio_750_L_9_R_12.png","xmouse":[794,794,794,794,794,794,794,794,794,794,794,794,794,794,794,794,794,794,794,794,794,794,794,794,794,794,794,794,794,794,794,794,794,794,794,794,794,794,794,794,794,794,794,794,794,794,793,791,791,791,804,809,812,817,823,840,854,871,892,917,938,940,945,952,959,974,979,983,985,988,994,1001,1010,1023,1035,1054,1060,1062,1063,1065,1066,1076,1081,1091],"ymouse":[554,554,554,554,554,554,554,554,554,554,554,554,554,554,554,554,554,554,554,554,554,554,554,554,554,554,554,554,554,554,554,554,554,554,554,554,554,554,554,554,554,554,554,554,554,554,555,556,563,572,579,581,581,581,581,576,570,565,559,549,539,537,534,529,523,494,471,449,434,416,383,360,328,299,274,230,215,202,190,176,168,138,119,97],"timestamp_mouse":[14,57,57,68,90,110,128,150,168,189,209,229,248,269,288,310,328,350,368,389,409,429,448,468,488,508,528,548,568,588,608,629,648,669,688,708,728,748,769,789,808,828,849,868,888,909,928,949,970,988,1009,1028,1048,1069,1089,1109,1128,1148,1170,1190,1209,1228,1248,1269,1289,1310,1328,1348,1369,1388,1410,1428,1449,1468,1488,1510,1528,1549,1569,1589,1608,1628,1649,1670],"xSR":741.5,"ySR":469.95,"xT1":424.9,"yT1":0,"xT2":1058.1,"yT2":0,"toosoon":0,"cond_shown":"randomdotsizeEA","ratio_trial":750,"smaller_num":"9","larger_num":"12","correct_side":2,"subjID":"JohanSebastianCarvajalSalazar34","gender":"0","age":"12","school":"6"},{"start_time":1551801441012,"click_time":1551801442121,"finger_time":1551801441922,"fix_duration":748.4284012089545,"trial":35,"RT":910,"MT":199,"sideResp":1,"stimulus":"img/900/equaldotsize/L/10_Ratio_900_L_20_R_18.png","xmouse":[811,810,808,808,808,808,808,808,808,808,810,811,812,812,812,812,812,812,812,812,812,812,812,812,812,812,812,812,812,812,813,814,815,815,816,816,816,816,816,816,816,816,813,784,751,659,583,521,518,517,517,516,516,506,478,462],"ymouse":[513,512,510,509,508,507,506,505,505,503,503,503,503,503,503,503,503,503,503,503,503,503,503,503,503,503,503,503,503,503,503,503,503,503,503,503,503,503,503,503,503,503,502,485,470,445,422,399,392,382,369,351,305,224,116,52],"timestamp_mouse":[8,28,49,68,89,109,128,149,170,189,208,230,250,268,288,309,329,348,368,389,409,429,450,469,489,508,528,548,570,588,610,629,649,669,689,708,728,748,768,788,809,830,848,868,889,910,930,950,968,990,1009,1028,1050,1068,1088,1109],"xSR":741.5,"ySR":469.95,"xT1":424.9,"yT1":0,"xT2":1058.1,"yT2":0,"toosoon":0,"cond_shown":"equaldotsize","ratio_trial":900,"smaller_num":"18","larger_num":"20","correct_side":1,"subjID":"JohanSebastianCarvajalSalazar34","gender":"0","age":"12","school":"6"},{"start_time":1551801444447,"click_time":1551801453921,"finger_time":1551801451581,"fix_duration":1244.4723342118793,"trial":36,"RT":7134,"MT":2340,"sideResp":1,"stimulus":"img/750/randomdotsizeEA/R/7_Ratio_750_L_3_R_4.png","xmouse":[816,816,816,816,816,816,816,816,816,816,816,816,816,816,816,816,816,816,816,816,816,816,816,816,816,816,816,816,816,816,816,816,816,816,816,816,816,816,816,816,816,816,816,816,816,816,816,816,816,816,816,816,816,816,816,816,816,816,816,816,816,816,816,816,816,816,816,816,816,816,816,816,816,816,816,816,816,816,816,816,816,816,816,816,816,816,816,816,816,816,816,816,816,816,816,816,816,816,816,816,816,816,816,816,816,816,816,816,816,816,816,816,816,816,816,816,816,816,816,816,816,816,816,816,816,816,816,816,816,816,816,816,816,816,816,816,816,816,816,816,816,816,816,816,816,816,816,816,816,816,816,816,816,816,816,816,816,816,816,816,816,816,816,816,816,816,816,816,816,816,816,816,816,816,816,816,816,816,816,816,816,816,816,816,816,816,816,816,816,816,816,816,816,816,816,816,816,816,816,816,816,816,816,816,816,816,816,816,816,816,816,816,816,816,816,816,816,816,816,816,816,816,816,816,816,816,816,816,816,816,816,816,816,816,816,816,816,816,816,816,816,816,816,816,816,816,816,816,816,816,816,816,816,816,816,816,816,816,816,816,816,816,816,816,816,816,816,816,816,816,816,816,816,816,816,816,816,816,816,816,816,816,816,816,816,816,816,816,816,816,816,816,816,816,816,816,816,816,816,816,816,816,816,816,816,816,816,816,816,816,816,816,816,816,816,816,816,816,816,816,816,816,816,816,816,816,816,816,816,816,816,816,816,816,816,816,816,816,816,816,816,816,816,816,816,816,816,816,816,816,816,816,816,816,816,838,853,866,879,893,927,952,962,977,984,984,985,982,968,946,892,836,811,796,789,787,787,787,787,787,787,787,787,787,787,787,787,787,787,787,787,787,787,787,787,787,787,787,787,787,787,787,787,787,787,787,787,787,787,787,787,787,787,787,787,787,787,787,787,787,787,787,787,787,787,787,787,787,787,787,787,787,787,787,787,787,787,787,790,795,808,805,783,757,715,685,685,685,685,685,685,685,685,685,685,685,685,685,685,685,685,685,595,590,586,570,564,557,548,539,531,529,528,523],"ymouse":[540,540,540,540,540,540,540,540,540,540,540,540,540,540,540,540,540,540,540,540,540,540,540,540,540,540,540,540,540,540,540,540,540,540,540,540,540,540,540,540,540,540,540,540,540,540,540,540,540,540,540,540,540,540,540,540,540,540,540,540,540,540,540,540,540,540,540,540,540,540,540,540,540,540,540,540,540,540,540,540,540,540,540,540,540,540,540,540,540,540,540,540,540,540,540,540,540,540,540,540,540,540,540,540,540,540,540,540,540,540,540,540,540,540,540,540,540,540,540,540,540,540,540,540,540,540,540,540,540,540,540,540,540,540,540,540,540,540,540,540,540,540,540,540,540,540,540,540,540,540,540,540,540,540,540,540,540,540,540,540,540,540,540,540,540,540,540,540,540,540,540,540,540,540,540,540,540,540,540,540,540,540,540,540,540,540,540,540,540,540,540,540,540,540,540,540,540,540,540,540,540,540,540,540,540,540,540,540,540,540,540,540,540,540,540,540,540,540,540,540,540,540,540,540,540,540,540,540,540,540,540,540,540,540,540,540,540,540,540,540,540,540,540,540,540,540,540,540,540,540,540,540,540,540,540,540,540,540,540,540,540,540,540,540,540,540,540,540,540,540,540,540,540,540,540,540,540,540,540,540,540,540,540,540,540,540,540,540,540,540,540,540,540,540,540,540,540,540,540,540,540,540,540,540,540,540,540,540,540,540,540,540,540,540,540,540,540,540,540,540,540,540,540,540,540,540,540,540,540,540,540,540,540,540,540,540,540,540,540,540,540,540,540,540,540,540,540,540,540,540,540,540,540,540,539,510,495,486,477,470,453,445,443,439,435,435,435,441,455,473,506,523,530,533,536,536,536,536,536,536,536,536,536,536,536,536,536,536,536,536,536,536,536,536,536,536,536,536,536,536,536,536,536,536,536,536,536,536,536,536,536,536,536,536,536,536,536,536,536,536,536,536,536,536,536,536,536,536,536,536,536,536,536,536,536,536,536,536,531,515,399,330,249,167,71,6,6,6,6,6,6,6,6,6,6,6,6,6,6,6,6,6,1,4,5,11,14,19,21,26,30,30,31,34],"timestamp_mouse":[14,35,64,73,93,114,135,153,175,193,213,234,253,273,294,313,333,354,374,393,413,433,455,475,495,514,534,553,573,594,614,633,653,674,693,713,733,753,773,794,813,833,853,875,893,913,933,953,973,993,1013,1034,1053,1073,1094,1114,1135,1153,1174,1193,1213,1235,1254,1273,1294,1313,1334,1354,1374,1394,1413,1435,1454,1473,1495,1513,1534,1553,1574,1593,1614,1635,1655,1675,1693,1713,1733,1753,1773,1793,1814,1833,1854,1874,1894,1913,1934,1954,1973,1993,2014,2034,2053,2073,2094,2114,2133,2153,2173,2193,2213,2235,2253,2274,2293,2313,2333,2354,2374,2395,2413,2435,2453,2474,2493,2515,2534,2553,2573,2595,2613,2635,2655,2674,2693,2714,2734,2753,2775,2793,2813,2834,2853,2873,2895,2913,2933,2953,2973,2993,3013,3034,3054,3074,3094,3114,3133,3153,3175,3194,3215,3234,3253,3273,3294,3313,3334,3355,3373,3394,3414,3433,3453,3474,3493,3515,3534,3553,3574,3594,3614,3633,3654,3675,3693,3713,3735,3754,3774,3794,3813,3835,3854,3875,3893,3913,3935,3954,3973,3994,4015,4033,4053,4074,4094,4115,4134,4153,4174,4193,4214,4234,4253,4273,4295,4313,4334,4353,4375,4393,4413,4434,4453,4474,4495,4515,4535,4553,4574,4594,4614,4634,4653,4673,4694,4714,4733,4753,4773,4793,4815,4834,4854,4874,4893,4913,4934,4953,4974,4994,5013,5034,5053,5075,5094,5114,5133,5155,5173,5194,5213,5233,5254,5273,5293,5314,5333,5353,5374,5393,5415,5434,5453,5474,5495,5513,5534,5555,5574,5594,5614,5633,5653,5673,5694,5714,5733,5755,5773,5793,5814,5833,5853,5875,5894,5913,5934,5954,5973,5993,6013,6033,6053,6073,6093,6114,6133,6155,6174,6195,6213,6233,6255,6273,6293,6314,6333,6354,6373,6393,6414,6435,6453,6475,6494,6513,6535,6553,6573,6594,6613,6633,6653,6673,6694,6714,6734,6753,6773,6794,6813,6834,6854,6874,6893,6913,6934,6953,6975,6994,7013,7034,7054,7073,7095,7114,7134,7153,7173,7193,7214,7233,7253,7275,7293,7314,7333,7355,7374,7393,7415,7433,7454,7473,7495,7514,7534,7553,7574,7593,7615,7635,7653,7675,7695,7713,7734,7754,7773,7793,7813,7834,7853,7873,7894,7915,7933,7954,7974,7994,8014,8035,8053,8074,8093,8113,8134,8154,8175,8194,8215,8234,8253,8274,8293,8313,8333,8353,8374,8394,8413,8434,8455,8474,8494,8513,8534,8554,8573,8594,8615,8634,8655,8675,8693,8715,8735,8753,8774,8795,8814,8833,8853,8874,8894,8914,8933,8953,8974,8993,9014,9034,9054,9074,9095,9115,9135,9154,9174,9195,9214,9233,9255,9275,9293,9314,9333,9353,9373,9394,9414,9433,9454,9473],"xSR":741.5,"ySR":469.95,"xT1":424.9,"yT1":0,"xT2":1058.1,"yT2":0,"toosoon":0,"cond_shown":"randomdotsizeEA","ratio_trial":750,"smaller_num":"3","larger_num":"4","correct_side":2,"subjID":"JohanSebastianCarvajalSalazar34","gender":"0","age":"12","school":"6"},{"start_time":1551801457503,"click_time":1551801458981,"finger_time":1551801458301,"fix_duration":1100.419532569768,"trial":37,"RT":798,"MT":680,"sideResp":2,"stimulus":"img/500/equaldotanddens/R/9_Ratio_500_L_2_R_4.png","xmouse":[780,780,780,780,780,780,780,780,780,780,780,780,780,780,780,780,780,780,780,780,780,780,780,780,780,780,780,780,780,780,780,780,780,780,780,780,786,807,823,846,855,872,894,903,912,919,924,936,942,947,953,962,976,983,990,998,1007,1016,1033,1037,1041,1044,1057,1067,1077,1085,1089,1093,1093,1093,1095,1096,1098,1105],"ymouse":[523,523,523,523,523,523,523,523,523,523,523,523,523,523,523,523,523,523,523,523,523,523,523,523,523,523,523,523,523,523,523,523,523,523,522,521,518,504,494,477,470,454,422,404,383,366,348,315,299,284,266,239,209,197,188,178,168,159,144,140,136,134,129,126,123,121,119,116,115,114,112,111,108,98],"timestamp_mouse":[17,39,58,79,98,118,139,159,178,198,218,237,259,279,299,318,337,359,379,398,418,438,458,478,498,518,539,557,578,598,618,637,658,678,697,719,739,758,778,798,817,837,859,878,898,918,937,959,977,999,1018,1038,1058,1077,1098,1118,1137,1159,1178,1198,1218,1238,1258,1277,1298,1318,1338,1358,1378,1397,1418,1438,1457,1478],"xSR":741.5,"ySR":469.95,"xT1":424.9,"yT1":0,"xT2":1058.1,"yT2":0,"toosoon":0,"cond_shown":"equaldotanddens","ratio_trial":500,"smaller_num":"2","larger_num":"4","correct_side":2,"subjID":"JohanSebastianCarvajalSalazar34","gender":"0","age":"12","school":"6"},{"start_time":1551801460794,"click_time":1551801462361,"finger_time":1551801461181,"fix_duration":852.1413794462729,"trial":38,"RT":387,"MT":1180,"sideResp":2,"stimulus":"img/900/equaldotsize/R/6_Ratio_900_L_9_R_10.png","xmouse":[782,782,782,782,782,782,782,782,782,782,782,782,782,782,782,782,781,781,804,815,823,827,828,828,828,828,828,828,828,828,828,828,828,828,828,828,828,828,828,828,828,828,828,814,810,804,803,803,803,803,803,803,803,803,805,812,840,887,929,936,940,942,945,946,947,949,955,966,1000,1023,1043,1059,1068,1075,1076,1076,1076,1076,1076],"ymouse":[505,505,505,505,505,505,505,505,505,505,505,505,505,505,505,505,505,503,473,461,452,447,446,446,446,446,446,446,446,446,446,446,446,446,446,446,446,446,446,446,446,446,447,478,489,501,502,502,502,502,502,502,502,502,501,488,445,363,259,217,190,166,153,142,141,139,136,135,130,130,130,130,130,130,130,129,123,104,62],"timestamp_mouse":[9,40,47,68,87,107,128,146,167,188,206,227,246,268,286,307,327,346,368,387,407,428,447,467,486,507,527,546,568,586,607,626,648,668,688,706,726,747,766,786,807,827,847,868,886,907,927,946,966,986,1006,1027,1046,1066,1086,1106,1128,1147,1167,1187,1207,1227,1246,1268,1287,1307,1327,1346,1367,1387,1406,1427,1447,1467,1486,1507,1527,1547,1567],"xSR":741.5,"ySR":469.95,"xT1":424.9,"yT1":0,"xT2":1058.1,"yT2":0,"toosoon":0,"cond_shown":"equaldotsize","ratio_trial":900,"smaller_num":"9","larger_num":"10","correct_side":2,"subjID":"JohanSebastianCarvajalSalazar34","gender":"0","age":"12","school":"6"},{"start_time":1551801465567,"click_time":1551801466761,"finger_time":1551801466342,"fix_duration":842.9674636686602,"trial":39,"RT":775,"MT":419,"sideResp":2,"stimulus":"img/500/equaldotsize/R/6_Ratio_500_L_9_R_18.png","xmouse":[797,797,797,797,797,797,797,797,797,797,797,797,797,797,797,797,797,797,797,797,797,797,797,797,797,797,797,797,797,797,797,797,797,799,800,808,815,818,822,827,830,835,842,851,870,882,892,903,916,945,963,982,1001,1022,1052,1067,1086,1092,1095,1098],"ymouse":[553,553,553,553,553,553,553,553,553,553,553,553,553,553,553,553,553,553,553,553,553,553,553,553,553,553,553,553,553,553,553,553,553,546,541,513,489,480,457,422,402,384,365,348,317,304,294,282,269,245,234,223,210,194,164,148,118,107,100,92],"timestamp_mouse":[14,41,54,74,94,114,134,154,174,194,215,234,253,275,294,315,334,355,374,393,415,434,454,475,494,514,535,554,574,595,614,634,654,674,694,714,733,753,775,795,813,833,854,875,895,914,933,954,974,995,1014,1034,1054,1075,1094,1114,1135,1154,1175,1193],"xSR":741.5,"ySR":469.95,"xT1":424.9,"yT1":0,"xT2":1058.1,"yT2":0,"toosoon":0,"cond_shown":"equaldotsize","ratio_trial":500,"smaller_num":"9","larger_num":"18","correct_side":2,"subjID":"JohanSebastianCarvajalSalazar34","gender":"0","age":"12","school":"6"},{"start_time":1551801468235,"click_time":1551801469581,"finger_time":1551801468962,"fix_duration":531.1300390671795,"trial":40,"RT":727,"MT":619,"sideResp":2,"stimulus":"img/500/equaldotsize/R/15_Ratio_500_L_1_R_2.png","xmouse":[775,775,775,775,775,775,775,775,775,775,775,775,775,775,775,775,775,775,775,775,775,775,775,775,775,775,775,775,775,775,775,775,775,775,775,778,794,808,820,831,839,851,862,873,888,916,943,951,957,961,964,969,981,986,993,996,1001,1008,1013,1016,1023,1028,1032,1039,1040,1045,1054,1059],"ymouse":[490,490,490,490,490,490,490,490,490,490,490,490,490,490,490,490,490,490,490,490,490,490,490,490,490,490,490,490,490,490,490,490,490,490,491,487,461,440,418,399,381,339,304,265,228,180,147,139,135,133,132,129,123,120,116,116,114,112,111,110,108,105,103,102,101,99,94,93],"timestamp_mouse":[8,27,45,67,85,105,126,145,166,186,205,226,245,265,285,306,326,346,367,386,407,427,446,466,486,505,526,546,566,586,606,626,647,665,685,706,727,746,765,786,806,826,845,865,885,906,927,945,966,986,1007,1027,1046,1065,1085,1106,1125,1146,1167,1186,1207,1227,1245,1266,1285,1306,1327,1346],"xSR":741.5,"ySR":469.95,"xT1":424.9,"yT1":0,"xT2":1058.1,"yT2":0,"toosoon":0,"cond_shown":"equaldotsize","ratio_trial":500,"smaller_num":"1","larger_num":"2","correct_side":2,"subjID":"JohanSebastianCarvajalSalazar34","gender":"0","age":"12","school":"6"},{"start_time":1551801470813,"click_time":1551801472121,"finger_time":1551801471740,"fix_duration":250,"trial":41,"RT":927,"MT":381,"sideResp":2,"stimulus":"img/500/randomdotsizeEA/R/2_Ratio_500_L_3_R_6.png","xmouse":[791,791,791,791,791,791,791,791,791,791,791,791,791,791,790,790,790,790,790,790,790,790,790,790,790,790,790,790,790,790,790,790,790,790,790,790,790,790,790,790,790,790,790,795,805,820,847,891,908,922,930,937,948,954,960,970,979,991,996,1000,1007,1013,1030,1042,1055,1077],"ymouse":[541,541,541,541,541,541,541,541,541,541,541,541,541,541,541,541,541,541,541,541,541,541,541,541,541,541,541,541,541,541,541,541,541,541,541,541,541,541,541,541,541,541,540,531,521,505,481,444,429,413,397,381,339,316,294,258,236,198,180,165,151,138,108,89,68,40],"timestamp_mouse":[9,33,48,68,88,109,128,149,167,187,209,227,248,267,289,308,327,347,367,388,407,427,448,467,488,507,528,549,567,589,608,628,647,669,688,707,727,748,768,787,809,827,848,868,887,908,927,949,967,988,1009,1027,1049,1068,1087,1108,1128,1148,1167,1188,1209,1229,1248,1267,1288,1308],"xSR":741.5,"ySR":469.95,"xT1":424.9,"yT1":0,"xT2":1058.1,"yT2":0,"toosoon":0,"cond_shown":"randomdotsizeEA","ratio_trial":500,"smaller_num":"3","larger_num":"6","correct_side":2,"subjID":"JohanSebastianCarvajalSalazar34","gender":"0","age":"12","school":"6"},{"start_time":1551801474484,"click_time":1551801475501,"finger_time":1551801475280,"fix_duration":1342.8462786483606,"trial":42,"RT":796,"MT":221,"sideResp":2,"stimulus":"img/900/randomdotsizeEA/L/8_Ratio_900_L_20_R_18.png","xmouse":[808,808,808,808,808,808,808,808,808,808,808,808,808,808,808,808,808,808,808,808,808,808,808,808,808,808,808,808,808,808,808,808,808,808,808,808,811,815,835,849,864,899,930,988,1014,1031,1043,1050,1057,1058,1060],"ymouse":[533,533,533,533,533,533,533,533,533,533,533,533,533,533,533,533,533,533,533,533,533,533,533,533,533,533,533,533,533,533,533,533,533,533,533,533,532,526,499,481,459,407,358,247,181,118,70,44,16,12,10],"timestamp_mouse":[16,38,57,78,98,117,138,157,176,198,216,237,258,276,297,317,336,357,378,397,418,437,457,476,498,516,536,557,577,598,618,638,657,676,698,716,738,758,777,796,816,837,857,878,896,918,937,956,978,996,1017],"xSR":741.5,"ySR":469.95,"xT1":424.9,"yT1":0,"xT2":1058.1,"yT2":0,"toosoon":0,"cond_shown":"randomdotsizeEA","ratio_trial":900,"smaller_num":"18","larger_num":"20","correct_side":1,"subjID":"JohanSebastianCarvajalSalazar34","gender":"0","age":"12","school":"6"},{"start_time":1551801478462,"click_time":1551801479762,"finger_time":1551801479242,"fix_duration":1498.6009749246273,"trial":43,"RT":780,"MT":520,"sideResp":1,"stimulus":"img/500/equaldotsize/L/7_Ratio_500_L_10_R_5.png","xmouse":[777,777,777,777,777,777,777,777,777,777,777,777,777,777,777,777,777,777,777,777,777,777,777,777,777,777,777,777,777,777,777,777,777,777,777,777,777,773,763,751,717,696,673,635,609,559,541,531,526,522,515,513,509,505,501,500,500,500,500,498,496,496,496,496,496,496],"ymouse":[500,500,500,500,500,500,500,500,500,500,500,500,500,500,500,500,500,500,500,500,500,500,500,500,500,500,500,500,500,500,500,500,500,500,500,500,497,487,474,459,432,419,404,379,362,325,308,293,279,266,244,232,216,200,182,166,159,150,139,128,112,107,102,102,100,98],"timestamp_mouse":[1,31,38,60,79,98,120,138,160,178,198,219,238,260,279,298,318,338,359,378,399,420,438,460,478,498,520,538,559,578,600,619,639,660,679,699,719,740,760,780,800,818,839,859,879,899,919,938,959,980,999,1019,1038,1059,1080,1099,1119,1138,1159,1180,1199,1218,1240,1259,1278,1299],"xSR":741.5,"ySR":469.95,"xT1":424.9,"yT1":0,"xT2":1058.1,"yT2":0,"toosoon":0,"cond_shown":"equaldotsize","ratio_trial":500,"smaller_num":"5","larger_num":"10","correct_side":1,"subjID":"JohanSebastianCarvajalSalazar34","gender":"0","age":"12","school":"6"},{"start_time":1551801481652,"click_time":1551801482780,"finger_time":1551801482461,"fix_duration":1229.7759878380768,"trial":44,"RT":809,"MT":319,"sideResp":1,"stimulus":"img/500/equaldotanddens/L/4_Ratio_500_L_18_R_9.png","xmouse":[822,822,822,822,822,822,822,822,822,822,822,822,822,822,822,822,822,822,822,822,822,822,822,822,822,822,822,822,822,822,822,822,822,822,822,822,817,805,788,760,671,605,543,472,440,395,382,375,372,370,370,373,380,388,405,421,427],"ymouse":[550,550,550,550,550,550,550,550,550,550,550,550,550,550,550,550,550,550,550,550,550,550,550,550,550,550,550,550,550,550,550,550,550,550,550,550,543,526,504,475,410,376,349,319,305,281,268,256,246,231,186,162,140,125,106,96,93],"timestamp_mouse":[8,30,51,68,89,109,128,150,169,189,209,228,249,269,289,309,330,350,369,390,408,428,449,468,489,509,530,548,570,590,609,630,649,669,688,710,729,748,770,790,809,829,848,870,890,910,929,949,969,988,1011,1028,1049,1068,1088,1109,1128],"xSR":741.5,"ySR":469.95,"xT1":424.9,"yT1":0,"xT2":1058.1,"yT2":0,"toosoon":0,"cond_shown":"equaldotanddens","ratio_trial":500,"smaller_num":"9","larger_num":"18","correct_side":1,"subjID":"JohanSebastianCarvajalSalazar34","gender":"0","age":"12","school":"6"},{"start_time":1551801485150,"click_time":1551801486701,"finger_time":1551801486181,"fix_duration":1467.5282530970987,"trial":45,"RT":1031,"MT":520,"sideResp":1,"stimulus":"img/900/equaldotsize/L/10_Ratio_900_L_20_R_18.png","xmouse":[796,796,796,796,796,796,796,796,796,796,796,796,796,796,796,796,796,796,796,796,796,796,796,796,796,796,796,796,796,796,796,796,796,796,796,796,796,796,796,796,796,796,796,796,796,793,789,782,774,760,746,713,693,670,647,613,601,592,585,576,564,557,551,545,539,532,528,520,506,497,494,490,489,488,488,487,486,484],"ymouse":[522,522,522,522,522,522,522,522,522,522,522,522,522,522,522,522,522,522,522,522,522,522,522,522,522,522,522,522,522,522,522,522,522,522,522,522,522,522,522,522,522,522,522,522,522,517,511,503,497,487,480,455,439,420,403,374,360,347,330,302,265,249,234,222,209,188,175,162,145,137,132,125,121,117,112,104,101,94],"timestamp_mouse":[14,42,51,70,91,110,132,151,170,190,211,230,252,270,290,311,330,350,370,390,410,432,452,472,491,511,540,550,570,591,611,630,652,672,691,711,730,751,771,791,810,831,851,872,891,911,932,950,972,990,1011,1031,1051,1071,1092,1111,1130,1151,1171,1192,1211,1230,1251,1272,1292,1311,1330,1350,1371,1392,1410,1430,1451,1471,1491,1511,1530,1551],"xSR":741.5,"ySR":469.95,"xT1":424.9,"yT1":0,"xT2":1058.1,"yT2":0,"toosoon":0,"cond_shown":"equaldotsize","ratio_trial":900,"smaller_num":"18","larger_num":"20","correct_side":1,"subjID":"JohanSebastianCarvajalSalazar34","gender":"0","age":"12","school":"6"},{"start_time":1551801488237,"click_time":1551801489341,"finger_time":1551801488881,"fix_duration":454.1350720107396,"trial":46,"RT":644,"MT":460,"sideResp":2,"stimulus":"img/500/equaldotanddens/R/2_Ratio_500_L_3_R_6.png","xmouse":[760,760,760,760,760,760,760,760,760,760,760,760,760,760,760,760,760,760,760,760,760,760,760,760,760,760,760,760,760,760,764,774,787,801,826,839,856,861,867,876,889,904,947,966,983,999,1020,1029,1042,1055,1063,1070,1071,1071,1072,1072],"ymouse":[503,503,503,503,503,503,503,503,503,503,503,503,503,503,503,503,503,503,503,503,503,503,503,503,503,503,503,503,503,503,497,475,461,442,413,396,359,341,320,293,266,242,187,163,147,139,130,127,122,117,112,107,106,105,101,98],"timestamp_mouse":[9,23,44,64,84,104,124,143,163,184,204,223,243,263,285,304,325,344,364,385,405,425,444,464,483,503,524,544,563,584,605,624,644,664,683,704,724,743,764,784,804,825,844,864,883,903,925,943,965,984,1004,1024,1043,1063,1084,1104],"xSR":741.5,"ySR":469.95,"xT1":424.9,"yT1":0,"xT2":1058.1,"yT2":0,"toosoon":0,"cond_shown":"equaldotanddens","ratio_trial":500,"smaller_num":"3","larger_num":"6","correct_side":2,"subjID":"JohanSebastianCarvajalSalazar34","gender":"0","age":"12","school":"6"},{"start_time":1551801490476,"click_time":1551801492401,"finger_time":1551801490822,"fix_duration":353.5935662280735,"trial":47,"RT":346,"MT":1579,"sideResp":1,"stimulus":"img/900/randomdotsizeEA/L/10_Ratio_900_L_20_R_18.png","xmouse":[793,793,793,793,793,793,793,793,793,793,793,793,793,793,793,793,793,798,806,826,832,837,840,841,841,841,841,841,841,841,841,841,841,841,841,841,841,841,841,841,841,841,841,841,841,841,841,841,841,841,839,833,820,797,782,756,749,747,747,747,747,747,747,747,747,747,747,747,745,744,725,706,665,583,539,538,538,538,538,538,538,538,538,538,538,538,538,538,539,540,540,538,531,521,490,481,473],"ymouse":[481,481,481,481,481,481,481,481,481,481,481,481,481,481,481,481,479,469,460,439,434,430,428,427,427,427,427,427,427,427,427,427,427,427,427,427,427,427,427,427,427,427,427,427,427,427,427,427,427,427,428,436,446,464,474,490,493,494,494,494,494,494,494,494,494,494,494,494,494,489,457,436,407,362,341,340,340,340,340,340,340,340,340,340,340,340,340,340,339,310,285,261,225,196,126,104,84],"timestamp_mouse":[9,38,46,65,84,105,126,146,164,185,205,225,246,264,285,305,325,346,366,386,404,425,444,465,484,505,525,546,564,585,605,625,645,666,686,704,724,745,766,784,805,825,846,866,885,904,925,946,966,985,1005,1025,1044,1066,1084,1105,1125,1145,1166,1185,1204,1226,1246,1265,1285,1306,1325,1345,1365,1384,1405,1424,1446,1466,1485,1505,1525,1544,1566,1586,1605,1625,1645,1664,1684,1704,1724,1745,1766,1785,1805,1825,1845,1866,1885,1905,1925],"xSR":741.5,"ySR":469.95,"xT1":424.9,"yT1":0,"xT2":1058.1,"yT2":0,"toosoon":0,"cond_shown":"randomdotsizeEA","ratio_trial":900,"smaller_num":"18","larger_num":"20","correct_side":1,"subjID":"JohanSebastianCarvajalSalazar34","gender":"0","age":"12","school":"6"},{"start_time":1551801493971,"click_time":1551801495221,"finger_time":1551801494901,"fix_duration":569.7013853732191,"trial":48,"RT":930,"MT":320,"sideResp":2,"stimulus":"img/900/equaldotanddens/R/9_Ratio_900_L_18_R_20.png","xmouse":[803,805,807,807,808,808,808,808,808,808,808,808,808,808,808,808,808,808,808,808,808,808,808,808,808,808,808,808,808,808,808,808,808,808,808,808,808,808,808,808,808,808,808,811,815,835,852,888,918,972,997,1017,1032,1043,1057,1060,1061,1063,1064,1068,1069,1072,1073],"ymouse":[513,514,514,514,514,514,514,514,514,514,514,514,514,514,514,514,514,514,514,514,514,514,514,514,514,514,514,514,514,514,514,514,514,514,514,514,514,514,514,514,514,514,514,513,508,489,474,438,405,337,303,266,240,221,188,176,164,151,133,114,109,103,97],"timestamp_mouse":[15,31,57,70,89,111,131,150,169,189,211,229,250,270,290,310,329,349,369,389,411,429,449,470,489,509,530,549,570,591,609,630,651,669,689,710,731,749,771,790,810,830,850,869,890,910,930,950,970,991,1009,1030,1050,1071,1090,1109,1129,1151,1170,1190,1209,1231,1250],"xSR":741.5,"ySR":469.95,"xT1":424.9,"yT1":0,"xT2":1058.1,"yT2":0,"toosoon":0,"cond_shown":"equaldotanddens","ratio_trial":900,"smaller_num":"18","larger_num":"20","correct_side":2,"subjID":"JohanSebastianCarvajalSalazar34","gender":"0","age":"12","school":"6"},{"start_time":1551801496653,"click_time":1551801497742,"finger_time":1551801497421,"fix_duration":250,"trial":49,"RT":768,"MT":321,"sideResp":2,"stimulus":"img/750/equaldotsize/R/5_Ratio_750_L_15_R_20.png","xmouse":[793,793,793,793,793,793,793,793,793,793,793,793,793,793,793,793,793,793,793,793,793,793,793,793,793,793,793,793,793,793,793,793,793,793,793,794,802,813,832,851,894,910,924,937,956,981,990,999,1007,1012,1027,1035,1044,1055,1070],"ymouse":[541,541,541,541,541,541,541,541,541,541,541,541,541,541,541,541,541,541,541,541,541,541,541,541,541,541,541,541,541,541,541,541,541,541,541,536,518,493,460,419,349,313,283,259,229,192,178,167,158,150,126,115,103,91,76],"timestamp_mouse":[8,40,48,67,89,108,128,147,169,189,208,229,248,267,289,308,327,348,369,387,407,429,447,468,488,507,529,547,569,589,607,628,648,667,688,707,728,748,768,787,809,828,848,868,888,909,928,948,967,988,1008,1027,1047,1067,1089],"xSR":741.5,"ySR":469.95,"xT1":424.9,"yT1":0,"xT2":1058.1,"yT2":0,"toosoon":0,"cond_shown":"equaldotsize","ratio_trial":750,"smaller_num":"15","larger_num":"20","correct_side":2,"subjID":"JohanSebastianCarvajalSalazar34","gender":"0","age":"12","school":"6"},{"start_time":1551801499474,"click_time":1551801501302,"finger_time":1551801500501,"fix_duration":1011.4983509522555,"trial":50,"RT":1027,"MT":801,"sideResp":2,"stimulus":"img/250/equaldotsize/R/11_Ratio_250_L_3_R_12.png","xmouse":[797,797,797,797,797,797,797,797,797,797,797,797,797,797,797,797,797,797,797,797,797,797,797,797,797,797,797,797,797,797,797,797,797,797,797,797,797,797,797,797,797,797,797,797,797,797,797,797,801,819,829,842,856,866,891,905,916,925,932,946,954,965,975,986,1006,1013,1017,1020,1023,1033,1037,1045,1047,1052,1059,1064,1067,1070,1072,1072,1072,1072,1072,1072,1072,1072,1072,1072,1072,1072,1074,1077],"ymouse":[503,503,503,503,503,503,503,503,503,503,503,503,503,503,503,503,503,503,503,503,503,503,503,503,503,503,503,503,503,503,503,503,503,503,503,503,503,503,503,503,503,503,503,503,503,503,503,503,501,487,472,451,420,396,346,322,300,279,261,236,224,210,203,195,179,172,164,158,153,143,139,132,129,122,115,112,108,104,103,103,103,103,103,103,103,103,103,103,103,103,100,97],"timestamp_mouse":[10,38,46,67,87,106,128,146,166,187,206,226,246,267,288,307,327,346,367,386,407,428,446,466,487,508,526,548,568,587,608,626,647,668,687,707,728,746,768,787,807,827,848,866,887,908,926,948,967,987,1007,1027,1047,1067,1087,1107,1127,1147,1167,1187,1206,1226,1247,1267,1287,1307,1327,1347,1366,1388,1406,1427,1447,1467,1487,1506,1527,1547,1568,1586,1606,1626,1647,1668,1688,1708,1728,1746,1767,1786,1806,1828],"xSR":741.5,"ySR":469.95,"xT1":424.9,"yT1":0,"xT2":1058.1,"yT2":0,"toosoon":0,"cond_shown":"equaldotsize","ratio_trial":250,"smaller_num":"3","larger_num":"12","correct_side":2,"subjID":"JohanSebastianCarvajalSalazar34","gender":"0","age":"12","school":"6"},{"start_time":1551801502873,"click_time":1551801503962,"finger_time":1551801503581,"fix_duration":670.2578970730164,"trial":51,"RT":708,"MT":381,"sideResp":2,"stimulus":"img/500/equaldotsize/R/15_Ratio_500_L_1_R_2.png","xmouse":[760,760,760,760,760,760,760,760,760,760,760,760,760,760,760,760,760,760,760,760,760,760,760,760,760,760,760,760,760,760,760,760,767,780,815,843,873,905,935,984,1001,1016,1029,1041,1047,1049,1051,1053,1055,1059,1060,1062,1065,1067,1074],"ymouse":[525,525,525,525,525,525,525,528,529,529,530,531,531,531,531,531,531,531,531,531,531,531,531,531,531,531,531,531,531,531,531,531,527,518,488,462,436,410,381,324,300,276,253,224,196,182,166,152,139,123,117,112,107,102,92],"timestamp_mouse":[10,36,47,67,87,108,128,149,168,188,209,228,247,267,288,309,329,347,368,388,408,427,449,467,489,508,527,548,567,587,609,627,649,667,689,708,729,748,768,788,808,827,848,868,888,908,928,948,968,988,1007,1028,1048,1068,1089],"xSR":741.5,"ySR":469.95,"xT1":424.9,"yT1":0,"xT2":1058.1,"yT2":0,"toosoon":0,"cond_shown":"equaldotsize","ratio_trial":500,"smaller_num":"1","larger_num":"2","correct_side":2,"subjID":"JohanSebastianCarvajalSalazar34","gender":"0","age":"12","school":"6"},{"start_time":1551801506199,"click_time":1551801507481,"finger_time":1551801506981,"fix_duration":1397.7460006382914,"trial":52,"RT":782,"MT":500,"sideResp":1,"stimulus":"img/900/equaldotanddens/L/2_Ratio_900_L_20_R_18.png","xmouse":[803,803,803,803,803,803,803,803,803,803,803,803,803,803,803,803,803,803,803,803,803,803,803,803,803,803,803,803,803,803,803,803,803,803,803,803,803,802,794,696,606,510,430,373,340,340,340,340,340,340,340,342,347,355,380,393,398,400,401,403,406,410,414,422,426],"ymouse":[502,502,502,502,502,502,502,502,502,502,502,502,502,502,502,502,502,502,502,502,502,502,502,502,502,502,502,502,502,502,502,502,502,502,502,502,502,493,482,361,276,198,133,84,41,35,30,27,25,25,25,22,20,16,13,13,13,13,13,12,12,15,21,32,37],"timestamp_mouse":[8,38,42,63,81,103,122,143,162,183,203,222,242,262,282,302,323,343,362,382,402,421,441,463,482,502,521,542,563,582,602,621,642,661,681,702,721,742,762,782,802,822,843,861,882,903,922,942,962,981,1002,1022,1043,1063,1082,1102,1122,1142,1161,1183,1202,1223,1241,1263,1282],"xSR":741.5,"ySR":469.95,"xT1":424.9,"yT1":0,"xT2":1058.1,"yT2":0,"toosoon":0,"cond_shown":"equaldotanddens","ratio_trial":900,"smaller_num":"18","larger_num":"20","correct_side":1,"subjID":"JohanSebastianCarvajalSalazar34","gender":"0","age":"12","school":"6"},{"start_time":1551801509530,"click_time":1551801511101,"finger_time":1551801510622,"fix_duration":988.2048733837,"trial":53,"RT":1092,"MT":479,"sideResp":2,"stimulus":"img/250/randomdotsizeEA/R/9_Ratio_250_L_3_R_12.png","xmouse":[807,807,807,807,807,807,807,807,807,807,807,807,807,807,807,807,807,807,807,807,807,807,807,807,807,807,807,807,807,807,807,807,807,807,807,807,807,807,807,807,807,807,807,807,807,807,807,807,807,807,807,813,828,840,850,857,867,870,874,881,894,917,929,943,956,965,977,983,989,993,997,1003,1019,1030,1040,1048,1054,1063,1074],"ymouse":[538,538,538,538,538,538,538,538,538,538,538,538,538,538,538,538,538,538,538,538,538,538,538,538,538,538,538,538,538,538,538,538,538,538,538,538,538,538,538,538,538,538,538,538,538,538,538,538,538,537,530,519,489,472,457,447,434,427,420,407,383,343,321,297,273,255,228,215,196,182,168,155,133,124,118,112,107,103,99],"timestamp_mouse":[10,32,51,71,91,110,132,151,171,190,212,231,250,270,291,311,331,351,371,390,412,431,451,471,492,510,532,550,570,592,611,632,650,671,690,711,730,752,770,791,811,830,851,871,890,912,930,950,972,992,1011,1030,1052,1071,1092,1111,1132,1151,1170,1192,1210,1231,1250,1271,1291,1312,1331,1350,1370,1391,1410,1432,1451,1471,1491,1511,1532,1551,1571],"xSR":741.5,"ySR":469.95,"xT1":424.9,"yT1":0,"xT2":1058.1,"yT2":0,"toosoon":0,"cond_shown":"randomdotsizeEA","ratio_trial":250,"smaller_num":"3","larger_num":"12","correct_side":2,"subjID":"JohanSebastianCarvajalSalazar34","gender":"0","age":"12","school":"6"},{"start_time":1551801512673,"click_time":1551801515201,"finger_time":1551801514061,"fix_duration":250,"trial":54,"RT":1388,"MT":1140,"sideResp":2,"stimulus":"img/750/equaldotanddens/R/3_Ratio_750_L_15_R_20.png","xmouse":[770,770,770,770,770,770,770,770,770,770,770,770,770,770,770,770,770,770,770,770,770,770,770,770,770,770,770,770,770,770,770,770,770,770,770,770,770,770,770,770,770,770,770,770,770,770,770,770,770,770,770,770,770,770,770,770,770,770,770,770,770,770,770,770,770,770,768,762,754,719,697,677,657,652,650,649,649,649,649,648,644,640,637,635,635,635,635,635,635,635,635,635,637,651,694,721,747,771,794,833,850,866,882,904,929,941,953,965,976,988,1009,1020,1028,1037,1048,1055,1063,1068,1071,1072,1072,1072,1072,1073,1074,1075,1077],"ymouse":[519,521,521,521,521,521,521,521,521,521,521,521,521,521,521,521,521,521,521,521,521,521,521,521,521,521,521,521,521,521,521,521,521,521,521,521,521,521,521,521,521,521,521,521,521,521,521,521,521,521,521,521,521,521,521,521,521,521,521,521,521,521,521,521,521,520,507,491,470,424,406,392,378,374,373,372,372,372,370,365,360,354,351,349,349,349,349,349,349,349,349,349,348,346,339,336,330,325,317,307,298,289,277,258,230,215,202,189,179,171,159,152,149,145,139,137,132,128,125,122,122,121,120,115,107,101,95],"timestamp_mouse":[13,40,48,68,87,108,127,149,168,187,208,228,249,269,288,308,328,348,368,387,409,429,448,467,488,507,528,547,567,588,607,627,648,667,687,709,728,747,769,788,807,827,848,867,888,908,928,947,969,987,1009,1029,1048,1067,1089,1109,1127,1147,1168,1188,1208,1229,1248,1269,1289,1308,1329,1348,1368,1388,1407,1427,1448,1469,1489,1508,1528,1547,1568,1588,1608,1629,1648,1668,1688,1707,1729,1748,1768,1789,1809,1829,1847,1867,1889,1908,1928,1947,1968,1989,2008,2028,2047,2068,2088,2108,2127,2149,2169,2188,2208,2227,2248,2269,2288,2307,2327,2349,2368,2388,2407,2428,2447,2468,2489,2507,2528],"xSR":741.5,"ySR":469.95,"xT1":424.9,"yT1":0,"xT2":1058.1,"yT2":0,"toosoon":0,"cond_shown":"equaldotanddens","ratio_trial":750,"smaller_num":"15","larger_num":"20","correct_side":2,"subjID":"JohanSebastianCarvajalSalazar34","gender":"0","age":"12","school":"6"},{"start_time":1551801518052,"click_time":1551801519801,"finger_time":1551801518840,"fix_duration":250,"trial":55,"RT":788,"MT":961,"sideResp":2,"stimulus":"img/900/equaldotanddens/R/15_Ratio_900_L_9_R_10.png","xmouse":[765,765,765,765,765,765,765,765,765,765,765,765,765,765,765,765,765,765,765,765,765,765,765,765,765,765,765,765,765,765,765,765,765,765,765,765,761,755,747,731,688,657,639,629,620,601,596,588,584,579,563,552,544,537,531,530,530,530,530,530,530,530,530,530,530,530,530,531,540,555,607,659,680,746,802,846,913,933,943,948,954,981,1009,1045,1087,1127,1139,1145],"ymouse":[544,544,544,544,544,544,544,544,544,544,544,544,544,544,544,544,544,544,544,544,544,544,544,544,544,544,544,544,544,544,544,544,544,544,544,541,525,512,495,472,426,403,386,369,357,330,317,299,282,264,229,212,197,184,176,174,174,174,174,174,174,174,174,174,174,174,174,173,173,174,188,198,201,210,213,214,214,214,214,213,210,194,179,161,138,112,103,97],"timestamp_mouse":[12,41,49,69,89,108,129,149,168,189,209,229,249,269,289,310,329,350,369,389,409,429,449,470,489,509,529,550,569,589,608,630,648,669,689,709,729,750,769,788,810,829,849,869,888,910,929,949,968,990,1010,1028,1050,1070,1088,1108,1130,1150,1169,1189,1209,1228,1250,1269,1289,1309,1330,1349,1369,1389,1409,1428,1448,1469,1490,1510,1530,1549,1569,1589,1609,1629,1650,1668,1689,1710,1729,1749],"xSR":741.5,"ySR":469.95,"xT1":424.9,"yT1":0,"xT2":1058.1,"yT2":0,"toosoon":0,"cond_shown":"equaldotanddens","ratio_trial":900,"smaller_num":"9","larger_num":"10","correct_side":2,"subjID":"JohanSebastianCarvajalSalazar34","gender":"0","age":"12","school":"6"},{"start_time":1551801524283,"click_time":1551801525382,"finger_time":1551801525040,"fix_duration":1201.2923462881297,"trial":56,"RT":757,"MT":342,"sideResp":2,"stimulus":"img/900/randomdotsizeEA/R/3_Ratio_900_L_9_R_10.png","xmouse":[782,782,782,782,789,791,792,792,792,792,792,792,792,792,792,792,792,792,792,794,795,795,795,795,795,795,795,795,795,795,795,795,795,795,797,802,813,829,887,919,973,1014,1036,1036,1036,1036,1036,1036,1036,1036,1036,1036,1036,1036,1156],"ymouse":[518,518,518,518,518,518,518,518,518,518,518,518,518,518,518,518,518,518,518,516,514,514,514,514,514,514,514,514,514,514,514,514,514,514,512,506,494,467,350,277,144,57,20,20,20,20,20,20,20,20,20,20,20,20,53],"timestamp_mouse":[18,38,58,79,98,118,137,158,178,198,218,238,257,279,298,318,338,357,378,398,418,438,458,477,498,518,537,559,578,598,617,639,657,678,698,719,739,757,779,797,819,838,859,878,899,917,937,958,979,999,1018,1037,1058,1078,1098],"xSR":741.5,"ySR":469.9