[{"start_time":1551800595562,"click_time":1551800596275,"finger_time":1551800595936,"fix_duration":842.079495191503,"trial":0,"RT":374,"MT":339,"sideResp":2,"stimulus":[],"xmouse":[775,775,775,775,775,775,775,775,775,775,775,775,775,775,775,776,787,807,845,863,880,913,932,949,962,969,978,981,982,982,982,985,997,1017,1040,1061],"ymouse":[514,514,514,514,514,514,514,514,514,514,514,514,514,514,514,514,503,483,451,426,386,281,231,190,160,137,104,94,89,88,88,88,86,84,83,83],"timestamp_mouse":[13,35,53,74,93,113,134,152,172,193,214,233,253,274,293,312,333,354,374,392,412,433,453,472,492,513,533,552,572,593,614,632,652,672,692,712],"xSR":741.5,"ySR":469.95,"xT1":424.9,"yT1":0,"xT2":1058.1,"yT2":0,"toosoon":0,"cond_shown":"Incongruent","ratio_trial":300,"L_num":13,"L_den":26,"R_num":12,"R_den":15,"correct_side":2,"subjID":"JohanSebastianCarvajalSalazar34","gender":"0","age":"12","school":"6","test":{"fix_dur":[250,1500],"timestim":1000,"targets_dim":[100,100],"targets_relative_coord":[0.3,0.7],"size_stim":[880,420],"start_dim":[100,100],"size_start":[300,300],"size_fix":60,"samplingrate":20,"img_types":["Congruent","Incongruent"],"ratios":[100,200,300],"rep_conds":19,"nTrials":120,"trials_to_rest":500,"Trials_order":[17,53,39,117,28,27,8,102,80,65,73,1,49,10,36,29,108,56,58,64,75,84,0,31,79,118,66,18,97,99,13,47,51,52,25,98,78,6,92,110,69,38,55,83,22,61,59,112,9,23,90,20,5,105,95,35,93,115,11,43,119,82,7,104,48,21,101,87,2,111,26,50,24,44,106,91,32,114,116,72,76,113,103,60,45,68,96,57,41,16,63,74,19,46,81,109,67,94,34,77,37,33,3,12,89,14,107,85,4,70,42,62,88,40,86,71,15,54,30,100],"cond_shown":["Incongruent","Incongruent","Incongruent","Incongruent","Congruent","Incongruent","Congruent","Congruent","Congruent","Incongruent","Incongruent","Incongruent","Incongruent","Congruent","Congruent","Incongruent","Congruent","Congruent","Congruent","Congruent","Incongruent","Congruent","Congruent","Incongruent","Incongruent","Congruent","Congruent","Congruent","Incongruent","Incongruent","Incongruent","Incongruent","Incongruent","Congruent","Incongruent","Congruent","Congruent","Congruent","Congruent","Congruent","Incongruent","Congruent","Incongruent","Incongruent","Congruent","Incongruent","Incongruent","Congruent","Incongruent","Incongruent","Congruent","Congruent","Incongruent","Incongruent","Incongruent","Incongruent","Incongruent","Incongruent","Incongruent","Incongruent","Incongruent","Congruent","Incongruent","Congruent","Congruent","Incongruent","Incongruent","Incongruent","Congruent","Incongruent","Congruent","Congruent","Congruent","Congruent","Congruent","Incongruent","Congruent","Congruent","Congruent","Congruent","Congruent","Incongruent","Incongruent","Congruent","Incongruent","Congruent","Congruent","Incongruent","Incongruent","Congruent","Incongruent","Congruent","Incongruent","Congruent","Incongruent","Incongruent","Incongruent","Congruent","Congruent","Incongruent","Incongruent","Incongruent","Incongruent","Congruent","Incongruent","Congruent","Incongruent","Incongruent","Congruent","Congruent","Congruent","Congruent","Congruent","Congruent","Congruent","Incongruent","Incongruent","Congruent","Congruent","Congruent"],"ratio_trial":[300,300,200,200,300,200,200,100,200,300,100,100,100,300,100,300,100,200,300,300,200,100,100,100,100,300,100,100,100,200,100,300,200,300,100,200,100,100,200,200,200,200,100,300,300,100,300,300,200,300,100,200,300,200,300,300,200,100,300,100,300,300,100,200,100,200,300,200,200,200,200,200,100,200,300,100,200,100,200,100,300,300,100,100,200,200,100,200,300,300,200,200,100,300,200,100,100,300,300,300,100,200,200,100,300,200,300,100,300,300,100,200,300,300,200,300,200,100,100,300],"left_num":[13,7,4,7,24,4,9,4,15,4,3,2,13,5,2,4,1,7,3,1,7,4,4,9,10,12,6,2,9,3,3,4,4,11,3,7,2,11,6,3,11,12,3,13,3,8,4,1,4,8,4,11,13,1,4,7,4,3,13,6,13,24,3,16,9,6,4,4,16,7,12,3,6,12,11,9,16,4,3,11,20,13,9,3,1,14,8,1,13,1,14,4,17,18,7,9,2,20,24,4,6,7,4,6,13,13,1,8,1,1,4,6,4,20,9,13,7,6,2,1],"right_num":[12,8,14,14,8,6,13,6,4,2,11,8,12,7,6,8,3,18,4,11,4,6,6,14,8,2,5,11,6,11,4,2,6,1,8,18,11,6,11,14,3,6,11,12,2,6,2,11,1,9,6,3,12,3,2,8,6,4,12,3,12,2,7,12,8,3,2,1,12,12,6,7,15,6,4,20,12,6,7,6,5,12,6,4,3,6,2,2,12,8,6,3,10,9,14,13,8,13,8,2,7,4,1,15,12,14,2,6,11,6,6,7,13,9,4,12,4,15,11,3],"left_den":[26,10,6,10,30,5,30,8,25,20,5,4,26,25,5,5,2,15,6,5,15,8,8,15,25,24,20,5,18,4,6,20,5,22,5,15,5,22,20,10,20,20,5,26,6,16,20,5,30,10,8,22,26,2,20,10,5,6,26,12,26,30,9,20,15,20,20,30,20,10,15,10,12,15,22,10,20,8,10,22,25,26,18,20,2,28,16,3,26,30,30,10,30,20,10,15,4,25,30,20,10,15,30,12,26,26,2,16,5,5,8,12,20,25,20,26,15,12,5,5],"right_den":[15,20,30,28,16,10,26,10,10,4,22,20,20,14,12,16,5,27,5,22,6,10,10,28,16,10,25,22,10,20,10,4,10,5,16,27,22,15,22,28,4,15,22,15,10,10,4,22,3,18,10,10,15,10,4,20,10,10,15,5,15,4,30,20,16,6,4,3,20,24,10,14,25,10,20,25,20,10,14,15,10,15,10,16,10,20,5,15,15,24,9,15,15,15,28,26,20,26,16,4,14,6,3,25,15,20,10,10,22,12,10,10,26,18,16,15,6,25,22,6],"correct_side":[2,1,1,1,1,1,2,2,1,2,1,1,2,2,2,1,2,2,2,2,2,2,2,1,2,1,1,2,2,1,1,2,1,1,1,2,2,1,2,2,2,1,1,2,1,2,2,2,2,1,2,1,2,1,2,1,1,1,2,2,2,1,1,1,1,2,2,2,1,1,1,2,2,1,1,1,1,2,2,1,1,2,2,2,1,1,1,1,2,2,2,1,2,1,1,1,1,1,1,2,1,2,2,2,2,2,1,2,2,2,2,2,2,1,1,2,2,2,2,2],"img_shown":["img2/300/Incongruent/R/I_Dist_300_LN_13_LD_26_RN_12_RD_15_1.png","img2/300/Incongruent/L/I_Dist_300_LN_7_LD_10_RN_8_RD_20_0.png","img2/200/Incongruent/L/I_Dist_200_LN_4_LD_6_RN_14_RD_30_0.png","img2/200/Incongruent/L/I_Dist_200_LN_7_LD_10_RN_14_RD_28_0.png","img2/300/Congruent/L/C_Dist_300_LN_24_LD_30_RN_8_RD_16_0.png","img2/200/Incongruent/L/I_Dist_200_LN_4_LD_5_RN_6_RD_10_0.png","img2/200/Congruent/R/C_Dist_200_LN_9_LD_30_RN_13_RD_26_1.png","img2/100/Congruent/R/C_Dist_100_LN_4_LD_8_RN_6_RD_10_1.png","img2/200/Congruent/L/C_Dist_200_LN_15_LD_25_RN_4_RD_10_0.png","img2/300/Incongruent/R/I_Dist_300_LN_4_LD_20_RN_2_RD_4_1.png","img2/100/Incongruent/L/I_Dist_100_LN_3_LD_5_RN_11_RD_22_0.png","img2/100/Incongruent/L/I_Dist_100_LN_2_LD_4_RN_8_RD_20_0.png","img2/100/Incongruent/R/I_Dist_100_LN_13_LD_26_RN_12_RD_20_1.png","img2/300/Congruent/R/C_Dist_300_LN_5_LD_25_RN_7_RD_14_1.png","img2/100/Congruent/R/C_Dist_100_LN_2_LD_5_RN_6_RD_12_1.png","img2/300/Incongruent/L/I_Dist_300_LN_4_LD_5_RN_8_RD_16_0.png","img2/100/Congruent/R/C_Dist_100_LN_1_LD_2_RN_3_RD_5_1.png","img2/200/Congruent/R/C_Dist_200_LN_7_LD_15_RN_18_RD_27_1.png","img2/300/Congruent/R/C_Dist_300_LN_3_LD_6_RN_4_RD_5_1.png","img2/300/Congruent/R/C_Dist_300_LN_1_LD_5_RN_11_RD_22_1.png","img2/200/Incongruent/R/I_Dist_200_LN_7_LD_15_RN_4_RD_6_1.png","img2/100/Congruent/R/C_Dist_100_LN_4_LD_8_RN_6_RD_10_1.png","img2/100/Congruent/R/C_Dist_100_LN_4_LD_8_RN_6_RD_10_1.png","img2/100/Incongruent/L/I_Dist_100_LN_9_LD_15_RN_14_RD_28_0.png","img2/100/Incongruent/R/I_Dist_100_LN_10_LD_25_RN_8_RD_16_1.png","img2/300/Congruent/L/C_Dist_300_LN_12_LD_24_RN_2_RD_10_0.png","img2/100/Congruent/L/C_Dist_100_LN_6_LD_20_RN_5_RD_25_0.png","img2/100/Congruent/R/C_Dist_100_LN_2_LD_5_RN_11_RD_22_1.png","img2/100/Incongruent/R/I_Dist_100_LN_9_LD_18_RN_6_RD_10_1.png","img2/200/Incongruent/L/I_Dist_200_LN_3_LD_4_RN_11_RD_20_0.png","img2/100/Incongruent/L/I_Dist_100_LN_3_LD_6_RN_4_RD_10_0.png","img2/300/Incongruent/R/I_Dist_300_LN_4_LD_20_RN_2_RD_4_1.png","img2/200/Incongruent/L/I_Dist_200_LN_4_LD_5_RN_6_RD_10_0.png","img2/300/Congruent/L/C_Dist_300_LN_11_LD_22_RN_1_RD_5_0.png","img2/100/Incongruent/L/I_Dist_100_LN_3_LD_5_RN_8_RD_16_0.png","img2/200/Congruent/R/C_Dist_200_LN_7_LD_15_RN_18_RD_27_1.png","img2/100/Congruent/R/C_Dist_100_LN_2_LD_5_RN_11_RD_22_1.png","img2/100/Congruent/L/C_Dist_100_LN_11_LD_22_RN_6_RD_15_0.png","img2/200/Congruent/R/C_Dist_200_LN_6_LD_20_RN_11_RD_22_1.png","img2/200/Congruent/R/C_Dist_200_LN_3_LD_10_RN_14_RD_28_1.png","img2/200/Incongruent/R/I_Dist_200_LN_11_LD_20_RN_3_RD_4_1.png","img2/200/Congruent/L/C_Dist_200_LN_12_LD_20_RN_6_RD_15_0.png","img2/100/Incongruent/L/I_Dist_100_LN_3_LD_5_RN_11_RD_22_0.png","img2/300/Incongruent/R/I_Dist_300_LN_13_LD_26_RN_12_RD_15_1.png","img2/300/Congruent/L/C_Dist_300_LN_3_LD_6_RN_2_RD_10_0.png","img2/100/Incongruent/R/I_Dist_100_LN_8_LD_16_RN_6_RD_10_1.png","img2/300/Incongruent/R/I_Dist_300_LN_4_LD_20_RN_2_RD_4_1.png","img2/300/Congruent/R/C_Dist_300_LN_1_LD_5_RN_11_RD_22_1.png","img2/200/Incongruent/R/I_Dist_200_LN_4_LD_30_RN_1_RD_3_1.png","img2/300/Incongruent/L/I_Dist_300_LN_8_LD_10_RN_9_RD_18_0.png","img2/100/Congruent/R/C_Dist_100_LN_4_LD_8_RN_6_RD_10_1.png","img2/200/Congruent/L/C_Dist_200_LN_11_LD_22_RN_3_RD_10_0.png","img2/300/Incongruent/R/I_Dist_300_LN_13_LD_26_RN_12_RD_15_1.png","img2/200/Incongruent/L/I_Dist_200_LN_1_LD_2_RN_3_RD_10_0.png","img2/300/Incongruent/R/I_Dist_300_LN_4_LD_20_RN_2_RD_4_1.png","img2/300/Incongruent/L/I_Dist_300_LN_7_LD_10_RN_8_RD_20_0.png","img2/200/Incongruent/L/I_Dist_200_LN_4_LD_5_RN_6_RD_10_0.png","img2/100/Incongruent/L/I_Dist_100_LN_3_LD_6_RN_4_RD_10_0.png","img2/300/Incongruent/R/I_Dist_300_LN_13_LD_26_RN_12_RD_15_1.png","img2/100/Incongruent/R/I_Dist_100_LN_6_LD_12_RN_3_RD_5_1.png","img2/300/Incongruent/R/I_Dist_300_LN_13_LD_26_RN_12_RD_15_1.png","img2/300/Congruent/L/C_Dist_300_LN_24_LD_30_RN_2_RD_4_0.png","img2/100/Incongruent/L/I_Dist_100_LN_3_LD_9_RN_7_RD_30_0.png","img2/200/Congruent/L/C_Dist_200_LN_16_LD_20_RN_12_RD_20_0.png","img2/100/Congruent/L/C_Dist_100_LN_9_LD_15_RN_8_RD_16_0.png","img2/200/Incongruent/R/I_Dist_200_LN_6_LD_20_RN_3_RD_6_1.png","img2/300/Incongruent/R/I_Dist_300_LN_4_LD_20_RN_2_RD_4_1.png","img2/200/Incongruent/R/I_Dist_200_LN_4_LD_30_RN_1_RD_3_1.png","img2/200/Congruent/L/C_Dist_200_LN_16_LD_20_RN_12_RD_20_0.png","img2/200/Incongruent/L/I_Dist_200_LN_7_LD_10_RN_12_RD_24_0.png","img2/200/Congruent/L/C_Dist_200_LN_12_LD_15_RN_6_RD_10_0.png","img2/200/Congruent/R/C_Dist_200_LN_3_LD_10_RN_7_RD_14_1.png","img2/100/Congruent/R/C_Dist_100_LN_6_LD_12_RN_15_RD_25_1.png","img2/200/Congruent/L/C_Dist_200_LN_12_LD_15_RN_6_RD_10_0.png","img2/300/Congruent/L/C_Dist_300_LN_11_LD_22_RN_4_RD_20_0.png","img2/100/Incongruent/L/I_Dist_100_LN_9_LD_10_RN_20_RD_25_0.png","img2/200/Congruent/L/C_Dist_200_LN_16_LD_20_RN_12_RD_20_0.png","img2/100/Congruent/R/C_Dist_100_LN_4_LD_8_RN_6_RD_10_1.png","img2/200/Congruent/R/C_Dist_200_LN_3_LD_10_RN_7_RD_14_1.png","img2/100/Congruent/L/C_Dist_100_LN_11_LD_22_RN_6_RD_15_0.png","img2/300/Congruent/L/C_Dist_300_LN_20_LD_25_RN_5_RD_10_0.png","img2/300/Incongruent/R/I_Dist_300_LN_13_LD_26_RN_12_RD_15_1.png","img2/100/Incongruent/R/I_Dist_100_LN_9_LD_18_RN_6_RD_10_1.png","img2/100/Congruent/R/C_Dist_100_LN_3_LD_20_RN_4_RD_16_1.png","img2/200/Incongruent/L/I_Dist_200_LN_1_LD_2_RN_3_RD_10_0.png","img2/200/Congruent/L/C_Dist_200_LN_14_LD_28_RN_6_RD_20_0.png","img2/100/Congruent/L/C_Dist_100_LN_8_LD_16_RN_2_RD_5_0.png","img2/200/Incongruent/L/I_Dist_200_LN_1_LD_3_RN_2_RD_15_0.png","img2/300/Incongruent/R/I_Dist_300_LN_13_LD_26_RN_12_RD_15_1.png","img2/300/Congruent/R/C_Dist_300_LN_1_LD_30_RN_8_RD_24_1.png","img2/200/Incongruent/R/I_Dist_200_LN_14_LD_30_RN_6_RD_9_1.png","img2/200/Congruent/L/C_Dist_200_LN_4_LD_10_RN_3_RD_15_0.png","img2/100/Incongruent/R/I_Dist_100_LN_17_LD_30_RN_10_RD_15_1.png","img2/300/Congruent/L/C_Dist_300_LN_18_LD_20_RN_9_RD_15_0.png","img2/200/Incongruent/L/I_Dist_200_LN_7_LD_10_RN_14_RD_28_0.png","img2/100/Incongruent/L/I_Dist_100_LN_9_LD_15_RN_13_RD_26_0.png","img2/100/Incongruent/L/I_Dist_100_LN_2_LD_4_RN_8_RD_20_0.png","img2/300/Congruent/L/C_Dist_300_LN_20_LD_25_RN_13_RD_26_0.png","img2/300/Congruent/L/C_Dist_300_LN_24_LD_30_RN_8_RD_16_0.png","img2/300/Incongruent/R/I_Dist_300_LN_4_LD_20_RN_2_RD_4_1.png","img2/100/Incongruent/L/I_Dist_100_LN_6_LD_10_RN_7_RD_14_0.png","img2/200/Incongruent/R/I_Dist_200_LN_7_LD_15_RN_4_RD_6_1.png","img2/200/Incongruent/R/I_Dist_200_LN_4_LD_30_RN_1_RD_3_1.png","img2/100/Congruent/R/C_Dist_100_LN_6_LD_12_RN_15_RD_25_1.png","img2/300/Incongruent/R/I_Dist_300_LN_13_LD_26_RN_12_RD_15_1.png","img2/200/Congruent/R/C_Dist_200_LN_13_LD_26_RN_14_RD_20_1.png","img2/300/Incongruent/L/I_Dist_300_LN_1_LD_2_RN_2_RD_10_0.png","img2/100/Incongruent/R/I_Dist_100_LN_8_LD_16_RN_6_RD_10_1.png","img2/300/Congruent/R/C_Dist_300_LN_1_LD_5_RN_11_RD_22_1.png","img2/300/Congruent/R/C_Dist_300_LN_1_LD_5_RN_6_RD_12_1.png","img2/100/Congruent/R/C_Dist_100_LN_4_LD_8_RN_6_RD_10_1.png","img2/200/Congruent/R/C_Dist_200_LN_6_LD_12_RN_7_RD_10_1.png","img2/300/Congruent/R/C_Dist_300_LN_4_LD_20_RN_13_RD_26_1.png","img2/300/Congruent/L/C_Dist_300_LN_20_LD_25_RN_9_RD_18_0.png","img2/200/Congruent/L/C_Dist_200_LN_9_LD_20_RN_4_RD_16_0.png","img2/300/Incongruent/R/I_Dist_300_LN_13_LD_26_RN_12_RD_15_1.png","img2/200/Incongruent/R/I_Dist_200_LN_7_LD_15_RN_4_RD_6_1.png","img2/100/Congruent/R/C_Dist_100_LN_6_LD_12_RN_15_RD_25_1.png","img2/100/Congruent/R/C_Dist_100_LN_2_LD_5_RN_11_RD_22_1.png","img2/300/Congruent/R/C_Dist_300_LN_1_LD_5_RN_3_RD_6_1.png"],"dist100_C":[["C_Dist_100_LN_10_LD_25_RN_3_RD_10_0.png","C_Dist_100_LN_11_LD_22_RN_4_RD_10_0.png","C_Dist_100_LN_11_LD_22_RN_6_RD_15_0.png","C_Dist_100_LN_15_LD_25_RN_13_RD_26_0.png","C_Dist_100_LN_3_LD_6_RN_2_RD_5_0.png","C_Dist_100_LN_6_LD_20_RN_5_RD_25_0.png","C_Dist_100_LN_8_LD_16_RN_2_RD_5_0.png","C_Dist_100_LN_9_LD_15_RN_8_RD_16_0.png"],["C_Dist_100_LN_1_LD_2_RN_18_RD_30_1.png","C_Dist_100_LN_1_LD_2_RN_3_RD_5_1.png","C_Dist_100_LN_12_LD_30_RN_13_RD_26_1.png","C_Dist_100_LN_2_LD_5_RN_11_RD_22_1.png","C_Dist_100_LN_2_LD_5_RN_6_RD_12_1.png","C_Dist_100_LN_3_LD_20_RN_4_RD_16_1.png","C_Dist_100_LN_4_LD_10_RN_15_RD_30_1.png","C_Dist_100_LN_4_LD_8_RN_6_RD_10_1.png","C_Dist_100_LN_6_LD_12_RN_15_RD_25_1.png","C_Dist_100_LN_7_LD_14_RN_15_RD_25_1.png","C_Dist_100_LN_7_LD_14_RN_9_RD_15_1.png"]],"dist100_I":[["I_Dist_100_LN_1_LD_2_RN_8_RD_20_0.png","I_Dist_100_LN_2_LD_4_RN_6_RD_15_0.png","I_Dist_100_LN_2_LD_4_RN_8_RD_20_0.png","I_Dist_100_LN_3_LD_5_RN_11_RD_22_0.png","I_Dist_100_LN_3_LD_5_RN_8_RD_16_0.png","I_Dist_100_LN_3_LD_6_RN_4_RD_10_0.png","I_Dist_100_LN_3_LD_9_RN_7_RD_30_0.png","I_Dist_100_LN_4_LD_8_RN_8_RD_20_0.png","I_Dist_100_LN_6_LD_10_RN_11_RD_22_0.png","I_Dist_100_LN_6_LD_10_RN_13_RD_26_0.png","I_Dist_100_LN_6_LD_10_RN_7_RD_14_0.png","I_Dist_100_LN_9_LD_10_RN_20_RD_25_0.png","I_Dist_100_LN_9_LD_15_RN_13_RD_26_0.png","I_Dist_100_LN_9_LD_15_RN_14_RD_28_0.png"],["I_Dist_100_LN_10_LD_25_RN_8_RD_16_1.png","I_Dist_100_LN_10_LD_25_RN_9_RD_18_1.png","I_Dist_100_LN_11_LD_22_RN_9_RD_15_1.png","I_Dist_100_LN_12_LD_24_RN_9_RD_15_1.png","I_Dist_100_LN_12_LD_30_RN_2_RD_4_1.png","I_Dist_100_LN_13_LD_26_RN_12_RD_20_1.png","I_Dist_100_LN_13_LD_26_RN_6_RD_10_1.png","I_Dist_100_LN_17_LD_30_RN_10_RD_15_1.png","I_Dist_100_LN_6_LD_12_RN_3_RD_5_1.png","I_Dist_100_LN_8_LD_16_RN_6_RD_10_1.png","I_Dist_100_LN_8_LD_20_RN_1_RD_2_1.png","I_Dist_100_LN_9_LD_18_RN_6_RD_10_1.png"]],"dist100_S":[["E_Dist_100_LN_2_LD_12_RN_2_RD_30_0.png","E_Dist_100_LN_6_LD_10_RN_6_RD_12_0.png"],["E_Dist_100_LN_6_LD_12_RN_6_RD_10_1.png"]],"dist200_C":[["C_Dist_200_LN_11_LD_22_RN_3_RD_10_0.png","C_Dist_200_LN_12_LD_15_RN_6_RD_10_0.png","C_Dist_200_LN_12_LD_20_RN_6_RD_15_0.png","C_Dist_200_LN_14_LD_28_RN_6_RD_20_0.png","C_Dist_200_LN_15_LD_25_RN_4_RD_10_0.png","C_Dist_200_LN_16_LD_20_RN_12_RD_20_0.png","C_Dist_200_LN_16_LD_30_RN_9_RD_27_0.png","C_Dist_200_LN_20_LD_25_RN_9_RD_15_0.png","C_Dist_200_LN_21_LD_30_RN_2_RD_4_0.png","C_Dist_200_LN_4_LD_10_RN_3_RD_15_0.png","C_Dist_200_LN_4_LD_8_RN_3_RD_10_0.png","C_Dist_200_LN_6_LD_15_RN_3_RD_15_0.png","C_Dist_200_LN_7_LD_21_RN_2_RD_15_0.png","C_Dist_200_LN_8_LD_15_RN_2_RD_6_0.png","C_Dist_200_LN_8_LD_15_RN_3_RD_9_0.png","C_Dist_200_LN_8_LD_15_RN_7_RD_21_0.png","C_Dist_200_LN_9_LD_20_RN_4_RD_16_0.png"],["C_Dist_200_LN_1_LD_2_RN_21_RD_30_1.png","C_Dist_200_LN_13_LD_26_RN_14_RD_20_1.png","C_Dist_200_LN_3_LD_10_RN_11_RD_22_1.png","C_Dist_200_LN_3_LD_10_RN_14_RD_28_1.png","C_Dist_200_LN_3_LD_10_RN_7_RD_14_1.png","C_Dist_200_LN_3_LD_12_RN_9_RD_20_1.png","C_Dist_200_LN_3_LD_6_RN_14_RD_20_1.png","C_Dist_200_LN_5_LD_10_RN_14_RD_20_1.png","C_Dist_200_LN_6_LD_12_RN_7_RD_10_1.png","C_Dist_200_LN_6_LD_20_RN_11_RD_22_1.png","C_Dist_200_LN_7_LD_15_RN_18_RD_27_1.png","C_Dist_200_LN_9_LD_30_RN_13_RD_26_1.png"]],"dist200_I":[["I_Dist_200_LN_1_LD_2_RN_3_RD_10_0.png","I_Dist_200_LN_1_LD_3_RN_2_RD_15_0.png","I_Dist_200_LN_3_LD_4_RN_11_RD_20_0.png","I_Dist_200_LN_4_LD_5_RN_6_RD_10_0.png","I_Dist_200_LN_4_LD_6_RN_14_RD_30_0.png","I_Dist_200_LN_7_LD_10_RN_12_RD_24_0.png","I_Dist_200_LN_7_LD_10_RN_14_RD_28_0.png","I_Dist_200_LN_7_LD_10_RN_8_RD_16_0.png"],["I_Dist_200_LN_11_LD_20_RN_3_RD_4_1.png","I_Dist_200_LN_14_LD_30_RN_12_RD_18_1.png","I_Dist_200_LN_14_LD_30_RN_6_RD_9_1.png","I_Dist_200_LN_3_LD_10_RN_1_RD_2_1.png","I_Dist_200_LN_4_LD_30_RN_1_RD_3_1.png","I_Dist_200_LN_6_LD_20_RN_3_RD_6_1.png","I_Dist_200_LN_7_LD_15_RN_4_RD_6_1.png","I_Dist_200_LN_7_LD_15_RN_6_RD_9_1.png","I_Dist_200_LN_9_LD_15_RN_8_RD_10_1.png"]],"dist200_S":[["E_Dist_200_LN_3_LD_6_RN_3_RD_10_0.png"],["E_Dist_200_LN_3_LD_10_RN_3_RD_6_1.png"]],"dist300_C":[["C_Dist_300_LN_11_LD_22_RN_1_RD_5_0.png","C_Dist_300_LN_11_LD_22_RN_2_RD_10_0.png","C_Dist_300_LN_11_LD_22_RN_4_RD_20_0.png","C_Dist_300_LN_12_LD_24_RN_2_RD_10_0.png","C_Dist_300_LN_18_LD_20_RN_9_RD_15_0.png","C_Dist_300_LN_20_LD_25_RN_13_RD_26_0.png","C_Dist_300_LN_20_LD_25_RN_14_RD_28_0.png","C_Dist_300_LN_20_LD_25_RN_5_RD_10_0.png","C_Dist_300_LN_20_LD_25_RN_8_RD_16_0.png","C_Dist_300_LN_20_LD_25_RN_9_RD_18_0.png","C_Dist_300_LN_24_LD_30_RN_2_RD_4_0.png","C_Dist_300_LN_24_LD_30_RN_8_RD_16_0.png","C_Dist_300_LN_3_LD_6_RN_2_RD_10_0.png","C_Dist_300_LN_4_LD_10_RN_1_RD_10_0.png","C_Dist_300_LN_4_LD_5_RN_2_RD_4_0.png","C_Dist_300_LN_8_LD_16_RN_1_RD_5_0.png","C_Dist_300_LN_9_LD_10_RN_3_RD_5_0.png"],["C_Dist_300_LN_1_LD_20_RN_7_RD_20_1.png","C_Dist_300_LN_1_LD_3_RN_19_RD_30_1.png","C_Dist_300_LN_1_LD_30_RN_8_RD_24_1.png","C_Dist_300_LN_1_LD_5_RN_11_RD_22_1.png","C_Dist_300_LN_1_LD_5_RN_3_RD_6_1.png","C_Dist_300_LN_1_LD_5_RN_6_RD_12_1.png","C_Dist_300_LN_2_LD_10_RN_12_RD_24_1.png","C_Dist_300_LN_2_LD_20_RN_10_RD_25_1.png","C_Dist_300_LN_3_LD_12_RN_11_RD_20_1.png","C_Dist_300_LN_3_LD_6_RN_4_RD_5_1.png","C_Dist_300_LN_4_LD_20_RN_13_RD_26_1.png","C_Dist_300_LN_5_LD_25_RN_6_RD_12_1.png","C_Dist_300_LN_5_LD_25_RN_7_RD_14_1.png","C_Dist_300_LN_7_LD_14_RN_20_RD_25_1.png","C_Dist_300_LN_8_LD_15_RN_10_RD_12_1.png"]],"dist300_I":[["I_Dist_300_LN_1_LD_2_RN_2_RD_10_0.png","I_Dist_300_LN_1_LD_2_RN_3_RD_15_0.png","I_Dist_300_LN_2_LD_4_RN_6_RD_30_0.png","I_Dist_300_LN_3_LD_6_RN_4_RD_20_0.png","I_Dist_300_LN_4_LD_5_RN_6_RD_12_0.png","I_Dist_300_LN_4_LD_5_RN_8_RD_16_0.png","I_Dist_300_LN_7_LD_10_RN_8_RD_20_0.png","I_Dist_300_LN_8_LD_10_RN_14_RD_28_0.png","I_Dist_300_LN_8_LD_10_RN_9_RD_18_0.png"],["I_Dist_300_LN_13_LD_26_RN_12_RD_15_1.png","I_Dist_300_LN_4_LD_20_RN_2_RD_4_1.png"]],"dist300_S":[["E_Dist_300_LN_9_LD_12_RN_9_RD_20_0.png"],["E_Dist_300_LN_18_LD_30_RN_18_RD_20_1.png","E_Dist_300_LN_3_LD_10_RN_3_RD_5_1.png","E_Dist_300_LN_9_LD_20_RN_9_RD_12_1.png"]],"dist500_C":[["C_Dist_500_LN_10_LD_13_RN_7_RD_26_0.png","C_Dist_500_LN_10_LD_15_RN_4_RD_24_0.png","C_Dist_500_LN_12_LD_16_RN_3_RD_12_0.png","C_Dist_500_LN_12_LD_18_RN_4_RD_24_0.png","C_Dist_500_LN_15_LD_18_RN_5_RD_15_0.png","C_Dist_500_LN_15_LD_20_RN_1_RD_4_0.png","C_Dist_500_LN_18_LD_27_RN_1_RD_6_0.png","C_Dist_500_LN_20_LD_24_RN_1_RD_3_0.png","C_Dist_500_LN_20_LD_24_RN_3_RD_9_0.png","C_Dist_500_LN_20_LD_24_RN_7_RD_21_0.png","C_Dist_500_LN_20_LD_28_RN_3_RD_14_0.png","C_Dist_500_LN_21_LD_28_RN_6_RD_24_0.png","C_Dist_500_LN_22_LD_28_RN_2_RD_7_0.png","C_Dist_500_LN_25_LD_30_RN_9_RD_27_0.png","C_Dist_500_LN_4_LD_6_RN_1_RD_6_0.png","C_Dist_500_LN_5_LD_6_RN_2_RD_6_0.png","C_Dist_500_LN_6_LD_9_RN_1_RD_6_0.png","C_Dist_500_LN_7_LD_10_RN_1_RD_5_0.png","C_Dist_500_LN_8_LD_12_RN_1_RD_6_0.png","C_Dist_500_LN_8_LD_12_RN_4_RD_24_0.png"],["C_Dist_500_LN_1_LD_4_RN_12_RD_16_1.png","C_Dist_500_LN_1_LD_4_RN_9_RD_12_1.png","C_Dist_500_LN_1_LD_9_RN_11_RD_18_1.png","C_Dist_500_LN_10_LD_24_RN_22_RD_24_1.png","C_Dist_500_LN_2_LD_12_RN_10_RD_15_1.png","C_Dist_500_LN_2_LD_12_RN_12_RD_18_1.png","C_Dist_500_LN_2_LD_12_RN_4_RD_6_1.png","C_Dist_500_LN_2_LD_24_RN_7_RD_12_1.png","C_Dist_500_LN_2_LD_5_RN_18_RD_20_1.png","C_Dist_500_LN_2_LD_5_RN_9_RD_10_1.png","C_Dist_500_LN_2_LD_8_RN_12_RD_16_1.png","C_Dist_500_LN_2_LD_8_RN_21_RD_28_1.png","C_Dist_500_LN_3_LD_10_RN_4_RD_5_1.png","C_Dist_500_LN_3_LD_12_RN_15_RD_20_1.png","C_Dist_500_LN_3_LD_30_RN_6_RD_10_1.png","C_Dist_500_LN_3_LD_8_RN_14_RD_16_1.png","C_Dist_500_LN_4_LD_16_RN_15_RD_20_1.png","C_Dist_500_LN_4_LD_24_RN_12_RD_18_1.png","C_Dist_500_LN_5_LD_14_RN_6_RD_7_1.png","C_Dist_500_LN_7_LD_21_RN_20_RD_24_1.png","C_Dist_500_LN_7_LD_28_RN_12_RD_16_1.png","C_Dist_500_LN_7_LD_28_RN_9_RD_12_1.png","C_Dist_500_LN_9_LD_27_RN_20_RD_24_1.png"]],"dist500_I":[["I_Dist_500_LN_2_LD_3_RN_4_RD_24_0.png","I_Dist_500_LN_5_LD_6_RN_6_RD_18_0.png","I_Dist_500_LN_7_LD_8_RN_9_RD_24_0.png"],["I_Dist_500_LN_7_LD_21_RN_5_RD_6_1.png"]],"dist500_S":[["E_Dist_500_LN_6_LD_8_RN_6_RD_24_0.png"],["E_Dist_500_LN_2_LD_12_RN_2_RD_3_1.png","E_Dist_500_LN_6_LD_24_RN_6_RD_8_1.png"]]}},{"start_time":1551800597945,"click_time":1551800598515,"finger_time":1551800598254,"fix_duration":647.3808164965828,"trial":1,"RT":309,"MT":261,"sideResp":2,"stimulus":[],"xmouse":[803,803,803,803,803,803,803,803,803,803,803,803,803,807,824,862,909,986,1013,1031,1042,1045,1047,1048,1050,1053,1057,1066,1077],"ymouse":[490,490,490,490,490,490,490,490,490,490,490,490,490,486,470,436,391,288,241,205,178,169,161,156,150,142,133,112,98],"timestamp_mouse":[10,29,51,70,90,111,130,149,170,191,211,229,251,270,289,309,331,350,369,390,409,429,449,469,489,510,531,549,569],"xSR":741.5,"ySR":469.95,"xT1":424.9,"yT1":0,"xT2":1058.1,"yT2":0,"toosoon":0,"cond_shown":"Incongruent","ratio_trial":300,"L_num":7,"L_den":10,"R_num":8,"R_den":20,"correct_side":1,"subjID":"JohanSebastianCarvajalSalazar34","gender":"0","school":"6","age":"12"},{"start_time":1551800600355,"click_time":1551800600815,"finger_time":1551800600695,"fix_duration":1058.8816405403015,"trial":2,"RT":340,"MT":120,"sideResp":1,"stimulus":[],"xmouse":[770,770,770,770,770,770,770,770,770,770,770,771,771,772,772,772,772,756,675,611,531,511,508,508],"ymouse":[529,529,529,529,529,529,529,529,529,529,528,527,527,525,522,514,495,456,325,247,150,119,105,88],"timestamp_mouse":[4,19,43,59,81,100,119,140,160,179,200,221,240,260,280,300,321,340,360,380,399,421,440,460],"xSR":741.5,"ySR":469.95,"xT1":424.9,"yT1":0,"xT2":1058.1,"yT2":0,"toosoon":0,"cond_shown":"Incongruent","ratio_trial":200,"L_num":4,"L_den":6,"R_num":14,"R_den":30,"correct_side":1,"subjID":"JohanSebastianCarvajalSalazar34","gender":"0","school":"6","age":"12"},{"start_time":1551800605869,"click_time":1551800606536,"finger_time":1551800606175,"fix_duration":1172.8627022235298,"trial":3,"RT":306,"MT":361,"sideResp":1,"stimulus":[],"xmouse":[773,773,773,773,773,773,773,773,773,773,773,773,773,774,771,760,704,664,623,589,565,558,557,557,557,557,557,557,557,557,557,557,545,522],"ymouse":[499,499,499,499,499,499,499,499,499,499,499,499,499,499,487,455,341,274,207,141,97,77,60,58,58,58,58,58,58,58,58,58,56,56],"timestamp_mouse":[8,39,47,65,86,105,125,147,167,185,206,226,245,265,285,305,327,346,365,387,406,426,447,466,486,506,526,546,565,586,606,626,646,666],"xSR":741.5,"ySR":469.95,"xT1":424.9,"yT1":0,"xT2":1058.1,"yT2":0,"toosoon":0,"cond_shown":"Incongruent","ratio_trial":200,"L_num":7,"L_den":10,"R_num":14,"R_den":28,"correct_side":1,"subjID":"JohanSebastianCarvajalSalazar34","gender":"0","school":"6","age":"12"},{"start_time":1551800610587,"click_time":1551800611356,"finger_time":1551800611016,"fix_duration":250,"trial":4,"RT":429,"MT":340,"sideResp":1,"stimulus":[],"xmouse":[780,780,780,780,780,780,780,780,780,780,780,780,780,780,780,780,780,780,780,779,759,738,704,666,618,525,493,489,484,483,482,482,482,482,482,491,494,494,494],"ymouse":[552,552,552,552,552,552,552,552,552,552,552,552,552,552,552,552,552,552,552,548,499,455,401,344,286,195,160,153,143,140,138,138,138,138,135,128,118,105,82],"timestamp_mouse":[8,29,47,73,87,109,128,148,168,188,207,229,247,268,288,307,327,348,367,389,408,429,448,468,488,508,527,548,568,588,607,628,647,669,688,708,727,749,769],"xSR":741.5,"ySR":469.95,"xT1":424.9,"yT1":0,"xT2":1058.1,"yT2":0,"toosoon":0,"cond_shown":"Congruent","ratio_trial":300,"L_num":24,"L_den":30,"R_num":8,"R_den":16,"correct_side":1,"subjID":"JohanSebastianCarvajalSalazar34","gender":"0","school":"6","age":"12"},{"start_time":1551800614040,"click_time":1551800614515,"finger_time":1551800614435,"fix_duration":1344.726225257634,"trial":5,"RT":395,"MT":80,"sideResp":1,"stimulus":[],"xmouse":[803,803,803,803,803,803,803,803,803,803,803,803,803,803,803,803,803,802,787,761,711,652,519,467],"ymouse":[517,517,517,517,517,517,517,517,517,517,517,517,517,517,517,517,517,512,495,466,418,355,177,84],"timestamp_mouse":[15,41,55,74,94,115,135,154,176,196,215,235,256,275,296,314,336,355,375,395,415,434,455,475],"xSR":741.5,"ySR":469.95,"xT1":424.9,"yT1":0,"xT2":1058.1,"yT2":0,"toosoon":0,"cond_shown":"Incongruent","ratio_trial":200,"L_num":4,"L_den":5,"R_num":6,"R_den":10,"correct_side":1,"subjID":"JohanSebastianCarvajalSalazar34","gender":"0","school":"6","age":"12"},{"start_time":1551800618728,"click_time":1551800619495,"finger_time":1551800619015,"fix_duration":250,"trial":6,"RT":287,"MT":480,"sideResp":2,"stimulus":[],"xmouse":[746,746,746,746,746,746,746,746,746,746,746,746,746,746,756,768,786,810,870,902,928,956,968,982,985,985,985,985,985,985,985,988,997,1014,1038,1044,1047,1053,1077],"ymouse":[471,471,471,471,471,471,471,471,471,471,471,471,471,470,457,438,408,370,264,211,159,108,89,68,64,63,63,63,63,63,63,62,60,57,55,54,54,54,54],"timestamp_mouse":[9,27,48,68,87,107,128,147,168,188,208,226,247,267,287,307,328,348,366,386,406,427,447,467,486,507,526,547,567,587,607,626,647,667,686,706,728,747,767],"xSR":741.5,"ySR":469.95,"xT1":424.9,"yT1":0,"xT2":1058.1,"yT2":0,"toosoon":0,"cond_shown":"Congruent","ratio_trial":200,"L_num":9,"L_den":30,"R_num":13,"R_den":26,"correct_side":2,"subjID":"JohanSebastianCarvajalSalazar34","gender":"0","school":"6","age":"12"},{"start_time":1551800622837,"click_time":1551800623515,"finger_time":1551800623095,"fix_duration":840.2323499720892,"trial":7,"RT":258,"MT":420,"sideResp":1,"stimulus":[],"xmouse":[784,784,784,784,784,784,784,784,784,784,783,780,767,755,739,691,655,568,533,501,482,466,456,456,456,456,456,456,461,467,473,478,487,491],"ymouse":[506,506,506,506,506,506,506,506,506,505,502,491,464,446,424,368,326,237,206,180,164,154,146,146,146,146,146,144,143,138,134,129,110,97],"timestamp_mouse":[18,38,58,79,98,119,137,158,178,198,217,239,258,279,298,317,338,359,377,398,418,438,458,478,497,518,539,557,577,598,618,639,659,677],"xSR":741.5,"ySR":469.95,"xT1":424.9,"yT1":0,"xT2":1058.1,"yT2":0,"toosoon":0,"cond_shown":"Congruent","ratio_trial":100,"L_num":4,"L_den":8,"R_num":6,"R_den":10,"correct_side":2,"subjID":"JohanSebastianCarvajalSalazar34","gender":"0","school":"6","age":"12"},{"start_time":1551800627423,"click_time":1551800627895,"finger_time":1551800627775,"fix_duration":1106.8462964202645,"trial":8,"RT":352,"MT":120,"sideResp":2,"stimulus":[],"xmouse":[790,791,791,791,791,791,791,791,791,791,791,791,791,791,791,795,811,850,974,1037,1093,1133,1149,1155],"ymouse":[504,502,502,501,501,501,501,501,501,501,501,501,501,501,501,494,472,427,293,230,173,133,109,95],"timestamp_mouse":[12,31,55,73,92,112,131,153,171,193,211,233,251,272,292,311,332,352,372,392,412,431,452,472],"xSR":741.5,"ySR":469.95,"xT1":424.9,"yT1":0,"xT2":1058.1,"yT2":0,"toosoon":0,"cond_shown":"Congruent","ratio_trial":200,"L_num":15,"L_den":25,"R_num":4,"R_den":10,"correct_side":1,"subjID":"JohanSebastianCarvajalSalazar34","gender":"0","school":"6","age":"12"},{"start_time":1551800629548,"click_time":1551800630034,"finger_time":1551800629955,"fix_duration":611.0179024240795,"trial":9,"RT":407,"MT":79,"sideResp":1,"stimulus":[],"xmouse":[785,785,785,785,785,785,785,785,785,785,785,785,785,785,785,785,785,785,785,772,744,698,582,525,485],"ymouse":[521,521,521,521,521,521,521,521,521,521,521,521,521,521,521,521,521,521,512,479,433,368,217,147,90],"timestamp_mouse":[8,35,47,67,87,107,126,147,166,188,207,226,248,268,286,308,326,346,367,386,407,427,446,466,486],"xSR":741.5,"ySR":469.95,"xT1":424.9,"yT1":0,"xT2":1058.1,"yT2":0,"toosoon":0,"cond_shown":"Incongruent","ratio_trial":300,"L_num":4,"L_den":20,"R_num":2,"R_den":4,"correct_side":2,"subjID":"JohanSebastianCarvajalSalazar34","gender":"0","school":"6","age":"12"},{"start_time":1551800631287,"click_time":1551800632014,"finger_time":1551800631656,"fix_duration":250,"trial":10,"RT":369,"MT":358,"sideResp":1,"stimulus":[],"xmouse":[750,750,750,750,750,750,750,750,750,750,750,750,750,750,750,755,766,778,793,808,826,823,795,715,653,535,494,473,467,467,467,468,472,478,481,485,488],"ymouse":[500,500,500,500,500,500,500,500,500,500,500,500,500,500,500,500,491,478,457,431,367,333,294,236,210,181,175,172,171,171,168,163,155,143,134,111,97],"timestamp_mouse":[8,43,48,69,87,109,129,149,167,188,207,229,249,267,288,307,328,348,369,388,408,427,447,468,488,507,528,547,568,589,608,628,648,668,687,708,727],"xSR":741.5,"ySR":469.95,"xT1":424.9,"yT1":0,"xT2":1058.1,"yT2":0,"toosoon":0,"cond_shown":"Incongruent","ratio_trial":100,"L_num":3,"L_den":5,"R_num":11,"R_den":22,"correct_side":1,"subjID":"JohanSebastianCarvajalSalazar34","gender":"0","school":"6","age":"12"},{"start_time":1551800633539,"click_time":1551800634195,"finger_time":1551800633814,"fix_duration":443.69137537734605,"trial":11,"RT":275,"MT":381,"sideResp":1,"stimulus":[],"xmouse":[791,791,791,791,791,791,791,791,791,791,791,779,743,722,704,685,669,616,578,521,500,485,473,472,470,470,469,467,466,463,463,463,463],"ymouse":[560,560,560,560,560,560,560,560,560,559,556,537,498,478,457,433,412,343,302,248,229,210,187,179,175,171,167,152,140,128,112,104,99],"timestamp_mouse":[15,40,57,75,96,116,136,155,176,196,216,236,256,275,296,316,337,355,375,396,416,435,456,477,495,516,536,555,576,596,615,637,656],"xSR":741.5,"ySR":469.95,"xT1":424.9,"yT1":0,"xT2":1058.1,"yT2":0,"toosoon":0,"cond_shown":"Incongruent","ratio_trial":100,"L_num":2,"L_den":4,"R_num":8,"R_den":20,"correct_side":1,"subjID":"JohanSebastianCarvajalSalazar34","gender":"0","school":"6","age":"12"},{"start_time":1551800637124,"click_time":1551800637514,"finger_time":1551800637138,"fix_duration":587.1831336965816,"trial":12,"RT":14,"MT":376,"sideResp":2,"stimulus":[],"xmouse":[813,817,817,838,848,857,865,871,875,877,882,889,897,912,925,941,962,983,1044,1078],"ymouse":[468,459,459,407,384,362,343,328,314,307,302,289,278,263,254,243,223,199,120,73],"timestamp_mouse":[14,38,51,70,92,110,131,152,171,192,210,230,251,271,291,311,331,351,370,390],"xSR":741.5,"ySR":469.95,"xT1":424.9,"yT1":0,"xT2":1058.1,"yT2":0,"toosoon":0,"cond_shown":"Incongruent","ratio_trial":100,"L_num":13,"L_den":26,"R_num":12,"R_den":20,"correct_side":2,"subjID":"JohanSebastianCarvajalSalazar34","gender":"0","school":"6","age":"12"},{"start_time":1551800639007,"click_time":1551800639735,"finger_time":1551800639315,"fix_duration":250,"trial":13,"RT":308,"MT":420,"sideResp":2,"stimulus":[],"xmouse":[800,800,800,800,800,800,800,800,800,800,800,800,800,800,812,827,860,884,905,952,973,997,1011,1021,1021,1021,1021,1021,1021,1021,1021,1021,1021,1021,1021,1052,1064],"ymouse":[520,520,520,520,520,520,520,520,520,520,520,520,520,516,492,468,403,336,265,133,82,40,17,1,1,1,1,1,1,1,1,1,1,1,1,1,17],"timestamp_mouse":[7,39,48,69,88,108,129,147,169,189,207,228,248,268,287,308,329,347,368,388,409,428,448,469,489,508,529,549,569,588,607,627,649,668,688,708,727],"xSR":741.5,"ySR":469.95,"xT1":424.9,"yT1":0,"xT2":1058.1,"yT2":0,"toosoon":0,"cond_shown":"Congruent","ratio_trial":300,"L_num":5,"L_den":25,"R_num":7,"R_den":14,"correct_side":2,"subjID":"JohanSebastianCarvajalSalazar34","gender":"0","school":"6","age":"12"},{"start_time":1551800645946,"click_time":1551800646695,"finger_time":1551800646154,"fix_duration":250,"trial":14,"RT":208,"MT":541,"sideResp":2,"stimulus":[],"xmouse":[767,767,767,767,767,767,767,768,774,777,788,796,819,834,855,881,899,944,958,968,975,976,978,980,984,994,1005,1024,1029,1034,1041,1045,1050,1053,1057,1058,1058,1060],"ymouse":[480,480,480,480,480,480,480,481,475,472,460,449,418,400,378,346,316,246,219,200,181,174,166,162,157,150,142,128,121,114,105,100,95,91,88,88,88,87],"timestamp_mouse":[9,34,50,68,89,109,130,150,168,189,208,229,249,270,289,309,329,349,369,388,409,429,449,468,489,510,528,548,569,589,608,628,649,670,690,708,729,748],"xSR":741.5,"ySR":469.95,"xT1":424.9,"yT1":0,"xT2":1058.1,"yT2":0,"toosoon":0,"cond_shown":"Congruent","ratio_trial":100,"L_num":2,"L_den":5,"R_num":6,"R_den":12,"correct_side":2,"subjID":"JohanSebastianCarvajalSalazar34","gender":"0","school":"6","age":"12"},{"start_time":1551800648193,"click_time":1551800648796,"finger_time":1551800648434,"fix_duration":316.65917835481093,"trial":15,"RT":241,"MT":362,"sideResp":2,"stimulus":[],"xmouse":[812,812,812,812,812,812,812,812,812,811,820,829,841,855,871,911,954,980,1006,1024,1032,1036,1036,1036,1036,1038,1040,1044,1050,1058,1072],"ymouse":[498,498,498,498,498,498,498,498,498,498,487,477,467,449,431,383,331,295,259,225,197,156,140,130,123,115,109,97,84,69,48],"timestamp_mouse":[9,31,42,62,82,102,123,142,161,182,203,221,241,263,282,301,321,343,361,382,402,423,442,461,481,502,522,543,562,582,603],"xSR":741.5,"ySR":469.95,"xT1":424.9,"yT1":0,"xT2":1058.1,"yT2":0,"toosoon":0,"cond_shown":"Incongruent","ratio_trial":300,"L_num":4,"L_den":5,"R_num":8,"R_den":16,"correct_side":1,"subjID":"JohanSebastianCarvajalSalazar34","gender":"0","school":"6","age":"12"},{"start_time":1551800654577,"click_time":1551800655295,"finger_time":1551800654915,"fix_duration":840.8848232262022,"trial":16,"RT":338,"MT":380,"sideResp":1,"stimulus":[],"xmouse":[777,777,777,777,777,777,777,777,777,777,777,777,777,777,774,759,739,715,656,598,450,376,319,291,280,276,276,276,279,285,307,319,332,354,389,453],"ymouse":[515,515,515,515,515,515,515,515,515,515,515,515,515,515,511,473,427,378,298,245,130,79,42,21,11,7,6,4,2,2,1,1,1,6,18,34],"timestamp_mouse":[18,37,58,78,97,117,138,158,178,197,218,238,257,278,297,317,338,358,378,397,418,438,458,478,498,519,538,558,578,598,619,638,657,677,699,718],"xSR":741.5,"ySR":469.95,"xT1":424.9,"yT1":0,"xT2":1058.1,"yT2":0,"toosoon":0,"cond_shown":"Congruent","ratio_trial":100,"L_num":1,"L_den":2,"R_num":3,"R_den":5,"correct_side":2,"subjID":"JohanSebastianCarvajalSalazar34","gender":"0","school":"6","age":"12"},{"start_time":1551800657792,"click_time":1551800658596,"finger_time":1551800658094,"fix_duration":1454.9649209036875,"trial":17,"RT":302,"MT":502,"sideResp":2,"stimulus":[],"xmouse":[805,805,805,805,805,805,805,805,805,805,805,807,807,809,811,815,819,825,839,850,881,897,915,931,941,951,955,960,968,983,1019,1031,1040,1046,1047,1050,1057,1071,1085,1100,1129],"ymouse":[552,552,552,552,552,552,552,552,552,551,545,530,512,494,478,445,425,399,361,340,295,274,253,235,220,204,199,195,190,182,164,153,145,139,137,134,131,122,115,106,84],"timestamp_mouse":[9,23,50,63,83,102,124,143,163,183,203,223,242,262,284,302,322,344,363,383,403,422,442,464,483,502,522,543,562,582,602,623,643,663,684,702,723,743,763,784,804],"xSR":741.5,"ySR":469.95,"xT1":424.9,"yT1":0,"xT2":1058.1,"yT2":0,"toosoon":0,"cond_shown":"Congruent","ratio_trial":200,"L_num":7,"L_den":15,"R_num":18,"R_den":27,"correct_side":2,"subjID":"JohanSebastianCarvajalSalazar34","gender":"0","school":"6","age":"12"},{"start_time":1551800666567,"click_time":1551800667034,"finger_time":1551800666894,"fix_duration":951.1380111578515,"trial":18,"RT":327,"MT":140,"sideResp":2,"stimulus":[],"xmouse":[793,793,793,793,793,793,793,793,793,793,793,793,793,793,797,803,831,857,917,954,986,1011,1045,1059],"ymouse":[516,516,516,516,516,516,516,516,516,516,516,516,516,513,504,489,436,395,319,267,223,178,118,95],"timestamp_mouse":[9,42,47,68,88,106,128,148,167,187,207,228,248,266,287,308,327,348,367,386,408,427,448,467],"xSR":741.5,"ySR":469.95,"xT1":424.9,"yT1":0,"xT2":1058.1,"yT2":0,"toosoon":0,"cond_shown":"Congruent","ratio_trial":300,"L_num":3,"L_den":6,"R_num":4,"R_den":5,"correct_side":2,"subjID":"JohanSebastianCarvajalSalazar34","gender":"0","school":"6","age":"12"},{"start_time":1551800669677,"click_time":1551800670475,"finger_time":1551800670114,"fix_duration":1362.8852640139637,"trial":19,"RT":437,"MT":361,"sideResp":2,"stimulus":[],"xmouse":[811,811,811,811,811,811,811,811,811,811,811,811,811,811,811,811,811,811,810,809,806,806,825,891,966,1095,1122,1133,1137,1138,1138,1138,1138,1138,1138,1136,1132,1128,1125,1123],"ymouse":[533,533,533,533,533,533,533,533,533,533,533,533,533,533,533,533,533,531,524,513,472,437,386,305,258,182,162,147,136,126,114,112,112,112,112,110,108,105,101,99],"timestamp_mouse":[17,45,57,78,98,117,136,158,178,198,217,238,258,277,298,317,338,357,377,398,417,437,456,476,497,517,537,556,576,596,618,637,657,677,697,717,736,757,776,798],"xSR":741.5,"ySR":469.95,"xT1":424.9,"yT1":0,"xT2":1058.1,"yT2":0,"toosoon":0,"cond_shown":"Congruent","ratio_trial":300,"L_num":1,"L_den":5,"R_num":11,"R_den":22,"correct_side":2,"subjID":"JohanSebastianCarvajalSalazar34","gender":"0","school":"6","age":"12"},{"start_time":1551800671788,"click_time":1551800672634,"finger_time":1551800672155,"fix_duration":393.20058316360974,"trial":20,"RT":367,"MT":479,"sideResp":2,"stimulus":[],"xmouse":[803,803,803,803,803,803,803,803,803,803,803,803,803,803,803,806,815,829,872,919,1024,1070,1093,1105,1114,1119,1119,1119,1119,1117,1115,1108,1106,1106,1106,1104,1103,1102,1102,1101,1101,1101,1101],"ymouse":[548,548,548,548,548,548,548,548,548,548,548,547,545,543,539,518,499,478,429,386,293,248,215,193,173,151,144,138,133,130,129,127,127,127,127,126,122,119,116,111,106,102,98],"timestamp_mouse":[11,42,46,67,87,106,127,147,166,185,207,226,246,267,287,306,325,347,367,385,405,426,445,467,486,506,525,547,565,585,605,626,646,666,686,707,725,746,766,786,806,826,846],"xSR":741.5,"ySR":469.95,"xT1":424.9,"yT1":0,"xT2":1058.1,"yT2":0,"toosoon":0,"cond_shown":"Incongruent","ratio_trial":200,"L_num":7,"L_den":15,"R_num":4,"R_den":6,"correct_side":2,"subjID":"JohanSebastianCarvajalSalazar34","gender":"0","school":"6","age":"12"},{"start_time":1551800674328,"click_time":1551800675094,"finger_time":1551800674594,"fix_duration":633.0864035093446,"trial":21,"RT":266,"MT":500,"sideResp":1,"stimulus":[],"xmouse":[803,803,803,803,803,803,803,800,794,794,792,790,785,770,758,736,709,678,642,576,567,550,546,543,541,540,540,539,539,539,539,539,539,539,539,539,537,531,520],"ymouse":[507,507,507,507,507,504,503,498,492,490,487,483,472,442,418,381,333,282,232,153,143,122,115,110,103,100,99,98,98,98,98,98,98,98,98,97,97,96,95],"timestamp_mouse":[9,29,46,65,87,105,126,146,166,185,207,225,247,266,285,306,326,347,366,387,407,426,447,466,486,506,526,545,567,586,606,627,646,666,687,707,725,745,766],"xSR":741.5,"ySR":469.95,"xT1":424.9,"yT1":0,"xT2":1058.1,"yT2":0,"toosoon":0,"cond_shown":"Congruent","ratio_trial":100,"L_num":4,"L_den":8,"R_num":6,"R_den":10,"correct_side":2,"subjID":"JohanSebastianCarvajalSalazar34","gender":"0","school":"6","age":"12"},{"start_time":1551800676535,"click_time":1551800677094,"finger_time":1551800676734,"fix_duration":579.8652120166768,"trial":22,"RT":199,"MT":360,"sideResp":2,"stimulus":[],"xmouse":[810,810,810,810,811,812,815,825,832,841,845,849,853,859,870,879,892,933,955,981,995,1006,1025,1033,1038,1044,1049,1060],"ymouse":[496,496,496,496,495,492,489,480,474,469,464,461,451,439,421,401,372,275,227,166,133,112,85,78,74,71,68,60],"timestamp_mouse":[19,40,59,79,99,119,139,160,180,199,220,239,259,279,298,319,338,359,378,400,419,438,458,479,498,519,540,558],"xSR":741.5,"ySR":469.95,"xT1":424.9,"yT1":0,"xT2":1058.1,"yT2":0,"toosoon":0,"cond_shown":"Congruent","ratio_trial":100,"L_num":4,"L_den":8,"R_num":6,"R_den":10,"correct_side":2,"subjID":"JohanSebastianCarvajalSalazar34","gender":"0","school":"6","age":"12"},{"start_time":1551800679768,"click_time":1551800680314,"finger_time":1551800680154,"fix_duration":1472.5661801680544,"trial":23,"RT":386,"MT":160,"sideResp":2,"stimulus":[],"xmouse":[769,769,769,769,769,769,769,769,769,769,769,769,769,769,769,769,769,769,772,778,789,824,858,906,952,997,1053,1069],"ymouse":[478,478,478,478,478,478,478,478,478,478,478,478,478,478,478,478,477,477,470,460,443,393,339,266,208,157,79,57],"timestamp_mouse":[9,42,46,66,87,105,127,145,167,185,207,226,245,267,287,306,326,346,366,386,406,426,445,465,487,506,525,546],"xSR":741.5,"ySR":469.95,"xT1":424.9,"yT1":0,"xT2":1058.1,"yT2":0,"toosoon":0,"cond_shown":"Incongruent","ratio_trial":100,"L_num":9,"L_den":15,"R_num":14,"R_den":28,"correct_side":1,"subjID":"JohanSebastianCarvajalSalazar34","gender":"0","school":"6","age":"12"},{"start_time":1551800682084,"click_time":1551800682873,"finger_time":1551800682453,"fix_duration":367.3459862494839,"trial":24,"RT":369,"MT":420,"sideResp":1,"stimulus":[],"xmouse":[793,793,793,793,793,793,793,793,793,793,793,793,793,793,792,789,786,778,765,749,684,649,609,567,550,528,528,528,528,528,528,528,528,528,528,528,528,528,528,491],"ymouse":[508,508,508,508,508,508,508,508,508,508,508,508,508,508,506,501,496,485,467,445,371,321,262,163,106,3,3,3,3,3,3,3,3,3,3,3,3,3,3,6],"timestamp_mouse":[9,29,54,71,90,110,129,150,169,189,210,230,250,270,290,311,330,351,369,390,410,429,450,470,489,510,529,549,570,589,610,629,650,671,691,710,731,751,769,789],"xSR":741.5,"ySR":469.95,"xT1":424.9,"yT1":0,"xT2":1058.1,"yT2":0,"toosoon":0,"cond_shown":"Incongruent","ratio_trial":100,"L_num":10,"L_den":25,"R_num":8,"R_den":16,"correct_side":2,"subjID":"JohanSebastianCarvajalSalazar34","gender":"0","school":"6","age":"12"},{"start_time":1551800684824,"click_time":1551800685634,"finger_time":1551800685154,"fix_duration":628.8957027981503,"trial":25,"RT":330,"MT":480,"sideResp":1,"stimulus":[],"xmouse":[784,784,784,784,784,784,784,786,788,790,791,792,793,799,807,824,853,876,923,942,956,962,968,970,970,970,970,970,968,964,962,962,962,962,959,953,913,840,641,563,511],"ymouse":[521,521,521,521,521,521,521,521,521,519,519,519,518,516,510,498,473,450,385,351,321,297,275,240,218,212,194,181,158,147,138,133,128,114,107,102,91,85,79,79,79],"timestamp_mouse":[11,40,50,71,89,110,129,150,169,190,211,231,250,270,291,310,330,350,369,389,411,430,450,470,489,509,530,551,569,589,610,631,650,670,690,710,730,751,770,791,810],"xSR":741.5,"ySR":469.95,"xT1":424.9,"yT1":0,"xT2":1058.1,"yT2":0,"toosoon":0,"cond_shown":"Congruent","ratio_trial":300,"L_num":12,"L_den":24,"R_num":2,"R_den":10,"correct_side":1,"subjID":"JohanSebastianCarvajalSalazar34","gender":"0","school":"6","age":"12"},{"start_time":1551800687364,"click_time":1551800690494,"finger_time":1551800687734,"fix_duration":489.778880811133,"trial":26,"RT":370,"MT":2760,"sideResp":2,"stimulus":[],"xmouse":[785,785,785,785,785,785,785,785,785,785,785,785,785,785,785,786,788,789,789,785,777,757,750,740,729,717,693,681,665,641,626,595,578,561,547,537,526,523,523,523,523,522,521,520,517,514,508,506,506,506,506,506,506,506,506,506,506,506,506,506,506,507,507,508,508,508,508,508,508,508,508,508,508,508,508,508,508,508,508,508,508,508,508,508,508,508,508,508,508,508,508,508,508,508,508,508,508,508,508,508,508,508,508,508,508,513,517,531,547,558,569,594,609,625,639,652,666,699,725,741,755,784,800,819,837,856,890,909,938,957,975,1017,1033,1046,1054,1061,1078,1089,1104,1114,1118,1120,1120,1121,1123,1125,1129,1131,1131,1131,1131,1129,1123,1116,1110,1103,1097],"ymouse":[506,506,506,506,506,506,506,506,506,506,506,506,506,506,506,503,498,474,457,422,398,352,335,318,300,279,243,229,221,210,206,197,192,184,177,171,162,160,159,159,157,154,151,149,145,140,130,127,126,126,126,125,125,125,125,125,125,125,125,124,121,113,109,106,103,102,101,101,101,101,101,101,101,101,101,101,101,101,101,101,101,101,101,101,101,101,101,101,101,101,101,101,101,101,101,101,101,101,101,101,101,101,101,101,101,109,113,130,141,149,157,171,177,183,187,188,190,194,197,200,202,206,207,208,211,214,216,216,216,216,216,216,216,216,216,216,216,218,219,220,220,220,220,220,220,220,218,215,212,210,205,188,175,158,142,126,96],"timestamp_mouse":[10,29,61,70,91,111,130,150,171,191,210,231,250,270,290,310,330,350,370,390,410,430,451,470,490,509,530,549,571,589,610,631,650,670,690,709,730,750,770,790,810,830,850,870,889,910,930,950,970,991,1010,1031,1051,1070,1090,1110,1131,1150,1169,1191,1210,1230,1250,1270,1290,1309,1330,1350,1370,1391,1411,1430,1450,1471,1490,1510,1530,1550,1570,1589,1610,1630,1650,1671,1690,1710,1730,1750,1769,1790,1810,1830,1850,1871,1890,1910,1930,1949,1970,1990,2010,2030,2050,2069,2090,2110,2130,2150,2170,2189,2210,2230,2250,2270,2290,2310,2330,2350,2370,2389,2409,2430,2450,2471,2490,2510,2530,2550,2570,2591,2609,2629,2651,2671,2690,2711,2730,2750,2770,2790,2809,2831,2849,2869,2889,2910,2929,2950,2969,2990,3010,3030,3049,3069,3090,3110,3130],"xSR":741.5,"ySR":469.95,"xT1":424.9,"yT1":0,"xT2":1058.1,"yT2":0,"toosoon":0,"cond_shown":"Congruent","ratio_trial":100,"L_num":6,"L_den":20,"R_num":5,"R_den":25,"correct_side":1,"subjID":"JohanSebastianCarvajalSalazar34","gender":"0","school":"6","age":"12"},{"start_time":1551800692627,"click_time":1551800695114,"finger_time":1551800694794,"fix_duration":932.2184900680995,"trial":27,"RT":2167,"MT":320,"sideResp":2,"stimulus":[],"xmouse":[805,805,805,805,805,805,805,805,805,805,805,805,805,805,805,805,805,805,805,805,805,805,805,805,805,805,805,805,805,805,805,805,805,805,805,805,805,805,805,805,805,805,805,805,805,805,805,805,805,805,805,805,805,805,805,805,805,805,805,805,805,805,805,805,805,805,805,805,805,805,805,805,805,805,805,805,805,805,805,805,805,805,805,805,805,805,805,805,805,805,805,805,805,805,805,805,805,805,805,805,805,805,805,805,805,810,815,840,894,916,932,949,969,1006,1023,1036,1047,1049,1049,1049,1049,1049,1049,1055,1065],"ymouse":[522,522,522,522,522,522,522,522,522,522,522,522,522,522,522,522,522,522,522,522,522,522,522,522,522,522,522,522,522,522,522,522,522,522,522,522,522,522,522,522,522,522,522,522,522,522,522,522,522,522,522,522,522,522,522,522,522,522,522,522,522,522,522,522,522,522,522,522,522,522,522,522,522,522,522,522,522,522,522,522,522,522,522,522,522,522,522,522,522,522,522,522,522,522,522,522,522,522,522,522,522,522,522,522,522,514,506,473,404,365,336,309,283,230,207,183,159,148,133,128,124,118,107,85,74],"timestamp_mouse":[8,32,46,66,87,106,126,147,167,186,207,227,247,267,286,307,331,347,367,387,406,426,448,466,487,508,527,548,566,587,606,626,647,667,688,708,727,748,768,787,806,828,848,866,886,906,926,947,967,987,1006,1028,1048,1066,1088,1108,1127,1148,1168,1187,1207,1227,1248,1267,1288,1308,1326,1347,1368,1388,1407,1426,1448,1468,1488,1506,1528,1547,1567,1586,1608,1628,1648,1666,1688,1708,1726,1746,1767,1788,1807,1828,1846,1868,1888,1908,1927,1948,1968,1987,2006,2026,2047,2068,2087,2107,2127,2147,2167,2187,2207,2228,2247,2267,2287,2307,2327,2347,2368,2387,2407,2427,2446,2468,2487],"xSR":741.5,"ySR":469.95,"xT1":424.9,"yT1":0,"xT2":1058.1,"yT2":0,"toosoon":0,"cond_shown":"Congruent","ratio_trial":100,"L_num":2,"L_den":5,"R_num":11,"R_den":22,"correct_side":2,"subjID":"JohanSebastianCarvajalSalazar34","gender":"0","school":"6","age":"12"},{"start_time":1551800696920,"click_time":1551800699795,"finger_time":1551800699314,"fix_duration":825.6322595332963,"trial":28,"RT":2394,"MT":481,"sideResp":1,"stimulus":[],"xmouse":[788,788,788,788,788,788,788,788,788,788,788,788,788,788,788,788,788,788,788,788,788,788,788,788,788,788,788,788,788,788,788,788,788,788,788,788,788,788,788,788,788,788,788,788,788,788,788,788,788,788,788,788,788,784,784,783,783,783,783,783,783,783,783,783,783,783,783,783,783,783,783,783,783,783,783,783,783,783,783,783,783,783,783,783,783,783,783,783,783,783,783,783,783,783,783,783,783,783,783,783,783,783,783,783,783,783,783,783,783,783,783,783,783,783,783,783,781,777,756,734,726,708,699,666,638,612,587,562,533,524,517,503,498,493,491,489,487,484,479,477,477,473,473,473],"ymouse":[517,517,517,517,517,517,517,517,517,517,517,517,517,517,517,517,517,517,517,517,517,517,517,517,517,517,517,517,517,517,517,517,517,517,517,517,517,517,517,517,517,517,517,517,517,517,517,517,517,517,517,517,517,516,515,515,515,515,515,515,515,515,515,515,515,515,515,515,515,515,515,515,515,515,515,515,515,515,515,515,515,515,515,515,515,515,515,515,515,515,515,515,515,515,515,515,515,515,515,515,515,515,515,515,515,515,515,515,515,512,511,509,508,507,507,507,504,503,494,478,473,456,445,402,369,340,310,283,241,223,207,188,181,171,167,163,158,153,140,134,129,119,112,98],"timestamp_mouse":[13,33,54,74,95,114,133,154,174,194,215,235,255,274,293,314,335,355,374,394,414,434,453,474,493,515,533,553,575,594,613,634,654,674,695,714,734,754,773,795,815,834,854,874,893,915,934,953,974,995,1014,1034,1055,1074,1094,1114,1134,1155,1173,1194,1214,1235,1255,1274,1294,1315,1333,1355,1375,1393,1415,1434,1454,1473,1494,1514,1535,1553,1573,1593,1614,1633,1654,1674,1694,1713,1733,1755,1773,1794,1815,1834,1853,1874,1893,1915,1934,1953,1975,1994,2014,2033,2055,2074,2095,2114,2134,2155,2175,2195,2214,2234,2254,2275,2294,2314,2334,2354,2374,2394,2413,2433,2454,2473,2494,2513,2534,2554,2574,2594,2613,2634,2654,2675,2695,2714,2733,2753,2773,2793,2814,2834,2853,2875],"xSR":741.5,"ySR":469.95,"xT1":424.9,"yT1":0,"xT2":1058.1,"yT2":0,"toosoon":0,"cond_shown":"Incongruent","ratio_trial":100,"L_num":9,"L_den":18,"R_num":6,"R_den":10,"correct_side":2,"subjID":"JohanSebastianCarvajalSalazar34","gender":"0","school":"6","age":"12"},{"start_time":1551800703787,"click_time":1551800705494,"finger_time":1551800705114,"fix_duration":1331.1191404228364,"trial":29,"RT":1327,"MT":380,"sideResp":2,"stimulus":[],"xmouse":[784,784,784,784,784,784,784,784,785,785,785,786,786,786,786,786,786,786,786,786,786,786,786,786,786,786,786,786,786,786,786,786,786,786,786,786,786,786,786,786,786,786,788,790,790,791,791,791,791,791,791,791,791,791,791,791,791,791,791,791,791,791,791,795,796,828,857,897,912,921,930,933,935,937,938,944,948,954,963,972,995,1008,1023,1038,1052,1075],"ymouse":[533,533,533,533,533,533,533,533,533,533,533,533,533,533,533,533,533,533,533,533,533,533,533,533,533,533,533,533,533,533,533,533,533,533,533,533,533,533,533,533,533,533,532,528,525,522,522,522,522,522,522,522,522,522,522,522,522,522,522,522,522,522,522,515,513,475,449,414,388,366,324,306,291,278,269,249,238,227,210,197,163,144,118,90,64,23],"timestamp_mouse":[11,41,46,68,88,106,128,146,167,187,207,227,248,267,287,306,326,347,366,387,407,427,447,467,487,507,526,548,566,587,606,627,646,668,686,708,727,747,766,788,806,827,847,866,887,907,926,946,968,988,1007,1027,1046,1068,1088,1107,1128,1146,1166,1186,1207,1226,1246,1267,1288,1306,1327,1348,1368,1387,1407,1427,1446,1468,1487,1507,1527,1547,1567,1587,1607,1627,1647,1667,1687,1707],"xSR":741.5,"ySR":469.95,"xT1":424.9,"yT1":0,"xT2":1058.1,"yT2":0,"toosoon":0,"cond_shown":"Incongruent","ratio_trial":200,"L_num":3,"L_den":4,"R_num":11,"R_den":20,"correct_side":1,"subjID":"JohanSebastianCarvajalSalazar34","gender":"0","school":"6","age":"12"},{"start_time":1551800710345,"click_time":1551800712654,"finger_time":1551800712235,"fix_duration":468.7010852310497,"trial":30,"RT":1890,"MT":419,"sideResp":2,"stimulus":[],"xmouse":[793,793,793,793,793,793,793,793,793,793,793,793,793,793,793,793,793,793,793,793,793,793,793,793,793,793,793,793,793,793,793,793,793,793,793,793,793,793,793,793,793,793,793,793,793,793,793,793,793,793,793,793,793,793,793,793,793,793,793,793,793,793,793,793,793,793,793,793,793,793,793,791,785,782,780,779,778,778,778,778,778,778,778,778,778,778,778,778,778,778,778,778,778,785,796,813,832,881,912,943,972,987,1004,1006,1006,1006,1006,1006,1006,1006,1006,1006,1006,1006,1050,1059],"ymouse":[514,514,514,514,514,514,514,514,514,514,514,514,514,514,514,514,514,514,514,514,514,514,514,514,514,514,514,514,514,514,514,514,514,514,514,514,514,514,514,514,514,514,514,514,514,514,514,514,514,514,514,514,514,514,514,514,514,514,514,514,514,514,514,514,514,514,514,514,514,514,514,514,500,494,490,487,485,485,485,485,485,485,485,485,485,485,485,485,485,485,485,485,481,472,456,425,381,266,208,154,88,53,10,2,2,2,2,2,2,2,2,2,2,2,5,17],"timestamp_mouse":[9,37,48,68,90,109,129,149,170,190,209,230,248,270,288,310,329,350,369,389,408,429,450,468,489,510,530,550,569,589,608,630,649,669,690,708,728,750,769,789,809,829,848,870,888,909,930,949,970,988,1010,1030,1049,1068,1089,1109,1130,1150,1169,1188,1209,1229,1250,1268,1288,1309,1330,1348,1370,1388,1410,1429,1448,1469,1489,1509,1528,1549,1574,1590,1608,1630,1650,1669,1689,1709,1729,1750,1768,1790,1808,1829,1850,1869,1890,1908,1929,1950,1969,1988,2009,2028,2050,2070,2089,2109,2130,2149,2169,2189,2210,2230,2249,2268,2289,2309],"xSR":741.5,"ySR":469.95,"xT1":424.9,"yT1":0,"xT2":1058.1,"yT2":0,"toosoon":0,"cond_shown":"Incongruent","ratio_trial":100,"L_num":3,"L_den":6,"R_num":4,"R_den":10,"correct_side":1,"subjID":"JohanSebastianCarvajalSalazar34","gender":"0","school":"6","age":"12"},{"start_time":1551800715195,"click_time":1551800716575,"finger_time":1551800716075,"fix_duration":1379.4925473347253,"trial":31,"RT":880,"MT":500,"sideResp":2,"stimulus":[],"xmouse":[795,795,795,795,795,795,795,795,795,795,795,795,795,795,795,795,795,795,795,795,795,795,795,795,795,795,795,795,795,795,795,795,795,795,795,795,795,795,795,795,799,801,808,817,837,844,849,868,881,925,946,963,975,985,999,1005,1008,1012,1017,1023,1026,1030,1033,1037,1041,1043,1047,1053,1059],"ymouse":[511,511,511,511,511,511,511,511,511,511,511,511,511,511,511,511,511,511,511,511,511,511,511,511,511,511,511,511,511,511,511,511,511,511,511,511,511,511,511,511,507,499,486,468,430,415,400,368,344,284,253,227,203,186,153,138,132,126,118,106,100,96,93,90,87,87,86,84,82],"timestamp_mouse":[34,39,58,80,99,118,139,158,178,199,220,239,258,279,300,319,340,360,379,399,419,439,460,478,498,518,540,560,580,598,620,638,660,680,699,718,739,759,779,799,818,839,858,880,899,918,938,958,978,999,1018,1039,1059,1079,1099,1118,1138,1158,1178,1198,1219,1239,1259,1280,1299,1320,1339,1360,1380],"xSR":741.5,"ySR":469.95,"xT1":424.9,"yT1":0,"xT2":1058.1,"yT2":0,"toosoon":0,"cond_shown":"Incongruent","ratio_trial":300,"L_num":4,"L_den":20,"R_num":2,"R_den":4,"correct_side":2,"subjID":"JohanSebastianCarvajalSalazar34","gender":"0","school":"6","age":"12"},{"start_time":1551800719402,"click_time":1551800723354,"finger_time":1551800721294,"fix_duration":547.4544125550433,"trial":32,"RT":1892,"MT":2060,"sideResp":2,"stimulus":[],"xmouse":[822,822,822,822,822,822,822,822,822,822,822,822,822,822,822,822,822,822,822,822,822,822,822,822,822,822,822,822,822,822,822,822,822,822,822,822,822,822,822,822,822,822,822,822,822,822,822,822,822,822,822,822,822,822,822,822,822,822,822,822,822,822,822,822,822,822,822,822,822,822,822,822,822,822,822,822,822,822,822,822,822,824,826,827,829,829,830,831,832,834,836,837,839,840,843,844,845,846,847,851,852,853,854,856,859,860,863,866,867,869,870,873,876,879,887,891,896,905,912,924,928,932,934,937,941,951,955,958,962,968,969,971,972,973,980,983,987,993,997,1006,1009,1014,1018,1020,1024,1026,1027,1029,1030,1031,1032,1034,1034,1034,1034,1034,1034,1028,1024,1023,1023,1023,1023,1023,1023,1023,1023,1023,1023,1023,1023,1023,1023,1023,1023,1023,1023,1023,1023,1023,1023,1023,1023,1023,1023,1023,1021,1027,1033,1045,1049,1054,1061,1065,1075,1078,1078,1078],"ymouse":[537,537,537,537,537,537,537,537,537,537,537,537,537,537,537,537,537,537,537,537,537,537,537,537,537,537,537,537,537,537,537,537,537,537,537,537,537,537,537,537,537,537,537,537,537,537,537,537,537,537,537,537,537,537,537,537,537,537,537,537,537,537,537,537,537,537,537,537,537,537,537,537,537,537,537,537,537,537,537,537,534,532,529,528,526,525,524,523,521,517,515,511,506,503,495,492,488,483,481,472,468,466,461,458,448,443,437,431,422,406,399,388,377,364,339,328,317,295,281,261,252,245,240,235,231,219,215,213,210,206,206,204,203,202,199,197,194,189,186,180,177,174,172,172,169,167,166,165,164,162,161,160,160,160,160,160,160,159,159,159,159,159,159,159,159,159,159,159,159,159,159,159,159,159,159,159,159,159,159,159,159,159,159,159,159,158,156,149,143,133,129,124,121,119,109,104,101,97],"timestamp_mouse":[13,38,51,72,92,113,132,152,172,192,212,232,252,272,292,313,331,352,372,392,411,432,452,473,491,513,532,552,572,592,613,632,651,671,692,712,733,753,772,792,812,832,851,873,892,913,931,951,972,992,1013,1031,1052,1071,1093,1112,1132,1152,1173,1193,1213,1232,1252,1273,1292,1311,1333,1352,1372,1392,1413,1432,1452,1473,1491,1513,1532,1552,1572,1592,1611,1632,1653,1673,1692,1712,1732,1751,1771,1792,1812,1832,1853,1872,1892,1913,1932,1953,1973,1991,2011,2031,2052,2073,2093,2112,2131,2152,2173,2192,2212,2232,2253,2272,2293,2312,2331,2351,2372,2392,2412,2432,2451,2472,2492,2513,2532,2553,2572,2592,2612,2632,2652,2672,2692,2713,2731,2753,2772,2792,2813,2833,2852,2872,2891,2911,2932,2953,2973,2992,3011,3032,3052,3073,3092,3112,3131,3152,3172,3193,3212,3233,3252,3272,3293,3312,3333,3352,3372,3392,3413,3433,3452,3473,3493,3513,3532,3552,3572,3593,3612,3632,3651,3671,3693,3712,3733,3752,3772,3791,3812,3831,3851,3872,3892,3912,3932,3952],"xSR":741.5,"ySR":469.95,"xT1":424.9,"yT1":0,"xT2":1058.1,"yT2":0,"toosoon":0,"cond_shown":"Incongruent","ratio_trial":200,"L_num":4,"L_den":5,"R_num":6,"R_den":10,"correct_side":1,"subjID":"JohanSebastianCarvajalSalazar34","gender":"0","school":"6","age":"12"},{"start_time":1551800727092,"click_time":1551800728994,"finger_time":1551800728594,"fix_duration":1037.098489668931,"trial":33,"RT":1502,"MT":400,"sideResp":1,"stimulus":[],"xmouse":[767,767,767,767,767,767,767,767,767,767,767,767,767,767,767,767,767,767,767,767,767,767,767,767,767,767,767,767,767,767,767,767,767,767,767,767,767,767,767,767,767,767,767,767,767,767,767,767,767,767,767,767,767,767,767,767,767,767,767,767,767,767,767,767,767,767,767,767,767,767,767,767,767,766,760,716,692,666,651,639,608,578,550,537,537,537,537,537,537,537,537,537,537,537,537,455],"ymouse":[541,541,541,541,541,541,541,541,541,541,541,541,541,541,541,541,541,541,541,541,541,541,541,541,541,541,541,541,541,541,541,541,541,541,541,541,541,541,541,541,541,541,541,541,541,541,541,541,541,541,541,541,541,541,541,541,541,541,541,541,541,541,541,541,541,541,541,541,541,541,541,541,541,536,522,437,376,309,245,184,89,46,13,1,1,1,1,1,1,1,1,1,1,1,1,9],"timestamp_mouse":[8,22,42,62,83,103,121,142,161,182,201,222,242,261,283,302,321,343,362,382,402,422,442,462,483,501,522,541,563,581,602,622,641,662,681,702,721,742,763,782,802,822,842,863,881,902,921,941,962,982,1001,1022,1043,1063,1082,1102,1122,1143,1162,1182,1202,1221,1243,1261,1282,1302,1323,1342,1362,1381,1403,1422,1443,1462,1483,1502,1523,1542,1562,1581,1602,1622,1642,1662,1681,1702,1722,1742,1763,1783,1802,1821,1842,1861,1882,1902],"xSR":741.5,"ySR":469.95,"xT1":424.9,"yT1":0,"xT2":1058.1,"yT2":0,"toosoon":0,"cond_shown":"Congruent","ratio_trial":300,"L_num":11,"L_den":22,"R_num":1,"R_den":5,"correct_side":1,"subjID":"JohanSebastianCarvajalSalazar34","gender":"0","school":"6","age":"12"},{"start_time":1551800730623,"click_time":1551800734754,"finger_time":1551800733955,"fix_duration":428.2570561954104,"trial":34,"RT":3332,"MT":799,"sideResp":1,"stimulus":[],"xmouse":[759,759,759,759,759,759,759,759,759,759,759,759,759,759,759,759,759,759,759,759,759,759,759,759,759,759,759,759,759,759,759,759,759,759,759,759,759,759,759,759,759,759,759,759,759,759,759,759,759,759,759,759,759,759,759,759,759,759,759,759,759,759,759,759,759,759,759,759,759,759,759,759,759,759,759,759,759,759,759,759,759,759,759,759,759,759,759,759,759,759,759,759,759,759,759,759,759,759,759,759,759,759,759,759,759,759,759,759,759,759,759,759,759,759,759,759,759,759,759,759,759,759,759,759,759,759,759,759,759,759,759,759,759,759,759,759,759,759,759,759,759,759,759,759,759,759,759,759,759,759,759,759,760,763,766,768,770,772,772,772,772,773,775,778,783,794,811,823,840,845,845,845,845,845,845,845,845,845,845,824,806,784,758,696,652,607,530,479,394,361,344,331,324,320,320,323,328,332,360,374,384,393,398,405,410,417,432],"ymouse":[535,535,535,535,535,535,535,535,535,535,535,535,535,535,535,535,535,535,535,535,535,535,535,535,535,535,535,535,535,535,535,535,535,535,535,535,535,535,535,535,535,535,535,535,535,535,535,535,535,535,535,535,535,535,535,535,535,535,535,535,535,535,535,535,535,535,535,535,535,535,535,535,535,535,535,535,535,535,535,535,535,535,535,535,535,535,535,535,535,535,535,535,535,535,535,535,535,535,535,535,535,535,535,535,535,535,535,535,535,535,535,535,535,535,534,534,534,534,534,534,534,534,534,534,534,534,534,534,534,534,534,534,534,534,534,534,534,534,534,534,534,534,534,534,534,534,534,534,534,534,534,534,534,533,531,530,528,527,527,527,527,526,525,519,511,489,460,441,413,405,404,404,404,404,404,404,404,404,404,403,400,395,387,360,339,314,270,240,182,158,143,128,115,93,84,72,66,63,59,58,58,58,58,62,66,72,82],"timestamp_mouse":[11,39,52,71,90,112,130,151,171,191,212,232,252,271,292,311,331,351,371,390,411,431,450,472,490,511,531,552,570,592,612,632,652,671,691,711,730,751,772,790,811,831,852,870,891,911,932,950,972,991,1011,1032,1051,1071,1091,1112,1131,1151,1171,1192,1212,1231,1250,1270,1291,1312,1331,1351,1371,1392,1411,1432,1450,1471,1492,1510,1532,1552,1572,1591,1611,1631,1652,1672,1692,1711,1732,1751,1771,1791,1810,1831,1850,1872,1892,1911,1932,1952,1971,1990,2011,2032,2051,2071,2092,2111,2130,2152,2171,2192,2211,2231,2252,2271,2292,2312,2330,2352,2371,2391,2410,2431,2452,2471,2491,2512,2531,2552,2571,2590,2612,2631,2652,2671,2691,2710,2732,2750,2771,2791,2811,2832,2850,2872,2891,2911,2931,2952,2972,2992,3010,3031,3052,3070,3091,3112,3132,3151,3172,3192,3212,3231,3251,3271,3291,3312,3332,3352,3370,3391,3410,3431,3451,3471,3491,3511,3531,3552,3571,3591,3611,3631,3652,3671,3691,3712,3731,3752,3771,3791,3810,3831,3851,3871,3892,3911,3932,3951,3971,3991,4011,4031,4051,4072,4091,4112,4131],"xSR":741.5,"ySR":469.95,"xT1":424.9,"yT1":0,"xT2":1058.1,"yT2":0,"toosoon":0,"cond_shown":"Incongruent","ratio_trial":100,"L_num":3,"L_den":5,"R_num":8,"R_den":16,"correct_side":1,"subjID":"JohanSebastianCarvajalSalazar34","gender":"0","school":"6","age":"12"},{"start_time":1551800737004,"click_time":1551800738193,"finger_time":1551800737594,"fix_duration":969.7781254674471,"trial":35,"RT":590,"MT":599,"sideResp":2,"stimulus":[],"xmouse":[777,777,777,777,777,777,777,777,777,777,777,777,777,777,776,774,772,768,764,756,754,754,754,754,754,754,754,754,754,754,758,764,775,783,794,800,809,828,846,888,907,926,949,970,1016,1036,1063,1078,1089,1103,1107,1110,1112,1114,1116,1117,1117,1117,1117,1118],"ymouse":[491,491,491,491,491,491,491,491,491,491,491,491,491,491,491,489,488,486,484,480,479,479,479,479,479,479,479,479,479,468,455,441,423,413,396,387,376,356,342,311,296,282,267,254,227,216,197,187,177,160,155,151,149,146,140,136,126,118,109,91],"timestamp_mouse":[10,41,51,70,90,111,131,149,170,191,209,231,251,271,290,309,330,351,370,390,410,431,450,471,491,509,529,551,569,590,610,630,650,669,690,710,731,749,771,791,810,830,850,870,891,911,930,950,970,990,1010,1030,1049,1071,1090,1111,1130,1150,1171,1189],"xSR":741.5,"ySR":469.95,"xT1":424.9,"yT1":0,"xT2":1058.1,"yT2":0,"toosoon":0,"cond_shown":"Congruent","ratio_trial":200,"L_num":7,"L_den":15,"R_num":18,"R_den":27,"correct_side":2,"subjID":"JohanSebastianCarvajalSalazar34","gender":"0","school":"6","age":"12"},{"start_time":1551800740149,"click_time":1551800741254,"finger_time":1551800740954,"fix_duration":1133.7613784112352,"trial":36,"RT":805,"MT":300,"sideResp":2,"stimulus":[],"xmouse":[773,774,774,774,774,774,774,774,774,774,774,774,774,774,774,774,774,774,774,774,774,774,774,774,774,774,774,774,774,774,774,774,774,774,774,774,774,774,783,794,817,840,913,954,987,1010,1023,1031,1031,1031,1031,1031,1033,1034,1047,1065],"ymouse":[511,511,511,511,511,511,511,511,511,511,511,511,511,511,511,511,511,511,511,511,511,511,511,511,511,511,511,511,511,511,511,511,511,511,511,511,511,511,505,494,468,435,324,262,204,152,120,92,91,91,91,91,89,87,84,80],"timestamp_mouse":[5,32,45,64,85,104,126,145,165,185,205,226,246,264,285,306,324,346,364,386,405,425,446,465,485,505,524,546,564,586,605,625,644,666,685,706,726,745,766,784,805,824,845,865,884,904,926,944,964,986,1006,1025,1045,1065,1085,1105],"xSR":741.5,"ySR":469.95,"xT1":424.9,"yT1":0,"xT2":1058.1,"yT2":0,"toosoon":0,"cond_shown":"Congruent","ratio_trial":100,"L_num":2,"L_den":5,"R_num":11,"R_den":22,"correct_side":2,"subjID":"JohanSebastianCarvajalSalazar34","gender":"0","school":"6","age":"12"},{"start_time":1551800742932,"click_time":1551800743874,"finger_time":1551800743793,"fix_duration":416.474486637635,"trial":37,"RT":861,"MT":81,"sideResp":1,"stimulus":[],"xmouse":[789,789,789,789,788,788,787,785,783,782,780,779,779,779,779,779,779,779,779,779,779,779,779,779,779,779,779,779,779,779,779,779,779,779,779,779,779,779,779,777,774,769,759,694,646,591,533,481],"ymouse":[487,487,487,487,493,495,498,501,510,513,516,520,521,521,521,521,521,521,521,521,521,521,521,521,521,521,521,521,521,521,521,521,521,521,521,521,521,521,521,521,521,509,487,378,307,224,144,83],"timestamp_mouse":[8,22,42,62,82,102,121,142,162,182,202,222,241,263,283,303,323,341,362,383,402,423,442,463,483,503,521,542,561,582,602,623,643,662,681,702,723,742,762,782,802,822,841,861,882,902,922,942],"xSR":741.5,"ySR":469.95,"xT1":424.9,"yT1":0,"xT2":1058.1,"yT2":0,"toosoon":0,"cond_shown":"Congruent","ratio_trial":100,"L_num":11,"L_den":22,"R_num":6,"R_den":15,"correct_side":1,"subjID":"JohanSebastianCarvajalSalazar34","gender":"0","school":"6","age":"12"},{"start_time":1551800747366,"click_time":1551800748833,"finger_time":1551800748393,"fix_duration":1411.5676515579787,"trial":38,"RT":1027,"MT":440,"sideResp":2,"stimulus":[],"xmouse":[800,800,800,800,800,800,800,800,800,800,800,800,800,800,800,800,800,800,800,800,800,800,800,800,800,800,800,800,800,800,800,800,800,800,800,800,800,800,800,800,800,800,800,800,800,800,800,800,800,800,802,810,814,821,828,835,848,855,861,866,870,882,895,911,929,950,996,1016,1034,1046,1049,1053,1058,1063],"ymouse":[499,499,499,499,499,499,499,499,499,499,499,499,499,499,499,499,499,499,499,499,499,499,499,499,499,499,499,499,499,499,499,499,499,499,499,499,499,499,499,499,499,499,499,499,499,499,499,499,499,499,493,453,406,351,295,245,189,174,164,156,152,134,123,111,98,85,61,53,47,44,43,43,43,43],"timestamp_mouse":[10,32,49,68,88,108,129,149,167,189,208,228,248,269,287,309,329,349,369,389,407,429,447,468,488,509,528,549,568,587,609,629,649,667,689,709,728,748,768,788,808,828,848,868,888,908,928,949,968,988,1008,1027,1049,1068,1088,1107,1128,1148,1168,1188,1207,1228,1248,1268,1287,1308,1328,1348,1369,1388,1408,1429,1448,1467],"xSR":741.5,"ySR":469.95,"xT1":424.9,"yT1":0,"xT2":1058.1,"yT2":0,"toosoon":0,"cond_shown":"Congruent","ratio_trial":200,"L_num":6,"L_den":20,"R_num":11,"R_den":22,"correct_side":2,"subjID":"JohanSebastianCarvajalSalazar34","gender":"0","school":"6","age":"12"},{"start_time":1551800752392,"click_time":1551800754174,"finger_time":1551800753893,"fix_duration":255.94802132755456,"trial":39,"RT":1501,"MT":281,"sideResp":2,"stimulus":[],"xmouse":[778,778,778,778,778,778,778,778,778,778,776,776,776,775,774,774,774,774,774,774,774,774,774,774,774,774,774,774,774,774,774,774,774,774,774,774,774,774,774,774,774,774,774,774,774,774,774,774,774,774,774,774,774,774,774,774,774,774,774,774,774,774,774,774,774,774,774,774,774,774,774,774,782,796,807,823,832,842,858,873,900,911,926,941,955,984,1002,1029,1051,1078],"ymouse":[515,515,515,515,515,515,515,515,515,516,516,516,516,517,517,517,517,517,517,517,517,517,517,517,517,517,517,517,517,517,517,517,517,517,517,517,517,517,517,517,517,517,517,517,517,517,517,517,517,517,517,517,517,517,517,517,517,517,517,517,517,517,517,517,517,517,517,517,517,517,517,517,505,487,470,433,414,391,352,326,268,242,217,195,175,145,132,118,107,96],"timestamp_mouse":[9,35,41,62,83,102,122,143,161,182,202,223,241,261,282,302,321,342,362,381,402,422,441,461,481,502,522,543,562,582,602,622,642,662,682,702,723,743,763,783,803,823,841,861,883,901,922,942,962,982,1001,1021,1042,1061,1083,1103,1122,1143,1162,1182,1202,1223,1241,1261,1282,1303,1322,1342,1363,1382,1402,1423,1442,1461,1483,1501,1522,1542,1563,1582,1603,1622,1642,1661,1682,1702,1723,1742,1763,1782],"xSR":741.5,"ySR":469.95,"xT1":424.9,"yT1":0,"xT2":1058.1,"yT2":0,"toosoon":0,"cond_shown":"Congruent","ratio_trial":200,"L_num":3,"L_den":10,"R_num":14,"R_den":28,"correct_side":2,"subjID":"JohanSebastianCarvajalSalazar34","gender":"0","school":"6","age":"12"},{"start_time":1551800756835,"click_time":1551800758313,"finger_time":1551800758094,"fix_duration":739.6144158245376,"trial":40,"RT":1259,"MT":219,"sideResp":1,"stimulus":[],"xmouse":[823,823,823,823,823,823,823,823,823,823,823,823,823,823,823,823,823,823,823,823,823,823,823,823,823,823,823,823,823,823,823,823,823,823,823,823,823,823,823,823,823,823,824,826,826,826,826,826,826,826,826,826,826,826,826,826,826,826,826,826,826,826,821,771,714,695,637,608,559,533,502,476,463,449,448],"ymouse":[528,528,528,528,528,528,528,528,528,528,528,528,528,528,528,528,528,528,528,528,528,528,528,528,528,528,528,528,528,528,528,528,528,528,528,528,528,528,528,528,528,525,523,518,516,515,513,513,513,513,513,513,513,513,513,513,513,513,513,513,513,506,495,451,413,399,361,337,280,242,196,153,129,103,97],"timestamp_mouse":[1,19,39,59,79,98,119,140,159,179,199,219,238,259,278,300,320,338,359,380,399,420,440,458,480,500,520,538,559,580,600,619,639,660,680,699,719,738,759,779,800,819,840,859,880,899,920,938,959,979,999,1019,1040,1059,1078,1099,1119,1140,1159,1180,1199,1219,1239,1259,1279,1300,1318,1339,1360,1379,1398,1419,1440,1460,1478],"xSR":741.5,"ySR":469.95,"xT1":424.9,"yT1":0,"xT2":1058.1,"yT2":0,"toosoon":0,"cond_shown":"Incongruent","ratio_trial":200,"L_num":11,"L_den":20,"R_num":3,"R_den":4,"correct_side":2,"subjID":"JohanSebastianCarvajalSalazar34","gender":"0","school":"6","age":"12"},{"start_time":1551800761328,"click_time":1551800763213,"finger_time":1551800762334,"fix_duration":652.8264696215557,"trial":41,"RT":1006,"MT":879,"sideResp":1,"stimulus":[],"xmouse":[814,814,814,814,814,814,814,814,814,814,814,814,814,814,814,814,814,814,814,814,815,816,817,818,818,818,818,818,818,818,818,818,818,818,818,818,818,818,818,818,818,818,818,818,818,818,818,815,783,754,710,688,676,658,654,653,652,651,648,644,639,628,618,608,579,565,552,541,521,513,510,509,509,506,503,501,500,498,495,491,488,485,484,483,483,482,482,482,482,482,482,482,482,481,481],"ymouse":[554,554,554,554,554,554,554,554,554,554,554,554,554,554,554,554,554,554,554,554,555,553,551,549,549,549,549,549,549,549,549,549,549,549,549,549,549,549,549,549,549,549,549,549,549,549,549,545,532,523,512,505,501,494,492,491,490,490,486,482,474,455,434,409,341,311,287,267,238,227,224,224,224,221,217,209,203,195,174,162,152,141,136,128,126,124,122,120,115,112,108,107,106,100,95],"timestamp_mouse":[9,26,49,66,86,106,125,146,166,185,206,226,245,267,286,306,327,347,366,386,406,427,447,465,486,506,527,545,566,586,605,626,646,666,685,707,725,746,766,787,806,825,845,867,885,907,926,946,965,986,1006,1026,1047,1067,1085,1106,1125,1146,1167,1186,1205,1226,1246,1266,1286,1307,1326,1346,1365,1386,1407,1425,1446,1466,1486,1506,1527,1547,1566,1585,1607,1626,1646,1665,1686,1706,1725,1746,1766,1786,1806,1826,1847,1867,1885],"xSR":741.5,"ySR":469.95,"xT1":424.9,"yT1":0,"xT2":1058.1,"yT2":0,"toosoon":0,"cond_shown":"Congruent","ratio_trial":200,"L_num":12,"L_den":20,"R_num":6,"R_den":15,"correct_side":1,"subjID":"JohanSebastianCarvajalSalazar34","gender":"0","school":"6","age":"12"},{"start_time":1551800768452,"click_time":1551800769573,"finger_time":1551800769194,"fix_duration":456.09075333422965,"trial":42,"RT":742,"MT":379,"sideResp":2,"stimulus":[],"xmouse":[796,796,796,796,796,796,796,796,796,796,796,796,796,796,796,796,796,796,796,796,796,796,796,796,796,796,796,796,796,796,796,796,796,796,796,798,815,864,882,895,908,928,977,996,1018,1026,1032,1034,1034,1034,1036,1041,1059,1075,1099,1111,1121],"ymouse":[522,522,522,522,522,522,522,522,522,522,522,522,522,522,522,522,522,522,522,522,522,522,522,522,522,522,522,522,522,522,522,522,522,522,522,520,503,458,438,418,396,364,293,269,233,214,189,171,171,171,170,169,155,144,122,105,85],"timestamp_mouse":[9,23,42,63,83,101,123,141,162,183,201,222,242,262,282,302,322,342,361,382,403,421,443,463,483,502,521,543,563,582,602,623,641,663,682,702,722,742,762,782,802,823,842,861,882,902,922,942,962,982,1002,1022,1041,1063,1082,1103,1121],"xSR":741.5,"ySR":469.95,"xT1":424.9,"yT1":0,"xT2":1058.1,"yT2":0,"toosoon":0,"cond_shown":"Incongruent","ratio_trial":100,"L_num":3,"L_den":5,"R_num":11,"R_den":22,"correct_side":1,"subjID":"JohanSebastianCarvajalSalazar34","gender":"0","school":"6","age":"12"},{"start_time":1551800770973,"click_time":1551800772154,"finger_time":1551800771814,"fix_duration":257.5070923000762,"trial":43,"RT":841,"MT":340,"sideResp":2,"stimulus":[],"xmouse":[824,824,824,824,824,824,825,826,826,826,826,827,827,827,827,827,827,827,827,827,827,827,827,827,827,827,827,827,827,827,827,827,827,827,827,827,827,827,827,827,826,836,850,865,878,891,911,921,932,934,939,950,959,966,977,987,1019,1039,1053,1065],"ymouse":[509,509,509,509,509,509,509,509,509,509,509,509,509,509,509,509,509,509,509,509,509,509,509,509,509,509,509,509,509,509,509,509,509,509,509,509,509,509,509,509,509,485,461,435,408,381,334,316,300,299,292,280,268,259,243,226,166,131,107,85],"timestamp_mouse":[8,38,41,60,81,102,121,141,161,181,200,221,241,262,281,301,321,341,362,380,401,421,441,461,482,500,521,541,561,581,602,620,641,661,680,701,720,741,761,781,800,821,841,861,882,902,920,941,960,981,1002,1022,1041,1061,1081,1102,1120,1140,1161,1181],"xSR":741.5,"ySR":469.95,"xT1":424.9,"yT1":0,"xT2":1058.1,"yT2":0,"toosoon":0,"cond_shown":"Incongruent","ratio_trial":300,"L_num":13,"L_den":26,"R_num":12,"R_den":15,"correct_side":2,"subjID":"JohanSebastianCarvajalSalazar34","gender":"0","school":"6","age":"12"},{"start_time":1551800773568,"click_time":1551800775294,"finger_time":1551800774494,"fix_duration":331.2725490049114,"trial":44,"RT":926,"MT":800,"sideResp":1,"stimulus":[],"xmouse":[773,773,773,773,773,773,773,773,773,773,773,773,773,773,773,773,773,773,773,773,773,773,773,773,773,773,773,773,773,773,773,773,773,773,773,773,773,773,773,773,773,773,773,770,767,756,712,691,673,662,661,661,661,661,661,659,640,616,583,516,482,424,403,384,369,360,356,356,356,356,358,378,399,416,426,431,433,433,433,434,435,437,438,441,446,449,459],"ymouse":[524,524,524,524,524,524,524,524,524,524,524,524,524,524,524,524,524,524,524,524,524,524,524,524,524,524,524,524,524,524,524,524,524,524,524,524,524,524,524,524,524,524,524,519,513,497,425,391,369,355,354,353,353,353,353,348,330,311,288,247,229,195,183,170,158,150,141,137,135,133,131,127,125,125,123,122,121,121,121,120,120,118,116,114,111,107,98],"timestamp_mouse":[10,35,46,66,87,106,126,145,167,185,207,225,245,267,286,306,326,346,366,387,407,425,447,466,487,507,525,547,565,587,605,627,646,666,685,707,726,745,766,786,805,825,846,867,886,906,926,946,967,987,1006,1026,1047,1066,1086,1107,1126,1145,1167,1186,1207,1226,1246,1266,1287,1305,1326,1346,1366,1386,1406,1426,1446,1466,1485,1506,1527,1546,1566,1587,1607,1626,1645,1665,1685,1707,1726],"xSR":741.5,"ySR":469.95,"xT1":424.9,"yT1":0,"xT2":1058.1,"yT2":0,"toosoon":0,"cond_shown":"Congruent","ratio_trial":300,"L_num":3,"L_den":6,"R_num":2,"R_den":10,"correct_side":1,"subjID":"JohanSebastianCarvajalSalazar34","gender":"0","school":"6","age":"12"},{"start_time":1551800776505,"click_time":1551800778774,"finger_time":1551800776614,"fix_duration":250,"trial":45,"RT":109,"MT":2160,"sideResp":2,"stimulus":[],"xmouse":[790,796,808,808,829,839,847,855,862,873,877,879,881,881,881,881,881,881,879,875,873,871,866,862,850,846,844,844,843,841,839,836,834,834,834,834,834,834,834,837,838,842,843,846,848,848,848,848,848,848,848,847,845,844,842,842,841,839,835,821,815,812,811,811,811,811,811,811,811,811,811,811,811,811,811,811,811,811,811,811,811,810,810,810,809,807,807,807,807,807,807,807,807,809,823,830,839,847,855,872,882,892,911,926,963,983,1005,1019,1032,1050,1060,1071,1089,1100],"ymouse":[521,528,540,540,563,576,585,596,606,620,623,626,626,626,626,626,624,623,620,614,612,607,596,588,573,568,566,566,564,560,558,556,554,554,554,554,554,550,549,545,543,536,533,530,524,523,523,523,523,523,523,524,526,527,528,528,529,529,530,533,534,534,534,534,534,534,534,534,534,534,534,534,534,534,534,534,534,534,534,534,534,534,534,534,534,534,534,534,534,534,534,533,527,516,485,467,447,429,411,380,367,354,336,324,296,280,262,245,226,186,164,143,113,97],"timestamp_mouse":[12,30,55,69,89,109,130,148,170,189,209,229,249,269,288,309,330,350,369,389,408,429,449,469,489,509,529,550,569,589,610,628,649,669,689,709,730,749,768,788,809,829,850,868,888,909,928,949,969,989,1009,1030,1049,1069,1088,1110,1129,1149,1169,1189,1209,1229,1248,1268,1289,1309,1330,1350,1369,1388,1409,1429,1449,1468,1489,1510,1528,1549,1570,1590,1610,1629,1649,1669,1689,1709,1729,1749,1768,1789,1810,1829,1848,1869,1889,1909,1929,1949,1968,1990,2009,2029,2049,2068,2090,2109,2129,2150,2169,2189,2210,2229,2249,2268],"xSR":741.5,"ySR":469.95,"xT1":424.9,"yT1":0,"xT2":1058.1,"yT2":0,"toosoon":0,"cond_shown":"Incongruent","ratio_trial":100,"L_num":8,"L_den":16,"R_num":6,"R_den":10,"correct_side":2,"subjID":"JohanSebastianCarvajalSalazar34","gender":"0","school":"6","age":"12"},{"start_time":1551800781059,"click_time":1551800782615,"finger_time":1551800782414,"fix_duration":1162.5464392427134,"trial":46,"RT":1355,"MT":201,"sideResp":2,"stimulus":[],"xmouse":[798,798,798,798,798,798,798,798,798,798,798,798,798,798,798,798,798,798,798,798,798,798,798,798,798,798,798,798,798,798,798,798,798,798,798,798,798,798,798,798,798,798,798,798,798,798,798,798,798,798,798,798,798,798,798,798,798,798,798,798,798,798,798,798,798,802,824,850,887,921,951,976,1010,1018,1033,1041,1054,1059],"ymouse":[565,565,565,565,565,565,565,565,565,565,565,565,565,565,565,565,565,565,565,565,565,565,565,565,565,565,565,565,565,565,565,565,565,565,565,565,565,565,565,565,565,565,565,565,565,565,565,565,565,565,565,565,565,565,565,565,565,565,565,565,565,565,565,565,565,559,520,480,428,369,318,269,186,157,121,105,83,73],"timestamp_mouse":[15,36,54,76,95,114,136,154,176,196,216,235,255,275,294,315,336,354,375,396,415,435,455,476,495,516,536,556,575,595,615,640,655,676,695,715,734,755,775,794,815,835,855,874,894,916,935,955,975,995,1014,1034,1056,1074,1095,1114,1134,1155,1174,1195,1216,1235,1255,1274,1294,1315,1335,1355,1375,1396,1415,1435,1455,1476,1494,1516,1535,1556],"xSR":741.5,"ySR":469.95,"xT1":424.9,"yT1":0,"xT2":1058.1,"yT2":0,"toosoon":0,"cond_shown":"Incongruent","ratio_trial":300,"L_num":4,"L_den":20,"R_num":2,"R_den":4,"correct_side":2,"subjID":"JohanSebastianCarvajalSalazar34","gender":"0","school":"6","age":"12"},{"start_time":1551800785093,"click_time":1551800786694,"finger_time":1551800786175,"fix_duration":1376.2012531901294,"trial":47,"RT":1082,"MT":519,"sideResp":2,"stimulus":[],"xmouse":[761,761,761,761,761,761,761,761,761,761,761,761,761,761,761,761,761,761,761,761,761,761,761,761,761,761,761,761,761,761,761,761,761,761,761,761,761,761,761,761,761,761,761,761,761,761,761,761,761,761,761,761,762,768,770,785,799,812,825,841,870,893,902,925,943,976,992,1004,1015,1021,1032,1035,1037,1039,1040,1042,1049,1055,1064,1073,1088],"ymouse":[500,500,500,500,500,500,500,500,500,500,500,500,500,500,500,500,500,500,500,500,500,500,500,500,500,500,500,500,500,500,500,500,500,500,500,500,500,500,500,500,500,500,500,500,500,500,500,500,500,500,500,496,494,479,467,439,422,408,393,374,339,314,302,276,257,228,214,204,195,189,171,165,161,158,156,154,144,137,125,113,92],"timestamp_mouse":[8,34,41,61,80,100,122,140,162,181,201,222,241,260,282,301,320,341,360,380,402,421,442,461,481,502,520,541,560,581,600,620,642,661,682,702,721,741,761,782,801,821,842,860,882,901,920,942,961,982,1001,1020,1042,1062,1081,1100,1120,1141,1161,1181,1201,1221,1240,1261,1282,1300,1320,1341,1362,1382,1401,1422,1441,1460,1480,1501,1521,1542,1562,1582,1601],"xSR":741.5,"ySR":469.95,"xT1":424.9,"yT1":0,"xT2":1058.1,"yT2":0,"toosoon":0,"cond_shown":"Congruent","ratio_trial":300,"L_num":1,"L_den":5,"R_num":11,"R_den":22,"correct_side":2,"subjID":"JohanSebastianCarvajalSalazar34","gender":"0","school":"6","age":"12"},{"start_time":1551800789287,"click_time":1551800790934,"finger_time":1551800790434,"fix_duration":1271.84682366496,"trial":48,"RT":1147,"MT":500,"sideResp":2,"stimulus":[],"xmouse":[777,777,777,777,777,777,777,777,777,777,777,777,779,783,785,786,786,786,786,786,786,786,786,786,786,786,786,786,786,786,786,786,786,786,786,786,786,786,786,786,786,786,786,786,786,786,786,786,786,786,786,786,786,786,786,787,796,810,830,849,892,911,930,952,963,978,985,989,993,997,1007,1014,1017,1027,1033,1042,1046,1051,1054,1058,1068,1074,1083],"ymouse":[478,478,478,478,478,478,478,478,478,478,478,478,478,478,478,478,478,478,478,478,478,478,478,478,478,478,478,478,478,478,478,478,478,478,478,478,478,478,478,478,478,478,478,478,478,478,478,478,478,478,478,478,478,478,478,478,472,464,453,442,414,398,380,355,340,318,309,304,298,293,275,263,258,239,225,193,177,163,152,139,119,105,83],"timestamp_mouse":[9,37,46,68,87,107,127,146,168,186,207,226,247,268,288,307,327,348,368,386,407,427,447,468,486,507,528,548,567,588,607,626,647,666,687,706,727,747,767,788,807,827,848,868,887,907,928,947,967,987,1007,1027,1048,1067,1087,1108,1127,1147,1167,1187,1207,1227,1248,1267,1287,1308,1327,1347,1368,1387,1407,1427,1447,1467,1487,1507,1528,1547,1567,1588,1607,1626,1647],"xSR":741.5,"ySR":469.95,"xT1":424.9,"yT1":0,"xT2":1058.1,"yT2":0,"toosoon":0,"cond_shown":"Incongruent","ratio_trial":200,"L_num":4,"L_den":30,"R_num":1,"R_den":3,"correct_side":2,"subjID":"JohanSebastianCarvajalSalazar34","gender":"0","school":"6","age":"12"},{"start_time":1551800792929,"click_time":1551800794954,"finger_time":1551800794514,"fix_duration":812.9928808653359,"trial":49,"RT":1585,"MT":440,"sideResp":2,"stimulus":[],"xmouse":[811,811,811,811,811,811,811,811,811,811,811,811,811,811,811,811,811,811,811,811,811,811,811,811,811,811,811,811,811,811,811,811,811,811,811,811,811,811,811,811,811,811,811,811,811,811,811,811,811,811,811,811,811,811,811,811,811,811,811,811,811,811,811,811,811,811,811,811,811,811,811,811,811,811,811,811,811,811,826,844,878,908,935,965,967,968,969,969,975,983,992,1011,1022,1032,1050,1059,1070,1081,1097,1102,1106,1108],"ymouse":[498,498,498,498,498,498,498,498,498,498,498,498,498,498,498,498,498,498,498,498,498,498,498,498,498,498,498,498,498,498,498,498,498,498,498,498,498,498,498,498,498,498,498,498,498,498,498,498,498,498,498,498,498,498,498,498,498,498,498,498,498,498,498,498,498,498,498,498,498,498,498,498,498,498,498,498,498,498,492,485,475,466,458,445,443,443,442,442,434,423,410,377,355,327,256,221,185,158,121,110,100,94],"timestamp_mouse":[10,33,46,65,85,105,126,145,165,185,205,225,245,265,285,306,324,346,364,385,404,425,446,465,485,505,525,546,565,585,605,625,645,665,685,705,724,746,765,784,805,824,846,865,885,905,925,946,964,985,1005,1026,1045,1065,1085,1105,1126,1146,1164,1185,1206,1225,1246,1265,1285,1305,1325,1346,1365,1385,1405,1425,1446,1465,1485,1505,1525,1545,1566,1585,1605,1625,1646,1664,1685,1705,1724,1745,1765,1785,1805,1825,1845,1865,1885,1905,1925,1945,1965,1984,2006,2025],"xSR":741.5,"ySR":469.95,"xT1":424.9,"yT1":0,"xT2":1058.1,"yT2":0,"toosoon":0,"cond_shown":"Incongruent","ratio_trial":300,"L_num":8,"L_den":10,"R_num":9,"R_den":18,"correct_side":1,"subjID":"JohanSebastianCarvajalSalazar34","gender":"0","school":"6","age":"12"},{"start_time":1551800798991,"click_time":1551800800794,"finger_time":1551800800114,"fix_duration":1156.2608856431664,"trial":50,"RT":1123,"MT":680,"sideResp":2,"stimulus":[],"xmouse":[808,808,808,808,808,808,808,808,808,808,808,808,808,808,808,808,808,808,808,808,808,808,808,808,808,808,808,808,808,808,808,808,808,808,808,808,808,808,808,808,808,808,808,808,808,808,808,808,808,808,808,808,808,809,813,836,852,885,914,935,964,974,980,986,991,997,1001,1004,1006,1008,1013,1015,1017,1019,1021,1025,1029,1031,1033,1035,1038,1038,1039,1039,1041,1043,1046,1048,1053,1056,1062],"ymouse":[564,564,564,564,564,564,564,564,564,564,564,564,564,564,564,564,564,564,564,564,564,564,564,564,564,564,564,564,564,564,564,564,564,564,564,564,564,564,564,564,564,564,564,564,564,564,564,564,564,564,564,564,564,564,560,533,519,493,472,458,435,423,414,402,391,370,355,343,331,319,288,274,258,243,228,199,185,172,154,142,124,121,119,117,114,109,104,101,94,90,83],"timestamp_mouse":[9,34,44,64,83,103,124,143,164,182,204,224,242,263,284,302,323,343,364,384,403,422,444,464,482,504,523,543,564,583,603,623,644,664,684,704,724,744,762,783,803,823,844,863,884,903,923,944,964,983,1003,1024,1043,1064,1084,1103,1123,1143,1164,1183,1204,1223,1244,1263,1282,1304,1322,1343,1363,1383,1402,1423,1443,1463,1483,1502,1523,1543,1563,1583,1604,1623,1643,1664,1683,1703,1722,1743,1764,1783,1803],"xSR":741.5,"ySR":469.95,"xT1":424.9,"yT1":0,"xT2":1058.1,"yT2":0,"toosoon":0,"cond_shown":"Congruent","ratio_trial":100,"L_num":4,"L_den":8,"R_num":6,"R_den":10,"correct_side":2,"subjID":"JohanSebastianCarvajalSalazar34","gender":"0","school":"6","age":"12"},{"start_time":1551800803862,"click_time":1551800805614,"finger_time":1551800804974,"fix_duration":426.82523191313214,"trial":51,"RT":1112,"MT":640,"sideResp":1,"stimulus":[],"xmouse":[775,775,775,775,775,775,775,775,775,775,775,775,775,775,775,775,775,775,775,775,775,775,775,775,775,775,775,775,775,775,775,775,775,775,775,775,775,775,775,775,775,775,775,775,775,775,774,767,762,760,757,754,753,751,742,734,724,718,712,709,703,697,696,695,694,692,681,674,662,646,624,561,537,527,527,527,527,527,527,527,527,527,527,527,527,527,527,510],"ymouse":[542,542,542,542,542,542,542,542,542,542,542,542,542,542,542,542,542,542,542,542,542,542,542,542,542,542,542,542,542,542,542,542,542,542,542,542,542,542,542,542,542,542,542,542,542,542,541,527,520,516,510,504,502,499,487,476,456,443,431,424,414,406,403,402,400,398,375,349,310,258,212,95,46,13,13,13,13,13,13,13,13,13,13,13,13,13,13,4],"timestamp_mouse":[13,34,52,72,91,111,132,152,172,192,213,232,253,272,292,312,332,351,373,392,413,433,452,472,492,513,532,552,572,593,612,632,651,672,693,713,732,753,773,793,813,831,853,871,891,913,932,952,972,992,1012,1032,1052,1071,1092,1112,1132,1152,1171,1193,1213,1231,1253,1272,1293,1312,1332,1352,1372,1392,1412,1432,1452,1471,1493,1512,1532,1552,1572,1592,1613,1632,1652,1672,1692,1713,1732,1752],"xSR":741.5,"ySR":469.95,"xT1":424.9,"yT1":0,"xT2":1058.1,"yT2":0,"toosoon":0,"cond_shown":"Congruent","ratio_trial":200,"L_num":11,"L_den":22,"R_num":3,"R_den":10,"correct_side":1,"subjID":"JohanSebastianCarvajalSalazar34","gender":"0","school":"6","age":"12"},{"start_time":1551800807334,"click_time":1551800809494,"finger_time":1551800808154,"fix_duration":458.95908707282564,"trial":52,"RT":820,"MT":1340,"sideResp":2,"stimulus":[],"xmouse":[762,762,762,762,762,762,762,762,762,762,762,762,762,762,762,762,762,762,762,762,762,762,762,762,762,762,762,762,762,762,762,762,762,762,762,763,764,766,776,802,813,847,874,944,979,1003,1024,1041,1071,1085,1101,1122,1138,1168,1185,1204,1221,1240,1270,1278,1289,1294,1297,1302,1302,1302,1302,1302,1303,1303,1303,1303,1304,1308,1308,1308,1306,1301,1298,1294,1291,1291,1289,1288,1287,1286,1285,1281,1277,1272,1262,1253,1242,1226,1221,1218,1217,1215,1212,1207,1204,1198,1194,1183,1179,1175,1170,1161,1154],"ymouse":[525,525,525,525,525,525,525,525,525,525,525,525,525,525,525,525,525,525,525,525,525,525,525,525,525,525,525,525,525,525,525,525,525,525,525,527,527,527,528,532,534,544,552,576,591,605,617,627,637,639,640,640,636,625,617,606,593,578,539,519,488,469,450,410,394,381,371,366,356,349,342,328,317,290,272,252,232,212,193,161,145,138,132,125,123,122,121,121,121,121,120,118,117,116,115,115,115,115,113,112,111,106,103,98,96,94,92,91,90],"timestamp_mouse":[2,21,41,61,81,100,121,140,161,180,200,221,241,260,281,301,320,341,360,380,400,420,440,460,480,500,520,541,560,579,600,621,640,660,680,700,720,741,760,781,800,820,840,859,880,899,921,941,960,979,1001,1020,1040,1059,1079,1100,1121,1140,1160,1181,1200,1220,1240,1260,1280,1300,1319,1341,1360,1380,1400,1420,1440,1460,1480,1501,1520,1540,1560,1581,1600,1620,1641,1660,1680,1700,1720,1740,1760,1780,1800,1820,1840,1860,1880,1901,1921,1941,1960,1981,2000,2020,2039,2060,2080,2100,2121,2140,2159],"xSR":741.5,"ySR":469.95,"xT1":424.9,"yT1":0,"xT2":1058.1,"yT2":0,"toosoon":0,"cond_shown":"Incongruent","ratio_trial":300,"L_num":13,"L_den":26,"R_num":12,"R_den":15,"correct_side":2,"subjID":"JohanSebastianCarvajalSalazar34","gender":"0","school":"6","age":"12"},{"start_time":1551800810839,"click_time":1551800812394,"finger_time":1551800811675,"fix_duration":263.2736859747389,"trial":53,"RT":836,"MT":719,"sideResp":2,"stimulus":[],"xmouse":[773,773,773,773,773,773,773,773,773,773,773,773,773,773,773,773,773,773,773,773,773,773,773,773,773,773,773,773,773,773,773,773,773,773,773,773,773,773,783,805,830,857,907,935,966,1028,1068,1130,1153,1176,1201,1223,1253,1265,1276,1294,1304,1315,1315,1315,1311,1308,1307,1305,1297,1279,1257,1223,1206,1190,1180,1176,1167,1165,1165,1164,1160,1153],"ymouse":[515,515,515,515,515,515,515,515,515,515,515,515,515,515,515,515,515,515,515,515,515,515,515,515,515,515,515,515,515,515,515,515,515,515,515,515,515,515,515,522,529,537,548,549,549,546,536,516,504,488,469,449,410,389,366,326,303,259,241,223,212,204,198,194,183,155,128,102,94,87,84,84,82,82,82,82,82,82],"timestamp_mouse":[15,41,55,76,95,115,135,155,174,195,215,236,254,275,296,314,335,356,374,396,415,435,456,474,495,516,535,555,575,595,616,636,655,675,696,715,735,756,775,796,816,836,855,875,895,916,935,956,975,995,1015,1035,1054,1076,1095,1115,1136,1155,1175,1196,1215,1235,1255,1276,1295,1315,1335,1355,1374,1396,1415,1435,1454,1475,1496,1516,1536,1555],"xSR":741.5,"ySR":469.95,"xT1":424.9,"yT1":0,"xT2":1058.1,"yT2":0,"toosoon":0,"cond_shown":"Incongruent","ratio_trial":200,"L_num":1,"L_den":2,"R_num":3,"R_den":10,"correct_side":1,"subjID":"JohanSebastianCarvajalSalazar34","gender":"0","school":"6","age":"12"},{"start_time":1551800814006,"click_time":1551800815814,"finger_time":1551800815133,"fix_duration":250,"trial":54,"RT":1127,"MT":681,"sideResp":2,"stimulus":[],"xmouse":[806,806,806,806,806,806,806,806,806,806,806,806,806,806,806,806,806,806,806,806,806,806,806,806,806,806,806,806,806,806,806,806,806,806,806,806,806,806,806,806,806,806,806,806,806,806,806,806,806,806,806,806,806,806,806,827,854,878,904,964,996,1029,1056,1082,1142,1185,1195,1215,1220,1223,1224,1226,1228,1231,1232,1232,1231,1229,1227,1224,1222,1220,1217,1214,1203,1198,1189,1182,1176,1159,1145],"ymouse":[523,523,523,523,523,523,523,523,523,523,523,523,523,523,523,523,523,523,523,523,523,523,523,523,523,523,523,523,523,523,523,523,523,523,523,523,523,523,523,523,523,523,523,523,523,523,523,523,523,523,523,523,523,523,523,523,523,521,514,491,476,462,446,432,393,362,353,328,311,279,265,256,244,223,195,179,165,150,143,129,123,117,110,105,96,95,93,93,92,89,87],"timestamp_mouse":[10,35,47,68,87,108,128,147,168,187,208,229,247,269,288,309,329,348,369,387,408,427,449,468,488,507,529,548,568,588,608,628,648,667,688,708,728,748,769,787,808,828,848,867,888,909,927,949,967,987,1009,1029,1048,1067,1087,1108,1127,1148,1168,1187,1208,1228,1247,1267,1288,1308,1329,1348,1368,1389,1408,1428,1449,1468,1488,1509,1528,1548,1568,1588,1608,1628,1648,1669,1688,1708,1728,1748,1768,1788,1808],"xSR":741.5,"ySR":469.95,"xT1":424.9,"yT1":0,"xT2":1058.1,"yT2":0,"toosoon":0,"cond_shown":"Incongruent","ratio_trial":300,"L_num":4,"L_den":20,"R_num":2,"R_den":4,"correct_side":2,"subjID":"JohanSebastianCarvajalSalazar34","gender":"0","school":"6","age":"12"},{"start_time":1551800818348,"click_time":1551800819994,"finger_time":1551800819455,"fix_duration":1352.0768445132985,"trial":55,"RT":1107,"MT":539,"sideResp":1,"stimulus":[],"xmouse":[772,772,772,772,772,772,772,772,772,772,772,772,772,772,772,772,772,772,772,772,772,772,772,772,772,772,772,772,772,772,772,772,772,772,772,772,772,772,772,772,772,772,772,772,772,772,772,772,772,772,772,772,766,759,750,737,724,689,666,642,606,584,542,523,508,493,478,461,459,459,460,463,468,470,470,470,473,478,478,478,478,478,478],"ymouse":[498,498,498,498,498,498,498,498,498,498,498,498,498,498,498,498,498,498,498,498,498,498,498,498,498,498,500,500,501,501,501,501,501,502,502,502,502,502,502,502,502,502,502,502,502,502,502,502,502,502,502,503,507,511,515,519,523,525,525,525,515,509,490,480,467,455,437,397,364,354,327,310,290,252,222,191,176,151,136,122,113,106,93],"timestamp_mouse":[11,34,46,67,86,107,127,147,166,186,205,227,245,266,286,306,327,345,366,387,405,427,445,467,485,506,526,546,567,586,606,626,646,666,686,707,726,746,767,787,806,827,846,866,887,907,926,946,967,987,1006,1026,1045,1066,1086,1107,1127,1146,1167,1186,1206,1226,1246,1266,1286,1306,1327,1346,1365,1385,1406,1426,1445,1466,1486,1507,1527,1546,1566,1585,1606,1627,1645],"xSR":741.5,"ySR":469.95,"xT1":424.9,"yT1":0,"xT2":1058.1,"yT2":0,"toosoon":0,"cond_shown":"Incongruent","ratio_trial":300,"L_num":7,"L_den":10,"R_num":8,"R_den":20,"correct_side":1,"subjID":"JohanSebastianCarvajalSalazar34","gender":"0","school":"6","age":"12"},{"start_time":1551800822143,"click_time":1551800824054,"finger_time":1551800823715,"fix_duration":1048.0285359142351,"trial":56,"RT":1572,"MT":339,"sideResp":1,"stimulus":[],"xmouse":[782,782,782,782,782,782,782,784,785,785,785,785,785,785,785,786,787,788,788,788,788,788,788,788,788,788,788,788,790,791,791,791,791,791,791,791,791,791,791,791,791,791,791,791,791,791,791,791,791,791,791,791,791,791,791,791,791,791,791,791,791,791,791,791,791,791,791,791,791,791,791,791,791,791,791,791,783,749,722,696,663,651,638,636,634,633,630,615,611,608,594,581,553,539,528,519],"ymouse":[529,529,529,529,529,529,529,529,529,529,529,529,529,529,529,529,532,534,538,541,543,546,547,547,547,547,547,547,547,547,547,547,547,547,547,547,547,547,547,547,547,547,547,547,547,547,547,547,547,547,547,547,547,547,547,547,547,547,547,547,547,547,547,547,547,547,547,547,547,547,547,547,547,547,547,547,544,533,523,507,482,463,427,409,396,383,366,300,282,264,222,191,136,113,93,79],"timestamp_mouse":[10,32,52,72,92,110,132,151,172,192,211,231,250,272,292,311,331,352,371,391,411,432,451,471,491,511,531,550,571,590,611,631,651,672,692,711,731,751,770,791,811,831,851,871,891,911,932,950,970,991,1011,1031,1050,1072,1091,1111,1131,1151,1171,1191,1210,1231,1251,1271,1290,1311,1331,1351,1371,1391,1411,1431,1452,1471,1491,1511,1532,1551,1572,1591,1611,1630,1651,1671,1691,1710,1731,1751,1771,1790,1811,1831,1851,1871,1891,1911],"xSR":741.5,"ySR":469.95,"xT1":424.9,"yT1":0,"xT2":1058.1,"yT2":0,"toosoon":0,"cond_shown":"Incongruent","ratio_trial":200,"L_num":4,"L_den":5,"R_num":6,"R_den":10,"correct_side":1,"subjID":"JohanSebastianCarvajalSalazar34","gender":"0","school":"6","age":"12"},{"start_time":1551800826417,"click_time":1551800828214,"finger_time":1551800827694,"fix_duration":1362.7184158341347,"trial":57,"RT":1277,"MT":520,"sideResp":1,"stimulus":[],"xmouse":[774,774,774,774,774,774,774,774,774,774,774,774,774,774,774,774,774,774,774,774,774,774,774,774,774,774,774,774,774,774,774,774,774,774,774,774,774,774,774,774,774,774,774,774,774,774,774,774,774,774,774,774,775,776,777,777,778,778,778,778,778,767,755,715,699,675,658,637,589,565,544,520,498,476,476,481,488,496,503,504,505,505,505,505,505,504,497,488,474,471],"ymouse":[524,524,524,524,524,524,524,524,524,524,524,524,524,524,524,524,524,524,524,524,524,524,524,524,524,524,524,524,524,524,524,524,524,524,524,524,524,524,524,524,524,524,524,524,524,524,524,524,524,524,524,524,524,524,524,524,524,524,524,524,524,524,524,524,524,524,524,521,502,485,461,421,372,262,234,210,189,168,139,132,130,129,128,126,126,123,119,115,105,98],"timestamp_mouse":[21,43,56,77,98,117,137,157,177,196,217,237,257,278,297,317,337,357,377,397,417,437,458,477,497,517,537,558,578,598,617,637,657,677,697,718,736,757,777,797,818,838,858,877,897,918,938,956,976,998,1017,1037,1057,1077,1097,1117,1138,1157,1177,1197,1217,1237,1256,1277,1298,1317,1338,1358,1377,1396,1417,1437,1458,1477,1498,1516,1537,1558,1577,1596,1617,1636,1657,1678,1698,1717,1738,1758,1778,1797],"xSR":741.5,"ySR":469.95,"xT1":424.9,"yT1":0,"xT2":1058.1,"yT2":0,"toosoon":0,"cond_shown":"Incongruent","ratio_trial":100,"L_num":3,"L_den":6,"R_num":4,"R_den":10,"correct_side":1,"subjID":"JohanSebastianCarvajalSalazar34","gender":"0","school":"6","age":"12"},{"start_time":1551800831711,"click_time":1551800832995,"finger_time":1551800832475,"fix_duration":1136.422066945648,"trial":58,"RT":764,"MT":520,"sideResp":2,"stimulus":[],"xmouse":[809,809,809,809,809,809,809,809,809,809,809,809,809,809,809,809,809,809,809,809,809,809,809,809,809,809,809,809,809,809,809,809,809,809,809,809,813,831,851,884,900,916,942,962,1005,1025,1049,1070,1089,1112,1122,1136,1145,1150,1157,1157,1157,1157,1157,1157,1155,1154,1151,1148,1139],"ymouse":[540,540,540,540,540,540,540,540,540,540,540,540,540,540,540,540,540,540,540,540,540,540,540,540,540,540,540,540,540,540,540,540,540,540,540,540,540,541,541,541,541,541,539,533,516,504,487,471,454,416,393,351,320,295,209,185,169,156,146,134,126,123,116,111,98],"timestamp_mouse":[10,33,43,63,84,103,123,144,164,183,203,222,244,263,283,303,324,343,363,384,404,423,443,463,483,503,523,542,563,583,603,623,644,662,683,703,723,743,764,782,803,824,844,863,884,903,923,943,963,983,1003,1023,1043,1062,1084,1103,1124,1142,1164,1183,1203,1222,1244,1263,1284],"xSR":741.5,"ySR":469.95,"xT1":424.9,"yT1":0,"xT2":1058.1,"yT2":0,"toosoon":0,"cond_shown":"Incongruent","ratio_trial":300,"L_num":13,"L_den":26,"R_num":12,"R_den":15,"correct_side":2,"subjID":"JohanSebastianCarvajalSalazar34","gender":"0","school":"6","age":"12"},{"start_time":1551800834754,"click_time":1551800836854,"finger_time":1551800836155,"fix_duration":758.6498964226827,"trial":59,"RT":1401,"MT":699,"sideResp":1,"stimulus":[],"xmouse":[801,801,801,801,801,801,801,801,801,801,801,801,801,801,801,801,801,801,801,801,801,801,801,801,801,801,801,801,801,801,801,801,801,801,801,801,801,801,801,801,801,801,801,801,801,801,801,801,801,801,801,801,801,801,801,801,801,801,801,801,801,801,801,801,801,802,802,802,809,819,843,854,866,866,866,866,866,866,866,866,866,866,866,869,869,865,839,709,677,664,664,664,664,664,664,664,664,664,664,664,664,664,664,664,512,512],"ymouse":[548,548,548,548,548,548,548,548,548,548,548,548,548,548,548,548,548,548,548,548,548,548,548,548,548,548,548,548,548,548,548,548,548,548,548,548,548,548,548,548,548,548,548,548,548,548,548,548,548,548,548,548,548,548,548,548,548,548,548,548,548,548,548,548,548,548,548,548,547,546,546,546,546,546,546,546,546,546,546,546,546,546,546,529,496,445,361,83,27,6,6,6,6,6,6,6,6,6,6,6,6,6,6,6,0,5],"timestamp_mouse":[8,21,43,60,80,100,121,140,161,181,200,220,241,261,280,300,320,341,360,381,400,420,441,461,481,500,520,540,561,580,601,621,640,660,681,699,720,741,759,781,800,820,840,859,880,901,920,940,960,980,1000,1021,1040,1061,1080,1101,1119,1140,1161,1181,1200,1221,1240,1259,1281,1300,1320,1340,1361,1379,1401,1420,1440,1460,1480,1501,1521,1541,1561,1581,1600,1620,1640,1660,1681,1699,1720,1740,1760,1781,1801,1820,1840,1860,1880,1901,1921,1941,1961,1980,2001,2020,2040,2060,2080,2100],"xSR":741.5,"ySR":469.95,"xT1":424.9,"yT1":0,"xT2":1058.1,"yT2":0,"toosoon":0,"cond_shown":"Incongruent","ratio_trial":100,"L_num":6,"L_den":12,"R_num":3,"R_den":5,"correct_side":2,"subjID":"JohanSebastianCarvajalSalazar34","gender":"0","school":"6","age":"12"},{"start_time":1551800838185,"click_time":1551800839533,"finger_time":1551800838594,"fix_duration":250,"trial":60,"RT":409,"MT":939,"sideResp":2,"stimulus":[],"xmouse":[760,760,760,760,760,760,760,760,760,760,760,760,760,760,760,761,763,766,767,768,775,784,796,807,815,819,819,819,819,819,819,819,819,819,819,819,819,819,819,819,823,835,854,888,917,969,992,1001,1006,1011,1016,1031,1038,1048,1059,1073,1078,1082,1083,1084,1085,1085,1086,1087,1087,1089,1090,1091],"ymouse":[514,514,514,514,515,516,516,516,516,516,516,516,516,516,516,516,507,498,494,485,461,438,417,400,385,375,374,374,374,374,374,374,374,374,374,374,374,374,374,374,370,360,