[{"start_time":1551794813605,"click_time":1551794815372,"finger_time":1551794814871,"fix_duration":508.5339329779355,"trial":0,"RT":1266,"MT":501,"sideResp":2,"stimulus":"img/500/randomdotsizeEA/L/4_Ratio_500_L_18_R_9.png","xmouse":[789,789,789,789,789,789,789,789,789,789,789,789,789,789,789,789,789,789,789,789,789,789,789,789,789,789,789,789,789,789,789,789,789,789,789,789,789,789,789,789,789,789,789,789,789,789,789,789,789,789,789,789,789,789,789,789,789,789,789,789,790,793,807,819,832,851,878,934,952,970,977,984,997,1006,1014,1027,1037,1047,1047,1048,1048,1048,1051,1053,1056,1057,1058,1060,1061],"ymouse":[531,531,531,531,531,531,531,531,531,531,531,531,531,531,531,531,531,531,531,531,531,531,531,531,531,531,531,531,531,531,531,531,531,531,531,531,531,531,531,531,531,531,531,531,531,531,531,531,531,531,531,531,531,531,531,531,531,531,531,530,520,508,471,449,425,391,343,267,245,223,212,204,185,175,167,153,140,122,120,118,116,115,112,109,105,104,102,101,99],"timestamp_mouse":[12,25,55,67,85,106,126,146,166,186,206,226,246,266,286,306,326,346,366,386,406,426,447,467,486,506,526,546,567,587,605,627,647,665,686,707,725,746,767,787,807,826,846,867,887,905,926,946,966,987,1006,1026,1046,1066,1086,1107,1125,1146,1167,1187,1207,1226,1246,1266,1287,1305,1327,1346,1365,1386,1406,1426,1446,1466,1485,1505,1526,1546,1567,1586,1606,1625,1646,1667,1685,1706,1727,1746,1766],"xSR":741.5,"ySR":501.8,"xT1":424.9,"yT1":0,"xT2":1058.1,"yT2":0,"toosoon":0,"cond_shown":"randomdotsizeEA","ratio_trial":500,"smaller_num":"9","larger_num":"18","correct_side":1,"subjID":"juanandresespañolgaleano24","gender":"0","age":"11","school":"6","test":{"fix_dur":[250,1500],"timestim":300,"targets_dim":[100,100],"targets_relative_coord":[0.3,0.7],"size_stim":[880,420],"start_dim":[100,100],"size_start":[300,300],"size_fix":60,"samplingrate":20,"img_types":["equaldotsize","equaldotanddens","randomdotsizeEA"],"ratios":[250,500,750,900],"rep_conds":9,"nTrials":120,"trials_to_rest":500,"Trials_order":[29,0,14,92,81,48,46,64,60,9,30,1,83,24,115,44,31,15,17,32,69,66,22,5,102,82,99,73,101,53,114,98,108,59,11,86,76,109,23,104,8,68,61,4,41,21,19,27,116,63,111,105,38,72,79,67,43,3,7,28,36,42,56,54,52,96,40,71,107,45,89,119,51,117,6,75,93,87,34,94,55,2,10,57,95,50,112,12,26,77,78,39,74,100,88,20,37,70,62,118,35,16,97,58,84,65,80,90,91,25,18,113,33,47,106,85,13,103,110,49],"cond_shown":["randomdotsizeEA","equaldotsize","randomdotsizeEA","randomdotsizeEA","equaldotsize","equaldotsize","equaldotanddens","equaldotanddens","equaldotsize","equaldotsize","equaldotsize","equaldotanddens","randomdotsizeEA","equaldotsize","equaldotanddens","randomdotsizeEA","equaldotanddens","equaldotsize","randomdotsizeEA","randomdotsizeEA","equaldotsize","equaldotsize","equaldotanddens","randomdotsizeEA","equaldotsize","equaldotanddens","equaldotsize","equaldotanddens","randomdotsizeEA","randomdotsizeEA","equaldotsize","randomdotsizeEA","equaldotsize","randomdotsizeEA","randomdotsizeEA","randomdotsizeEA","equaldotanddens","equaldotanddens","randomdotsizeEA","randomdotsizeEA","randomdotsizeEA","randomdotsizeEA","equaldotanddens","equaldotanddens","randomdotsizeEA","equaldotsize","equaldotanddens","equaldotsize","randomdotsizeEA","equaldotsize","equaldotsize","equaldotsize","randomdotsizeEA","equaldotsize","equaldotanddens","equaldotanddens","equaldotanddens","equaldotsize","equaldotanddens","equaldotanddens","equaldotsize","equaldotsize","randomdotsizeEA","equaldotsize","equaldotanddens","equaldotsize","equaldotanddens","randomdotsizeEA","randomdotsizeEA","equaldotsize","randomdotsizeEA","randomdotsizeEA","equaldotsize","equaldotsize","equaldotsize","equaldotsize","equaldotsize","equaldotsize","equaldotanddens","equaldotanddens","equaldotanddens","randomdotsizeEA","equaldotanddens","equaldotsize","randomdotsizeEA","randomdotsizeEA","equaldotanddens","equaldotsize","randomdotsizeEA","randomdotsizeEA","equaldotsize","equaldotsize","randomdotsizeEA","equaldotanddens","equaldotanddens","randomdotsizeEA","equaldotanddens","equaldotanddens","randomdotsizeEA","equaldotanddens","randomdotsizeEA","equaldotanddens","equaldotanddens","equaldotanddens","equaldotsize","randomdotsizeEA","randomdotsizeEA","equaldotsize","equaldotanddens","equaldotanddens","equaldotsize","randomdotsizeEA","equaldotsize","randomdotsizeEA","equaldotanddens","equaldotanddens","equaldotanddens","equaldotanddens","randomdotsizeEA","equaldotanddens"],"ratio_trial":[500,250,250,750,900,250,900,500,250,900,750,250,900,250,750,750,750,500,500,750,900,750,900,500,750,900,500,250,500,500,750,250,250,900,900,250,500,250,900,750,750,750,250,500,500,900,750,500,750,500,500,900,250,250,750,750,750,500,750,500,250,750,750,750,500,250,500,900,900,900,500,900,500,900,750,500,900,500,900,900,750,250,900,900,900,250,500,250,250,500,750,500,250,500,500,750,250,900,250,900,900,500,250,900,250,500,750,750,750,250,750,500,900,900,900,250,250,750,250,250],"smaller_num":["9","2","3","15","9","2","18","9","3","18","15","6","18","3","15","6","6","9","10","3","9","12","18","5","15","18","9","2","9","9","3","2","4","18","18","2","6","4","9","9","15","6","2","2","2","18","15","10","15","2","6","18","4","6","18","18","9","4","6","2","2","15","3","3","1","3","3","18","18","9","6","18","5","18","3","9","18","4","18","9","18","2","18","18","18","1","1","2","6","2","12","5","3","6","2","3","3","18","4","18","9","1","2","18","4","3","3","9","15","3","3","6","9","18","9","2","3","15","6","2"],"larger_num":["18","8","12","20","10","8","20","18","12","20","20","24","20","12","20","8","8","18","20","4","10","16","20","10","20","20","18","8","18","18","4","8","16","20","20","8","12","16","10","12","20","8","8","4","4","20","20","20","20","4","12","20","16","24","24","24","12","8","8","4","8","20","4","4","2","12","6","20","20","10","12","20","10","20","4","18","20","8","20","10","24","8","20","20","20","4","2","8","24","4","16","10","12","12","4","4","12","20","16","20","10","2","8","20","16","6","4","12","20","12","4","12","10","20","10","8","12","20","24","8"],"correct_side":[1,1,2,2,2,1,1,2,2,2,2,1,1,2,2,2,2,1,2,1,1,2,1,1,1,1,1,1,2,1,1,2,2,2,1,1,1,2,2,2,2,1,1,1,2,1,2,2,1,1,1,2,1,1,1,1,2,1,1,1,1,1,1,1,2,2,2,1,1,1,1,1,2,1,1,2,2,1,1,2,1,1,1,1,1,2,2,1,1,2,2,1,2,1,1,2,2,2,2,1,2,2,1,2,1,2,1,2,2,2,2,1,2,2,2,2,1,1,1,1],"img_shown":["img/500/randomdotsizeEA/L/4_Ratio_500_L_18_R_9.png","img/250/equaldotsize/L/3_Ratio_250_L_8_R_2.png","img/250/randomdotsizeEA/R/9_Ratio_250_L_3_R_12.png","img/750/randomdotsizeEA/R/3_Ratio_750_L_15_R_20.png","img/900/equaldotsize/R/3_Ratio_900_L_9_R_10.png","img/250/equaldotsize/L/7_Ratio_250_L_8_R_2.png","img/900/equaldotanddens/L/8_Ratio_900_L_20_R_18.png","img/500/equaldotanddens/R/1_Ratio_500_L_9_R_18.png","img/250/equaldotsize/R/9_Ratio_250_L_3_R_12.png","img/900/equaldotsize/R/9_Ratio_900_L_18_R_20.png","img/750/equaldotsize/R/5_Ratio_750_L_15_R_20.png","img/250/equaldotanddens/L/5_Ratio_250_L_24_R_6.png","img/900/randomdotsizeEA/L/2_Ratio_900_L_20_R_18.png","img/250/equaldotsize/R/11_Ratio_250_L_3_R_12.png","img/750/equaldotanddens/R/3_Ratio_750_L_15_R_20.png","img/750/randomdotsizeEA/R/2_Ratio_750_L_6_R_8.png","img/750/equaldotanddens/R/2_Ratio_750_L_6_R_8.png","img/500/equaldotsize/L/4_Ratio_500_L_18_R_9.png","img/500/randomdotsizeEA/R/3_Ratio_500_L_10_R_20.png","img/750/randomdotsizeEA/L/8_Ratio_750_L_4_R_3.png","img/900/equaldotsize/L/1_Ratio_900_L_10_R_9.png","img/750/equaldotsize/R/11_Ratio_750_L_12_R_16.png","img/900/equaldotanddens/L/4_Ratio_900_L_20_R_18.png","img/500/randomdotsizeEA/L/7_Ratio_500_L_10_R_5.png","img/750/equaldotsize/L/1_Ratio_750_L_20_R_15.png","img/900/equaldotanddens/L/4_Ratio_900_L_20_R_18.png","img/500/equaldotsize/L/4_Ratio_500_L_18_R_9.png","img/250/equaldotanddens/L/3_Ratio_250_L_8_R_2.png","img/500/randomdotsizeEA/R/6_Ratio_500_L_9_R_18.png","img/500/randomdotsizeEA/L/4_Ratio_500_L_18_R_9.png","img/750/equaldotsize/L/10_Ratio_750_L_4_R_3.png","img/250/randomdotsizeEA/R/13_Ratio_250_L_2_R_8.png","img/250/equaldotsize/R/10_Ratio_250_L_4_R_16.png","img/900/randomdotsizeEA/R/9_Ratio_900_L_18_R_20.png","img/900/randomdotsizeEA/L/4_Ratio_900_L_20_R_18.png","img/250/randomdotsizeEA/L/3_Ratio_250_L_8_R_2.png","img/500/equaldotanddens/L/13_Ratio_500_L_12_R_6.png","img/250/equaldotanddens/R/10_Ratio_250_L_4_R_16.png","img/900/randomdotsizeEA/R/5_Ratio_900_L_9_R_10.png","img/750/randomdotsizeEA/R/15_Ratio_750_L_9_R_12.png","img/750/randomdotsizeEA/R/4_Ratio_750_L_15_R_20.png","img/750/randomdotsizeEA/L/14_Ratio_750_L_8_R_6.png","img/250/equaldotanddens/L/3_Ratio_250_L_8_R_2.png","img/500/equaldotanddens/L/10_Ratio_500_L_4_R_2.png","img/500/randomdotsizeEA/R/9_Ratio_500_L_2_R_4.png","img/900/equaldotsize/L/4_Ratio_900_L_20_R_18.png","img/750/equaldotanddens/R/3_Ratio_750_L_15_R_20.png","img/500/equaldotsize/R/3_Ratio_500_L_10_R_20.png","img/750/randomdotsizeEA/L/1_Ratio_750_L_20_R_15.png","img/500/equaldotsize/L/10_Ratio_500_L_4_R_2.png","img/500/equaldotsize/L/11_Ratio_500_L_12_R_6.png","img/900/equaldotsize/R/11_Ratio_900_L_18_R_20.png","img/250/randomdotsizeEA/L/2_Ratio_250_L_16_R_4.png","img/250/equaldotsize/L/5_Ratio_250_L_24_R_6.png","img/750/equaldotanddens/L/6_Ratio_750_L_24_R_18.png","img/750/equaldotanddens/L/6_Ratio_750_L_24_R_18.png","img/750/equaldotanddens/R/15_Ratio_750_L_9_R_12.png","img/500/equaldotsize/L/8_Ratio_500_L_8_R_4.png","img/750/equaldotanddens/L/14_Ratio_750_L_8_R_6.png","img/500/equaldotanddens/L/10_Ratio_500_L_4_R_2.png","img/250/equaldotsize/L/3_Ratio_250_L_8_R_2.png","img/750/equaldotsize/L/1_Ratio_750_L_20_R_15.png","img/750/randomdotsizeEA/L/8_Ratio_750_L_4_R_3.png","img/750/equaldotsize/L/10_Ratio_750_L_4_R_3.png","img/500/equaldotanddens/R/12_Ratio_500_L_1_R_2.png","img/250/equaldotsize/R/11_Ratio_250_L_3_R_12.png","img/500/equaldotanddens/R/2_Ratio_500_L_3_R_6.png","img/900/randomdotsizeEA/L/8_Ratio_900_L_20_R_18.png","img/900/randomdotsizeEA/L/10_Ratio_900_L_20_R_18.png","img/900/equaldotsize/L/1_Ratio_900_L_10_R_9.png","img/500/randomdotsizeEA/L/11_Ratio_500_L_12_R_6.png","img/900/randomdotsizeEA/L/10_Ratio_900_L_20_R_18.png","img/500/equaldotsize/R/14_Ratio_500_L_5_R_10.png","img/900/equaldotsize/L/10_Ratio_900_L_20_R_18.png","img/750/equaldotsize/L/9_Ratio_750_L_4_R_3.png","img/500/equaldotsize/R/1_Ratio_500_L_9_R_18.png","img/900/equaldotsize/R/13_Ratio_900_L_18_R_20.png","img/500/equaldotsize/L/8_Ratio_500_L_8_R_4.png","img/900/equaldotanddens/L/10_Ratio_900_L_20_R_18.png","img/900/equaldotanddens/R/15_Ratio_900_L_9_R_10.png","img/750/equaldotanddens/L/6_Ratio_750_L_24_R_18.png","img/250/randomdotsizeEA/L/3_Ratio_250_L_8_R_2.png","img/900/equaldotanddens/L/4_Ratio_900_L_20_R_18.png","img/900/equaldotsize/L/4_Ratio_900_L_20_R_18.png","img/900/randomdotsizeEA/L/2_Ratio_900_L_20_R_18.png","img/250/randomdotsizeEA/R/8_Ratio_250_L_1_R_4.png","img/500/equaldotanddens/R/12_Ratio_500_L_1_R_2.png","img/250/equaldotsize/L/7_Ratio_250_L_8_R_2.png","img/250/randomdotsizeEA/L/5_Ratio_250_L_24_R_6.png","img/500/randomdotsizeEA/R/9_Ratio_500_L_2_R_4.png","img/750/equaldotsize/R/11_Ratio_750_L_12_R_16.png","img/500/equaldotsize/L/7_Ratio_500_L_10_R_5.png","img/250/randomdotsizeEA/R/9_Ratio_250_L_3_R_12.png","img/500/equaldotanddens/L/11_Ratio_500_L_12_R_6.png","img/500/equaldotanddens/L/10_Ratio_500_L_4_R_2.png","img/750/randomdotsizeEA/R/7_Ratio_750_L_3_R_4.png","img/250/equaldotanddens/R/11_Ratio_250_L_3_R_12.png","img/900/equaldotanddens/R/12_Ratio_900_L_18_R_20.png","img/250/randomdotsizeEA/R/10_Ratio_250_L_4_R_16.png","img/900/equaldotanddens/L/8_Ratio_900_L_20_R_18.png","img/900/randomdotsizeEA/R/7_Ratio_900_L_9_R_10.png","img/500/equaldotanddens/R/12_Ratio_500_L_1_R_2.png","img/250/equaldotanddens/L/3_Ratio_250_L_8_R_2.png","img/900/equaldotanddens/R/14_Ratio_900_L_18_R_20.png","img/250/equaldotsize/L/2_Ratio_250_L_16_R_4.png","img/500/randomdotsizeEA/R/2_Ratio_500_L_3_R_6.png","img/750/randomdotsizeEA/L/9_Ratio_750_L_4_R_3.png","img/750/equaldotsize/R/15_Ratio_750_L_9_R_12.png","img/750/equaldotanddens/R/4_Ratio_750_L_15_R_20.png","img/250/equaldotanddens/R/4_Ratio_250_L_3_R_12.png","img/750/equaldotsize/R/12_Ratio_750_L_3_R_4.png","img/500/randomdotsizeEA/L/13_Ratio_500_L_12_R_6.png","img/900/equaldotsize/R/15_Ratio_900_L_9_R_10.png","img/900/randomdotsizeEA/R/9_Ratio_900_L_18_R_20.png","img/900/equaldotanddens/R/6_Ratio_900_L_9_R_10.png","img/250/equaldotanddens/R/13_Ratio_250_L_2_R_8.png","img/250/equaldotanddens/L/15_Ratio_250_L_12_R_3.png","img/750/equaldotanddens/L/1_Ratio_750_L_20_R_15.png","img/250/randomdotsizeEA/L/5_Ratio_250_L_24_R_6.png","img/250/equaldotanddens/L/3_Ratio_250_L_8_R_2.png"],"Rat0":[["12_Ratio_0_L_9_R_0.png","13_Ratio_0_L_6_R_0.png","5_Ratio_0_L_2_R_0.png","6_Ratio_0_L_4_R_0.png","8_Ratio_0_L_6_R_0.png"],["1_Ratio_0_L_0_R_17.png","10_Ratio_0_L_0_R_22.png","11_Ratio_0_L_0_R_1.png","14_Ratio_0_L_0_R_24.png","15_Ratio_0_L_0_R_4.png","2_Ratio_0_L_0_R_5.png","3_Ratio_0_L_0_R_17.png","4_Ratio_0_L_0_R_7.png","7_Ratio_0_L_0_R_19.png","9_Ratio_0_L_0_R_15.png"]],"Rat250":[["1_Ratio_250_L_8_R_2.png","14_Ratio_250_L_12_R_3.png","15_Ratio_250_L_12_R_3.png","2_Ratio_250_L_16_R_4.png","3_Ratio_250_L_8_R_2.png","5_Ratio_250_L_24_R_6.png","7_Ratio_250_L_8_R_2.png"],["10_Ratio_250_L_4_R_16.png","11_Ratio_250_L_3_R_12.png","12_Ratio_250_L_5_R_20.png","13_Ratio_250_L_2_R_8.png","4_Ratio_250_L_3_R_12.png","6_Ratio_250_L_6_R_24.png","8_Ratio_250_L_1_R_4.png","9_Ratio_250_L_3_R_12.png"]],"Rat500":[["10_Ratio_500_L_4_R_2.png","11_Ratio_500_L_12_R_6.png","13_Ratio_500_L_12_R_6.png","4_Ratio_500_L_18_R_9.png","5_Ratio_500_L_4_R_2.png","7_Ratio_500_L_10_R_5.png","8_Ratio_500_L_8_R_4.png"],["1_Ratio_500_L_9_R_18.png","12_Ratio_500_L_1_R_2.png","14_Ratio_500_L_5_R_10.png","15_Ratio_500_L_1_R_2.png","2_Ratio_500_L_3_R_6.png","3_Ratio_500_L_10_R_20.png","6_Ratio_500_L_9_R_18.png","9_Ratio_500_L_2_R_4.png"]],"Rat750":[["1_Ratio_750_L_20_R_15.png","10_Ratio_750_L_4_R_3.png","13_Ratio_750_L_8_R_6.png","14_Ratio_750_L_8_R_6.png","6_Ratio_750_L_24_R_18.png","8_Ratio_750_L_4_R_3.png","9_Ratio_750_L_4_R_3.png"],["11_Ratio_750_L_12_R_16.png","12_Ratio_750_L_3_R_4.png","15_Ratio_750_L_9_R_12.png","2_Ratio_750_L_6_R_8.png","3_Ratio_750_L_15_R_20.png","4_Ratio_750_L_15_R_20.png","5_Ratio_750_L_15_R_20.png","7_Ratio_750_L_3_R_4.png"]],"Rat900":[["1_Ratio_900_L_10_R_9.png","10_Ratio_900_L_20_R_18.png","2_Ratio_900_L_20_R_18.png","4_Ratio_900_L_20_R_18.png","8_Ratio_900_L_20_R_18.png"],["11_Ratio_900_L_18_R_20.png","12_Ratio_900_L_18_R_20.png","13_Ratio_900_L_18_R_20.png","14_Ratio_900_L_18_R_20.png","15_Ratio_900_L_9_R_10.png","3_Ratio_900_L_9_R_10.png","5_Ratio_900_L_9_R_10.png","6_Ratio_900_L_9_R_10.png","7_Ratio_900_L_9_R_10.png","9_Ratio_900_L_18_R_20.png"]],"Rat1000":[["10_Ratio_1000_L_16_R_16.png","11_Ratio_1000_L_6_R_6.png","12_Ratio_1000_L_14_R_14.png","13_Ratio_1000_L_20_R_20.png","15_Ratio_1000_L_15_R_15.png","2_Ratio_1000_L_17_R_17.png","4_Ratio_1000_L_9_R_9.png","5_Ratio_1000_L_6_R_6.png","6_Ratio_1000_L_19_R_19.png","8_Ratio_1000_L_14_R_14.png","9_Ratio_1000_L_25_R_25.png"],["1_Ratio_1000_L_1_R_1.png","14_Ratio_1000_L_17_R_17.png","3_Ratio_1000_L_17_R_17.png","7_Ratio_1000_L_6_R_6.png"]]}},{"start_time":1551794817523,"click_time":1551794818692,"finger_time":1551794818312,"fix_duration":891.4134556305968,"trial":1,"RT":789,"MT":380,"sideResp":1,"stimulus":"img/250/equaldotsize/L/3_Ratio_250_L_8_R_2.png","xmouse":[774,774,774,774,774,774,774,774,774,774,774,774,774,774,774,774,774,774,774,774,774,774,774,774,774,774,774,774,774,774,774,774,774,774,774,774,772,760,748,733,702,671,660,631,622,613,598,592,586,580,572,554,539,519,512,507,493,485,475],"ymouse":[525,525,525,525,525,525,525,525,525,525,525,525,525,525,525,525,525,525,525,525,525,525,525,525,525,525,525,525,525,525,525,525,525,525,525,525,518,505,493,480,454,423,410,376,357,336,305,290,276,261,242,201,178,150,137,127,109,100,91],"timestamp_mouse":[11,41,48,68,88,109,127,148,168,188,208,228,247,268,289,309,327,348,367,388,408,428,449,469,488,508,528,549,569,587,608,628,648,667,688,707,728,747,769,789,809,828,847,868,888,908,928,948,968,987,1007,1027,1048,1069,1088,1107,1128,1148,1168],"xSR":741.5,"ySR":469.95,"xT1":424.9,"yT1":0,"xT2":1058.1,"yT2":0,"toosoon":0,"cond_shown":"equaldotsize","ratio_trial":250,"smaller_num":"2","larger_num":"8","correct_side":1,"subjID":"juanandresespañolgaleano24","gender":"0","age":"11","school":"6"},{"start_time":1551794820378,"click_time":1551794821452,"finger_time":1551794821130,"fix_duration":804.1722680252188,"trial":2,"RT":752,"MT":322,"sideResp":2,"stimulus":"img/250/randomdotsizeEA/R/9_Ratio_250_L_3_R_12.png","xmouse":[762,762,762,762,762,762,762,762,762,762,762,762,762,762,762,762,762,762,762,762,762,762,762,762,762,762,762,762,762,762,762,762,762,763,772,788,808,826,862,889,939,971,998,1035,1045,1053,1061,1069,1092,1103,1107,1112,1115,1123],"ymouse":[521,521,521,521,521,521,521,521,521,521,521,521,521,521,521,521,521,521,521,521,521,521,521,521,521,521,521,521,521,521,521,521,521,520,514,500,483,465,426,385,327,294,271,240,232,222,212,203,177,156,141,126,114,93],"timestamp_mouse":[13,40,52,74,94,112,134,152,174,194,212,234,252,272,293,313,333,353,374,393,412,432,454,472,493,513,533,554,573,593,612,633,653,672,693,713,734,752,772,792,813,834,853,873,892,912,933,953,973,992,1012,1033,1054,1074],"xSR":741.5,"ySR":469.95,"xT1":424.9,"yT1":0,"xT2":1058.1,"yT2":0,"toosoon":0,"cond_shown":"randomdotsizeEA","ratio_trial":250,"smaller_num":"3","larger_num":"12","correct_side":2,"subjID":"juanandresespañolgaleano24","gender":"0","age":"11","school":"6"},{"start_time":1551794823635,"click_time":1551794825232,"finger_time":1551794824591,"fix_duration":1321.395624843882,"trial":3,"RT":956,"MT":641,"sideResp":2,"stimulus":"img/750/randomdotsizeEA/R/3_Ratio_750_L_15_R_20.png","xmouse":[791,791,791,791,791,791,791,791,791,791,791,791,791,791,791,791,790,790,790,790,790,790,790,790,790,790,790,790,790,790,790,790,790,790,790,790,790,790,790,790,790,793,795,797,799,806,811,820,827,835,858,874,888,902,912,924,928,931,933,936,946,951,960,965,970,980,988,998,1006,1011,1025,1030,1035,1038,1041,1046,1047,1052,1056,1063],"ymouse":[510,510,510,510,510,510,510,510,510,510,510,510,510,510,510,510,510,510,510,510,510,510,510,510,510,510,510,510,510,510,510,510,510,509,508,507,507,507,507,507,507,505,504,502,498,483,471,455,441,428,396,374,356,335,316,287,275,264,258,253,239,232,219,210,205,192,185,176,169,165,153,148,141,135,130,121,118,110,104,95],"timestamp_mouse":[31,36,57,75,96,117,137,155,176,197,217,236,257,276,296,316,336,355,375,396,416,436,456,475,496,515,536,556,575,597,616,637,655,676,696,716,736,757,776,797,815,837,856,876,895,916,936,956,975,996,1016,1036,1057,1076,1096,1115,1136,1156,1176,1196,1216,1237,1255,1275,1297,1316,1336,1355,1376,1396,1417,1437,1456,1476,1496,1516,1537,1557,1576,1597],"xSR":741.5,"ySR":469.95,"xT1":424.9,"yT1":0,"xT2":1058.1,"yT2":0,"toosoon":0,"cond_shown":"randomdotsizeEA","ratio_trial":750,"smaller_num":"15","larger_num":"20","correct_side":2,"subjID":"juanandresespañolgaleano24","gender":"0","age":"11","school":"6"},{"start_time":1551794826522,"click_time":1551794828291,"finger_time":1551794827351,"fix_duration":250,"trial":4,"RT":829,"MT":940,"sideResp":2,"stimulus":"img/900/equaldotsize/R/3_Ratio_900_L_9_R_10.png","xmouse":[762,762,762,762,762,762,762,762,762,762,762,762,762,762,762,762,762,762,762,762,762,762,762,762,762,762,762,762,762,762,762,760,760,759,759,759,759,759,761,763,768,795,815,842,860,878,883,890,896,903,913,932,940,950,957,961,978,984,990,997,1003,1014,1024,1033,1039,1042,1043,1044,1044,1044,1044,1044,1044,1044,1044,1045,1045,1045,1045,1046,1048,1050,1052,1054,1055,1056,1056,1058,1060],"ymouse":[516,516,516,516,516,516,516,516,516,516,516,516,516,516,516,516,516,516,516,516,516,516,516,516,516,516,516,516,516,516,515,514,513,511,511,508,504,499,493,485,474,431,397,343,313,283,273,263,253,241,227,197,185,170,161,156,136,128,121,113,106,90,80,70,60,57,55,54,54,54,54,54,54,54,54,54,54,54,54,54,54,54,54,54,54,54,54,54,56],"timestamp_mouse":[8,37,50,68,89,110,129,150,169,189,209,228,248,270,288,308,329,349,368,389,410,429,450,470,488,509,529,549,568,590,608,629,649,669,690,709,728,748,769,788,808,829,849,869,890,910,929,950,969,988,1009,1029,1050,1069,1088,1108,1128,1149,1168,1188,1209,1229,1250,1269,1290,1309,1329,1348,1370,1390,1408,1428,1450,1469,1489,1510,1529,1550,1569,1588,1609,1629,1650,1669,1688,1710,1729,1749,1768],"xSR":741.5,"ySR":469.95,"xT1":424.9,"yT1":0,"xT2":1058.1,"yT2":0,"toosoon":0,"cond_shown":"equaldotsize","ratio_trial":900,"smaller_num":"9","larger_num":"10","correct_side":2,"subjID":"juanandresespañolgaleano24","gender":"0","age":"11","school":"6"},{"start_time":1551794829650,"click_time":1551794830910,"finger_time":1551794830571,"fix_duration":437.47484880452913,"trial":5,"RT":921,"MT":339,"sideResp":1,"stimulus":"img/250/equaldotsize/L/7_Ratio_250_L_8_R_2.png","xmouse":[792,792,792,792,792,792,792,792,792,792,792,792,792,792,792,792,792,792,792,792,792,792,792,792,792,792,792,792,792,792,792,792,792,792,792,792,792,792,792,792,792,790,789,787,786,780,758,725,664,607,566,548,534,520,506,447,439,430,424,422,422,422,424,428],"ymouse":[511,511,511,511,511,511,511,511,511,511,511,511,511,511,511,511,511,511,511,511,511,511,511,511,511,511,511,511,511,511,511,511,511,511,511,511,511,511,511,511,511,511,510,508,505,489,457,415,357,319,294,284,275,262,248,163,148,125,102,89,83,77,69,61],"timestamp_mouse":[3,22,41,61,81,102,120,141,160,182,201,221,242,261,280,302,321,340,361,382,401,422,440,461,481,500,521,542,561,581,600,621,641,661,682,700,721,740,761,780,801,821,841,861,882,901,921,940,961,980,1000,1021,1042,1060,1080,1101,1121,1141,1162,1182,1201,1221,1241,1260],"xSR":741.5,"ySR":469.95,"xT1":424.9,"yT1":0,"xT2":1058.1,"yT2":0,"toosoon":0,"cond_shown":"equaldotsize","ratio_trial":250,"smaller_num":"2","larger_num":"8","correct_side":1,"subjID":"juanandresespañolgaleano24","gender":"0","age":"11","school":"6"},{"start_time":1551794833261,"click_time":1551794837951,"finger_time":1551794834031,"fix_duration":1248.0135429672378,"trial":6,"RT":770,"MT":3920,"sideResp":2,"stimulus":"img/900/equaldotanddens/L/8_Ratio_900_L_20_R_18.png","xmouse":[805,805,805,805,805,805,805,805,805,805,805,805,805,804,804,804,804,804,804,804,804,804,804,804,804,804,804,804,804,804,804,804,804,803,800,799,799,799,799,801,803,805,808,810,819,819,801,777,772,772,772,772,772,772,772,772,772,772,772,772,772,772,772,772,772,772,580,577,576,576,576,576,576,576,576,577,579,580,581,581,581,581,583,583,594,597,597,597,598,599,600,601,602,602,602,602,602,602,602,602,602,602,602,602,602,602,606,615,617,617,617,617,617,617,617,617,617,617,617,617,617,617,617,617,617,617,617,617,617,617,617,617,617,617,617,617,617,617,617,617,617,617,617,617,617,617,617,617,617,617,617,617,617,617,617,617,631,686,764,835,818,545,208,91,584,1225,1225,1225,1225,826,214,0,2,353,353,353,353,320,0,13,382,667,667,667,1308,911,617,616,1189,1483,1483,1519,899,258,0,45,750,1393,1393,1415,841,196,0,13,1012,1012,1012,1012,1012,0,167,676,1321,1321,1181,219,0,0,242,1277,1531,1546,1532,1507,1458,1355,1266,1192,1153,1125,1108,1086,1076,1083,1150],"ymouse":[515,515,515,515,515,515,515,515,515,515,515,515,514,513,512,512,512,512,512,512,512,512,512,512,512,512,512,512,512,512,512,512,509,503,492,486,481,475,469,449,436,424,405,382,221,150,80,21,7,7,7,7,7,7,7,7,7,7,7,7,7,7,7,7,7,7,4,6,6,6,6,6,6,7,19,26,29,31,32,32,32,32,34,34,53,58,59,59,59,59,59,59,59,59,59,59,59,59,59,59,59,59,59,59,59,59,60,71,73,73,73,73,73,73,73,73,73,73,73,73,73,73,73,73,73,73,73,73,73,73,73,73,73,73,73,73,73,73,73,73,73,73,73,73,73,73,73,73,73,73,73,73,73,73,73,73,74,78,88,116,125,167,155,100,96,96,96,96,96,262,225,147,125,23,23,23,23,185,216,190,88,22,22,22,155,358,515,526,472,450,450,547,676,714,533,480,224,125,125,243,376,511,612,640,693,693,693,693,693,705,652,500,340,340,316,352,361,377,391,455,535,551,566,577,569,499,437,387,356,328,304,267,219,170,79],"timestamp_mouse":[10,39,49,71,91,110,130,151,169,190,211,231,251,269,290,310,330,351,370,391,410,429,451,471,491,511,529,550,570,589,610,631,649,671,690,710,729,749,770,790,809,830,850,871,889,910,930,951,970,990,1010,1030,1051,1070,1091,1110,1130,1151,1170,1190,1209,1229,1250,1270,1290,1311,1331,1350,1371,1390,1410,1430,1450,1471,1490,1510,1530,1549,1569,1591,1609,1630,1651,1670,1691,1711,1729,1749,1771,1790,1810,1831,1850,1871,1891,1910,1929,1949,1971,1991,2011,2029,2050,2070,2090,2111,2131,2151,2170,2189,2210,2231,2250,2271,2289,2309,2331,2351,2370,2390,2410,2430,2451,2471,2489,2511,2530,2550,2570,2590,2609,2629,2650,2671,2690,2710,2730,2750,2769,2790,2810,2830,2851,2869,2890,2911,2931,2950,2971,2990,3010,3031,3049,3071,3090,3110,3129,3149,3169,3190,3211,3231,3249,3271,3290,3310,3331,3349,3370,3390,3411,3430,3451,3469,3489,3509,3529,3551,3570,3591,3610,3630,3651,3670,3691,3711,3730,3749,3769,3789,3810,3831,3850,3870,3890,3910,3931,3951,3971,3990,4010,4030,4050,4070,4090,4110,4131,4150,4169,4189,4210,4231,4250,4270,4289,4310,4330,4349,4371,4390,4410,4430,4449,4471,4491,4511,4530,4550,4569,4589,4610,4629,4649,4671,4690],"xSR":741.5,"ySR":469.95,"xT1":424.9,"yT1":0,"xT2":1058.1,"yT2":0,"toosoon":0,"cond_shown":"equaldotanddens","ratio_trial":900,"smaller_num":"18","larger_num":"20","correct_side":1,"subjID":"juanandresespañolgaleano24","gender":"0","age":"11","school":"6"},{"start_time":1551794842926,"click_time":1551794844070,"finger_time":1551794843812,"fix_duration":953.0793032550611,"trial":7,"RT":886,"MT":258,"sideResp":2,"stimulus":"img/500/equaldotanddens/R/1_Ratio_500_L_9_R_18.png","xmouse":[783,783,783,783,783,783,783,783,783,783,783,783,783,783,783,783,783,783,783,783,783,783,783,783,783,783,783,783,783,783,783,783,783,783,783,783,783,783,783,783,783,783,788,811,846,891,965,991,1005,1018,1034,1058,1065,1077,1084,1091,1096,1096],"ymouse":[521,521,521,521,521,521,521,521,521,521,521,521,521,521,521,521,521,521,521,521,521,521,521,521,521,521,521,521,521,521,521,521,521,521,521,521,521,521,521,521,521,521,519,504,478,441,373,339,313,291,271,234,218,192,173,152,112,93],"timestamp_mouse":[9,39,46,65,85,106,125,146,166,185,205,226,245,264,285,305,325,344,365,384,405,425,445,465,485,504,525,545,565,584,605,625,646,666,684,704,726,745,764,786,805,826,846,864,886,905,925,945,964,985,1006,1025,1044,1064,1085,1105,1125,1144],"xSR":741.5,"ySR":469.95,"xT1":424.9,"yT1":0,"xT2":1058.1,"yT2":0,"toosoon":0,"cond_shown":"equaldotanddens","ratio_trial":500,"smaller_num":"9","larger_num":"18","correct_side":2,"subjID":"juanandresespañolgaleano24","gender":"0","age":"11","school":"6"},{"start_time":1551794846314,"click_time":1551794847452,"finger_time":1551794846931,"fix_duration":1481.7033889478844,"trial":8,"RT":617,"MT":521,"sideResp":2,"stimulus":"img/250/equaldotsize/R/9_Ratio_250_L_3_R_12.png","xmouse":[776,776,776,776,776,776,776,776,776,776,776,776,776,776,776,776,776,776,776,776,776,776,776,776,776,776,776,776,801,813,834,858,878,892,914,938,966,969,974,984,991,1020,1029,1040,1040,1040,1036,1035,1035,1035,1035,1035,1035,1035,1035,1035,1069],"ymouse":[506,506,506,506,506,506,506,506,506,506,506,506,506,506,506,506,506,506,506,506,506,506,506,506,506,506,506,506,489,479,455,415,382,367,351,336,323,321,318,310,303,249,229,156,115,74,18,6,6,6,6,6,6,6,6,6,25],"timestamp_mouse":[17,38,58,78,97,116,138,157,178,197,217,236,257,277,297,317,338,358,378,398,416,438,457,476,497,517,537,557,577,597,617,637,656,677,697,717,737,758,776,796,817,836,856,877,897,916,936,957,977,996,1017,1038,1058,1078,1097,1117,1138],"xSR":741.5,"ySR":469.95,"xT1":424.9,"yT1":0,"xT2":1058.1,"yT2":0,"toosoon":0,"cond_shown":"equaldotsize","ratio_trial":250,"smaller_num":"3","larger_num":"12","correct_side":2,"subjID":"juanandresespañolgaleano24","gender":"0","age":"11","school":"6"},{"start_time":1551794849443,"click_time":1551794850592,"finger_time":1551794850250,"fix_duration":1171.1530566619765,"trial":9,"RT":807,"MT":342,"sideResp":2,"stimulus":"img/900/equaldotsize/R/9_Ratio_900_L_18_R_20.png","xmouse":[776,776,776,776,776,776,776,776,776,776,776,776,776,776,776,776,776,776,776,776,776,776,776,776,776,776,776,776,776,776,776,776,775,773,773,772,771,770,770,770,769,769,774,788,816,886,912,935,944,953,973,980,987,993,999,1024,1057,1081],"ymouse":[551,551,551,551,551,551,551,551,551,551,551,551,551,551,551,551,551,551,551,551,551,551,551,551,551,551,551,551,551,551,550,540,533,528,523,515,508,504,497,486,459,442,419,387,341,253,217,185,170,156,133,126,120,116,112,104,99,95],"timestamp_mouse":[10,38,48,69,87,107,129,148,167,189,208,229,249,268,288,308,328,348,367,389,408,429,448,468,489,508,528,549,568,587,608,628,648,667,689,708,727,748,768,787,807,828,848,868,887,907,929,948,969,988,1008,1029,1047,1067,1088,1108,1128,1149],"xSR":741.5,"ySR":469.95,"xT1":424.9,"yT1":0,"xT2":1058.1,"yT2":0,"toosoon":0,"cond_shown":"equaldotsize","ratio_trial":900,"smaller_num":"18","larger_num":"20","correct_side":2,"subjID":"juanandresespañolgaleano24","gender":"0","age":"11","school":"6"},{"start_time":1551794852588,"click_time":1551794853751,"finger_time":1551794853251,"fix_duration":815.5196943655435,"trial":10,"RT":663,"MT":500,"sideResp":2,"stimulus":"img/750/equaldotsize/R/5_Ratio_750_L_15_R_20.png","xmouse":[761,761,761,761,761,761,761,761,761,761,761,761,761,761,761,759,759,759,759,759,759,759,759,759,759,759,759,759,759,759,759,759,764,785,795,805,816,824,835,838,845,848,852,865,876,892,912,935,979,997,1016,1026,1036,1062,1075,1083,1091,1099,1109],"ymouse":[508,508,508,508,508,508,508,508,508,508,508,508,508,508,508,506,506,506,506,506,506,506,506,506,506,506,506,506,506,505,502,497,487,458,444,427,407,387,351,341,326,320,311,286,270,254,238,223,197,188,177,173,168,154,145,136,126,114,95],"timestamp_mouse":[8,23,42,63,83,102,124,142,163,183,203,223,242,264,283,302,322,344,363,383,403,422,443,463,482,503,523,543,562,584,602,623,642,662,684,702,723,743,763,782,803,823,842,863,882,903,923,944,964,983,1003,1023,1043,1063,1083,1102,1122,1144,1163],"xSR":741.5,"ySR":469.95,"xT1":424.9,"yT1":0,"xT2":1058.1,"yT2":0,"toosoon":0,"cond_shown":"equaldotsize","ratio_trial":750,"smaller_num":"15","larger_num":"20","correct_side":2,"subjID":"juanandresespañolgaleano24","gender":"0","age":"11","school":"6"},{"start_time":1551794854765,"click_time":1551794855652,"finger_time":1551794855351,"fix_duration":250,"trial":11,"RT":586,"MT":301,"sideResp":1,"stimulus":"img/250/equaldotanddens/L/5_Ratio_250_L_24_R_6.png","xmouse":[770,770,770,770,770,770,770,770,770,770,770,770,770,770,773,778,780,780,780,780,780,780,780,780,780,780,781,779,768,721,685,657,630,604,575,569,563,558,558,558,558,558,558,528,500],"ymouse":[513,513,513,513,514,514,514,514,514,514,514,514,514,514,514,514,513,513,513,513,513,513,513,513,513,513,512,504,477,342,232,167,117,74,28,18,10,1,1,1,1,1,1,9,54],"timestamp_mouse":[6,33,46,66,85,106,127,146,166,186,206,226,246,266,285,306,326,346,366,386,406,427,446,466,487,507,526,547,566,586,605,626,647,666,686,705,725,745,767,786,807,826,845,865,886],"xSR":741.5,"ySR":469.95,"xT1":424.9,"yT1":0,"xT2":1058.1,"yT2":0,"toosoon":0,"cond_shown":"equaldotanddens","ratio_trial":250,"smaller_num":"6","larger_num":"24","correct_side":1,"subjID":"juanandresespañolgaleano24","gender":"0","age":"11","school":"6"},{"start_time":1551794857166,"click_time":1551794858191,"finger_time":1551794857951,"fix_duration":713.3942542349463,"trial":12,"RT":785,"MT":240,"sideResp":2,"stimulus":"img/900/randomdotsizeEA/L/2_Ratio_900_L_20_R_18.png","xmouse":[772,772,772,772,772,772,772,772,772,772,772,772,772,772,772,772,772,772,772,772,772,772,772,772,772,772,772,772,772,772,772,772,772,772,772,775,779,786,792,812,843,868,896,928,974,987,998,1005,1010,1033,1047,1075],"ymouse":[504,503,503,503,503,503,503,503,503,503,503,503,503,503,503,503,503,503,503,503,503,503,503,503,503,503,503,503,503,503,503,503,503,503,502,497,492,485,477,446,394,337,273,207,116,99,84,77,73,66,60,40],"timestamp_mouse":[5,26,50,66,85,104,125,146,165,186,205,226,246,265,286,305,325,344,366,385,406,424,446,466,486,506,525,544,565,585,605,626,646,666,686,705,724,744,765,785,805,824,845,865,884,905,925,945,964,986,1005,1025],"xSR":741.5,"ySR":469.95,"xT1":424.9,"yT1":0,"xT2":1058.1,"yT2":0,"toosoon":0,"cond_shown":"randomdotsizeEA","ratio_trial":900,"smaller_num":"18","larger_num":"20","correct_side":1,"subjID":"juanandresespañolgaleano24","gender":"0","age":"11","school":"6"},{"start_time":1551794859540,"click_time":1551794860591,"finger_time":1551794860492,"fix_duration":487.4265880977874,"trial":13,"RT":952,"MT":99,"sideResp":2,"stimulus":"img/250/equaldotsize/R/11_Ratio_250_L_3_R_12.png","xmouse":[780,780,780,780,780,780,780,780,780,780,780,780,780,780,780,780,780,780,780,780,780,780,780,780,780,780,780,780,780,780,780,780,780,780,780,780,780,780,780,780,780,780,780,780,780,780,794,811,859,915,1052,1076,1144],"ymouse":[506,506,506,506,506,506,506,506,506,506,506,506,506,506,506,506,506,506,506,506,506,506,506,506,506,506,506,506,506,506,506,506,506,506,506,506,506,506,506,506,506,506,506,506,506,506,492,467,409,346,194,168,74],"timestamp_mouse":[11,40,51,71,90,111,130,151,172,192,212,232,251,270,292,311,332,350,371,392,410,431,452,470,492,511,530,552,571,590,612,631,651,672,692,712,732,752,771,791,811,832,850,870,892,911,931,952,971,991,1011,1030,1051],"xSR":741.5,"ySR":469.95,"xT1":424.9,"yT1":0,"xT2":1058.1,"yT2":0,"toosoon":0,"cond_shown":"equaldotsize","ratio_trial":250,"smaller_num":"3","larger_num":"12","correct_side":2,"subjID":"juanandresespañolgaleano24","gender":"0","age":"11","school":"6"},{"start_time":1551794862693,"click_time":1551794863631,"finger_time":1551794863271,"fix_duration":1140.7776309881647,"trial":14,"RT":578,"MT":360,"sideResp":2,"stimulus":"img/750/equaldotanddens/R/3_Ratio_750_L_15_R_20.png","xmouse":[802,802,802,802,802,802,802,802,802,802,802,802,802,802,802,802,802,802,802,802,802,802,802,802,801,798,795,792,792,797,815,841,888,908,928,942,976,996,1013,1027,1040,1047,1056,1060,1063,1069,1076],"ymouse":[502,502,502,502,502,502,502,502,502,502,502,502,502,502,502,502,502,502,502,502,502,502,502,502,502,496,491,472,461,444,415,383,329,306,281,262,221,202,186,171,155,145,129,123,119,109,98],"timestamp_mouse":[18,40,58,78,98,119,138,158,178,198,218,237,258,278,299,318,339,358,377,399,418,437,458,478,498,517,537,559,578,597,617,638,658,679,698,718,739,757,778,797,817,839,858,878,898,918,937],"xSR":741.5,"ySR":469.95,"xT1":424.9,"yT1":0,"xT2":1058.1,"yT2":0,"toosoon":0,"cond_shown":"equaldotanddens","ratio_trial":750,"smaller_num":"15","larger_num":"20","correct_side":2,"subjID":"juanandresespañolgaleano24","gender":"0","age":"11","school":"6"},{"start_time":1551794864938,"click_time":1551794866051,"finger_time":1551794865671,"fix_duration":445.7866904840472,"trial":15,"RT":733,"MT":380,"sideResp":2,"stimulus":"img/750/randomdotsizeEA/R/2_Ratio_750_L_6_R_8.png","xmouse":[798,798,797,797,797,797,797,797,797,797,797,797,797,797,797,797,797,797,797,797,797,797,797,797,797,797,797,797,797,797,797,797,797,797,797,799,811,828,851,875,907,923,942,954,968,998,1018,1037,1056,1075,1104,1113,1125,1128,1129,1120],"ymouse":[494,494,494,494,494,494,494,494,494,494,494,494,494,494,494,494,494,494,494,494,494,494,494,494,494,494,494,494,494,494,494,494,494,494,494,482,462,439,408,372,327,306,286,276,269,255,250,239,225,209,178,164,142,127,109,70],"timestamp_mouse":[12,34,54,73,93,114,132,152,173,193,213,233,254,272,292,312,333,353,374,393,412,434,453,473,494,513,533,553,573,594,614,634,654,673,694,713,733,753,772,792,813,833,853,873,893,913,933,953,973,992,1013,1033,1053,1074,1093,1113],"xSR":741.5,"ySR":469.95,"xT1":424.9,"yT1":0,"xT2":1058.1,"yT2":0,"toosoon":0,"cond_shown":"randomdotsizeEA","ratio_trial":750,"smaller_num":"6","larger_num":"8","correct_side":2,"subjID":"juanandresespañolgaleano24","gender":"0","age":"11","school":"6"},{"start_time":1551794868416,"click_time":1551794869831,"finger_time":1551794869051,"fix_duration":1365.8459911215232,"trial":16,"RT":635,"MT":780,"sideResp":2,"stimulus":"img/750/equaldotanddens/R/2_Ratio_750_L_6_R_8.png","xmouse":[789,789,789,789,789,789,789,789,789,789,789,789,789,789,789,789,789,789,789,789,789,789,789,789,789,789,789,789,789,789,792,804,815,827,845,859,899,917,936,944,953,966,970,975,979,982,986,993,1007,1032,1061,1124,1144,1157,1164,1171,1183,1188,1190,1190,1188,1188,1188,1187,1186,1184,1180,1178,1174,1164,1150],"ymouse":[484,484,484,484,484,484,484,484,484,484,484,484,484,484,484,484,484,484,484,484,484,484,484,484,484,484,484,484,484,484,478,460,445,430,414,401,358,334,292,270,251,220,204,192,184,179,174,172,170,164,157,130,115,107,101,97,91,84,78,68,64,64,64,64,64,63,62,62,62,62,64],"timestamp_mouse":[16,36,55,75,95,115,135,155,175,195,215,235,254,274,294,315,336,355,376,396,415,435,456,475,495,515,535,556,576,595,615,635,655,675,695,715,735,755,774,796,815,835,855,875,894,915,935,955,974,995,1015,1035,1054,1074,1095,1115,1135,1154,1175,1195,1215,1236,1255,1275,1295,1315,1336,1356,1375,1395,1415],"xSR":741.5,"ySR":469.95,"xT1":424.9,"yT1":0,"xT2":1058.1,"yT2":0,"toosoon":0,"cond_shown":"equaldotanddens","ratio_trial":750,"smaller_num":"6","larger_num":"8","correct_side":2,"subjID":"juanandresespañolgaleano24","gender":"0","age":"11","school":"6"},{"start_time":1551794870971,"click_time":1551794871873,"finger_time":1551794871735,"fix_duration":519.2686898410719,"trial":17,"RT":764,"MT":138,"sideResp":1,"stimulus":"img/500/equaldotsize/L/4_Ratio_500_L_18_R_9.png","xmouse":[758,758,758,758,758,758,758,758,758,758,758,758,758,758,758,758,758,758,758,758,758,758,758,758,758,758,758,758,758,758,758,758,758,758,758,758,757,755,752,735,719,689,656,615,523,494],"ymouse":[512,512,512,512,512,512,512,512,512,512,512,512,512,512,512,512,512,512,512,512,512,512,513,513,513,513,513,513,513,513,513,513,513,513,513,507,493,479,459,390,345,281,237,191,111,76],"timestamp_mouse":[8,30,40,60,80,99,121,141,161,180,199,220,239,264,282,302,323,342,363,383,402,422,443,462,482,502,523,544,562,582,602,624,642,664,683,702,724,742,764,783,804,822,843,862,883,902],"xSR":741.5,"ySR":469.95,"xT1":424.9,"yT1":0,"xT2":1058.1,"yT2":0,"toosoon":0,"cond_shown":"equaldotsize","ratio_trial":500,"smaller_num":"9","larger_num":"18","correct_side":1,"subjID":"juanandresespañolgaleano24","gender":"0","age":"11","school":"6"},{"start_time":1551794873956,"click_time":1551794875353,"finger_time":1551794874653,"fix_duration":981.937245045683,"trial":18,"RT":697,"MT":700,"sideResp":2,"stimulus":"img/500/randomdotsizeEA/R/3_Ratio_500_L_10_R_20.png","xmouse":[784,781,781,781,781,781,781,781,781,781,781,781,781,781,781,781,781,781,781,781,781,781,781,781,781,781,781,781,781,781,781,782,796,820,847,851,855,859,862,868,876,881,889,897,917,927,938,951,982,1002,1027,1064,1077,1088,1100,1105,1107,1108,1110,1111,1112,1112,1112,1110,1110,1109,1109,1109,1109,1108],"ymouse":[521,520,520,520,520,520,520,520,520,520,520,520,520,520,520,520,520,520,520,520,520,520,520,520,520,520,520,520,520,520,519,514,504,487,450,429,408,393,383,358,331,312,293,274,249,237,228,217,197,185,173,157,151,145,137,131,126,124,121,116,114,111,108,105,103,102,100,100,100,99],"timestamp_mouse":[21,38,62,79,98,118,137,158,179,198,218,238,259,277,298,319,337,359,379,398,418,437,458,477,497,518,538,558,577,597,618,637,658,677,697,719,738,757,778,798,818,837,857,877,897,917,937,958,979,997,1018,1037,1058,1079,1097,1118,1137,1157,1178,1197,1218,1237,1257,1278,1298,1318,1337,1357,1379,1397],"xSR":741.5,"ySR":469.95,"xT1":424.9,"yT1":0,"xT2":1058.1,"yT2":0,"toosoon":0,"cond_shown":"randomdotsizeEA","ratio_trial":500,"smaller_num":"10","larger_num":"20","correct_side":2,"subjID":"juanandresespañolgaleano24","gender":"0","age":"11","school":"6"},{"start_time":1551794877175,"click_time":1551794879794,"finger_time":1551794877974,"fix_duration":941.2195754649426,"trial":19,"RT":799,"MT":1820,"sideResp":1,"stimulus":"img/750/randomdotsizeEA/L/8_Ratio_750_L_4_R_3.png","xmouse":[764,764,764,764,764,764,764,764,764,764,764,764,764,764,764,764,764,764,764,764,764,764,764,764,764,764,764,764,764,764,764,764,764,764,764,764,765,767,772,775,780,786,792,794,797,799,801,803,810,813,820,826,838,863,879,894,909,933,948,965,993,1012,1041,1055,1063,1069,1073,1075,1080,1081,1083,1084,1085,1085,1085,1085,1085,1085,1085,1085,1085,1085,1085,1085,1085,1085,1085,1085,1085,1085,1085,1085,1085,1085,1082,1077,1069,1059,1030,1010,978,957,943,926,919,908,895,882,854,840,822,811,798,763,734,685,627,557,539,539,539,539,539,539,539,539,538,538,534,527,524],"ymouse":[517,517,517,517,517,517,517,517,517,517,517,517,517,517,517,517,517,517,517,517,517,517,517,517,517,517,516,514,512,510,505,500,495,488,485,483,480,478,471,467,456,448,436,431,427,422,417,412,402,399,390,383,370,350,338,328,318,300,288,272,243,224,194,179,169,161,154,149,133,130,120,114,108,107,107,106,106,105,105,105,105,105,105,105,105,105,105,105,105,105,105,105,105,104,104,107,109,113,116,118,119,118,116,110,108,103,97,91,83,81,75,74,73,72,72,72,69,64,64,64,64,64,64,64,64,64,64,64,66,68,69],"timestamp_mouse":[20,40,59,80,99,120,138,159,179,200,219,239,258,280,299,320,339,359,380,399,419,440,460,478,499,518,538,560,579,598,619,639,658,678,699,719,738,758,778,799,818,839,860,878,898,918,938,959,979,999,1019,1039,1058,1078,1098,1118,1138,1160,1178,1199,1218,1240,1260,1278,1299,1318,1340,1358,1378,1398,1419,1439,1460,1478,1498,1518,1539,1560,1578,1598,1620,1640,1658,1678,1699,1718,1739,1759,1779,1798,1818,1839,1858,1878,1899,1918,1938,1959,1979,1998,2019,2039,2059,2079,2098,2118,2138,2160,2179,2199,2218,2239,2259,2279,2299,2318,2338,2358,2378,2399,2420,2438,2459,2479,2499,2518,2538,2558,2578,2599,2619],"xSR":741.5,"ySR":469.95,"xT1":424.9,"yT1":0,"xT2":1058.1,"yT2":0,"toosoon":0,"cond_shown":"randomdotsizeEA","ratio_trial":750,"smaller_num":"3","larger_num":"4","correct_side":1,"subjID":"juanandresespañolgaleano24","gender":"0","age":"11","school":"6"},{"start_time":1551794881096,"click_time":1551794882214,"finger_time":1551794881893,"fix_duration":260.7130710637773,"trial":20,"RT":797,"MT":321,"sideResp":1,"stimulus":"img/900/equaldotsize/L/1_Ratio_900_L_10_R_9.png","xmouse":[770,770,770,770,770,770,770,770,770,770,770,770,770,770,770,770,770,770,770,770,770,770,770,770,770,770,770,770,770,770,770,770,770,770,772,777,784,798,807,819,829,839,859,872,878,882,884,882,870,855,832,792,686,585,525,482],"ymouse":[524,524,524,524,524,524,524,524,524,524,524,524,524,524,524,524,524,524,524,524,524,524,524,524,524,524,524,524,524,524,524,524,524,524,523,515,505,484,473,459,446,433,403,379,366,352,337,307,289,273,255,231,169,116,84,67],"timestamp_mouse":[17,39,57,78,99,117,137,157,178,197,217,238,258,278,298,318,338,357,377,398,418,438,457,477,499,517,539,559,578,597,619,637,658,678,697,717,737,757,777,797,817,839,858,878,897,918,938,958,985,997,1017,1037,1058,1079,1099,1118],"xSR":741.5,"ySR":469.95,"xT1":424.9,"yT1":0,"xT2":1058.1,"yT2":0,"toosoon":0,"cond_shown":"equaldotsize","ratio_trial":900,"smaller_num":"9","larger_num":"10","correct_side":1,"subjID":"juanandresespañolgaleano24","gender":"0","age":"11","school":"6"},{"start_time":1551794883448,"click_time":1551794884433,"finger_time":1551794884154,"fix_duration":251.43217729036581,"trial":21,"RT":706,"MT":279,"sideResp":2,"stimulus":"img/750/equaldotsize/R/11_Ratio_750_L_12_R_16.png","xmouse":[760,760,760,760,760,759,759,759,759,759,759,759,759,759,759,759,759,759,759,759,759,759,759,759,759,759,759,759,759,760,769,778,789,800,817,827,838,860,882,905,953,975,998,1014,1044,1057,1069,1081,1085,1090],"ymouse":[524,524,524,523,523,523,523,523,523,523,523,523,523,523,523,523,523,523,523,523,523,523,523,523,523,523,523,523,523,521,514,506,498,489,472,459,443,412,384,351,288,260,233,216,186,171,154,126,110,95],"timestamp_mouse":[8,37,46,66,86,105,126,145,166,186,206,225,247,267,286,306,326,345,366,386,405,426,445,467,485,505,526,545,565,586,607,625,645,666,687,706,725,745,766,786,806,826,845,866,887,905,926,945,966,985],"xSR":741.5,"ySR":469.95,"xT1":424.9,"yT1":0,"xT2":1058.1,"yT2":0,"toosoon":0,"cond_shown":"equaldotsize","ratio_trial":750,"smaller_num":"12","larger_num":"16","correct_side":2,"subjID":"juanandresespañolgaleano24","gender":"0","age":"11","school":"6"},{"start_time":1551794886142,"click_time":1551794887394,"finger_time":1551794886793,"fix_duration":707.9860880588169,"trial":22,"RT":651,"MT":601,"sideResp":2,"stimulus":"img/900/equaldotanddens/L/4_Ratio_900_L_20_R_18.png","xmouse":[768,768,768,768,768,768,768,768,768,768,768,768,768,768,768,768,768,768,768,768,768,768,768,768,768,768,768,768,768,768,771,786,796,806,812,825,831,837,845,854,868,876,887,896,905,919,925,929,932,935,948,953,967,979,992,1016,1027,1035,1042,1049,1064,1079,1087],"ymouse":[507,507,507,507,507,507,507,507,507,507,507,507,507,507,507,507,507,507,507,507,507,507,507,507,507,507,507,507,507,506,501,481,465,449,434,400,382,364,348,328,293,277,255,243,233,217,210,205,202,199,189,185,176,168,159,147,140,133,128,122,111,103,99],"timestamp_mouse":[11,43,51,73,91,111,132,153,172,192,213,233,252,271,291,312,332,351,371,392,411,432,452,471,491,512,532,552,572,591,611,632,651,672,691,711,731,752,773,792,811,832,851,871,891,911,931,951,971,991,1011,1033,1052,1071,1091,1112,1132,1151,1171,1192,1212,1232,1252],"xSR":741.5,"ySR":469.95,"xT1":424.9,"yT1":0,"xT2":1058.1,"yT2":0,"toosoon":0,"cond_shown":"equaldotanddens","ratio_trial":900,"smaller_num":"18","larger_num":"20","correct_side":1,"subjID":"juanandresespañolgaleano24","gender":"0","age":"11","school":"6"},{"start_time":1551794893752,"click_time":1551794894993,"finger_time":1551794894513,"fix_duration":1196.4172576087722,"trial":23,"RT":761,"MT":480,"sideResp":1,"stimulus":"img/500/randomdotsizeEA/L/7_Ratio_500_L_10_R_5.png","xmouse":[771,772,772,772,772,772,772,772,772,772,772,772,772,772,772,772,772,772,772,772,772,772,772,772,772,772,772,772,772,772,772,772,772,773,774,779,781,784,789,793,795,796,796,796,803,822,841,861,878,885,867,832,812,797,779,734,694,645,603,576,549,529,511],"ymouse":[509,508,507,506,503,499,498,498,498,498,498,498,498,498,498,498,498,498,498,498,498,498,498,498,498,498,498,498,498,498,498,498,498,498,497,491,487,481,468,455,438,429,412,396,373,324,297,268,238,217,171,150,141,136,132,123,116,111,104,100,98,98,98],"timestamp_mouse":[9,23,42,61,81,103,121,141,162,181,202,221,241,262,283,301,323,342,362,382,402,421,442,463,482,502,522,543,561,582,603,621,642,662,681,701,722,742,761,781,801,821,841,863,883,902,922,942,961,981,1002,1022,1042,1061,1082,1102,1122,1141,1161,1182,1202,1221,1241],"xSR":741.5,"ySR":469.95,"xT1":424.9,"yT1":0,"xT2":1058.1,"yT2":0,"toosoon":0,"cond_shown":"randomdotsizeEA","ratio_trial":500,"smaller_num":"5","larger_num":"10","correct_side":1,"subjID":"juanandresespañolgaleano24","gender":"0","age":"11","school":"6"},{"start_time":1551794896349,"click_time":1551794897454,"finger_time":1551794897033,"fix_duration":373.57378533152917,"trial":24,"RT":684,"MT":421,"sideResp":1,"stimulus":"img/750/equaldotsize/L/1_Ratio_750_L_20_R_15.png","xmouse":[762,762,762,762,762,762,762,762,762,762,762,762,762,762,762,762,762,762,762,762,762,762,762,762,762,762,762,762,762,762,762,762,764,765,766,766,758,739,715,688,641,610,588,566,550,537,533,531,530,526,524,521,515,510,504,478],"ymouse":[503,503,503,503,503,503,503,503,503,503,503,503,503,503,503,503,503,503,503,503,503,503,503,503,503,503,503,503,503,503,503,500,493,482,469,441,419,386,350,322,289,272,260,250,242,230,224,219,213,199,188,177,159,146,131,92],"timestamp_mouse":[10,37,44,64,85,105,124,144,166,185,205,226,244,266,284,305,325,346,364,384,405,424,445,464,485,504,524,545,564,586,606,624,644,665,684,704,725,744,764,785,804,824,845,864,885,904,924,944,965,986,1004,1025,1044,1064,1084,1104],"xSR":741.5,"ySR":469.95,"xT1":424.9,"yT1":0,"xT2":1058.1,"yT2":0,"toosoon":0,"cond_shown":"equaldotsize","ratio_trial":750,"smaller_num":"15","larger_num":"20","correct_side":1,"subjID":"juanandresespañolgaleano24","gender":"0","age":"11","school":"6"},{"start_time":1551794898904,"click_time":1551794899894,"finger_time":1551794899553,"fix_duration":709.4118373146373,"trial":25,"RT":649,"MT":341,"sideResp":2,"stimulus":"img/900/equaldotanddens/L/4_Ratio_900_L_20_R_18.png","xmouse":[781,781,781,781,781,781,781,781,781,781,781,781,781,781,781,781,781,781,781,781,781,781,781,781,781,781,781,781,781,781,781,782,799,830,873,894,927,939,952,965,973,984,990,998,1015,1027,1037,1051,1057,1059],"ymouse":[508,508,508,508,508,508,508,508,508,508,508,508,508,508,508,508,508,508,508,508,508,508,508,508,508,508,508,508,508,508,508,507,465,404,328,297,244,226,207,191,179,161,151,139,118,103,90,67,60,56],"timestamp_mouse":[13,34,50,70,90,109,131,149,170,189,210,229,249,271,289,309,329,351,369,391,409,429,449,471,489,509,529,550,571,589,610,631,649,669,690,710,731,749,769,789,809,831,850,869,889,910,929,950,969,990],"xSR":741.5,"ySR":469.95,"xT1":424.9,"yT1":0,"xT2":1058.1,"yT2":0,"toosoon":0,"cond_shown":"equaldotanddens","ratio_trial":900,"smaller_num":"18","larger_num":"20","correct_side":1,"subjID":"juanandresespañolgaleano24","gender":"0","age":"11","school":"6"},{"start_time":1551794901997,"click_time":1551794902793,"finger_time":1551794902674,"fix_duration":722.4950624734994,"trial":26,"RT":677,"MT":119,"sideResp":1,"stimulus":"img/500/equaldotsize/L/4_Ratio_500_L_18_R_9.png","xmouse":[778,778,778,778,778,778,778,778,778,778,778,778,778,778,778,778,778,778,778,778,778,778,778,778,778,778,778,778,778,778,778,778,769,756,746,733,711,604,580,515],"ymouse":[488,488,488,488,488,488,488,488,488,488,490,492,495,495,496,496,496,496,498,498,498,498,498,498,498,498,498,498,498,498,498,498,484,467,451,430,393,229,198,84],"timestamp_mouse":[17,38,56,77,97,117,138,156,177,197,217,238,258,276,298,317,337,356,376,396,417,438,458,477,498,517,538,557,577,597,616,637,656,677,698,718,737,756,777,796],"xSR":741.5,"ySR":469.95,"xT1":424.9,"yT1":0,"xT2":1058.1,"yT2":0,"toosoon":0,"cond_shown":"equaldotsize","ratio_trial":500,"smaller_num":"9","larger_num":"18","correct_side":1,"subjID":"juanandresespañolgaleano24","gender":"0","age":"11","school":"6"},{"start_time":1551794904563,"click_time":1551794905614,"finger_time":1551794905135,"fix_duration":727.6994873026292,"trial":27,"RT":572,"MT":479,"sideResp":1,"stimulus":"img/250/equaldotanddens/L/3_Ratio_250_L_8_R_2.png","xmouse":[799,799,799,799,799,799,799,799,799,799,799,799,799,799,799,799,799,799,799,799,799,799,799,799,796,780,762,746,726,656,615,576,573,574,578,583,590,596,599,600,600,600,601,602,603,602,597,589,584,568,553,526,507],"ymouse":[523,523,523,523,523,523,523,523,523,523,523,523,523,523,523,523,523,523,523,523,523,523,523,523,521,507,494,480,460,369,309,243,228,224,218,206,191,176,166,158,157,153,142,136,128,124,114,106,103,103,103,102,96],"timestamp_mouse":[11,35,51,71,91,112,130,151,172,190,211,231,250,272,290,311,332,350,371,391,410,432,451,470,490,510,530,550,572,591,610,630,651,672,691,711,730,750,771,790,811,831,850,870,890,911,930,950,970,990,1010,1031,1051],"xSR":741.5,"ySR":469.95,"xT1":424.9,"yT1":0,"xT2":1058.1,"yT2":0,"toosoon":0,"cond_shown":"equaldotanddens","ratio_trial":250,"smaller_num":"2","larger_num":"8","correct_side":1,"subjID":"juanandresespañolgaleano24","gender":"0","age":"11","school":"6"},{"start_time":1551794908002,"click_time":1551794909413,"finger_time":1551794908255,"fix_duration":1328.2792385248595,"trial":28,"RT":253,"MT":1158,"sideResp":2,"stimulus":"img/500/randomdotsizeEA/R/6_Ratio_500_L_9_R_18.png","xmouse":[812,812,812,812,812,812,812,812,812,812,812,812,814,814,814,814,814,814,814,814,814,814,814,814,814,814,814,814,814,814,814,814,814,814,783,781,780,776,773,771,766,757,753,750,748,746,745,747,755,767,788,819,885,914,939,958,967,977,981,984,987,990,991,992,994,999,1009,1031,1045,1055,1068],"ymouse":[560,560,560,560,560,560,560,560,560,560,560,564,662,713,713,713,713,713,713,713,713,713,713,713,713,713,713,713,713,713,713,713,713,713,717,710,705,695,688,679,663,635,621,609,595,580,565,527,506,475,436,383,266,213,169,134,114,92,84,80,76,73,72,72,72,71,71,71,68,66,59],"timestamp_mouse":[12,34,52,72,91,113,133,151,171,193,213,231,253,272,292,311,333,353,372,393,412,431,451,471,491,512,532,552,571,591,612,631,651,671,692,713,732,753,772,791,811,833,852,872,891,912,932,953,973,992,1011,1031,1051,1071,1093,1112,1132,1152,1171,1192,1212,1232,1252,1272,1292,1312,1331,1353,1371,1391,1411],"xSR":741.5,"ySR":469.95,"xT1":424.9,"yT1":0,"xT2":1058.1,"yT2":0,"toosoon":0,"cond_shown":"randomdotsizeEA","ratio_trial":500,"smaller_num":"9","larger_num":"18","correct_side":2,"subjID":"juanandresespañolgaleano24","gender":"0","age":"11","school":"6"},{"start_time":1551794910226,"click_time":1551794911313,"finger_time":1551794910974,"fix_duration":250,"trial":29,"RT":748,"MT":339,"sideResp":1,"stimulus":"img/500/randomdotsizeEA/L/4_Ratio_500_L_18_R_9.png","xmouse":[783,783,783,783,783,783,783,783,783,783,783,783,783,783,783,783,783,783,783,783,783,783,783,783,783,783,783,783,783,783,783,783,783,783,783,783,783,772,760,743,728,702,688,672,649,630,608,602,589,581,573,549,530,507,490],"ymouse":[522,522,522,522,522,522,522,522,522,522,522,522,522,522,522,522,522,522,522,522,522,522,522,522,522,522,522,522,522,522,522,522,522,522,522,521,511,464,423,387,364,328,309,285,254,227,198,192,184,177,171,149,129,105,88],"timestamp_mouse":[8,27,48,68,87,108,129,147,168,187,208,228,248,269,288,308,328,348,367,389,407,428,449,468,488,509,528,547,568,587,607,628,649,668,687,707,728,748,768,788,807,827,847,868,888,907,928,949,968,988,1007,1027,1048,1067,1087],"xSR":741.5,"ySR":469.95,"xT1":424.9,"yT1":0,"xT2":1058.1,"yT2":0,"toosoon":0,"cond_shown":"randomdotsizeEA","ratio_trial":500,"smaller_num":"9","larger_num":"18","correct_side":1,"subjID":"juanandresespañolgaleano24","gender":"0","age":"11","school":"6"},{"start_time":1551794912844,"click_time":1551794914114,"finger_time":1551794913694,"fix_duration":828.3661847713752,"trial":30,"RT":850,"MT":420,"sideResp":1,"stimulus":"img/750/equaldotsize/L/10_Ratio_750_L_4_R_3.png","xmouse":[797,797,797,797,797,797,797,797,797,797,797,797,797,797,797,797,797,797,797,797,797,797,797,797,797,797,797,797,797,797,797,797,797,797,797,797,797,797,797,797,797,797,797,797,797,800,803,805,805,805,794,786,780,769,753,696,659,602,574,554,530,526,525,524],"ymouse":[511,511,511,511,511,511,511,511,511,511,511,511,511,511,511,511,511,511,511,511,511,511,511,511,511,511,511,511,511,511,511,511,511,511,511,511,511,511,511,505,495,484,468,451,432,400,378,365,355,341,310,294,280,263,242,185,158,121,105,96,86,83,83,82],"timestamp_mouse":[18,51,51,69,90,110,129,150,170,190,210,229,251,269,290,309,330,349,371,389,410,430,449,470,489,509,529,550,569,591,609,629,650,669,690,711,729,751,771,789,809,830,850,869,889,909,930,949,969,989,1010,1030,1050,1070,1089,1110,1130,1150,1169,1190,1210,1230,1249,1270],"xSR":741.5,"ySR":469.95,"xT1":424.9,"yT1":0,"xT2":1058.1,"yT2":0,"toosoon":0,"cond_shown":"equaldotsize","ratio_trial":750,"smaller_num":"3","larger_num":"4","correct_side":1,"subjID":"juanandresespañolgaleano24","gender":"0","age":"11","school":"6"},{"start_time":1551794915465,"click_time":1551794916353,"finger_time":1551794916153,"fix_duration":289.11757552177676,"trial":31,"RT":688,"MT":200,"sideResp":2,"stimulus":"img/250/randomdotsizeEA/R/13_Ratio_250_L_2_R_8.png","xmouse":[781,781,781,781,781,781,781,781,781,781,781,781,781,781,781,781,781,781,781,781,781,781,781,781,781,781,781,781,781,781,781,781,787,794,835,856,863,868,893,927,966,1011,1048,1088,1145],"ymouse":[512,512,512,512,512,512,512,512,512,512,512,512,512,512,512,512,512,512,512,512,512,512,512,512,512,512,512,512,512,512,512,512,508,501,445,416,404,396,361,324,276,231,192,151,83],"timestamp_mouse":[10,34,49,68,88,108,129,149,168,188,209,228,250,270,288,309,328,349,370,390,408,429,450,469,490,508,529,549,568,588,609,630,650,668,688,709,728,749,770,788,809,828,848,868,888],"xSR":741.5,"ySR":469.95,"xT1":424.9,"yT1":0,"xT2":1058.1,"yT2":0,"toosoon":0,"cond_shown":"randomdotsizeEA","ratio_trial":250,"smaller_num":"2","larger_num":"8","correct_side":2,"subjID":"juanandresespañolgaleano24","gender":"0","age":"11","school":"6"},{"start_time":1551794918616,"click_time":1551794919654,"finger_time":1551794919294,"fix_duration":1362.5347012480909,"trial":32,"RT":678,"MT":360,"sideResp":2,"stimulus":"img/250/equaldotsize/R/10_Ratio_250_L_4_R_16.png","xmouse":[825,825,825,825,825,825,825,825,825,825,824,824,824,824,824,824,824,824,824,824,824,824,824,824,824,824,824,824,824,824,825,836,841,850,862,878,902,910,917,921,934,944,953,962,971,976,997,1022,1035,1044,1051,1062],"ymouse":[512,512,512,512,512,512,512,512,512,512,512,512,512,512,512,512,512,512,512,512,512,512,512,512,512,512,512,512,512,511,510,493,472,451,427,401,358,341,321,311,287,270,249,228,209,189,146,116,101,88,76,57],"timestamp_mouse":[18,43,58,77,99,118,137,157,178,198,218,238,259,277,297,318,337,357,378,397,418,438,457,479,497,517,539,558,577,597,617,637,657,678,697,719,738,757,778,799,819,837,858,877,897,918,938,958,977,997,1017,1038],"xSR":741.5,"ySR":469.95,"xT1":424.9,"yT1":0,"xT2":1058.1,"yT2":0,"toosoon":0,"cond_shown":"equaldotsize","ratio_trial":250,"smaller_num":"4","larger_num":"16","correct_side":2,"subjID":"juanandresespañolgaleano24","gender":"0","age":"11","school":"6"},{"start_time":1551794921489,"click_time":1551794923234,"finger_time":1551794922353,"fix_duration":953.9046551110158,"trial":33,"RT":864,"MT":881,"sideResp":2,"stimulus":"img/900/randomdotsizeEA/R/9_Ratio_900_L_18_R_20.png","xmouse":[822,822,822,822,822,822,822,822,822,822,822,822,822,822,822,822,822,822,822,822,822,822,822,822,822,822,822,822,822,822,822,822,822,822,822,822,822,822,821,821,822,823,825,833,842,859,870,879,895,903,913,921,945,958,978,987,994,998,1005,1006,1009,1012,1014,1017,1018,1020,1021,1021,1023,1024,1025,1026,1030,1031,1034,1036,1038,1041,1044,1046,1048,1052,1054,1059,1060,1061,1062,1063],"ymouse":[506,506,506,506,506,506,506,506,506,506,506,506,506,506,506,506,506,506,506,506,506,506,506,506,506,506,506,506,506,506,506,506,506,506,506,506,506,506,506,501,493,485,474,451,436,410,395,381,356,344,331,318,285,264,239,226,216,208,197,192,186,181,175,167,165,161,159,157,153,151,150,148,144,142,139,134,132,128,123,120,117,112,110,104,103,101,100,99],"timestamp_mouse":[10,31,44,64,86,104,125,146,164,184,205,224,246,264,286,305,325,345,365,384,405,424,445,466,485,505,525,546,565,585,606,626,646,664,686,705,726,744,765,784,804,826,844,864,884,905,925,944,964,984,1004,1025,1046,1064,1085,1104,1125,1144,1164,1185,1204,1224,1245,1264,1285,1304,1325,1345,1365,1385,1405,1424,1446,1464,1485,1504,1524,1545,1565,1586,1604,1624,1646,1665,1685,1704,1725,1745],"xSR":741.5,"ySR":469.95,"xT1":424.9,"yT1":0,"xT2":1058.1,"yT2":0,"toosoon":0,"cond_shown":"randomdotsizeEA","ratio_trial":900,"smaller_num":"18","larger_num":"20","correct_side":2,"subjID":"juanandresespañolgaleano24","gender":"0","age":"11","school":"6"},{"start_time":1551794928762,"click_time":1551794929835,"finger_time":1551794929555,"fix_duration":1087.8189747158349,"trial":34,"RT":793,"MT":280,"sideResp":2,"stimulus":"img/900/randomdotsizeEA/L/4_Ratio_900_L_20_R_18.png","xmouse":[802,802,802,802,802,802,802,802,802,802,802,802,802,802,802,802,802,802,802,802,802,802,802,802,802,802,802,802,802,802,802,802,802,802,802,802,802,806,817,852,894,917,943,980,1050,1069,1082,1091,1098,1103,1108,1111,1114,1122],"ymouse":[521,521,521,521,521,521,521,521,521,521,521,521,521,521,521,521,521,521,521,521,521,521,521,521,521,521,521,521,521,521,521,521,521,521,521,521,521,519,513,485,447,424,396,353,270,242,219,204,190,173,152,136,119,90],"timestamp_mouse":[11,39,51,71,92,112,132,151,171,192,212,232,251,273,291,311,332,352,371,392,412,432,451,471,493,512,531,552,571,592,612,631,651,671,693,711,731,751,772,793,812,831,852,871,891,911,932,953,972,992,1011,1031,1052,1073],"xSR":741.5,"ySR":469.95,"xT1":424.9,"yT1":0,"xT2":1058.1,"yT2":0,"toosoon":0,"cond_shown":"randomdotsizeEA","ratio_trial":900,"smaller_num":"18","larger_num":"20","correct_side":1,"subjID":"juanandresespañolgaleano24","gender":"0","age":"11","school":"6"},{"start_time":1551794934000,"click_time":1551794934695,"finger_time":1551794934595,"fix_duration":1224.9626988467264,"trial":35,"RT":595,"MT":100,"sideResp":1,"stimulus":"img/250/randomdotsizeEA/L/3_Ratio_250_L_8_R_2.png","xmouse":[776,776,776,776,776,776,776,776,776,776,776,776,776,776,776,776,776,776,776,776,776,776,776,776,776,776,775,770,756,735,705,664,569,519,465],"ymouse":[539,539,539,539,539,539,539,539,539,539,539,539,539,539,539,539,539,539,539,539,539,539,539,539,539,539,540,529,495,459,404,344,208,139,60],"timestamp_mouse":[15,34,55,76,95,116,136,155,175,195,216,235,256,275,296,316,335,355,375,395,415,436,455,475,495,516,536,555,575,595,615,635,655,675,695],"xSR":741.5,"ySR":469.95,"xT1":424.9,"yT1":0,"xT2":1058.1,"yT2":0,"toosoon":0,"cond_shown":"randomdotsizeEA","ratio_trial":250,"smaller_num":"2","larger_num":"8","correct_side":1,"subjID":"juanandresespañolgaleano24","gender":"0","age":"11","school":"6"},{"start_time":1551794937187,"click_time":1551794938156,"finger_time":1551794937796,"fix_duration":411.5580304011747,"trial":36,"RT":609,"MT":360,"sideResp":1,"stimulus":"img/500/equaldotanddens/L/13_Ratio_500_L_12_R_6.png","xmouse":[766,766,766,766,766,766,766,766,766,766,766,766,766,766,766,766,766,766,766,766,766,766,766,766,766,766,766,766,766,760,738,687,550,472,398,339,321,321,321,321,321,321,321,321,321,321,321,410,481],"ymouse":[507,507,507,507,507,507,507,507,507,507,507,507,507,507,507,507,507,507,507,507,507,507,507,507,507,507,507,507,507,503,482,434,277,179,93,32,12,12,12,12,12,12,12,12,12,12,12,3,23],"timestamp_mouse":[9,29,47,68,88,108,128,148,169,189,209,229,249,268,288,309,328,349,368,389,409,429,448,468,489,508,528,549,569,587,609,628,649,668,689,708,727,748,768,789,808,829,847,868,887,909,928,948,969],"xSR":741.5,"ySR":469.95,"xT1":424.9,"yT1":0,"xT2":1058.1,"yT2":0,"toosoon":0,"cond_shown":"equaldotanddens","ratio_trial":500,"smaller_num":"6","larger_num":"12","correct_side":1,"subjID":"juanandresespañolgaleano24","gender":"0","age":"11","school":"6"},{"start_time":1551794939648,"click_time":1551794940437,"finger_time":1551794940195,"fix_duration":510.7682045931883,"trial":37,"RT":547,"MT":242,"sideResp":2,"stimulus":"img/250/equaldotanddens/R/10_Ratio_250_L_4_R_16.png","xmouse":[770,770,770,770,770,770,770,770,770,770,770,770,770,770,770,770,770,770,770,772,773,775,776,779,781,785,791,798,807,822,867,891,914,929,984,1014,1043,1074,1093,1126],"ymouse":[500,500,500,500,500,500,500,500,500,500,500,500,500,500,500,500,500,500,500,500,500,498,497,493,488,478,470,458,445,422,358,322,291,261,198,169,147,125,112,89],"timestamp_mouse":[9,36,47,67,86,108,128,147,167,187,207,227,246,267,287,308,327,347,368,387,407,427,447,467,487,507,527,547,567,587,607,627,647,667,688,707,728,747,767,788],"xSR":741.5,"ySR":469.95,"xT1":424.9,"yT1":0,"xT2":1058.1,"yT2":0,"toosoon":0,"cond_shown":"equaldotanddens","ratio_trial":250,"smaller_num":"4","larger_num":"16","correct_side":2,"subjID":"juanandresespañolgaleano24","gender":"0","age":"11","school":"6"},{"start_time":1551794942352,"click_time":1551794943155,"finger_time":1551794942815,"fix_duration":1096.1336488950276,"trial":38,"RT":463,"MT":340,"sideResp":1,"stimulus":"img/900/randomdotsizeEA/R/5_Ratio_900_L_9_R_10.png","xmouse":[819,819,819,819,819,819,819,819,819,819,819,819,819,819,819,819,819,819,819,819,819,819,819,819,822,827,834,841,846,850,847,828,811,799,788,752,725,683,637,535,498],"ymouse":[487,487,487,487,487,487,487,487,487,487,487,487,487,487,487,487,487,487,487,487,483,481,473,466,447,434,419,401,384,366,330,293,273,260,250,226,208,183,157,95,65],"timestamp_mouse":[10,34,43,63,83,103,123,144,163,184,204,223,243,263,283,303,324,343,364,383,404,424,443,463,484,503,523,543,563,584,603,624,643,663,683,703,723,743,763,785,803],"xSR":741.5,"ySR":469.95,"xT1":424.9,"yT1":0,"xT2":1058.1,"yT2":0,"toosoon":0,"cond_shown":"randomdotsizeEA","ratio_trial":900,"smaller_num":"9","larger_num":"10","correct_side":2,"subjID":"juanandresespañolgaleano24","gender":"0","age":"11","school":"6"},{"start_time":1551794945527,"click_time":1551794946576,"finger_time":1551794946195,"fix_duration":250,"trial":39,"RT":668,"MT":381,"sideResp":2,"stimulus":"img/750/randomdotsizeEA/R/15_Ratio_750_L_9_R_12.png","xmouse":[789,789,789,789,789,789,789,789,789,789,789,789,789,789,789,789,789,789,789,789,789,789,789,789,789,789,789,789,789,790,795,819,833,851,852,855,870,878,889,907,934,973,994,1003,1005,1006,1010,1014,1019,1028,1035,1054,1059],"ymouse":[528,528,528,528,528,528,528,528,528,528,528,528,528,528,528,528,528,528,528,528,528,528,528,528,528,528,528,528,528,527,523,499,488,475,474,473,453,434,407,366,307,231,201,187,180,177,161,143,123,103,87,62,56],"timestamp_mouse":[10,40,48,68,89,108,128,149,168,189,208,228,248,269,289,308,329,349,368,389,409,428,449,469,489,508,528,548,569,588,608,628,648,668,688,708,729,748,768,788,808,828,849,868,889,908,928,948,969,988,1009,1028,1049],"xSR":741.5,"ySR":469.95,"xT1":424.9,"yT1":0,"xT2":1058.1,"yT2":0,"toosoon":0,"cond_shown":"randomdotsizeEA","ratio_trial":750,"smaller_num":"9","larger_num":"12","correct_side":2,"subjID":"juanandresespañolgaleano24","gender":"0","age":"11","school":"6"},{"start_time":1551794948780,"click_time":1551794950677,"finger_time":1551794949235,"fix_duration":1164.2989169077039,"trial":40,"RT":455,"MT":1442,"sideResp":1,"stimulus":"img/750/randomdotsizeEA/R/4_Ratio_750_L_15_R_20.png","xmouse":[768,768,768,768,768,768,768,768,768,768,768,768,768,768,768,768,768,768,768,768,768,769,769,769,769,769,769,769,769,769,769,770,770,770,770,770,770,770,765,762,757,754,748,737,732,727,722,718,711,707,704,698,694,678,668,656,643,631,616,613,612,611,605,601,597,591,587,583,579,575,571,569,568,563,560,558,555,553,547,544,542,540,539,537,537,536,535,535,531,526,524,521,517,516,515],"ymouse":[488,488,488,488,488,488,488,488,488,488,488,488,488,488,488,488,488,488,488,488,487,477,466,443,438,433,429,425,425,424,424,423,422,416,412,404,397,390,372,361,343,332,319,294,284,275,265,259,247,238,233,227,222,209,202,195,190,186,179,178,178,177,175,174,172,170,168,166,164,163,160,159,158,155,154,153,152,150,145,144,141,139,138,136,136,135,134,133,126,117,113,109,102,100,98],"timestamp_mouse":[15,38,55,75,95,115,135,156,176,195,215,236,255,276,295,316,335,356,376,396,416,436,455,476,496,515,535,557,575,595,615,635,655,675,696,715,736,755,775,796,816,835,856,875,896,915,936,956,975,996,1015,1035,1055,1076,1096,1115,1135,1155,1175,1195,1215,1236,1256,1275,1296,1315,1335,1356,1375,1396,1415,1435,1455,1475,1495,1515,1535,1556,1575,1595,1616,1635,1656,1675,1695,1715,1735,1755,1776,1795,1816,1835,1857,1875,1896],"xSR":741.5,"ySR":469.95,"xT1":424.9,"yT1":0,"xT2":1058.1,"yT2":0,"toosoon":0,"cond_shown":"randomdotsizeEA","ratio_trial":750,"smaller_num":"15","larger_num":"20","correct_side":2,"subjID":"juanandresespañolgaleano24","gender":"0","age":"11","school":"6"},{"start_time":1551794953668,"click_time":1551794954675,"finger_time":1551794954296,"fix_duration":571.4402736982466,"trial":41,"RT":628,"MT":379,"sideResp":2,"stimulus":"img/750/randomdotsizeEA/L/14_Ratio_750_L_8_R_6.png","xmouse":[744,744,744,744,744,744,744,744,744,744,744,744,744,744,744,744,744,744,744,744,744,744,744,744,744,744,744,744,745,749,758,767,787,816,881,923,941,954,968,992,1003,1012,1020,1027,1033,1037,1044,1049,1052,1058,1061],"ymouse":[502,502,502,502,502,502,502,502,502,502,502,502,502,502,502,502,502,502,502,502,502,502,502,502,502,502,502,502,501,498,486,468,436,397,306,248,222,200,178,145,129,118,107,98,86,80,71,66,63,58,55],"timestamp_mouse":[10,33,47,68,88,108,128,147,168,187,207,227,247,267,288,308,328,347,368,387,408,427,448,467,487,507,527,547,567,587,607,628,648,668,687,708,727,747,767,787,807,827,847,868,887,907,927,948,967,987,1007],"xSR":741.5,"ySR":469.95,"xT1":424.9,"yT1":0,"xT2":1058.1,"yT2":0,"toosoon":0,"cond_shown":"randomdotsizeEA","ratio_trial":750,"smaller_num":"6","larger_num":"8","correct_side":1,"subjID":"juanandresespañolgaleano24","gender":"0","age":"11","school":"6"},{"start_time":1551794958124,"click_time":1551794959295,"finger_time":1551794958896,"fix_duration":1467.8423463079666,"trial":42,"RT":772,"MT":399,"sideResp":1,"stimulus":"img/250/equaldotanddens/L/3_Ratio_250_L_8_R_2.png","xmouse":[755,755,755,755,755,755,755,755,755,755,755,755,755,755,755,755,755,755,755,755,755,755,755,755,755,755,755,755,755,755,755,755,755,756,756,756,754,748,738,721,702,667,642,627,613,599,567,554,542,532,525,511,505,497,495,493,489,487,483],"ymouse":[516,516,516,516,516,516,516,516,516,516,516,516,516,516,516,516,516,516,516,516,516,516,516,516,516,516,516,516,516,516,516,516,516,515,513,498,488,473,457,437,421,391,373,361,350,339,311,298,279,258,241,204,187,166,155,143,117,105,91],"timestamp_mouse":[12,31,51,71,91,112,131,151,171,191,212,231,252,272,292,311,331,352,372,391,411,432,452,472,491,511,531,552,571,591,612,633,652,671,691,712,731,751,772,791,812,831,851,871,891,911,932,952,971,991,1011,1031,1051,1071,1092,1111,1131,1151,1171],"xSR":741.5,"ySR":469.95,"xT1":424.9,"yT1":0,"xT2":1058.1,"yT2":0,"toosoon":0,"cond_shown":"equaldotanddens","ratio_trial":250,"smaller_num":"2","larger_num":"8","correct_side":1,"subjID":"juanandresespañolgaleano24","gender":"0","age":"11","school":"6"},{"start_time":1551794960927,"click_time":1551794962055,"finger_time":1551794961736,"fix_duration":710.4933650231704,"trial":43,"RT":809,"MT":319,"sideResp":1,"stimulus":"img/500/equaldotanddens/L/10_Ratio_500_L_4_R_2.png","xmouse":[797,797,797,797,797,797,797,797,797,797,797,797,797,797,797,797,797,797,797,797,796,792,791,789,788,787,787,787,787,787,787,787,787,787,787,787,787,784,779,758,683,649,618,591,578,558,551,547,543,538,535,529,524,521,517,515,508],"ymouse":[545,545,545,545,545,545,545,545,545,545,545,545,545,545,545,545,545,545,545,545,544,535,534,531,528,528,526,526,526,526,526,526,526,526,526,526,526,521,510,470,351,311,273,241,225,198,190,182,175,167,161,148,132,122,111,104,90],"timestamp_mouse":[9,40,48,68,89,109,128,148,168,188,208,228,248,268,288,308,328,349,368,388,408,429,448,468,489,509,528,548,568,588,608,628,648,669,688,709,728,749,768,788,809,828,849,868,888,909,927,949,968,988,1008,1028,1049,1068,1088,1108,1128],"xSR":741.5,"ySR":469.95,"xT1":424.9,"yT1":0,"xT2":1058.1,"yT2":0,"toosoon":0,"cond_shown":"equaldotanddens","ratio_trial":500,"smaller_num":"2","larger_num":"4","correct_side":1,"subjID":"juanandresespañolgaleano24","gender":"0","age":"11","school":"6"},{"start_time":1551794965208,"click_time":1551794966317,"finger_time":1551794965896,"fix_duration":529.4043385040427,"trial":44,"RT":688,"MT":421,"sideResp":2,"stimulus":"img/500/randomdotsizeEA/R/9_Ratio_500_L_2_R_4.png","xmouse":[776,776,776,776,776,776,776,776,776,776,776,776,775,775,775,775,775,775,775,775,775,775,775,775,775,775,775,775,775,775,775,775,779,787,796,806,819,846,858,878,890,903,925,938,956,974,994,1053,1060,1071,1073,1073,1074,1077,1079,1083],"ymouse":[508,508,508,508,508,508,508,508,508,508,508,508,508,508,508,508,508,508,508,508,508,508,508,508,508,508,508,508,508,508,508,507,500,484,466,443,415,350,321,282,264,247,221,209,197,187,174,137,132,124,122,121,117,112,106,97],"timestamp_mouse":[9,33,47,68,87,107,127,148,167,188,207,227,247,267,287,308,328,348,368,387,407,428,447,467,488,507,527,547,568,588,608,627,648,667,688,708,727,747,767,787,807,827,847,867,887,907,927,947,967,987,1008,1027,1047,1068,1087,1108],"xSR":741.5,"ySR":469.95,"xT1":424.9,"yT1":0,"xT2":1058.1,"yT2":0,"toosoon":0,"cond_shown":"randomdotsizeEA","ratio_trial":500,"smaller_num":"2","larger_num":"4","correct_side":2,"subjID":"juanandresespañolgaleano24","gender":"0","age":"11","school":"6"},{"start_time":1551794968100,"click_time":1551794970155,"finger_time":1551794969956,"fix_duration":1122.5850086746138,"trial":45,"RT":1856,"MT":199,"sideResp":2,"stimulus":"img/900/equaldotsize/L/4_Ratio_900_L_20_R_18.png","xmouse":[771,771,771,771,771,771,771,771,771,771,771,771,771,771,771,771,771,771,771,771,771,771,771,771,771,771,771,771,771,771,771,771,771,771,771,771,771,771,771,771,771,771,771,771,771,771,771,771,771,771,771,771,771,771,771,771,771,771,771,771,771,771,771,771,771,771,771,771,771,771,771,771,771,771,771,771,771,771,771,771,771,771,771,771,771,771,771,771,771,771,774,776,791,795,804,813,821,846,866,910,963,1010,1072],"ymouse":[507,507,507,507,507,507,507,507,507,507,507,507,507,507,507,507,507,507,507,507,507,507,507,507,507,507,507,507,507,507,507,507,507,507,507,507,507,507,507,507,507,507,507,507,507,507,507,507,507,507,507,507,507,507,507,507,507,507,507,507,507,507,507,507,507,507,507,507,507,507,507,507,507,507,507,507,507,507,507,507,507,507,507,507,507,507,507,507,507,507,502,498,465,458,443,435,427,404,381,330,256,183,97],"timestamp_mouse":[16,35,56,75,95,115,135,156,175,195,216,235,255,276,296,315,335,355,376,395,416,436,455,476,495,516,535,555,576,595,615,635,655,675,696,715,735,755,775,795,815,836,855,876,896,915,935,955,976,996,1016,1036,1055,1076,1095,1115,1136,1156,1175,1196,1215,1235,1255,1275,1296,1316,1335,1355,1376,1395,1416,1435,1455,1476,1495,1515,1535,1556,1575,1596,1616,1635,1657,1675,1695,1716,1735,1755,1776,1795,1815,1835,1856,1875,1895,1915,1935,1955,1975,1995,2015,2035,2055],"xSR":741.5,"ySR":469.95,"xT1":424.9,"yT1":0,"xT2":1058.1,"yT2":0,"toosoon":0,"cond_shown":"equaldotsize","ratio_trial":900,"smaller_num":"18","larger_num":"20","correct_side":1,"subjID":"juanandresespañolgaleano24","gender":"0","age":"11","school":"6"},{"start_time":1551794973840,"click_time":1551794975196,"finger_time":1551794974616,"fix_duration":1243.5697690386796,"trial":46,"RT":776,"MT":580,"sideResp":2,"stimulus":"img/750/equaldotanddens/R/3_Ratio_750_L_15_R_20.png","xmouse":[795,795,795,795,795,795,795,795,795,795,795,795,795,795,795,795,795,795,795,795,795,795,795,795,795,795,795,795,795,795,795,794,794,792,791,786,782,778,775,771,759,751,741,731,723,711,710,710,716,736,795,827,856,874,886,914,951,1006,1006,1006,1006,1006,1006,1006,1006,1006,1006,1139],"ymouse":[507,507,507,507,507,507,507,507,507,507,507,507,507,507,507,507,507,507,507,507,507,507,507,507,507,507,507,507,507,507,507,506,505,501,498,488,479,471,462,454,428,414,398,381,366,338,334,322,305,273,188,149,114,93,75,45,25,7,7,7,7,7,7,7,7,7,7,8],"timestamp_mouse":[16,35,55,75,96,116,136,155,175,196,216,236,255,276,296,315,335,356,376,395,415,435,456,475,495,515,535,556,575,595,615,635,655,675,696,715,736,755,776,797,815,835,855,874,895,915,935,955,975,995,1015,1035,1055,1075,1095,1115,1136,1155,1175,1195,1220,1235,1256,1276,1295,1316,1335,1356],"xSR":741.5,"ySR":469.95,"xT1":424.9,"yT1":0,"xT2":1058.1,"yT2":0,"toosoon":0,"cond_shown":"equaldotanddens","ratio_trial":750,"smaller_num":"15","larger_num":"20","correct_side":2,"subjID":"juanandresespañolgaleano24","gender":"0","age":"11","school":"6"},{"start_time":1551794977189,"click_time":1551794978155,"finger_time":1551794977895,"fix_duration":250,"trial":47,"RT":706,"MT":260,"sideResp":2,"stimulus":"img/500/equaldotsize/R/3_Ratio_500_L_10_R_20.png","xmouse":[783,783,783,783,783,783,783,783,783,783,783,783,783,783,783,783,783,783,783,783,783,783,783,783,783,783,783,783,783,783,783,783,783,783,789,797,823,866,948,982,1005,1009,1012,1018,1023,1031,1041,1051,1068],"ymouse":[492,492,492,492,492,492,492,492,492,492,492,492,492,492,492,492,492,492,492,492,492,492,492,492,492,492,492,492,492,492,492,492,492,492,476,465,424,361,237,190,147,133,124,104,92,80,66,53,37],"timestamp_mouse":[8,26,47,66,86,106,126,147,166,186,206,226,246,266,287,306,326,346,367,386,408,426,447,467,485,506,526,546,566,587,606,627,647,666,686,706,726,747,766,786,806,826,847,867,887,906,926,947,966],"xSR":741.5,"ySR":469.95,"xT1":424.9,"yT1":0,"xT2":1058.1,"yT2":0,"toosoon":0,"cond_shown":"equaldotsize","ratio_trial":500,"smaller_num":"10","larger_num":"20","correct_side":2,"subjID":"juanandresespañolgaleano24","gender":"0","age":"11","school":"6"},{"start_time":1551794980116,"click_time":1551794981175,"finger_time":1551794980815,"fix_duration":1360.5779134832555,"trial":48,"RT":699,"MT":360,"sideResp":1,"stimulus":"img/750/randomdotsizeEA/L/1_Ratio_750_L_20_R_15.png","xmouse":[799,799,799,799,799,799,799,799,799,799,799,799,799,799,799,799,799,799,799,799,799,799,799,799,799,799,799,799,799,799,799,799,795,778,754,730,700,690,681,669,656,632,614,603,593,584,564,552,542,534,530,526,523],"ymouse":[510,510,510,510,510,510,510,510,510,510,510,510,510,510,510,510,510,510,510,510,510,510,510,510,510,510,510,510,510,510,510,510,504,476,442,409,361,342,328,309,292,256,222,198,176,155,118,102,88,76,70,62,56],"timestamp_mouse":[19,39,59,79,99,120,139,159,179,200,220,239,260,280,300,320,340,360,379,400,420,439,460,479,499,519,539,560,579,600,619,639,660,679,699,719,739,759,780,799,820,839,860,879,900,919,939,960,979,999,1019,1039,1059],"xSR":741.5,"ySR":469.95,"xT1":424.9,"yT1":0,"xT2":1058.1,"yT2":0,"toosoon":0,"cond_shown":"randomdotsizeEA","ratio_trial":750,"smaller_num":"15","larger_num":"20","correct_side":1,"subjID":"juanandresespañolgaleano24","gender":"0","age":"11","school":"6"},{"start_time":1551794983146,"click_time":1551794984255,"finger_time":1551794984056,"fix_duration":1310.1942206009908,"trial":49,"RT":910,"MT":199,"sideResp":1,"stimulus":"img/500/equaldotsize/L/10_Ratio_500_L_4_R_2.png","xmouse":[807,807,807,807,807,807,807,807,807,807,807,807,807,807,807,807,807,807,807,807,807,807,807,807,807,807,807,807,807,807,807,807,807,807,807,807,807,807,807,807,805,800,791,781,769,742,726,706,680,648,589,562,544,529,514,493],"ymouse":[513,513,513,513,513,513,513,513,513,513,513,513,513,513,513,513,513,513,513,513,513,513,513,513,513,513,513,513,513,513,513,513,513,513,513,513,513,513,513,513,514,509,500,489,477,443,419,385,342,295,214,178,155,136,119,92],"timestamp_mouse":[10,37,50,69,89,109,129,150,169,190,209,230,249,269,289,309,329,349,369,389,409,429,450,469,489,509,530,550,570,590,610,629,649,669,689,709,730,749,769,789,809,829,849,869,889,910,929,950,969,989,1010,1030,1050,1069,1089,1109],"xSR":741.5,"ySR":469.95,"xT1":424.9,"yT1":0,"xT2":1058.1,"yT2":0,"toosoon":0,"cond_shown":"equaldotsize","ratio_trial":500,"smaller_num":"2","larger_num":"4","correct_side":1,"subjID":"juanandresespañolgaleano24","gender":"0","age":"11","school":"6"},{"start_time":1551794990337,"click_time":1551794991455,"finger_time":1551794990995,"fix_duration":1039.8070315692698,"trial":50,"RT":658,"MT":460,"sideResp":1,"stimulus":"img/500/equaldotsize/L/11_Ratio_500_L_12_R_6.png","xmouse":[783,783,783,783,783,783,783,783,783,783,783,783,783,783,783,783,783,783,783,783,783,783,783,783,783,783,783,783,783,783,783,779,778,769,758,742,715,701,684,667,653,625,609,588,576,564,548,544,543,541,537,536,533,529,527,526,524],"ymouse":[501,501,501,501,501,501,501,501,501,501,501,501,501,501,501,501,501,501,501,501,501,501,501,501,501,501,501,501,501,501,499,482,476,456,439,418,380,360,336,311,287,242,214,175,154,137,116,112,110,108,105,104,102,101,100,100,99],"timestamp_mouse":[1,18,42,58,78,98,118,138,159,178,199,218,239,259,278,298,318,339,359,378,398,419,438,458,478,499,518,538,558,578,598,618,638,658,678,698,718,739,758,778,799,818,838,859,879,898,918,939,959,978,1000,1018,1038,1059,1078,1098,1118],"xSR":741.5,"ySR":469.95,"xT1":424.9,"yT1":0,"xT2":1058.1,"yT2":0,"toosoon":0,"cond_shown":"equaldotsize","ratio_trial":500,"smaller_num":"6","larger_num":"12","correct_side":1,"subjID":"juanandresespañolgaleano24","gender":"0","age":"11","school":"6"},{"start_time":1551794992846,"click_time":1551794994636,"finger_time":1551794993655,"fix_duration":250,"trial":51,"RT":809,"MT":981,"sideResp":2,"stimulus":"img/900/equaldotsize/R/11_Ratio_900_L_18_R_20.png","xmouse":[758,758,758,758,758,758,758,758,758,758,758,758,758,758,758,758,758,758,758,758,758,758,758,758,758,758,758,758,758,758,758,758,758,759,759,761,762,766,768,772,777,779,780,780,780,779,779,779,780,783,796,805,812,817,823,839,849,854,860,864,870,874,879,885,894,928,956,976,994,1011,1026,1028,1031,1033,1039,1053,1061,1064,1066,1067,1070,1072,1076,1080,1083,1085,1086,1087,1088,1089],"ymouse":[545,545,545,545,545,545,545,545,545,545,545,545,545,545,545,545,545,545,545,545,545,545,545,545,545,545,545,545,545,545,545,545,545,543,541,528,522,507,497,486,461,449,440,431,424,408,403,390,378,368,346,335,326,316,304,282,263,255,249,246,243,240,236,231,226,210,201,195,191,185,180,179,177,175,172,164,158,154,153,151,143,133,124,116,111,107,105,102,100,99],"timestamp_mouse":[9,38,49,71,91,110,130,151,171,190,210,230,249,270,289,309,330,349,371,389,410,429,449,470,490,510,530,549,570,589,609,631,649,671,690,709,731,749,770,791,809,829,850,869,890,909,929,949,970,990,1009,1030,1049,1069,1090,1109,1130,1150,1170,1189,1209,1230,1249,1271,1289,1309,1330,1349,1369,1390,1409,1430,1449,1469,1490,1510,1530,1549,1570,1589,1609,1629,1651,1669,1689,1709,1730,1750,1770,1790],"xSR":741.5,"ySR":469.95,"xT1":424.9,"yT1":0,"xT2":1058.1,"yT2":0,"toosoon":0,"cond_shown":"equaldotsize","ratio_trial":900,"smaller_num":"18","larger_num":"20","correct_side":2,"subjID":"juanandresespañolgaleano24","gender":"0","age":"11","school":"6"},{"start_time":1551794996947,"click_time":1551794997955,"finger_time":1551794997575,"fix_duration":1290.023525495467,"trial":52,"RT":628,"MT":380,"sideResp":1,"stimulus":"img/250/randomdotsizeEA/L/2_Ratio_250_L_16_R_4.png","xmouse":[785,785,785,785,785,785,785,785,785,784,784,784,784,784,784,784,784,784,784,783,783,783,783,783,783,783,783,783,779,775,760,749,744,740,736,719,707,690,667,642,590,571,564,560,551,508,480,456,438,427,426],"ymouse":[521,521,521,521,521,521,521,522,523,523,523,523,524,524,524,524,524,524,524,525,525,525,525,525,525,525,525,525,523,516,488,460,440,420,397,347,321,298,277,259,231,221,218,214,204,165,143,127,114,101,99],"timestamp_mouse":[14,40,48,69,88,108,128,150,168,188,208,230,248,268,289,308,328,348,368,388,408,429,449,469,489,508,530,549,568,589,608,628,648,668,689,709,728,749,769,789,808,828,848,869,890,909,929,948,968,990,1008],"xSR":741.5,"ySR":469.95,"xT1":424.9,"yT1":0,"xT2":1058.1,"yT2":0,"toosoon":0,"cond_shown":"randomdotsizeEA","ratio_trial":250,"smaller_num":"4","larger_num":"16","correct_side":1,"subjID":"juanandresespañolgaleano24","gender":"0","age":"11","school":"6"},{"start_time":1551794998909,"click_time":1551794999775,"finger_time":1551794999536,"fix_duration":250,"trial":53,"RT":627,"MT":239,"sideResp":1,"stimulus":"img/250/equaldotsize/L/5_Ratio_250_L_24_R_6.png","xmouse":[789,789,789,789,789,789,789,789,789,789,789,788,788,788,788,788,788,788,788,788,787,787,787,787,787,787,787,785,785,781,774,767,747,724,699,662,610,524,505,492,481,472,461,459],"ymouse":[507,507,507,507,507,507,507,507,507,507,507,508,508,508,508,508,508,508,508,509,510,510,510,510,510,510,510,510,506,499,485,468,432,393,355,310,259,184,165,150,135,122,105,97],"timestamp_mouse":[7,26,46,66,87,107,127,146,167,186,206,226,246,266,286,306,326,346,366,386,406,426,446,466,486,508,526,546,567,586,606,627,646,667,687,706,726,746,768,786,806,826,847,866],"xSR":741.5,"ySR":469.95,"xT1":424.9,"yT1":0,"xT2":1058.1,"yT2":0,"toosoon":0,"cond_shown":"equaldotsize","ratio_trial":250,"smaller_num":"6","larger_num":"24","correct_side":1,"subjID":"juanandresespañolgaleano24","gender":"0","age":"11","school":"6"},{"start_time":1551795001867,"click_time":1551795003055,"finger_time":1551795002475,"fix_duration":1270.4210011961877,"trial":54,"RT":608,"MT":580,"sideResp":1,"stimulus":"img/750/equaldotanddens/L/6_Ratio_750_L_24_R_18.png","xmouse":[806,806,806,806,806,806,806,806,806,806,806,806,806,806,806,806,806,806,806,806,806,806,806,806,806,806,806,806,800,782,763,734,698,657,601,586,577,575,575,572,567,563,559,557,557,557,557,556,555,550,549,546,543,537,535,532,531,529,525,523],"ymouse":[519,519,519,519,519,519,519,519,519,519,519,519,519,519,519,519,519,519,519,519,519,519,519,519,519,519,519,519,513,484,442,380,311,239,154,134,123,121,121,115,108,103,99,97,97,97,97,96,96,94,94,94,94,92,91,90,90,90,88,87],"timestamp_mouse":[9,29,52,69,88,108,128,149,169,189,208,228,248,270,288,308,328,349,368,388,410,429,450,468,488,509,528,548,568,588,608,629,648,668,688,708,728,748,769,789,810,828,848,869,890,909,928,950,969,988,1008,1029,1049,1070,1088,1108,1128,1148,1170,1188],"xSR":741.5,"ySR":469.95,"xT1":424.9,"yT1":0,"xT2":1058.1,"yT2":0,"toosoon":0,"cond_shown":"equaldotanddens","ratio_trial":750,"smaller_num":"18","larger_num":"24","correct_side":1,"subjID":"juanandresespañolgaleano24","gender":"0","age":"11","school":"6"},{"start_time":1551795004837,"click_time":1551795005576,"finger_time":1551795005376,"fix_duration":679.8978794056696,"trial":55,"RT":539,"MT":200,"sideResp":1,"stimulus":"img/750/equaldotanddens/L/6_Ratio_750_L_24_R_18.png","xmouse":[787,787,787,787,787,787,787,787,787,787,787,786,786,785,785,784,784,784,784,784,784,780,777,774,770,763,744,739,725,718,707,678,655,634,605,576,511,472],"ymouse":[516,516,516,516,516,516,516,516,515,515,515,515,515,516,517,517,517,517,518,518,518,518,518,516,512,504,477,471,456,448,438,407,377,346,307,264,150,71],"timestamp_mouse":[0,18,38,58,78,98,119,138,158,179,198,219,238,258,278,298,319,339,359,378,398,418,438,459,478,498,518,539,558,578,600,619,640,658,678,698,719,738],"xSR":741.5,"ySR":469.95,"xT1":424.9,"yT1":0,"xT2":1058.1,"yT2":0,"toosoon":0,"cond_shown":"equaldotanddens","ratio_trial":750,"smaller_num":"18","larger_num":"24","correct_side":1,"subjID":"juanandresespañolgaleano24","gender":"0","age":"11","school":"6"},{"start_time":1551795008149,"click_time":1551795009036,"finger_time":1551795008775,"fix_duration":273.0650657639613,"trial":56,"RT":626,"MT":261,"sideResp":2,"stimulus":"img/750/equaldotanddens/R/15_Ratio_750_L_9_R_12.png","xmouse":[795,795,795,795,795,795,795,795,795,795,795,795,795,795,795,795,795,795,795,795,795,795,795,795,795,795,795,795,795,795,794,798,801,806,815,839,850,862,873,889,939,990,1028,1057,1082],"ymouse":[510,510,510,510,510,510,510,510,510,510,510,510,510,510,510,510,510,510,510,510,510,510,510,510,510,510,510,510,510,510,500,469,444,413,378,327,307,289,272,251,198,152,121,95,73],"timestamp_mouse":[9,40,46,66,87,106,127,146,167,187,208,227,247,267,286,307,326,348,366,386,406,426,447,467,487,506,526,547,567,586,606,626,647,667,686,706,728,746,766,787,806,827,847,867,887],"xSR":741.5,"ySR":469.95,"xT1":424.9,"yT1":0,"xT2":1058.1,"yT2":0,"toosoon":0,"cond_shown":"equaldotanddens","ratio_trial":750,"smaller_num":"9","larger_num":"12","correct_side":2,"subjID":"juanandresespañolgaleano24","gender":"0","age":"11","school":"6"},{"start_time":1551795011947,"click_time":1551795012756,"finger_time":1551795012275,"fix_duration":910.0177012873776,"trial":57,"RT":328,"MT":481,"sideResp":1,"stimulus":"img/500/equaldotsize/L/8_Ratio_500_L_8_R_4.png","xmouse":[797,797,797,797,797,797,797,797,797,797,798,799,802,802,802,841,872,907,922,938,943,943,943,943,943,943,943,943,943,943,938,937,933,926,900,875,836,780,715,651,510],"ymouse":[482,482,482,482,482,482,482,482,482,482,488,494,503,503,503,482,467,451,445,445,445,445,445,446,446,446,446,446,446,446,444,444,442,437,419,399,360,305,245,190,83],"timestamp_mouse":[10,40,48,69,88,108,129,149,169,190,208,228,248,268,288,308,328,348,369,388,408,428,448,468,489,508,529,548,568,588,609,628,648,668,690,708,730,748,768,789,809],"xSR":741.5,"ySR":469.95,"xT1":424.9,"yT1":0,"xT2":1058.1,"yT2":0,"toosoon":0,"cond_shown":"equaldotsize","ratio_trial":500,"smaller_num":"4","larger_num":"8","correct_side":1,"subjID":"juanandresespañolgaleano24","gender":"0","age":"11","school":"6"},{"start_time":1551795014578,"click_time":1551795016595,"finger_time":1551795015555,"fix_duration":980.4284544620256,"trial":58,"RT":977,"MT":1040,"sideResp":1,"stimulus":"img/750/equaldotanddens/L/14_Ratio_750_L_8_R_6.png","xmouse":[772,772,772,772,772,772,772,772,772,772,772,772,772,772,772,772,772,772,772,772,772,772,772,772,772,772,772,772,772,772,772,772,772,772,772,772,772,772,772,772,773,774,774,775,776,778,781,784,789,793,805,812,819,832,835,840,847,855,884,912,930,941,952,962,968,973,980,988,995,998,1000,1000,1000,1000,1000,1000,1000,1000,1000,998,986,972,966,951,947,944,941,937,923,920,920,919,912,872,844,810,776,724,615,550,465],"ymouse":[540,540,540,540,540,540,540,540,540,540,540,540,540,540,540,540,540,540,540,540,540,540,540,540,540,540,540,540,540,540,540,540,540,540,540,540,540,540,540,540,537,533,525,512,505,496,486,476,454,437,408,390,372,338,326,308,288,268,207,159,139,128,117,106,102,98,94,88,84,83,80,80,80,80,80,80,80,80,80,78,76,75,74,72,72,72,72,72,74,74,74,74,75,75,75,75,75,75,75,75,75],"timestamp_mouse":[17,41,57,78,97,117,137,159,178,197,217,237,258,277,298,317,339,357,378,398,417,438,458,477,497,517,538,559,577,597,617,638,657,677,697,717,737,757,777,797,817,838,857,877,897,917,939,959,977,997,1018,1038,1057,1077,1098,1118,1138,1157,1178,1197,1218,1238,1257,1277,1297,1318,1338,1358,1378,1397,1417,1437,1458,1477,1498,1517,1539,1558,1578,1598,1618,1638,1658,1677,1697,1717,1737,1757,1777,1798,1817,1839,1857,1878,1897,1917,1939,1958,1977,1997,2017],"xSR":741.5,"ySR":469.95,"xT1":424.9,"yT1":0,"xT2":1058.1,"yT2":0,"toosoon":0,"cond_shown":"equaldotanddens","ratio_trial":750,"smaller_num":"6","larger_num":"8","correct_side":1,"subjID":"juanandresespañolgaleano24","gender":"0","age":"11","school":"6"},{"start_time":1551795019381,"click_time":1551795020476,"finger_time":1551795020056,"fix_duration":404.43390745802145,"trial":59,"RT":675,"MT":420,"sideResp":1,"stimulus":"img/500/equaldotanddens/L/10_Ratio_500_L_4_R_2.png","xmouse":[749,749,749,749,749,749,749,749,749,749,749,749,749,749,750,750,750,751,751,751,751,751,751,751,751,751,751,751,751,751,751,751,743,735,730,724,714,700,662,644,635,626,618,609,605,599,593,583,565,552,546,540,537,529,524],"ymouse":[542,542,542,542,542,542,542,542,542,542,542,542,542,542,541,540,539,538,536,535,534,534,533,533,533,533,533,533,533,533,531,527,489,465,449,429,396,361,291,256,235,214,196,175,165,156,144,130,110,99,95,91,89,84,81],"timestamp_mouse":[14,39,55,75,94,115,135,154,175,194,214,234,254,274,295,314,335,355,374,395,414,434,455,474,494,514,534,554,576,594,614,635,656,675,696,714,734,754,774,794,814,834,854,874,895,915,935,955,974,995,1016,1034,1054,1074,1095],"xSR":741.5,"ySR":469.95,"xT1":424.9,"yT1":0,"xT2":1058.1,"yT2":0,"toosoon":0,"cond_shown":"equaldotanddens","ratio_trial":500,"smaller_num":"2","larger_num":"4","correct_side":1,"subjID":"juanandresespañolgaleano24","gender":"0","age":"11","school":"6"},{"start_time":1551795022091,"click_time":1551795022976,"finger_time":1551795022655,"fix_duration":893.0260076612708,"trial":60,"RT":564,"MT":321,"sideResp":1,"stimulus":"img/250/equaldotsize/L/3_Ratio_250_L_8_R_2.png","xmouse":[774,774,774,774,774,774,774,774,774,774,774,774,774,774,774,774,774,774,774,774,774,774,773,770,768,762,756,749,725,709,695,683,671,648,632,623,610,599,578,567,559,551,545,528,515],"ymouse":[512,512,512,512,512,512,512,512,512,512,512,512,512,512,512,512,512,512,512,512,512,511,508,503,499,492,485,477,453,439,427,413,396,361,324,297,265,234,182,165,152,138,128,102,90],"timestamp_mouse":[10,31,44,65,84,104,124,145,164,184,205,224,244,264,285,306,324,345,366,385,406,426,444,464,484,505,525,544,564,585,604,624,645,665,685,705,724,744,765,786,804,824,844,865,885],"xSR":741.5,"ySR":469.95,"xT1":424.9,"yT1":0,"xT2":1058.1,"yT2":0,"toosoon":0,"cond_shown":"equaldotsize","ratio_trial":250,"smaller_num":"2","larger_num":"8","correct_side":1,"subjID":"juanandresespañolgaleano24","gender":"0","age":"11","school":"6"},{"start_time":1551795024904,"click_time":1551795028576,"finger_time":1551795025695,"fix_duration":1027.6357136155173,"trial":61,"RT":791,"MT":2881,"sideResp":2,"stimulus":"img/750/equaldotsize/L/1_Ratio_750_L_20_R_15.png","xmouse":[790,790,790,790,790,790,790,790,790,790,790,790,790,790,790,790,790,790,790,790,790,790,790,790,790,790,790,790,790,790,790,790,789,784,779,775,768,766,765,763,761,760,758,756,754,751,749,742,739,735,730,724,721,718,711,706,699,684,676,670,661,654,637,630,620,618,617,614,614,612,611,610,609,609,609,608,608,607,606,606,606,606,606,606,606,606,606,606,606,606,606,606,608,613,624,632,637,640,641,642,642,644,649,651,654,656,660,661,661,661,661,661,661,661,661,661,662,663,665,665,665,665,667,667,678,709,730,767,767,710,419,0,0,51,394,1014,1014,1014,1014,1014,1464,1012,0,0,0,0,0,0,0,0,0,0,0,0,0,0,0,0,0,0,1304,1503,1577,1298,945,573,171,171,200,367,668,1050,1419,1419,1569,1379,1035,286,152,150,165,259,712,1104],"ymouse":[497,497,497,497,497,497,497,497,497,497,497,497,497,497,497,497,497,497,497,497,497,497,497,497,497,497,497,497,497,497,497,497,496,492,488,484,478,474,472,469,468,466,463,459,455,451,446,431,423,415,404,390,384,376,362,353,341,316,303,292,280,267,239,226,209,204,199,189,184,181,177,175,171,169,169,167,165,163,162,161,160,160,160,159,158,158,157,157,156,156,155,155,152,152,151,151,151,149,149,149,149,149,149,149,149,150,153,154,154,154,154,154,154,154,155,156,160,164,166,167,167,167,168,168,163,148,135,113,113,121,126,131,145,156,140,97,97,97,97,97,39,44,46,15,15,15,15,15,15,15,15,15,15,15,15,15,15,15,15,15,8,62,118,153,163,165,150,148,135,116,95,88,85,85,41,30,30,27,22,21,17,8,8,21],"timestamp_mouse":[11,34,52,71,91,113,131,151,173,191,212,231,251,272,292,312,331,351,372,392,411,432,451,472,491,511,531,551,572,591,612,631,651,671,691,711,733,751,771,791,812,831,851,872,891,911,932,952,971,991,1011,1033,1051,1072,1091,1112,1131,1151,1172,1191,1211,1231,1251,1271,1291,1311,1331,1351,1373,1391,1411,1431,1451,1472,1491,1511,1531,1552,1572,1591,1611,1632,1651,1672,1693,1711,1733,1752,1771,1792,1812,1831,1851,1871,1891,1913,1932,1951,1971,1991,2011,2032,2051,2071,2091,2112,2133,2152,2172,2191,2211,2232,2251,2271,2293,2313,2333,2351,2371,2392,2411,2432,2451,2473,2491,2512,2532,2551,2572,2593,2611,2632,2651,2672,2692,2711,2731,2751,2771,2792,2813,2831,2852,2873,2892,2912,2933,2952,2972,2993,3013,3031,3051,3072,3091,3111,3131,3151,3172,3191,3211,3232,3251,3272,3293,3312,3333,3352,3372,3391,3412,3432,3451,3471,3493,3513,3532,3551,3571,3592,3612,3632,3651,3672],"xSR":741.5,"ySR":469.95,"xT1":424.9,"yT1":0,"xT2":1058.1,"yT2":0,"toosoon":0,"cond_shown":"equaldotsize","ratio_trial":750,"smaller_num":"15","larger_num":"20","correct_side":1,"subjID":"juanandresespañolgaleano24","gender":"0","age":"11","school":"6"},{"start_time":1551795030921,"click_time":1551795033056,"finger_time":1551795032055,"fix_duration":584.9438902473294,"trial":62,"RT":1134,"MT":1001,"sideResp":1,"stimulus":"img/750/randomdotsizeEA/L/8_Ratio_750_L_4_R_3.png","xmouse":[792,792,792,792,792,792,792,792,792,792,792,792,792,792,792,792,792,792,792,792,792,792,792,792,792,792,792,792,792,792,792,792,792,792,792,792,792,792,792,792,792,792,792,792,792,792,792,792,792,792,792,791,788,786,785,783,781,780,779,776,775,759,748,742,738,733,725,723,723,723,723,723,723,723,723,723,723,723,723,723,722,722,722,722,722,721,721,723,724,725,725,725,725,725,725,720,702,689,668,642,613,553,530,522,515,511,506],"ymouse":[489,489,489,489,489,489,489,489,489,489,489,489,489,489,489,489,489,490,490,490,490,490,490,491,491,491,491,491,491,491,491,491,491,491,491,491,491,491,491,491,491,491,491,491,491,491,491,491,491,491,491,491,485,479,474,470,464,461,455,449,439,402,375,362,352,342,324,318,317,317,317,317,317,317,317,317,317,317,317,317,316,316,316,316,316,317,345,363,372,378,378,378,378,378,377,373,357,341,309,266,225,159,133,121,111,105,97],"timestamp_mouse":[15,35,55,74,94,116,134,155,178,196,214,235,255,276,294,314,336,355,375,396,415,434,455,474,494,515,534,554,574,594,615,634,655,674,694,714,735,754,775,795,814,836,854,874,894,914,935,955,974,994,1014,1034,1054,1074,1095,1114,1134,1154,1174,1194,1215,1235,1254,1275,1294,1314,1334,1355,1374,1395,1414,1434,1455,1474,1494,1514,1534,1554,1575,1595,1615,1634,1654,1676,1694,1714,1735,1754,1775,1795,1815,1835,1854,1874,1894,1914,1934,1955,1975,1994,2014,2034,2055,2074,2096,2114,2135],"xSR":741.5,"ySR":469.95,"xT1":424.9,"yT1":0,"xT2":1058.1,"yT2":0,"toosoon":0,"cond_shown":"randomdotsizeEA","ratio_trial":750,"smaller_num":"3","larger_num":"4","correct_side":1,"subjID":"juanandresespañolgaleano24","gender":"0","age":"11","school":"6"},{"start_time":1551795035717,"click_time":1551795037115,"finger_time":1551795036415,"fix_duration":1459.9607365279721,"trial":63,"RT":698,"MT":700,"sideResp":2,"stimulus":"img/750/equaldotsize/L/10_Ratio_750_L_4_R_3.png","xmouse":[779,779,779,779,779,779,779,779,779,779,779,779,779,779,779,779,779,779,779,779,779,779,778,776,773,771,770,769,769,769,769,769,769,769,769,769,763,754,751,744,736,724,701,691,687,684,684,690,700,710,722,731,741,745,749,758,776,825,849,874,895,916,958,989,1011,1033,1047,1055,1055,1057,1059],"ymouse":[509,509,509,509,509,509,509,509,509,509,509,509,509,509,509,509,509,509,509,509,509,509,506,501,492,488,486,483,483,483,483,483,483,483,481,468,449,422,410,390,365,333,283,262,253,247,246,235,223,212,202,194,187,184,182,177,171,150,137,124,114,105,86,75,70,65,60,55,55,54,53],"timestamp_mouse":[1,18,38,59,78,98,118,139,158,178,198,218,239,258,278,298,319,338,358,379,398,418,439,458,479,498,520,538,559,579,598,619,638,659,678,698,718,738,759,779,799,819,838,858,879,898,918,938,960,978,998,1019,1039,1059,1078,1099,1119,1139,1159,1178,1199,1218,1238,1258,1279,1298,1318,1338,1358,1379,1398],"xSR":741.5,"ySR":469.95,"xT1":424.9,"yT1":0,"xT2":1058.1,"yT2":0,"toosoon":0,"cond_shown":"equaldotsize","ratio_trial":750,"smaller_num":"3","larger_num":"4","correct_side":1,"subjID":"juanandresespañolgaleano24","gender":"0","age":"11","school":"6"},{"start_time":1551795040827,"click_time":1551795041835,"finger_time":1551795041415,"fix_duration":970.0785273842603,"trial":64,"RT":588,"MT":420,"sideResp":2,"stimulus":"img/500/equaldotanddens/R/12_Ratio_500_L_1_R_2.png","xmouse":[806,806,806,806,806,806,806,806,806,806,806,806,806,806,806,806,806,806,806,806,804,801,800,799,797,794,792,791,791,791,795,828,851,876,897,914,943,960,986,999,1010,1024,1030,1038,1044,1048,1052,1053,1055,1056,1059],"ymouse":[527,527,527,527,527,527,527,527,527,527,527,527,527,527,527,527,527,527,527,525,524,520,518,516,513,508,501,496,482,454,414,314,267,223,186,157,115,99,76,65,55,45,41,37,35,33,32,32,32,32,32],"timestamp_mouse":[11,35,48,69,90,108,129,149,169,188,208,230,249,269,289,308,328,349,370,388,408,428,449,468,488,508,529,549,568,588,608,629,649,668,689,709,729,749,768,788,810,829,850,868,888,909,928,949,968,988,1008],"xSR":741.5,"ySR":469.95,"xT1":424.9,"yT1":0,"xT2":1058.1,"yT2":0,"toosoon":0,"cond_shown":"equaldotanddens","ratio_trial":500,"smaller_num":"1","larger_num":"2","correct_side":2,"subjID":"juanandresespañolgaleano24","gender":"0","age":"11","school":"6"},{"start_time":1551795043346,"click_time":1551795044416,"finger_time":1551795043955,"fix_duration":250,"trial":65,"RT":609,"MT":461,"sideResp":2,"stimulus":"img/250/equaldotsize/R/11_Ratio_250_L_3_R_12.png","xmouse":[794,794,794,794,794,794,794,794,794,794,794,794,794,794,794,794,794,794,794,794,794,794,794,794,794,794,794,794,794,794,799,804,815,822,830,852,869,886,902,912,928,940,948,959,969,996,1006,1018,1026,1033,1044,1051,1058,1068],"ymouse":[477,477,477,477,477,477,477,477,477,477,477,477,477,477,477,477,477,477,477,477,477,477,477,477,477,477,477,477,474,471,457,444,413,385,360,302,264,224,197,180,159,145,136,126,117,93,82,68,60,54,45,42,38,36],"timestamp_mouse":[10,40,49,71,90,110,129,151,169,190,210,230,250,269,289,309,329,350,369,390,409,431,450,469,490,509,530,550,571,590,609,630,650,669,689,709,729,750,769,789,809,831,849,869,890,910,930,950,969,990,1009,1030,1049,1070],"xSR":741.5,"ySR":469.95,"xT1":424.9,"yT1":0,"xT2":1058.1,"yT2":0,"toosoon":0,"cond_shown":"equaldotsize","ratio_trial":250,"smaller_num":"3","larger_num":"12","correct_side":2,"subjID":"juanandresespañolgaleano24","gender":"0","age":"11","school":"6"},{"start_time":1551795045568,"click_time":1551795046335,"finger_time":1551795046075,"fix_duration":250,"trial":66,"RT":507,"MT":260,"sideResp":2,"stimulus":"img/500/equaldotanddens/R/2_Ratio_500_L_3_R_6.png","xmouse":[801,801,801,801,801,801,801,801,801,801,801,801,801,801,801,801,801,801,801,801,801,801,801,807,828,843,857