[{"start_time":1551793940408,"click_time":1551793947964,"finger_time":1551793946443,"fix_duration":782.2856499681836,"trial":0,"RT":6035,"MT":1521,"sideResp":2,"stimulus":[],"xmouse":[804,802,802,799,799,799,799,799,799,799,799,799,799,799,799,799,799,799,799,799,799,799,799,799,799,799,799,799,799,799,799,799,799,799,799,799,799,799,799,799,799,799,799,799,799,799,799,799,799,799,799,799,799,799,799,799,799,799,799,799,799,799,799,799,799,799,799,799,799,799,799,799,799,799,799,799,799,799,799,799,799,799,799,799,799,799,799,799,799,799,799,799,799,799,799,799,799,799,800,800,800,799,795,795,795,795,795,795,795,795,795,794,792,791,791,791,790,790,790,790,790,790,790,790,790,790,790,790,790,790,790,790,790,790,790,790,790,790,790,790,790,790,790,790,790,790,790,790,790,790,790,790,790,790,790,790,790,790,790,790,790,790,790,790,790,790,790,790,790,790,790,789,788,786,783,779,776,773,770,767,766,766,766,766,766,766,766,766,766,766,766,766,766,766,769,770,770,771,771,771,771,770,770,770,770,770,770,770,770,770,770,770,770,770,770,770,768,768,768,767,766,765,765,765,765,765,765,765,765,765,765,765,765,765,765,765,765,765,765,765,765,765,765,765,765,765,765,765,765,765,765,765,765,765,765,765,765,765,765,765,765,765,765,765,765,765,765,765,765,765,765,765,765,765,765,765,765,765,765,765,765,765,765,765,765,765,765,765,765,765,765,765,765,765,765,765,765,765,768,784,808,850,902,1031,1103,1173,1220,1318,1350,1361,1366,1366,1366,1366,1366,1366,1366,1366,1366,1366,1366,1366,1366,1366,1366,1366,1366,1366,1364,1363,1362,1361,1359,1359,1358,1357,1356,1353,1353,1353,1353,1353,1353,1353,1353,1353,1353,1353,1353,1353,1353,1353,1352,1341,1335,1329,1318,1307,1280,1265,1256,1247,1238,1215,1203,1190,1174,1151,1149,1149,1149,1150,1158,1158,1158,1157,1157,1157],"ymouse":[528,533,533,540,540,540,540,540,540,540,540,540,540,540,540,540,540,540,540,540,540,540,540,540,541,541,541,541,541,541,541,541,541,541,541,541,541,541,541,541,541,541,541,541,541,541,541,541,541,541,541,541,541,541,541,541,541,541,541,541,541,541,541,541,541,541,541,541,541,541,541,541,541,541,541,541,541,541,541,541,541,541,541,541,541,541,541,541,541,541,541,541,541,539,528,513,497,489,488,488,488,489,498,498,498,498,498,498,498,498,500,503,507,510,512,512,513,513,513,513,513,513,513,513,513,513,513,513,513,513,513,513,513,513,513,513,509,508,508,508,508,508,508,508,508,508,508,508,508,508,508,508,508,508,508,508,508,508,508,508,508,508,508,508,507,507,507,507,507,507,507,506,506,507,508,510,512,513,518,523,525,527,527,527,527,527,527,527,527,527,527,527,527,526,522,520,519,518,518,518,523,525,526,526,526,526,526,526,526,526,526,526,526,526,526,528,532,533,536,540,544,546,546,546,546,546,546,546,546,547,547,547,547,547,547,547,547,547,547,547,547,547,547,547,547,547,547,547,547,547,547,547,547,547,547,547,547,547,547,547,547,547,547,547,547,547,547,547,547,547,547,547,547,547,547,547,547,547,547,547,547,547,547,547,547,547,547,547,547,547,547,547,547,547,547,547,547,547,544,525,492,434,368,244,185,143,117,87,81,80,80,80,80,80,80,80,80,80,80,80,80,80,80,80,80,80,80,81,83,85,86,87,89,90,91,93,96,105,108,110,110,110,110,110,110,110,110,110,110,110,110,110,112,117,119,122,126,132,146,155,159,162,165,168,172,178,185,195,197,197,196,183,146,126,111,104,101,98],"timestamp_mouse":[15,50,54,74,96,114,136,154,174,196,215,235,254,275,296,315,335,354,376,395,415,435,455,476,495,515,535,554,574,595,615,636,654,674,695,715,735,756,774,795,815,835,855,876,894,915,935,954,974,994,1016,1035,1055,1076,1094,1115,1135,1154,1174,1195,1215,1236,1255,1274,1294,1314,1334,1355,1374,1395,1415,1435,1454,1474,1496,1514,1534,1554,1575,1596,1615,1634,1654,1675,1696,1714,1734,1754,1774,1795,1815,1836,1854,1875,1895,1914,1935,1954,1974,1996,2015,2035,2055,2076,2096,2115,2134,2155,2174,2195,2214,2234,2256,2274,2295,2316,2335,2354,2375,2395,2414,2434,2456,2476,2495,2515,2535,2554,2574,2595,2616,2636,2654,2674,2695,2716,2735,2754,2774,2796,2814,2835,2854,2876,2896,2915,2934,2954,2974,2996,3015,3034,3055,3074,3095,3115,3134,3155,3174,3194,3215,3235,3254,3275,3296,3314,3334,3356,3376,3394,3415,3434,3454,3474,3495,3514,3534,3554,3574,3594,3616,3635,3655,3676,3694,3715,3736,3755,3776,3794,3815,3836,3855,3874,3895,3915,3935,3954,3975,3996,4015,4034,4054,4075,4094,4115,4136,4154,4174,4196,4215,4235,4254,4274,4294,4315,4334,4354,4374,4394,4414,4434,4454,4476,4494,4514,4535,4554,4575,4595,4615,4634,4655,4676,4694,4715,4734,4756,4774,4796,4815,4834,4855,4874,4895,4914,4935,4955,4976,4994,5014,5035,5054,5076,5095,5114,5135,5154,5175,5194,5214,5234,5254,5274,5294,5314,5335,5354,5375,5394,5415,5435,5454,5474,5494,5515,5535,5554,5574,5596,5615,5635,5654,5675,5696,5715,5735,5754,5775,5794,5814,5835,5854,5874,5894,5914,5935,5954,5974,5994,6014,6035,6054,6075,6095,6114,6136,6156,6174,6194,6215,6234,6255,6276,6294,6315,6334,6355,6374,6394,6415,6435,6455,6474,6495,6514,6534,6555,6574,6594,6614,6635,6656,6674,6694,6714,6736,6756,6774,6794,6816,6835,6854,6875,6895,6914,6935,6955,6975,6994,7015,7036,7055,7075,7095,7116,7135,7155,7175,7195,7214,7234,7255,7274,7295,7314,7334,7356,7375,7395,7414,7434,7456,7474,7494,7515,7534,7555],"xSR":741.5,"ySR":501.8,"xT1":424.9,"yT1":0,"xT2":1058.1,"yT2":0,"toosoon":0,"cond_shown":"Congruent","ratio_trial":100,"L_num":3,"L_den":6,"R_num":2,"R_den":5,"correct_side":1,"subjID":"juanandresespañolgaleano24","gender":"0","age":"11","school":"6","test":{"fix_dur":[250,1500],"timestim":1000,"targets_dim":[100,100],"targets_relative_coord":[0.3,0.7],"size_stim":[880,420],"start_dim":[100,100],"size_start":[300,300],"size_fix":60,"samplingrate":20,"img_types":["Congruent","Incongruent"],"ratios":[100,200,300],"rep_conds":19,"nTrials":120,"trials_to_rest":500,"Trials_order":[6,9,2,4,28,101,110,71,12,10,111,49,79,61,119,24,107,117,51,67,3,16,8,85,33,42,116,86,59,53,23,44,104,112,99,88,87,65,40,92,52,7,15,31,48,62,70,35,102,80,39,21,58,114,75,38,69,105,96,54,91,106,25,84,108,29,66,37,30,100,82,45,43,46,103,41,22,81,26,17,98,118,97,55,77,83,50,94,47,76,95,68,115,74,64,19,1,109,89,5,90,78,11,63,34,14,56,93,60,13,27,20,18,32,72,0,73,36,113,57],"cond_shown":["Congruent","Incongruent","Congruent","Congruent","Congruent","Incongruent","Congruent","Incongruent","Congruent","Congruent","Incongruent","Incongruent","Incongruent","Incongruent","Incongruent","Congruent","Incongruent","Incongruent","Incongruent","Incongruent","Incongruent","Congruent","Congruent","Incongruent","Incongruent","Congruent","Congruent","Congruent","Incongruent","Incongruent","Incongruent","Congruent","Congruent","Congruent","Incongruent","Congruent","Incongruent","Incongruent","Congruent","Congruent","Congruent","Incongruent","Incongruent","Incongruent","Congruent","Congruent","Congruent","Incongruent","Congruent","Congruent","Incongruent","Incongruent","Congruent","Congruent","Incongruent","Congruent","Incongruent","Incongruent","Congruent","Congruent","Incongruent","Congruent","Incongruent","Congruent","Congruent","Incongruent","Congruent","Incongruent","Congruent","Congruent","Congruent","Incongruent","Incongruent","Congruent","Incongruent","Incongruent","Congruent","Incongruent","Congruent","Incongruent","Congruent","Congruent","Incongruent","Incongruent","Incongruent","Incongruent","Congruent","Congruent","Incongruent","Congruent","Incongruent","Congruent","Incongruent","Congruent","Congruent","Incongruent","Incongruent","Incongruent","Incongruent","Incongruent","Congruent","Congruent","Incongruent","Incongruent","Congruent","Congruent","Congruent","Incongruent","Congruent","Incongruent","Incongruent","Congruent","Congruent","Congruent","Congruent","Congruent","Incongruent","Congruent","Incongruent","Incongruent"],"ratio_trial":[100,200,200,300,300,300,200,300,100,300,200,100,100,100,300,100,300,200,200,100,200,300,200,100,200,100,200,200,300,300,300,200,200,300,200,300,200,300,300,200,300,100,200,100,100,200,300,300,100,200,200,200,300,100,200,200,200,200,100,100,100,300,100,100,100,300,100,100,100,300,300,200,100,300,100,300,300,200,200,300,200,300,100,100,300,300,200,300,300,300,300,200,100,200,300,100,100,100,300,300,100,100,300,200,300,200,200,200,100,100,200,200,100,200,100,100,100,100,300,200],"left_num":[3,7,4,1,20,4,20,1,1,4,7,6,10,13,8,9,4,7,3,6,6,20,3,9,3,11,11,8,4,13,4,21,12,8,1,24,1,4,5,3,11,3,1,8,4,3,20,4,11,3,7,14,3,15,1,9,4,1,12,10,12,20,6,1,11,13,3,9,11,20,3,7,3,7,2,8,1,3,3,4,7,11,6,12,13,13,3,3,8,11,1,9,6,3,11,3,6,10,2,13,15,11,1,7,11,5,15,1,3,2,4,15,1,9,11,2,17,6,7,4],"right_num":[2,6,3,8,14,2,9,3,3,1,4,11,8,6,9,8,2,4,11,7,3,8,11,6,1,4,3,7,2,12,2,2,6,10,2,8,3,2,7,9,2,7,2,6,6,14,9,2,6,9,8,6,11,13,2,13,6,3,13,3,9,5,11,18,4,12,4,6,6,8,11,4,8,20,6,9,3,1,7,2,2,1,3,2,12,12,7,2,9,1,2,13,11,11,1,11,13,8,6,12,13,4,3,4,1,14,4,3,4,8,14,4,3,13,6,11,10,15,8,14],"left_den":[6,15,10,30,25,20,25,2,2,10,15,10,25,26,10,15,20,15,4,10,20,25,10,18,10,22,22,15,20,26,20,30,20,15,3,30,2,20,25,12,22,9,3,16,8,10,25,20,22,12,10,30,12,25,3,30,5,2,30,25,24,25,10,2,22,26,20,18,22,25,12,15,5,14,4,10,5,10,10,20,21,22,12,30,26,26,10,6,10,22,2,30,10,10,22,5,10,25,4,26,25,22,2,15,22,10,25,2,20,4,6,25,2,30,22,5,30,12,10,6],"right_den":[5,9,15,24,28,4,15,15,5,10,6,22,16,10,18,16,4,6,20,14,6,16,22,10,2,10,10,21,4,15,4,4,15,12,15,16,10,4,14,20,10,30,15,10,10,28,18,4,15,20,16,9,20,26,15,26,10,10,26,10,15,10,22,30,10,15,16,10,15,16,20,6,16,25,15,18,6,2,14,4,15,5,5,4,15,15,14,10,18,5,10,26,22,22,5,22,26,16,30,15,26,10,15,6,5,20,10,10,16,20,30,10,5,26,15,22,15,25,20,30],"correct_side":[1,2,1,2,1,2,1,1,2,1,2,1,2,2,1,1,2,2,1,1,2,1,2,2,2,1,1,1,2,2,2,1,1,2,1,1,1,2,2,2,1,1,1,2,2,2,1,2,1,2,1,2,2,1,1,2,1,1,2,1,2,1,1,2,1,2,2,2,1,1,2,2,1,2,1,1,2,2,2,2,1,1,2,2,2,2,2,1,1,1,1,2,1,2,1,1,1,2,1,2,1,1,1,2,1,2,1,1,2,1,1,1,2,2,1,2,2,2,1,1],"img_shown":["img2/100/Congruent/L/C_Dist_100_LN_3_LD_6_RN_2_RD_5_0.png","img2/200/Incongruent/R/I_Dist_200_LN_7_LD_15_RN_6_RD_9_1.png","img2/200/Congruent/L/C_Dist_200_LN_4_LD_10_RN_3_RD_15_0.png","img2/300/Congruent/R/C_Dist_300_LN_1_LD_30_RN_8_RD_24_1.png","img2/300/Congruent/L/C_Dist_300_LN_20_LD_25_RN_14_RD_28_0.png","img2/300/Incongruent/R/I_Dist_300_LN_4_LD_20_RN_2_RD_4_1.png","img2/200/Congruent/L/C_Dist_200_LN_20_LD_25_RN_9_RD_15_0.png","img2/300/Incongruent/L/I_Dist_300_LN_1_LD_2_RN_3_RD_15_0.png","img2/100/Congruent/R/C_Dist_100_LN_1_LD_2_RN_3_RD_5_1.png","img2/300/Congruent/L/C_Dist_300_LN_4_LD_10_RN_1_RD_10_0.png","img2/200/Incongruent/R/I_Dist_200_LN_7_LD_15_RN_4_RD_6_1.png","img2/100/Incongruent/L/I_Dist_100_LN_6_LD_10_RN_11_RD_22_0.png","img2/100/Incongruent/R/I_Dist_100_LN_10_LD_25_RN_8_RD_16_1.png","img2/100/Incongruent/R/I_Dist_100_LN_13_LD_26_RN_6_RD_10_1.png","img2/300/Incongruent/L/I_Dist_300_LN_8_LD_10_RN_9_RD_18_0.png","img2/100/Congruent/L/C_Dist_100_LN_9_LD_15_RN_8_RD_16_0.png","img2/300/Incongruent/R/I_Dist_300_LN_4_LD_20_RN_2_RD_4_1.png","img2/200/Incongruent/R/I_Dist_200_LN_7_LD_15_RN_4_RD_6_1.png","img2/200/Incongruent/L/I_Dist_200_LN_3_LD_4_RN_11_RD_20_0.png","img2/100/Incongruent/L/I_Dist_100_LN_6_LD_10_RN_7_RD_14_0.png","img2/200/Incongruent/R/I_Dist_200_LN_6_LD_20_RN_3_RD_6_1.png","img2/300/Congruent/L/C_Dist_300_LN_20_LD_25_RN_8_RD_16_0.png","img2/200/Congruent/R/C_Dist_200_LN_3_LD_10_RN_11_RD_22_1.png","img2/100/Incongruent/R/I_Dist_100_LN_9_LD_18_RN_6_RD_10_1.png","img2/200/Incongruent/R/I_Dist_200_LN_3_LD_10_RN_1_RD_2_1.png","img2/100/Congruent/L/C_Dist_100_LN_11_LD_22_RN_4_RD_10_0.png","img2/200/Congruent/L/C_Dist_200_LN_11_LD_22_RN_3_RD_10_0.png","img2/200/Congruent/L/C_Dist_200_LN_8_LD_15_RN_7_RD_21_0.png","img2/300/Incongruent/R/I_Dist_300_LN_4_LD_20_RN_2_RD_4_1.png","img2/300/Incongruent/R/I_Dist_300_LN_13_LD_26_RN_12_RD_15_1.png","img2/300/Incongruent/R/I_Dist_300_LN_4_LD_20_RN_2_RD_4_1.png","img2/200/Congruent/L/C_Dist_200_LN_21_LD_30_RN_2_RD_4_0.png","img2/200/Congruent/L/C_Dist_200_LN_12_LD_20_RN_6_RD_15_0.png","img2/300/Congruent/R/C_Dist_300_LN_8_LD_15_RN_10_RD_12_1.png","img2/200/Incongruent/L/I_Dist_200_LN_1_LD_3_RN_2_RD_15_0.png","img2/300/Congruent/L/C_Dist_300_LN_24_LD_30_RN_8_RD_16_0.png","img2/200/Incongruent/L/I_Dist_200_LN_1_LD_2_RN_3_RD_10_0.png","img2/300/Incongruent/R/I_Dist_300_LN_4_LD_20_RN_2_RD_4_1.png","img2/300/Congruent/R/C_Dist_300_LN_5_LD_25_RN_7_RD_14_1.png","img2/200/Congruent/R/C_Dist_200_LN_3_LD_12_RN_9_RD_20_1.png","img2/300/Congruent/L/C_Dist_300_LN_11_LD_22_RN_2_RD_10_0.png","img2/100/Incongruent/L/I_Dist_100_LN_3_LD_9_RN_7_RD_30_0.png","img2/200/Incongruent/L/I_Dist_200_LN_1_LD_3_RN_2_RD_15_0.png","img2/100/Incongruent/R/I_Dist_100_LN_8_LD_16_RN_6_RD_10_1.png","img2/100/Congruent/R/C_Dist_100_LN_4_LD_8_RN_6_RD_10_1.png","img2/200/Congruent/R/C_Dist_200_LN_3_LD_10_RN_14_RD_28_1.png","img2/300/Congruent/L/C_Dist_300_LN_20_LD_25_RN_9_RD_18_0.png","img2/300/Incongruent/R/I_Dist_300_LN_4_LD_20_RN_2_RD_4_1.png","img2/100/Congruent/L/C_Dist_100_LN_11_LD_22_RN_6_RD_15_0.png","img2/200/Congruent/R/C_Dist_200_LN_3_LD_12_RN_9_RD_20_1.png","img2/200/Incongruent/L/I_Dist_200_LN_7_LD_10_RN_8_RD_16_0.png","img2/200/Incongruent/R/I_Dist_200_LN_14_LD_30_RN_6_RD_9_1.png","img2/300/Congruent/R/C_Dist_300_LN_3_LD_12_RN_11_RD_20_1.png","img2/100/Congruent/L/C_Dist_100_LN_15_LD_25_RN_13_RD_26_0.png","img2/200/Incongruent/L/I_Dist_200_LN_1_LD_3_RN_2_RD_15_0.png","img2/200/Congruent/R/C_Dist_200_LN_9_LD_30_RN_13_RD_26_1.png","img2/200/Incongruent/L/I_Dist_200_LN_4_LD_5_RN_6_RD_10_0.png","img2/200/Incongruent/L/I_Dist_200_LN_1_LD_2_RN_3_RD_10_0.png","img2/100/Congruent/R/C_Dist_100_LN_12_LD_30_RN_13_RD_26_1.png","img2/100/Congruent/L/C_Dist_100_LN_10_LD_25_RN_3_RD_10_0.png","img2/100/Incongruent/R/I_Dist_100_LN_12_LD_24_RN_9_RD_15_1.png","img2/300/Congruent/L/C_Dist_300_LN_20_LD_25_RN_5_RD_10_0.png","img2/100/Incongruent/L/I_Dist_100_LN_6_LD_10_RN_11_RD_22_0.png","img2/100/Congruent/R/C_Dist_100_LN_1_LD_2_RN_18_RD_30_1.png","img2/100/Congruent/L/C_Dist_100_LN_11_LD_22_RN_4_RD_10_0.png","img2/300/Incongruent/R/I_Dist_300_LN_13_LD_26_RN_12_RD_15_1.png","img2/100/Congruent/R/C_Dist_100_LN_3_LD_20_RN_4_RD_16_1.png","img2/100/Incongruent/R/I_Dist_100_LN_9_LD_18_RN_6_RD_10_1.png","img2/100/Congruent/L/C_Dist_100_LN_11_LD_22_RN_6_RD_15_0.png","img2/300/Congruent/L/C_Dist_300_LN_20_LD_25_RN_8_RD_16_0.png","img2/300/Congruent/R/C_Dist_300_LN_3_LD_12_RN_11_RD_20_1.png","img2/200/Incongruent/R/I_Dist_200_LN_7_LD_15_RN_4_RD_6_1.png","img2/100/Incongruent/L/I_Dist_100_LN_3_LD_5_RN_8_RD_16_0.png","img2/300/Congruent/R/C_Dist_300_LN_7_LD_14_RN_20_RD_25_1.png","img2/100/Incongruent/L/I_Dist_100_LN_2_LD_4_RN_6_RD_15_0.png","img2/300/Incongruent/L/I_Dist_300_LN_8_LD_10_RN_9_RD_18_0.png","img2/300/Congruent/R/C_Dist_300_LN_1_LD_5_RN_3_RD_6_1.png","img2/200/Incongruent/R/I_Dist_200_LN_3_LD_10_RN_1_RD_2_1.png","img2/200/Congruent/R/C_Dist_200_LN_3_LD_10_RN_7_RD_14_1.png","img2/300/Incongruent/R/I_Dist_300_LN_4_LD_20_RN_2_RD_4_1.png","img2/200/Congruent/L/C_Dist_200_LN_7_LD_21_RN_2_RD_15_0.png","img2/300/Congruent/L/C_Dist_300_LN_11_LD_22_RN_1_RD_5_0.png","img2/100/Incongruent/R/I_Dist_100_LN_6_LD_12_RN_3_RD_5_1.png","img2/100/Incongruent/R/I_Dist_100_LN_12_LD_30_RN_2_RD_4_1.png","img2/300/Incongruent/R/I_Dist_300_LN_13_LD_26_RN_12_RD_15_1.png","img2/300/Incongruent/R/I_Dist_300_LN_13_LD_26_RN_12_RD_15_1.png","img2/200/Congruent/R/C_Dist_200_LN_3_LD_10_RN_7_RD_14_1.png","img2/300/Congruent/L/C_Dist_300_LN_3_LD_6_RN_2_RD_10_0.png","img2/300/Incongruent/L/I_Dist_300_LN_8_LD_10_RN_9_RD_18_0.png","img2/300/Congruent/L/C_Dist_300_LN_11_LD_22_RN_1_RD_5_0.png","img2/300/Incongruent/L/I_Dist_300_LN_1_LD_2_RN_2_RD_10_0.png","img2/200/Congruent/R/C_Dist_200_LN_9_LD_30_RN_13_RD_26_1.png","img2/100/Incongruent/L/I_Dist_100_LN_6_LD_10_RN_11_RD_22_0.png","img2/200/Congruent/R/C_Dist_200_LN_3_LD_10_RN_11_RD_22_1.png","img2/300/Congruent/L/C_Dist_300_LN_11_LD_22_RN_1_RD_5_0.png","img2/100/Incongruent/L/I_Dist_100_LN_3_LD_5_RN_11_RD_22_0.png","img2/100/Incongruent/L/I_Dist_100_LN_6_LD_10_RN_13_RD_26_0.png","img2/100/Incongruent/R/I_Dist_100_LN_10_LD_25_RN_8_RD_16_1.png","img2/300/Incongruent/L/I_Dist_300_LN_2_LD_4_RN_6_RD_30_0.png","img2/300/Incongruent/R/I_Dist_300_LN_13_LD_26_RN_12_RD_15_1.png","img2/100/Congruent/L/C_Dist_100_LN_15_LD_25_RN_13_RD_26_0.png","img2/100/Congruent/L/C_Dist_100_LN_11_LD_22_RN_4_RD_10_0.png","img2/300/Incongruent/L/I_Dist_300_LN_1_LD_2_RN_3_RD_15_0.png","img2/200/Incongruent/R/I_Dist_200_LN_7_LD_15_RN_4_RD_6_1.png","img2/300/Congruent/L/C_Dist_300_LN_11_LD_22_RN_1_RD_5_0.png","img2/200/Congruent/R/C_Dist_200_LN_5_LD_10_RN_14_RD_20_1.png","img2/200/Congruent/L/C_Dist_200_LN_15_LD_25_RN_4_RD_10_0.png","img2/200/Incongruent/L/I_Dist_200_LN_1_LD_2_RN_3_RD_10_0.png","img2/100/Congruent/R/C_Dist_100_LN_3_LD_20_RN_4_RD_16_1.png","img2/100/Incongruent/L/I_Dist_100_LN_2_LD_4_RN_8_RD_20_0.png","img2/200/Incongruent/L/I_Dist_200_LN_4_LD_6_RN_14_RD_30_0.png","img2/200/Congruent/L/C_Dist_200_LN_15_LD_25_RN_4_RD_10_0.png","img2/100/Congruent/R/C_Dist_100_LN_1_LD_2_RN_3_RD_5_1.png","img2/200/Congruent/R/C_Dist_200_LN_9_LD_30_RN_13_RD_26_1.png","img2/100/Congruent/L/C_Dist_100_LN_11_LD_22_RN_6_RD_15_0.png","img2/100/Congruent/R/C_Dist_100_LN_2_LD_5_RN_11_RD_22_1.png","img2/100/Incongruent/R/I_Dist_100_LN_17_LD_30_RN_10_RD_15_1.png","img2/100/Congruent/R/C_Dist_100_LN_6_LD_12_RN_15_RD_25_1.png","img2/300/Incongruent/L/I_Dist_300_LN_7_LD_10_RN_8_RD_20_0.png","img2/200/Incongruent/L/I_Dist_200_LN_4_LD_6_RN_14_RD_30_0.png"],"dist100_C":[["C_Dist_100_LN_10_LD_25_RN_3_RD_10_0.png","C_Dist_100_LN_11_LD_22_RN_4_RD_10_0.png","C_Dist_100_LN_11_LD_22_RN_6_RD_15_0.png","C_Dist_100_LN_15_LD_25_RN_13_RD_26_0.png","C_Dist_100_LN_3_LD_6_RN_2_RD_5_0.png","C_Dist_100_LN_6_LD_20_RN_5_RD_25_0.png","C_Dist_100_LN_8_LD_16_RN_2_RD_5_0.png","C_Dist_100_LN_9_LD_15_RN_8_RD_16_0.png"],["C_Dist_100_LN_1_LD_2_RN_18_RD_30_1.png","C_Dist_100_LN_1_LD_2_RN_3_RD_5_1.png","C_Dist_100_LN_12_LD_30_RN_13_RD_26_1.png","C_Dist_100_LN_2_LD_5_RN_11_RD_22_1.png","C_Dist_100_LN_2_LD_5_RN_6_RD_12_1.png","C_Dist_100_LN_3_LD_20_RN_4_RD_16_1.png","C_Dist_100_LN_4_LD_10_RN_15_RD_30_1.png","C_Dist_100_LN_4_LD_8_RN_6_RD_10_1.png","C_Dist_100_LN_6_LD_12_RN_15_RD_25_1.png","C_Dist_100_LN_7_LD_14_RN_15_RD_25_1.png","C_Dist_100_LN_7_LD_14_RN_9_RD_15_1.png"]],"dist100_I":[["I_Dist_100_LN_1_LD_2_RN_8_RD_20_0.png","I_Dist_100_LN_2_LD_4_RN_6_RD_15_0.png","I_Dist_100_LN_2_LD_4_RN_8_RD_20_0.png","I_Dist_100_LN_3_LD_5_RN_11_RD_22_0.png","I_Dist_100_LN_3_LD_5_RN_8_RD_16_0.png","I_Dist_100_LN_3_LD_6_RN_4_RD_10_0.png","I_Dist_100_LN_3_LD_9_RN_7_RD_30_0.png","I_Dist_100_LN_4_LD_8_RN_8_RD_20_0.png","I_Dist_100_LN_6_LD_10_RN_11_RD_22_0.png","I_Dist_100_LN_6_LD_10_RN_13_RD_26_0.png","I_Dist_100_LN_6_LD_10_RN_7_RD_14_0.png","I_Dist_100_LN_9_LD_10_RN_20_RD_25_0.png","I_Dist_100_LN_9_LD_15_RN_13_RD_26_0.png","I_Dist_100_LN_9_LD_15_RN_14_RD_28_0.png"],["I_Dist_100_LN_10_LD_25_RN_8_RD_16_1.png","I_Dist_100_LN_10_LD_25_RN_9_RD_18_1.png","I_Dist_100_LN_11_LD_22_RN_9_RD_15_1.png","I_Dist_100_LN_12_LD_24_RN_9_RD_15_1.png","I_Dist_100_LN_12_LD_30_RN_2_RD_4_1.png","I_Dist_100_LN_13_LD_26_RN_12_RD_20_1.png","I_Dist_100_LN_13_LD_26_RN_6_RD_10_1.png","I_Dist_100_LN_17_LD_30_RN_10_RD_15_1.png","I_Dist_100_LN_6_LD_12_RN_3_RD_5_1.png","I_Dist_100_LN_8_LD_16_RN_6_RD_10_1.png","I_Dist_100_LN_8_LD_20_RN_1_RD_2_1.png","I_Dist_100_LN_9_LD_18_RN_6_RD_10_1.png"]],"dist100_S":[["E_Dist_100_LN_2_LD_12_RN_2_RD_30_0.png","E_Dist_100_LN_6_LD_10_RN_6_RD_12_0.png"],["E_Dist_100_LN_6_LD_12_RN_6_RD_10_1.png"]],"dist200_C":[["C_Dist_200_LN_11_LD_22_RN_3_RD_10_0.png","C_Dist_200_LN_12_LD_15_RN_6_RD_10_0.png","C_Dist_200_LN_12_LD_20_RN_6_RD_15_0.png","C_Dist_200_LN_14_LD_28_RN_6_RD_20_0.png","C_Dist_200_LN_15_LD_25_RN_4_RD_10_0.png","C_Dist_200_LN_16_LD_20_RN_12_RD_20_0.png","C_Dist_200_LN_16_LD_30_RN_9_RD_27_0.png","C_Dist_200_LN_20_LD_25_RN_9_RD_15_0.png","C_Dist_200_LN_21_LD_30_RN_2_RD_4_0.png","C_Dist_200_LN_4_LD_10_RN_3_RD_15_0.png","C_Dist_200_LN_4_LD_8_RN_3_RD_10_0.png","C_Dist_200_LN_6_LD_15_RN_3_RD_15_0.png","C_Dist_200_LN_7_LD_21_RN_2_RD_15_0.png","C_Dist_200_LN_8_LD_15_RN_2_RD_6_0.png","C_Dist_200_LN_8_LD_15_RN_3_RD_9_0.png","C_Dist_200_LN_8_LD_15_RN_7_RD_21_0.png","C_Dist_200_LN_9_LD_20_RN_4_RD_16_0.png"],["C_Dist_200_LN_1_LD_2_RN_21_RD_30_1.png","C_Dist_200_LN_13_LD_26_RN_14_RD_20_1.png","C_Dist_200_LN_3_LD_10_RN_11_RD_22_1.png","C_Dist_200_LN_3_LD_10_RN_14_RD_28_1.png","C_Dist_200_LN_3_LD_10_RN_7_RD_14_1.png","C_Dist_200_LN_3_LD_12_RN_9_RD_20_1.png","C_Dist_200_LN_3_LD_6_RN_14_RD_20_1.png","C_Dist_200_LN_5_LD_10_RN_14_RD_20_1.png","C_Dist_200_LN_6_LD_12_RN_7_RD_10_1.png","C_Dist_200_LN_6_LD_20_RN_11_RD_22_1.png","C_Dist_200_LN_7_LD_15_RN_18_RD_27_1.png","C_Dist_200_LN_9_LD_30_RN_13_RD_26_1.png"]],"dist200_I":[["I_Dist_200_LN_1_LD_2_RN_3_RD_10_0.png","I_Dist_200_LN_1_LD_3_RN_2_RD_15_0.png","I_Dist_200_LN_3_LD_4_RN_11_RD_20_0.png","I_Dist_200_LN_4_LD_5_RN_6_RD_10_0.png","I_Dist_200_LN_4_LD_6_RN_14_RD_30_0.png","I_Dist_200_LN_7_LD_10_RN_12_RD_24_0.png","I_Dist_200_LN_7_LD_10_RN_14_RD_28_0.png","I_Dist_200_LN_7_LD_10_RN_8_RD_16_0.png"],["I_Dist_200_LN_11_LD_20_RN_3_RD_4_1.png","I_Dist_200_LN_14_LD_30_RN_12_RD_18_1.png","I_Dist_200_LN_14_LD_30_RN_6_RD_9_1.png","I_Dist_200_LN_3_LD_10_RN_1_RD_2_1.png","I_Dist_200_LN_4_LD_30_RN_1_RD_3_1.png","I_Dist_200_LN_6_LD_20_RN_3_RD_6_1.png","I_Dist_200_LN_7_LD_15_RN_4_RD_6_1.png","I_Dist_200_LN_7_LD_15_RN_6_RD_9_1.png","I_Dist_200_LN_9_LD_15_RN_8_RD_10_1.png"]],"dist200_S":[["E_Dist_200_LN_3_LD_6_RN_3_RD_10_0.png"],["E_Dist_200_LN_3_LD_10_RN_3_RD_6_1.png"]],"dist300_C":[["C_Dist_300_LN_11_LD_22_RN_1_RD_5_0.png","C_Dist_300_LN_11_LD_22_RN_2_RD_10_0.png","C_Dist_300_LN_11_LD_22_RN_4_RD_20_0.png","C_Dist_300_LN_12_LD_24_RN_2_RD_10_0.png","C_Dist_300_LN_18_LD_20_RN_9_RD_15_0.png","C_Dist_300_LN_20_LD_25_RN_13_RD_26_0.png","C_Dist_300_LN_20_LD_25_RN_14_RD_28_0.png","C_Dist_300_LN_20_LD_25_RN_5_RD_10_0.png","C_Dist_300_LN_20_LD_25_RN_8_RD_16_0.png","C_Dist_300_LN_20_LD_25_RN_9_RD_18_0.png","C_Dist_300_LN_24_LD_30_RN_2_RD_4_0.png","C_Dist_300_LN_24_LD_30_RN_8_RD_16_0.png","C_Dist_300_LN_3_LD_6_RN_2_RD_10_0.png","C_Dist_300_LN_4_LD_10_RN_1_RD_10_0.png","C_Dist_300_LN_4_LD_5_RN_2_RD_4_0.png","C_Dist_300_LN_8_LD_16_RN_1_RD_5_0.png","C_Dist_300_LN_9_LD_10_RN_3_RD_5_0.png"],["C_Dist_300_LN_1_LD_20_RN_7_RD_20_1.png","C_Dist_300_LN_1_LD_3_RN_19_RD_30_1.png","C_Dist_300_LN_1_LD_30_RN_8_RD_24_1.png","C_Dist_300_LN_1_LD_5_RN_11_RD_22_1.png","C_Dist_300_LN_1_LD_5_RN_3_RD_6_1.png","C_Dist_300_LN_1_LD_5_RN_6_RD_12_1.png","C_Dist_300_LN_2_LD_10_RN_12_RD_24_1.png","C_Dist_300_LN_2_LD_20_RN_10_RD_25_1.png","C_Dist_300_LN_3_LD_12_RN_11_RD_20_1.png","C_Dist_300_LN_3_LD_6_RN_4_RD_5_1.png","C_Dist_300_LN_4_LD_20_RN_13_RD_26_1.png","C_Dist_300_LN_5_LD_25_RN_6_RD_12_1.png","C_Dist_300_LN_5_LD_25_RN_7_RD_14_1.png","C_Dist_300_LN_7_LD_14_RN_20_RD_25_1.png","C_Dist_300_LN_8_LD_15_RN_10_RD_12_1.png"]],"dist300_I":[["I_Dist_300_LN_1_LD_2_RN_2_RD_10_0.png","I_Dist_300_LN_1_LD_2_RN_3_RD_15_0.png","I_Dist_300_LN_2_LD_4_RN_6_RD_30_0.png","I_Dist_300_LN_3_LD_6_RN_4_RD_20_0.png","I_Dist_300_LN_4_LD_5_RN_6_RD_12_0.png","I_Dist_300_LN_4_LD_5_RN_8_RD_16_0.png","I_Dist_300_LN_7_LD_10_RN_8_RD_20_0.png","I_Dist_300_LN_8_LD_10_RN_14_RD_28_0.png","I_Dist_300_LN_8_LD_10_RN_9_RD_18_0.png"],["I_Dist_300_LN_13_LD_26_RN_12_RD_15_1.png","I_Dist_300_LN_4_LD_20_RN_2_RD_4_1.png"]],"dist300_S":[["E_Dist_300_LN_9_LD_12_RN_9_RD_20_0.png"],["E_Dist_300_LN_18_LD_30_RN_18_RD_20_1.png","E_Dist_300_LN_3_LD_10_RN_3_RD_5_1.png","E_Dist_300_LN_9_LD_20_RN_9_RD_12_1.png"]],"dist500_C":[["C_Dist_500_LN_10_LD_13_RN_7_RD_26_0.png","C_Dist_500_LN_10_LD_15_RN_4_RD_24_0.png","C_Dist_500_LN_12_LD_16_RN_3_RD_12_0.png","C_Dist_500_LN_12_LD_18_RN_4_RD_24_0.png","C_Dist_500_LN_15_LD_18_RN_5_RD_15_0.png","C_Dist_500_LN_15_LD_20_RN_1_RD_4_0.png","C_Dist_500_LN_18_LD_27_RN_1_RD_6_0.png","C_Dist_500_LN_20_LD_24_RN_1_RD_3_0.png","C_Dist_500_LN_20_LD_24_RN_3_RD_9_0.png","C_Dist_500_LN_20_LD_24_RN_7_RD_21_0.png","C_Dist_500_LN_20_LD_28_RN_3_RD_14_0.png","C_Dist_500_LN_21_LD_28_RN_6_RD_24_0.png","C_Dist_500_LN_22_LD_28_RN_2_RD_7_0.png","C_Dist_500_LN_25_LD_30_RN_9_RD_27_0.png","C_Dist_500_LN_4_LD_6_RN_1_RD_6_0.png","C_Dist_500_LN_5_LD_6_RN_2_RD_6_0.png","C_Dist_500_LN_6_LD_9_RN_1_RD_6_0.png","C_Dist_500_LN_7_LD_10_RN_1_RD_5_0.png","C_Dist_500_LN_8_LD_12_RN_1_RD_6_0.png","C_Dist_500_LN_8_LD_12_RN_4_RD_24_0.png"],["C_Dist_500_LN_1_LD_4_RN_12_RD_16_1.png","C_Dist_500_LN_1_LD_4_RN_9_RD_12_1.png","C_Dist_500_LN_1_LD_9_RN_11_RD_18_1.png","C_Dist_500_LN_10_LD_24_RN_22_RD_24_1.png","C_Dist_500_LN_2_LD_12_RN_10_RD_15_1.png","C_Dist_500_LN_2_LD_12_RN_12_RD_18_1.png","C_Dist_500_LN_2_LD_12_RN_4_RD_6_1.png","C_Dist_500_LN_2_LD_24_RN_7_RD_12_1.png","C_Dist_500_LN_2_LD_5_RN_18_RD_20_1.png","C_Dist_500_LN_2_LD_5_RN_9_RD_10_1.png","C_Dist_500_LN_2_LD_8_RN_12_RD_16_1.png","C_Dist_500_LN_2_LD_8_RN_21_RD_28_1.png","C_Dist_500_LN_3_LD_10_RN_4_RD_5_1.png","C_Dist_500_LN_3_LD_12_RN_15_RD_20_1.png","C_Dist_500_LN_3_LD_30_RN_6_RD_10_1.png","C_Dist_500_LN_3_LD_8_RN_14_RD_16_1.png","C_Dist_500_LN_4_LD_16_RN_15_RD_20_1.png","C_Dist_500_LN_4_LD_24_RN_12_RD_18_1.png","C_Dist_500_LN_5_LD_14_RN_6_RD_7_1.png","C_Dist_500_LN_7_LD_21_RN_20_RD_24_1.png","C_Dist_500_LN_7_LD_28_RN_12_RD_16_1.png","C_Dist_500_LN_7_LD_28_RN_9_RD_12_1.png","C_Dist_500_LN_9_LD_27_RN_20_RD_24_1.png"]],"dist500_I":[["I_Dist_500_LN_2_LD_3_RN_4_RD_24_0.png","I_Dist_500_LN_5_LD_6_RN_6_RD_18_0.png","I_Dist_500_LN_7_LD_8_RN_9_RD_24_0.png"],["I_Dist_500_LN_7_LD_21_RN_5_RD_6_1.png"]],"dist500_S":[["E_Dist_500_LN_6_LD_8_RN_6_RD_24_0.png"],["E_Dist_500_LN_2_LD_12_RN_2_RD_3_1.png","E_Dist_500_LN_6_LD_24_RN_6_RD_8_1.png"]]}},{"start_time":1551793950088,"click_time":1551793951704,"finger_time":1551793951403,"fix_duration":805.679204441552,"trial":1,"RT":1315,"MT":301,"sideResp":1,"stimulus":[],"xmouse":[821,821,819,818,818,818,818,818,818,818,818,818,818,818,818,818,818,818,818,818,818,818,818,818,818,818,818,818,818,818,818,818,818,818,818,818,818,818,818,818,818,818,818,818,818,818,818,818,818,818,818,818,818,818,818,818,818,818,818,818,818,817,814,804,766,739,696,666,642,616,605,597,587,578,562,559,556,552,546,531,521],"ymouse":[513,514,514,515,515,515,515,515,515,515,515,515,515,515,515,515,515,515,515,515,515,515,515,515,515,515,515,515,515,515,515,515,515,515,515,515,515,515,515,515,515,515,515,515,515,515,515,515,515,515,515,515,515,515,515,515,515,515,515,515,515,515,515,508,476,451,409,372,339,289,268,248,227,207,173,152,138,122,104,68,55],"timestamp_mouse":[16,39,55,76,95,114,136,154,174,194,214,236,254,275,294,316,334,355,375,394,415,435,455,474,495,515,534,555,575,594,614,634,656,675,695,715,735,756,774,794,815,835,855,876,896,915,935,954,974,994,1015,1034,1054,1075,1095,1114,1134,1156,1176,1194,1215,1235,1254,1275,1296,1315,1334,1355,1374,1394,1415,1435,1455,1474,1494,1514,1534,1555,1575,1594,1615],"xSR":741.5,"ySR":469.95,"xT1":424.9,"yT1":0,"xT2":1058.1,"yT2":0,"toosoon":0,"cond_shown":"Incongruent","ratio_trial":200,"L_num":7,"L_den":15,"R_num":6,"R_den":9,"correct_side":2,"subjID":"juanandresespañolgaleano24","gender":"0","school":"6","age":"11"},{"start_time":1551793952853,"click_time":1551793954582,"finger_time":1551793954182,"fix_duration":250,"trial":2,"RT":1329,"MT":400,"sideResp":1,"stimulus":[],"xmouse":[779,779,779,779,779,780,780,781,781,782,782,782,782,782,782,782,782,782,782,782,782,782,782,782,782,782,782,782,782,782,782,782,782,782,782,782,782,782,782,782,782,782,782,782,782,782,782,782,782,782,782,782,782,782,782,782,782,782,782,782,782,782,782,782,782,785,801,801,802,800,792,767,756,747,737,726,707,700,693,683,643,618,598,580,563,526,505],"ymouse":[532,532,532,529,526,524,521,520,520,519,519,519,518,516,515,514,512,512,512,512,512,512,512,512,512,512,512,512,512,512,512,512,512,512,512,512,512,512,512,512,513,513,513,513,513,513,513,513,513,513,513,513,513,513,513,513,513,513,513,513,513,513,513,511,502,475,351,296,241,188,149,84,64,51,40,32,24,24,24,26,41,49,54,56,56,56,55],"timestamp_mouse":[20,44,49,71,89,109,130,150,169,190,211,229,249,270,289,310,330,349,369,389,409,430,450,469,490,509,529,550,571,589,609,629,649,669,689,709,729,749,769,789,809,829,849,869,889,909,929,949,969,989,1009,1029,1049,1070,1091,1111,1130,1150,1169,1191,1209,1229,1250,1269,1290,1309,1329,1350,1369,1390,1410,1429,1450,1470,1489,1509,1529,1549,1570,1590,1611,1630,1649,1669,1690,1711,1729],"xSR":741.5,"ySR":469.95,"xT1":424.9,"yT1":0,"xT2":1058.1,"yT2":0,"toosoon":0,"cond_shown":"Congruent","ratio_trial":200,"L_num":4,"L_den":10,"R_num":3,"R_den":15,"correct_side":1,"subjID":"juanandresespañolgaleano24","gender":"0","school":"6","age":"11"},{"start_time":1551793956632,"click_time":1551793958184,"finger_time":1551793957503,"fix_duration":1387.5987219123576,"trial":3,"RT":871,"MT":681,"sideResp":2,"stimulus":[],"xmouse":[757,757,757,757,757,757,757,757,757,757,757,757,757,757,757,757,757,757,757,757,757,757,757,757,757,757,757,757,757,757,757,757,757,757,757,757,757,757,757,757,758,760,772,783,792,802,812,827,840,845,851,858,862,866,870,875,879,886,890,894,898,902,909,916,925,932,941,956,968,976,987,991,1011,1023,1036,1049,1055,1073],"ymouse":[505,505,505,505,505,505,505,505,505,505,505,505,505,505,505,505,505,505,505,505,505,505,505,505,505,505,505,505,505,505,505,505,505,505,505,505,505,505,505,505,504,501,478,459,438,421,402,364,335,321,308,288,277,264,250,237,226,206,198,186,177,168,150,142,130,119,110,102,95,92,86,84,78,74,69,64,61,57],"timestamp_mouse":[10,33,50,70,91,111,130,151,170,191,211,232,251,271,291,311,332,350,371,391,412,430,450,471,491,510,531,552,570,590,611,630,650,670,692,711,731,751,771,792,811,831,851,871,891,910,931,950,970,991,1010,1032,1051,1071,1090,1111,1130,1151,1171,1191,1211,1231,1250,1270,1290,1310,1331,1352,1370,1390,1411,1430,1451,1470,1490,1510,1531,1552],"xSR":741.5,"ySR":469.95,"xT1":424.9,"yT1":0,"xT2":1058.1,"yT2":0,"toosoon":0,"cond_shown":"Congruent","ratio_trial":300,"L_num":1,"L_den":30,"R_num":8,"R_den":24,"correct_side":2,"subjID":"juanandresespañolgaleano24","gender":"0","school":"6","age":"11"},{"start_time":1551793959296,"click_time":1551793960744,"finger_time":1551793960322,"fix_duration":250,"trial":4,"RT":1026,"MT":422,"sideResp":1,"stimulus":[],"xmouse":[766,766,766,766,766,766,766,766,766,766,766,766,766,766,766,766,766,766,766,766,766,766,766,766,766,766,766,766,766,766,766,766,766,766,766,766,766,766,766,766,766,766,766,766,766,766,766,766,766,766,765,761,759,752,734,719,706,691,681,664,658,653,647,641,630,623,617,611,601,575,558,542,524],"ymouse":[483,483,483,483,483,483,483,483,483,483,483,483,483,483,483,483,483,483,483,483,483,483,483,483,483,483,483,483,483,483,483,483,483,483,483,483,483,483,483,483,483,483,483,483,483,483,483,483,483,483,475,456,431,405,351,307,269,234,212,171,155,143,133,125,111,103,96,91,85,78,76,71,63],"timestamp_mouse":[8,27,50,68,86,106,127,148,166,186,208,226,247,267,287,306,327,347,368,387,407,427,447,466,486,506,527,546,566,588,606,626,648,667,686,707,727,746,766,786,807,827,848,866,886,907,926,947,967,988,1006,1026,1046,1067,1086,1107,1127,1146,1167,1186,1207,1228,1246,1267,1286,1306,1326,1348,1366,1386,1407,1426,1448],"xSR":741.5,"ySR":469.95,"xT1":424.9,"yT1":0,"xT2":1058.1,"yT2":0,"toosoon":0,"cond_shown":"Congruent","ratio_trial":300,"L_num":20,"L_den":25,"R_num":14,"R_den":28,"correct_side":1,"subjID":"juanandresespañolgaleano24","gender":"0","school":"6","age":"11"},{"start_time":1551793963114,"click_time":1551793964663,"finger_time":1551793963982,"fix_duration":250,"trial":5,"RT":868,"MT":681,"sideResp":2,"stimulus":[],"xmouse":[766,766,766,766,766,766,766,766,766,766,766,766,766,766,766,767,767,767,767,768,768,768,768,768,768,768,768,768,768,768,768,768,768,768,768,768,768,768,769,770,771,772,775,787,792,794,797,800,809,814,819,824,828,832,835,837,838,842,845,849,857,866,878,907,928,941,953,968,973,981,986,993,999,1012,1021,1033,1051,1077],"ymouse":[541,541,541,541,541,541,541,541,541,541,541,541,541,541,541,538,538,538,538,537,537,537,537,537,537,537,537,537,537,537,537,537,537,537,535,534,532,528,520,514,508,501,491,449,430,410,392,373,337,321,305,290,279,267,260,256,253,245,240,233,221,206,189,155,129,114,102,90,85,81,77,74,71,66,62,60,59,59],"timestamp_mouse":[10,31,49,70,89,110,129,148,168,188,210,228,248,268,288,308,328,349,368,388,410,428,448,468,488,508,528,549,569,589,610,628,648,668,688,709,728,749,769,788,808,829,848,868,888,908,928,948,969,988,1008,1029,1049,1068,1089,1108,1128,1149,1168,1189,1208,1228,1249,1268,1288,1308,1329,1349,1368,1388,1409,1429,1449,1469,1489,1509,1529,1549],"xSR":741.5,"ySR":469.95,"xT1":424.9,"yT1":0,"xT2":1058.1,"yT2":0,"toosoon":0,"cond_shown":"Incongruent","ratio_trial":300,"L_num":4,"L_den":20,"R_num":2,"R_den":4,"correct_side":2,"subjID":"juanandresespañolgaleano24","gender":"0","school":"6","age":"11"},{"start_time":1551793965915,"click_time":1551793967082,"finger_time":1551793966682,"fix_duration":250,"trial":6,"RT":767,"MT":400,"sideResp":1,"stimulus":[],"xmouse":[810,810,810,810,810,810,810,810,810,810,810,810,810,810,810,810,810,810,810,810,810,810,810,810,810,810,810,810,810,810,810,810,810,810,810,809,808,808,808,808,808,808,808,797,784,774,764,749,707,683,660,636,613,578,559,548,540,528,509],"ymouse":[499,499,499,499,499,499,499,499,499,499,499,499,499,499,499,499,499,499,499,499,499,499,499,499,499,499,499,499,499,499,499,499,499,499,499,499,495,480,467,454,441,426,408,369,333,310,285,261,201,174,146,121,98,65,45,36,31,26,19],"timestamp_mouse":[10,34,48,67,87,109,127,148,167,187,208,228,248,267,288,309,328,348,369,388,408,427,447,467,487,508,529,547,567,588,609,628,648,668,688,707,727,749,767,788,808,827,847,868,888,907,928,947,967,988,1007,1027,1048,1068,1087,1108,1127,1147,1167],"xSR":741.5,"ySR":469.95,"xT1":424.9,"yT1":0,"xT2":1058.1,"yT2":0,"toosoon":0,"cond_shown":"Congruent","ratio_trial":200,"L_num":20,"L_den":25,"R_num":9,"R_den":15,"correct_side":1,"subjID":"juanandresespañolgaleano24","gender":"0","school":"6","age":"11"},{"start_time":1551793968293,"click_time":1551793969982,"finger_time":1551793969362,"fix_duration":309.57895713095996,"trial":7,"RT":1069,"MT":620,"sideResp":1,"stimulus":[],"xmouse":[802,802,802,802,802,802,802,802,802,802,802,802,802,802,802,802,802,802,802,802,802,802,802,802,802,802,802,802,801,799,798,796,795,795,794,794,793,793,793,793,793,793,793,793,793,793,793,793,793,793,793,793,791,787,778,769,763,757,747,746,746,746,746,746,746,746,746,746,746,746,746,746,746,746,745,744,738,727,713,666,638,599,564,531,497],"ymouse":[498,498,498,498,498,498,498,498,498,498,498,498,498,498,498,498,498,498,498,498,498,498,498,498,498,498,498,499,499,498,496,495,494,493,493,493,492,492,492,492,492,492,492,492,492,492,492,492,492,489,486,481,473,459,427,400,380,365,344,340,339,339,339,339,339,339,339,341,347,351,353,355,355,355,355,345,330,306,289,220,183,150,114,91,70],"timestamp_mouse":[10,35,50,69,90,111,130,150,171,189,211,231,250,269,289,310,331,349,371,389,410,429,450,469,491,510,530,550,569,589,609,630,650,670,690,709,730,750,770,789,810,830,850,871,889,910,931,949,971,989,1009,1030,1049,1069,1090,1109,1129,1149,1171,1189,1210,1230,1249,1270,1289,1309,1329,1349,1371,1390,1410,1429,1451,1470,1489,1509,1529,1550,1569,1589,1610,1630,1650,1670,1689],"xSR":741.5,"ySR":469.95,"xT1":424.9,"yT1":0,"xT2":1058.1,"yT2":0,"toosoon":0,"cond_shown":"Incongruent","ratio_trial":300,"L_num":1,"L_den":2,"R_num":3,"R_den":15,"correct_side":1,"subjID":"juanandresespañolgaleano24","gender":"0","school":"6","age":"11"},{"start_time":1551793972231,"click_time":1551793974164,"finger_time":1551793973523,"fix_duration":1246.2925252474352,"trial":8,"RT":1292,"MT":641,"sideResp":2,"stimulus":[],"xmouse":[788,788,788,788,788,788,788,788,788,788,788,788,788,788,788,788,788,788,788,788,788,788,788,788,788,788,788,788,788,788,788,788,788,788,788,788,788,788,788,788,788,788,788,788,788,788,788,788,788,788,788,788,788,789,789,786,783,782,781,781,781,781,781,780,777,775,771,768,765,765,764,763,762,762,762,762,762,761,756,753,749,744,742,742,742,742,742,742,742,746,767,799,902,952,996,1030,1085],"ymouse":[510,510,510,510,510,510,510,510,510,510,510,510,510,510,510,510,510,510,510,510,510,510,510,510,510,510,510,510,510,510,510,510,510,510,510,510,510,510,510,510,510,510,510,510,510,510,510,510,510,510,510,510,510,506,504,496,487,484,482,482,482,480,477,474,468,462,448,435,428,424,421,417,417,417,417,417,417,408,392,379,366,355,348,348,348,348,348,348,347,341,318,284,201,164,133,109,77],"timestamp_mouse":[11,34,51,71,92,113,132,151,171,191,211,231,251,273,291,312,331,352,372,391,412,431,451,473,492,512,532,551,572,593,612,633,651,672,691,711,732,751,772,792,811,833,851,873,891,911,932,952,971,992,1012,1031,1052,1071,1091,1111,1133,1151,1172,1191,1211,1231,1251,1273,1292,1313,1333,1351,1371,1392,1412,1433,1451,1471,1492,1512,1533,1551,1572,1591,1611,1632,1651,1672,1691,1712,1732,1751,1772,1791,1811,1831,1851,1872,1892,1912,1933],"xSR":741.5,"ySR":469.95,"xT1":424.9,"yT1":0,"xT2":1058.1,"yT2":0,"toosoon":0,"cond_shown":"Congruent","ratio_trial":100,"L_num":1,"L_den":2,"R_num":3,"R_den":5,"correct_side":2,"subjID":"juanandresespañolgaleano24","gender":"0","school":"6","age":"11"},{"start_time":1551793977799,"click_time":1551793979563,"finger_time":1551793979282,"fix_duration":555.0542593772977,"trial":9,"RT":1483,"MT":281,"sideResp":1,"stimulus":[],"xmouse":[784,784,784,784,784,784,784,784,784,784,784,784,784,784,784,784,784,784,784,784,784,784,784,784,784,784,784,784,784,784,784,784,784,784,784,784,784,784,784,784,784,784,784,784,784,784,784,784,784,784,784,784,784,784,784,784,784,784,784,784,784,784,784,784,784,784,784,784,785,785,782,779,775,769,764,761,757,751,747,739,726,717,704,666,643,621,589,551,508],"ymouse":[548,548,548,548,548,548,548,548,548,548,548,548,548,548,548,548,548,548,548,548,548,548,548,548,548,548,548,548,548,548,548,548,548,548,548,548,548,548,548,548,548,548,548,548,548,548,548,548,548,548,548,548,548,548,548,548,548,548,548,548,548,548,548,548,548,548,548,548,548,543,536,527,514,474,449,427,409,388,368,333,305,287,267,215,182,145,98,51,4],"timestamp_mouse":[10,30,43,63,83,103,123,144,163,183,204,223,245,263,283,305,323,344,363,384,405,423,444,464,484,504,523,544,563,583,603,624,643,663,684,704,723,744,764,783,803,825,844,865,883,904,925,943,963,984,1003,1024,1043,1063,1085,1103,1123,1144,1163,1184,1204,1223,1244,1264,1284,1304,1323,1343,1364,1385,1404,1423,1443,1465,1483,1504,1525,1544,1563,1583,1603,1623,1644,1665,1684,1703,1723,1743,1764],"xSR":741.5,"ySR":469.95,"xT1":424.9,"yT1":0,"xT2":1058.1,"yT2":0,"toosoon":0,"cond_shown":"Congruent","ratio_trial":300,"L_num":4,"L_den":10,"R_num":1,"R_den":10,"correct_side":1,"subjID":"juanandresespañolgaleano24","gender":"0","school":"6","age":"11"},{"start_time":1551793981126,"click_time":1551793982583,"finger_time":1551793982064,"fix_duration":482.28726570629834,"trial":10,"RT":938,"MT":519,"sideResp":1,"stimulus":[],"xmouse":[792,792,792,792,792,792,792,792,792,792,792,792,792,792,792,792,792,792,792,792,792,792,792,792,792,792,792,792,792,792,792,792,792,792,792,792,792,792,792,792,792,792,792,790,786,781,764,750,735,719,705,692,656,628,610,590,573,544,528,509,488,472,456,449,445,443,441,441,441,447,453,459,465],"ymouse":[512,512,512,512,512,512,512,512,512,512,512,512,512,512,512,512,512,512,512,512,512,512,512,512,512,512,512,512,512,512,512,512,512,512,512,512,512,512,512,512,512,512,510,500,488,471,436,415,395,373,354,333,293,270,258,247,240,224,215,203,194,185,176,173,171,170,169,165,158,143,129,114,85],"timestamp_mouse":[16,46,57,77,97,117,136,156,176,197,216,236,256,277,296,317,336,357,378,396,418,437,456,477,496,516,536,556,577,598,617,637,658,677,698,718,736,756,777,797,816,836,856,877,896,916,938,957,977,996,1016,1036,1057,1076,1096,1116,1137,1157,1177,1197,1217,1237,1257,1277,1297,1316,1336,1356,1377,1396,1417,1436,1457],"xSR":741.5,"ySR":469.95,"xT1":424.9,"yT1":0,"xT2":1058.1,"yT2":0,"toosoon":0,"cond_shown":"Incongruent","ratio_trial":200,"L_num":7,"L_den":15,"R_num":4,"R_den":6,"correct_side":2,"subjID":"juanandresespañolgaleano24","gender":"0","school":"6","age":"11"},{"start_time":1551793985116,"click_time":1551793986903,"finger_time":1551793986542,"fix_duration":250,"trial":11,"RT":1426,"MT":361,"sideResp":2,"stimulus":[],"xmouse":[785,785,785,785,785,785,785,785,785,785,785,785,785,785,785,785,785,785,785,785,785,785,785,785,785,785,785,785,785,785,785,785,785,785,785,785,785,785,785,785,785,785,785,785,785,785,785,785,785,785,785,785,785,785,785,785,785,785,785,785,785,785,785,785,785,785,785,785,785,788,803,855,899,968,992,1000,1005,1008,1016,1019,1022,1023,1023,1024,1026,1028,1032,1038,1054,1063],"ymouse":[498,498,498,498,498,498,498,498,498,498,498,498,498,498,498,498,498,498,498,498,498,498,498,498,498,498,498,498,498,498,498,498,498,498,498,498,498,498,498,498,498,498,498,498,498,498,498,498,498,498,498,498,498,498,498,498,498,498,498,498,498,498,498,498,498,498,498,498,498,497,489,450,422,345,306,284,265,244,206,185,165,147,135,122,114,103,91,77,54,47],"timestamp_mouse":[10,32,47,67,86,106,126,146,166,187,207,228,246,266,286,307,326,346,366,386,406,428,446,466,486,507,526,548,566,586,607,626,647,666,686,706,727,747,766,787,807,827,847,866,886,906,926,947,968,986,1007,1027,1046,1066,1086,1107,1127,1148,1168,1186,1206,1226,1248,1266,1286,1306,1327,1346,1367,1387,1407,1426,1447,1467,1486,1507,1526,1546,1566,1586,1607,1626,1647,1667,1687,1708,1728,1747,1766,1787],"xSR":741.5,"ySR":469.95,"xT1":424.9,"yT1":0,"xT2":1058.1,"yT2":0,"toosoon":0,"cond_shown":"Incongruent","ratio_trial":100,"L_num":6,"L_den":10,"R_num":11,"R_den":22,"correct_side":1,"subjID":"juanandresespañolgaleano24","gender":"0","school":"6","age":"11"},{"start_time":1551793988014,"click_time":1551793989462,"finger_time":1551793988982,"fix_duration":250,"trial":12,"RT":968,"MT":480,"sideResp":2,"stimulus":[],"xmouse":[780,780,780,786,790,794,796,800,800,800,800,800,800,800,800,800,800,800,800,800,800,800,800,800,800,800,800,800,800,800,800,800,800,800,800,800,800,800,800,800,800,800,800,798,798,797,796,795,795,795,795,795,795,798,802,804,810,816,826,837,841,845,853,859,870,890,915,962,989,1019,1037,1054,1068],"ymouse":[556,556,556,551,541,530,520,509,507,507,507,507,507,507,507,507,507,507,507,507,507,507,507,507,507,507,507,507,507,507,507,507,507,507,507,507,507,507,507,507,507,507,505,497,490,483,480,470,464,463,459,456,451,429,412,391,368,343,298,269,253,240,211,199,183,165,146,109,92,71,61,52,44],"timestamp_mouse":[11,35,49,68,90,109,129,149,168,188,209,228,250,270,288,309,330,350,368,388,409,428,448,469,488,508,530,549,569,588,608,628,648,670,689,709,728,750,768,788,809,828,848,869,888,908,928,950,968,988,1009,1028,1049,1069,1088,1109,1130,1149,1168,1189,1210,1229,1250,1268,1288,1309,1328,1349,1368,1389,1409,1428,1448],"xSR":741.5,"ySR":469.95,"xT1":424.9,"yT1":0,"xT2":1058.1,"yT2":0,"toosoon":0,"cond_shown":"Incongruent","ratio_trial":100,"L_num":10,"L_den":25,"R_num":8,"R_den":16,"correct_side":2,"subjID":"juanandresespañolgaleano24","gender":"0","school":"6","age":"11"},{"start_time":1551793990781,"click_time":1551793992943,"finger_time":1551793992122,"fix_duration":357.54082520153764,"trial":13,"RT":1341,"MT":821,"sideResp":2,"stimulus":[],"xmouse":[768,768,768,768,768,768,768,768,768,768,768,768,768,768,768,768,768,768,768,768,768,768,768,768,768,768,768,768,768,768,768,768,768,768,768,768,768,769,770,770,771,771,771,771,773,773,774,774,774,774,774,774,775,775,775,775,775,775,775,775,776,776,776,776,776,776,776,775,774,772,772,773,773,774,777,793,814,840,865,905,919,934,944,958,989,1008,1022,1041,1041,1041,1041,1041,1041,1041,1205,1231,1238,1242,1245,1248,1248,1248,1248,1248,1244,1237,1220,1190,1155],"ymouse":[516,516,516,516,516,516,516,516,516,516,516,516,516,516,516,516,516,516,516,516,516,516,516,516,516,516,516,516,516,516,516,516,516,516,516,514,513,512,510,509,508,508,507,507,505,505,503,503,503,503,501,500,500,500,498,498,497,496,495,494,491,491,489,487,486,480,476,467,457,429,410,383,365,344,327,292,262,232,203,165,149,127,112,94,64,46,28,8,8,8,8,8,8,8,2,23,31,42,53,66,89,92,93,93,95,94,85,72,56],"timestamp_mouse":[11,22,41,63,82,101,122,141,161,183,201,222,241,261,281,303,322,341,361,382,402,421,442,462,481,503,521,542,563,582,601,622,641,662,681,701,721,742,761,782,801,821,842,862,882,901,921,942,962,981,1001,1022,1041,1061,1081,1103,1121,1141,1162,1181,1201,1222,1241,1261,1282,1302,1322,1341,1363,1383,1401,1421,1441,1462,1481,1501,1522,1541,1562,1583,1601,1622,1641,1662,1683,1701,1722,1742,1762,1782,1801,1821,1841,1861,1882,1901,1921,1942,1961,1982,2002,2021,2042,2063,2083,2102,2121,2142,2162],"xSR":741.5,"ySR":469.95,"xT1":424.9,"yT1":0,"xT2":1058.1,"yT2":0,"toosoon":0,"cond_shown":"Incongruent","ratio_trial":100,"L_num":13,"L_den":26,"R_num":6,"R_den":10,"correct_side":2,"subjID":"juanandresespañolgaleano24","gender":"0","school":"6","age":"11"},{"start_time":1551793994094,"click_time":1551793996903,"finger_time":1551793994202,"fix_duration":250,"trial":14,"RT":108,"MT":2701,"sideResp":1,"stimulus":[],"xmouse":[799,799,799,797,796,795,795,794,794,794,794,794,794,794,794,794,794,794,794,794,794,794,794,794,794,794,794,794,794,794,794,794,794,794,794,794,794,794,794,794,794,794,794,794,794,794,794,794,794,794,794,794,794,794,794,794,794,794,794,794,794,794,794,795,795,795,795,795,795,795,795,795,795,795,798,798,798,798,799,802,802,802,802,803,803,803,803,803,803,803,803,803,803,803,803,803,800,788,773,743,722,703,687,672,637,612,598,592,585,580,573,564,538,538,538,538,418,411,403,386,387,397,408,431,491,535,565,592,624,652,656,658,660,660,638,612,598,579,544,527,516],"ymouse":[492,489,489,479,472,469,469,467,467,467,467,467,467,467,467,467,467,467,467,467,467,467,467,467,467,467,467,467,467,467,467,467,467,467,467,467,467,467,467,467,467,467,467,467,467,467,467,467,467,467,467,467,467,467,467,467,470,474,476,482,487,491,494,498,498,498,498,498,498,498,498,498,498,498,494,494,494,494,501,512,514,514,514,514,514,514,514,514,514,514,514,514,514,514,514,514,505,483,460,406,368,327,290,243,157,101,71,52,30,25,18,12,0,0,0,0,2,14,35,92,122,157,189,222,287,313,331,342,349,351,348,341,324,302,245,198,181,162,125,107,97],"timestamp_mouse":[12,38,48,68,88,108,129,148,170,189,208,229,249,270,288,308,329,349,368,388,408,429,448,469,488,508,528,548,570,589,609,629,649,669,688,708,728,748,769,789,810,830,849,870,888,908,928,948,969,989,1009,1029,1048,1069,1089,1110,1128,1148,1168,1188,1210,1228,1248,1269,1289,1308,1328,1348,1368,1389,1409,1428,1448,1468,1489,1508,1529,1550,1568,1588,1608,1630,1648,1670,1688,1709,1729,1749,1768,1790,1809,1828,1848,1868,1888,1909,1929,1949,1968,1988,2008,2029,2050,2070,2089,2108,2128,2149,2170,2189,2209,2228,2249,2269,2289,2309,2328,2350,2369,2389,2410,2430,2450,2469,2489,2509,2528,2548,2570,2589,2610,2628,2648,2668,2689,2708,2728,2748,2769,2788,2809],"xSR":741.5,"ySR":469.95,"xT1":424.9,"yT1":0,"xT2":1058.1,"yT2":0,"toosoon":0,"cond_shown":"Incongruent","ratio_trial":300,"L_num":8,"L_den":10,"R_num":9,"R_den":18,"correct_side":1,"subjID":"juanandresespañolgaleano24","gender":"0","school":"6","age":"11"},{"start_time":1551793998975,"click_time":1551794003103,"finger_time":1551794000583,"fix_duration":1171.2704024832062,"trial":15,"RT":1608,"MT":2520,"sideResp":2,"stimulus":[],"xmouse":[778,778,778,778,778,778,778,778,778,778,778,778,778,778,778,778,778,778,778,778,778,778,778,778,778,778,778,778,778,778,778,778,778,778,778,778,778,778,778,778,778,778,778,778,778,778,778,778,778,778,778,778,778,778,778,778,778,778,778,778,778,778,778,778,778,778,778,778,778,778,778,778,778,778,778,778,779,780,781,782,785,789,794,802,809,841,863,886,904,921,939,949,958,967,980,984,990,993,996,998,1001,1002,1007,1010,1012,1017,1020,1021,1021,1021,1021,1021,1021,1021,1021,1021,1021,1021,1021,1021,1021,1021,1021,1021,1021,1021,1021,1021,1022,1022,1022,1022,1024,1026,1030,1038,1041,1043,1045,1045,1046,1046,1046,1046,1046,1046,1046,1046,1046,1046,1046,1046,1048,1048,1049,1051,1051,1053,1053,1053,1053,1053,1053,1053,1053,1053,1053,1053,1053,1053,1053,1053,1053,1053,1053,1053,1053,1053,1053,1053,1053,1053,1055,1055,1055,1056,1056,1057,1057,1057,1057,1057,1057,1057,1057,1057,1057,1057,1057,1057,1058,1058,1058,1058,1058,1058,1059],"ymouse":[506,506,506,506,506,506,506,506,506,506,506,506,506,506,506,506,506,506,506,506,506,506,506,506,506,506,506,506,506,506,506,506,506,506,506,506,506,506,506,506,506,506,506,506,506,506,506,506,506,506,506,506,506,506,506,506,506,506,506,506,506,506,506,506,506,506,506,506,506,506,506,506,506,506,506,504,497,493,488,480,460,438,419,398,374,312,272,235,203,173,141,120,106,90,65,56,47,42,37,33,31,31,29,29,28,28,28,28,28,28,28,28,28,28,28,28,28,28,28,28,28,28,28,28,28,28,28,28,28,28,28,28,28,28,28,29,30,30,30,30,31,31,31,31,31,31,31,31,31,31,31,31,31,31,31,29,29,29,29,28,28,28,28,28,28,28,28,28,28,28,28,28,28,28,28,28,28,28,28,28,28,28,28,28,28,27,27,26,26,26,26,26,26,26,26,26,26,26,26,26,26,26,26,26,26,26,26],"timestamp_mouse":[10,36,48,67,88,108,128,148,169,187,207,227,249,268,288,307,328,348,369,388,408,429,447,468,487,507,527,548,569,589,609,627,648,668,688,708,728,748,767,788,808,828,848,868,887,907,927,949,968,988,1008,1028,1048,1069,1088,1107,1129,1149,1168,1188,1207,1229,1249,1268,1288,1307,1328,1348,1367,1387,1408,1429,1448,1468,1489,1507,1528,1548,1567,1589,1608,1627,1647,1667,1688,1708,1728,1749,1768,1788,1808,1829,1847,1868,1889,1907,1927,1947,1969,1989,2008,2027,2047,2068,2087,2108,2128,2148,2168,2188,2208,2228,2248,2267,2288,2308,2328,2348,2367,2387,2407,2427,2448,2468,2487,2508,2528,2547,2567,2589,2609,2628,2648,2667,2687,2709,2728,2748,2767,2788,2808,2829,2848,2868,2888,2907,2927,2948,2969,2989,3007,3028,3048,3069,3088,3107,3129,3149,3169,3189,3208,3227,3248,3268,3288,3307,3327,3348,3369,3389,3408,3427,3448,3468,3489,3508,3527,3548,3569,3587,3608,3628,3647,3667,3689,3708,3728,3748,3768,3788,3807,3828,3848,3867,3888,3907,3928,3949,3968,3987,4007,4028,4048,4068,4088,4108,4128],"xSR":741.5,"ySR":469.95,"xT1":424.9,"yT1":0,"xT2":1058.1,"yT2":0,"toosoon":0,"cond_shown":"Congruent","ratio_trial":100,"L_num":9,"L_den":15,"R_num":8,"R_den":16,"correct_side":1,"subjID":"juanandresespañolgaleano24","gender":"0","school":"6","age":"11"},{"start_time":1551794006358,"click_time":1551794007644,"finger_time":1551794007223,"fix_duration":294.42551706741295,"trial":16,"RT":865,"MT":421,"sideResp":2,"stimulus":[],"xmouse":[796,796,796,796,796,796,796,796,796,796,796,796,796,796,796,796,796,796,796,796,796,796,796,796,796,796,796,796,796,796,796,796,796,796,796,796,796,796,796,796,796,796,798,810,825,840,860,869,878,885,890,901,906,918,926,935,957,967,976,987,996,1020,1033,1049,1062],"ymouse":[519,519,519,519,519,519,519,519,519,519,519,519,519,519,519,519,519,519,519,519,519,519,519,519,519,519,519,519,519,519,519,519,519,519,519,519,519,519,519,519,519,511,500,461,424,392,349,330,311,295,282,259,248,228,215,203,176,165,155,144,136,117,108,99,94],"timestamp_mouse":[11,40,46,64,84,106,124,145,165,185,206,224,246,265,284,306,324,345,364,385,404,426,444,465,484,506,524,544,566,586,604,626,645,666,684,704,726,744,765,784,805,825,845,865,886,905,924,946,965,985,1006,1025,1046,1065,1084,1105,1124,1144,1166,1186,1205,1224,1244,1265,1286],"xSR":741.5,"ySR":469.95,"xT1":424.9,"yT1":0,"xT2":1058.1,"yT2":0,"toosoon":0,"cond_shown":"Incongruent","ratio_trial":300,"L_num":4,"L_den":20,"R_num":2,"R_den":4,"correct_side":2,"subjID":"juanandresespañolgaleano24","gender":"0","school":"6","age":"11"},{"start_time":1551794008714,"click_time":1551794010243,"finger_time":1551794009883,"fix_duration":250,"trial":17,"RT":1169,"MT":360,"sideResp":1,"stimulus":[],"xmouse":[818,818,818,818,818,818,818,818,818,818,818,818,818,818,818,818,818,818,818,818,818,818,818,818,818,818,818,818,818,818,818,818,818,818,818,818,818,818,818,818,818,818,818,818,818,818,818,818,818,818,818,818,818,821,825,827,829,830,833,835,835,836,836,836,826,819,810,799,751,717,665,618,584,542,530,525,519],"ymouse":[552,552,552,552,552,552,552,552,552,552,552,552,552,552,552,552,552,552,552,552,552,552,552,552,552,552,552,552,552,552,552,552,552,552,552,552,552,552,552,552,552,552,552,552,552,552,552,552,552,552,552,552,552,536,517,504,492,479,460,451,446,437,426,399,372,357,340,319,261,225,181,143,117,84,73,68,61],"timestamp_mouse":[19,46,48,68,89,109,128,149,168,188,209,228,248,269,288,309,328,350,369,389,409,428,450,470,488,510,528,548,569,590,608,629,650,670,690,708,728,748,770,788,808,829,848,869,889,908,928,950,969,989,1008,1029,1049,1068,1090,1109,1130,1148,1169,1188,1209,1228,1249,1269,1289,1309,1330,1348,1369,1388,1409,1428,1449,1468,1489,1508,1529],"xSR":741.5,"ySR":469.95,"xT1":424.9,"yT1":0,"xT2":1058.1,"yT2":0,"toosoon":0,"cond_shown":"Incongruent","ratio_trial":200,"L_num":7,"L_den":15,"R_num":4,"R_den":6,"correct_side":2,"subjID":"juanandresespañolgaleano24","gender":"0","school":"6","age":"11"},{"start_time":1551794014192,"click_time":1551794015403,"finger_time":1551794014982,"fix_duration":1249.6747875969552,"trial":18,"RT":790,"MT":421,"sideResp":1,"stimulus":[],"xmouse":[814,814,814,814,814,814,814,814,814,814,814,814,814,814,814,814,814,814,814,814,814,814,814,814,814,814,814,814,814,814,814,814,814,814,814,814,814,813,807,800,792,782,767,748,712,696,679,663,647,625,609,602,597,594,592,591,591,589,583,553,505],"ymouse":[512,512,512,512,512,512,512,512,512,512,512,512,512,512,512,512,512,512,512,512,512,512,512,512,512,512,512,512,512,512,512,512,512,512,512,512,507,503,486,466,443,420,382,341,269,236,204,175,149,108,84,69,60,55,52,51,50,50,50,50,50],"timestamp_mouse":[11,44,51,72,90,110,132,151,170,190,212,231,250,271,292,312,330,350,372,390,410,432,451,472,490,510,532,551,571,592,612,631,650,672,690,711,730,751,772,790,811,830,850,871,891,910,931,950,970,990,1011,1031,1051,1071,1092,1110,1130,1152,1171,1192,1210],"xSR":741.5,"ySR":469.95,"xT1":424.9,"yT1":0,"xT2":1058.1,"yT2":0,"toosoon":0,"cond_shown":"Incongruent","ratio_trial":200,"L_num":3,"L_den":4,"R_num":11,"R_den":20,"correct_side":1,"subjID":"juanandresespañolgaleano24","gender":"0","school":"6","age":"11"},{"start_time":1551794018074,"click_time":1551794019743,"finger_time":1551794019243,"fix_duration":631.4333780822026,"trial":19,"RT":1169,"MT":500,"sideResp":1,"stimulus":[],"xmouse":[783,783,783,783,783,783,783,783,783,783,783,783,783,783,783,783,783,783,783,783,783,783,783,783,783,783,783,783,783,783,783,783,783,783,783,783,783,783,783,783,783,783,783,783,783,783,783,782,781,780,778,777,777,777,777,777,776,776,776,776,775,774,773,772,771,768,766,765,763,760,755,752,750,747,741,721,711,704,697,692,658,626,581,490],"ymouse":[495,495,495,495,495,495,495,495,495,495,495,495,495,495,495,495,495,495,495,495,495,495,495,495,495,495,495,495,495,495,495,495,495,495,495,495,495,493,491,490,488,488,488,488,488,488,488,486,483,481,477,476,476,476,475,472,471,470,468,467,467,465,463,459,456,446,440,435,431,426,416,410,405,396,383,347,320,304,291,275,210,161,101,6],"timestamp_mouse":[10,38,49,69,89,110,130,149,169,190,208,228,249,269,288,308,329,349,368,388,408,428,449,469,489,509,529,549,569,589,608,629,648,668,688,708,729,748,769,789,809,829,849,868,889,908,928,949,970,988,1008,1029,1049,1070,1088,1108,1129,1150,1169,1188,1208,1229,1248,1269,1289,1309,1328,1348,1369,1388,1408,1428,1448,1468,1489,1509,1529,1550,1570,1588,1609,1630,1648,1669],"xSR":741.5,"ySR":469.95,"xT1":424.9,"yT1":0,"xT2":1058.1,"yT2":0,"toosoon":0,"cond_shown":"Incongruent","ratio_trial":100,"L_num":6,"L_den":10,"R_num":7,"R_den":14,"correct_side":1,"subjID":"juanandresespañolgaleano24","gender":"0","school":"6","age":"11"},{"start_time":1551794021626,"click_time":1551794025803,"finger_time":1551794023883,"fix_duration":781.8482285801174,"trial":20,"RT":2257,"MT":1920,"sideResp":2,"stimulus":[],"xmouse":[768,768,768,768,768,768,768,768,768,768,768,768,768,768,768,768,768,768,768,768,768,768,768,768,768,768,768,768,768,768,768,768,768,768,768,768,768,768,768,768,768,768,768,768,768,768,768,768,768,768,768,768,768,768,768,768,769,770,770,770,770,770,770,770,770,770,770,770,770,770,770,770,770,770,770,770,770,771,771,771,771,771,771,771,771,771,771,771,771,771,771,771,771,771,771,771,771,771,771,771,771,771,771,771,771,771,771,771,771,771,771,771,771,771,771,772,774,776,778,779,781,782,786,788,789,791,794,800,804,809,811,818,821,824,826,829,832,836,840,844,846,848,852,854,857,859,862,865,866,867,871,874,883,888,892,898,901,910,912,914,915,917,923,924,927,930,933,939,943,946,952,961,966,970,974,978,980,987,991,994,997,1000,1004,1006,1008,1009,1013,1020,1022,1023,1025,1025,1027,1028,1028,1029,1031,1033,1035,1035,1037,1037,1040,1041,1042,1045,1050,1055,1065],"ymouse":[511,511,511,511,511,511,511,511,511,511,511,511,511,511,511,511,511,511,511,511,511,511,511,511,511,511,511,511,511,511,511,511,511,511,511,511,511,511,511,511,511,511,511,511,511,511,511,511,511,511,511,511,511,511,511,507,505,494,492,491,491,491,491,491,491,491,491,491,491,491,491,491,491,491,491,491,491,491,491,491,491,491,491,491,491,491,491,491,491,491,491,491,491,491,491,491,491,491,491,491,491,491,491,491,491,491,491,489,484,479,474,470,462,458,454,450,444,435,425,420,415,409,397,391,383,378,371,358,349,339,333,320,314,310,304,300,293,282,271,265,260,256,250,247,244,242,238,236,235,234,232,230,226,223,222,220,218,214,213,212,212,212,209,208,207,206,205,200,197,195,191,185,182,179,176,173,171,167,164,162,160,159,155,154,152,151,148,143,141,140,139,139,136,135,134,132,130,127,124,123,122,120,117,115,114,112,107,104,97],"timestamp_mouse":[18,38,56,76,97,117,136,158,177,198,218,236,256,277,296,316,337,358,377,397,416,438,456,478,498,517,538,558,577,597,617,638,656,678,697,716,738,758,777,797,818,838,856,877,898,918,936,956,977,998,1017,1037,1056,1078,1096,1117,1137,1157,1178,1196,1217,1237,1256,1277,1296,1317,1337,1358,1377,1398,1416,1436,1458,1477,1496,1517,1538,1556,1577,1596,1618,1637,1656,1677,1698,1716,1737,1757,1778,1796,1818,1837,1856,1877,1897,1916,1938,1956,1976,1996,2017,2037,2058,2076,2097,2117,2137,2157,2177,2197,2218,2237,2257,2277,2298,2316,2337,2357,2376,2397,2416,2437,2456,2476,2498,2517,2537,2557,2577,2596,2618,2638,2656,2677,2696,2716,2737,2757,2776,2796,2816,2837,2856,2878,2898,2917,2936,2957,2976,2996,3017,3037,3057,3076,3096,3117,3137,3156,3177,3197,3217,3237,3258,3277,3298,3317,3337,3356,3377,3396,3417,3438,3456,3478,3498,3516,3537,3558,3577,3598,3616,3636,3656,3677,3697,3717,3737,3758,3776,3796,3816,3837,3858,3877,3897,3917,3937,3956,3977,3996,4017,4036,4057,4077,4096,4118,4138,4156,4177],"xSR":741.5,"ySR":469.95,"xT1":424.9,"yT1":0,"xT2":1058.1,"yT2":0,"toosoon":0,"cond_shown":"Incongruent","ratio_trial":200,"L_num":6,"L_den":20,"R_num":3,"R_den":6,"correct_side":2,"subjID":"juanandresespañolgaleano24","gender":"0","school":"6","age":"11"},{"start_time":1551794030350,"click_time":1551794031283,"finger_time":1551794030983,"fix_duration":1445.0548445712773,"trial":21,"RT":633,"MT":300,"sideResp":1,"stimulus":[],"xmouse":[818,818,818,818,817,817,817,817,817,817,817,817,817,817,817,817,817,817,817,817,817,817,817,817,817,817,817,817,817,817,817,802,774,712,667,619,577,570,564,559,555,547,543,537,531,525,501],"ymouse":[513,513,512,512,511,509,509,509,509,509,509,509,509,509,509,509,509,509,509,509,509,509,509,509,509,509,509,508,506,505,501,443,364,259,212,173,130,115,102,91,83,71,68,62,61,61,65],"timestamp_mouse":[13,32,53,72,92,113,134,153,172,193,213,234,252,273,294,312,333,353,374,394,412,433,453,472,493,514,533,553,573,592,614,633,653,672,693,713,733,753,772,793,813,833,853,872,894,912,933],"xSR":741.5,"ySR":469.95,"xT1":424.9,"yT1":0,"xT2":1058.1,"yT2":0,"toosoon":0,"cond_shown":"Congruent","ratio_trial":300,"L_num":20,"L_den":25,"R_num":8,"R_den":16,"correct_side":1,"subjID":"juanandresespañolgaleano24","gender":"0","school":"6","age":"11"},{"start_time":1551794035218,"click_time":1551794036843,"finger_time":1551794035363,"fix_duration":974.7679845496871,"trial":22,"RT":145,"MT":1480,"sideResp":2,"stimulus":[],"xmouse":[800,800,800,800,800,799,799,798,798,798,798,798,798,798,797,796,796,796,795,795,794,793,793,793,793,793,793,793,793,793,792,792,792,792,792,792,792,792,792,792,792,792,792,792,792,792,792,792,792,792,792,792,792,792,792,792,792,792,792,804,815,824,836,864,880,893,907,920,943,954,962,968,974,983,991,996,1001,1007,1020,1041,1057,1081],"ymouse":[512,505,497,488,476,473,470,469,468,468,468,468,468,468,466,465,464,464,464,464,464,465,466,466,466,466,466,466,466,466,468,468,468,468,468,468,468,468,468,468,468,468,468,468,468,468,468,468,468,468,468,468,468,468,468,468,468,468,465,439,418,396,373,327,300,276,255,232,188,160,146,133,124,110,102,96,92,89,82,74,70,65],"timestamp_mouse":[4,24,45,65,85,105,124,145,165,184,205,226,244,265,285,304,324,344,365,385,406,425,445,465,484,506,525,544,564,585,605,624,645,665,685,706,724,744,765,785,804,825,846,865,884,905,925,946,965,984,1005,1025,1044,1065,1084,1104,1124,1145,1164,1186,1204,1224,1245,1266,1286,1305,1325,1345,1365,1384,1404,1424,1444,1466,1485,1505,1525,1544,1564,1585,1606,1625],"xSR":741.5,"ySR":469.95,"xT1":424.9,"yT1":0,"xT2":1058.1,"yT2":0,"toosoon":0,"cond_shown":"Congruent","ratio_trial":200,"L_num":3,"L_den":10,"R_num":11,"R_den":22,"correct_side":2,"subjID":"juanandresespañolgaleano24","gender":"0","school":"6","age":"11"},{"start_time":1551794037865,"click_time":1551794039343,"finger_time":1551794039184,"fix_duration":460.706248512078,"trial":23,"RT":1319,"MT":159,"sideResp":1,"stimulus":[],"xmouse":[767,767,767,767,767,767,767,767,767,767,767,767,767,767,767,767,768,769,769,769,770,770,770,770,770,770,770,770,770,770,770,770,770,770,770,770,770,770,770,770,770,770,770,770,770,770,770,770,770,770,770,770,770,770,770,770,770,770,770,771,774,774,775,775,775,775,775,771,751,720,633,586,547,511],"ymouse":[560,560,560,560,560,560,560,558,555,550,550,550,550,549,548,545,542,540,538,537,536,536,536,535,535,535,535,535,535,535,535,535,535,535,535,535,535,535,535,535,535,535,535,535,535,535,535,535,535,535,535,535,535,535,535,535,535,535,535,528,513,499,489,482,478,466,451,410,350,287,178,131,90,57],"timestamp_mouse":[24,46,57,77,98,118,137,157,178,199,218,237,259,278,298,319,338,358,379,397,418,439,458,478,499,517,539,558,578,597,618,638,658,679,699,717,738,758,779,798,818,838,858,877,899,917,937,958,977,997,1018,1038,1058,1079,1099,1117,1137,1158,1177,1199,1217,1238,1258,1278,1299,1319,1338,1357,1379,1398,1418,1439,1458,1477],"xSR":741.5,"ySR":469.95,"xT1":424.9,"yT1":0,"xT2":1058.1,"yT2":0,"toosoon":0,"cond_shown":"Incongruent","ratio_trial":100,"L_num":9,"L_den":18,"R_num":6,"R_den":10,"correct_side":2,"subjID":"juanandresespañolgaleano24","gender":"0","school":"6","age":"11"},{"start_time":1551794040908,"click_time":1551794042384,"finger_time":1551794041864,"fix_duration":844.1536675155196,"trial":24,"RT":956,"MT":520,"sideResp":2,"stimulus":[],"xmouse":[800,800,800,800,800,800,800,800,800,800,800,800,800,800,800,800,800,800,800,800,800,800,800,800,800,800,800,800,800,800,800,800,800,800,800,800,800,800,801,801,801,801,801,801,801,801,804,825,837,853,869,883,897,926,941,944,944,944,947,951,955,957,960,965,971,973,977,980,991,998,1008,1024,1042,1072],"ymouse":[490,490,490,490,490,490,490,490,490,490,490,490,490,490,490,490,490,490,490,490,490,490,490,490,490,490,490,490,490,490,490,490,490,490,490,490,490,490,489,489,489,489,489,489,489,485,480,455,441,422,404,389,373,343,329,326,325,325,321,309,291,272,253,213,183,167,151,138,113,102,91,81,73,61],"timestamp_mouse":[15,42,55,75,95,114,136,156,174,196,216,235,256,274,295,315,335,354,376,396,415,436,456,474,495,514,535,555,575,595,614,635,656,674,694,716,736,754,775,794,814,836,854,876,895,914,936,956,975,995,1014,1035,1055,1075,1095,1115,1135,1155,1174,1195,1215,1236,1255,1276,1295,1314,1334,1355,1376,1396,1415,1435,1456,1476],"xSR":741.5,"ySR":469.95,"xT1":424.9,"yT1":0,"xT2":1058.1,"yT2":0,"toosoon":0,"cond_shown":"Incongruent","ratio_trial":200,"L_num":3,"L_den":10,"R_num":1,"R_den":2,"correct_side":2,"subjID":"juanandresespañolgaleano24","gender":"0","school":"6","age":"11"},{"start_time":1551794043603,"click_time":1551794045684,"finger_time":1551794045123,"fix_duration":639.2776432926448,"trial":25,"RT":1520,"MT":561,"sideResp":1,"stimulus":[],"xmouse":[797,797,797,797,797,797,797,797,797,797,797,797,797,797,797,797,797,797,797,797,797,797,797,797,797,797,797,797,797,797,797,797,797,797,797,797,797,797,797,797,797,797,797,797,797,797,797,797,797,797,798,798,798,798,798,798,798,798,798,798,798,798,799,799,799,799,799,799,799,799,799,799,799,799,799,799,799,799,799,799,799,799,799,799,799,799,790,765,671,612,525,492,481,473,473,473,473,473,473,473,473,473,473,473,471],"ymouse":[505,505,505,505,505,505,505,505,505,505,505,505,505,505,505,505,505,505,505,505,505,505,505,505,505,505,505,505,505,505,505,505,505,505,505,505,505,505,505,505,505,505,505,505,505,495,489,488,487,483,482,482,482,482,482,482,482,482,482,482,482,482,480,479,478,474,473,473,473,473,473,473,473,473,473,470,469,468,468,468,468,468,468,468,468,467,457,435,336,286,209,181,165,148,146,146,146,146,146,145,141,132,118,108,93],"timestamp_mouse":[1,31,39,61,79,100,120,139,161,179,200,220,241,260,281,299,321,339,361,379,400,419,439,460,479,499,520,539,560,581,600,621,640,660,679,700,720,739,759,781,799,821,839,859,881,899,921,941,959,981,1000,1020,1040,1059,1080,1100,1119,1139,1160,1180,1201,1219,1241,1261,1280,1299,1320,1339,1359,1381,1400,1419,1441,1461,1480,1500,1520,1541,1561,1579,1599,1620,1640,1661,1679,1700,1720,1741,1761,1779,1799,1820,1841,1861,1880,1899,1919,1940,1960,1981,2000,2019,2040,2061,2081],"xSR":741.5,"ySR":469.95,"xT1":424.9,"yT1":0,"xT2":1058.1,"yT2":0,"toosoon":0,"cond_shown":"Congruent","ratio_trial":100,"L_num":11,"L_den":22,"R_num":4,"R_den":10,"correct_side":1,"subjID":"juanandresespañolgaleano24","gender":"0","school":"6","age":"11"},{"start_time":1551794047795,"click_time":1551794051423,"finger_time":1551794049344,"fix_duration":910.6586694567059,"trial":26,"RT":1549,"MT":2079,"sideResp":1,"stimulus":[],"xmouse":[800,800,800,800,800,800,800,800,800,800,800,800,800,800,800,800,800,800,800,800,800,800,800,800,800,800,800,800,800,800,800,800,800,800,800,800,800,800,800,800,800,800,800,800,800,800,800,800,800,800,800,800,800,800,800,800,800,800,800,800,800,800,800,800,800,800,800,800,800,800,800,800,800,801,801,798,795,793,787,783,781,780,780,780,780,780,780,780,780,778,777,777,776,776,776,776,776,779,787,806,817,825,831,837,849,856,864,871,877,881,881,877,873,867,851,839,822,802,773,690,650,630,613,590,583,579,575,572,570,570,570,578,605,659,796,876,944,989,1011,1028,1030,1031,1032,1033,1037,1038,1038,1038,1038,1025,988,950,911,875,808,775,745,716,699,695,700,719,744,765,794,799,800,800,795,693,578,556,556,566,580,597,608,615,617,611,558,493],"ymouse":[518,518,518,518,518,518,518,518,518,518,518,518,518,518,518,518,518,518,518,518,518,518,518,518,518,518,518,518,518,518,518,518,518,518,518,518,518,518,518,518,518,518,518,518,518,518,518,518,518,518,518,518,518,518,518,518,518,518,518,518,518,518,518,518,518,518,518,518,518,518,518,518,518,517,504,492,476,469,447,435,430,428,427,426,426,426,426,424,424,414,407,405,403,400,397,395,393,387,381,368,358,352,343,336,320,308,294,281,268,248,239,232,228,223,213,208,202,196,189,180,180,180,180,177,176,175,173,172,172,172,172,166,156,142,111,95,83,68,60,51,50,49,49,48,48,48,48,48,48,48,50,52,55,55,56,61,64,68,68,69,69,69,65,60,58,58,59,59,62,56,42,42,42,39,37,34,34,34,36,45,51,51],"timestamp_mouse":[9,28,49,69,87,109,129,148,167,189,207,227,249,269,289,307,329,348,368,387,408,429,449,467,489,507,527,549,568,587,607,628,649,668,688,707,727,749,767,788,807,828,848,868,887,909,927,947,969,987,1007,1029,1047,1069,1089,1109,1127,1149,1169,1187,1208,1229,1248,1269,1289,1307,1328,1349,1368,1389,1407,1429,1447,1468,1488,1508,1528,1549,1569,1588,1607,1627,1649,1669,1687,1709,1728,1748,1769,1788,1808,1828,1848,1869,1887,1909,1928,1947,1969,1988,2008,2027,2048,2068,2087,2108,2129,2147,2168,2188,2208,2227,2248,2269,2287,2309,2328,2349,2367,2387,2407,2428,2448,2469,2488,2508,2527,2548,2568,2588,2608,2628,2647,2668,2687,2714,2728,2749,2768,2788,2808,2827,2848,2868,2887,2908,2928,2949,2968,2988,3008,3028,3048,3068,3087,3108,3129,3148,3167,3187,3207,3227,3248,3268,3287,3309,3328,3348,3368,3387,3409,3428,3448,3469,3488,3508,3527,3547,3568,3588,3609,3628],"xSR":741.5,"ySR":469.95,"xT1":424.9,"yT1":0,"xT2":1058.1,"yT2":0,"toosoon":0,"cond_shown":"Congruent","ratio_trial":200,"L_num":11,"L_den":22,"R_num":3,"R_den":10,"correct_side":1,"subjID":"juanandresespañolgaleano24","gender":"0","school":"6","age":"11"},{"start_time":1551794056222,"click_time":1551794058723,"finger_time":1551794057923,"fix_duration":1377.2997435857746,"trial":27,"RT":1701,"MT":800,"sideResp":2,"stimulus":[],"xmouse":[801,801,801,801,801,801,801,801,801,801,801,801,801,801,801,801,801,801,801,801,801,801,801,801,800,799,798,798,798,798,798,798,798,798,798,798,798,798,798,798,798,798,798,798,798,798,798,798,798,798,798,798,798,798,798,798,798,798,798,798,798,798,798,798,798,798,798,798,798,798,798,798,798,798,798,798,798,798,798,798,799,801,801,803,804,805,806,807,808,810,813,816,819,827,831,834,836,839,843,851,855,859,865,872,876,881,885,901,912,921,929,938,946,964,973,981,989,1004,1014,1019,1022,1027,1032,1046,1055,1063],"ymouse":[518,518,518,518,518,518,518,518,518,518,518,518,518,518,518,518,518,518,518,518,518,518,518,518,513,511,509,509,509,509,509,509,509,509,509,509,509,509,509,509,509,509,509,509,509,509,509,509,509,509,509,509,509,509,509,509,509,509,509,509,509,509,509,509,509,509,509,509,509,509,509,509,509,509,509,509,509,508,497,493,488,483,479,473,470,468,464,460,456,448,440,430,418,394,381,370,362,357,342,324,315,306,295,276,266,254,243,217,196,181,165,147,133,102,89,77,66,46,36,33,31,29,29,29,29,29],"timestamp_mouse":[8,21,48,61,81,101,121,141,161,181,200,220,241,261,281,302,321,340,361,382,401,421,441,462,481,501,522,542,561,581,602,621,640,661,680,701,722,741,761,782,801,821,841,861,881,902,920,942,961,982,1001,1021,1041,1061,1081,1102,1120,1141,1161,1180,1200,1221,1241,1260,1281,1301,1321,1341,1360,1380,1401,1422,1441,1462,1480,1502,1520,1542,1561,1581,1601,1621,1642,1661,1681,1701,1721,1742,1760,1781,1800,1822,1842,1861,1881,1901,1921,1942,1961,1982,2000,2021,2041,2061,2082,2101,2122,2142,2162,2180,2201,2221,2241,2261,2281,2301,2321,2343,2361,2382,2401,2422,2442,2461,2482,2501],"xSR":741.5,"ySR":469.95,"xT1":424.9,"yT1":0,"xT2":1058.1,"yT2":0,"toosoon":0,"cond_shown":"Congruent","ratio_trial":200,"L_num":8,"L_den":15,"R_num":7,"R_den":21,"correct_side":1,"subjID":"juanandresespañolgaleano24","gender":"0","school":"6","age":"11"},{"start_time":1551794062215,"click_time":1551794063904,"finger_time":1551794063304,"fix_duration":1428.4392047187746,"trial":28,"RT":1089,"MT":600,"sideResp":2,"stimulus":[],"xmouse":[812,812,812,812,812,812,812,812,812,812,812,812,812,812,812,812,812,812,812,812,812,812,812,812,812,812,812,812,812,812,812,812,812,812,812,812,812,812,812,812,812,812,812,812,812,812,812,812,812,812,812,812,812,815,818,824,824,824,824,824,824,824,824,825,827,831,835,839,850,859,868,876,894,907,921,933,948,962,985,998,1005,1011,1018,1051,1074],"ymouse":[492,492,492,492,492,492,492,492,492,492,492,492,492,492,492,492,492,492,492,492,492,492,492,492,492,492,492,492,492,492,492,492,492,492,492,492,492,492,492,492,492,492,492,492,492,492,492,492,492,492,492,492,492,473,448,411,375,346,299,272,256,244,225,215,205,196,187,179,163,150,138,129,113,104,94,87,80,74,65,59,56,54,53,49,45],"timestamp_mouse":[16,37,48,69,88,109,127,148,168,188,207,228,249,268,288,308,327,348,368,388,408,429,447,468,489,507,529,549,568,588,607,627,648,668,688,707,729,748,768,787,809,829,848,868,887,909,929,949,969,988,1008,1027,1048,1068,1089,1109,1129,1149,1168,1189,1207,1228,1249,1269,1288,1308,1328,1349,1367,1388,1408,1428,1449,1467,1489,1508,1528,1549,1568,1588,1608,1628,1648,1668,1689],"xSR":741.5,"ySR":469.95,"xT1":424.9,"yT1":0,"xT2":1058.1,"yT2":0,"toosoon":0,"cond_shown":"Incongruent","ratio_trial":300,"L_num":4,"L_den":20,"R_num":2,"R_den":4,"correct_side":2,"subjID":"juanandresespañolgaleano24","gender":"0","school":"6","age":"11"},{"start_time":1551794065802,"click_time":1551794067283,"finger_time":1551794066783,"fix_duration":817.2416526928251,"trial":29,"RT":981,"MT":500,"sideResp":2,"stimulus":[],"xmouse":[791,791,791,791,791,791,791,791,791,791,791,791,791,791,791,791,791,791,791,791,791,791,791,791,791,791,791,791,791,791,791,791,791,791,791,791,791,790,790,790,790,791,791,791,791,792,793,794,795,798,802,805,808,818,820,824,828,831,835,844,847,851,856,862,883,895,908,921,948,964,988,1005,1025,1050,1095],"ymouse":[516,516,516,516,516,516,516,516,516,516,516,516,516,516,516,516,516,516,516,516,516,516,516,516,516,516,516,516,516,516,516,516,516,516,516,516,516,516,515,513,511,509,506,503,500,496,491,484,474,449,425,408,392,364,354,344,337,329,320,304,295,289,283,278,262,254,245,236,214,201,181,164,147,128,92],"timestamp_mouse":[8,31,40,61,81,101,122,142,162,181,202,220,241,262,280,302,320,342,362,381,401,422,441,461,481,501,522,542,562,581,600,622,642,662,681,702,721,741,761,782,801,821,841,861,882,901,922,942,961,981,1001,1021,1042,1062,1080,1102,1122,1141,1161,1181,1201,1221,1241,1261,1281,1302,1322,1341,1362,1381,1401,1422,1442,1460,1481],"xSR":741.5,"ySR":469.95,"xT1":424.9,"yT1":0,"xT2":1058.1,"yT2":0,"toosoon":0,"cond_shown":"Incongruent","ratio_trial":300,"L_num":13,"L_den":26,"R_num":12,"R_den":15,"correct_side":2,"subjID":"juanandresespañolgaleano24","gender":"0","school":"6","age":"11"},{"start_time":1551794069058,"click_time":1551794070183,"finger_time":1551794069763,"fix_duration":774.61302036982,"trial":30,"RT":705,"MT":420,"sideResp":2,"stimulus":[],"xmouse":[785,785,785,785,785,785,785,785,785,785,785,785,785,785,785,785,785,785,785,785,785,785,785,785,785,785,785,785,785,785,785,785,785,785,785,787,795,797,804,809,820,828,836,846,855,870,890,905,917,929,941,969,984,1000,1016,1033,1067],"ymouse":[509,509,509,509,509,509,509,509,509,509,509,509,509,509,509,509,509,509,509,509,509,509,509,509,509,509,509,509,509,509,509,509,509,495,487,468,419,400,381,363,333,317,303,285,266,248,216,197,184,170,157,132,121,109,101,91,71],"timestamp_mouse":[8,25,44,65,85,105,125,145,165,186,205,225,244,266,285,305,325,345,365,386,404,426,445,465,485,505,524,545,564,585,606,626,644,665,685,705,724,744,764,786,806,824,845,866,885,906,925,946,965,985,1005,1025,1045,1065,1086,1105,1125],"xSR":741.5,"ySR":469.95,"xT1":424.9,"yT1":0,"xT2":1058.1,"yT2":0,"toosoon":0,"cond_shown":"Incongruent","ratio_trial":300,"L_num":4,"L_den":20,"R_num":2,"R_den":4,"correct_side":2,"subjID":"juanandresespañolgaleano24","gender":"0","school":"6","age":"11"},{"start_time":1551794073494,"click_time":1551794075043,"finger_time":1551794074702,"fix_duration":968.1875071557146,"trial":31,"RT":1208,"MT":341,"sideResp":1,"stimulus":[],"xmouse":[753,753,753,754,761,763,763,763,763,763,763,763,763,763,763,763,763,763,763,763,763,763,763,763,763,763,763,763,763,763,763,763,763,763,763,763,763,763,763,763,763,763,763,763,763,763,763,763,763,763,762,762,762,761,761,761,761,759,756,743,730,714,699,682,643,616,602,592,582,565,555,545,535,520,505,491,477,462],"ymouse":[531,531,531,531,528,526,526,526,526,526,526,526,526,526,526,526,526,526,526,526,526,526,526,526,526,526,526,526,526,526,526,526,526,526,526,526,526,526,526,526,526,526,526,526,526,526,526,526,525,524,523,523,523,521,521,520,518,514,508,484,464,444,424,406,367,345,335,327,318,294,277,257,236,200,170,146,120,96],"timestamp_mouse":[10,37,49,69,90,109,128,150,169,190,210,229,249,269,290,309,330,348,369,388,410,429,450,468,488,510,529,549,569,590,609,629,649,668,689,709,729,750,770,789,810,830,850,870,889,910,928,950,969,988,1009,1029,1048,1070,1090,1109,1130,1149,1170,1190,1208,1229,1249,1269,1289,1309,1328,1350,1370,1389,1410,1428,1449,1470,1489,1508,1529,1549],"xSR":741.5,"ySR":469.95,"xT1":424.9,"yT1":0,"xT2":1058.1,"yT2":0,"toosoon":0,"cond_shown":"Congruent","ratio_trial":200,"L_num":21,"L_den":30,"R_num":2,"R_den":4,"correct_side":1,"subjID":"juanandresespañolgaleano24","gender":"0","school":"6","age":"11"},{"start_time":1551794079308,"click_time":1551794082623,"finger_time":1551794080604,"fix_duration":1242.1860490183865,"trial":32,"RT":1296,"MT":2019,"sideResp":1,"stimulus":[],"xmouse":[816,816,816,816,816,816,816,816,816,816,816,816,816,816,816,816,816,816,816,816,816,816,816,816,816,816,816,816,816,816,816,816,816,816,816,816,816,816,816,816,816,816,816,816,816,816,816,816,816,816,816,816,816,816,816,816,816,816,816,816,816,815,812,806,795,785,768,746,702,678,662,649,640,628,625,619,611,590,579,571,565,562,558,554,552,550,549,547,547,547,547,547,547,546,544,544,543,540,540,540,540,540,540,540,540,540,540,540,540,540,540,540,540,540,540,538,538,538,538,538,538,538,538,538,538,538,538,538,538,538,538,538,538,538,538,538,538,538,538,537,535,535,535,535,535,535,535,535,535,535,535,535,535,535,535,535,535,535,535,535,535,535,535,535,534,520],"ymouse":[542,542,542,542,542,542,542,542,542,542,542,542,542,542,542,542,542,542,542,542,542,542,542,542,542,542,542,542,542,542,542,542,542,542,542,542,542,542,542,542,542,542,542,542,542,542,542,542,542,542,542,542,542,542,542,540,535,532,524,520,516,511,500,473,444,417,386,339,258,222,200,181,169,145,136,124,112,85,74,68,63,60,57,53,51,50,50,49,49,49,49,49,49,49,49,48,48,48,48,48,48,48,48,48,48,48,48,48,48,48,48,48,48,48,48,48,48,48,48,48,48,48,48,48,48,48,48,48,48,48,48,48,48,48,48,48,48,48,48,48,48,48,48,48,48,48,48,48,48,48,48,48,48,48,48,48,48,48,48,48,48,48,48,48,48,32],"timestamp_mouse":[15,42,55,76,94,115,135,154,175,194,215,234,256,274,295,316,334,356,375,395,415,435,454,475,495,516,534,555,575,595,615,635,655,675,695,715,735,755,775,795,815,836,856,876,895,915,935,955,975,995,1016,1036,1056,1075,1096,1115,1135,1155,1175,1196,1215,1235,1255,1275,1296,1316,1336,1355,1375,1395,1415,1435,1454,1474,1496,1515,1535,1556,1574,1595,1615,1635,1655,1675,1695,1714,1735,1756,1775,1796,1815,1836,1856,1874,1895,1915,1935,1956,1974,1996,2016,2035,2056,2075,2095,2116,2135,2155,2176,2194,2214,2236,2255,2276,2295,2315,2334,2356,2375,2395,2415,2434,2455,2475,2495,2515,2536,2555,2575,2594,2616,2636,2655,2676,2695,2715,2735,2755,2775,2795,2815,2836,2856,2874,2895,2916,2935,2954,2975,2996,3016,3036,3056,3075,3096,3116,3135,3155,3174,3195,3216,3235,3256,3274,3295,3315],"xSR":741.5,"ySR":469.95,"xT1":424.9,"yT1":0,"xT2":1058.1,"yT2":0,"toosoon":0,"cond_shown":"Congruent","ratio_trial":200,"L_num":12,"L_den":20,"R_num":6,"R_den":15,"correct_side":1,"subjID":"juanandresespañolgaleano24","gender":"0","school":"6","age":"11"},{"start_time":1551794085791,"click_time":1551794087043,"finger_time":1551794086782,"fix_duration":587.2105488898773,"trial":33,"RT":991,"MT":261,"sideResp":2,"stimulus":[],"xmouse":[770,770,770,770,770,770,770,770,770,770,770,770,770,770,770,770,770,770,770,770,770,770,770,770,770,770,770,770,770,770,770,770,770,770,770,770,770,770,770,770,770,770,770,770,770,770,773,778,783,792,794,795,795,795,795,795,796,798,798,805,862,1018,1145],"ymouse":[528,528,528,528,528,528,528,528,528,528,528,528,528,528,528,528,528,528,528,528,528,528,528,528,528,528,528,528,528,528,528,528,528,528,528,528,528,528,528,528,528,528,528,528,528,528,511,501,488,467,461,456,451,445,435,431,427,421,415,384,290,159,73],"timestamp_mouse":[13,43,51,73,92,112,132,153,173,193,213,232,252,272,293,313,332,352,371,393,411,432,453,473,493,513,533,553,573,592,612,633,653,671,692,712,731,753,773,793,812,832,851,873,893,912,932,953,973,991,1011,1032,1053,1073,1092,1111,1132,1152,1172,1192,1213,1232,1252],"xSR":741.5,"ySR":469.95,"xT1":424.9,"yT1":0,"xT2":1058.1,"yT2":0,"toosoon":0,"cond_shown":"Congruent","ratio_trial":300,"L_num":8,"L_den":15,"R_num":10,"R_den":12,"correct_side":2,"subjID":"juanandresespañolgaleano24","gender":"0","school":"6","age":"11"},{"start_time":1551794091020,"click_time":1551794093864,"finger_time":1551794091923,"fix_duration":756.2371310572046,"trial":34,"RT":903,"MT":1941,"sideResp":1,"stimulus":[],"xmouse":[822,822,822,822,822,822,822,822,822,822,822,822,822,822,822,822,822,822,822,822,822,822,822,822,822,822,822,822,822,822,822,822,822,822,822,822,822,822,822,822,819,814,804,773,754,738,728,722,719,712,704,694,680,653,634,616,601,574,559,553,549,548,547,547,547,547,547,547,549,549,550,551,551,551,551,550,550,550,550,550,550,550,550,550,550,550,552,555,557,558,558,558,558,558,558,558,559,559,559,560,560,560,563,566,569,570,571,571,571,571,571,571,571,571,571,570,570,566,558,553,552,551,550,546,543,538,532,528,521,518,517,516,516,513,511,508,505,504,503,503,502,502,502],"ymouse":[519,519,519,519,519,519,519,519,519,519,519,519,519,519,519,519,519,519,519,519,519,519,519,519,519,519,519,519,519,519,519,519,519,519,519,519,519,519,519,519,519,515,508,486,474,465,460,455,438,423,406,390,372,334,314,294,279,257,244,239,235,234,233,232,231,231,230,228,225,225,224,223,218,205,200,195,195,195,195,195,195,195,194,194,193,192,190,189,188,187,187,187,187,187,187,187,187,187,187,187,187,187,187,188,189,190,190,190,190,190,190,190,190,190,190,190,189,185,175,169,167,166,165,162,160,156,152,148,142,137,134,131,127,121,116,113,110,109,106,103,101,100,99],"timestamp_mouse":[10,23,43,62,82,102,122,143,163,184,202,224,243,263,283,303,323,342,363,383,403,423,443,464,484,503,524,544,562,584,604,624,644,662,684,703,723,743,763,783,802,824,844,863,883,903,923,943,963,983,1003,1022,1044,1062,1083,1103,1123,1144,1163,1182,1203,1223,1244,1264,1283,1302,1324,1344,1363,1382,1403,1422,1444,1463,1483,1503,1523,1543,1563,1584,1603,1623,1643,1664,1683,1704,1724,1744,1763,1783,1802,1824,1844,1863,1883,1902,1924,1943,1963,1983,2004,2024,2044,2062,2083,2104,2124,2144,2163,2182,2203,2223,2244,2264,2283,2302,2323,2344,2364,2383,2403,2424,2443,2463,2484,2502,2523,2544,2564,2583,2603,2622,2644,2664,2683,2703,2723,2742,2763,2784,2804,2823,2843],"xSR":741.5,"ySR":469.95,"xT1":424.9,"yT1":0,"xT2":1058.1,"yT2":0,"toosoon":0,"cond_shown":"Incongruent","ratio_trial":200,"L_num":1,"L_den":3,"R_num":2,"R_den":15,"correct_side":1,"subjID":"juanandresespañolgaleano24","gender":"0","school":"6","age":"11"},{"start_time":1551794104453,"click_time":1551794105703,"finger_time":1551794105383,"fix_duration":250,"trial":35,"RT":930,"MT":320,"sideResp":1,"stimulus":[],"xmouse":[755,755,755,755,755,752,751,751,751,751,751,751,751,751,751,752,755,758,760,760,760,761,762,762,762,762,762,762,764,764,764,764,764,764,764,764,764,764,764,764,764,763,762,760,756,749,727,707,694,681,670,644,624,596,573,548,513,491,483,480,476,469,465],"ymouse":[532,532,532,532,533,535,536,537,537,537,537,537,537,537,537,537,536,535,534,534,534,534,534,534,534,534,534,534,533,533,533,533,533,533,533,533,533,533,533,533,533,529,526,520,512,497,459,428,407,389,369,330,303,271,247,226,191,169,156,145,132,107,95],"timestamp_mouse":[11,35,50,70,91,111,129,150,170,190,211,230,251,270,291,310,330,349,370,389,410,431,449,470,490,510,530,550,570,590,610,631,650,671,690,711,730,750,771,791,811,830,850,870,891,910,930,950,971,990,1010,1030,1050,1070,1090,1110,1131,1150,1170,1191,1210,1229,1250],"xSR":741.5,"ySR":469.95,"xT1":424.9,"yT1":0,"xT2":1058.1,"yT2":0,"toosoon":0,"cond_shown":"Congruent","ratio_trial":300,"L_num":24,"L_den":30,"R_num":8,"R_den":16,"correct_side":1,"subjID":"juanandresespañolgaleano24","gender":"0","school":"6","age":"11"},{"start_time":1551794107895,"click_time":1551794109103,"finger_time":1551794108983,"fix_duration":1271.8240362050437,"trial":36,"RT":1088,"MT":120,"sideResp":1,"stimulus":[],"xmouse":[800,800,800,800,800,800,800,800,800,800,800,800,800,800,800,800,800,800,800,800,800,800,800,800,800,800,800,800,800,800,800,800,800,800,800,800,800,800,800,800,800,800,799,799,797,797,797,796,790,786,781,772,760,744,716,691,662,627,588,522,480],"ymouse":[538,538,538,538,538,538,538,538,538,538,538,538,538,538,538,538,538,538,538,538,538,538,538,538,538,538,538,538,538,538,538,538,538,538,538,538,538,538,538,538,538,537,536,535,534,534,534,534,531,529,524,517,507,494,466,419,356,285,223,121,70],"timestamp_mouse":[10,33,49,68,89,109,129,147,167,189,208,228,249,269,289,307,328,349,368,388,409,427,448,468,487,509,529,547,569,588,607,629,649,668,688,707,729,748,768,788,809,828,848,868,888,907,929,948,969,988,1008,1028,1049,1067,1088,1109,1128,1147,1168,1188,1208],"xSR":741.5,"ySR":469.95,"xT1":424.9,"yT1":0,"xT2":1058.1,"yT2":0,"toosoon":0,"cond_shown":"Incongruent","ratio_trial":200,"L_num":1,"L_den":2,"R_num":3,"R_den":10,"correct_side":1,"subjID":"juanandresespañolgaleano24","gender":"0","school":"6","age":"11"},{"start_time":1551794115455,"click_time":1551794116524,"finger_time":1551794116402,"fix_duration":250,"trial":37,"RT":947,"MT":122,"sideResp":2,"stimulus":[],"xmouse":[761,761,761,761,761,761,761,761,761,761,762,762,762,762,762,762,762,762,762,762,762,762,762,762,762,762,762,762,762,762,762,762,762,762,762,762,762,762,762,762,765,775,791,801,803,806,815,833,848,873,907,992,1028,1059],"ymouse":[518,518,518,518,518,518,518,519,521,522,523,523,523,523,523,523,523,523,523,523,523,523,523,523,523,523,523,523,523,523,523,523,523,523,523,523,523,523,523,523,522,515,505,500,498,495,474,443,415,368,304,148,77,16],"timestamp_mouse":[10,42,47,67,89,109,128,148,169,188,209,227,248,269,287,308,328,347,369,388,409,427,449,468,487,508,529,547,568,587,609,627,649,668,687,708,729,748,768,789,808,829,848,867,889,908,929,947,968,988,1009,1028,1048,1069],"xSR":741.5,"ySR":469.95,"xT1":424.9,"yT1":0,"xT2":1058.1,"yT2":0,"toosoon":0,"cond_shown":"Incongruent","ratio_trial":300,"L_num":4,"L_den":20,"R_num":2,"R_den":4,"correct_side":2,"subjID":"juanandresespañolgaleano24","gender":"0","school":"6","age":"11"},{"start_time":1551794128434,"click_time":1551794129584,"finger_time":1551794129443,"fix_duration":250,"trial":38,"RT":1009,"MT":141,"sideResp":2,"stimulus":[],"xmouse":[826,826,826,826,826,825,823,822,821,821,821,821,821,821,821,821,821,821,821,821,821,821,821,821,821,821,821,821,821,821,821,821,821,821,821,821,821,821,821,821,821,821,821,821,821,821,821,821,821,831,846,870,945,981,1012,1036,1054,1083],"ymouse":[529,529,529,529,529,529,529,530,531,531,531,531,531,531,531,531,531,531,531,531,531,531,531,531,531,531,531,531,531,531,531,531,531,531,531,531,531,531,531,531,531,531,531,531,531,531,531,531,530,516,493,451,320,257,203,161,127,75],"timestamp_mouse":[8,37,49,69,90,109,130,148,169,189,210,230,249,269,289,310,328,350,370,390,409,428,449,470,489,509,528,550,569,589,608,630,649,669,688,710,728,749,770,789,809,829,849,869,890,909,930,948,969,989,1009,1029,1049,1070,1090,1109,1130,1150],"xSR":741.5,"ySR":469.95,"xT1":424.9,"yT1":0,"xT2":1058.1,"yT2":0,"toosoon":0,"cond_shown":"Congruent","ratio_trial":300,"L_num":5,"L_den":25,"R_num":7,"R_den":14,"correct_side":2,"subjID":"juanandresespañolgaleano24","gender":"0","school":"6","age":"11"},{"start_time":1551794130955,"click_time":1551794133004,"finger_time":1551794131883,"fix_duration":250,"trial":39,"RT":928,"MT":1121,"sideResp":2,"stimulus":[],"xmouse":[799,799,799,799,799,799,799,799,799,799,799,799,799,799,799,799,799,799,799,799,799,799,799,799,799,799,799,799,799,799,799,799,799,798,798,795,794,793,791,789,788,780,775,770,759,747,731,728,728,728,728,728,728,728,728,728,728,728,728,728,728,728,728,728,728,728,728,728,728,728,728,728,728,728,728,728,727,727,727,728,731,748,792,869,967,1063,1192,1222,1232,1235,1237,1247,1253,1256,1258,1259,1259,1259,1259,1259,1248,1193,1145],"ymouse":[499,499,499,499,499,499,499,499,499,499,499,499,499,499,499,499,499,499,499,499,499,499,499,499,499,499,499,499,499,499,499,499,499,499,499,499,499,499,499,499,498,493,490,486,478,470,461,460,460,460,460,460,460,460,460,460,460,460,460,460,460,460,460,460,460,460,460,460,460,460,460,460,460,460,460,460,459,459,458,456,452,435,398,340,264,191,99,78,69,62,59,43,33,27,23,22,22,22,22,21,21,36,46],"timestamp_mouse":[8,45,49,67,89,108,127,149,167,188,209,228,248,267,287,309,329,349,369,389,407,428,448,467,489,509,528,548,569,589,607,628,648,668,688,709,728,748,768,789,808,829,849,869,889,909,928,948,968,988,1008,1028,1048,1068,1088,1109,1127,1148,1167,1187,1209,1229,1248,1268,1288,1308,1329,1348,1369,1389,1409,1427,1449,1468,1487,1509,1528,1549,1568,1588,1608,1629,1648,1668,1687,1707,1728,1748,1768,1788,1809,1828,1848,1868,1889,1908,1929,1948,1969,1989,2009,2028,2049],"xSR":741.5,"ySR":469.95,"xT1":424.9,"yT1":0,"xT2":1058.1,"yT2":0,"toosoon":0,"cond_shown":"Congruent","ratio_trial":200,"L_num":3,"L_den":12,"R_num":9,"R_den":20,"correct_side":2,"subjID":"juanandresespañolgaleano24","gender":"0","school":"6","age":"11"},{"start_time":1551794134610,"click_time":1551794135703,"finger_time":1551794135323,"fix_duration":746.0920854813063,"trial":40,"RT":713,"MT":380,"sideResp":1,"stimulus":[],"xmouse":[810,810,810,810,810,810,810,810,810,810,810,810,810,810,810,810,810,810,810,810,810,810,810,810,810,810,810,810,810,810,810,810,810,810,808,806,797,772,761,738,728,715,704,679,668,654,644,634,609,594,594,594,594,594,500],"ymouse":[493,493,493,493,493,493,493,493,493,493,493,493,493,493,493,493,493,493,493,493,493,493,493,493,493,493,493,493,493,493,493,493,493,493,481,454,431,391,366,312,275,233,200,142,122,99,79,62,20,2,2,2,2,2,8],"timestamp_mouse":[18,33,54,74,94,113,134,153,173,194,214,233,252,273,293,313,333,353,373,394,413,433,454,474,492,514,533,553,573,592,614,633,652,672,693,713,734,754,772,793,813,833,853,873,894,914,933,954,973,993,1014,1033,1054,1073,1093],"xSR":741.5,"ySR":469.95,"xT1":424.9,"yT1":0,"xT2":1058.1,"yT2":0,"toosoon":0,"cond_shown":"Congruent","ratio_trial":300,"L_num":11,"L_den":22,"R_num":2,"R_den":10,"correct_side":1,"subjID":"juanandresespañolgaleano24","gender":"0","school":"6","age":"11"},{"start_time":1551794137075,"click_time":1551794141643,"finger_time":1551794138543,"fix_duration":490.1880328443472,"trial":41,"RT":1468,"MT":3100,"sideResp":1,"stimulus":[],"xmouse":[794,794,794,794,794,794,794,793,793,793,793,793,793,793,793,793,793,793,793,793,793,793,793,793,793,793,793,793,793,793,793,793,793,793,793,793,793,793,793,793,793,793,793,793,793,793,793,793,793,793,793,793,793,793,793,793,793,793,793,793,793,793,793,793,793,793,793,793,792,791,787,783,773,749,715,646,626,613,602,596,587,586,582,578,571,569,568,568,568,568,568,568,568,568,568,568,568,568,568,568,568,567,566,564,561,552,550,550,550,549,547,546,546,546,546,545,545,545,545,545,545,545,545,545,545,544,544,544,544,544,544,544,544,544,544,544,544,544,544,544,544,544,544,544,544,544,544,544,544,544,544,545,546,546,546,547,545,543,539,537,531,530,528,528,527,526,526,526,526,526,526,526,526,526,526,526,526,526,526,526,526,526,526,526,534,573,587,594,596,596,621,653,707,772,826,865,865,865,864,860,826,806,790,782,781,779,779,779,784,854,903,919,920,920,918,819,660,570,558,558,594,668,708,722,722,723,698,581,468],"ymouse":[532,532,532,532,532,532,532,531,531,531,531,531,531,531,531,531,531,531,531,531,531,531,531,531,531,531,531,531,531,531,531,531,531,531,531,531,531,531,531,531,531,531,531,531,531,531,531,531,531,531,531,531,531,531,531,531,531,531,531,531,531,531,531,531,531,531,531,531,528,528,522,514,493,433,357,202,160,131,106,87,65,58,49,41,31,29,29,29,29,29,29,29,29,29,29,29,29,29,29,29,29,29,29,29,29,32,32,32,33,33,34,35,35,35,35,36,36,36,36,36,36,36,36,36,36,38,38,38,38,38,38,38,38,38,38,38,38,38,38,38,38,38,38,38,38,38,38,38,38,38,39,41,43,43,43,49,60,68,79,89,107,113,118,121,124,125,125,125,125,126,126,126,126,126,126,126,126,126,126,126,126,126,126,126,128,128,128,127,126,126,115,108,102,102,102,100,100,100,98,97,95,97,102,103,104,104,104,104,104,106,106,107,107,107,107,92,69,56,54,54,53,53,53,53,53,53,51,51,51],"timestamp_mouse":[11,40,49,67,89,108,128,148,168,188,208,228,247,268,289,308,328,348,369,387,408,427,449,468,489,507,528,547,569,588,608,628,649,667,688,708,729,748,768,788,808,828,849,868,888,908,929,948,968,988,1009,1028,1047,1069,1088,1108,1129,1148,1168,1188,1208,1228,1248,1268,1288,1308,1328,1347,1369,1388,1408,1428,1448,1468,1488,1508,1528,1548,1568,1588,1607,1629,1648,1668,1689,1708,1729,1748,1768,1787,1808,1828,1849,1869,1889,1909,1929,1947,1969,1988,2008,2028,2048,2069,2087,2108,2128,2148,2169,2189,2208,2228,2248,2268,2288,2308,2328,2348,2368,2388,2408,2427,2449,2468,2488,2508,2528,2548,2569,2588,2607,2628,2649,2668,2689,2708,2728,2747,2768,2788,2808,2828,2847,2868,2888,2908,2928,2948,2969,2989,3007,3029,3048,3068,3088,3108,3128,3148,3168,3188,3207,3228,3248,3268,3289,3309,3328,3348,3368,3388,3409,3428,3448,3468,3488,3508,3529,3549,3568,3588,3608,3628,3648,3668,3688,3708,3728,3748,3768,3787,3808,3828,3848,3868,3887,3907,3928,3949,3967,3988,4008,4029,4049,4068,4088,4108,4129,4149,4168,4189,4208,4228,4248,4269,4289,4308,4328,4347,4368,4388,4408,4429,4448,4468,4488,4509,4528,4548,4568],"xSR":741.5,"ySR":469.95,"xT1":424.9,"yT1":0,"xT2":1058.1,"yT2":0,"toosoon":0,"cond_shown":"Incongruent","ratio_trial":100,"L_num":3,"L_den":9,"R_num":7,"R_den":30,"correct_side":1,"subjID":"juanandresespañolgaleano24","gender":"0","school":"6","age":"11"},{"start_time":1551794144559,"click_time":1551794146323,"finger_time":1551794145383,"fix_duration":1094.4429493092857,"trial":42,"RT":824,"MT":940,"sideResp":1,"stimulus":[],"xmouse":[790,790,790,790,790,790,790,790,790,790,790,790,790,790,790,790,790,790,790,790,790,790,790,790,790,789,789,789,789,789,789,789,789,789,789,789,789,789,789,789,789,790,792,793,793,792,780,774,760,745,735,732,732,732,732,732,732,732,733,733,734,738,740,743,748,750,757,757,757,756,752,742,734,724,710,700,686,682,678,672,661,622,597,590,585,581,562,544,523],"ymouse":[521,521,521,521,521,521,521,521,521,521,521,521,521,521,521,521,521,521,521,521,521,521,521,521,521,521,520,519,518,515,510,508,507,507,507,507,507,506,500,487,472,435,409,395,382,371,348,338,322,304,289,283,283,283,283,283,280,272,264,254,246,236,232,226,218,209,190,182,171,161,152,133,122,110,98,90,82,80,78,76,71,59,55,53,52,52,50,49,47],"timestamp_mouse":[10,37,45,63,84,105,125,145,165,184,205,225,245,265,284,305,324,345,365,385,404,425,444,464,485,503,524,544,565,584,605,624,644,665,684,705,725,745,764,784,805,824,844,864,885,904,924,945,964,984,1004,1024,1044,1064,1084,1104,1125,1144,1164,1185,1204,1225,1244,1264,1283,1304,1324,1344,1364,1384,1404,1424,1443,1463,1484,1505,1525,1544,1564,1584,1604,1624,1644,1664,1685,1704,1725,1745,1764],"xSR":741.5,"ySR":469.95,"xT1":424.9,"yT1":0,"xT2":1058.1,"yT2":0,"toosoon":0,"cond_shown":"Incongruent","ratio_trial":200,"L_num":1,"L_den":3,"R_num":2,"R_den":15,"correct_side":1,"subjID":"juanandresespañolgaleano24","gender":"0","school":"6","age":"11"},{"start_time":1551794147475,"click_time":1551794150903,"finger_time":1551794148943,"fix_duration":250,"trial":43,"RT":1468,"MT":1960,"sideResp":1,"stimulus":[],"xmouse":[794,794,794,794,794,794,794,794,794,794,794,794,794,794,794,794,794,794,794,794,794,794,794,794,794,794,794,794,794,794,794,794,794,794,794,794,794,794,794,794,794,794,794,794,794,794,794,794,794,794,794,794,794,794,794,794,794,794,794,794,794,794,794,794,794,794,794,793,793,792,789,787,787,787,787,783,771,757,743,720,630,582,552,535,531,531,531,530,530,533,537,542,546,548,550,553,555,558,559,561,562,564,564,564,565,565,565,565,562,559,554,554,554,554,554,554,554,554,554,554,554,554,554,554,554,552,551,551,550,548,548,547,547,545,544,543,543,541,541,539,537,537,536,536,535,535,535,535,535,533,533,532,532,532,532,531,531,530,530,528,528,528,527,527,527,526,525,525,525,525,525,523],"ymouse":[529,529,529,529,529,529,529,529,529,529,529,529,529,529,529,529,529,529,529,529,529,529,529,529,529,529,529,529,529,529,529,529,529,529,529,529,529,529,529,529,529,529,529,529,529,529,529,529,529,529,529,529,529,529,529,529,529,529,529,529,529,529,529,529,529,529,529,527,526,524,513,503,487,469,446,392,336,306,282,255,194,167,148,137,134,134,134,133,133,128,125,121,118,117,115,115,114,113,112,111,111,110,110,110,110,108,104,101,99,96,93,93,93,93,93,93,93,93,93,93,93,93,93,93,93,93,93,93,93,93,93,93,93,93,93,93,93,93,94,94,94,94,94,94,94,95,95,95,95,95,95,95,95,95,95,95,95,95,95,95,95,95,95,95,94,94,94,94,94,94,94,93],"timestamp_mouse":[10,40,49,69,88,109,128,149,169,188,208,228,249,269,287,308,329,349,368,389,408,428,448,468,489,509,528,548,569,588,608,628,649,668,688,708,727,749,769,788,809,828,848,869,889,908,929,948,969,988,1009,1029,1048,1069,1088,1108,1128,1147,1168,1189,1207,1228,1249,1269,1288,1308,1329,1348,1369,1389,1409,1428,1449,1468,1488,1508,1528,1548,1568,1589,1608,1628,1648,1668,1687,1708,1728,1749,1768,1789,1807,1828,1848,1869,1889,1908,1929,1948,1968,1988,2007,2028,2049,2069,2088,2108,2128,2148,2167,2188,2208,2228,2248,2269,2288,2307,2328,2349,2368,2388,2408,2428,2448,2467,2488,2508,2528,2548,2569,2588,2608,2629,2649,2669,2688,2708,2729,2748,2768,2789,2808,2827,2848,2868,2889,2908,2927,2949,2968,2989,3007,3028,3049,3069,3089,3109,3128,3148,3168,3188,3207,3229,3249,3269,3289,3308,3328,3348,3368,3388,3408,3428],"xSR":741.5,"ySR":469.95,"xT1":424.9,"yT1":0,"xT2":1058.1,"yT2":0,"toosoon":0,"cond_shown":"Incongruent","ratio_trial":100,"L_num":8,"L_den":16,"R_num":6,"R_den":10,"correct_side":2,"subjID":"juanandresespañolgaleano24","gender":"0","school":"6","age":"11"},{"start_time":1551794156935,"click_time":1551794162603,"finger_time":1551794158403,"fix_duration":1110.2550995700049,"trial":44,"RT":1468,"MT":4200,"sideResp":2,"stimulus":[],"xmouse":[786,786,786,786,786,786,786,786,786,786,786,786,786,786,786,786,786,786,786,786,786,786,786,786,786,786,786,786,786,786,786,786,786,786,786,786,786,786,786,786,786,786,786,786,786,786,786,786,786,786,786,786,786,786,786,786,786,786,786,786,786,786,786,786,786,786,786,786,786,786,786,786,803,967,1276,1276,1276,1276,1276,1276,1276,1581,1554,1554,1554,1554,1554,1554,1554,1554,1554,1554,1554,1554,1554,1554,1554,1554,1554,1554,1554,1521,1368,1368,1368,1368,1368,0,0,0,0,0,0,0,0,0,0,0,0,0,0,0,0,1,47,47,47,47,47,47,47,47,47,47,47,47,47,47,47,47,47,47,1423,1339,1339,1339,1339,1339,1339,1339,1339,1339,1339,1339,1339,1339,1339,1339,1339,1339,1522,1522,1522,1522,1473,1114,841,841,841,0,4,100,1071,1071,1071,1071,1071,1243,696,48,0,0,0,0,0,678,1272,1272,1272,1272,1272,1272,746,0,0,0,0,203,575,1107,1107,1107,1107,1406,912,268,0,0,0,23,236,1169,1169,1169,1169,1169,1571,878,325,3,3,3,3,3,3,1256,1256,1256,1256,1256,1553,1320,72,0,0,0,0,0,0,893,1384,1384,1384,1384,1434,1111,688,0,0,0,0,42,605,1181,1502,1502,1502,1502,1454,1160,780,379,0,2,69,280,602,1326,1326,1326,1326,1552,1155,764,378,199,199,199,199,199,199,199,905,1141],"ymouse":[530,530,530,530,530,530,530,530,530,530,530,530,530,530,530,530,530,530,530,530,530,530,530,530,530,530,530,530,530,530,530,530,530,530,530,530,530,530,530,530,530,530,530,530,530,530,530,530,530,530,530,530,530,530,530,530,530,530,530,530,530,530,530,530,530,530,530,530,530,530,530,530,515,407,230,230,230,230,230,230,230,355,413,413,413,413,413,413,413,413,413,413,413,413,413,413,413,413,413,413,413,371,108,108,108,108,108,118,223,325,417,494,584,614,621,624,624,624,624,624,624,624,624,627,709,709,709,709,709,709,709,709,709,709,709,709,709,709,709,709,709,709,543,213,213,213,213,213,213,213,213,213,213,213,213,213,213,213,213,213,2,2,2,2,322,202,83,83,83,4,41,181,689,689,689,689,689,638,451,186,54,54,54,54,54,0,134,134,134,134,134,134,664,289,96,20,17,48,109,234,234,234,234,646,548,414,213,194,193,188,179,208,208,208,208,208,338,220,89,20,20,20,20,20,20,8,8,8,8,8,366,342,67,1,1,1,1,1,1,122,229,229,229,229,315,263,199,86,50,39,39,39,81,176,226,226,226,226,254,207,146,80,8,8,8,8,31,133,133,133,133,221,168,102,38,9,9,9,9,9,9,9,38,73],"timestamp_mouse":[8,37,49,67,88,109,129,147,168,188,207,229,248,269,287,309,329,348,369,388,409,428,449,468,488,509,529,548,569,587,609,628,647,668,689,708,727,749,769,788,809,827,849,868,888,909,929,948,968,989,1007,1028,1049,1068,1088,1108,1128,1148,1168,1189,1208,1229,1248,1268,1288,1309,1328,1348,1369,1387,1409,1429,1449,1468,1488,1509,1529,1549,1568,1589,1608,1628,1647,1668,1687,1707,1729,1747,1769,1789,1808,1828,1848,1868,1888,1908,1929,1947,1968,1989,2007,2028,2048,2068,2088,2108,2129,2147,2168,2188,2208,2229,2249,2268,2289,2308,2329,2348,2369,2388,2409,2428,2449,2469,2487,2508,2528,2548,2568,2589,2607,2629,2648,2669,2688,2709,2728,2748,2769,2788,2808,2828,2848,2868,2887,2907,2929,2948,2968,2989,3009,3028,3049,3068,3088,3108,3128,3148,3169,3188,3207,3229,3248,3268,3288,3309,3328,3347,3368,3388,3409,3428,3448,3468,34