[{"start_time":1551900812621,"click_time":1551900816235,"finger_time":1551900812634,"fix_duration":784.0935214154022,"trial":0,"RT":13,"MT":3601,"sideResp":2,"stimulus":"img/250/equaldotsize/R/8_Ratio_250_L_1_R_4.png","xmouse":[782,782,782,782,782,782,782,782,782,782,782,782,782,782,782,782,782,782,782,782,782,782,782,782,782,782,782,782,782,782,782,782,781,780,777,776,776,776,775,775,775,775,775,775,777,778,778,778,779,779,777,774,771,767,765,765,765,765,765,765,765,765,765,765,765,765,765,768,772,784,814,825,831,831,831,831,831,831,831,831,831,831,831,831,831,831,829,827,826,826,826,826,826,826,826,826,825,825,825,824,821,820,819,818,818,818,818,818,818,818,818,818,818,818,818,818,818,818,818,817,813,812,812,812,810,810,810,810,810,810,810,810,810,810,810,810,810,810,810,810,810,810,810,810,810,810,810,810,810,810,810,807,805,804,804,803,805,806,806,806,810,813,815,814,797,733,720,715,715,721,725,727,728,726,716,744,826,932,1011,1059,1106],"ymouse":[510,510,510,510,510,510,510,510,510,510,510,510,510,510,510,510,510,510,510,510,510,510,510,510,510,510,510,510,510,510,510,510,510,511,521,537,545,549,551,552,553,553,554,556,559,560,561,561,563,564,571,578,583,590,592,593,593,593,593,593,593,593,593,593,593,593,593,593,594,598,610,614,616,616,616,616,616,616,616,616,616,616,616,616,616,617,618,620,622,622,622,622,622,622,622,622,622,622,622,623,623,624,625,625,625,625,625,625,625,625,625,625,625,625,625,625,625,625,625,625,625,625,625,625,625,625,625,625,625,625,625,625,625,625,625,625,625,625,625,625,625,625,625,625,625,625,625,625,625,625,625,625,625,624,623,618,615,614,614,614,612,609,595,583,565,538,535,534,534,544,548,549,549,551,556,555,523,448,347,216,80],"timestamp_mouse":[13,32,53,72,93,112,134,153,172,193,212,233,252,273,294,312,332,353,373,393,412,432,454,472,493,513,532,553,574,592,613,632,653,672,694,712,732,752,772,792,813,832,852,872,893,912,932,952,973,992,1012,1032,1053,1073,1092,1113,1133,1152,1172,1193,1212,1233,1253,1272,1294,1312,1334,1352,1373,1392,1412,1433,1454,1473,1493,1512,1532,1552,1574,1593,1612,1634,1652,1672,1692,1713,1733,1754,1773,1793,1812,1833,1854,1874,1893,1912,1932,1952,1972,1993,2012,2033,2053,2072,2092,2113,2132,2152,2173,2192,2213,2232,2253,2272,2292,2312,2334,2352,2374,2393,2413,2433,2454,2473,2492,2512,2532,2552,2572,2593,2612,2633,2652,2672,2694,2713,2732,2753,2773,2793,2812,2834,2852,2873,2893,2913,2933,2953,2973,2992,3012,3032,3052,3073,3092,3113,3132,3152,3173,3193,3212,3232,3254,3273,3293,3313,3333,3352,3373,3394,3412,3432,3452,3474,3493,3512,3532,3552,3573,3592,3613],"xSR":741.5,"ySR":469.95,"xT1":424.9,"yT1":0,"xT2":1058.1,"yT2":0,"toosoon":0,"cond_shown":"equaldotsize","ratio_trial":250,"smaller_num":"1","larger_num":"4","correct_side":2,"subjID":"juanandressalazarsuarez37","gender":"0","age":"11","school":"6","test":{"fix_dur":[250,1500],"timestim":300,"targets_dim":[100,100],"targets_relative_coord":[0.3,0.7],"size_stim":[880,420],"start_dim":[100,100],"size_start":[300,300],"size_fix":60,"samplingrate":20,"img_types":["equaldotsize","equaldotanddens","randomdotsizeEA"],"ratios":[250,500,750,900],"rep_conds":9,"nTrials":120,"trials_to_rest":500,"Trials_order":[0,78,115,57,17,102,48,9,26,110,37,62,3,71,55,73,64,67,53,23,65,60,101,35,15,18,49,116,44,21,70,28,8,40,29,119,46,25,81,109,89,42,69,105,56,106,59,36,82,22,39,112,30,4,74,107,92,87,91,50,66,38,19,72,79,45,20,13,2,111,75,94,27,24,14,113,118,100,77,68,117,12,16,5,52,98,41,84,108,99,95,1,76,31,47,61,63,97,7,96,34,104,114,43,10,6,88,86,32,90,54,103,51,58,83,33,11,93,80,85],"cond_shown":["equaldotsize","equaldotsize","equaldotanddens","equaldotsize","randomdotsizeEA","equaldotsize","equaldotsize","equaldotsize","randomdotsizeEA","randomdotsizeEA","equaldotanddens","randomdotsizeEA","equaldotsize","randomdotsizeEA","equaldotanddens","equaldotanddens","equaldotanddens","equaldotanddens","randomdotsizeEA","randomdotsizeEA","randomdotsizeEA","equaldotsize","randomdotsizeEA","randomdotsizeEA","equaldotsize","equaldotsize","equaldotanddens","randomdotsizeEA","randomdotsizeEA","equaldotsize","equaldotanddens","equaldotanddens","randomdotsizeEA","equaldotanddens","randomdotsizeEA","randomdotsizeEA","equaldotanddens","equaldotanddens","equaldotsize","equaldotanddens","randomdotsizeEA","equaldotsize","equaldotsize","equaldotsize","randomdotsizeEA","equaldotanddens","randomdotsizeEA","equaldotsize","equaldotanddens","equaldotanddens","equaldotsize","equaldotanddens","equaldotsize","equaldotanddens","randomdotsizeEA","randomdotsizeEA","randomdotsizeEA","equaldotsize","equaldotanddens","randomdotsizeEA","equaldotsize","randomdotsizeEA","equaldotanddens","equaldotsize","equaldotanddens","equaldotsize","randomdotsizeEA","equaldotanddens","randomdotsizeEA","equaldotsize","equaldotsize","equaldotanddens","equaldotsize","equaldotsize","randomdotsizeEA","randomdotsizeEA","equaldotanddens","equaldotanddens","randomdotsizeEA","randomdotsizeEA","equaldotsize","equaldotsize","equaldotanddens","randomdotsizeEA","equaldotanddens","randomdotsizeEA","randomdotsizeEA","equaldotsize","equaldotsize","equaldotsize","randomdotsizeEA","equaldotanddens","equaldotanddens","equaldotanddens","randomdotsizeEA","equaldotanddens","equaldotsize","equaldotanddens","equaldotanddens","equaldotsize","equaldotanddens","randomdotsizeEA","equaldotsize","equaldotanddens","equaldotanddens","equaldotsize","equaldotanddens","randomdotsizeEA","randomdotsizeEA","equaldotsize","equaldotsize","equaldotanddens","equaldotsize","equaldotanddens","randomdotsizeEA","equaldotsize","randomdotsizeEA","equaldotsize","randomdotsizeEA","equaldotanddens"],"ratio_trial":[250,750,750,900,500,750,250,900,250,250,250,250,500,900,750,250,500,750,500,900,500,250,500,900,500,750,250,750,750,900,900,500,750,500,500,900,900,250,900,250,500,750,900,900,750,900,900,250,900,900,500,500,750,500,250,900,750,500,750,250,750,250,750,250,750,900,750,250,250,500,500,900,500,250,250,500,900,500,500,750,900,250,500,500,500,250,500,250,250,500,900,250,500,750,900,250,500,250,750,250,900,750,750,750,900,750,500,250,750,750,750,750,500,900,900,900,900,900,750,250],"smaller_num":["1","3","15","18","4","18","4","18","1","3","2","4","10","18","3","6","6","3","2","18","2","2","2","18","2","18","5","6","3","18","9","5","3","9","9","9","18","6","18","4","6","3","9","18","6","18","18","2","18","9","3","9","3","10","3","18","9","6","18","2","3","2","6","5","15","18","15","6","5","1","5","18","6","1","2","2","18","2","6","3","9","2","5","2","3","2","2","1","3","3","18","2","9","3","18","6","9","2","12","2","9","9","6","6","18","3","9","3","15","3","18","3","9","18","9","18","9","9","15","3"],"larger_num":["4","4","20","20","8","24","16","20","4","12","8","16","20","20","4","24","12","4","4","20","4","8","4","20","4","24","20","8","4","20","10","10","4","18","18","10","20","24","20","16","12","4","10","20","8","20","20","8","20","10","6","18","4","20","12","20","12","12","24","8","4","8","8","20","20","20","20","24","20","2","10","20","12","4","8","4","20","4","12","4","10","8","10","4","6","8","4","4","12","6","20","8","18","4","20","24","18","8","16","8","10","12","8","8","20","4","18","12","20","4","24","4","18","20","10","20","10","10","20","12"],"correct_side":[2,2,2,1,1,1,1,1,2,2,1,1,2,2,1,1,1,1,1,2,1,1,1,2,1,1,2,2,2,1,2,1,2,1,2,2,2,2,2,2,1,1,2,1,1,1,1,1,2,1,2,1,2,2,2,2,2,1,1,1,2,1,2,2,2,1,2,2,2,2,1,2,1,2,1,2,1,1,1,1,2,1,2,1,2,1,1,2,1,2,1,1,1,1,2,2,2,1,2,1,2,2,1,1,1,1,1,1,2,1,1,2,2,1,1,1,2,2,1,1],"img_shown":["img/250/equaldotsize/R/8_Ratio_250_L_1_R_4.png","img/750/equaldotsize/R/12_Ratio_750_L_3_R_4.png","img/750/equaldotanddens/R/3_Ratio_750_L_15_R_20.png","img/900/equaldotsize/L/10_Ratio_900_L_20_R_18.png","img/500/randomdotsizeEA/L/8_Ratio_500_L_8_R_4.png","img/750/equaldotsize/L/6_Ratio_750_L_24_R_18.png","img/250/equaldotsize/L/2_Ratio_250_L_16_R_4.png","img/900/equaldotsize/L/2_Ratio_900_L_20_R_18.png","img/250/randomdotsizeEA/R/8_Ratio_250_L_1_R_4.png","img/250/randomdotsizeEA/R/9_Ratio_250_L_3_R_12.png","img/250/equaldotanddens/L/3_Ratio_250_L_8_R_2.png","img/250/randomdotsizeEA/L/2_Ratio_250_L_16_R_4.png","img/500/equaldotsize/R/3_Ratio_500_L_10_R_20.png","img/900/randomdotsizeEA/R/9_Ratio_900_L_18_R_20.png","img/750/equaldotanddens/L/10_Ratio_750_L_4_R_3.png","img/250/equaldotanddens/L/5_Ratio_250_L_24_R_6.png","img/500/equaldotanddens/L/13_Ratio_500_L_12_R_6.png","img/750/equaldotanddens/L/8_Ratio_750_L_4_R_3.png","img/500/randomdotsizeEA/L/5_Ratio_500_L_4_R_2.png","img/900/randomdotsizeEA/R/14_Ratio_900_L_18_R_20.png","img/500/randomdotsizeEA/L/5_Ratio_500_L_4_R_2.png","img/250/equaldotsize/L/3_Ratio_250_L_8_R_2.png","img/500/randomdotsizeEA/L/10_Ratio_500_L_4_R_2.png","img/900/randomdotsizeEA/R/9_Ratio_900_L_18_R_20.png","img/500/equaldotsize/L/5_Ratio_500_L_4_R_2.png","img/750/equaldotsize/L/6_Ratio_750_L_24_R_18.png","img/250/equaldotanddens/R/12_Ratio_250_L_5_R_20.png","img/750/randomdotsizeEA/R/2_Ratio_750_L_6_R_8.png","img/750/randomdotsizeEA/R/12_Ratio_750_L_3_R_4.png","img/900/equaldotsize/L/4_Ratio_900_L_20_R_18.png","img/900/equaldotanddens/R/3_Ratio_900_L_9_R_10.png","img/500/equaldotanddens/L/7_Ratio_500_L_10_R_5.png","img/750/randomdotsizeEA/R/12_Ratio_750_L_3_R_4.png","img/500/equaldotanddens/L/4_Ratio_500_L_18_R_9.png","img/500/randomdotsizeEA/R/1_Ratio_500_L_9_R_18.png","img/900/randomdotsizeEA/R/15_Ratio_900_L_9_R_10.png","img/900/equaldotanddens/R/9_Ratio_900_L_18_R_20.png","img/250/equaldotanddens/R/6_Ratio_250_L_6_R_24.png","img/900/equaldotsize/R/11_Ratio_900_L_18_R_20.png","img/250/equaldotanddens/R/10_Ratio_250_L_4_R_16.png","img/500/randomdotsizeEA/L/13_Ratio_500_L_12_R_6.png","img/750/equaldotsize/L/9_Ratio_750_L_4_R_3.png","img/900/equaldotsize/R/15_Ratio_900_L_9_R_10.png","img/900/equaldotsize/L/8_Ratio_900_L_20_R_18.png","img/750/randomdotsizeEA/L/14_Ratio_750_L_8_R_6.png","img/900/equaldotanddens/L/2_Ratio_900_L_20_R_18.png","img/900/randomdotsizeEA/L/10_Ratio_900_L_20_R_18.png","img/250/equaldotsize/L/3_Ratio_250_L_8_R_2.png","img/900/equaldotanddens/R/13_Ratio_900_L_18_R_20.png","img/900/equaldotanddens/L/1_Ratio_900_L_10_R_9.png","img/500/equaldotsize/R/2_Ratio_500_L_3_R_6.png","img/500/equaldotanddens/L/4_Ratio_500_L_18_R_9.png","img/750/equaldotsize/R/7_Ratio_750_L_3_R_4.png","img/500/equaldotanddens/R/3_Ratio_500_L_10_R_20.png","img/250/randomdotsizeEA/R/4_Ratio_250_L_3_R_12.png","img/900/randomdotsizeEA/R/11_Ratio_900_L_18_R_20.png","img/750/randomdotsizeEA/R/15_Ratio_750_L_9_R_12.png","img/500/equaldotsize/L/13_Ratio_500_L_12_R_6.png","img/750/equaldotanddens/L/6_Ratio_750_L_24_R_18.png","img/250/randomdotsizeEA/L/7_Ratio_250_L_8_R_2.png","img/750/equaldotsize/R/7_Ratio_750_L_3_R_4.png","img/250/randomdotsizeEA/L/7_Ratio_250_L_8_R_2.png","img/750/equaldotanddens/R/2_Ratio_750_L_6_R_8.png","img/250/equaldotsize/R/12_Ratio_250_L_5_R_20.png","img/750/equaldotanddens/R/5_Ratio_750_L_15_R_20.png","img/900/equaldotsize/L/10_Ratio_900_L_20_R_18.png","img/750/randomdotsizeEA/R/3_Ratio_750_L_15_R_20.png","img/250/equaldotanddens/R/6_Ratio_250_L_6_R_24.png","img/250/randomdotsizeEA/R/12_Ratio_250_L_5_R_20.png","img/500/equaldotsize/R/15_Ratio_500_L_1_R_2.png","img/500/equaldotsize/L/7_Ratio_500_L_10_R_5.png","img/900/equaldotanddens/R/9_Ratio_900_L_18_R_20.png","img/500/equaldotsize/L/13_Ratio_500_L_12_R_6.png","img/250/equaldotsize/R/8_Ratio_250_L_1_R_4.png","img/250/randomdotsizeEA/L/1_Ratio_250_L_8_R_2.png","img/500/randomdotsizeEA/R/9_Ratio_500_L_2_R_4.png","img/900/equaldotanddens/L/10_Ratio_900_L_20_R_18.png","img/500/equaldotanddens/L/5_Ratio_500_L_4_R_2.png","img/500/randomdotsizeEA/L/11_Ratio_500_L_12_R_6.png","img/750/randomdotsizeEA/L/8_Ratio_750_L_4_R_3.png","img/900/equaldotsize/R/7_Ratio_900_L_9_R_10.png","img/250/equaldotsize/L/7_Ratio_250_L_8_R_2.png","img/500/equaldotanddens/R/14_Ratio_500_L_5_R_10.png","img/500/randomdotsizeEA/L/5_Ratio_500_L_4_R_2.png","img/500/equaldotanddens/R/2_Ratio_500_L_3_R_6.png","img/250/randomdotsizeEA/L/7_Ratio_250_L_8_R_2.png","img/500/randomdotsizeEA/L/10_Ratio_500_L_4_R_2.png","img/250/equaldotsize/R/8_Ratio_250_L_1_R_4.png","img/250/equaldotsize/L/15_Ratio_250_L_12_R_3.png","img/500/equaldotsize/R/2_Ratio_500_L_3_R_6.png","img/900/randomdotsizeEA/L/2_Ratio_900_L_20_R_18.png","img/250/equaldotanddens/L/3_Ratio_250_L_8_R_2.png","img/500/equaldotanddens/L/4_Ratio_500_L_18_R_9.png","img/750/equaldotanddens/L/9_Ratio_750_L_4_R_3.png","img/900/randomdotsizeEA/R/13_Ratio_900_L_18_R_20.png","img/250/equaldotanddens/R/6_Ratio_250_L_6_R_24.png","img/500/equaldotsize/R/6_Ratio_500_L_9_R_18.png","img/250/equaldotanddens/L/3_Ratio_250_L_8_R_2.png","img/750/equaldotanddens/R/11_Ratio_750_L_12_R_16.png","img/250/equaldotsize/L/1_Ratio_250_L_8_R_2.png","img/900/equaldotanddens/R/3_Ratio_900_L_9_R_10.png","img/750/randomdotsizeEA/R/15_Ratio_750_L_9_R_12.png","img/750/equaldotsize/L/14_Ratio_750_L_8_R_6.png","img/750/equaldotanddens/L/13_Ratio_750_L_8_R_6.png","img/900/equaldotanddens/L/2_Ratio_900_L_20_R_18.png","img/750/equaldotsize/L/9_Ratio_750_L_4_R_3.png","img/500/equaldotanddens/L/4_Ratio_500_L_18_R_9.png","img/250/randomdotsizeEA/L/14_Ratio_250_L_12_R_3.png","img/750/randomdotsizeEA/R/5_Ratio_750_L_15_R_20.png","img/750/equaldotsize/L/10_Ratio_750_L_4_R_3.png","img/750/equaldotsize/L/6_Ratio_750_L_24_R_18.png","img/750/equaldotanddens/R/7_Ratio_750_L_3_R_4.png","img/500/equaldotsize/R/6_Ratio_500_L_9_R_18.png","img/900/equaldotanddens/L/2_Ratio_900_L_20_R_18.png","img/900/randomdotsizeEA/L/1_Ratio_900_L_10_R_9.png","img/900/equaldotsize/L/4_Ratio_900_L_20_R_18.png","img/900/randomdotsizeEA/R/6_Ratio_900_L_9_R_10.png","img/900/equaldotsize/R/15_Ratio_900_L_9_R_10.png","img/750/randomdotsizeEA/L/1_Ratio_750_L_20_R_15.png","img/250/equaldotanddens/L/15_Ratio_250_L_12_R_3.png"],"Rat0":[["12_Ratio_0_L_9_R_0.png","13_Ratio_0_L_6_R_0.png","5_Ratio_0_L_2_R_0.png","6_Ratio_0_L_4_R_0.png","8_Ratio_0_L_6_R_0.png"],["1_Ratio_0_L_0_R_17.png","10_Ratio_0_L_0_R_22.png","11_Ratio_0_L_0_R_1.png","14_Ratio_0_L_0_R_24.png","15_Ratio_0_L_0_R_4.png","2_Ratio_0_L_0_R_5.png","3_Ratio_0_L_0_R_17.png","4_Ratio_0_L_0_R_7.png","7_Ratio_0_L_0_R_19.png","9_Ratio_0_L_0_R_15.png"]],"Rat250":[["1_Ratio_250_L_8_R_2.png","14_Ratio_250_L_12_R_3.png","15_Ratio_250_L_12_R_3.png","2_Ratio_250_L_16_R_4.png","3_Ratio_250_L_8_R_2.png","5_Ratio_250_L_24_R_6.png","7_Ratio_250_L_8_R_2.png"],["10_Ratio_250_L_4_R_16.png","11_Ratio_250_L_3_R_12.png","12_Ratio_250_L_5_R_20.png","13_Ratio_250_L_2_R_8.png","4_Ratio_250_L_3_R_12.png","6_Ratio_250_L_6_R_24.png","8_Ratio_250_L_1_R_4.png","9_Ratio_250_L_3_R_12.png"]],"Rat500":[["10_Ratio_500_L_4_R_2.png","11_Ratio_500_L_12_R_6.png","13_Ratio_500_L_12_R_6.png","4_Ratio_500_L_18_R_9.png","5_Ratio_500_L_4_R_2.png","7_Ratio_500_L_10_R_5.png","8_Ratio_500_L_8_R_4.png"],["1_Ratio_500_L_9_R_18.png","12_Ratio_500_L_1_R_2.png","14_Ratio_500_L_5_R_10.png","15_Ratio_500_L_1_R_2.png","2_Ratio_500_L_3_R_6.png","3_Ratio_500_L_10_R_20.png","6_Ratio_500_L_9_R_18.png","9_Ratio_500_L_2_R_4.png"]],"Rat750":[["1_Ratio_750_L_20_R_15.png","10_Ratio_750_L_4_R_3.png","13_Ratio_750_L_8_R_6.png","14_Ratio_750_L_8_R_6.png","6_Ratio_750_L_24_R_18.png","8_Ratio_750_L_4_R_3.png","9_Ratio_750_L_4_R_3.png"],["11_Ratio_750_L_12_R_16.png","12_Ratio_750_L_3_R_4.png","15_Ratio_750_L_9_R_12.png","2_Ratio_750_L_6_R_8.png","3_Ratio_750_L_15_R_20.png","4_Ratio_750_L_15_R_20.png","5_Ratio_750_L_15_R_20.png","7_Ratio_750_L_3_R_4.png"]],"Rat900":[["1_Ratio_900_L_10_R_9.png","10_Ratio_900_L_20_R_18.png","2_Ratio_900_L_20_R_18.png","4_Ratio_900_L_20_R_18.png","8_Ratio_900_L_20_R_18.png"],["11_Ratio_900_L_18_R_20.png","12_Ratio_900_L_18_R_20.png","13_Ratio_900_L_18_R_20.png","14_Ratio_900_L_18_R_20.png","15_Ratio_900_L_9_R_10.png","3_Ratio_900_L_9_R_10.png","5_Ratio_900_L_9_R_10.png","6_Ratio_900_L_9_R_10.png","7_Ratio_900_L_9_R_10.png","9_Ratio_900_L_18_R_20.png"]],"Rat1000":[["10_Ratio_1000_L_16_R_16.png","11_Ratio_1000_L_6_R_6.png","12_Ratio_1000_L_14_R_14.png","13_Ratio_1000_L_20_R_20.png","15_Ratio_1000_L_15_R_15.png","2_Ratio_1000_L_17_R_17.png","4_Ratio_1000_L_9_R_9.png","5_Ratio_1000_L_6_R_6.png","6_Ratio_1000_L_19_R_19.png","8_Ratio_1000_L_14_R_14.png","9_Ratio_1000_L_25_R_25.png"],["1_Ratio_1000_L_1_R_1.png","14_Ratio_1000_L_17_R_17.png","3_Ratio_1000_L_17_R_17.png","7_Ratio_1000_L_6_R_6.png"]]}},{"start_time":1551900819777,"click_time":1551900821095,"finger_time":1551900820715,"fix_duration":1202.5096322521497,"trial":1,"RT":938,"MT":380,"sideResp":1,"stimulus":"img/750/equaldotsize/R/12_Ratio_750_L_3_R_4.png","xmouse":[792,792,792,792,792,792,792,792,792,792,792,792,792,792,792,792,792,792,792,792,792,792,792,792,792,792,792,792,792,792,792,792,792,792,792,792,792,792,792,792,792,792,792,788,782,775,768,753,744,733,716,693,663,657,653,648,615,580,566,558,554,545,542,535,525,517],"ymouse":[629,629,629,629,629,629,629,629,629,629,629,629,629,629,629,629,629,629,629,629,629,629,629,629,629,629,629,629,629,629,629,629,629,629,629,629,629,629,629,629,629,629,625,616,602,588,573,529,494,438,363,302,244,233,226,216,179,137,120,108,102,89,81,71,63,56],"timestamp_mouse":[20,38,57,76,97,117,138,156,176,196,218,237,256,276,298,317,336,356,376,397,416,436,456,477,496,516,536,556,576,598,617,636,658,676,697,716,737,757,777,796,817,837,856,876,897,916,938,957,977,997,1017,1037,1057,1076,1096,1117,1137,1156,1176,1196,1218,1238,1257,1276,1297,1317],"xSR":741.5,"ySR":573.95,"xT1":424.9,"yT1":0,"xT2":1058.1,"yT2":0,"toosoon":0,"cond_shown":"equaldotsize","ratio_trial":750,"smaller_num":"3","larger_num":"4","correct_side":2,"subjID":"juanandressalazarsuarez37","gender":"0","age":"11","school":"6"},{"start_time":1551900822604,"click_time":1551900824034,"finger_time":1551900823393,"fix_duration":250,"trial":2,"RT":789,"MT":641,"sideResp":2,"stimulus":"img/750/equaldotanddens/R/3_Ratio_750_L_15_R_20.png","xmouse":[771,771,771,771,771,771,771,771,771,771,774,775,775,775,775,775,775,775,775,775,775,775,775,775,775,775,775,775,775,775,775,775,775,775,775,775,776,780,781,781,782,782,784,786,788,790,799,801,804,807,813,838,867,896,918,938,942,944,948,951,961,986,995,997,997,998,1001,1006,1010,1021,1056,1073],"ymouse":[588,588,588,588,588,588,588,588,588,588,588,588,588,588,588,588,588,588,588,588,588,588,588,588,588,588,588,588,588,588,588,588,588,588,588,588,588,582,576,569,561,536,524,513,499,481,426,407,392,372,349,287,246,211,183,145,138,137,137,137,134,126,122,120,119,117,116,113,111,105,88,78],"timestamp_mouse":[9,29,50,70,89,110,130,151,171,189,209,231,250,269,290,311,330,349,369,391,410,429,450,470,489,510,530,549,571,589,610,629,650,671,690,711,730,750,770,789,809,829,849,871,890,909,930,950,969,990,1010,1030,1050,1070,1090,1110,1129,1149,1169,1190,1210,1230,1249,1270,1290,1309,1330,1351,1369,1391,1411,1430],"xSR":741.5,"ySR":573.95,"xT1":424.9,"yT1":0,"xT2":1058.1,"yT2":0,"toosoon":0,"cond_shown":"equaldotanddens","ratio_trial":750,"smaller_num":"15","larger_num":"20","correct_side":2,"subjID":"juanandressalazarsuarez37","gender":"0","age":"11","school":"6"},{"start_time":1551900825226,"click_time":1551900826275,"finger_time":1551900825874,"fix_duration":250,"trial":3,"RT":648,"MT":401,"sideResp":1,"stimulus":"img/900/equaldotsize/L/10_Ratio_900_L_20_R_18.png","xmouse":[793,793,793,793,793,793,793,793,793,793,793,793,793,793,793,793,793,793,793,793,793,793,793,793,793,793,793,793,793,793,793,793,793,793,785,771,753,731,698,667,627,625,625,627,630,632,628,626,623,603,578,549,522],"ymouse":[616,616,616,616,616,616,616,616,616,616,616,616,616,616,616,616,616,616,616,616,616,616,616,616,616,615,614,611,605,589,582,577,570,564,542,511,480,440,391,343,261,235,212,190,166,125,117,115,113,106,98,90,82],"timestamp_mouse":[12,32,47,67,88,108,127,149,167,188,208,228,248,268,289,308,328,347,369,387,407,429,447,467,489,508,527,548,568,589,607,627,648,667,688,707,727,747,767,787,808,828,848,867,887,907,928,949,968,988,1008,1028,1049],"xSR":741.5,"ySR":573.95,"xT1":424.9,"yT1":0,"xT2":1058.1,"yT2":0,"toosoon":0,"cond_shown":"equaldotsize","ratio_trial":900,"smaller_num":"18","larger_num":"20","correct_side":1,"subjID":"juanandressalazarsuarez37","gender":"0","age":"11","school":"6"},{"start_time":1551900829394,"click_time":1551900830934,"finger_time":1551900830273,"fix_duration":939.4989067842652,"trial":4,"RT":879,"MT":661,"sideResp":1,"stimulus":"img/500/randomdotsizeEA/L/8_Ratio_500_L_8_R_4.png","xmouse":[793,793,793,793,793,793,793,793,793,793,793,793,793,793,793,793,793,793,793,793,793,793,793,793,793,793,793,793,793,793,793,793,793,793,793,793,793,793,793,793,793,794,794,794,785,762,713,685,679,679,679,700,713,726,743,751,767,776,783,788,790,788,783,774,763,725,674,636,600,571,550,530,528,526,525,525,524],"ymouse":[621,621,621,621,621,621,621,621,621,621,621,621,621,621,621,621,621,621,621,621,621,621,621,621,621,621,621,621,621,621,621,621,621,621,621,621,621,621,621,621,621,615,599,569,501,430,326,278,260,253,246,223,213,200,183,170,138,129,121,113,97,93,87,83,80,71,64,58,53,48,44,39,38,38,38,38,38],"timestamp_mouse":[30,39,60,80,99,119,139,161,180,199,219,239,259,279,300,319,339,359,380,400,420,439,460,479,499,519,541,559,579,600,619,641,660,680,699,719,739,759,779,799,819,840,859,879,900,920,940,960,979,999,1019,1040,1060,1081,1099,1120,1139,1159,1180,1199,1220,1239,1261,1280,1299,1320,1340,1360,1381,1399,1419,1440,1461,1479,1500,1520,1540],"xSR":741.5,"ySR":573.95,"xT1":424.9,"yT1":0,"xT2":1058.1,"yT2":0,"toosoon":0,"cond_shown":"randomdotsizeEA","ratio_trial":500,"smaller_num":"4","larger_num":"8","correct_side":1,"subjID":"juanandressalazarsuarez37","gender":"0","age":"11","school":"6"},{"start_time":1551900832470,"click_time":1551900833954,"finger_time":1551900833315,"fix_duration":354.38893881054923,"trial":5,"RT":845,"MT":639,"sideResp":1,"stimulus":"img/750/equaldotsize/L/6_Ratio_750_L_24_R_18.png","xmouse":[806,806,806,806,806,806,806,806,806,806,806,806,806,806,806,806,806,806,806,806,806,806,806,806,806,806,806,806,806,806,806,806,806,806,806,806,806,806,806,806,806,806,801,795,783,775,767,759,749,746,741,736,728,721,713,706,694,663,657,652,651,648,642,625,616,603,588,555,538,521,506,494,487,476,476],"ymouse":[597,597,597,597,597,597,597,597,597,597,597,597,597,597,597,597,597,597,597,597,597,597,597,597,597,597,597,597,597,597,597,597,597,597,597,597,597,597,597,597,597,591,573,557,536,525,514,505,492,485,476,465,448,434,409,381,338,273,265,258,256,251,244,231,225,217,208,190,181,169,158,146,134,106,97],"timestamp_mouse":[9,25,44,64,85,104,123,143,163,183,203,223,243,265,283,303,324,343,363,383,403,425,445,464,485,503,523,544,564,583,603,623,644,663,683,704,725,744,764,784,804,824,844,863,884,904,923,943,964,983,1003,1024,1044,1063,1085,1104,1123,1144,1164,1184,1204,1223,1243,1264,1283,1304,1324,1344,1364,1384,1403,1423,1444,1465,1484],"xSR":741.5,"ySR":573.95,"xT1":424.9,"yT1":0,"xT2":1058.1,"yT2":0,"toosoon":0,"cond_shown":"equaldotsize","ratio_trial":750,"smaller_num":"18","larger_num":"24","correct_side":1,"subjID":"juanandressalazarsuarez37","gender":"0","age":"11","school":"6"},{"start_time":1551900835466,"click_time":1551900836514,"finger_time":1551900836213,"fix_duration":250,"trial":6,"RT":747,"MT":301,"sideResp":1,"stimulus":"img/250/equaldotsize/L/2_Ratio_250_L_16_R_4.png","xmouse":[789,788,787,787,787,787,785,784,782,780,780,780,780,780,780,780,780,780,780,780,779,778,777,776,776,776,776,776,776,776,776,776,776,776,775,773,763,746,675,614,555,503,423,400,382,377,375,374,374,378,386,399,427],"ymouse":[597,597,598,598,598,598,600,600,601,602,602,602,602,602,602,602,602,602,602,602,603,603,603,604,604,604,604,604,604,604,604,604,604,604,604,604,587,561,462,389,326,267,171,144,121,108,99,82,77,72,69,66,58],"timestamp_mouse":[8,28,47,68,88,107,129,148,169,188,208,227,247,269,287,308,329,347,368,387,407,429,449,467,487,508,528,548,568,588,607,628,648,669,687,708,728,747,769,788,807,827,848,867,889,909,929,948,967,988,1007,1028,1048],"xSR":741.5,"ySR":573.95,"xT1":424.9,"yT1":0,"xT2":1058.1,"yT2":0,"toosoon":0,"cond_shown":"equaldotsize","ratio_trial":250,"smaller_num":"4","larger_num":"16","correct_side":1,"subjID":"juanandressalazarsuarez37","gender":"0","age":"11","school":"6"},{"start_time":1551900840006,"click_time":1551900840893,"finger_time":1551900840793,"fix_duration":1250.0363910637157,"trial":7,"RT":787,"MT":100,"sideResp":1,"stimulus":"img/900/equaldotsize/L/2_Ratio_900_L_20_R_18.png","xmouse":[767,767,767,767,767,767,767,767,767,767,767,767,767,767,767,767,767,767,767,767,767,767,767,767,767,767,767,767,767,767,767,767,767,767,767,767,767,767,757,728,636,588,530,479,432],"ymouse":[619,619,619,619,619,619,619,619,619,619,619,619,619,619,619,619,619,619,619,619,619,619,619,619,619,619,619,619,619,619,619,619,619,619,619,619,619,619,602,549,369,283,209,143,82],"timestamp_mouse":[8,28,48,67,89,109,128,147,167,188,207,227,249,268,289,308,329,347,368,389,407,428,449,468,487,508,528,548,568,587,609,627,649,668,689,707,727,747,767,787,809,827,847,868,887],"xSR":741.5,"ySR":573.95,"xT1":424.9,"yT1":0,"xT2":1058.1,"yT2":0,"toosoon":0,"cond_shown":"equaldotsize","ratio_trial":900,"smaller_num":"18","larger_num":"20","correct_side":1,"subjID":"juanandressalazarsuarez37","gender":"0","age":"11","school":"6"},{"start_time":1551900842561,"click_time":1551900844434,"finger_time":1551900844053,"fix_duration":545.0514051340417,"trial":8,"RT":1492,"MT":381,"sideResp":2,"stimulus":"img/250/randomdotsizeEA/R/8_Ratio_250_L_1_R_4.png","xmouse":[776,776,776,776,776,776,776,776,776,776,776,776,776,776,776,776,776,776,776,776,776,776,776,776,776,776,776,776,776,776,776,776,776,776,776,776,776,776,776,776,776,776,776,776,776,776,776,776,776,776,776,776,776,776,776,776,776,776,776,776,776,776,776,776,776,776,776,776,776,776,776,776,777,788,837,907,971,1051,1067,1072,1072,1072,1076,1080,1082,1083,1084,1086,1086,1086,1086,1086,1087,1089],"ymouse":[592,592,592,592,592,592,592,592,592,592,592,592,592,592,592,592,592,592,592,592,592,592,592,592,592,592,592,592,592,592,592,592,592,592,592,592,592,592,592,592,592,592,592,592,592,592,592,592,592,592,592,592,592,592,592,592,592,592,592,592,592,592,592,592,592,592,592,592,592,592,592,592,592,586,529,441,352,216,196,191,191,191,178,164,151,137,127,117,116,116,116,112,106,91],"timestamp_mouse":[13,33,52,73,93,112,133,154,173,194,212,232,254,272,292,314,333,352,374,392,412,433,453,473,494,512,532,553,573,593,612,633,652,674,692,712,734,752,772,792,814,832,853,872,892,914,933,954,974,992,1012,1033,1054,1072,1092,1113,1133,1154,1173,1194,1214,1232,1253,1274,1294,1313,1332,1353,1374,1393,1413,1432,1452,1473,1492,1512,1532,1554,1573,1592,1612,1634,1654,1672,1692,1712,1732,1754,1773,1793,1813,1832,1853,1873],"xSR":741.5,"ySR":573.95,"xT1":424.9,"yT1":0,"xT2":1058.1,"yT2":0,"toosoon":0,"cond_shown":"randomdotsizeEA","ratio_trial":250,"smaller_num":"1","larger_num":"4","correct_side":2,"subjID":"juanandressalazarsuarez37","gender":"0","age":"11","school":"6"},{"start_time":1551900846315,"click_time":1551900847454,"finger_time":1551900847015,"fix_duration":678.8780062187383,"trial":9,"RT":700,"MT":439,"sideResp":2,"stimulus":"img/250/randomdotsizeEA/R/9_Ratio_250_L_3_R_12.png","xmouse":[810,810,810,810,810,810,810,810,810,810,810,810,810,810,810,810,810,810,810,810,810,810,810,810,810,810,810,810,810,810,810,810,810,810,816,849,872,892,910,930,952,1018,1047,1058,1089,1104,1124,1133,1145,1156,1163,1165,1165,1165,1165,1163,1159,1151],"ymouse":[613,613,613,613,613,613,613,613,613,613,613,613,613,613,613,613,613,613,613,613,613,613,613,613,613,613,613,613,613,613,613,613,613,605,595,543,498,452,390,314,239,79,37,21,0,0,0,0,0,0,0,0,0,0,2,14,21,28],"timestamp_mouse":[1,26,40,58,78,98,119,139,159,179,198,218,238,259,279,299,320,338,359,378,399,418,439,459,479,499,519,538,558,578,600,619,638,659,678,699,719,738,759,780,799,818,838,859,878,898,918,938,958,979,999,1019,1039,1059,1079,1099,1118,1139],"xSR":741.5,"ySR":573.95,"xT1":424.9,"yT1":0,"xT2":1058.1,"yT2":0,"toosoon":0,"cond_shown":"randomdotsizeEA","ratio_trial":250,"smaller_num":"3","larger_num":"12","correct_side":2,"subjID":"juanandressalazarsuarez37","gender":"0","age":"11","school":"6"},{"start_time":1551900849091,"click_time":1551900850154,"finger_time":1551900849834,"fix_duration":775.0074267029106,"trial":10,"RT":743,"MT":320,"sideResp":1,"stimulus":"img/250/equaldotanddens/L/3_Ratio_250_L_8_R_2.png","xmouse":[789,789,789,789,789,789,789,789,789,789,789,789,789,789,789,789,789,789,789,789,789,789,789,789,789,789,789,789,789,789,789,789,789,789,788,785,779,753,731,710,692,672,641,624,607,593,580,561,557,554,549,545,529,524],"ymouse":[631,629,628,628,628,628,628,628,628,628,628,628,628,628,628,628,628,628,628,628,628,628,628,628,628,628,628,628,628,628,628,628,627,622,614,608,596,558,528,498,472,440,386,355,321,291,259,203,177,153,130,109,73,66],"timestamp_mouse":[3,23,43,63,84,103,124,143,164,184,203,224,244,262,282,302,323,343,362,383,404,424,443,463,483,503,523,542,562,584,603,622,643,662,682,703,723,743,762,782,802,822,842,863,882,902,922,942,962,984,1003,1022,1042,1062],"xSR":741.5,"ySR":573.95,"xT1":424.9,"yT1":0,"xT2":1058.1,"yT2":0,"toosoon":0,"cond_shown":"equaldotanddens","ratio_trial":250,"smaller_num":"2","larger_num":"8","correct_side":1,"subjID":"juanandressalazarsuarez37","gender":"0","age":"11","school":"6"},{"start_time":1551900852136,"click_time":1551900852894,"finger_time":1551900852753,"fix_duration":1341.0161868241496,"trial":11,"RT":617,"MT":141,"sideResp":1,"stimulus":"img/250/randomdotsizeEA/L/2_Ratio_250_L_16_R_4.png","xmouse":[794,794,794,794,794,794,794,794,794,794,794,794,794,794,794,794,794,794,794,794,794,794,794,794,794,794,794,794,794,782,761,743,712,627,572,519,466,426],"ymouse":[632,632,632,632,632,632,632,632,632,632,632,632,632,632,632,632,632,632,632,632,632,632,632,632,632,632,632,632,632,610,569,530,479,359,297,223,150,90],"timestamp_mouse":[25,38,57,77,97,117,137,157,177,198,219,239,257,278,298,317,338,358,378,398,417,437,457,477,498,518,537,557,577,598,617,638,658,679,698,718,738,757],"xSR":741.5,"ySR":573.95,"xT1":424.9,"yT1":0,"xT2":1058.1,"yT2":0,"toosoon":0,"cond_shown":"randomdotsizeEA","ratio_trial":250,"smaller_num":"4","larger_num":"16","correct_side":1,"subjID":"juanandressalazarsuarez37","gender":"0","age":"11","school":"6"},{"start_time":1551900854264,"click_time":1551900855054,"finger_time":1551900854933,"fix_duration":528.9829784565836,"trial":12,"RT":669,"MT":121,"sideResp":2,"stimulus":"img/500/equaldotsize/R/3_Ratio_500_L_10_R_20.png","xmouse":[822,822,822,822,822,822,821,819,817,815,811,806,801,792,790,789,788,788,788,788,788,788,788,788,788,788,788,788,788,788,788,788,788,803,816,840,876,921,1039,1093],"ymouse":[618,618,618,618,618,618,618,618,618,615,609,602,597,595,595,595,595,595,595,595,590,587,584,581,580,580,580,580,580,580,580,579,577,556,538,509,462,394,205,97],"timestamp_mouse":[13,37,51,69,90,109,129,151,170,189,210,231,249,270,290,310,330,351,370,389,410,430,450,469,490,511,530,549,569,589,610,630,650,669,689,709,729,750,770,790],"xSR":741.5,"ySR":573.95,"xT1":424.9,"yT1":0,"xT2":1058.1,"yT2":0,"toosoon":0,"cond_shown":"equaldotsize","ratio_trial":500,"smaller_num":"10","larger_num":"20","correct_side":2,"subjID":"juanandressalazarsuarez37","gender":"0","age":"11","school":"6"},{"start_time":1551900858802,"click_time":1551900860034,"finger_time":1551900859675,"fix_duration":1467.2638890491671,"trial":13,"RT":873,"MT":359,"sideResp":1,"stimulus":"img/900/randomdotsizeEA/R/9_Ratio_900_L_18_R_20.png","xmouse":[782,782,782,782,782,782,782,782,782,782,782,782,782,782,782,782,782,782,782,782,782,782,782,782,782,782,782,782,782,782,782,782,782,782,782,782,782,782,782,782,781,778,775,774,771,765,732,715,698,681,667,647,636,624,609,596,576,573,566,558,525,501],"ymouse":[600,600,601,602,602,602,603,603,603,603,604,605,605,605,605,605,606,606,606,606,606,606,606,606,607,607,607,607,607,607,607,607,607,607,607,607,607,607,607,607,606,599,585,566,542,518,450,429,408,383,359,315,290,268,245,228,202,196,185,169,116,73],"timestamp_mouse":[19,40,52,72,92,112,133,151,171,192,212,233,251,271,291,311,333,352,371,393,411,432,451,472,493,512,532,551,573,592,611,632,651,672,691,712,731,751,772,792,811,832,852,873,892,912,931,952,973,991,1012,1032,1051,1072,1093,1112,1132,1152,1171,1191,1212,1231],"xSR":741.5,"ySR":573.95,"xT1":424.9,"yT1":0,"xT2":1058.1,"yT2":0,"toosoon":0,"cond_shown":"randomdotsizeEA","ratio_trial":900,"smaller_num":"18","larger_num":"20","correct_side":2,"subjID":"juanandressalazarsuarez37","gender":"0","age":"11","school":"6"},{"start_time":1551900861347,"click_time":1551900862315,"finger_time":1551900862134,"fix_duration":591.0291098602005,"trial":14,"RT":787,"MT":181,"sideResp":1,"stimulus":"img/750/equaldotanddens/L/10_Ratio_750_L_4_R_3.png","xmouse":[802,802,802,802,802,802,802,802,802,802,802,802,802,802,802,802,802,802,802,802,802,802,802,802,802,802,802,802,802,802,800,799,795,791,783,780,779,777,770,761,752,743,730,716,673,645,619,586,521],"ymouse":[623,623,623,623,623,623,623,623,623,623,623,623,623,623,623,623,623,623,623,623,623,623,623,623,623,623,623,623,623,623,622,620,615,609,594,589,585,582,574,560,546,530,508,482,396,332,265,204,92],"timestamp_mouse":[7,28,46,67,88,107,128,148,166,186,206,228,247,267,286,306,327,348,367,386,406,427,447,466,487,507,526,546,567,586,607,627,646,667,687,706,727,747,767,787,806,826,846,867,887,906,927,947,968],"xSR":741.5,"ySR":573.95,"xT1":424.9,"yT1":0,"xT2":1058.1,"yT2":0,"toosoon":0,"cond_shown":"equaldotanddens","ratio_trial":750,"smaller_num":"3","larger_num":"4","correct_side":1,"subjID":"juanandressalazarsuarez37","gender":"0","age":"11","school":"6"},{"start_time":1551900864370,"click_time":1551900865274,"finger_time":1551900864934,"fix_duration":1294.904397533355,"trial":15,"RT":564,"MT":340,"sideResp":1,"stimulus":"img/250/equaldotanddens/L/5_Ratio_250_L_24_R_6.png","xmouse":[798,798,798,798,798,798,798,798,798,798,798,798,798,798,798,798,798,798,798,798,798,798,798,798,798,798,797,790,742,711,686,663,637,631,625,623,621,620,617,616,615,613,607,574,536,494],"ymouse":[637,637,637,637,637,637,637,637,637,637,637,637,637,637,637,637,637,637,637,637,637,637,637,637,637,637,633,618,511,446,389,344,271,235,202,181,170,164,156,154,152,147,136,101,69,37],"timestamp_mouse":[8,25,45,64,84,105,125,145,165,183,204,224,245,265,284,303,323,345,363,385,403,424,444,463,484,504,524,544,564,584,604,623,645,663,684,703,723,743,764,784,804,825,843,864,883,904],"xSR":741.5,"ySR":573.95,"xT1":424.9,"yT1":0,"xT2":1058.1,"yT2":0,"toosoon":0,"cond_shown":"equaldotanddens","ratio_trial":250,"smaller_num":"6","larger_num":"24","correct_side":1,"subjID":"juanandressalazarsuarez37","gender":"0","age":"11","school":"6"},{"start_time":1551900867139,"click_time":1551900868234,"finger_time":1551900867853,"fix_duration":1023.2672252518947,"trial":16,"RT":714,"MT":381,"sideResp":1,"stimulus":"img/500/equaldotanddens/L/13_Ratio_500_L_12_R_6.png","xmouse":[777,778,779,780,781,782,784,786,786,786,786,786,786,786,786,786,786,786,786,786,786,786,786,786,786,786,786,786,786,786,786,788,788,789,794,794,794,794,786,772,764,748,724,669,644,628,613,598,586,560,553,544,538,532,518],"ymouse":[624,624,624,624,624,624,624,624,624,624,624,624,624,624,624,624,624,624,624,624,624,624,624,624,624,624,624,624,624,624,624,620,617,610,581,562,537,513,479,436,412,383,347,274,243,220,201,184,170,143,137,130,122,114,97],"timestamp_mouse":[16,35,54,76,95,115,135,156,175,194,216,234,255,275,294,315,336,354,374,394,415,434,454,474,495,516,535,555,575,594,616,634,654,675,695,714,735,756,775,795,815,834,854,875,894,914,934,954,974,994,1016,1034,1054,1074,1095],"xSR":741.5,"ySR":573.95,"xT1":424.9,"yT1":0,"xT2":1058.1,"yT2":0,"toosoon":0,"cond_shown":"equaldotanddens","ratio_trial":500,"smaller_num":"6","larger_num":"12","correct_side":1,"subjID":"juanandressalazarsuarez37","gender":"0","age":"11","school":"6"},{"start_time":1551900869797,"click_time":1551900870974,"finger_time":1551900870614,"fix_duration":380.771255091806,"trial":17,"RT":817,"MT":360,"sideResp":1,"stimulus":"img/750/equaldotanddens/L/8_Ratio_750_L_4_R_3.png","xmouse":[774,774,774,774,774,774,774,774,774,774,774,774,774,774,774,774,774,774,774,774,774,774,773,773,772,772,771,771,771,770,770,768,767,766,765,765,765,765,765,765,764,762,760,756,752,746,716,699,669,638,606,552,538,526,519,509,506,503,499],"ymouse":[585,585,585,585,585,585,585,585,585,585,585,585,585,585,585,585,585,585,585,585,586,586,586,585,585,585,584,583,583,583,582,580,578,576,576,575,575,575,575,574,571,567,561,548,537,524,476,449,407,358,312,235,212,194,178,144,119,108,94],"timestamp_mouse":[17,36,56,76,97,116,137,158,177,196,217,237,257,276,297,317,336,356,377,397,417,437,458,477,497,517,537,557,578,597,616,637,656,677,696,717,736,757,776,798,817,837,856,877,898,917,937,957,978,997,1018,1037,1056,1077,1097,1118,1136,1157,1177],"xSR":741.5,"ySR":573.95,"xT1":424.9,"yT1":0,"xT2":1058.1,"yT2":0,"toosoon":0,"cond_shown":"equaldotanddens","ratio_trial":750,"smaller_num":"3","larger_num":"4","correct_side":1,"subjID":"juanandressalazarsuarez37","gender":"0","age":"11","school":"6"},{"start_time":1551900872003,"click_time":1551900872954,"finger_time":1551900872615,"fix_duration":287.3502145537697,"trial":18,"RT":612,"MT":339,"sideResp":1,"stimulus":"img/500/randomdotsizeEA/L/5_Ratio_500_L_4_R_2.png","xmouse":[785,785,785,785,785,785,784,784,784,784,784,784,784,784,784,784,784,784,784,784,784,784,784,784,784,784,784,784,782,779,770,764,757,747,737,715,700,691,681,671,654,621,605,593,582,565,545,523],"ymouse":[607,607,607,607,607,607,608,608,609,610,610,610,610,610,610,610,610,610,610,610,610,610,610,610,610,610,610,609,603,595,571,555,537,515,492,432,384,352,316,281,243,186,165,147,133,111,92,78],"timestamp_mouse":[11,30,50,71,91,110,130,152,172,190,210,230,250,270,291,310,330,351,371,390,410,431,450,471,491,510,531,550,570,590,612,631,650,671,691,712,730,750,771,791,811,831,851,871,890,911,930,950],"xSR":741.5,"ySR":573.95,"xT1":424.9,"yT1":0,"xT2":1058.1,"yT2":0,"toosoon":0,"cond_shown":"randomdotsizeEA","ratio_trial":500,"smaller_num":"2","larger_num":"4","correct_side":1,"subjID":"juanandressalazarsuarez37","gender":"0","age":"11","school":"6"},{"start_time":1551900876714,"click_time":1551900878093,"finger_time":1551900877614,"fix_duration":1497.8845396021054,"trial":19,"RT":900,"MT":479,"sideResp":1,"stimulus":"img/900/randomdotsizeEA/R/14_Ratio_900_L_18_R_20.png","xmouse":[785,785,785,785,785,785,785,785,785,785,785,785,785,785,785,785,785,785,785,785,785,785,785,785,785,785,785,785,785,785,785,785,785,785,785,785,785,785,785,785,785,783,777,771,765,747,736,723,711,697,686,672,668,665,660,645,635,629,625,618,614,591,575,558,543,532,525,524,522,518],"ymouse":[620,620,620,620,620,620,620,620,620,620,620,620,620,620,620,620,620,620,620,620,620,620,620,620,620,620,620,620,620,620,620,620,620,620,620,620,620,620,620,620,620,620,611,597,579,534,510,483,459,435,416,371,353,335,320,285,269,256,248,237,227,187,166,144,125,114,109,108,104,99],"timestamp_mouse":[1,22,39,61,79,99,119,139,161,179,201,219,239,261,279,299,319,339,361,379,401,419,439,459,480,501,520,539,561,579,600,619,641,659,679,700,720,740,759,779,799,819,840,860,880,900,920,940,961,981,999,1020,1039,1060,1081,1101,1120,1139,1159,1179,1200,1221,1240,1260,1280,1299,1320,1340,1360,1379],"xSR":741.5,"ySR":573.95,"xT1":424.9,"yT1":0,"xT2":1058.1,"yT2":0,"toosoon":0,"cond_shown":"randomdotsizeEA","ratio_trial":900,"smaller_num":"18","larger_num":"20","correct_side":2,"subjID":"juanandressalazarsuarez37","gender":"0","age":"11","school":"6"},{"start_time":1551900880423,"click_time":1551900881514,"finger_time":1551900881214,"fix_duration":1269.7800817579034,"trial":20,"RT":791,"MT":300,"sideResp":1,"stimulus":"img/500/randomdotsizeEA/L/5_Ratio_500_L_4_R_2.png","xmouse":[801,801,801,801,801,801,801,799,797,793,790,790,790,790,790,790,790,790,790,790,790,790,790,790,790,790,790,790,790,790,790,790,790,790,790,790,790,789,784,748,714,675,629,582,531,528,528,530,532,533,533,533,533,528,513],"ymouse":[623,623,623,623,623,623,623,623,623,623,621,621,621,621,621,621,621,621,621,621,621,621,621,621,621,621,621,621,621,621,621,621,621,621,621,621,621,620,611,532,454,360,280,215,139,121,105,97,93,87,83,78,70,58,34],"timestamp_mouse":[10,33,50,70,90,110,130,150,171,190,210,230,251,271,290,310,330,350,369,391,411,431,450,471,490,510,531,550,571,589,610,631,649,670,689,710,729,750,769,791,809,830,850,869,890,909,931,949,969,991,1010,1031,1049,1069,1091],"xSR":741.5,"ySR":573.95,"xT1":424.9,"yT1":0,"xT2":1058.1,"yT2":0,"toosoon":0,"cond_shown":"randomdotsizeEA","ratio_trial":500,"smaller_num":"2","larger_num":"4","correct_side":1,"subjID":"juanandressalazarsuarez37","gender":"0","age":"11","school":"6"},{"start_time":1551900883280,"click_time":1551900884113,"finger_time":1551900883873,"fix_duration":985.779325828825,"trial":21,"RT":593,"MT":240,"sideResp":1,"stimulus":"img/250/equaldotsize/L/3_Ratio_250_L_8_R_2.png","xmouse":[801,800,797,797,797,797,797,797,797,797,797,797,797,797,797,797,797,797,797,797,797,797,797,797,792,788,782,772,763,752,736,688,645,616,589,565,550,534,527,520,512,498],"ymouse":[622,622,622,622,622,622,622,622,622,622,622,622,622,622,622,622,622,622,622,622,622,622,622,622,620,617,614,603,588,567,535,446,366,318,268,221,186,151,138,124,110,78],"timestamp_mouse":[12,32,54,73,92,113,134,154,174,192,214,234,253,272,294,313,334,353,373,393,412,433,454,472,493,513,533,553,573,593,613,633,653,673,693,712,732,753,773,793,813,833],"xSR":741.5,"ySR":573.95,"xT1":424.9,"yT1":0,"xT2":1058.1,"yT2":0,"toosoon":0,"cond_shown":"equaldotsize","ratio_trial":250,"smaller_num":"2","larger_num":"8","correct_side":1,"subjID":"juanandressalazarsuarez37","gender":"0","age":"11","school":"6"},{"start_time":1551900885770,"click_time":1551900886753,"finger_time":1551900886393,"fix_duration":875.6664809623527,"trial":22,"RT":623,"MT":360,"sideResp":1,"stimulus":"img/500/randomdotsizeEA/L/10_Ratio_500_L_4_R_2.png","xmouse":[792,792,792,792,792,792,792,792,792,792,792,792,792,792,792,792,792,792,792,792,792,792,792,792,792,792,792,792,792,791,786,777,748,727,700,671,650,628,625,622,622,620,611,602,592,581,568,545,534,516],"ymouse":[634,634,634,634,634,634,634,634,634,634,634,634,634,634,634,634,634,634,634,634,634,634,634,634,634,634,634,634,632,620,597,561,448,377,310,262,229,198,191,188,187,184,171,161,150,136,124,104,96,82],"timestamp_mouse":[9,24,44,64,82,104,123,143,163,183,202,224,244,262,284,303,324,342,363,384,403,424,443,463,484,502,523,542,563,583,602,623,644,663,683,703,724,743,763,782,802,824,843,862,883,903,922,943,962,983],"xSR":741.5,"ySR":573.95,"xT1":424.9,"yT1":0,"xT2":1058.1,"yT2":0,"toosoon":0,"cond_shown":"randomdotsizeEA","ratio_trial":500,"smaller_num":"2","larger_num":"4","correct_side":1,"subjID":"juanandressalazarsuarez37","gender":"0","age":"11","school":"6"},{"start_time":1551900888625,"click_time":1551900889692,"finger_time":1551900889494,"fix_duration":1069.196381057238,"trial":23,"RT":869,"MT":198,"sideResp":1,"stimulus":"img/900/randomdotsizeEA/R/9_Ratio_900_L_18_R_20.png","xmouse":[794,794,794,794,794,792,792,792,792,792,792,791,791,791,791,791,791,791,791,791,791,791,791,791,791,791,791,791,791,791,791,791,791,791,791,791,791,791,789,787,781,776,763,742,683,655,636,617,597,556,541,527,513,503],"ymouse":[635,635,635,635,634,632,631,631,631,631,631,631,631,631,631,631,631,631,631,631,631,631,631,631,631,631,631,631,631,631,631,631,631,631,631,621,616,611,607,603,598,595,580,537,409,345,311,284,255,191,162,134,110,93],"timestamp_mouse":[9,32,49,68,87,109,136,148,168,188,208,227,249,268,288,307,328,348,367,389,407,429,448,467,487,508,529,547,569,587,608,629,648,667,688,707,728,747,767,787,808,827,848,869,888,908,927,947,967,988,1007,1028,1047,1067],"xSR":741.5,"ySR":573.95,"xT1":424.9,"yT1":0,"xT2":1058.1,"yT2":0,"toosoon":0,"cond_shown":"randomdotsizeEA","ratio_trial":900,"smaller_num":"18","larger_num":"20","correct_side":2,"subjID":"juanandressalazarsuarez37","gender":"0","age":"11","school":"6"},{"start_time":1551900890936,"click_time":1551900892012,"finger_time":1551900891513,"fix_duration":443.39389958530575,"trial":24,"RT":577,"MT":499,"sideResp":1,"stimulus":"img/500/equaldotsize/L/5_Ratio_500_L_4_R_2.png","xmouse":[812,812,812,812,812,812,812,812,812,812,812,812,811,811,811,811,811,811,811,811,809,809,808,807,805,803,799,792,773,756,723,699,671,622,602,590,580,573,564,559,548,542,536,528,528,528,528,528,528,528,528,527,525,523],"ymouse":[633,633,633,633,633,633,633,633,633,633,633,633,632,632,632,632,632,631,629,628,626,623,623,620,617,613,605,592,547,504,425,361,299,190,144,117,93,76,52,43,25,14,7,0,0,0,0,0,0,0,0,0,0,4],"timestamp_mouse":[16,36,58,78,96,118,138,156,177,197,218,237,258,277,297,318,336,358,376,397,416,436,457,477,497,517,538,556,577,596,617,636,657,677,697,716,737,757,777,796,816,837,857,877,898,917,937,957,978,997,1017,1037,1057,1076],"xSR":741.5,"ySR":573.95,"xT1":424.9,"yT1":0,"xT2":1058.1,"yT2":0,"toosoon":0,"cond_shown":"equaldotsize","ratio_trial":500,"smaller_num":"2","larger_num":"4","correct_side":1,"subjID":"juanandressalazarsuarez37","gender":"0","age":"11","school":"6"},{"start_time":1551900893329,"click_time":1551900894733,"finger_time":1551900894152,"fix_duration":374.3826911250784,"trial":25,"RT":823,"MT":581,"sideResp":2,"stimulus":"img/750/equaldotsize/L/6_Ratio_750_L_24_R_18.png","xmouse":[831,831,830,829,829,828,828,828,828,828,828,828,827,827,827,827,827,827,827,827,827,827,827,827,827,827,827,827,827,827,827,827,827,827,827,827,826,825,822,816,801,794,789,787,786,786,786,786,787,795,812,825,841,852,869,877,885,897,907,923,944,956,965,973,981,996,1002,1009,1018,1037,1080],"ymouse":[619,619,619,619,619,620,620,620,620,620,620,620,620,620,620,620,620,620,620,620,620,620,620,620,620,620,620,620,620,620,620,620,620,620,620,620,620,620,615,605,582,572,566,563,561,561,560,560,557,550,531,516,496,482,460,448,435,417,398,369,326,304,283,264,244,201,176,152,128,95,48],"timestamp_mouse":[11,30,44,64,84,105,124,144,163,185,204,224,244,265,285,303,323,345,365,383,403,425,443,463,485,503,524,543,563,583,604,623,645,665,684,705,724,744,764,783,804,823,843,864,884,904,923,944,964,985,1003,1025,1043,1064,1085,1104,1124,1144,1164,1184,1205,1224,1243,1263,1284,1304,1323,1344,1364,1383,1404],"xSR":741.5,"ySR":573.95,"xT1":424.9,"yT1":0,"xT2":1058.1,"yT2":0,"toosoon":0,"cond_shown":"equaldotsize","ratio_trial":750,"smaller_num":"18","larger_num":"24","correct_side":1,"subjID":"juanandressalazarsuarez37","gender":"0","age":"11","school":"6"},{"start_time":1551900897002,"click_time":1551900897813,"finger_time":1551900897493,"fix_duration":1448.1229507993496,"trial":26,"RT":491,"MT":320,"sideResp":2,"stimulus":"img/250/equaldotanddens/R/12_Ratio_250_L_5_R_20.png","xmouse":[787,787,787,787,787,787,787,787,787,787,787,787,787,787,787,787,787,787,787,787,787,792,803,819,833,847,872,882,897,919,960,1047,1079,1094,1102,1104,1104,1104,1104,1105,1109],"ymouse":[602,602,602,602,602,602,602,602,602,602,602,602,602,602,602,602,602,602,602,602,603,597,586,574,563,555,537,522,502,464,402,257,199,164,140,129,123,122,115,102,80],"timestamp_mouse":[11,32,52,72,91,111,131,151,172,191,211,232,252,271,291,311,331,350,372,391,412,431,451,470,491,510,532,551,572,592,611,631,650,672,691,711,732,752,770,791,811],"xSR":741.5,"ySR":573.95,"xT1":424.9,"yT1":0,"xT2":1058.1,"yT2":0,"toosoon":0,"cond_shown":"equaldotanddens","ratio_trial":250,"smaller_num":"5","larger_num":"20","correct_side":2,"subjID":"juanandressalazarsuarez37","gender":"0","age":"11","school":"6"},{"start_time":1551900899447,"click_time":1551900900572,"finger_time":1551900900112,"fix_duration":712.4885367331301,"trial":27,"RT":665,"MT":460,"sideResp":1,"stimulus":"img/750/randomdotsizeEA/R/2_Ratio_750_L_6_R_8.png","xmouse":[807,807,807,807,807,807,807,807,807,807,807,807,807,807,807,807,807,807,807,807,807,807,807,807,807,807,807,808,809,809,809,807,804,799,779,764,747,729,709,670,646,628,604,599,578,570,562,552,543,530,525,519,513,506,490,484,480],"ymouse":[615,615,615,615,615,615,615,615,615,615,615,615,615,615,615,615,615,615,615,615,615,615,615,615,615,615,613,610,603,592,586,579,574,567,540,528,515,503,487,439,397,361,307,293,240,221,200,178,159,139,133,128,123,117,105,100,96],"timestamp_mouse":[11,29,46,67,86,106,126,146,167,186,207,226,246,266,286,306,326,346,367,386,406,425,446,465,487,506,526,546,566,586,607,627,646,665,685,706,725,746,766,786,806,827,847,866,887,906,925,946,965,986,1006,1027,1045,1065,1086,1106,1125],"xSR":741.5,"ySR":573.95,"xT1":424.9,"yT1":0,"xT2":1058.1,"yT2":0,"toosoon":0,"cond_shown":"randomdotsizeEA","ratio_trial":750,"smaller_num":"6","larger_num":"8","correct_side":2,"subjID":"juanandressalazarsuarez37","gender":"0","age":"11","school":"6"},{"start_time":1551900902891,"click_time":1551900930233,"finger_time":1551900904533,"fix_duration":1377.6092643106697,"trial":28,"RT":1642,"MT":25700,"sideResp":2,"stimulus":"img/750/randomdotsizeEA/R/12_Ratio_750_L_3_R_4.png","xmouse":[786,786,794,801,809,815,819,821,821,821,821,821,821,821,821,821,821,821,821,821,821,821,821,821,821,821,819,819,819,819,818,818,815,812,811,811,811,811,811,811,811,811,811,811,811,811,811,811,811,811,811,811,811,811,811,811,811,811,811,811,811,811,811,811,811,811,811,811,811,811,811,811,811,811,811,811,811,811,811,811,809,787,833,833,833,833,833,1466,1495,1526,1550,1571,1572,1572,1572,1572,1572,1572,1572,1572,1572,1572,1572,1572,1572,1572,1572,1572,1572,1572,1572,1572,1572,1572,1572,1572,1572,1572,1572,1572,1572,1572,1572,1572,1572,1572,1572,1572,1572,1572,1572,1572,1572,1572,1572,1572,1572,1572,1572,1572,1572,1572,1572,1572,1572,1572,1572,1572,1572,1572,1572,1572,1572,1572,1572,1572,1572,1572,1572,1572,1572,1572,1572,1572,1572,1572,1572,1572,1572,1572,1572,1572,1572,1572,1572,1572,1572,1572,1572,1572,1572,1572,1572,1572,1572,1572,1572,1572,1572,1572,1572,1572,1572,1572,1572,1572,1572,1572,1572,1572,1572,1572,1572,1572,1572,1572,1572,1572,1572,1572,1572,1572,1572,1572,1572,1572,1572,1572,1572,1572,1572,1572,1572,1572,1572,1572,1572,1572,1572,1572,1572,1572,1572,1572,1572,1572,1572,1572,1572,1572,1572,1572,1572,1572,1572,1572,1572,1572,1572,1572,1572,1572,1572,1572,1572,1572,1572,1572,1572,1572,1572,1572,1572,1572,1572,1572,1572,1572,1572,1572,1572,1572,1572,1572,1572,1572,1572,1572,1572,1572,1572,1572,1572,1572,1572,1572,1572,1572,1572,1572,1572,1572,1572,1572,1572,1572,1572,1572,1572,1572,1572,1572,1572,1572,1572,1572,1572,1572,1572,1572,1572,1572,1572,1572,1572,1572,1572,1572,1572,1572,1572,1572,1572,1572,1572,1572,1572,1572,1572,1572,1572,1572,1572,1572,1572,1572,1572,1572,1572,1572,1572,1572,1572,1572,1572,1572,1572,1572,1572,1572,1572,1572,1572,1572,1572,1572,1572,1572,1572,1572,1572,1572,1572,1572,1572,1572,1572,1572,1572,1572,1572,1572,1572,1572,1572,1572,1572,1572,1572,1572,1572,1572,1572,1572,1572,1572,1572,1572,1572,1572,1572,1572,1572,1572,1572,1572,1572,1572,1572,1572,1572,1572,1572,1572,1572,1572,1572,1572,1572,1572,1572,1572,1572,1572,1572,1572,1572,1572,1572,1572,1572,1572,1572,1572,1572,1572,1572,1572,1572,1572,1572,1572,1572,1572,1572,1572,1572,1572,1572,1572,1572,1572,1572,1572,1572,1572,1572,1572,1572,1572,1572,1572,1572,1572,1572,1572,1572,1572,1572,1572,1572,1572,1572,1572,1572,1572,1572,1572,1572,1572,1572,1572,1572,1572,1572,1572,1572,1572,1572,1572,1572,1572,1572,1572,1572,1572,1572,1572,1572,1572,1572,1572,1572,1572,1572,1572,1572,1572,1572,1572,1572,1572,1572,1572,1572,1572,1572,1572,1572,1572,1572,1572,1572,1572,1572,1572,1572,1572,1572,1572,1572,1572,1572,1572,1572,1572,1572,1572,1572,1572,1572,1572,1572,1572,1572,1572,1572,1572,1572,1572,1572,1572,1572,1572,1572,1572,1572,1572,1572,1572,1572,1572,1572,1572,1572,1572,1572,1572,1572,1572,1572,1572,1572,1572,1572,1572,1572,1572,1572,1572,1572,1572,1572,1572,1572,1572,1572,1572,1572,1572,1572,1572,1572,1572,1572,1572,1572,1572,1572,1572,1572,1572,1572,1572,1572,1572,1572,1572,1572,1572,1572,1572,1572,1572,1572,1572,1572,1572,1572,1572,1572,1572,1572,1572,1572,1572,1572,1572,1572,1572,1572,1572,1572,1572,1572,1572,1572,1572,1572,1572,1572,1572,1572,1572,1572,1572,1572,1572,1572,1572,1572,1572,1572,1572,1572,1572,1572,1572,1572,1572,1572,1572,1572,1572,1572,1572,1572,1572,1572,1572,1572,1572,1572,1572,1572,1572,1572,1572,1572,1572,1572,1572,1572,1572,1572,1572,1572,1572,1572,1572,1572,1572,1572,1572,1572,1572,1572,1572,1572,1572,1572,1572,1572,1572,1572,1572,1572,1572,1572,1572,1572,1572,1572,1572,1572,1572,1572,1572,1572,1572,1572,1572,1572,1572,1572,1572,1572,1572,1572,1572,1572,1572,1572,1572,1572,1572,1572,1572,1572,1572,1572,1572,1572,1572,1572,1572,1572,1572,1572,1572,1572,1572,1572,1572,1572,1572,1572,1572,1572,1572,1572,1572,1572,1572,1572,1572,1572,1572,1572,1572,1572,1572,1572,1572,1572,1572,1572,1572,1572,1572,1572,1572,1572,1572,1572,1572,1572,1572,1572,1572,1572,1572,1572,1572,1572,1572,1572,1572,1572,1572,1572,1572,1572,1572,1572,1572,1572,1572,1572,1572,1572,1572,1572,1572,1572,1572,1572,1572,1572,1572,1572,1572,1572,1572,1572,1572,1572,1572,1572,1572,1572,1572,1572,1572,1572,1572,1572,1572,1572,1572,1572,1572,1572,1572,1572,1572,1572,1572,1572,1572,1572,1572,1572,1572,1572,1572,1572,1572,1572,1572,1572,1572,1572,1572,1572,1572,1572,1572,1572,1572,1572,1572,1572,1572,1572,1572,1572,1572,1572,1572,1572,1572,1572,1572,1572,1572,1572,1572,1572,1572,1572,1572,1572,1572,1572,1572,1572,1572,1572,1572,1572,1572,1572,1572,1572,1572,1572,1572,1572,1572,1572,1572,1572,1572,1572,1572,1572,1572,1572,1572,1572,1572,1572,1572,1572,1572,1572,1572,1572,1572,1572,1572,1572,1572,1572,1572,1572,1572,1572,1572,1572,1572,1572,1572,1572,1572,1572,1572,1572,1572,1572,1572,1572,1572,1572,1572,1572,1572,1572,1572,1572,1572,1572,1572,1572,1572,1572,1572,1572,1572,1572,1572,1572,1572,1572,1572,1572,1572,1572,1572,1572,1572,1572,1572,1572,1572,1572,1572,1572,1572,1572,1572,1572,1572,1572,1572,1572,1572,1572,1572,1572,1572,1572,1572,1572,1572,1572,1572,1572,1572,1572,1572,1572,1572,1572,1572,1572,1572,1572,1572,1572,1572,1572,1572,1572,1572,1572,1572,1572,1572,1572,1572,1572,1572,1572,1572,1572,1572,1572,1572,1572,1572,1572,1572,1572,1572,1572,1572,1572,1572,1572,1572,1572,1572,1572,1572,1572,1572,1572,1572,1572,1572,1572,1572,1572,1572,1572,1572,1572,1572,1572,1572,1572,1572,1572,1572,1572,1572,1572,1572,1572,1572,1572,1572,1572,1572,1572,1572,1572,1572,1572,1572,1572,1572,1572,1572,1572,1572,1572,1572,1572,1572,1572,1572,1572,1572,1572,1572,1572,1572,1572,1572,1572,1572,1572,1572,1572,1572,1572,1572,1572,1572,1572,1572,1572,1572,1572,1572,1572,1572,1572,1572,1572,1572,1572,1572,1572,1572,1572,1572,1572,1572,1572,1572,1572,1572,1572,1572,1572,1572,1572,1572,1572,1572,1572,1572,1572,1572,1572,1572,1572,1572,1572,1572,1572,1572,1572,1572,1572,1572,1572,1572,1572,1572,1572,1572,1572,1572,1572,1572,1572,1572,1572,1572,1572,1572,1572,1572,1572,1572,1572,1572,1572,1572,1572,1572,1572,1572,1572,1572,1572,1572,1572,1572,1572,1572,1572,1572,1572,1572,1572,1572,1572,1572,1572,1572,1572,1572,1572,1572,1572,1572,1572,1572,1572,1572,1572,1572,1572,1572,1572,1572,1572,1572,1572,1572,1572,1572,1572,1572,1572,1572,1572,1572,1572,1572,1572,1572,1572,1572,1572,1572,1572,1572,1572,1572,1572,1572,1572,1572,1572,1572,1576,1576,1580,1566,1556,1561,1565,1566,1557,1481,1386,1346,1327,1322,1307,1289,1268,1250,1230,1190,1160,1134,1094,1007,927,880,849,819,776,759,677,644,643,644,649,652,652,652,655,666,680,690,697,706,712,718,727,729,731,731,732,732,733,735,762,778,788,793,794,794,794,794,794,794,794,794,794,794,794,789,785,785,785,785,785,790,795,799,799,799,799,799,799,799,799,799,800,800,800,791,779,778,778,778,778,778,778,778,778,778,778,778,779,780,786,789,794,802,821,897,946,1004,1032,1051,1072,1079],"ymouse":[611,611,613,616,620,622,625,626,626,626,626,626,626,626,626,626,626,626,626,626,626,626,626,626,626,626,626,626,626,626,626,626,625,624,619,613,613,613,613,613,613,613,613,613,613,613,613,613,613,613,613,613,613,613,613,613,613,613,613,613,613,613,613,613,613,613,613,613,613,613,613,613,613,613,613,613,613,613,613,605,588,660,835,835,835,835,835,865,793,690,614,572,571,571,571,571,571,571,571,571,571,571,571,571,571,571,571,571,571,571,571,571,571,571,571,571,571,571,571,571,571,571,571,571,571,571,571,571,571,571,571,571,571,571,571,571,571,571,571,571,571,571,571,571,571,571,571,571,571,571,571,571,571,571,571,571,571,571,571,571,571,571,571,571,571,571,571,571,571,571,571,571,571,571,571,571,571,571,571,571,571,571,571,571,571,571,571,571,571,571,571,571,571,571,571,571,571,571,571,571,571,571,571,571,571,571,571,571,571,571,571,571,571,571,571,571,571,571,571,571,571,571,571,571,571,571,571,571,571,571,571,571,571,571,571,571,571,571,571,571,571,571,571,571,571,571,571,571,571,571,571,571,571,571,571,571,571,571,571,571,571,571,571,571,571,571,571,571,571,571,571,571,571,571,571,571,571,571,571,571,571,571,571,571,571,571,571,571,571,571,571,571,571,571,571,571,571,571,571,571,571,571,571,571,571,571,571,571,571,571,571,571,571,571,571,571,571,571,571,571,571,571,571,571,571,571,571,571,571,571,571,571,571,571,571,571,571,571,571,571,571,571,571,571,571,571,571,571,571,571,571,571,571,571,571,571,571,571,571,571,571,571,571,571,571,571,571,571,571,571,571,571,571,571,571,571,571,571,571,571,571,571,571,571,571,571,571,571,571,571,571,571,571,571,571,571,571,571,571,571,571,571,571,571,571,571,571,571,571,571,571,571,571,571,571,571,571,571,571,571,571,571,571,571,571,571,571,571,571,571,571,571,571,571,571,571,571,571,571,571,571,571,571,571,571,571,571,571,571,571,571,571,571,571,571,571,571,571,571,571,571,571,571,571,571,571,571,571,571,571,571,571,571,571,571,571,571,571,571,571,571,571,571,571,571,571,571,571,571,571,571,571,571,571,571,571,571,571,571,571,571,571,571,571,571,571,571,571,571,571,571,571,571,571,571,571,571,571,571,571,571,571,571,571,571,571,571,571,571,571,571,571,571,571,571,571,571,571,571,571,571,571,571,571,571,571,571,571,571,571,571,571,571,571,571,571,571,571,571,571,571,571,571,571,571,571,571,571,571,571,571,571,571,571,571,571,571,571,571,571,571,571,571,571,571,571,571,571,571,571,571,571,571,571,571,571,571,571,571,571,571,571,571,571,571,571,571,571,571,571,571,571,571,571,571,571,571,571,571,571,571,571,571,571,571,571,571,571,571,571,571,571,571,571,571,571,571,571,571,571,571,571,571,571,571,571,571,571,571,571,571,571,571,571,571,571,571,571,571,571,571,571,571,571,571,571,571,571,571,571,571,571,571,571,571,571,571,571,571,571,571,571,571,571,571,571,571,571,571,571,571,571,571,571,571,571,571,571,571,571,571,571,571,571,571,571,571,571,571,571,571,571,571,571,571,571,571,571,571,571,571,571,571,571,571,571,571,571,571,571,571,571,571,571,571,571,571,571,571,571,571,571,571,571,571,571,571,571,571,571,571,571,571,571,571,571,571,571,571,571,571,571,571,571,571,571,571,571,571,571,571,571,571,571,571,571,571,571,571,571,571,571,571,571,571,571,571,571,571,571,571,571,571,571,571,571,571,571,571,571,571,571,571,571,571,571,571,571,571,571,571,571,571,571,571,571,571,571,571,571,571,571,571,571,571,571,571,571,571,571,571,571,571,571,571,571,571,571,571,571,571,571,571,571,571,571,571,571,571,571,571,571,571,571,571,571,571,571,571,571,571,571,571,571,571,571,571,571,571,571,571,571,571,571,571,571,571,571,571,571,571,571,571,571,571,571,571,571,571,571,571,571,571,571,571,571,571,571,571,571,571,571,571,571,571,571,571,571,571,571,571,571,571,571,571,571,571,571,571,571,571,571,571,571,571,571,571,571,571,571,571,571,571,571,571,571,571,571,571,571,571,571,571,571,571,571,571,571,571,571,571,571,571,571,571,571,571,571,571,571,571,571,571,571,571,571,571,571,571,571,571,571,571,571,571,571,571,571,571,571,571,571,571,571,571,571,571,571,571,571,571,571,571,571,571,571,571,571,571,571,571,571,571,571,571,571,571,571,571,571,571,571,571,571,571,571,571,571,571,571,571,571,571,571,571,571,571,571,571,571,571,571,571,571,571,571,571,571,571,571,571,571,571,571,571,571,571,571,571,571,571,571,571,571,571,571,571,571,571,571,571,571,571,571,571,571,571,571,571,571,571,571,571,571,571,571,571,571,571,571,571,571,571,571,571,571,571,571,571,571,571,571,571,571,571,571,571,571,571,571,571,571,571,571,571,571,571,571,571,571,571,571,571,571,571,571,571,571,571,571,571,571,571,571,571,571,571,571,571,571,571,571,571,571,571,571,571,571,571,571,571,571,571,571,571,571,571,571,571,571,571,571,571,571,571,571,571,571,571,571,571,571,571,571,571,571,571,571,571,571,571,571,571,571,571,571,571,571,571,571,571,571,571,571,571,571,571,571,571,571,571,571,571,571,571,571,571,571,571,571,571,571,571,571,571,571,571,571,571,571,571,571,571,571,571,571,571,571,571,571,571,571,571,571,571,571,571,571,571,571,571,571,571,571,571,571,571,571,571,570,569,569,569,569,569,569,569,569,569,569,569,569,562,562,479,460,459,461,465,470,477,500,536,554,563,568,577,584,592,597,606,623,629,630,630,624,613,606,603,601,594,589,564,560,560,562,572,575,575,576,578,583,588,591,592,595,597,597,598,598,599,599,600,600,600,600,586,575,568,564,562,562,562,562,562,562,562,562,562,562,562,566,568,569,569,569,567,557,551,546,545,545,545,545,545,545,545,545,545,548,560,581,609,611,611,611,611,611,611,611,611,611,611,607,602,591,559,538,517,493,464,371,315,235,189,151,108,90],"timestamp_mouse":[1,23,43,61,82,101,121,142,161,183,202,221,241,261,282,302,323,342,361,383,403,422,442,462,482,502,522,542,561,582,601,622,641,662,681,703,721,743,761,781,803,821,843,862,881,903,921,941,963,982,1003,1023,1041,1062,1082,1102,1121,1142,1161,1181,1202,1221,1242,1262,1283,1302,1322,1342,1362,1383,1402,1421,1442,1461,1481,1501,1522,1542,1561,1581,1602,1623,1642,1662,1683,1702,1723,1741,1762,1781,1802,1821,1843,1862,1882,1901,1921,1942,1961,1982,2002,2022,2042,2062,2082,2103,2122,2142,2162,2182,2202,2223,2242,2261,2281,2302,2322,2343,2361,2383,2402,2422,2442,2461,2482,2502,2522,2542,2562,2582,2603,2622,2642,2661,2683,2702,2722,2743,2761,2782,2802,2823,2841,2862,2881,2901,2923,2943,2961,2982,3002,3022,3041,3061,3081,3103,3121,3141,3162,3183,3202,3221,3242,3262,3282,3303,3323,3342,3362,3383,3401,3422,3442,3462,3482,3501,3523,3542,3563,3582,3601,3623,3641,3662,3682,3701,3722,3742,3762,3783,3803,3821,3842,3861,3883,3902,3923,3941,3962,3982,4003,4023,4042,4061,4081,4102,4123,4141,4161,4182,4203,4222,4242,4261,4283,4302,4322,4342,4361,4382,4402,4423,4441,4461,4482,4502,4522,4542,4561,4581,4602,4622,4642,4661,4685,4702,4723,4742,4762,4782,4802,4823,4841,4862,4881,4902,4923,4943,4961,4982,5002,5022,5042,5062,5082,5103,5122,5142,5162,5182,5201,5221,5242,5262,5282,5302,5321,5341,5363,5382,5401,5423,5441,5462,5482,5501,5522,5542,5562,5581,5603,5623,5642,5663,5681,5702,5721,5742,5762,5782,5801,5821,5841,5863,5882,5903,5922,5942,5962,5982,6001,6022,6041,6063,6083,6101,6121,6143,6163,6183,6201,6222,6241,6261,6282,6302,6322,6342,6362,6381,6401,6423,6443,6461,6481,6503,6522,6542,6561,6582,6602,6622,6641,6662,6682,6702,6722,6743,6762,6781,6802,6823,6841,6862,6882,6901,6923,6943,6962,6983,7001,7023,7041,7062,7082,7102,7123,7143,7162,7181,7202,7223,7242,7262,7282,7302,7322,7342,7361,7382,7402,7422,7441,7462,7482,7502,7523,7542,7563,7582,7602,7622,7641,7662,7682,7702,7723,7743,7761,7782,7803,7823,7842,7862,7882,7902,7923,7941,7961,7981,8002,8023,8043,8063,8082,8101,8121,8142,8162,8183,8201,8223,8241,8262,8283,8302,8321,8342,8361,8382,8403,8422,8441,8463,8482,8502,8521,8542,8562,8581,8601,8623,8643,8662,8682,8703,8721,8742,8761,8783,8802,8823,8842,8862,8882,8903,8922,8941,8961,8981,9002,9022,9042,9062,9082,9102,9123,9142,9163,9182,9201,9222,9243,9262,9282,9301,9323,9343,9362,9381,9402,9423,9441,9462,9482,9502,9523,9542,9561,9582,9603,9621,9643,9663,9682,9701,9723,9741,9761,9781,9802,9823,9842,9862,9882,9902,9922,9942,9963,9983,10001,10023,10043,10062,10082,10102,10121,10142,10161,10182,10202,10222,10241,10261,10282,10303,10322,10343,10361,10381,10403,10423,10442,10463,10481,10502,10523,10543,10561,10581,10602,10622,10641,10661,10682,10702,10723,10742,10762,10782,10803,10821,10843,10863,10882,10903,10923,10943,10961,10982,11003,11022,11042,11062,11082,11103,11122,11143,11161,11181,11202,11221,11241,11262,11282,11301,11323,11342,11362,11381,11402,11422,11442,11462,11482,11502,11521,11543,11562,11582,11601,11623,11641,11662,11681,11701,11722,11743,11762,11782,11801,11822,11841,11862,11882,11902,11922,11941,11962,11983,12001,12022,12042,12062,12081,12103,12123,12141,12161,12181,12202,12223,12241,12262,12282,12302,12323,12341,12362,12382,12401,12421,12442,12463,12481,12501,12523,12543,12562,12583,12602,12621,12641,12662,12682,12702,12723,12742,12762,12782,12802,12822,12843,12862,12882,12901,12923,12941,12962,12982,13002,13023,13042,13062,13083,13103,13121,13142,13162,13183,13201,13222,13241,13261,13283,13302,13322,13343,13363,13381,13402,13423,13441,13461,13482,13502,13521,13542,13562,13583,13602,13621,13641,13662,13683,13701,13723,13742,13762,13782,13803,13823,13841,13862,13882,13902,13922,13942,13962,13982,14001,14022,14042,14062,14081,14103,14123,14143,14162,14182,14202,14223,14242,14262,14282,14302,14322,14341,14362,14382,14402,14423,14442,14462,14483,14502,14521,14541,14562,14582,14602,14621,14642,14661,14682,14703,14723,14741,14761,14781,14802,14823,14842,14862,14882,14901,14922,14943,14962,14981,15003,15023,15043,15062,15081,15102,15123,15142,15161,15182,15203,15222,15242,15261,15282,15302,15323,15341,15361,15383,15403,15423,15442,15461,15481,15502,15523,15541,15562,15582,15603,15622,15642,15661,15681,15702,15722,15742,15763,15782,15803,15821,15842,15862,15881,15903,15923,15943,15962,15982,16002,16023,16043,16062,16081,16102,16123,16143,16161,16181,16203,16223,16241,16261,16282,16303,16323,16342,16362,16382,16402,16422,16442,16461,16483,16503,16522,16543,16562,16581,16602,16622,16641,16662,16683,16702,16722,16742,16762,16782,16801,16823,16842,16862,16882,16902,16922,16941,16962,16982,17002,17021,17041,17062,17082,17102,17122,17141,17161,17181,17202,17223,17242,17262,17282,17302,17322,17341,17362,17382,17402,17423,17442,17461,17483,17501,17523,17541,17562,17582,17611,17623,17643,17662,17681,17702,17723,17742,17762,17783,17802,17823,17842,17861,17882,17902,17923,17942,17961,17981,18001,18021,18041,18062,18082,18102,18121,18141,18162,18181,18201,18223,18241,18261,18281,18302,18323,18342,18362,18381,18401,18421,18442,18462,18482,18502,18522,18543,18561,18583,18602,18621,18642,18663,18682,18701,18723,18742,18762,18782,18802,18822,18841,18862,18883,18902,18921,18942,18962,18981,19003,19022,19043,19061,19081,19103,19123,19142,19161,19181,19202,19223,19242,19261,19282,19302,19323,19343,19361,19382,19402,19423,19442,19461,19482,19502,19521,19541,19562,19582,19603,19621,19641,19662,19683,19701,19721,19742,19762,19782,19801,19823,19841,19862,19883,19901,19922,19942,19962,19982,20002,20021,20041,20062,20082,20101,20121,20141,20163,20181,20203,20222,20242,20263,20282,20301,20322,20341,20362,20381,20402,20422,20442,20462,20481,20502,20523,20543,20562,20581,20602,20623,20641,20662,20682,20703,20723,20741,20763,20783,20802,20822,20841,20861,20882,20902,20923,20942,20961,20983,21002,21021,21042,21062,21082,21102,21123,21141,21161,21183,21202,21222,21241,21263,21283,21302,21321,21343,21362,21383,21402,21422,21441,21462,21482,21502,21522,21543,21562,21583,21601,21622,21643,21663,21683,21702,21723,21742,21762,21781,21801,21822,21841,21862,21883,21902,21921,21941,21962,21982,22001,22023,22043,22062,22081,22102,22123,22142,22163,22182,22201,22223,22241,22261,22283,22302,22322,22341,22363,22382,22401,22423,22443,22462,22482,22501,22522,22541,22561,22582,22602,22623,22641,22662,22681,22703,22723,22742,22761,22782,22803,22823,22841,22863,22882,22901,22923,22942,22962,22983,23003,23021,23042,23062,23082,23101,23122,23142,23162,23181,23201,23222,23243,23262,23282,23303,23322,23342,23362,23382,23402,23421,23441,23462,23482,23501,23523,23541,23562,23582,23603,23623,23642,23662,23681,23702,23722,23742,23762,23781,23802,23823,23841,23861,23882,23902,23921,23942,23961,23982,24002,24023,24042,24061,24082,24103,24123,24142,24161,24183,24202,24223,24242,24261,24282,24303,24321,24342,24361,24382,24403,24421,24442,24463,24483,24503,24521,24542,24561,24583,24601,24623,24641,24662,24681,24702,24723,24742,24763,24781,24802,24821,24841,24862,24882,24901,24923,24941,24961,24981,25002,25022,25041,25061,25082,25102,25121,25142,25162,25181,25203,25222,25242,25262,25281,25301,25321,25342,25361,25382,25403,25421,25442,25462,25481,25502,25522,25541,25561,25582,25602,25622,25642,25661,25681,25702,25722,25743,25761,25782,25802,25821,25841,25861,25881,25901,25922,25941,25962,25982,26001,26021,26042,26062,26082,26101,26122,26141,26162,26183,26202,26222,26242,26262,26282,26302,26322,26342,26363,26381,26402,26422,26443,26461,26483,26502,26522,26541,26561,26582,26601,26623,26642,26662,26682,26702,26722,26742,26761,26782,26802,26822,26842,26862,26881,26902,26923,26942,26961,26981,27003,27022,27042,27062,27081,27103,27122,27142,27161,27183,27203,27222,27243,27261,27281,27302,27322,27342],"xSR":741.5,"ySR":573.95,"xT1":424.9,"yT1":0,"xT2":1058.1,"yT2":0,"toosoon":0,"cond_shown":"randomdotsizeEA","ratio_trial":750,"smaller_num":"3","larger_num":"4","correct_side":2,"subjID":"juanandressalazarsuarez37","gender":"0","age":"11","school":"6"},{"start_time":1551900931968,"click_time":1551900932733,"finger_time":1551900932593,"fix_duration":414.3295578206164,"trial":29,"RT":625,"MT":140,"sideResp":1,"stimulus":"img/900/equaldotsize/L/4_Ratio_900_L_20_R_18.png","xmouse":[785,785,785,785,785,785,785,785,785,785,785,785,785,786,788,790,790,791,791,791,791,791,791,791,791,791,791,791,791,791,790,776,698,648,597,546,510,475,468],"ymouse":[584,584,584,584,584,584,584,584,584,584,584,584,585,587,589,592,593,594,595,595,596,596,596,596,596,596,596,596,596,595,577,530,389,320,257,195,152,109,95],"timestamp_mouse":[4,27,45,66,84,105,125,145,165,184,206,226,246,264,286,306,324,345,365,385,405,426,446,464,485,506,525,545,565,585,604,625,644,665,684,704,725,744,765],"xSR":741.5,"ySR":573.95,"xT1":424.9,"yT1":0,"xT2":1058.1,"yT2":0,"toosoon":0,"cond_shown":"equaldotsize","ratio_trial":900,"smaller_num":"18","larger_num":"20","correct_side":1,"subjID":"juanandressalazarsuarez37","gender":"0","age":"11","school":"6"},{"start_time":1551900934505,"click_time":1551900935693,"finger_time":1551900935213,"fix_duration":869.2735838309653,"trial":30,"RT":708,"MT":480,"sideResp":2,"stimulus":"img/900/equaldotanddens/R/3_Ratio_900_L_9_R_10.png","xmouse":[760,760,760,760,761,763,764,764,765,766,767,769,771,772,774,778,781,783,784,785,785,785,785,785,785,785,785,785,785,785,785,785,788,793,801,823,840,858,874,894,923,932,934,941,948,963,972,982,996,1007,1029,1040,1054,1060,1064,1070,1073,1078,1084,1088],"ymouse":[634,633,633,633,633,633,633,633,633,632,632,631,631,631,631,630,629,629,628,627,627,627,627,627,627,627,627,627,627,627,627,627,617,598,579,548,530,510,488,465,435,424,419,404,394,371,360,349,322,302,258,238,215,201,185,149,132,114,101,89],"timestamp_mouse":[17,32,48,68,88,109,129,149,168,187,209,228,247,268,288,309,327,348,367,388,409,428,448,468,489,507,529,547,569,589,609,628,648,668,687,708,728,748,768,788,807,827,848,868,888,907,928,948,969,988,1007,1027,1048,1068,1089,1108,1127,1148,1168,1187],"xSR":741.5,"ySR":573.95,"xT1":424.9,"yT1":0,"xT2":1058.1,"yT2":0,"toosoon":0,"cond_shown":"equaldotanddens","ratio_trial":900,"smaller_num":"9","larger_num":"10","correct_side":2,"subjID":"juanandressalazarsuarez37","gender":"0","age":"11","school":"6"},{"start_time":1551900937871,"click_time":1551900938614,"finger_time":1551900938492,"fix_duration":778.1178360784664,"trial":31,"RT":621,"MT":122,"sideResp":1,"stimulus":"img/500/equaldotanddens/L/7_Ratio_500_L_10_R_5.png","xmouse":[782,782,782,782,782,782,780,778,777,777,777,777,777,777,777,777,777,776,776,774,774,773,773,773,773,773,773,771,770,768,763,752,692,630,604,579,555,508],"ymouse":[595,595,595,595,595,592,589,587,585,585,585,585,585,585,585,584,584,584,584,585,586,586,586,586,586,586,586,586,586,586,584,567,496,424,360,291,225,95],"timestamp_mouse":[1,21,41,63,82,103,121,142,162,181,202,221,243,262,282,302,323,343,362,382,402,423,441,463,482,501,521,543,562,582,602,621,642,662,682,702,722,743],"xSR":741.5,"ySR":573.95,"xT1":424.9,"yT1":0,"xT2":1058.1,"yT2":0,"toosoon":0,"cond_shown":"equaldotanddens","ratio_trial":500,"smaller_num":"5","larger_num":"10","correct_side":1,"subjID":"juanandressalazarsuarez37","gender":"0","age":"11","school":"6"},{"start_time":1551900941365,"click_time":1551900942494,"finger_time":1551900941832,"fix_duration":1310.59702804726,"trial":32,"RT":467,"MT":662,"sideResp":2,"stimulus":"img/750/randomdotsizeEA/R/12_Ratio_750_L_3_R_4.png","xmouse":[793,793,793,793,793,793,793,793,793,793,793,793,793,793,793,792,791,791,791,791,790,789,788,784,783,782,782,782,782,782,781,781,781,785,775,759,742,701,690,689,689,689,690,720,753,799,836,857,874,879,891,909,928,965,992,1024,1067],"ymouse":[578,578,578,578,578,578,578,578,578,578,578,578,578,578,578,578,578,578,578,578,578,577,575,571,569,568,568,568,568,568,567,561,533,414,356,311,273,228,222,222,222,222,222,222,217,205,197,192,183,178,171,164,156,137,112,86,49],"timestamp_mouse":[12,28,47,69,88,108,128,148,167,189,208,228,248,267,288,309,328,348,367,388,408,429,449,467,487,508,528,548,568,588,608,627,647,668,688,708,727,749,767,788,809,827,847,868,887,907,928,948,968,987,1007,1029,1048,1068,1088,1109,1129],"xSR":741.5,"ySR":573.95,"xT1":424.9,"yT1":0,"xT2":1058.1,"yT2":0,"toosoon":0,"cond_shown":"randomdotsizeEA","ratio_trial":750,"smaller_num":"3","larger_num":"4","correct_side":2,"subjID":"juanandressalazarsuarez37","gender":"0","age":"11","school":"6"},{"start_time":1551900946433,"click_time":1551900947533,"finger_time":1551900947033,"fix_duration":599.9742523922287,"trial":33,"RT":600,"MT":500,"sideResp":1,"stimulus":"img/500/equaldotanddens/L/4_Ratio_500_L_18_R_9.png","xmouse":[810,810,810,810,807,806,806,806,806,806,806,805,805,804,804,804,804,804,804,804,804,804,804,803,801,799,799,796,796,793,791,787,782,742,723,705,681,654,627,595,594,594,594,594,594,594,594,594,594,588,577,558,541,526,509],"ymouse":[605,605,605,605,605,605,605,605,605,605,605,603,602,599,599,598,598,598,597,597,596,595,593,592,586,582,581,577,575,571,567,560,545,455,404,354,298,250,216,191,190,190,190,190,190,190,190,190,183,166,147,124,104,90,75],"timestamp_mouse":[20,40,60,80,99,120,140,160,181,199,219,239,260,281,299,320,341,359,381,400,420,440,460,479,500,520,539,559,580,600,619,640,661,681,699,720,739,761,781,800,820,839,860,880,900,919,941,960,979,1000,1020,1040,1060,1080,1100],"xSR":741.5,"ySR":573.95,"xT1":424.9,"yT1":0,"xT2":1058.1,"yT2":0,"toosoon":0,"cond_shown":"equaldotanddens","ratio_trial":500,"smaller_num":"9","larger_num":"18","correct_side":1,"subjID":"juanandressalazarsuarez37","gender":"0","age":"11","school":"6"},{"start_time":1551900948766,"click_time":1551900951252,"finger_time":1551900949314,"fix_duration":250,"trial":34,"RT":548,"MT":1938,"sideResp":1,"stimulus":"img/500/randomdotsizeEA/R/1_Ratio_500_L_9_R_18.png","xmouse":[784,784,784,782,781,780,779,777,775,774,772,771,770,769,768,768,767,766,766,766,766,765,759,754,749,747,745,740,738,735,732,730,727,720,717,712,709,704,701,700,699,698,697,696,695,695,695,694,689,687,685,683,683,683,683,683,683,683,683,683,683,683,683,683,683,683,683,692,699,703,705,707,708,716,720,728,736,746,748,749,750,750,750,754,758,766,777,794,800,800,800,800,800,800,800,800,800,800,800,800,800,800,797,776,756,742,734,724,718,709,695,666,628,550,531,525,524,525,524,516,502,493,492,492,492],"ymouse":[605,604,602,598,597,596,595,590,589,588,585,584,581,581,580,580,580,580,580,580,580,580,580,580,579,577,576,573,573,571,570,569,568,563,561,558,556,554,552,551,551,551,551,551,550,550,550,550,549,547,546,545,544,544,544,544,544,544,544,544,544,544,544,544,544,544,553,567,572,574,574,574,576,581,584,589,592,597,598,598,599,599,599,601,604,608,612,615,616,616,616,616,616,616,616,616,616,616,616,616,616,616,616,600,582,568,557,533,513,493,464,419,368,266,236,219,207,185,160,138,120,108,102,100,98],"timestamp_mouse":[8,26,47,67,87,106,127,148,166,187,208,227,248,267,287,306,328,346,367,387,407,426,447,467,487,507,526,548,566,586,606,627,647,667,686,707,726,747,766,786,806,827,847,867,887,908,928,947,966,988,1007,1026,1047,1068,1087,1107,1127,1147,1168,1188,1206,1226,1246,1266,1288,1307,1327,1347,1367,1388,1407,1428,1446,1467,1487,1508,1528,1547,1566,1587,1607,1626,1647,1667,1687,1708,1728,1747,1768,1788,1807,1828,1848,1866,1887,1908,1927,1947,1966,1986,2008,2026,2047,2067,2086,2108,2128,2147,2166,2186,2207,2226,2248,2267,2286,2307,2327,2348,2366,2387,2406,2427,2448,2467,2486],"xSR":741.5,"ySR":573.95,"xT1":424.9,"yT1":0,"xT2":1058.1,"yT2":0,"toosoon":0,"cond_shown":"randomdotsizeEA","ratio_trial":500,"smaller_num":"9","larger_num":"18","correct_side":2,"subjID":"juanandressalazarsuarez37","gender":"0","age":"11","school":"6"},{"start_time":1551900956177,"click_time":1551900957013,"finger_time":1551900956853,"fix_duration":1423.4181088374633,"trial":35,"RT":676,"MT":160,"sideResp":2,"stimulus":"img/900/randomdotsizeEA/R/15_Ratio_900_L_9_R_10.png","xmouse":[756,756,756,756,756,756,756,756,756,756,756,756,756,756,756,756,756,756,756,756,756,756,756,756,756,756,756,756,756,756,756,762,769,781,800,821,863,894,928,965,1005,1090],"ymouse":[611,611,611,611,611,611,611,611,611,611,611,611,611,611,611,611,611,611,611,611,611,611,611,611,611,611,611,611,611,611,611,604,593,572,538,504,416,344,276,224,176,96],"timestamp_mouse":[15,37,56,77,95,116,135,157,177,195,215,236,255,277,297,316,337,356,376,395,415,436,457,475,496,517,536,557,575,596,616,637,656,676,696,717,736,755,775,797,817,836],"xSR":741.5,"ySR":573.95,"xT1":424.9,"yT1":0,"xT2":1058.1,"yT2":0,"toosoon":0,"cond_shown":"randomdotsizeEA","ratio_trial":900,"smaller_num":"9","larger_num":"10","correct_side":2,"subjID":"juanandressalazarsuarez37","gender":"0","age":"11","school":"6"},{"start_time":1551900958264,"click_time":1551900959314,"finger_time":1551900958693,"fix_duration":250,"trial":36,"RT":429,"MT":621,"sideResp":1,"stimulus":"img/900/equaldotanddens/R/9_Ratio_900_L_18_R_20.png","xmouse":[783,783,783,783,783,783,783,783,783,783,783,783,783,783,783,783,783,783,783,783,783,783,784,784,784,784,784,784,784,784,784,784,783,779,776,767,753,738,687,644,593,546,497,482,475,465,455,447,430,427,427,426,426],"ymouse":[576,576,576,576,576,576,576,576,576,576,576,576,576,576,576,576,576,576,575,575,574,573,571,569,569,568,567,566,566,564,563,563,562,558,555,547,530,487,323,231,141,78,0,0,0,0,0,0,0,0,0,0,6],"timestamp_mouse":[10,29,48,69,89,110,130,148,169,189,208,229,248,269,289,309,329,348,369,389,409,429,449,469,488,509,530,549,569,588,609,628,649,669,688,709,730,749,769,788,810,829,850,869,889,908,929,948,969,988,1009,1029,1050],"xSR":741.5,"ySR":573.95,"xT1":424.9,"yT1":0,"xT2":1058.1,"yT2":0,"toosoon":0,"cond_shown":"equaldotanddens","ratio_trial":900,"smaller_num":"18","larger_num":"20","correct_side":2,"subjID":"juanandressalazarsuarez37","gender":"0","age":"11","school":"6"},{"start_time":1551900963432,"click_time":1551900964554,"finger_time":1551900964053,"fix_duration":1237.6588373692084,"trial":37,"RT":621,"MT":501,"sideResp":2,"stimulus":"img/250/equaldotanddens/R/6_Ratio_250_L_6_R_24.png","xmouse":[789,789,789,789,789,789,789,789,789,789,788,786,786,785,785,785,785,785,785,785,785,785,785,785,785,785,785,785,785,785,795,824,857,894,958,976,988,995,1004,1011,1037,1047,1050,1052,1053,1053,1053,1053,1053,1053,1053,1053,1053,1053,1054,1057,1060],"ymouse":[609,609,609,609,609,608,608,608,608,608,609,611,612,613,613,613,613,613,613,611,604,599,597,596,596,596,596,596,596,594,577,535,477,415,278,235,201,179,161,144,109,96,87,81,78,78,78,78,78,77,77,77,77,77,77,77,75],"timestamp_mouse":[1,21,42,62,81,101,121,141,161,181,201,222,241,260,280,300,321,342,361,380,401,422,441,460,481,501,522,540,562,582,601,621,641,660,682,700,721,741,762,780,801,821,841,862,880,901,921,942,961,982,1001,1022,1042,1061,1081,1101,1122],"xSR":741.5,"ySR":573.95,"xT1":424.9,"yT1":0,"xT2":1058.1,"yT2":0,"toosoon":0,"cond_shown":"equaldotanddens","ratio_trial":250,"smaller_num":"6","larger_num":"24","correct_side":2,"subjID":"juanandressalazarsuarez37","gender":"0","age":"11","school":"6"},{"start_time":1551900967420,"click_time":1551900968273,"finger_time":1551900968032,"fix_duration":446.95698625405134,"trial":38,"RT":612,"MT":241,"sideResp":1,"stimulus":"img/900/equaldotsize/R/11_Ratio_900_L_18_R_20.png","xmouse":[786,786,786,786,786,786,786,786,786,786,786,786,786,786,786,786,786,786,786,786,785,783,783,783,781,781,781,778,777,760,740,715,688,659,623,588,579,570,561,550,522,510,500],"ymouse":[620,620,620,620,620,620,620,620,620,620,620,620,620,620,620,620,620,620,620,620,620,620,620,620,620,620,620,618,614,585,553,515,465,405,325,248,226,207,187,167,129,113,96],"timestamp_mouse":[13,37,52,73,92,112,133,153,174,193,213,232,252,273,293,312,334,353,374,393,413,434,454,472,494,512,532,554,574,593,612,634,654,673,694,713,733,753,773,793,813,834,853],"xSR":741.5,"ySR":573.95,"xT1":424.9,"yT1":0,"xT2":1058.1,"yT2":0,"toosoon":0,"cond_shown":"equaldotsize","ratio_trial":900,"smaller_num":"18","larger_num":"20","correct_side":2,"subjID":"juanandressalazarsuarez37","gender":"0","age":"11","school":"6"},{"start_time":1551900969869,"click_time":1551900970633,"finger_time":1551900970533,"fix_duration":653.8767709152479,"trial":39,"RT":664,"MT":100,"sideResp":2,"stimulus":"img/250/equaldotanddens/R/10_Ratio_250_L_4_R_16.png","xmouse":[789,789,789,789,789,789,789,789,789,789,789,789,789,789,789,789,789,789,789,789,789,789,789,789,789,789,789,789,789,789,789,796,808,868,902,930,982,1020,1065],"ymouse":[643,643,643,643,643,643,643,643,643,643,643,643,643,643,643,643,643,643,643,643,643,643,643,643,643,643,643,643,643,639,631,610,582,440,382,315,224,177,79],"timestamp_mouse":[7,23,44,65,85,103,124,145,164,185,204,223,244,263,284,303,325,343,364,383,404,424,443,464,484,504,523,544,565,585,603,624,645,664,684,704,724,744,764],"xSR":741.5,"ySR":573.95,"xT1":424.9,"yT1":0,"xT2":1058.1,"yT2":0,"toosoon":0,"cond_shown":"equaldotanddens","ratio_trial":250,"smaller_num":"4","larger_num":"16","correct_side":2,"subjID":"juanandressalazarsuarez37","gender":"0","age":"11","school":"6"},{"start_time":1551900971584,"click_time":1551900972413,"finger_time":1551900972093,"fix_duration":250,"trial":40,"RT":509,"MT":320,"sideResp":1,"stimulus":"img/500/randomdotsizeEA/L/13_Ratio_500_L_12_R_6.png","xmouse":[806,806,806,806,806,806,806,806,806,806,806,806,806,806,806,806,806,806,806,806,806,806,806,800,790,771,736,628,599,574,561,555,554,555,558,559,559,558,556,552,546,517],"ymouse":[647,647,647,647,647,647,647,647,647,647,647,647,647,647,647,647,647,647,647,647,647,647,640,623,603,567,515,362,302,257,225,204,175,164,151,139,108,96,80,66,51,25],"timestamp_mouse":[9,28,48,69,89,109,130,148,170,189,209,230,249,268,290,308,329,349,369,389,409,430,449,468,489,509,529,549,568,589,610,629,649,668,689,709,730,748,769,788,809,829],"xSR":741.5,"ySR":573.95,"xT1":424.9,"yT1":0,"xT2":1058.1,"yT2":0,"toosoon":0,"cond_shown":"randomdotsizeEA","ratio_trial":500,"smaller_num":"6","larger_num":"12","correct_side":1,"subjID":"juanandressalazarsuarez37","gender":"0","age":"11","school":"6"},{"start_time":1551900973644,"click_time":1551900974533,"finger_time":1551900974314,"fix_duration":250,"trial":41,"RT":670,"MT":219,"sideResp":1,"stimulus":"img/750/equaldotsize/L/9_Ratio_750_L_4_R_3.png","xmouse":[758,758,758,758,758,758,758,758,758,758,758,758,758,758,758,758,758,758,758,758,758,758,758,758,758,758,758,758,758,758,758,756,751,720,691,649,599,551,483,469,464,464,466,475,503],"ymouse":[631,631,631,631,631,631,631,631,631,631,631,631,631,631,631,631,631,631,631,631,631,631,631,631,631,631,631,631,631,631,628,627,619,564,516,449,378,310,202,177,163,155,147,133,81],"timestamp_mouse":[9,30,49,69,89,109,129,149,169,189,210,228,249,269,289,309,330,349,370,389,410,428,449,470,488,509,528,549,568,589,609,629,649,670,688,709,729,748,770,788,809,829,849,869,889],"xSR":741.5,"ySR":573.95,"xT1":424.9,"yT1":0,"xT2":1058.1,"yT2":0,"toosoon":0,"cond_shown":"equaldotsize","ratio_trial":750,"smaller_num":"3","larger_num":"4","correct_side":1,"subjID":"juanandressalazarsuarez37","gender":"0","age":"11","school":"6"},{"start_time":1551900975730,"click_time":1551900976913,"finger_time":1551900976413,"fix_duration":635.890310622353,"trial":42,"RT":683,"MT":500,"sideResp":2,"stimulus":"img/900/equaldotsize/R/15_Ratio_900_L_9_R_10.png","xmouse":[801,801,801,801,801,801,801,801,800,800,800,800,800,800,800,800,800,800,800,800,800,800,800,800,799,798,797,797,796,795,795,795,795,798,806,827,838,850,862,876,914,932,948,963,991,997,998,998,998,1000,1006,1009,1014,1017,1020,1023,1025,1032,1043,1066],"ymouse":[639,639,639,639,639,639,639,639,637,637,637,637,637,636,636,636,636,636,636,636,636,636,635,634,632,631,628,626,624,618,614,608,600,587,571,535,515,498,477,451,390,361,332,308,264,249,236,224,215,204,195,190,182,174,165,143,130,117,103,74],"timestamp_mouse":[5,23,43,63,84,103,123,142,164,184,204,222,243,263,283,303,323,342,364,383,403,423,443,463,484,503,522,542,562,584,602,623,643,664,683,703,722,744,763,783,803,822,843,863,883,902,923,943,964,983,1002,1023,1044,1063,1083,1103,1124,1143,1162,1183],"xSR":741.5,"ySR":573.95,"xT1":424.9,"yT1":0,"xT2":1058.1,"yT2":0,"toosoon":0,"cond_shown":"equaldotsize","ratio_trial":900,"smaller_num":"9","larger_num":"10","correct_side":2,"subjID":"juanandressalazarsuarez37","gender":"0","age":"11","school":"6"},{"start_time":1551900978812,"click_time":1551900980353,"finger_time":1551900979693,"fix_duration":996.5412890002516,"trial":43,"RT":881,"MT":660,"sideResp":2,"stimulus":"img/900/equaldotsize/L/8_Ratio_900_L_20_R_18.png","xmouse":[794,794,794,794,794,794,794,794,794,794,794,794,794,794,794,794,794,795,795,795,795,795,795,795,795,795,795,795,795,795,795,795,795,795,795,795,795,795,795,795,795,795,795,796,798,805,805,805,805,805,805,805,805,805,805,800,792,789,788,787,787,787,788,795,801,835,851,866,876,885,896,902,912,926,940,1005,1037,1064],"ymouse":[574,574,574,574,574,574,574,574,574,574,574,574,574,574,574,574,576,577,578,579,579,579,579,579,579,579,579,579,579,579,579,579,579,579,579,579,579,579,579,579,579,579,579,577,570,515,496,488,483,482,480,477,474,467,458,435,421,415,413,412,412,412,412,411,411,394,382,371,362,353,344,338,328,313,294,181,123,65],"timestamp_mouse":[8,21,42,62,81,100,121,140,161,181,202,221,241,261,281,301,322,340,360,381,402,421,442,460,481,500,520,542,560,581,601,620,641,660,682,701,721,740,761,780,801,821,840,861,881,902,920,941,961,982,1001,1021,1042,1061,1081,1101,1120,1141,1162,1180,1202,1222,1240,1260,1281,1301,1320,1341,1361,1381,1401,1420,1440,1461,1480,1501,1520,1541],"xSR":741.5,"ySR":573.95,"xT1":424.9,"yT1":0,"xT2":1058.1,"yT2":0,"toosoon":0,"cond_shown":"equaldotsize","ratio_trial":900,"smaller_num":"18","larger_num":"20","correct_side":1,"subjID":"juanandressalazarsuarez37","gender":"0","age":"11","school":"6"},{"start_time":1551900984021,"click_time":1551900985614,"finger_time":1551900984932,"fix_duration":1108.0915782313734,"trial":44,"RT":911,"MT":682,"sideResp":1,"stimulus":"img/750/randomdotsizeEA/L/14_Ratio_750_L_8_R_6.png","xmouse":[769,769,769,769,769,769,769,769,769,769,769,769,769,769,769,769,769,769,769,769,769,769,769,768,768,768,768,768,768,768,768,768,768,768,768,768,768,768,768,768,768,768,768,768,768,786,798,813,834,863,923,954,983,1008,1024,1033,1027,1009,983,895,843,786,728,687,661,636,635,635,635,631,600,585,574,569,568,564,556,540,525,489],"ymouse":[581,581,581,581,581,581,581,581,581,581,581,581,581,581,581,581,581,581,581,581,581,581,581,581,581,581,581,581,581,581,581,581,581,581,581,581,581,581,581,581,581,581,581,581,580,562,544,520,472,394,207,116,44,0,0,0,0,0,0,0,0,0,2,8,15,21,21,21,21,21,5,1,0,0,0,0,0,5,12,36],"timestamp_mouse":[19,35,53,72,92,112,131,153,172,192,212,231,252,272,291,312,332,352,372,393,412,431,452,473,491,512,532,551,572,592,612,631,653,672,691,712,732,751,772,792,812,833,853,872,893,911,932,952,972,992,1011,1032,1051,1072,1092,1113,1132,1152,1173,1193,1213,1232,1252,1273,1292,1313,1333,1353,1371,1392,1412,1431,1451,1471,1492,1513,1532,1551,1573,1593],"xSR":741.5,"ySR":573.95,"xT1":424.9,"yT1":0,"xT2":1058.1,"yT2":0,"toosoon":0,"cond_shown":"randomdotsizeEA","ratio_trial":750,"smaller_num":"6","larger_num":"8","correct_side":1,"subjID":"juanandressalazarsuarez37","gender":"0","age":"11","school":"6"},{"start_time":1551900988628,"click_time":1551900989473,"finger_time":1551900989112,"fix_duration":332.632130855414,"trial":45,"RT":484,"MT":361,"sideResp":1,"stimulus":"img/900/equaldotanddens/L/2_Ratio_900_L_20_R_18.png","xmouse":[816,816,816,816,816,817,812,806,800,786,782,777,774,772,771,770,770,768,763,756,748,746,744,742,741,739,737,734,731,726,707,699,690,683,674,649,636,618,596,570,526,507,492],"ymouse":[651,651,651,651,651,650,647,643,639,631,629,626,625,624,624,623,623,621,617,613,607,605,604,603,602,600,598,593,589,582,558,544,530,513,491,398,357,311,262,213,140,113,91],"timestamp_mouse":[8,30,46,64,85,105,125,144,166,185,205,226,246,265,285,305,325,345,364,385,405,426,446,466,484,504,525,545,566,585,605,624,646,665,685,705,724,745,766,785,805,826,845],"xSR":741.5,"ySR":573.95,"xT1":424.9,"yT1":0,"xT2":1058.1,"yT2":0,"toosoon":0,"cond_shown":"equaldotanddens","ratio_trial":900,"smaller_num":"18","larger_num":"20","correct_side":1,"subjID":"juanandressalazarsuarez37","gender":"0","age":"11","school":"6"},{"start_time":1551900991485,"click_time":1551900992733,"finger_time":1551900992394,"fix_duration":250,"trial":46,"RT":909,"MT":339,"sideResp":1,"stimulus":"img/900/randomdotsizeEA/L/10_Ratio_900_L_20_R_18.png","xmouse":[799,799,799,799,799,799,799,799,799,799,799,799,799,799,799,799,799,799,799,799,799,799,799,799,799,799,799,799,799,799,799,799,799,799,799,799,799,799,799,799,799,798,794,787,775,756,710,694,680,671,665,653,647,642,638,634,623,616,603,584,558,527,453],"ymouse":[593,593,593,593,593,593,593,593,593,593,593,593,593,593,593,593,593,593,593,593,593,593,593,593,593,593,593,593,593,593,593,593,593,593,593,593,593,593,593,593,593,593,593,588,577,563,531,517,506,496,485,459,441,424,410,393,356,333,297,247,197,153,76],"timestamp_mouse":[9,28,48,67,89,107,129,148,168,189,208,229,248,269,287,307,328,348,369,388,408,428,447,468,488,508,529,547,568,588,608,627,648,669,687,708,728,748,768,789,807,828,848,868,889,909,928,947,969,989,1008,1028,1047,1067,1088,1109,1129,1148,1167,1189,1208,1229,1248],"xSR":741.5,"ySR":573.95,"xT1":424.9,"yT1":0,"xT2":1058.1,"yT2":0,"toosoon":0,"cond_shown":"randomdotsizeEA","ratio_trial":900,"smaller_num":"18","larger_num":"20","correct_side":1,"subjID":"juanandressalazarsuarez37","gender":"0","age":"11","school":"6"},{"start_time":1551900995044,"click_time":1551900996132,"finger_time":1551900995733,"fix_duration":1290.5382381869056,"trial":47,"RT":689,"MT":399,"sideResp":1,"stimulus":"img/250/equaldotsize/L/3_Ratio_250_L_8_R_2.png","xmouse":[783,783,784,784,784,784,784,784,784,784,784,784,784,784,784,784,784,784,784,784,784,784,784,784,784,784,784,784,784,784,784,784,783,779,766,745,728,707,660,638,615,585,556,522,491,490,490,493,499,506,509,511,512,512,505],"ymouse":[591,591,592,592,592,592,592,592,592,592,592,592,592,592,592,592,592,592,592,592,592,592,592,592,592,592,592,592,592,592,592,591,589,582,556,523,500,474,432,414,394,368,344,317,285,280,273,265,251,215,192,171,151,117,92],"timestamp_mouse":[9,29,48,68,89,108,128,150,169,188,210,228,250,268,289,308,328,349,370,388,408,429,448,468,489,508,528,549,569,589,609,629,648,669,689,709,730,749,769,788,810,828,848,870,889,909,929,949,969,989,1008,1029,1049,1069,1088],"xSR":741.5,"ySR":573.95,"xT1":424.9,"yT1":0,"xT2":1058.1,"yT2":0,"toosoon":0,"cond_shown":"equaldotsize","ratio_trial":250,"smaller_num":"2","larger_num":"8","correct_side":1,"subjID":"juanandressalazarsuarez37","gender":"0","age":"11","school":"6"},{"start_time":1551900997635,"click_time":1551900999413,"finger_time":1551900998873,"fix_duration":660.6569847097913,"trial":48,"RT":1238,"MT":540,"sideResp":1,"stimulus":"img/900/equaldotanddens/R/13_Ratio_900_L_18_R_20.png","xmouse":[789,789,790,790,790,790,790,790,790,790,790,790,790,790,790,790,790,790,790,790,790,790,790,790,789,788,788,787,787,787,787,787,787,787,787,787,787,787,787,787,787,787,787,787,787,787,787,787,787,787,787,787,787,787,787,787,787,787,786,785,784,784,784,783,781,780,777,768,736,706,669,623,587,545,537,535,535,533,530,527,526,522,519,502,482,465,450,440,437],"ymouse":[589,589,586,582,580,580,580,580,580,580,580,580,580,580,580,580,580,580,580,580,580,580,582,584,585,585,587,588,588,588,588,588,588,588,588,588,588,588,588,588,588,588,588,588,588,588,588,588,588,588,588,588,588,588,588,588,588,589,585,580,576,573,572,570,566,560,548,526,460,416,373,332,304,274,262,254,249,243,228,219,212,203,193,166,145,133,117,102,87],"timestamp_mouse":[28,38,58,78,98,117,138,157,178,197,218,238,258,278,299,318,337,359,378,398,419,438,457,478,498,518,538,557,578,598,618,639,657,678,698,717,738,757,778,798,818,837,858,878,897,919,938,958,977,998,1017,1037,1058,1078,1098,1119,1137,1158,1179,1198,1217,1238,1258,1278,1297,1318,1339,1359,1378,1397,1418,1438,1458,1478,1498,1517,1538,1559,1578,1597,1618,1638,1658,1678,1697,1718,1737,1757,1778],"xSR":741.5,"ySR":573.95,"xT1":424.9,"yT1":0,"xT2":1058.1,"yT2":0,"toosoon":0,"cond_shown":"equaldotanddens","ratio_trial":900,"smaller_num":"18","larger_num":"20","correct_side":2,"subjID":"juanandressalazarsuarez37","gender":"0","age":"11","school":"6"},{"start_time":1551901001435,"click_time":1551901002653,"finger_time":1551901002132,"fix_duration":1301.3095464039582,"trial":49,"RT":697,"MT":521,"sideResp":1,"stimulus":"img/900/equaldotanddens/L/1_Ratio_900_L_10_R_9.png","xmouse":[781,781,781,781,781,781,781,781,781,781,781,781,781,781,781,781,781,781,781,781,781,781,781,781,781,781,781,781,781,781,778,776,776,772,766,760,752,741,711,697,685,676,670,662,655,648,636,621,585,574,564,552,542,524,516,513,511,510,505,501,493],"ymouse":[598,598,598,598,598,598,598,598,598,598,598,598,598,598,598,598,598,598,598,598,598,598,598,598,598,598,598,598,598,598,597,594,590,577,563,551,539,526,497,483,468,457,448,435,415,395,366,331,253,230,208,190,174,148,133,127,120,115,106,101,93],"timestamp_mouse":[26,37,59,78,97,117,138,158,179,198,217,237,257,279,298,318,339,357,377,399,418,438,457,479,498,518,537,559,577,597,617,638,657,678,697,718,738,758,778,797,818,839,859,878,898,918,939,958,978,997,1018,1039,1058,1078,1097,1118,1137,1159,1178,1198,1218],"xSR":741.5,"ySR":573.95,"xT1":424.9,"yT1":0,"xT2":1058.1,"yT2":0,"toosoon":0,"cond_shown":"equaldotanddens","ratio_trial":900,"smaller_num":"9","larger_num":"10","correct_side":1,"subjID":"juanandressalazarsuarez37","gender":"0","age":"11","school":"6"},{"start_time":1551901004903,"click_time":1551901006113,"finger_time":1551901005333,"fix_duration":1129.2098935522947,"trial":50,"RT":430,"MT":780,"sideResp":2,"stimulus":"img/500/equaldotsize/R/2_Ratio_500_L_3_R_6.png","xmouse":[789,789,789,789,789,789,789,789,789,789,789,789,789,789,789,788,787,786,784,783,782,776,773,767,761,756,749,746,745,744,744,744,744,744,747,757,778,793,808,826,863,876,897,908,922,958,977,996,1018,1039,1090,1134,1149,1159,1163,1163,1163,1163,1163,1161,1152],"ymouse":[581,581,581,581,581,581,581,581,581,581,581,581,581,581,581,581,580,579,577,576,574,568,565,559,555,551,545,543,541,541,540,539,538,536,531,521,503,497,492,488,476,470,454,442,426,374,323,253,180,106,0,0,0,0,0,0,0,0,0,0,14],"timestamp_mouse":[9,29,50,71,89,111,129,151,169,191,209,229,250,271,289,310,331,350,370,391,410,430,450,470,491,509,530,550,571,590,610,629,650,670,691,710,730,749,770,790,810,831,850,869,889,909,930,950,970,990,1010,1029,1050,1069,1089,1109,1129,1150,1170,1189,1210],"xSR":741.5,"ySR":573.95,"xT1":424.9,"yT1":0,"xT2":1058.1,"yT2":0,"toosoon":0,"cond_shown":"equaldotsize","ratio_trial":500,"smaller_num":"3","larger_num":"6","correct_side":2,"subjID":"juanandressalazarsuarez37","gender":"0","age":"11","school":"6"},{"start_time":1551901007825,"click_time":1551901009253,"finger_time":1551901008873,"fix_duration":631.6002235434761,"trial":51,"RT":1048,"MT":380,"sideResp":1,"stimulus":"img/500/equaldotanddens/L/4_Ratio_500_L_18_R_9.png","xmouse":[781,781,781,781,782,783,784,784,785,785,785,785,785,785,787,788,788,788,788,788,788,789,789,789,790,790,791,791,791,791,791,791,791,791,791,791,791,791,791,791,791,791,791,791,791,792,790,787,781,761,752,743,738,736,733,728,724,718,707,680,668,655,640,622,606,548,529,516,507,500,477,455],"ymouse":[640,640,640,640,640,639,638,637,636,636,636,636,636,635,633,632,632,632,632,632,631,630,630,629,629,628,628,628,628,628,628,628,628,628,628,628,628,628,628,628,628,628,628,628,628,628,624,621,616,600,591,583,577,571,564,546,530,506,482,436,413,391,363,333,307,257,243,230,214,196,141,95],"timestamp_mouse":[9,31,48,68,88,109,128,148,167,187,208,227,248,267,289,307,328,348,367,388,408,429,448,468,488,508,528,548,567,589,608,627,648,667,688,708,727,749,767,788,808,827,848,869,887,908,928,949,968,988,1008,1029,1048,1068,1088,1107,1128,1148,1167,1188,1207,1228,1248,1268,1288,1308,1328,1347,1369,1388,1407,1428],"xSR":741.5,"ySR":573.95,"xT1":424.9,"yT1":0,"xT2":1058.1,"yT2":0,"toosoon":0,"cond_shown":"equaldotanddens","ratio_trial":500,"smaller_num":"9","larger_num":"18","correct_side":1,"subjID":"juanandressalazarsuarez37","gender":"0","age":"11","school":"6"},{"start_time":1551901012042,"click_time":1551901013974,"finger_time":1551901013113,"fix_duration":688.3376003389488,"trial":52,"RT":1071,"MT":861,"sideResp":2,"stimulus":"img/750/equaldotsize/R/7_Ratio_750_L_3_R_4.png","xmouse":[764,763,763,763,763,763,763,763,763,763,763,763,763,762,761,761,761,761,761,761,761,761,761,761,761,761,761,761,761,761,761,761,761,761,761,761,761,761,761,761,761,761,761,761,762,763,764,765,765,765,766,766,765,732,714,692,674,658,649,640,640,641,646,658,704,720,732,739,743,744,745,745,750,778,789,796,800,804,809,829,844,857,870,893,904,916,926,936,943,958,965,971,979,987,1024,1045,1063],"ymouse":[632,632,632,632,632,632,632,632,632,632,632,632,632,632,632,632,632,632,632,632,632,632,632,632,632,632,632,632,632,632,632,632,632,632,632,632,632,632,632,632,632,632,632,631,629,627,625,624,623,622,618,612,597,537,518,502,488,474,461,441,437,435,435,434,430,428,422,416,406,380,374,370,368,364,362,362,362,362,360,353,347,339,332,311,301,291,280,268,258,233,222,211,200,189,141,115,78],"timestamp_mouse":[11,31,51,72,91,111,131,150,170,190,210,231,251,270,292,311,330,350,370,391,410,430,450,471,490,511,531,550,572,591,610,631,651,671,692,710,731,750,770,791,810,831,850,871,891,910,931,951,972,991,1011,1031,1052,1071,1090,1111,1132,1151,1170,1191,1210,1232,1251,1271,1291,1310,1330,1352,1371,1391,1411,1431,1451,1471,1490,1511,1530,1552,1571,1591,1611,1631,1650,1671,1690,1711,1732,1752,1771,1791,1811,1830,1850,1871,1891,1911,1932],"xSR":741.5,"ySR":573.95,"xT1":424.9,"yT1":0,"xT2":1058.1,"yT2":0,"toosoon":0,"cond_shown":"equaldotsize","ratio_trial":750,"smaller_num":"3","larger_num":"4","correct_side":2,"subjID":"juanandressalazarsuarez37","gender":"0","age":"11","school":"6"},{"start_time":1551901018722,"click_time":1551901020012,"finger_time":1551901019392,"fix_duration":1246.468661736143,"trial":53,"RT":670,"MT":620,"sideResp":2,"stimulus":"img/500/equaldotanddens/R/3_Ratio_500_L_10_R_20.png","xmouse":[756,756,755,755,754,753,752,750,749,749,749,749,749,749,749,749,749,749,749,749,749,749,748,748,748,748,748,748,750,756,763,769,778,788,816,828,838,848,859,888,901,914,927,941,964,973,978,984,986,992,997,1000,1003,1006,1009,1012,1013,1013,1015,1025,1033,1042,1048,1054,1059],"ymouse":[624,624,625,625,625,625,626,626,626,626,626,626,626,626,626,626,626,626,626,626,626,626,626,626,627,627,627,627,627,627,623,611,589,562,505,484,463,444,423,377,360,342,324,305,277,266,255,246,240,232,226,221,218,214,207,197,189,180,169,127,104,79,58,37,22],"timestamp_mouse":[24,31,51,71,91,110,131,151,170,192,211,230,251,271,290,311,331,351,370,391,411,431,451,471,492,511,531,550,571,591,610,631,651,670,692,711,731,750,770,791,810,831,851,871,891,910,931,952,971,991,1010,1031,1050,1070,1091,1111,1131,1151,1170,1191,1210,1230,1250,1271,1290],"xSR":741.5,"ySR":573.95,"xT1":424.