[{"start_time":1551899865977,"click_time":1551899868444,"finger_time":1551899866005,"fix_duration":409.30119109322163,"trial":0,"RT":28,"MT":2439,"sideResp":1,"stimulus":[],"xmouse":[800,799,798,798,798,798,798,798,798,798,798,798,798,798,798,798,798,798,798,798,798,798,798,798,798,798,798,798,798,799,800,801,802,802,802,802,802,802,802,802,801,801,801,801,801,801,801,801,801,801,801,800,800,800,800,800,800,800,800,800,800,800,800,800,800,805,807,812,815,828,832,833,835,836,838,839,840,841,842,843,844,845,845,845,845,845,851,852,852,838,816,783,739,681,597,578,570,567,564,559,558,556,554,553,553,553,553,551,551,551,551,551,551,551,551,551,550,545,543,536,502,478,455],"ymouse":[546,545,545,545,545,543,540,538,535,535,535,535,535,535,535,535,535,535,535,535,535,535,535,535,535,535,535,535,535,534,535,538,540,541,543,544,546,546,548,549,552,552,552,552,553,553,554,554,556,556,557,558,558,559,560,560,560,560,560,560,560,560,560,560,560,560,558,554,547,520,510,500,494,491,487,486,484,483,482,480,478,477,476,475,475,473,464,463,463,463,463,463,463,461,446,438,433,429,420,399,393,386,380,372,357,349,344,340,337,337,337,337,337,337,337,337,337,331,314,298,217,148,80],"timestamp_mouse":[28,48,67,87,108,126,147,168,187,208,226,246,267,287,307,327,346,367,387,407,427,447,467,487,507,528,547,567,586,606,627,647,668,687,707,726,748,767,787,806,827,846,867,888,907,926,948,968,987,1006,1027,1047,1067,1087,1108,1128,1147,1166,1186,1207,1227,1247,1267,1287,1307,1327,1347,1367,1386,1407,1426,1447,1466,1487,1507,1527,1547,1567,1587,1607,1627,1647,1667,1687,1707,1727,1748,1767,1788,1807,1826,1847,1867,1888,1907,1927,1947,1968,1987,2007,2026,2048,2068,2087,2106,2126,2147,2167,2187,2207,2227,2246,2267,2288,2307,2327,2347,2367,2387,2406,2427,2447,2467],"xSR":741.5,"ySR":469.95,"xT1":424.9,"yT1":0,"xT2":1058.1,"yT2":0,"toosoon":0,"cond_shown":"Congruent","ratio_trial":300,"L_num":3,"L_den":6,"R_num":2,"R_den":10,"correct_side":1,"subjID":"juanandressalazarsuarez37","gender":"0","age":"12","school":"6","test":{"fix_dur":[250,1500],"timestim":1000,"targets_dim":[100,100],"targets_relative_coord":[0.3,0.7],"size_stim":[880,420],"start_dim":[100,100],"size_start":[300,300],"size_fix":60,"samplingrate":20,"img_types":["Congruent","Incongruent"],"ratios":[100,200,300],"rep_conds":19,"nTrials":120,"trials_to_rest":500,"Trials_order":[28,99,105,98,32,15,19,89,50,2,103,24,113,65,110,60,106,97,114,54,87,48,71,9,64,23,104,8,6,117,7,115,18,79,69,46,101,52,88,26,22,5,68,4,36,94,63,11,57,74,61,12,13,25,33,43,53,82,111,38,90,92,78,30,107,21,91,67,14,108,96,44,80,0,76,47,35,45,102,55,119,93,85,34,16,86,100,27,75,72,66,49,10,109,83,59,58,1,77,37,40,29,62,116,95,56,31,3,70,112,118,73,39,42,81,41,84,51,20,17],"cond_shown":["Congruent","Incongruent","Incongruent","Congruent","Congruent","Incongruent","Incongruent","Incongruent","Congruent","Congruent","Incongruent","Congruent","Incongruent","Incongruent","Congruent","Congruent","Congruent","Incongruent","Congruent","Congruent","Incongruent","Congruent","Incongruent","Incongruent","Congruent","Incongruent","Congruent","Congruent","Congruent","Incongruent","Incongruent","Incongruent","Congruent","Incongruent","Incongruent","Congruent","Incongruent","Congruent","Congruent","Congruent","Congruent","Incongruent","Congruent","Congruent","Congruent","Congruent","Incongruent","Incongruent","Incongruent","Congruent","Incongruent","Congruent","Incongruent","Incongruent","Incongruent","Incongruent","Incongruent","Congruent","Incongruent","Congruent","Congruent","Congruent","Congruent","Congruent","Incongruent","Incongruent","Incongruent","Incongruent","Congruent","Congruent","Congruent","Congruent","Congruent","Congruent","Congruent","Incongruent","Incongruent","Incongruent","Congruent","Incongruent","Incongruent","Incongruent","Incongruent","Congruent","Congruent","Congruent","Congruent","Incongruent","Incongruent","Congruent","Congruent","Incongruent","Congruent","Incongruent","Incongruent","Incongruent","Congruent","Incongruent","Incongruent","Incongruent","Congruent","Incongruent","Congruent","Congruent","Incongruent","Congruent","Incongruent","Incongruent","Congruent","Congruent","Congruent","Incongruent","Incongruent","Congruent","Incongruent","Incongruent","Congruent","Incongruent","Congruent","Incongruent"],"ratio_trial":[300,200,200,200,200,200,100,300,200,200,100,100,300,300,200,100,300,100,100,100,200,100,300,200,300,300,200,200,100,200,100,100,100,100,200,300,300,300,300,200,300,300,200,300,100,300,200,300,200,200,100,100,100,100,200,100,300,300,200,200,100,200,100,100,300,200,100,100,200,100,100,200,200,100,300,300,300,200,100,100,300,200,100,300,300,200,300,200,200,100,100,100,300,100,300,300,300,100,300,100,300,300,200,200,300,200,100,200,300,300,300,100,200,100,200,300,100,200,200,300],"left_num":[3,7,3,4,6,4,8,4,6,13,6,6,8,2,7,1,1,3,11,9,14,7,13,3,1,13,6,20,3,1,6,3,11,12,11,4,13,24,24,12,9,3,3,11,15,1,7,13,3,3,6,4,9,9,1,3,4,1,6,9,2,9,12,15,8,1,6,10,8,11,10,12,3,7,11,4,4,7,15,2,13,14,2,20,24,13,5,6,9,11,10,9,1,3,7,1,24,9,2,9,4,4,9,3,1,12,9,1,5,9,24,2,3,11,7,13,3,4,3,1],"right_num":[2,8,11,3,11,6,6,2,11,14,11,5,9,6,18,3,8,7,4,8,6,9,12,11,19,12,7,9,4,3,13,7,6,9,3,2,12,2,8,6,3,4,14,4,13,6,4,12,1,9,13,6,13,14,2,7,2,19,3,13,11,4,13,13,9,3,3,8,3,4,3,6,14,9,2,2,8,8,13,8,12,6,8,8,8,14,7,3,8,6,3,6,6,4,8,2,2,13,6,20,13,2,4,11,2,6,6,3,6,3,8,8,11,4,14,12,4,14,14,3],"left_den":[6,10,4,10,20,5,16,20,20,26,10,20,10,4,15,2,30,9,22,15,30,14,26,4,3,26,12,25,20,2,10,9,22,24,20,5,26,30,30,20,10,6,10,22,25,5,15,26,10,12,10,8,15,15,3,9,20,3,20,30,5,20,30,25,10,2,12,25,15,22,25,20,6,14,22,20,5,10,25,4,26,30,4,25,30,26,25,20,15,22,25,18,5,6,10,2,30,15,4,10,20,20,20,10,2,20,18,2,25,10,30,4,4,22,10,26,20,6,6,2],"right_den":[10,16,20,15,22,10,10,4,22,20,22,25,18,30,27,5,24,30,10,16,9,15,15,20,30,15,10,15,16,10,26,30,15,15,4,4,15,4,16,15,5,20,28,20,26,12,6,15,2,20,26,10,26,28,15,30,4,30,6,26,22,16,26,26,18,10,5,16,9,10,10,15,20,15,10,4,16,16,26,20,15,9,20,16,16,20,14,6,10,15,10,10,12,10,20,10,4,26,30,25,26,4,16,22,10,15,10,10,12,5,16,20,20,10,28,15,16,30,20,15],"correct_side":[1,1,1,1,2,1,2,2,2,2,1,1,1,1,2,2,2,1,1,1,2,2,2,1,2,2,2,1,2,1,1,1,1,2,2,1,2,1,1,1,1,1,2,1,1,2,2,2,2,2,1,2,1,1,1,1,2,2,2,2,2,1,2,1,1,1,2,2,1,1,1,1,2,2,1,2,1,1,1,1,2,2,1,1,1,2,2,2,2,1,1,2,2,1,1,1,1,1,1,1,2,2,1,2,1,1,2,1,2,1,1,1,1,1,1,2,2,1,2,1],"img_shown":["img2/300/Congruent/L/C_Dist_300_LN_3_LD_6_RN_2_RD_10_0.png","img2/200/Incongruent/L/I_Dist_200_LN_7_LD_10_RN_8_RD_16_0.png","img2/200/Incongruent/L/I_Dist_200_LN_3_LD_4_RN_11_RD_20_0.png","img2/200/Congruent/L/C_Dist_200_LN_4_LD_10_RN_3_RD_15_0.png","img2/200/Congruent/R/C_Dist_200_LN_6_LD_20_RN_11_RD_22_1.png","img2/200/Incongruent/L/I_Dist_200_LN_4_LD_5_RN_6_RD_10_0.png","img2/100/Incongruent/R/I_Dist_100_LN_8_LD_16_RN_6_RD_10_1.png","img2/300/Incongruent/R/I_Dist_300_LN_4_LD_20_RN_2_RD_4_1.png","img2/200/Congruent/R/C_Dist_200_LN_6_LD_20_RN_11_RD_22_1.png","img2/200/Congruent/R/C_Dist_200_LN_13_LD_26_RN_14_RD_20_1.png","img2/100/Incongruent/L/I_Dist_100_LN_6_LD_10_RN_11_RD_22_0.png","img2/100/Congruent/L/C_Dist_100_LN_6_LD_20_RN_5_RD_25_0.png","img2/300/Incongruent/L/I_Dist_300_LN_8_LD_10_RN_9_RD_18_0.png","img2/300/Incongruent/L/I_Dist_300_LN_2_LD_4_RN_6_RD_30_0.png","img2/200/Congruent/R/C_Dist_200_LN_7_LD_15_RN_18_RD_27_1.png","img2/100/Congruent/R/C_Dist_100_LN_1_LD_2_RN_3_RD_5_1.png","img2/300/Congruent/R/C_Dist_300_LN_1_LD_30_RN_8_RD_24_1.png","img2/100/Incongruent/L/I_Dist_100_LN_3_LD_9_RN_7_RD_30_0.png","img2/100/Congruent/L/C_Dist_100_LN_11_LD_22_RN_4_RD_10_0.png","img2/100/Congruent/L/C_Dist_100_LN_9_LD_15_RN_8_RD_16_0.png","img2/200/Incongruent/R/I_Dist_200_LN_14_LD_30_RN_6_RD_9_1.png","img2/100/Congruent/R/C_Dist_100_LN_7_LD_14_RN_9_RD_15_1.png","img2/300/Incongruent/R/I_Dist_300_LN_13_LD_26_RN_12_RD_15_1.png","img2/200/Incongruent/L/I_Dist_200_LN_3_LD_4_RN_11_RD_20_0.png","img2/300/Congruent/R/C_Dist_300_LN_1_LD_3_RN_19_RD_30_1.png","img2/300/Incongruent/R/I_Dist_300_LN_13_LD_26_RN_12_RD_15_1.png","img2/200/Congruent/R/C_Dist_200_LN_6_LD_12_RN_7_RD_10_1.png","img2/200/Congruent/L/C_Dist_200_LN_20_LD_25_RN_9_RD_15_0.png","img2/100/Congruent/R/C_Dist_100_LN_3_LD_20_RN_4_RD_16_1.png","img2/200/Incongruent/L/I_Dist_200_LN_1_LD_2_RN_3_RD_10_0.png","img2/100/Incongruent/L/I_Dist_100_LN_6_LD_10_RN_13_RD_26_0.png","img2/100/Incongruent/L/I_Dist_100_LN_3_LD_9_RN_7_RD_30_0.png","img2/100/Congruent/L/C_Dist_100_LN_11_LD_22_RN_6_RD_15_0.png","img2/100/Incongruent/R/I_Dist_100_LN_12_LD_24_RN_9_RD_15_1.png","img2/200/Incongruent/R/I_Dist_200_LN_11_LD_20_RN_3_RD_4_1.png","img2/300/Congruent/L/C_Dist_300_LN_4_LD_5_RN_2_RD_4_0.png","img2/300/Incongruent/R/I_Dist_300_LN_13_LD_26_RN_12_RD_15_1.png","img2/300/Congruent/L/C_Dist_300_LN_24_LD_30_RN_2_RD_4_0.png","img2/300/Congruent/L/C_Dist_300_LN_24_LD_30_RN_8_RD_16_0.png","img2/200/Congruent/L/C_Dist_200_LN_12_LD_20_RN_6_RD_15_0.png","img2/300/Congruent/L/C_Dist_300_LN_9_LD_10_RN_3_RD_5_0.png","img2/300/Incongruent/L/I_Dist_300_LN_3_LD_6_RN_4_RD_20_0.png","img2/200/Congruent/R/C_Dist_200_LN_3_LD_10_RN_14_RD_28_1.png","img2/300/Congruent/L/C_Dist_300_LN_11_LD_22_RN_4_RD_20_0.png","img2/100/Congruent/L/C_Dist_100_LN_15_LD_25_RN_13_RD_26_0.png","img2/300/Congruent/R/C_Dist_300_LN_1_LD_5_RN_6_RD_12_1.png","img2/200/Incongruent/R/I_Dist_200_LN_7_LD_15_RN_4_RD_6_1.png","img2/300/Incongruent/R/I_Dist_300_LN_13_LD_26_RN_12_RD_15_1.png","img2/200/Incongruent/R/I_Dist_200_LN_3_LD_10_RN_1_RD_2_1.png","img2/200/Congruent/R/C_Dist_200_LN_3_LD_12_RN_9_RD_20_1.png","img2/100/Incongruent/L/I_Dist_100_LN_6_LD_10_RN_13_RD_26_0.png","img2/100/Congruent/R/C_Dist_100_LN_4_LD_8_RN_6_RD_10_1.png","img2/100/Incongruent/L/I_Dist_100_LN_9_LD_15_RN_13_RD_26_0.png","img2/100/Incongruent/L/I_Dist_100_LN_9_LD_15_RN_14_RD_28_0.png","img2/200/Incongruent/L/I_Dist_200_LN_1_LD_3_RN_2_RD_15_0.png","img2/100/Incongruent/L/I_Dist_100_LN_3_LD_9_RN_7_RD_30_0.png","img2/300/Incongruent/R/I_Dist_300_LN_4_LD_20_RN_2_RD_4_1.png","img2/300/Congruent/R/C_Dist_300_LN_1_LD_3_RN_19_RD_30_1.png","img2/200/Incongruent/R/I_Dist_200_LN_6_LD_20_RN_3_RD_6_1.png","img2/200/Congruent/R/C_Dist_200_LN_9_LD_30_RN_13_RD_26_1.png","img2/100/Congruent/R/C_Dist_100_LN_2_LD_5_RN_11_RD_22_1.png","img2/200/Congruent/L/C_Dist_200_LN_9_LD_20_RN_4_RD_16_0.png","img2/100/Congruent/R/C_Dist_100_LN_12_LD_30_RN_13_RD_26_1.png","img2/100/Congruent/L/C_Dist_100_LN_15_LD_25_RN_13_RD_26_0.png","img2/300/Incongruent/L/I_Dist_300_LN_8_LD_10_RN_9_RD_18_0.png","img2/200/Incongruent/L/I_Dist_200_LN_1_LD_2_RN_3_RD_10_0.png","img2/100/Incongruent/R/I_Dist_100_LN_6_LD_12_RN_3_RD_5_1.png","img2/100/Incongruent/R/I_Dist_100_LN_10_LD_25_RN_8_RD_16_1.png","img2/200/Congruent/L/C_Dist_200_LN_8_LD_15_RN_3_RD_9_0.png","img2/100/Congruent/L/C_Dist_100_LN_11_LD_22_RN_4_RD_10_0.png","img2/100/Congruent/L/C_Dist_100_LN_10_LD_25_RN_3_RD_10_0.png","img2/200/Congruent/L/C_Dist_200_LN_12_LD_20_RN_6_RD_15_0.png","img2/200/Congruent/R/C_Dist_200_LN_3_LD_6_RN_14_RD_20_1.png","img2/100/Congruent/R/C_Dist_100_LN_7_LD_14_RN_9_RD_15_1.png","img2/300/Congruent/L/C_Dist_300_LN_11_LD_22_RN_2_RD_10_0.png","img2/300/Incongruent/R/I_Dist_300_LN_4_LD_20_RN_2_RD_4_1.png","img2/300/Incongruent/L/I_Dist_300_LN_4_LD_5_RN_8_RD_16_0.png","img2/200/Incongruent/L/I_Dist_200_LN_7_LD_10_RN_8_RD_16_0.png","img2/100/Congruent/L/C_Dist_100_LN_15_LD_25_RN_13_RD_26_0.png","img2/100/Incongruent/L/I_Dist_100_LN_2_LD_4_RN_8_RD_20_0.png","img2/300/Incongruent/R/I_Dist_300_LN_13_LD_26_RN_12_RD_15_1.png","img2/200/Incongruent/R/I_Dist_200_LN_14_LD_30_RN_6_RD_9_1.png","img2/100/Incongruent/L/I_Dist_100_LN_2_LD_4_RN_8_RD_20_0.png","img2/300/Congruent/L/C_Dist_300_LN_20_LD_25_RN_8_RD_16_0.png","img2/300/Congruent/L/C_Dist_300_LN_24_LD_30_RN_8_RD_16_0.png","img2/200/Congruent/R/C_Dist_200_LN_13_LD_26_RN_14_RD_20_1.png","img2/300/Congruent/R/C_Dist_300_LN_5_LD_25_RN_7_RD_14_1.png","img2/200/Incongruent/R/I_Dist_200_LN_6_LD_20_RN_3_RD_6_1.png","img2/200/Incongruent/R/I_Dist_200_LN_9_LD_15_RN_8_RD_10_1.png","img2/100/Congruent/L/C_Dist_100_LN_11_LD_22_RN_6_RD_15_0.png","img2/100/Congruent/L/C_Dist_100_LN_10_LD_25_RN_3_RD_10_0.png","img2/100/Incongruent/R/I_Dist_100_LN_9_LD_18_RN_6_RD_10_1.png","img2/300/Congruent/R/C_Dist_300_LN_1_LD_5_RN_6_RD_12_1.png","img2/100/Incongruent/L/I_Dist_100_LN_3_LD_6_RN_4_RD_10_0.png","img2/300/Incongruent/L/I_Dist_300_LN_7_LD_10_RN_8_RD_20_0.png","img2/300/Incongruent/L/I_Dist_300_LN_1_LD_2_RN_2_RD_10_0.png","img2/300/Congruent/L/C_Dist_300_LN_24_LD_30_RN_2_RD_4_0.png","img2/100/Incongruent/L/I_Dist_100_LN_9_LD_15_RN_13_RD_26_0.png","img2/300/Incongruent/L/I_Dist_300_LN_2_LD_4_RN_6_RD_30_0.png","img2/100/Incongruent/L/I_Dist_100_LN_9_LD_10_RN_20_RD_25_0.png","img2/300/Congruent/R/C_Dist_300_LN_4_LD_20_RN_13_RD_26_1.png","img2/300/Incongruent/R/I_Dist_300_LN_4_LD_20_RN_2_RD_4_1.png","img2/200/Congruent/L/C_Dist_200_LN_9_LD_20_RN_4_RD_16_0.png","img2/200/Congruent/R/C_Dist_200_LN_3_LD_10_RN_11_RD_22_1.png","img2/300/Incongruent/L/I_Dist_300_LN_1_LD_2_RN_2_RD_10_0.png","img2/200/Congruent/L/C_Dist_200_LN_12_LD_20_RN_6_RD_15_0.png","img2/100/Incongruent/R/I_Dist_100_LN_9_LD_18_RN_6_RD_10_1.png","img2/200/Incongruent/L/I_Dist_200_LN_1_LD_2_RN_3_RD_10_0.png","img2/300/Congruent/R/C_Dist_300_LN_5_LD_25_RN_6_RD_12_1.png","img2/300/Congruent/L/C_Dist_300_LN_9_LD_10_RN_3_RD_5_0.png","img2/300/Congruent/L/C_Dist_300_LN_24_LD_30_RN_8_RD_16_0.png","img2/100/Incongruent/L/I_Dist_100_LN_2_LD_4_RN_8_RD_20_0.png","img2/200/Incongruent/L/I_Dist_200_LN_3_LD_4_RN_11_RD_20_0.png","img2/100/Congruent/L/C_Dist_100_LN_11_LD_22_RN_4_RD_10_0.png","img2/200/Incongruent/L/I_Dist_200_LN_7_LD_10_RN_14_RD_28_0.png","img2/300/Incongruent/R/I_Dist_300_LN_13_LD_26_RN_12_RD_15_1.png","img2/100/Congruent/R/C_Dist_100_LN_3_LD_20_RN_4_RD_16_1.png","img2/200/Incongruent/L/I_Dist_200_LN_4_LD_6_RN_14_RD_30_0.png","img2/200/Congruent/R/C_Dist_200_LN_3_LD_6_RN_14_RD_20_1.png","img2/300/Incongruent/L/I_Dist_300_LN_1_LD_2_RN_3_RD_15_0.png"],"dist100_C":[["C_Dist_100_LN_10_LD_25_RN_3_RD_10_0.png","C_Dist_100_LN_11_LD_22_RN_4_RD_10_0.png","C_Dist_100_LN_11_LD_22_RN_6_RD_15_0.png","C_Dist_100_LN_15_LD_25_RN_13_RD_26_0.png","C_Dist_100_LN_3_LD_6_RN_2_RD_5_0.png","C_Dist_100_LN_6_LD_20_RN_5_RD_25_0.png","C_Dist_100_LN_8_LD_16_RN_2_RD_5_0.png","C_Dist_100_LN_9_LD_15_RN_8_RD_16_0.png"],["C_Dist_100_LN_1_LD_2_RN_18_RD_30_1.png","C_Dist_100_LN_1_LD_2_RN_3_RD_5_1.png","C_Dist_100_LN_12_LD_30_RN_13_RD_26_1.png","C_Dist_100_LN_2_LD_5_RN_11_RD_22_1.png","C_Dist_100_LN_2_LD_5_RN_6_RD_12_1.png","C_Dist_100_LN_3_LD_20_RN_4_RD_16_1.png","C_Dist_100_LN_4_LD_10_RN_15_RD_30_1.png","C_Dist_100_LN_4_LD_8_RN_6_RD_10_1.png","C_Dist_100_LN_6_LD_12_RN_15_RD_25_1.png","C_Dist_100_LN_7_LD_14_RN_15_RD_25_1.png","C_Dist_100_LN_7_LD_14_RN_9_RD_15_1.png"]],"dist100_I":[["I_Dist_100_LN_1_LD_2_RN_8_RD_20_0.png","I_Dist_100_LN_2_LD_4_RN_6_RD_15_0.png","I_Dist_100_LN_2_LD_4_RN_8_RD_20_0.png","I_Dist_100_LN_3_LD_5_RN_11_RD_22_0.png","I_Dist_100_LN_3_LD_5_RN_8_RD_16_0.png","I_Dist_100_LN_3_LD_6_RN_4_RD_10_0.png","I_Dist_100_LN_3_LD_9_RN_7_RD_30_0.png","I_Dist_100_LN_4_LD_8_RN_8_RD_20_0.png","I_Dist_100_LN_6_LD_10_RN_11_RD_22_0.png","I_Dist_100_LN_6_LD_10_RN_13_RD_26_0.png","I_Dist_100_LN_6_LD_10_RN_7_RD_14_0.png","I_Dist_100_LN_9_LD_10_RN_20_RD_25_0.png","I_Dist_100_LN_9_LD_15_RN_13_RD_26_0.png","I_Dist_100_LN_9_LD_15_RN_14_RD_28_0.png"],["I_Dist_100_LN_10_LD_25_RN_8_RD_16_1.png","I_Dist_100_LN_10_LD_25_RN_9_RD_18_1.png","I_Dist_100_LN_11_LD_22_RN_9_RD_15_1.png","I_Dist_100_LN_12_LD_24_RN_9_RD_15_1.png","I_Dist_100_LN_12_LD_30_RN_2_RD_4_1.png","I_Dist_100_LN_13_LD_26_RN_12_RD_20_1.png","I_Dist_100_LN_13_LD_26_RN_6_RD_10_1.png","I_Dist_100_LN_17_LD_30_RN_10_RD_15_1.png","I_Dist_100_LN_6_LD_12_RN_3_RD_5_1.png","I_Dist_100_LN_8_LD_16_RN_6_RD_10_1.png","I_Dist_100_LN_8_LD_20_RN_1_RD_2_1.png","I_Dist_100_LN_9_LD_18_RN_6_RD_10_1.png"]],"dist100_S":[["E_Dist_100_LN_2_LD_12_RN_2_RD_30_0.png","E_Dist_100_LN_6_LD_10_RN_6_RD_12_0.png"],["E_Dist_100_LN_6_LD_12_RN_6_RD_10_1.png"]],"dist200_C":[["C_Dist_200_LN_11_LD_22_RN_3_RD_10_0.png","C_Dist_200_LN_12_LD_15_RN_6_RD_10_0.png","C_Dist_200_LN_12_LD_20_RN_6_RD_15_0.png","C_Dist_200_LN_14_LD_28_RN_6_RD_20_0.png","C_Dist_200_LN_15_LD_25_RN_4_RD_10_0.png","C_Dist_200_LN_16_LD_20_RN_12_RD_20_0.png","C_Dist_200_LN_16_LD_30_RN_9_RD_27_0.png","C_Dist_200_LN_20_LD_25_RN_9_RD_15_0.png","C_Dist_200_LN_21_LD_30_RN_2_RD_4_0.png","C_Dist_200_LN_4_LD_10_RN_3_RD_15_0.png","C_Dist_200_LN_4_LD_8_RN_3_RD_10_0.png","C_Dist_200_LN_6_LD_15_RN_3_RD_15_0.png","C_Dist_200_LN_7_LD_21_RN_2_RD_15_0.png","C_Dist_200_LN_8_LD_15_RN_2_RD_6_0.png","C_Dist_200_LN_8_LD_15_RN_3_RD_9_0.png","C_Dist_200_LN_8_LD_15_RN_7_RD_21_0.png","C_Dist_200_LN_9_LD_20_RN_4_RD_16_0.png"],["C_Dist_200_LN_1_LD_2_RN_21_RD_30_1.png","C_Dist_200_LN_13_LD_26_RN_14_RD_20_1.png","C_Dist_200_LN_3_LD_10_RN_11_RD_22_1.png","C_Dist_200_LN_3_LD_10_RN_14_RD_28_1.png","C_Dist_200_LN_3_LD_10_RN_7_RD_14_1.png","C_Dist_200_LN_3_LD_12_RN_9_RD_20_1.png","C_Dist_200_LN_3_LD_6_RN_14_RD_20_1.png","C_Dist_200_LN_5_LD_10_RN_14_RD_20_1.png","C_Dist_200_LN_6_LD_12_RN_7_RD_10_1.png","C_Dist_200_LN_6_LD_20_RN_11_RD_22_1.png","C_Dist_200_LN_7_LD_15_RN_18_RD_27_1.png","C_Dist_200_LN_9_LD_30_RN_13_RD_26_1.png"]],"dist200_I":[["I_Dist_200_LN_1_LD_2_RN_3_RD_10_0.png","I_Dist_200_LN_1_LD_3_RN_2_RD_15_0.png","I_Dist_200_LN_3_LD_4_RN_11_RD_20_0.png","I_Dist_200_LN_4_LD_5_RN_6_RD_10_0.png","I_Dist_200_LN_4_LD_6_RN_14_RD_30_0.png","I_Dist_200_LN_7_LD_10_RN_12_RD_24_0.png","I_Dist_200_LN_7_LD_10_RN_14_RD_28_0.png","I_Dist_200_LN_7_LD_10_RN_8_RD_16_0.png"],["I_Dist_200_LN_11_LD_20_RN_3_RD_4_1.png","I_Dist_200_LN_14_LD_30_RN_12_RD_18_1.png","I_Dist_200_LN_14_LD_30_RN_6_RD_9_1.png","I_Dist_200_LN_3_LD_10_RN_1_RD_2_1.png","I_Dist_200_LN_4_LD_30_RN_1_RD_3_1.png","I_Dist_200_LN_6_LD_20_RN_3_RD_6_1.png","I_Dist_200_LN_7_LD_15_RN_4_RD_6_1.png","I_Dist_200_LN_7_LD_15_RN_6_RD_9_1.png","I_Dist_200_LN_9_LD_15_RN_8_RD_10_1.png"]],"dist200_S":[["E_Dist_200_LN_3_LD_6_RN_3_RD_10_0.png"],["E_Dist_200_LN_3_LD_10_RN_3_RD_6_1.png"]],"dist300_C":[["C_Dist_300_LN_11_LD_22_RN_1_RD_5_0.png","C_Dist_300_LN_11_LD_22_RN_2_RD_10_0.png","C_Dist_300_LN_11_LD_22_RN_4_RD_20_0.png","C_Dist_300_LN_12_LD_24_RN_2_RD_10_0.png","C_Dist_300_LN_18_LD_20_RN_9_RD_15_0.png","C_Dist_300_LN_20_LD_25_RN_13_RD_26_0.png","C_Dist_300_LN_20_LD_25_RN_14_RD_28_0.png","C_Dist_300_LN_20_LD_25_RN_5_RD_10_0.png","C_Dist_300_LN_20_LD_25_RN_8_RD_16_0.png","C_Dist_300_LN_20_LD_25_RN_9_RD_18_0.png","C_Dist_300_LN_24_LD_30_RN_2_RD_4_0.png","C_Dist_300_LN_24_LD_30_RN_8_RD_16_0.png","C_Dist_300_LN_3_LD_6_RN_2_RD_10_0.png","C_Dist_300_LN_4_LD_10_RN_1_RD_10_0.png","C_Dist_300_LN_4_LD_5_RN_2_RD_4_0.png","C_Dist_300_LN_8_LD_16_RN_1_RD_5_0.png","C_Dist_300_LN_9_LD_10_RN_3_RD_5_0.png"],["C_Dist_300_LN_1_LD_20_RN_7_RD_20_1.png","C_Dist_300_LN_1_LD_3_RN_19_RD_30_1.png","C_Dist_300_LN_1_LD_30_RN_8_RD_24_1.png","C_Dist_300_LN_1_LD_5_RN_11_RD_22_1.png","C_Dist_300_LN_1_LD_5_RN_3_RD_6_1.png","C_Dist_300_LN_1_LD_5_RN_6_RD_12_1.png","C_Dist_300_LN_2_LD_10_RN_12_RD_24_1.png","C_Dist_300_LN_2_LD_20_RN_10_RD_25_1.png","C_Dist_300_LN_3_LD_12_RN_11_RD_20_1.png","C_Dist_300_LN_3_LD_6_RN_4_RD_5_1.png","C_Dist_300_LN_4_LD_20_RN_13_RD_26_1.png","C_Dist_300_LN_5_LD_25_RN_6_RD_12_1.png","C_Dist_300_LN_5_LD_25_RN_7_RD_14_1.png","C_Dist_300_LN_7_LD_14_RN_20_RD_25_1.png","C_Dist_300_LN_8_LD_15_RN_10_RD_12_1.png"]],"dist300_I":[["I_Dist_300_LN_1_LD_2_RN_2_RD_10_0.png","I_Dist_300_LN_1_LD_2_RN_3_RD_15_0.png","I_Dist_300_LN_2_LD_4_RN_6_RD_30_0.png","I_Dist_300_LN_3_LD_6_RN_4_RD_20_0.png","I_Dist_300_LN_4_LD_5_RN_6_RD_12_0.png","I_Dist_300_LN_4_LD_5_RN_8_RD_16_0.png","I_Dist_300_LN_7_LD_10_RN_8_RD_20_0.png","I_Dist_300_LN_8_LD_10_RN_14_RD_28_0.png","I_Dist_300_LN_8_LD_10_RN_9_RD_18_0.png"],["I_Dist_300_LN_13_LD_26_RN_12_RD_15_1.png","I_Dist_300_LN_4_LD_20_RN_2_RD_4_1.png"]],"dist300_S":[["E_Dist_300_LN_9_LD_12_RN_9_RD_20_0.png"],["E_Dist_300_LN_18_LD_30_RN_18_RD_20_1.png","E_Dist_300_LN_3_LD_10_RN_3_RD_5_1.png","E_Dist_300_LN_9_LD_20_RN_9_RD_12_1.png"]],"dist500_C":[["C_Dist_500_LN_10_LD_13_RN_7_RD_26_0.png","C_Dist_500_LN_10_LD_15_RN_4_RD_24_0.png","C_Dist_500_LN_12_LD_16_RN_3_RD_12_0.png","C_Dist_500_LN_12_LD_18_RN_4_RD_24_0.png","C_Dist_500_LN_15_LD_18_RN_5_RD_15_0.png","C_Dist_500_LN_15_LD_20_RN_1_RD_4_0.png","C_Dist_500_LN_18_LD_27_RN_1_RD_6_0.png","C_Dist_500_LN_20_LD_24_RN_1_RD_3_0.png","C_Dist_500_LN_20_LD_24_RN_3_RD_9_0.png","C_Dist_500_LN_20_LD_24_RN_7_RD_21_0.png","C_Dist_500_LN_20_LD_28_RN_3_RD_14_0.png","C_Dist_500_LN_21_LD_28_RN_6_RD_24_0.png","C_Dist_500_LN_22_LD_28_RN_2_RD_7_0.png","C_Dist_500_LN_25_LD_30_RN_9_RD_27_0.png","C_Dist_500_LN_4_LD_6_RN_1_RD_6_0.png","C_Dist_500_LN_5_LD_6_RN_2_RD_6_0.png","C_Dist_500_LN_6_LD_9_RN_1_RD_6_0.png","C_Dist_500_LN_7_LD_10_RN_1_RD_5_0.png","C_Dist_500_LN_8_LD_12_RN_1_RD_6_0.png","C_Dist_500_LN_8_LD_12_RN_4_RD_24_0.png"],["C_Dist_500_LN_1_LD_4_RN_12_RD_16_1.png","C_Dist_500_LN_1_LD_4_RN_9_RD_12_1.png","C_Dist_500_LN_1_LD_9_RN_11_RD_18_1.png","C_Dist_500_LN_10_LD_24_RN_22_RD_24_1.png","C_Dist_500_LN_2_LD_12_RN_10_RD_15_1.png","C_Dist_500_LN_2_LD_12_RN_12_RD_18_1.png","C_Dist_500_LN_2_LD_12_RN_4_RD_6_1.png","C_Dist_500_LN_2_LD_24_RN_7_RD_12_1.png","C_Dist_500_LN_2_LD_5_RN_18_RD_20_1.png","C_Dist_500_LN_2_LD_5_RN_9_RD_10_1.png","C_Dist_500_LN_2_LD_8_RN_12_RD_16_1.png","C_Dist_500_LN_2_LD_8_RN_21_RD_28_1.png","C_Dist_500_LN_3_LD_10_RN_4_RD_5_1.png","C_Dist_500_LN_3_LD_12_RN_15_RD_20_1.png","C_Dist_500_LN_3_LD_30_RN_6_RD_10_1.png","C_Dist_500_LN_3_LD_8_RN_14_RD_16_1.png","C_Dist_500_LN_4_LD_16_RN_15_RD_20_1.png","C_Dist_500_LN_4_LD_24_RN_12_RD_18_1.png","C_Dist_500_LN_5_LD_14_RN_6_RD_7_1.png","C_Dist_500_LN_7_LD_21_RN_20_RD_24_1.png","C_Dist_500_LN_7_LD_28_RN_12_RD_16_1.png","C_Dist_500_LN_7_LD_28_RN_9_RD_12_1.png","C_Dist_500_LN_9_LD_27_RN_20_RD_24_1.png"]],"dist500_I":[["I_Dist_500_LN_2_LD_3_RN_4_RD_24_0.png","I_Dist_500_LN_5_LD_6_RN_6_RD_18_0.png","I_Dist_500_LN_7_LD_8_RN_9_RD_24_0.png"],["I_Dist_500_LN_7_LD_21_RN_5_RD_6_1.png"]],"dist500_S":[["E_Dist_500_LN_6_LD_8_RN_6_RD_24_0.png"],["E_Dist_500_LN_2_LD_12_RN_2_RD_3_1.png","E_Dist_500_LN_6_LD_24_RN_6_RD_8_1.png"]]}},{"start_time":1551899870709,"click_time":1551899873524,"finger_time":1551899872383,"fix_duration":362.74795232526094,"trial":1,"RT":1674,"MT":1141,"sideResp":1,"stimulus":[],"xmouse":[810,810,810,810,810,810,810,810,810,810,810,810,810,809,809,809,809,809,809,809,809,809,809,809,809,809,809,809,809,809,809,809,809,809,809,809,809,809,809,809,809,809,809,809,809,809,809,809,809,809,809,809,809,809,809,809,809,809,809,809,809,809,809,809,809,809,809,809,809,809,809,809,809,809,809,809,809,809,809,809,809,811,826,843,893,911,922,926,928,928,929,932,935,947,954,958,960,961,961,961,961,961,961,961,962,966,971,977,983,989,993,998,1003,1003,1003,1005,1007,1011,1015,1015,1016,1016,1015,993,967,914,845,761,627,591,568,553,551,545,538,532,526,524,521,517,512],"ymouse":[645,645,645,645,645,645,645,645,645,644,643,642,642,640,640,639,639,639,639,639,639,639,639,639,639,639,639,639,639,639,639,639,639,639,639,639,639,639,639,639,639,639,639,639,639,639,639,639,639,639,639,639,639,639,639,639,639,639,639,639,639,639,639,639,639,639,639,639,639,639,639,639,639,639,639,639,639,639,639,639,635,629,606,584,515,469,428,385,350,341,335,329,323,303,290,280,274,271,271,271,271,271,271,271,269,264,257,246,234,212,202,190,177,166,161,158,155,149,139,132,126,123,116,114,114,114,117,128,141,141,139,134,132,128,125,122,118,114,110,100,94],"timestamp_mouse":[15,36,55,74,96,114,135,154,174,195,215,234,256,275,294,315,335,356,374,395,416,435,455,476,494,515,536,555,574,596,615,635,656,674,696,714,735,755,776,795,816,836,856,876,895,916,934,954,976,994,1014,1035,1055,1076,1095,1116,1134,1155,1174,1195,1214,1234,1255,1275,1296,1316,1334,1354,1375,1394,1415,1434,1455,1475,1494,1515,1535,1556,1575,1595,1616,1636,1656,1674,1694,1714,1735,1755,1775,1794,1815,1836,1856,1875,1894,1915,1936,1955,1974,1994,2015,2035,2055,2074,2095,2115,2135,2155,2175,2194,2216,2235,2256,2275,2294,2314,2336,2356,2375,2394,2414,2436,2456,2475,2494,2515,2535,2555,2575,2594,2615,2635,2655,2675,2694,2715,2735,2755,2774,2794,2815],"xSR":741.5,"ySR":573.95,"xT1":424.9,"yT1":0,"xT2":1058.1,"yT2":0,"toosoon":0,"cond_shown":"Incongruent","ratio_trial":200,"L_num":7,"L_den":10,"R_num":8,"R_den":16,"correct_side":1,"subjID":"juanandressalazarsuarez37","gender":"0","school":"6","age":"12"},{"start_time":1551899877566,"click_time":1551899879603,"finger_time":1551899878984,"fix_duration":1220.5804498320406,"trial":2,"RT":1418,"MT":619,"sideResp":1,"stimulus":[],"xmouse":[795,795,795,795,795,795,795,795,795,795,795,795,795,795,795,795,795,795,795,795,795,795,795,795,795,795,795,795,795,795,795,795,795,795,795,795,795,795,795,795,795,795,795,795,795,795,795,795,795,795,795,795,795,795,795,795,795,795,795,795,795,795,795,795,795,795,795,795,795,788,721,666,602,544,495,400,370,354,349,349,349,349,349,348,348,349,358,370,382,399,409,411,411,411,411,411,413,413,414,416,423,431],"ymouse":[647,647,647,647,647,647,647,647,647,647,647,647,647,647,647,647,647,647,647,647,647,647,647,647,647,647,647,647,647,647,647,647,647,647,647,647,647,647,647,647,647,647,647,647,647,647,647,647,647,647,647,647,647,647,647,647,647,647,647,647,647,647,647,647,647,647,647,643,640,609,513,454,386,318,255,137,113,100,95,94,91,86,80,75,71,66,60,55,50,47,47,47,47,47,47,47,47,47,47,48,51,54],"timestamp_mouse":[17,38,57,78,97,117,137,157,179,198,217,237,259,277,297,318,337,359,377,397,417,438,457,477,498,519,538,558,578,599,618,638,658,678,697,717,739,757,778,798,818,837,859,877,897,917,937,959,977,997,1019,1038,1058,1077,1099,1118,1137,1159,1178,1198,1218,1239,1259,1277,1298,1319,1338,1358,1378,1398,1418,1439,1457,1478,1499,1518,1537,1557,1577,1597,1618,1637,1658,1679,1699,1717,1737,1758,1779,1798,1818,1837,1858,1878,1897,1918,1938,1958,1979,1999,2018,2037],"xSR":741.5,"ySR":573.95,"xT1":424.9,"yT1":0,"xT2":1058.1,"yT2":0,"toosoon":0,"cond_shown":"Incongruent","ratio_trial":200,"L_num":3,"L_den":4,"R_num":11,"R_den":20,"correct_side":1,"subjID":"juanandressalazarsuarez37","gender":"0","school":"6","age":"12"},{"start_time":1551899883677,"click_time":1551899886084,"finger_time":1551899885384,"fix_duration":771.0790772347174,"trial":3,"RT":1707,"MT":700,"sideResp":1,"stimulus":[],"xmouse":[798,798,798,798,798,798,798,798,798,798,798,798,798,798,798,798,798,798,798,798,798,798,798,798,798,798,798,798,798,798,798,798,798,798,798,798,798,798,798,798,798,798,798,798,798,798,798,798,798,798,798,798,798,798,798,798,798,798,798,798,798,798,798,798,798,798,798,794,792,790,787,787,786,786,786,786,786,786,786,786,786,786,786,786,784,770,761,757,753,750,749,744,739,732,710,680,671,660,652,647,643,635,634,634,631,614,596,580,567,559,553,550,550,550,548,545,539,537,534,530,512],"ymouse":[609,609,609,609,609,609,609,609,609,609,609,609,609,609,609,609,609,609,609,609,609,609,609,609,609,609,609,609,609,609,609,609,609,609,609,609,609,609,609,609,609,609,609,609,609,609,609,609,609,609,609,609,609,609,609,609,609,609,609,609,609,609,609,609,609,609,609,609,605,601,594,593,593,593,593,593,593,593,593,593,593,593,593,592,589,570,560,555,549,545,543,532,520,503,464,411,381,340,291,262,239,213,208,205,198,178,165,154,145,138,134,132,132,132,129,125,116,109,96,86,62],"timestamp_mouse":[9,36,47,68,88,107,127,148,166,187,207,226,247,267,288,307,326,346,368,386,408,427,446,468,487,506,526,548,568,588,607,626,647,667,688,707,726,747,766,787,807,828,847,866,887,907,928,948,966,988,1007,1027,1047,1066,1087,1106,1127,1148,1166,1187,1208,1226,1247,1267,1288,1306,1326,1347,1368,1387,1406,1427,1447,1467,1488,1508,1528,1548,1567,1587,1607,1628,1646,1666,1688,1707,1726,1746,1767,1788,1806,1827,1848,1868,1886,1907,1926,1947,1967,1987,2007,2028,2047,2067,2087,2107,2128,2147,2167,2187,2206,2226,2247,2267,2286,2306,2327,2346,2366,2388,2407],"xSR":741.5,"ySR":573.95,"xT1":424.9,"yT1":0,"xT2":1058.1,"yT2":0,"toosoon":0,"cond_shown":"Congruent","ratio_trial":200,"L_num":4,"L_den":10,"R_num":3,"R_den":15,"correct_side":1,"subjID":"juanandressalazarsuarez37","gender":"0","school":"6","age":"12"},{"start_time":1551899888294,"click_time":1551899890504,"finger_time":1551899889784,"fix_duration":1109.6874163732707,"trial":4,"RT":1490,"MT":720,"sideResp":2,"stimulus":[],"xmouse":[811,811,811,811,811,811,811,811,811,811,811,811,811,811,811,811,811,811,811,811,811,811,811,811,811,811,811,811,811,811,811,811,811,811,811,811,811,811,811,811,811,811,811,811,811,811,811,811,811,811,811,811,811,811,811,811,811,811,811,811,811,811,811,811,811,811,811,811,811,811,814,820,823,836,906,941,959,964,964,964,964,964,964,965,965,965,964,962,961,956,953,950,946,944,933,924,918,915,915,943,956,971,992,1001,1010,1014,1020,1030,1041,1054,1080],"ymouse":[615,615,615,615,615,615,615,615,615,615,615,615,615,615,615,615,615,615,615,615,615,615,615,615,615,615,615,615,615,615,615,615,615,615,615,615,615,615,615,615,615,615,615,615,615,615,615,615,615,615,615,615,615,615,615,615,615,615,615,615,615,615,615,615,615,615,615,615,615,615,612,604,600,584,502,463,442,432,426,423,422,421,417,407,398,395,391,388,386,381,378,374,369,364,336,315,291,264,221,137,111,91,76,73,70,69,67,61,56,51,43],"timestamp_mouse":[10,37,50,70,90,110,130,151,170,190,210,229,251,269,290,310,331,350,371,391,411,430,450,470,490,511,531,550,570,591,610,629,651,669,689,710,730,751,771,791,810,829,850,870,890,911,931,950,971,991,1012,1031,1050,1071,1091,1110,1130,1150,1171,1190,1211,1229,1251,1271,1291,1310,1329,1351,1371,1391,1409,1430,1450,1469,1490,1509,1530,1551,1571,1590,1609,1629,1651,1670,1690,1710,1730,1751,1770,1790,1809,1830,1850,1869,1889,1909,1930,1951,1970,1990,2009,2030,2050,2069,2089,2109,2129,2150,2170,2189,2210],"xSR":741.5,"ySR":573.95,"xT1":424.9,"yT1":0,"xT2":1058.1,"yT2":0,"toosoon":0,"cond_shown":"Congruent","ratio_trial":200,"L_num":6,"L_den":20,"R_num":11,"R_den":22,"correct_side":2,"subjID":"juanandressalazarsuarez37","gender":"0","school":"6","age":"12"},{"start_time":1551899894058,"click_time":1551899895624,"finger_time":1551899895104,"fix_duration":1131.0731532693685,"trial":5,"RT":1046,"MT":520,"sideResp":1,"stimulus":[],"xmouse":[796,796,796,796,796,796,796,796,796,796,796,796,796,796,796,796,796,796,796,796,796,796,796,796,796,796,796,796,796,796,796,796,796,796,796,796,796,796,796,796,796,796,796,796,796,796,796,796,796,796,791,770,753,733,702,678,618,569,521,507,506,519,526,526,525,518,511,511,511,511,511,511,511,512,517,523,526,526,523],"ymouse":[632,632,632,632,632,632,632,632,632,632,632,632,632,632,632,632,632,632,632,632,632,632,632,632,632,632,632,632,632,632,632,632,632,632,632,632,632,632,632,632,632,632,632,632,632,632,632,632,632,632,625,588,548,504,430,381,310,285,260,250,246,228,215,203,200,186,177,177,176,176,176,175,173,166,156,134,100,87,80],"timestamp_mouse":[9,37,45,65,87,107,125,145,166,187,206,227,247,265,286,306,326,345,366,387,406,426,447,465,486,505,526,547,565,586,606,625,647,666,687,706,725,745,767,786,807,826,847,866,886,906,926,946,966,986,1005,1026,1046,1066,1087,1106,1126,1147,1166,1186,1206,1226,1246,1265,1285,1305,1325,1346,1366,1386,1405,1426,1446,1465,1486,1506,1526,1547,1565],"xSR":741.5,"ySR":573.95,"xT1":424.9,"yT1":0,"xT2":1058.1,"yT2":0,"toosoon":0,"cond_shown":"Incongruent","ratio_trial":200,"L_num":4,"L_den":5,"R_num":6,"R_den":10,"correct_side":1,"subjID":"juanandressalazarsuarez37","gender":"0","school":"6","age":"12"},{"start_time":1551899899162,"click_time":1551899900584,"finger_time":1551899900164,"fix_duration":1076.2660893144125,"trial":6,"RT":1002,"MT":420,"sideResp":2,"stimulus":[],"xmouse":[807,807,807,807,807,807,807,807,807,807,807,807,807,807,807,807,807,807,807,807,807,807,807,807,807,807,807,807,807,807,807,807,807,807,807,807,807,807,807,807,807,807,807,807,807,807,806,798,783,762,723,680,662,644,627,615,604,603,603,606,616,687,733,779,827,875,956,982,1000,1017,1037,1075],"ymouse":[649,649,649,649,649,649,649,649,649,649,649,649,649,649,649,649,649,649,649,649,649,649,649,649,649,649,649,649,649,649,649,649,649,649,649,649,649,649,649,649,649,649,649,649,649,649,649,640,625,606,569,519,498,478,459,444,424,418,416,411,404,375,355,332,305,276,208,180,155,126,87,20],"timestamp_mouse":[8,35,41,63,83,103,121,141,163,183,201,222,243,263,281,302,322,342,363,382,402,422,441,462,481,501,523,542,561,582,601,622,641,661,681,703,722,741,762,783,801,821,842,863,883,901,922,941,963,981,1002,1022,1043,1062,1082,1103,1121,1141,1162,1182,1201,1221,1242,1262,1282,1301,1322,1342,1362,1381,1402,1422],"xSR":741.5,"ySR":573.95,"xT1":424.9,"yT1":0,"xT2":1058.1,"yT2":0,"toosoon":0,"cond_shown":"Incongruent","ratio_trial":100,"L_num":8,"L_den":16,"R_num":6,"R_den":10,"correct_side":2,"subjID":"juanandressalazarsuarez37","gender":"0","school":"6","age":"12"},{"start_time":1551899904114,"click_time":1551899905724,"finger_time":1551899904884,"fix_duration":869.7878203282366,"trial":7,"RT":770,"MT":840,"sideResp":2,"stimulus":[],"xmouse":[773,773,773,773,773,773,773,773,773,773,773,773,773,773,773,773,773,773,773,773,773,773,773,773,773,773,773,773,773,773,773,773,773,773,774,776,778,780,792,805,825,851,881,903,907,908,909,910,911,912,913,913,914,916,921,927,933,941,964,983,992,1000,1012,1018,1030,1036,1039,1041,1044,1045,1047,1047,1047,1049,1052,1052,1054,1056,1058,1058,1059],"ymouse":[646,646,646,646,646,646,646,646,646,646,646,646,646,646,646,646,646,646,646,646,646,646,646,646,646,646,646,646,646,646,642,641,637,633,616,608,600,591,570,552,528,498,464,434,427,425,424,421,419,415,414,412,411,408,398,387,373,356,308,277,257,240,210,188,143,122,106,92,75,69,64,61,59,56,52,51,51,50,49,49,49],"timestamp_mouse":[11,31,49,70,89,111,129,150,171,189,209,230,249,270,290,309,330,350,369,389,410,430,451,471,489,511,529,550,570,589,610,629,650,669,690,710,729,749,770,790,809,830,850,870,891,909,929,951,970,991,1010,1031,1050,1069,1089,1109,1131,1150,1170,1190,1210,1230,1249,1269,1290,1310,1330,1349,1370,1389,1410,1430,1449,1469,1491,1510,1530,1549,1569,1589,1610],"xSR":741.5,"ySR":573.95,"xT1":424.9,"yT1":0,"xT2":1058.1,"yT2":0,"toosoon":0,"cond_shown":"Incongruent","ratio_trial":300,"L_num":4,"L_den":20,"R_num":2,"R_den":4,"correct_side":2,"subjID":"juanandressalazarsuarez37","gender":"0","school":"6","age":"12"},{"start_time":1551899908796,"click_time":1551899910564,"finger_time":1551899909843,"fix_duration":1450.0966597796073,"trial":8,"RT":1047,"MT":721,"sideResp":2,"stimulus":[],"xmouse":[801,801,801,801,801,801,801,801,801,801,801,801,801,801,801,801,801,801,801,801,801,801,801,801,801,801,801,801,801,801,801,801,801,801,801,801,801,801,801,801,801,801,801,801,801,801,801,801,801,801,801,800,805,816,847,852,852,852,853,853,853,853,853,854,856,861,867,880,887,919,929,937,943,946,951,956,966,983,1007,1030,1034,1035,1035,1035,1035,1037,1047,1064,1070],"ymouse":[592,592,592,592,592,592,592,592,592,592,592,592,592,592,592,592,592,592,592,592,592,592,592,592,592,592,592,592,592,592,592,592,592,592,592,592,592,592,592,592,592,592,592,592,592,592,592,592,592,592,592,591,569,531,445,424,415,412,411,411,411,411,411,410,407,400,392,372,364,318,300,284,271,254,222,186,138,78,9,0,0,0,0,0,0,0,0,0,3],"timestamp_mouse":[10,36,47,67,88,109,129,148,168,188,209,227,248,269,288,309,328,348,367,388,407,429,448,467,488,509,527,548,569,587,607,629,649,667,688,709,728,749,769,788,807,829,848,869,889,907,929,949,967,987,1008,1028,1047,1068,1088,1109,1129,1147,1168,1189,1208,1227,1248,1268,1287,1307,1328,1348,1368,1387,1407,1428,1449,1467,1487,1507,1528,1548,1568,1588,1607,1627,1648,1668,1689,1709,1729,1748,1768],"xSR":741.5,"ySR":573.95,"xT1":424.9,"yT1":0,"xT2":1058.1,"yT2":0,"toosoon":0,"cond_shown":"Congruent","ratio_trial":200,"L_num":6,"L_den":20,"R_num":11,"R_den":22,"correct_side":2,"subjID":"juanandressalazarsuarez37","gender":"0","school":"6","age":"12"},{"start_time":1551899916971,"click_time":1551899918584,"finger_time":1551899918083,"fix_duration":1286.995018219953,"trial":9,"RT":1112,"MT":501,"sideResp":2,"stimulus":[],"xmouse":[814,814,814,814,814,813,813,813,812,812,812,812,812,812,812,812,812,812,811,811,810,810,810,810,809,809,808,808,808,808,807,807,807,807,807,806,805,805,804,803,803,803,802,802,802,802,802,802,802,802,802,802,802,807,817,830,852,886,898,938,1002,1048,1085,1121,1149,1175,1175,1168,1157,1140,1128,1127,1126,1126,1125,1124,1121,1119,1118,1116,1116],"ymouse":[611,611,613,614,615,617,618,619,620,620,620,620,620,620,620,620,620,620,621,621,622,622,623,623,624,625,626,626,626,627,628,628,628,628,628,628,629,630,631,632,632,632,633,634,634,634,634,634,634,634,634,634,631,616,593,567,531,502,491,449,368,310,255,189,124,15,0,0,0,0,0,0,0,0,0,0,0,0,0,0,2],"timestamp_mouse":[13,38,52,73,93,113,133,153,172,193,214,232,252,274,292,314,332,352,373,392,413,433,453,473,493,514,532,553,572,593,614,632,653,673,692,714,733,754,772,794,814,833,853,874,894,913,933,952,972,993,1013,1033,1053,1073,1093,1112,1132,1152,1173,1193,1213,1234,1252,1272,1293,1312,1333,1353,1373,1392,1413,1433,1452,1473,1493,1513,1533,1554,1573,1594,1613],"xSR":741.5,"ySR":573.95,"xT1":424.9,"yT1":0,"xT2":1058.1,"yT2":0,"toosoon":0,"cond_shown":"Congruent","ratio_trial":200,"L_num":13,"L_den":26,"R_num":14,"R_den":20,"correct_side":2,"subjID":"juanandressalazarsuarez37","gender":"0","school":"6","age":"12"},{"start_time":1551899921663,"click_time":1551899923284,"finger_time":1551899922743,"fix_duration":437.2891701635382,"trial":10,"RT":1080,"MT":541,"sideResp":1,"stimulus":[],"xmouse":[780,780,780,780,780,780,780,780,780,780,780,780,780,780,780,780,780,780,780,780,780,780,780,780,780,780,780,780,780,780,780,780,780,780,780,780,780,780,780,780,780,780,780,780,780,780,780,780,780,779,777,763,756,750,745,731,712,704,699,696,696,693,674,651,612,574,557,556,556,556,554,551,554,554,547,540,537,536,534,533,525,510],"ymouse":[638,638,638,638,638,638,638,638,638,638,638,638,638,638,638,638,638,638,638,638,638,638,638,638,638,638,638,638,638,638,638,638,638,638,638,638,638,638,638,638,638,638,638,638,638,638,638,638,638,638,638,613,595,574,544,504,467,454,445,434,416,396,357,338,316,296,285,283,280,276,270,254,236,210,162,136,110,99,88,76,60,26],"timestamp_mouse":[8,21,42,61,81,101,122,140,160,182,201,221,241,262,282,301,320,342,360,380,401,420,442,462,480,501,522,540,560,581,601,621,642,660,681,702,720,741,762,780,802,822,840,861,882,901,920,940,962,981,1000,1021,1041,1060,1080,1102,1121,1140,1161,1180,1201,1220,1242,1261,1282,1301,1321,1340,1361,1382,1401,1421,1440,1461,1480,1502,1521,1542,1560,1581,1601,1621],"xSR":741.5,"ySR":573.95,"xT1":424.9,"yT1":0,"xT2":1058.1,"yT2":0,"toosoon":0,"cond_shown":"Incongruent","ratio_trial":100,"L_num":6,"L_den":10,"R_num":11,"R_den":22,"correct_side":1,"subjID":"juanandressalazarsuarez37","gender":"0","school":"6","age":"12"},{"start_time":1551899924823,"click_time":1551899926563,"finger_time":1551899925684,"fix_duration":338.5497936747911,"trial":11,"RT":861,"MT":879,"sideResp":1,"stimulus":[],"xmouse":[796,796,794,792,791,790,789,789,788,788,788,788,788,788,788,788,788,788,786,786,785,785,785,785,785,785,785,785,785,785,785,785,785,785,785,785,785,785,785,785,785,785,785,788,792,794,795,797,797,796,793,787,778,759,751,743,731,711,697,669,661,659,658,658,659,661,663,663,663,655,639,604,555,503,410,385,368,365,365,366,371,376,382,395,401,409,416,425],"ymouse":[591,591,591,591,591,591,591,591,591,591,591,591,591,591,591,591,591,591,592,593,593,595,595,595,595,595,595,595,595,595,595,595,595,595,595,595,595,595,595,595,595,593,590,569,555,540,527,512,501,498,495,493,491,485,480,474,466,451,441,424,420,419,419,419,419,420,420,420,420,396,360,301,240,181,104,87,77,76,76,76,76,76,75,73,73,72,70,69],"timestamp_mouse":[1,20,40,60,80,100,120,141,159,181,201,221,240,259,279,300,319,340,360,381,401,420,440,460,481,501,521,541,560,580,600,620,640,661,680,701,720,741,760,780,800,820,841,861,879,901,920,940,960,979,999,1020,1040,1060,1079,1101,1120,1140,1160,1180,1201,1220,1240,1261,1279,1299,1320,1340,1360,1380,1400,1420,1441,1459,1479,1499,1520,1540,1561,1580,1600,1620,1641,1660,1680,1700,1719,1740],"xSR":741.5,"ySR":573.95,"xT1":424.9,"yT1":0,"xT2":1058.1,"yT2":0,"toosoon":0,"cond_shown":"Congruent","ratio_trial":100,"L_num":6,"L_den":20,"R_num":5,"R_den":25,"correct_side":1,"subjID":"juanandressalazarsuarez37","gender":"0","school":"6","age":"12"},{"start_time":1551899928227,"click_time":1551899929582,"finger_time":1551899929122,"fix_duration":343.76608519977026,"trial":12,"RT":895,"MT":460,"sideResp":1,"stimulus":[],"xmouse":[782,782,782,782,782,782,782,782,782,782,782,782,782,782,782,782,782,782,782,782,782,782,782,782,782,782,782,782,782,782,782,782,782,782,782,782,782,782,782,782,782,781,760,746,730,713,679,657,632,625,617,607,595,557,532,498,480,470,469,469,469,469,469,469,469,469,469,468],"ymouse":[628,628,628,628,628,628,628,628,628,628,628,628,628,628,628,628,628,628,628,628,628,628,628,628,628,628,628,628,628,628,628,628,628,628,628,628,628,628,628,628,627,623,593,574,555,533,494,461,381,327,267,204,130,10,0,0,0,0,0,0,0,0,0,0,0,0,0,5],"timestamp_mouse":[16,39,56,76,96,117,136,156,175,195,215,235,256,277,296,317,335,357,377,395,417,437,456,477,497,516,537,557,576,597,617,636,657,676,696,715,737,757,776,796,816,836,856,876,895,917,937,956,986,997,1016,1037,1056,1076,1095,1115,1137,1155,1176,1195,1217,1237,1255,1275,1296,1316,1336,1355],"xSR":741.5,"ySR":573.95,"xT1":424.9,"yT1":0,"xT2":1058.1,"yT2":0,"toosoon":0,"cond_shown":"Incongruent","ratio_trial":300,"L_num":8,"L_den":10,"R_num":9,"R_den":18,"correct_side":1,"subjID":"juanandressalazarsuarez37","gender":"0","school":"6","age":"12"},{"start_time":1551899932061,"click_time":1551899933743,"finger_time":1551899932524,"fix_duration":1277.4086300438335,"trial":13,"RT":463,"MT":1219,"sideResp":1,"stimulus":[],"xmouse":[757,757,757,757,757,757,757,757,757,757,757,757,757,757,757,757,759,759,760,761,761,764,764,764,764,764,764,764,764,764,764,764,763,762,758,756,755,755,755,755,755,755,755,755,754,752,752,752,752,752,752,752,752,752,752,752,744,730,700,654,594,464,410,379,352,345,344,346,349,355,357,360,365,368,373,380,389,402,402,403,403,407,413,420,427],"ymouse":[602,602,602,602,602,602,602,602,602,602,602,602,602,602,602,602,593,591,588,587,584,577,574,571,570,570,570,570,570,569,569,567,567,567,566,566,566,566,566,566,566,566,566,566,566,572,580,583,586,587,587,587,587,587,587,587,570,544,494,421,329,130,53,5,0,0,0,0,0,0,0,0,0,0,0,3,9,22,24,26,26,28,32,35,39],"timestamp_mouse":[9,34,42,62,82,101,122,142,162,182,201,222,242,262,282,301,322,342,362,382,401,422,442,463,483,502,521,542,563,582,602,622,641,662,681,702,721,741,762,782,803,822,842,863,883,903,922,942,963,983,1001,1021,1043,1061,1082,1101,1122,1141,1162,1182,1201,1222,1241,1263,1282,1301,1322,1343,1362,1382,1402,1422,1442,1462,1481,1501,1522,1541,1562,1582,1601,1621,1642,1662,1682],"xSR":741.5,"ySR":573.95,"xT1":424.9,"yT1":0,"xT2":1058.1,"yT2":0,"toosoon":0,"cond_shown":"Incongruent","ratio_trial":300,"L_num":2,"L_den":4,"R_num":6,"R_den":30,"correct_side":1,"subjID":"juanandressalazarsuarez37","gender":"0","school":"6","age":"12"},{"start_time":1551899936039,"click_time":1551899937383,"finger_time":1551899936862,"fix_duration":1435.8500565210586,"trial":14,"RT":823,"MT":521,"sideResp":2,"stimulus":[],"xmouse":[781,781,781,781,781,781,781,781,781,781,781,781,781,781,781,781,781,781,781,781,781,781,781,781,781,781,781,781,781,781,781,781,781,781,781,781,781,781,781,780,791,808,866,896,918,941,947,953,953,956,959,962,971,978,987,997,1006,1010,1010,1010,1010,1010,1013,1018,1023,1037,1045,1065],"ymouse":[611,611,611,611,611,611,611,611,611,611,611,611,611,611,611,611,611,611,611,611,611,611,611,611,611,611,611,611,611,611,611,611,611,611,611,611,611,611,611,604,585,561,485,441,399,342,317,269,251,237,228,220,200,187,173,156,137,126,126,126,126,126,124,121,117,104,98,83],"timestamp_mouse":[9,29,43,64,84,105,125,143,163,184,204,224,245,263,284,303,324,344,365,385,405,425,443,464,484,504,525,545,565,585,605,623,645,664,685,705,724,744,763,784,804,823,844,864,884,904,923,944,963,984,1003,1024,1043,1064,1084,1104,1125,1145,1164,1184,1205,1224,1243,1263,1284,1305,1325,1344],"xSR":741.5,"ySR":573.95,"xT1":424.9,"yT1":0,"xT2":1058.1,"yT2":0,"toosoon":0,"cond_shown":"Congruent","ratio_trial":200,"L_num":7,"L_den":15,"R_num":18,"R_den":27,"correct_side":2,"subjID":"juanandressalazarsuarez37","gender":"0","school":"6","age":"12"},{"start_time":1551899939371,"click_time":1551899941103,"finger_time":1551899940283,"fix_duration":1166.6512918278977,"trial":15,"RT":912,"MT":820,"sideResp":1,"stimulus":[],"xmouse":[785,785,785,785,785,785,785,785,785,785,785,785,785,785,785,785,785,785,785,785,785,785,785,785,785,785,785,785,785,785,785,783,778,776,774,772,772,772,772,771,769,768,766,764,761,759,759,759,759,759,759,759,759,759,759,759,759,759,759,759,759,759,759,759,759,759,760,760,760,752,714,683,648,617,591,569,567,566,566,566,564,560,555,548,540,527,473],"ymouse":[623,623,623,623,623,623,623,623,623,623,623,623,623,623,623,623,623,623,623,623,623,623,623,623,623,623,623,623,623,623,623,622,617,614,613,611,611,611,610,608,601,598,592,585,579,572,570,570,570,570,570,570,570,570,570,570,570,570,570,570,570,570,570,569,566,549,534,517,502,473,407,359,307,256,216,167,153,140,137,130,126,111,100,89,80,70,49],"timestamp_mouse":[12,32,53,72,93,112,133,153,172,191,212,233,251,272,293,311,332,353,372,392,413,431,452,471,491,513,533,552,572,592,611,631,652,673,692,712,731,753,772,792,811,832,853,872,893,912,932,951,972,992,1012,1033,1052,1072,1092,1113,1133,1151,1172,1193,1213,1231,1251,1272,1291,1312,1332,1352,1371,1393,1412,1431,1451,1473,1491,1512,1531,1553,1573,1592,1611,1632,1652,1673,1692,1712,1732],"xSR":741.5,"ySR":573.95,"xT1":424.9,"yT1":0,"xT2":1058.1,"yT2":0,"toosoon":0,"cond_shown":"Congruent","ratio_trial":100,"L_num":1,"L_den":2,"R_num":3,"R_den":5,"correct_side":2,"subjID":"juanandressalazarsuarez37","gender":"0","school":"6","age":"12"},{"start_time":1551899943384,"click_time":1551899944623,"finger_time":1551899944163,"fix_duration":879.1819168988933,"trial":16,"RT":779,"MT":460,"sideResp":2,"stimulus":[],"xmouse":[805,805,805,805,805,804,803,803,803,803,803,803,803,802,801,799,794,786,779,773,772,771,769,765,764,762,762,762,762,762,762,762,762,762,762,762,762,765,771,795,807,825,844,864,895,909,921,934,950,966,972,977,980,982,984,986,989,997,1011,1035,1050,1065],"ymouse":[602,602,602,602,602,602,602,602,602,602,602,602,602,602,602,602,602,600,599,599,599,599,599,599,599,598,598,598,598,598,598,598,598,598,598,598,595,582,566,519,498,479,459,437,398,370,343,307,257,202,183,169,161,155,151,146,144,138,128,111,100,90],"timestamp_mouse":[20,41,60,79,100,118,140,160,178,199,220,239,259,278,300,320,339,358,379,399,419,438,459,479,500,519,539,559,578,599,618,640,658,680,699,718,739,758,779,798,818,839,859,880,899,919,938,960,980,999,1018,1038,1058,1079,1099,1119,1139,1159,1179,1199,1219,1239],"xSR":741.5,"ySR":573.95,"xT1":424.9,"yT1":0,"xT2":1058.1,"yT2":0,"toosoon":0,"cond_shown":"Congruent","ratio_trial":300,"L_num":1,"L_den":30,"R_num":8,"R_den":24,"correct_side":2,"subjID":"juanandressalazarsuarez37","gender":"0","school":"6","age":"12"},{"start_time":1551899945735,"click_time":1551899947243,"finger_time":1551899946723,"fix_duration":250,"trial":17,"RT":988,"MT":520,"sideResp":1,"stimulus":[],"xmouse":[787,787,787,787,787,787,787,787,787,787,787,787,787,787,787,787,787,787,787,787,787,787,787,787,788,788,788,788,788,788,788,788,788,788,788,788,788,788,788,788,788,788,788,788,788,788,789,789,786,778,769,751,722,708,696,691,685,675,663,646,642,634,625,618,609,599,589,574,568,563,560,555,545,539,531,520],"ymouse":[615,615,615,615,615,615,615,615,615,615,615,615,615,615,615,615,615,615,615,615,615,615,615,615,615,615,615,615,615,615,615,615,615,615,615,615,615,615,615,615,615,615,615,615,615,615,613,597,579,557,535,504,454,430,404,380,358,311,285,257,249,235,221,210,199,189,179,165,161,156,151,143,128,117,103,84],"timestamp_mouse":[8,28,48,69,89,108,129,148,167,189,208,229,249,269,288,309,328,349,369,388,408,429,449,468,488,508,528,548,567,589,608,628,649,669,689,707,729,748,769,789,808,829,848,867,888,909,927,947,968,988,1009,1029,1048,1068,1088,1109,1129,1148,1169,1189,1207,1228,1248,1267,1289,1309,1328,1347,1368,1388,1407,1427,1447,1467,1488,1508],"xSR":741.5,"ySR":573.95,"xT1":424.9,"yT1":0,"xT2":1058.1,"yT2":0,"toosoon":0,"cond_shown":"Incongruent","ratio_trial":100,"L_num":3,"L_den":9,"R_num":7,"R_den":30,"correct_side":1,"subjID":"juanandressalazarsuarez37","gender":"0","school":"6","age":"12"},{"start_time":1551899950669,"click_time":1551899951962,"finger_time":1551899951483,"fix_duration":724.0661114660069,"trial":18,"RT":814,"MT":479,"sideResp":1,"stimulus":[],"xmouse":[795,795,795,795,795,795,795,795,795,795,795,795,795,795,795,795,795,795,795,795,795,794,793,792,791,790,790,788,785,782,779,779,779,779,777,775,771,765,760,756,742,731,717,703,685,664,651,631,604,577,549,544,539,533,532,530,529,529,529,528,525,524,519,515,496],"ymouse":[649,649,649,649,649,649,649,649,649,649,649,649,649,649,649,649,649,649,649,649,649,649,649,649,649,649,649,648,648,648,647,647,647,647,646,638,626,612,595,578,538,516,494,475,449,414,393,369,341,316,291,279,263,243,238,224,222,219,217,212,200,190,174,145,77],"timestamp_mouse":[32,34,55,74,94,114,134,153,175,195,214,233,255,275,295,314,333,355,375,394,414,434,454,474,494,513,535,554,573,595,613,634,654,674,694,714,734,755,774,795,814,835,854,875,895,913,934,954,974,993,1015,1034,1054,1073,1094,1114,1134,1154,1174,1194,1214,1233,1254,1273,1293],"xSR":741.5,"ySR":573.95,"xT1":424.9,"yT1":0,"xT2":1058.1,"yT2":0,"toosoon":0,"cond_shown":"Congruent","ratio_trial":100,"L_num":11,"L_den":22,"R_num":4,"R_den":10,"correct_side":1,"subjID":"juanandressalazarsuarez37","gender":"0","school":"6","age":"12"},{"start_time":1551899953840,"click_time":1551899955224,"finger_time":1551899954783,"fix_duration":773.513792160201,"trial":19,"RT":943,"MT":441,"sideResp":1,"stimulus":[],"xmouse":[783,783,783,783,783,783,783,783,783,783,783,783,783,783,783,783,783,783,783,783,783,783,783,783,783,783,783,783,783,783,783,783,783,783,783,783,783,783,783,783,783,783,783,784,784,778,774,765,753,723,673,637,607,600,590,573,563,556,544,541,539,539,539,539,539,539,539,538,529,521],"ymouse":[640,640,640,640,640,640,640,640,640,640,640,640,640,640,640,640,640,640,640,640,640,640,640,640,640,640,640,640,640,640,640,640,640,640,640,640,640,640,640,640,640,640,640,638,621,600,585,556,537,507,472,438,354,304,239,97,31,5,0,0,0,0,0,0,0,0,0,0,3,13],"timestamp_mouse":[9,22,44,64,82,103,123,143,164,182,203,223,244,262,283,302,324,344,364,383,403,423,443,464,484,504,523,544,564,584,604,623,644,664,684,703,724,744,762,783,804,824,844,863,882,902,924,943,962,983,1004,1023,1043,1063,1083,1103,1122,1143,1163,1184,1203,1222,1244,1263,1284,1304,1323,1343,1363,1384],"xSR":741.5,"ySR":573.95,"xT1":424.9,"yT1":0,"xT2":1058.1,"yT2":0,"toosoon":0,"cond_shown":"Congruent","ratio_trial":100,"L_num":9,"L_den":15,"R_num":8,"R_den":16,"correct_side":1,"subjID":"juanandressalazarsuarez37","gender":"0","school":"6","age":"12"},{"start_time":1551899958097,"click_time":1551899959843,"finger_time":1551899958844,"fix_duration":1493.0881270659122,"trial":20,"RT":747,"MT":999,"sideResp":2,"stimulus":[],"xmouse":[786,787,787,787,787,787,787,787,787,787,787,787,787,787,787,787,787,787,787,787,787,787,787,787,787,787,787,787,787,787,787,785,783,777,768,763,757,753,749,741,739,739,738,738,738,738,738,738,738,738,738,738,738,738,737,743,752,764,781,804,806,806,806,806,806,806,806,807,807,807,807,813,833,877,967,1015,1055,1089,1115,1127,1136,1136,1136,1136,1136,1136,1135,1131],"ymouse":[612,613,614,614,614,614,614,614,614,614,614,614,614,614,614,614,614,614,614,614,614,614,614,614,614,614,614,614,614,614,614,614,612,606,596,589,581,573,565,542,534,530,527,526,526,526,526,526,526,526,526,526,526,526,535,571,591,615,639,667,669,669,669,669,669,669,669,669,664,625,596,543,473,342,134,34,0,0,0,0,0,0,0,0,0,0,0,4],"timestamp_mouse":[13,30,45,66,86,106,126,145,166,186,206,226,246,267,287,305,327,346,366,385,406,426,446,467,486,506,526,546,566,587,607,626,645,667,686,707,725,747,767,786,806,825,846,866,886,906,926,947,965,985,1005,1026,1047,1067,1085,1106,1127,1146,1167,1186,1206,1225,1246,1266,1286,1307,1325,1347,1366,1385,1406,1427,1446,1465,1486,1505,1527,1546,1566,1585,1605,1625,1646,1667,1686,1707,1726,1746],"xSR":741.5,"ySR":573.95,"xT1":424.9,"yT1":0,"xT2":1058.1,"yT2":0,"toosoon":0,"cond_shown":"Incongruent","ratio_trial":200,"L_num":14,"L_den":30,"R_num":6,"R_den":9,"correct_side":2,"subjID":"juanandressalazarsuarez37","gender":"0","school":"6","age":"12"},{"start_time":1551899961947,"click_time":1551899963324,"finger_time":1551899962783,"fix_duration":1042.8492653909511,"trial":21,"RT":836,"MT":541,"sideResp":1,"stimulus":[],"xmouse":[780,780,780,780,780,780,780,780,780,779,779,779,778,778,778,777,777,777,777,775,774,774,774,774,774,774,774,774,774,774,774,774,774,774,774,774,770,767,763,759,752,741,736,734,730,725,717,713,709,705,699,693,688,688,688,688,688,688,688,688,688,683,666,634,589,542,482,472,469],"ymouse":[637,637,637,637,637,637,637,637,637,636,636,636,635,635,635,634,634,630,627,620,606,590,585,581,581,581,581,581,581,581,581,581,581,581,581,580,580,580,580,580,580,572,566,559,546,527,479,456,437,424,408,398,390,390,390,390,390,390,390,390,389,365,334,287,234,187,128,110,97],"timestamp_mouse":[16,36,57,75,97,116,135,156,176,196,217,236,257,276,296,316,335,356,376,395,415,436,457,477,497,515,536,556,577,596,617,636,655,676,697,715,736,756,776,795,816,836,856,876,897,917,936,956,975,995,1016,1036,1055,1076,1097,1115,1136,1156,1176,1197,1216,1236,1255,1276,1297,1316,1336,1356,1376],"xSR":741.5,"ySR":573.95,"xT1":424.9,"yT1":0,"xT2":1058.1,"yT2":0,"toosoon":0,"cond_shown":"Congruent","ratio_trial":100,"L_num":7,"L_den":14,"R_num":9,"R_den":15,"correct_side":2,"subjID":"juanandressalazarsuarez37","gender":"0","school":"6","age":"12"},{"start_time":1551899964434,"click_time":1551899965763,"finger_time":1551899965323,"fix_duration":250,"trial":22,"RT":889,"MT":440,"sideResp":2,"stimulus":[],"xmouse":[770,770,770,770,770,770,770,770,770,770,770,770,770,770,770,770,770,770,770,770,770,770,770,770,770,770,770,770,770,770,770,770,770,770,770,770,770,770,770,770,770,771,771,775,779,781,781,781,781,781,781,781,788,805,831,874,928,1023,1037,1045,1049,1049,1049,1049,1050,1053,1059],"ymouse":[610,610,610,610,610,610,610,610,610,610,610,610,610,610,610,610,610,610,610,610,610,610,610,610,610,610,610,610,610,610,610,610,610,610,610,610,610,610,610,610,610,609,605,585,560,518,498,482,482,481,481,481,474,460,424,357,281,118,92,77,70,66,57,51,44,33,16],"timestamp_mouse":[14,34,48,68,89,109,129,150,169,189,209,229,248,270,289,309,329,349,370,389,408,428,449,468,490,509,529,550,569,589,608,629,650,668,689,708,729,749,769,788,810,829,849,870,889,908,930,948,969,989,1009,1029,1049,1068,1090,1109,1130,1148,1169,1188,1209,1230,1249,1269,1289,1308,1329],"xSR":741.5,"ySR":573.95,"xT1":424.9,"yT1":0,"xT2":1058.1,"yT2":0,"toosoon":0,"cond_shown":"Incongruent","ratio_trial":300,"L_num":13,"L_den":26,"R_num":12,"R_den":15,"correct_side":2,"subjID":"juanandressalazarsuarez37","gender":"0","school":"6","age":"12"},{"start_time":1551899967861,"click_time":1551899968903,"finger_time":1551899968464,"fix_duration":1077.7249981736659,"trial":23,"RT":603,"MT":439,"sideResp":1,"stimulus":[],"xmouse":[760,760,760,760,760,760,760,760,760,760,760,760,760,760,760,760,760,760,760,760,760,760,760,760,760,760,760,762,763,765,765,759,752,745,740,733,721,715,706,695,676,643,635,631,627,614,580,560,547,536,531,526,524],"ymouse":[600,600,600,600,600,600,600,600,600,600,600,600,600,600,600,600,600,600,600,600,600,600,600,600,600,600,600,598,591,578,563,534,520,510,505,496,477,466,448,419,366,264,239,226,212,185,145,126,113,102,96,86,83],"timestamp_mouse":[8,27,43,63,82,102,122,143,163,182,201,223,242,261,283,302,322,341,362,382,402,423,443,463,481,502,522,543,562,582,602,622,641,663,682,702,721,743,762,782,802,822,841,862,883,902,922,943,962,982,1002,1021,1042],"xSR":741.5,"ySR":573.95,"xT1":424.9,"yT1":0,"xT2":1058.1,"yT2":0,"toosoon":0,"cond_shown":"Incongruent","ratio_trial":200,"L_num":3,"L_den":4,"R_num":11,"R_den":20,"correct_side":1,"subjID":"juanandressalazarsuarez37","gender":"0","school":"6","age":"12"},{"start_time":1551899971156,"click_time":1551899972442,"finger_time":1551899971643,"fix_duration":1212.7903942595055,"trial":24,"RT":487,"MT":799,"sideResp":2,"stimulus":[],"xmouse":[777,777,777,777,777,777,777,777,777,777,777,777,777,777,777,777,777,777,777,777,777,775,772,770,770,769,769,769,769,771,775,781,781,781,781,781,781,781,781,781,781,781,781,781,781,781,781,781,781,779,777,776,776,776,776,778,870,935,966,994,1013,1040,1054,1066,1076],"ymouse":[594,594,594,594,594,594,594,594,594,594,594,594,594,594,594,594,594,594,594,594,594,593,585,577,571,567,561,558,557,552,549,547,547,547,547,547,547,547,547,547,547,547,547,547,547,547,547,547,548,549,551,555,555,555,555,555,500,413,325,256,224,177,143,109,80],"timestamp_mouse":[10,41,47,67,87,108,127,148,166,188,208,228,247,267,288,308,328,347,367,386,408,427,447,466,487,506,527,546,567,587,607,626,647,667,687,706,727,746,766,787,807,826,847,868,886,906,927,948,967,987,1008,1027,1047,1067,1087,1107,1126,1148,1167,1187,1206,1226,1246,1267,1286],"xSR":741.5,"ySR":573.95,"xT1":424.9,"yT1":0,"xT2":1058.1,"yT2":0,"toosoon":0,"cond_shown":"Congruent","ratio_trial":300,"L_num":1,"L_den":3,"R_num":19,"R_den":30,"correct_side":2,"subjID":"juanandressalazarsuarez37","gender":"0","school":"6","age":"12"},{"start_time":1551899974024,"click_time":1551899975703,"finger_time":1551899974744,"fix_duration":660.5840988862927,"trial":25,"RT":720,"MT":959,"sideResp":2,"stimulus":[],"xmouse":[806,806,806,806,806,806,806,806,806,806,806,806,805,804,804,804,804,804,804,804,804,804,805,807,808,809,809,809,809,805,804,801,796,794,793,791,784,769,762,756,753,749,742,739,736,733,732,731,731,731,737,747,765,772,779,785,791,802,813,829,845,858,877,881,884,887,895,918,931,946,961,978,1002,1011,1014,1015,1016,1023,1025,1027,1031,1037,1048,1068],"ymouse":[601,601,601,601,601,601,601,601,604,608,613,617,620,621,621,621,621,621,621,621,621,621,621,621,621,621,621,621,621,620,619,618,614,608,595,572,524,476,462,452,448,442,429,423,420,415,414,413,412,412,411,410,402,395,388,380,369,344,321,293,264,238,206,199,193,190,184,169,160,149,139,127,114,110,107,106,105,99,97,95,93,90,86,77],"timestamp_mouse":[20,38,59,78,100,119,140,159,180,199,218,240,259,280,298,318,339,360,379,399,419,439,459,478,499,520,540,559,580,599,620,640,659,680,700,720,740,759,779,799,818,838,858,878,899,919,939,959,980,999,1019,1039,1059,1080,1098,1120,1139,1159,1178,1199,1219,1240,1259,1278,1299,1319,1338,1358,1380,1399,1420,1439,1459,1479,1498,1518,1540,1559,1580,1599,1619,1640,1659,1679],"xSR":741.5,"ySR":573.95,"xT1":424.9,"yT1":0,"xT2":1058.1,"yT2":0,"toosoon":0,"cond_shown":"Incongruent","ratio_trial":300,"L_num":13,"L_den":26,"R_num":12,"R_den":15,"correct_side":2,"subjID":"juanandressalazarsuarez37","gender":"0","school":"6","age":"12"},{"start_time":1551899978710,"click_time":1551899980284,"finger_time":1551899979783,"fix_duration":963.0409065507156,"trial":26,"RT":1073,"MT":501,"sideResp":1,"stimulus":[],"xmouse":[787,787,787,787,787,787,787,787,787,787,787,787,787,787,787,787,787,787,787,787,787,787,787,787,787,787,787,787,787,787,787,787,787,787,787,787,787,787,787,787,787,787,787,787,787,787,787,787,787,787,787,787,776,735,705,669,638,602,523,480,441,420,413,412,412,416,419,422,434,442,449,455,462,465,465,465,465,466,467],"ymouse":[629,629,626,625,625,625,625,625,625,625,625,625,625,625,625,625,625,625,625,625,625,625,625,625,625,625,625,625,625,625,625,625,625,625,625,625,625,625,625,625,625,625,625,625,625,625,625,625,625,625,625,620,602,553,524,490,445,398,257,180,116,77,48,20,5,0,0,0,0,0,0,0,0,0,0,0,0,0,4],"timestamp_mouse":[29,34,53,74,94,112,132,153,173,193,214,234,253,273,292,314,332,352,373,392,414,434,453,473,493,513,532,553,572,592,613,633,654,673,693,713,733,754,774,793,813,834,852,872,894,912,934,954,973,993,1013,1033,1053,1073,1093,1112,1133,1153,1172,1193,1213,1234,1254,1273,1293,1314,1333,1353,1373,1394,1414,1432,1453,1473,1492,1513,1533,1554,1574],"xSR":741.5,"ySR":573.95,"xT1":424.9,"yT1":0,"xT2":1058.1,"yT2":0,"toosoon":0,"cond_shown":"Congruent","ratio_trial":200,"L_num":6,"L_den":12,"R_num":7,"R_den":10,"correct_side":2,"subjID":"juanandressalazarsuarez37","gender":"0","school":"6","age":"12"},{"start_time":1551899982583,"click_time":1551899983544,"finger_time":1551899983183,"fix_duration":1439.0416379275189,"trial":27,"RT":600,"MT":361,"sideResp":1,"stimulus":[],"xmouse":[776,776,776,776,776,776,776,776,777,778,778,779,779,779,780,780,780,781,782,782,784,785,785,785,785,785,785,785,785,785,754,717,668,622,583,555,517,502,488,464,446,445,445,445,445,445,445,444,443],"ymouse":[612,612,612,612,612,612,612,612,613,613,613,612,612,612,612,612,611,611,610,609,605,603,601,600,600,600,600,600,599,585,485,407,316,221,127,51,0,0,0,0,0,0,0,0,0,0,0,0,7],"timestamp_mouse":[1,20,39,60,80,100,119,141,160,180,200,220,240,261,280,301,320,340,361,380,399,420,441,460,479,499,521,541,559,581,600,619,640,659,679,699,720,740,760,781,800,820,841,861,881,900,921,940,961],"xSR":741.5,"ySR":573.95,"xT1":424.9,"yT1":0,"xT2":1058.1,"yT2":0,"toosoon":0,"cond_shown":"Congruent","ratio_trial":200,"L_num":20,"L_den":25,"R_num":9,"R_den":15,"correct_side":1,"subjID":"juanandressalazarsuarez37","gender":"0","school":"6","age":"12"},{"start_time":1551899985592,"click_time":1551899988043,"finger_time":1551899986984,"fix_duration":989.8247075108984,"trial":28,"RT":1392,"MT":1059,"sideResp":2,"stimulus":[],"xmouse":[776,776,776,776,776,776,776,776,776,776,776,776,776,776,776,776,776,776,776,776,776,776,776,776,776,776,776,776,776,776,776,776,777,778,779,780,780,782,783,784,785,785,785,785,785,785,785,785,785,785,785,785,785,785,785,785,785,785,785,785,785,785,785,785,785,785,785,786,788,791,791,793,796,800,807,812,815,819,821,821,821,821,821,821,821,821,821,821,821,828,831,831,831,829,811,798,784,770,767,767,767,767,767,767,767,767,777,795,852,971,1008,1022,1052,1072,1087,1100,1103,1103,1104,1104,1104,1103,1103],"ymouse":[616,616,616,616,616,616,616,616,616,616,616,616,616,616,616,616,616,616,616,616,616,616,616,616,616,616,616,616,616,616,616,616,616,614,605,603,601,600,596,595,593,593,593,593,593,593,593,593,593,593,593,593,593,593,593,593,593,593,593,593,593,593,593,593,593,593,593,591,588,558,544,538,529,521,503,494,485,476,465,459,459,459,459,459,459,459,459,457,448,425,407,388,371,353,332,326,320,313,311,311,311,311,311,311,311,310,304,289,223,71,26,8,0,0,0,0,0,0,0,0,0,0,1],"timestamp_mouse":[11,31,53,72,92,111,131,151,171,191,211,231,251,271,292,311,331,352,371,392,411,431,452,473,492,512,531,552,571,591,613,633,652,671,691,712,731,751,773,791,811,832,852,872,892,911,932,953,972,991,1011,1031,1051,1073,1091,1111,1132,1151,1172,1192,1213,1231,1252,1272,1291,1312,1331,1352,1371,1392,1413,1432,1451,1471,1491,1512,1531,1551,1572,1591,1611,1632,1651,1671,1692,1712,1731,1752,1772,1791,1811,1832,1851,1871,1891,1911,1932,1952,1972,1991,2012,2033,2051,2072,2091,2111,2132,2153,2173,2191,2211,2231,2252,2272,2292,2311,2331,2351,2371,2392,2411,2431,2451],"xSR":741.5,"ySR":573.95,"xT1":424.9,"yT1":0,"xT2":1058.1,"yT2":0,"toosoon":0,"cond_shown":"Congruent","ratio_trial":100,"L_num":3,"L_den":20,"R_num":4,"R_den":16,"correct_side":2,"subjID":"juanandressalazarsuarez37","gender":"0","school":"6","age":"12"},{"start_time":1551899990086,"click_time":1551899991943,"finger_time":1551899991524,"fix_duration":1281.230008140385,"trial":29,"RT":1438,"MT":419,"sideResp":2,"stimulus":[],"xmouse":[774,774,774,774,774,774,774,774,774,774,774,774,774,774,774,774,774,774,774,774,774,774,774,774,774,774,774,774,774,774,774,774,774,774,774,774,774,774,774,774,774,774,774,772,768,767,766,766,766,766,766,766,766,766,766,766,766,766,766,766,765,765,765,765,765,765,765,765,765,767,783,809,881,953,1109,1173,1225,1251,1262,1264,1264,1264,1264,1264,1262,1255,1244,1231,1213,1181,1171,1164,1152],"ymouse":[645,645,645,645,645,645,645,645,645,645,645,645,645,645,645,645,645,645,645,645,645,645,645,645,645,645,645,645,645,645,645,645,645,645,645,645,645,645,645,645,645,645,644,633,619,616,615,614,614,614,614,614,614,614,614,614,614,614,614,614,614,614,614,614,614,614,614,614,614,611,592,565,502,430,218,105,12,0,0,0,0,0,0,0,0,0,1,7,14,30,35,37,41],"timestamp_mouse":[26,37,58,79,97,117,137,157,178,197,218,239,257,277,297,317,337,357,377,398,417,438,459,477,498,519,537,557,577,597,619,638,658,678,699,717,738,759,777,798,818,837,858,877,898,917,938,958,979,997,1017,1037,1057,1077,1097,1118,1137,1157,1178,1198,1217,1238,1257,1277,1297,1319,1337,1357,1377,1397,1418,1438,1459,1477,1497,1517,1539,1558,1577,1598,1618,1638,1658,1678,1697,1717,1737,1758,1778,1797,1817,1837,1857],"xSR":741.5,"ySR":573.95,"xT1":424.9,"yT1":0,"xT2":1058.1,"yT2":0,"toosoon":0,"cond_shown":"Incongruent","ratio_trial":200,"L_num":1,"L_den":2,"R_num":3,"R_den":10,"correct_side":1,"subjID":"juanandressalazarsuarez37","gender":"0","school":"6","age":"12"},{"start_time":1551899993989,"click_time":1551899995203,"finger_time":1551899994643,"fix_duration":905.4854946261652,"trial":30,"RT":654,"MT":560,"sideResp":2,"stimulus":[],"xmouse":[789,789,789,788,786,785,783,782,781,780,778,777,777,777,776,775,774,773,772,772,771,771,771,771,771,772,775,777,783,791,797,802,806,808,812,813,813,813,814,816,823,837,864,896,926,959,964,964,964,964,964,965,967,970,981,987,999,1012,1024,1058,1072],"ymouse":[637,637,637,637,637,637,636,636,636,636,634,633,633,633,632,632,631,630,629,629,629,628,628,626,625,622,618,615,608,598,588,577,568,564,558,557,556,555,554,548,537,516,483,436,390,313,282,254,225,193,180,166,152,140,117,111,104,98,93,88,87],"timestamp_mouse":[25,34,54,74,94,116,135,154,175,194,215,236,255,274,294,314,335,354,374,395,415,434,455,475,495,515,536,554,575,595,614,635,654,676,695,714,734,755,774,794,814,834,855,874,894,916,935,954,974,994,1016,1035,1054,1076,1094,1114,1135,1155,1176,1194,1214],"xSR":741.5,"ySR":573.95,"xT1":424.9,"yT1":0,"xT2":1058.1,"yT2":0,"toosoon":0,"cond_shown":"Incongruent","ratio_trial":100,"L_num":6,"L_den":10,"R_num":13,"R_den":26,"correct_side":1,"subjID":"juanandressalazarsuarez37","gender":"0","school":"6","age":"12"},{"start_time":1551899996677,"click_time":1551899998224,"finger_time":1551899997483,"fix_duration":250,"trial":31,"RT":806,"MT":741,"sideResp":1,"stimulus":[],"xmouse":[816,816,816,816,816,816,816,816,816,816,816,816,816,816,816,815,815,814,814,814,814,814,814,814,814,814,814,814,814,814,814,814,814,814,814,812,809,807,806,806,806,804,800,790,787,769,761,750,740,729,714,708,702,683,667,655,643,640,638,635,624,617,615,607,595,580,575,572,569,567,566,566,566,565,565,559,536,523],"ymouse":[628,628,628,628,628,628,628,628,628,628,628,628,628,628,629,629,629,629,629,629,629,629,629,629,629,629,629,629,629,629,629,629,629,629,629,629,627,621,613,601,569,550,532,505,497,456,438,419,402,384,343,316,288,255,237,226,214,208,200,190,168,155,153,144,134,123,120,117,114,112,112,112,112,112,112,109,100,95],"timestamp_mouse":[9,35,47,66,87,106,126,148,168,186,206,228,247,266,288,307,326,347,367,386,408,426,446,466,487,506,527,546,566,587,606,626,646,668,686,707,726,748,766,787,806,826,846,866,887,906,926,946,966,987,1007,1027,1046,1066,1086,1106,1127,1146,1166,1187,1206,1226,1247,1266,1287,1306,1326,1346,1367,1387,1407,1427,1447,1467,1487,1507,1527,1547],"xSR":741.5,"ySR":573.95,"xT1":424.9,"yT1":0,"xT2":1058.1,"yT2":0,"toosoon":0,"cond_shown":"Incongruent","ratio_trial":100,"L_num":3,"L_den":9,"R_num":7,"R_den":30,"correct_side":1,"subjID":"juanandressalazarsuarez37","gender":"0","school":"6","age":"12"},{"start_time":1551900002410,"click_time":1551900003764,"finger_time":1551900003083,"fix_duration":885.604351734219,"trial":32,"RT":673,"MT":681,"sideResp":2,"stimulus":[],"xmouse":[794,794,794,794,794,794,794,794,794,794,794,794,794,794,794,794,794,793,793,793,792,792,792,791,791,791,791,790,785,782,774,762,749,729,722,715,709,705,702,701,701,701,701,701,701,701,701,701,701,701,701,703,706,713,719,726,736,758,876,962,1029,1070,1097,1122,1130,1134,1135,1138],"ymouse":[649,649,649,649,649,649,649,649,649,649,649,649,649,649,649,649,649,648,648,648,644,641,640,639,639,639,638,637,632,629,624,619,611,582,565,548,533,527,523,523,523,523,523,523,523,523,523,523,523,523,523,530,536,552,561,568,569,569,489,411,331,268,227,176,149,130,108,93],"timestamp_mouse":[13,37,53,73,93,113,135,153,173,194,213,234,253,273,293,314,334,353,373,395,414,433,455,474,494,515,534,554,573,594,614,633,654,673,693,713,734,753,773,793,813,834,854,873,894,914,933,953,974,994,1014,1033,1053,1073,1093,1114,1134,1153,1173,1193,1213,1233,1254,1273,1293,1313,1334,1354],"xSR":741.5,"ySR":573.95,"xT1":424.9,"yT1":0,"xT2":1058.1,"yT2":0,"toosoon":0,"cond_shown":"Congruent","ratio_trial":100,"L_num":11,"L_den":22,"R_num":6,"R_den":15,"correct_side":1,"subjID":"juanandressalazarsuarez37","gender":"0","school":"6","age":"12"},{"start_time":1551900006984,"click_time":1551900008603,"finger_time":1551900008164,"fix_duration":958.5917376234045,"trial":33,"RT":1180,"MT":439,"sideResp":2,"stimulus":[],"xmouse":[792,792,792,792,792,792,792,792,792,792,792,792,792,792,791,791,791,791,791,791,791,791,791,791,790,790,788,788,787,786,783,778,773,768,766,765,765,765,765,765,765,765,765,765,765,765,767,767,768,768,769,769,769,769,769,770,772,775,789,809,851,863,873,886,900,927,944,969,986,999,1009,1009,1011,1011,1013,1013,1013,1014,1023,1027,1054,1060],"ymouse":[610,610,610,610,610,610,610,610,610,610,610,610,610,610,610,610,610,610,610,610,610,610,610,610,610,610,610,609,609,609,609,609,609,609,609,609,609,609,609,609,609,609,609,609,609,609,609,609,608,608,608,608,608,608,608,607,604,600,584,566,523,503,477,424,370,262,210,158,117,85,53,50,47,43,41,41,41,41,41,41,42,43],"timestamp_mouse":[1,19,43,59,81,99,120,139,161,181,199,220,239,259,279,299,319,339,360,380,399,419,439,460,479,499,521,540,559,579,599,619,639,660,680,699,720,739,759,780,801,819,839,859,880,900,920,940,959,979,999,1020,1040,1060,1079,1100,1120,1139,1159,1180,1199,1220,1240,1259,1279,1299,1321,1339,1359,1380,1399,1419,1439,1460,1480,1499,1519,1539,1559,1579,1599,1619],"xSR":741.5,"ySR":573.95,"xT1":424.9,"yT1":0,"xT2":1058.1,"yT2":0,"toosoon":0,"cond_shown":"Incongruent","ratio_trial":100,"L_num":12,"L_den":24,"R_num":9,"R_den":15,"correct_side":2,"subjID":"juanandressalazarsuarez37","gender":"0","school":"6","age":"12"},{"start_time":1551900011599,"click_time":1551900012784,"finger_time":1551900012363,"fix_duration":393.8408072643306,"trial":34,"RT":764,"MT":421,"sideResp":2,"stimulus":[],"xmouse":[800,800,800,800,800,800,800,800,800,800,800,800,800,800,800,800,800,800,800,800,800,800,800,800,800,800,800,800,800,800,799,797,797,797,799,805,811,820,843,885,912,934,950,963,987,993,999,1005,1008,1013,1019,1025,1031,1039,1059,1068,1072,1076,1077,1079],"ymouse":[640,640,640,640,640,640,640,640,640,640,640,640,640,640,640,640,640,640,640,640,640,640,640,640,640,640,640,640,640,640,640,640,639,636,623,610,599,580,509,421,382,354,333,314,281,266,253,238,231,218,208,197,185,170,140,125,114,106,100,93],"timestamp_mouse":[7,30,44,64,85,105,125,146,164,184,204,224,245,265,284,304,324,344,365,385,404,425,445,466,484,505,526,544,565,584,604,626,646,664,684,705,724,744,764,784,805,826,845,864,884,905,924,944,966,984,1004,1024,1044,1064,1084,1104,1124,1145,1164,1184],"xSR":741.5,"ySR":573.95,"xT1":424.9,"yT1":0,"xT2":1058.1,"yT2":0,"toosoon":0,"cond_shown":"Incongruent","ratio_trial":200,"L_num":11,"L_den":20,"R_num":3,"R_den":4,"correct_side":2,"subjID":"juanandressalazarsuarez37","gender":"0","school":"6","age":"12"},{"start_time":1551900014948,"click_time":1551900016643,"finger_time":1551900016144,"fix_duration":1303.833796149858,"trial":35,"RT":1196,"MT":499,"sideResp":1,"stimulus":[],"xmouse":[771,771,771,771,771,771,771,771,771,771,771,771,771,771,771,771,771,771,772,774,778,783,786,789,790,791,791,791,791,791,791,791,791,791,791,791,792,792,792,792,792,792,792,792,792,792,792,792,792,792,792,792,792,790,786,783,777,773,763,734,696,644,637,633,632,632,634,634,634,627,613,607,591,580,570,562,555,550,544,536,527,508,501,496,493],"ymouse":[606,606,606,606,606,606,606,606,606,606,606,606,606,606,606,606,606,606,606,606,604,600,596,593,592,592,591,591,591,591,591,591,591,591,591,589,587,586,586,586,586,586,586,586,586,586,586,586,586,586,586,586,585,585,585,585,585,584,576,540,500,440,424,408,392,376,342,324,311,289,260,246,221,207,195,185,174,168,159,149,140,119,112,105,96],"timestamp_mouse":[15,35,56,76,96,115,135,155,176,195,217,235,256,275,295,315,336,355,377,396,415,435,455,475,496,515,536,555,575,596,616,636,655,676,697,716,735,756,775,796,815,836,855,876,895,916,935,956,975,996,1015,1035,1055,1076,1095,1116,1136,1156,1175,1196,1215,1235,1257,1276,1295,1316,1335,1356,1376,1397,1415,1435,1455,1476,1495,1515,1535,1556,1575,1596,1615,1635,1655,1676,1695],"xSR":741.5,"ySR":573.95,"xT1":424.9,"yT1":0,"xT2":1058.1,"yT2":0,"toosoon":0,"cond_shown":"Congruent","ratio_trial":300,"L_num":4,"L_den":5,"R_num":2,"R_den":4,"correct_side":1,"subjID":"juanandressalazarsuarez37","gender":"0","school":"6","age":"12"},{"start_time":1551900018251,"click_time":1551900019644,"finger_time":1551900019283,"fix_duration":467.130092468363,"trial":36,"RT":1032,"MT":361,"sideResp":2,"stimulus":[],"xmouse":[826,826,825,824,823,823,823,823,823,822,821,820,818,818,816,816,816,816,816,816,816,816,816,816,816,816,816,816,816,816,816,816,816,816,816,816,816,816,816,816,816,816,816,816,816,816,816,816,816,816,820,827,831,836,841,849,871,889,910,929,937,944,948,954,963,987,1021,1036,1048,1063],"ymouse":[602,602,602,602,602,602,602,602,602,602,602,602,602,602,602,602,602,602,602,602,602,602,602,602,602,602,602,602,602,602,602,602,602,602,602,602,602,602,602,602,602,602,602,602,602,602,602,602,601,597,590,568,554,537,520,497,457,429,392,357,339,323,316,300,279,220,149,127,111,96],"timestamp_mouse":[12,33,54,74,93,112,132,152,172,193,213,234,252,272,293,312,332,352,373,392,413,434,452,473,492,513,532,553,572,592,613,632,654,673,693,712,733,753,772,794,813,832,854,873,892,913,932,953,972,993,1013,1032,1053,1074,1092,1112,1132,1153,1173,1193,1214,1232,1253,1272,1292,1313,1332,1353,1374,1393],"xSR":741.5,"ySR":573.95,"xT1":424.9,"yT1":0,"xT2":1058.1,"yT2":0,"toosoon":0,"cond_shown":"Incongruent","ratio_trial":300,"L_num":13,"L_den":26,"R_num":12,"R_den":15,"correct_side":2,"subjID":"juanandressalazarsuarez37","gender":"0","school":"6","age":"12"},{"start_time":1551900022175,"click_time":1551900023383,"finger_time":1551900022883,"fix_duration":250,"trial":37,"RT":708,"MT":500,"sideResp":1,"stimulus":[],"xmouse":[803,803,803,803,803,803,803,803,803,803,803,803,803,803,803,803,803,803,803,803,803,803,803,803,803,803,803,803,803,803,797,789,781,768,757,732,722,710,699,683,664,657,651,643,634,616,609,600,593,585,564,555,546,541,536,529,521,513,507,500,489],"ymouse":[636,636,636,636,636,636,636,636,636,636,636,636,636,636,636,636,636,636,636,636,636,636,636,636,636,636,636,636,636,636,629,623,616,605,595,558,533,506,482,449,416,401,386,368,349,312,295,276,259,241,201,190,179,173,166,155,146,134,124,115,97],"timestamp_mouse":[9,36,49,70,89,108,128,148,169,189,210,228,248,268,288,309,328,348,368,389,408,428,448,469,490,510,528,549,569,588,608,629,649,668,689,708,729,749,769,788,808,829,849,868,889,908,929,948,968,989,1009,1028,1048,1069,1089,1108,1129,1149,1168,1189,1208],"xSR":741.5,"ySR":573.95,"xT1":424.9,"yT1":0,"xT2":1058.1,"yT2":0,"toosoon":0,"cond_shown":"Congruent","ratio_trial":300,"L_num":24,"L_den":30,"R_num":2,"R_den":4,"correct_side":1,"subjID":"juanandressalazarsuarez37","gender":"0","school":"6","age":"12"},{"start_time":1551900024988,"click_time":1551900027405,"finger_time":1551900026844,"fix_duration":563.2857839843036,"trial":38,"RT":1856,"MT":561,"sideResp":1,"stimulus":[],"xmouse":[813,813,813,813,813,813,813,813,813,813,813,813,813,813,813,813,813,814,814,815,815,815,815,815,815,815,815,815,815,815,814,813,812,811,810,810,810,809,809,809,809,809,809,808,805,803,800,799,799,799,799,799,799,799,799,799,799,799,799,799,799,799,799,799,797,795,794,793,792,792,792,791,791,791,791,791,791,791,791,791,791,791,791,791,791,791,791,790,789,784,781,777,772,766,742,724,698,676,631,599,597,597,597,597,595,592,589,583,574,553,544,533,524,517,514,514,514,514,512,508,505],"ymouse":[628,628,628,628,628,628,628,628,628,628,628,628,628,628,628,628,628,628,627,619,619,619,619,619,619,619,619,619,619,618,618,618,618,618,618,618,618,618,618,618,618,618,618,618,618,618,618,618,618,618,618,618,618,618,618,618,618,618,618,618,618,618,618,618,618,617,616,616,615,615,615,615,615,615,615,615,615,615,615,615,615,615,615,615,615,615,615,614,613,602,593,579,561,540,496,476,450,428,382,329,313,301,293,288,272,259,247,233,209,166,150,134,124,119,117,117,117,116,114,105,99],"timestamp_mouse":[20,41,57,76,95,116,135,156,177,197,216,235,256,275,296,316,337,355,375,396,416,435,455,475,495,515,536,555,576,595,615,636,657,676,695,717,735,755,775,796,817,835,856,875,895,915,936,955,975,995,1015,1035,1055,1076,1097,1116,1135,1155,1176,1195,1216,1237,1257,1275,1295,1316,1335,1356,1375,1395,1417,1436,1455,1476,1496,1515,1535,1556,1576,1596,1617,1635,1656,1675,1695,1716,1735,1755,1776,1795,1815,1836,1856,1876,1896,1916,1935,1955,1976,1995,2015,2036,2055,2076,2096,2116,2135,2155,2177,2195,2216,2235,2256,2276,2295,2315,2335,2356,2377,2396,2416],"xSR":741.5,"ySR":573.95,"xT1":424.9,"yT1":0,"xT2":1058.1,"yT2":0,"toosoon":0,"cond_shown":"Congruent","ratio_trial":300,"L_num":24,"L_den":30,"R_num":8,"R_den":16,"correct_side":1,"subjID":"juanandressalazarsuarez37","gender":"0","school":"6","age":"12"},{"start_time":1551900029165,"click_time":1551900030163,"finger_time":1551900029985,"fix_duration":719.6270630768443,"trial":39,"RT":820,"MT":178,"sideResp":1,"stimulus":[],"xmouse":[815,815,815,815,815,815,815,815,815,815,815,815,815,815,815,815,815,815,815,815,815,814,811,809,808,806,806,806,805,804,802,800,798,796,794,786,778,767,755,746,710,688,660,626,587,516,492,475,465,458],"ymouse":[617,617,617,617,617,617,617,617,617,617,617,617,617,617,617,617,617,617,617,617,617,617,617,617,617,617,617,617,617,617,617,617,617,616,615,612,608,601,595,586,511,433,348,277,227,153,133,119,106,94],"timestamp_mouse":[20,38,63,88,98,118,138,158,178,198,219,239,260,279,298,318,338,358,379,398,419,439,459,478,498,519,539,558,578,598,618,638,658,680,699,718,739,758,779,798,820,839,859,878,898,918,939,958,978,998],"xSR":741.5,"ySR":573.95,"xT1":424.9,"yT1":0,"xT2":1058.1,"yT2":0,"toosoon":0,"cond_shown":"Congruent","ratio_trial":200,"L_num":12,"L_den":20,"R_num":6,"R_den":15,"correct_side":1,"subjID":"juanandressalazarsuarez37","gender":"0","school":"6","age":"12"},{"start_time":1551900032657,"click_time":1551900033904,"finger_time":1551900033503,"fix_duration":1432.4405071389713,"trial":40,"RT":846,"MT":401,"sideResp":1,"stimulus":[],"xmouse":[784,784,784,784,784,784,784,784,784,784,784,784,784,784,784,784,784,784,784,784,784,784,784,784,784,784,784,784,784,784,784,784,784,784,784,784,784,784,782,775,767,747,740,727,699,665,625,610,596,585,575,557,542,527,510,492,462,456,453,451,451,449,447],"ymouse":[626,626,626,626,626,626,626,626,626,626,626,626,626,626,626,626,626,626,626,626,626,626,626,626,626,626,626,626,626,626,626,626,626,626,626,626,626,626,619,612,605,582,563,521,453,399,341,322,306,291,278,252,235,217,198,180,143,131,123,117,112,104,98],"timestamp_mouse":[13,37,46,67,86,106,126,147,166,186,206,226,246,266,286,306,326,347,366,386,407,426,446,467,487,506,526,548,567,586,607,626,647,668,687,707,726,748,767,787,808,826,846,867,887,907,926,947,966,987,1008,1027,1046,1066,1086,1107,1128,1146,1166,1187,1206,1226,1246],"xSR":741.5,"ySR":573.95,"xT1":424.9,"yT1":0,"xT2":1058.1,"yT2":0,"toosoon":0,"cond_shown":"Congruent","ratio_trial":300,"L_num":9,"L_den":10,"R_num":3,"R_den":5,"correct_side":1,"subjID":"juanandressalazarsuarez37","gender":"0","school":"6","age":"12"},{"start_time":1551900036308,"click_time":1551900038044,"finger_time":1551900037724,"fix_duration":1082.3716898925254,"trial":41,"RT":1416,"MT":320,"sideResp":1,"stimulus":[],"xmouse":[785,785,785,785,785,785,785,785,785,785,785,785,785,785,785,785,785,785,785,785,785,785,785,785,785,785,785,785,785,785,785,785,785,785,785,785,785,785,785,785,785,785,785,785,785,785,785,785,785,785,785,785,785,785,785,785,785,785,785,785,785,785,785,785,785,785,785,785,776,760,740,721,701,657,639,623,609,594,568,555,542,531,518,486,474,455,437],"ymouse":[653,653,653,653,653,653,653,653,653,653,653,653,653,653,653,653,653,653,653,653,653,653,653,653,653,653,653,653,653,653,653,653,653,653,653,653,653,653,653,653,653,653,653,653,653,653,653,653,653,653,653,653,653,653,653,653,653,653,653,653,653,653,653,653,653,653,653,651,635,620,606,588,566,502,468,433,396,349,291,270,250,236,219,172,150,124,97],"timestamp_mouse":[15,35,55,77,95,116,137,156,175,195,216,236,255,275,295,315,337,356,376,396,416,435,456,476,495,515,535,556,576,595,616,636,655,677,696,715,735,756,776,795,816,836,856,875,895,915,936,955,975,995,1016,1036,1057,1075,1096,1116,1135,1155,1176,1196,1215,1236,1256,1275,1296,1316,1335,1356,1375,1396,1416,1436,1456,1477,1497,1516,1535,1556,1576,1596,1616,1635,1655,1675,1695,1716,1736],"xSR":741.5,"ySR":573.95,"xT1":424.9,"yT1":0,"xT2":1058.1,"yT2":0,"toosoon":0,"cond_shown":"Incongruent","ratio_trial":300,"L_num":3,"L_den":6,"R_num":4,"R_den":20,"correct_side":1,"subjID":"juanandressalazarsuarez37","gender":"0","school":"6","age":"12"},{"start_time":1551900041166,"click_time":1551900043484,"finger_time":1551900042484,"fix_duration":920.2043232630741,"trial":42,"RT":1318,"MT":1000,"sideResp":2,"stimulus":[],"xmouse":[798,798,798,796,795,794,793,791,789,789,789,789,789,789,789,789,789,789,789,789,789,789,789,789,789,789,789,789,789,789,789,789,789,789,789,789,789,789,789,789,789,789,789,789,789,789,789,789,789,789,789,789,789,789,789,789,789,789,787,785,781,779,775,770,763,740,715,681,652,629,618,618,618,620,629,660,675,687,701,712,728,738,763,827,942,1215,1304,1350,1363,1369,1371,1371,1371,1371,1369,1367,1351,1343,1325,1292,1234,1210,1194,1188,1188,1188,1188,1188,1188,1188,1184,1178,1172,1166,1162,1156],"ymouse":[638,638,638,638,638,638,638,637,636,636,636,636,636,636,636,636,636,636,636,636,636,636,636,636,636,636,636,636,636,636,636,636,636,636,636,636,636,636,636,636,636,636,636,636,636,636,636,636,636,636,636,636,636,636,636,636,636,636,635,633,631,629,625,621,609,574,542,502,476,460,452,452,452,450,444,400,373,344,320,296,241,210,169,104,37,0,0,0,0,0,0,0,0,0,0,1,7,9,14,22,31,34,36,39,39,39,39,39,39,39,41,43,45,46,48,53],"timestamp_mouse":[29,37,58,79,97,117,137,158,178,197,218,237,258,277,298,318,338,358,377,398,417,439,458,478,497,518,539,559,577,597,617,638,657,677,697,717,738,758,777,798,817,839,858,877,897,918,937,958,977,997,1017,1037,1057,1078,1097,1118,1137,1158,1178,1197,1217,1238,1257,1278,1298,1318,1338,1358,1378,1398,1417,1438,1457,1478,1497,1519,1537,1558,1578,1597,1617,1637,1658,1677,1697,1717,1738,1758,1778,1798,1817,1838,1857,1877,1897,1917,1937,1958,1977,1997,2018,2037,2058,2078,2097,2118,2137,2157,2178,2197,2217,2237,2257,2278,2297,2318],"xSR":741.5,"ySR":573.95,"xT1":424.9,"yT1":0,"xT2":1058.1,"yT2":0,"toosoon":0,"cond_shown":"Congruent","ratio_trial":200,"L_num":3,"L_den":10,"R_num":14,"R_den":28,"correct_side":2,"subjID":"juanandressalazarsuarez37","gender":"0","school":"6","age":"12"},{"start_time":1551900047397,"click_time":1551900048364,"finger_time":1551900048223,"fix_duration":490.98212838749697,"trial":43,"RT":826,"MT":141,"sideResp":1,"stimulus":[],"xmouse":[781,781,781,781,781,781,781,781,781,781,781,781,781,781,781,781,781,781,781,781,782,782,782,782,782,782,782,782,782,782,782,782,782,782,781,780,780,778,776,769,764,759,750,734,688,660,622,539,485],"ymouse":[621,621,621,621,621,621,621,621,621,621,621,621,621,621,621,621,621,621,621,621,620,619,619,619,619,619,619,619,619,619,619,619,618,617,616,616,615,610,605,590,577,562,539,502,394,330,248,129,57],"timestamp_mouse":[9,32,47,67,86,107,128,146,168,187,206,228,248,266,288,308,326,347,367,388,408,428,448,467,486,508,526,548,568,586,608,628,646,666,688,708,728,747,767,787,807,826,846,868,886,907,927,948,967],"xSR":741.5,"ySR":573.95,"xT1":424.9,"yT1":0,"xT2":1058.1,"yT2":0,"toosoon":0,"cond_shown":"Congruent","ratio_trial":300,"L_num":11,"L_den":22,"R_num":4,"R_den":20,"correct_side":1,"subjID":"juanandressalazarsuarez37","gender":"0","school":"6","age":"12"},{"start_time":1551900049909,"click_time":1551900051184,"finger_time":1551900051003,"fix_duration":364.3413832754946,"trial":44,"RT":1094,"MT":181,"sideResp":1,"stimulus":[],"xmouse":[770,770,770,770,770,770,770,770,770,770,771,771,771,771,771,771,771,771,771,771,771,771,771,771,771,771,771,771,771,771,771,771,771,771,771,771,771,771,771,771,771,771,771,771,771,771,771,771,771,771,771,771,772,768,758,742,718,685,612,574,542,528,518,457],"ymouse":[622,622,622,622,622,623,623,623,624,624,625,625,625,625,625,625,625,625,625,625,625,625,625,625,625,625,625,625,625,625,625,625,625,625,625,625,625,625,625,625,625,625,625,625,625,625,625,625,625,625,625,625,625,595,569,543,500,442,333,264,199,162,131,22],"timestamp_mouse":[14,39,55,75,94,115,135,154,175,196,215,235,255,276,294,316,335,355,376,395,414,436,455,474,496,514,536,555,574,596,616,634,656,675,696,715,735,756,776,796,814,835,856,876,894,916,936,956,975,996,1015,1036,1055,1076,1094,1115,1135,1155,1175,1195,1215,1235,1255,1275],"xSR":741.5,"ySR":573.95,"xT1":424.9,"yT1":0,"xT2":1058.1,"yT2":0,"toosoon":0,"cond_shown":"Congruent","ratio_trial":100,"L_num":15,"L_den":25,"R_num":13,"R_den":26,"correct_side":1,"subjID":"juanandressalazarsuarez37","gender":"0","school":"6","age":"12"},{"start_time":1551900055577,"click_time":1551900057163,"finger_time":1551900056803,"fix_duration":332.6225070754877,"trial":45,"RT":1226,"MT":360,"sideResp":2,"stimulus":[],"xmouse":[777,777,777,777,777,777,777,777,777,777,777,777,777,777,777,777,777,777,777,777,777,777,777,777,777,777,777,777,777,777,777,777,777,777,777,777,777,777,777,777,777,777,777,777,777,777,779,798,808,822,823,823,823,823,823,823,823,823,823,823,829,844,867,887,899,915,925,932,943,966,991,1008,1021,1026,1029,1031,1033,1042,1057,1067],"ymouse":[621,621,621,621,621,621,621,621,621,621,621,621,621,621,621,621,621,621,621,621,621,621,621,621,621,621,621,621,621,621,621,621,621,621,621,621,621,621,621,621,621,621,621,621,621,621,621,617,616,615,615,615,615,615,615,615,615,614,614,610,600,588,566,536,510,459,418,372,319,232,157,114,85,68,58,49,47,38,29,25],"timestamp_mouse":[9,35,48,68,87,107,128,147,166,188,208,226,247,267,287,306,326,348,367,386,407,426,447,467,488,507,527,547,568,587,606,627,646,668,687,708,728,746,768,787,806,828,848,867,887,907,927,946,967,987,1008,1027,1047,1067,1086,1107,1127,1148,1168,1187,1206,1226,1247,1267,1286,1307,1327,1346,1366,1388,1407,1427,1446,1467,1487,1508,1527,1546,1568,1586],"xSR":741.5,"ySR":573.95,"xT1":424.9,"yT1":0,"xT2":1058.1,"yT2":0,"toosoon":0,"cond_shown":"Congruent","ratio_trial":300,"L_num":1,"L_den":5,"R_num":6,"R_den":12,"correct_side":2,"subjID":"juanandressalazarsuarez37","gender":"0","school":"6","age":"12"},{"start_time":1551900058640,"click_time":1551900060484,"finger_time":1551900060024,"fix_duration":413.46518690591495,"trial":46,"RT":1384,"MT":460,"sideResp":1,"stimulus":[],"xmouse":[796,796,796,796,796,796,796,796,796,796,796,796,796,796,796,796,796,796,796,796,796,796,796,796,796,796,796,796,796,796,796,796,796,796,796,796,796,796,796,796,796,796,796,796,796,796,796,796,796,796,796,796,796,797,798,800,800,800,800,800,800,800,800,800,800,800,800,800,800,800,797,791,762,736,708,674,668,667,668,670,670,669,662,658,654,652,645,641,634,624,602,571,496],"ymouse":[599,599,599,599,599,599,599,599,599,599,599,599,599,599,599,599,599,599,599,599,599,599,599,599,599,599,599,599,599,599,599,599,599,599,599,599,599,599,599,599,599,599,599,599,599,599,599,599,599,599,599,599,598,597,594,589,585,584,584,584,584,584,584,584,584,584,584,584,579,571,557,535,459,397,330,253,229,212,186,178,174,169,159,154,149,145,136,130,122,116,108,100,88],"timestamp_mouse":[9,23,45,63,85,104,124,145,165,184,204,224,245,265,285,303,324,345,365,385,404,423,443,464,484,504,525,543,564,585,604,625,645,665,684,703,723,744,765,783,804,824,845,865,884,904,924,944,965,984,1003,1024,1045,1064,1084,1103,1125,1144,1163,1183,1203,1224,1245,1264,1285,1303,1324,1344,1364,1384,1403,1424,1445,1463,1484,1504,1525,1543,1564,1584,1605,1625,1643,1665,1684,1705,1723,1743,1765,1784,1805,1824,1844],"xSR":741.5,"ySR":573.95,"xT1":424.9,"yT1":0,"xT2":1058.1,"yT2":0,"toosoon":0,"cond_shown":"Incongruent","ratio_trial":200,"L_num":7,"L_den":15,"R_num":4,"R_den":6,"correct_side":2,"subjID":"juanandressalazarsuarez37","gender":"0","school":"6","age":"12"},{"start_time":1551900062546,"click_time":1551900064285,"finger_time":1551900063623,"fix_duration":1160.9308219913821,"trial":47,"RT":1077,"MT":662,"sideResp":2,"stimulus":[],"xmouse":[780,780,780,780,780,780,780,780,780,780,780,780,780,780,780,780,780,780,780,780,780,780,780,780,780,780,780,780,780,780,780,780,780,780,780,780,780,780,780,780,780,780,780,780,780,780,780,780,780,780,781,798,835,855,895,948,1065,1119,1161,1184,1200,1208,1210,1210,1210,1210,1210,1210,1210,1210,1210,1210,1205,1194,1186,1180,1177,1169,1169,1169,1169,1169,1169,1169,1169,1167,1158],"ymouse":[639,639,639,639,639,639,639,639,639,639,639,639,639,639,639,639,639,639,639,639,639,639,639,639,639,639,639,639,639,639,639,639,638,638,638,638,638,638,638,638,638,638,638,638,638,638,638,638,638,638,638,636,619,595,554,492,336,255,187,143,103,59,38,15,5,0,0,0,0,0,0,0,5,15,22,27,29,35,35,35,35,35,35,35,35,35,37],"timestamp_mouse":[18,38,59,78,98,118,137,157,179,199,219,238,259,277,299,317,338,358,379,398,418,438,458,479,498,518,537,557,579,598,617,638,658,678,698,717,739,759,779,798,817,838,857,878,899,917,939,958,979,999,1017,1037,1057,1077,1098,1119,1138,1158,1178,1198,1218,1237,1258,1277,1299,1319,1339,1358,1379,1399,1419,1438,1459,1478,1498,1517,1537,1558,1578,1599,1618,1638,1659,1678,1699,1718,1738],"xSR":741.5,"ySR":573.95,"xT1":424.9,"yT1":0,"xT2":1058.1,"yT2":0,"toosoon":0,"cond_shown":"Incongruent","ratio_trial":300,"L_num":13,"L_den":26,"R_num":12,"R_den":15,"correct_side":2,"subjID":"juanandressalazarsuarez37","gender":"0","school":"6","age":"12"},{"start_time":1551900066582,"click_time":1551900068624,"finger_time":1551900067644,"fix_duration":1197.4922955948234,"trial":48,"RT":1062,"MT":980,"sideResp":1,"stimulus":[],"xmouse":[782,782,782,782,782,782,782,782,782,781,781,781,781,781,781,781,781,781,781,781,781,781,781,780,780,780,780,780,780,779,778,778,778,778,778,778,777,777,776,776,774,774,773,773,773,773,773,773,771,770,763,754,746,733,718,701,669,643,627,623,613,606,594,572,542,481,465,459,458,458,384,328,343,452,567,607,605,605,611,617,618,618,619,620,622,624,624,616,604,597,589,587,586,582,576,555,550,547,546,546,540,531,516],"ymouse":[627,627,627,627,627,627,627,627,627,627,627,627,627,627,627,627,627,627,627,627,627,627,627,627,627,627,627,627,627,627,626,626,626,626,626,626,626,626,626,625,624,624,623,623,623,623,623,623,623,622,616,605,590,565,520,456,273,188,131,114,91,75,54,22,0,0,0,0,0,0,0,0,30,142,207,213,216,222,240,246,247,247,247,247,247,221,199,177,156,149,143,143,142,141,138,129,126,124,124,123,115,101,85],"timestamp_mouse":[8,32,43,62,82,103,121,143,162,181,203,221,243,263,282,302,322,342,362,381,403,422,442,462,482,503,521,543,562,583,601,623,642,662,682,703,721,742,762,782,801,822,843,862,881,903,921,942,962,981,1003,1023,1042,1062,1083,1101,1122,1142,1162,1183,1202,1221,1242,1263,1282,1303,1322,1342,1362,1383,1402,1421,1442,1462,1482,1503,1522,1542,1563,1583,1602,1622,1643,1662,1682,1702,1722,1741,1762,1783,1803,1822,1842,1863,1882,1903,1922,1941,1961,1982,2002,2022,2042],"xSR":741.5,"ySR":573.95,"xT1":424.9,"yT1":0,"xT2":1058.1,"yT2":0,"toosoon":0,"cond_shown":"Incongruent","ratio_trial":200,"L_num":3,"L_den":10,"R_num":1,"R_den":2,"correct_side":2,"subjID":"juanandressalazarsuarez37","gender":"0","school":"6","age":"12"},{"start_time":1551900069856,"click_time":1551900073485,"finger_time":1551900071483,"fix_duration":250,"trial":49,"RT":1627,"MT":2002,"sideResp":2,"stimulus":[],"xmouse":[795,795,795,795,795,795,795,795,795,795,795,795,795,795,795,795,795,795,795,795,795,795,795,795,795,795,795,795,795,795,795,795,795,795,795,795,795,795,795,795,795,795,795,795,795,795,795,795,795,795,795,795,795,795,795,795,795,795,795,795,795,795,795,795,795,795,795,795,795,795,795,795,795,794,794,794,794,794,794,794,793,773,741,707,698,698,698,698,698,698,698,698,698,698,698,698,698,698,698,699,709,772,831,894,964,995,1056,1083,1103,1123,1139,1165,1176,1183,1188,1195,1200,1206,1212,1215,1218,1219,1219,1220,1222,1222,1222,1222,1222,1222,1222,1222,1222,1222,1222,1222,1217,1210,1204,1199,1191,1177,1177,1177,1177,1177,1177,1177,1177,1177,1176,1173,1170,1168,1164,1163,1163,1163,1163,1163,1163,1163,1163,1163,1163,1163,1163,1163,1163,1163,1163,1163,1163,1163,1163,1163,1163,1163,1163,1163,1162,1158],"ymouse":[664,662,659,659,659,659,659,659,659,659,659,659,659,659,659,659,659,659,659,659,659,659,659,659,659,659,659,659,659,659,659,659,659,659,659,659,659,659,659,659,659,659,659,659,659,659,659,659,659,659,659,659,659,659,659,659,659,659,659,659,659,659,659,659,659,659,659,659,659,659,659,659,659,660,660,660,660,660,660,660,660,688,733,780,795,795,795,795,795,795,795,795,795,795,795,795,795,795,795,794,784,723,672,629,594,579,548,537,527,516,505,481,467,448,432,402,371,291,253,229,207,157,134,117,109,106,106,106,106,106,106,106,106,106,106,106,105,105,105,105,106,106,106,106,106,106,106,106,106,106,106,104,98,93,85,83,83,83,83,83,83,83,83,83,83,83,83,83,83,83,83,83,83,83,83,83,83,83,83,83,83,83],"timestamp_mouse":[9,28,48,68,88,108,128,148,168,188,209,228,248,268,288,309,328,348,369,389,408,428,448,468,487,507,529,548,569,588,608,628,648,667,689,708,727,749,768,789,809,828,849,868,888,909,928,948,968,988,1009,1028,1047,1068,1088,1108,1128,1148,1169,1188,1209,1228,1248,1268,1288,1308,1328,1349,1369,1389,1407,1429,1449,1468,1489,1509,1528,1549,1568,1588,1609,1627,1648,1667,1687,1708,1728,1748,1767,1787,1809,1829,1848,1869,1889,1907,1929,1949,1967,1989,2008,2028,2049,2067,2088,2109,2128,2147,2168,2188,2209,2229,2247,2268,2288,2308,2328,2348,2368,2388,2408,2428,2448,2469,2488,2508,2528,2550,2568,2588,2608,2627,2648,2668,2687,2707,2728,2748,2767,2788,2808,2828,2847,2868,2887,2907,2929,2948,2967,2988,3009,3028,3047,3068,3089,3109,3129,3147,3168,3189,3208,3229,3248,3267,3288,3308,3327,3348,3368,3388,3408,3429,3448,3469,3488,3507,3527,3548,3569,3589,3609,3629],"xSR":741.5,"ySR":573.95,"xT1":424.9,"yT1":0,"xT2":1058.1,"yT2":0,"toosoon":0,"cond_shown":"Congruent","ratio_trial":200,"L_num":3,"L_den":12,"R_num":9,"R_den":20,"correct_side":2,"subjID":"juanandressalazarsuarez37","gender":"0","school":"6","age":"12"},{"start_time":1551900076175,"click_time":1551900077584,"finger_time":1551900077384,"fix_duration":250,"trial":50,"RT":1209,"MT":200,"sideResp":1,"stimulus":[],"xmouse":[774,774,775,775,775,775,775,775,775,775,775,775,775,775,775,775,775,775,775,775,775,775,775,775,775,775,775,775,775,775,775,775,775,775,775,775,775,775,775,775,775,775,775,775,775,775,775,775,775,775,775,775,775,775,775,775,775,775,774,771,743,723,696,676,658,615,590,565,545,524,490],"ymouse":[623,623,623,623,623,623,623,623,623,623,623,623,623,623,623,623,623,623,623,623,623,623,623,623,623,623,623,623,623,623,623,623,623,623,623,623,623,623,623,623,623,623,623,623,623,623,623,623,623,623,623,623,623,623,623,623,623,619,600,580,539,517,482,458,433,363,306,252,204,155,40],"timestamp_mouse":[10,38,49,68,89,108,128,149,169,189,209,229,248,270,288,308,330,350,369,389,410,430,449,469,490,510,529,550,569,589,608,629,650,668,689,710,730,748,770,790,809,828,850,870,890,910,929,948,969,990,1009,1028,1049,1070,1089,1109,1128,1149,1169,1189,1209,1229,1249,1269,1290,1310,1330,1349,1369,1388,1409],"xSR":741.5,"ySR":573.95,"xT1":424.9,"yT1":0,"xT2":1058.1,"yT2":0,"toosoon":0,"cond_shown":"Incongruent","ratio_trial":100,"L_num":6,"L_den":10,"R_num":13,"R_den":26,"correct_side":1,"subjID":"juanandressalazarsuarez37","gender":"0","school":"6","age":"12"},{"start_time":1551900080227,"click_time":1551900081924,"finger_time":1551900081584,"fix_duration":1340.954556407139,"trial":51,"RT":1357,"MT":340,"sideResp":2,"stimulus":[],"xmouse":[788,788,788,788,788,788,788,788,788,788,788,788,788,788,788,788,788,788,788,788,788,788,788,788,788,788,788,788,788,788,788,788,788,788,788,788,788,788,788,788,788,788,788,788,788,788,788,788,788,788,788,788,788,788,788,788,788,788,788,788,788,788,788,788,788,789,791,831,869,910,952,1010,1097,1132,1162,1181,1189,1189,1189,1189,1189,1188,1180,1165,1144],"ymouse":[591,591,591,591,591,591,591,591,591,591,591,591,591,591,591,591,591,591,591,591,591,591,591,591,591,591,591,591,591,591,591,591,591,591,591,591,591,591,591,591,591,591,591,591,591,591,591,591,591,591,591,591,591,591,591,591,591,591,591,591,591,591,591,591,591,592,591,545,502,458,414,356,204,123,48,0,0,0,0,0,0,0,0,7,15],"timestamp_mouse":[17,36,58,77,97,116,137,157,177,196,218,236,257,277,297,317,336,357,377,397,418,436,457,477,498,516,536,557,577,596,617,637,657,677,696,718,736,756,777,797,816,836,857,876,898,917,937,957,977,996,1016,1037,1058,1076,1096,1117,1137,1156,1178,1198,1217,1238,1258,1277,1296,1317,1338,1357,1378,1397,1418,1438,1457,1476,1496,1516,1537,1558,1576,1597,1617,1638,1658,1676,1697],"xSR":741.5,"ySR":573.95,"xT1":424.9,"yT1":0,"xT2":1058.1,"yT2":0,"toosoon":0,"cond_shown":"Congruent","ratio_trial":100,"L_num":4,"L_den":8,"R_num":6,"R_den":10,"correct_side":2,"subjID":"juanandressalazarsuarez37","gender":"0","school":"6","age":"12"},{"start_time":1551900084202,"click_time":1551900085685,"finger_time":1551900085223,"fix_duration":1117.949417361299,"trial":52,"RT":1021,"MT":462,"sideResp":2,"stimulus":[],"xmouse":[818,818,818,818,818,818,818,818,818,818,818,818,818,818,818,817,817,816,815,812,810,810,809,808,808,808,808,808,808,808,807,807,807,807,807,806,806,806,806,806,808,809,809,810,811,812,813,813,814,817,821,823,826,827,828,828,828,828,828,828,828,828,828,828,828,828,828,829,831,838,848,867,896,957,1138],"ymouse":[647,647,647,647,647,647,647,647,647,647,647,647,647,647,647,647,647,647,647,647,647,646,645,644,644,644,644,643,643,643,643,641,640,639,638,634,632,631,628,621,616,613,611,608,605,603,601,600,596,587,579,573,566,559,551,548,548,548,548,548,548,548,548,548,548,548,548,542,537,516,495,464,416,329,79],"timestamp_mouse":[8,29,43,63,83,103,123,143,162,181,203,223,241,263,281,301,323,341,362,382,401,422,442,462,482,502,523,541,562,583,602,622,642,661,682,702,723,741,762,782,803,822,843,862,881,903,922,942,963,982,1003,1021,1042,1063,1081,1102,1121,1141,1161,1183,1202,1222,1242,1263,1283,1303,1321,1342,1363,1382,1401,1422,1443,1462,1483],"xSR":741.5,"ySR":573.95,"xT1":424.9,"yT1":0,"xT2":1058.1,"yT2":0,"toosoon":0,"cond_shown":"Incongruent","ratio_trial":100,"L_num":9,"L_den":15,"R_num":13,"R_den":26,"correct_side":1,"subjID":"juanandressalazarsuarez37","gender":"0","school":"6","age":"12"},{"start_time":1551900089914,"click_time":1551900091605,"finger_time":1551900090984,"fix_duration":1309.797164785054,"trial":53,"RT":1070,"MT":621,"sideResp":1,"stimulus":[],"xmouse":[800,800,800,800,800,800,800,800,800,800,800,800,800,800,800,800,800,799,795,794,793,793,792,792,792,792,792,792,792,792,792,792,792,792,792,792,792,792,792,792,792,789,781,768,762,757,753,750,748,748,748,748,748,732,705,655,580,506,392,359,338,324,313,307,305,306,309,313,323,328,333,335,340,358,366,371,372,373,373,373,375,388,401,413,438],"ymouse":[609,609,609,609,609,609,609,609,609,609,609,609,609,609,609,609,608,606,596,594,592,590,588,587,587,586,586,586,586,586,586,586,586,586,586,586,586,586,586,586,586,586,584,584,583,582,582,582,582,582,582,582,582,566,537,485,427,368,267,223,179,140,97,74,55,48,42,36,27,23,23,22,22,33,37,38,38,38,38,38,38,38,39,41,45],"timestamp_mouse":[1