[{"start_time":1551887705374,"click_time":1551887711185,"finger_time":1551887705385,"fix_duration":765.533662613087,"trial":0,"RT":11,"MT":5800,"sideResp":2,"stimulus":"img/900/randomdotsizeEA/L/8_Ratio_900_L_20_R_18.png","xmouse":[771,771,771,771,771,771,771,771,771,771,771,771,771,771,771,771,771,771,771,771,771,771,771,771,771,771,771,771,771,771,771,771,771,771,771,771,771,771,771,771,771,771,771,771,771,771,771,771,771,771,771,771,771,771,771,771,771,771,771,771,771,771,771,771,771,771,771,771,771,771,771,771,771,771,771,771,771,771,771,771,771,771,771,771,771,771,771,771,771,771,771,771,771,772,779,787,800,808,809,809,809,809,809,809,804,802,802,802,802,802,802,802,802,802,802,802,802,802,802,802,802,802,802,802,802,802,802,802,802,802,802,802,802,802,802,802,802,802,802,802,802,802,802,802,802,802,802,802,802,802,802,802,802,802,802,802,802,802,802,802,802,802,802,802,802,802,802,802,802,802,802,802,802,802,802,802,802,802,801,804,824,829,829,829,829,829,829,829,829,829,829,829,829,829,829,829,829,829,829,829,829,829,830,842,847,851,853,853,853,853,853,853,853,853,853,853,853,853,853,853,854,855,857,857,857,857,857,857,857,857,857,857,857,857,857,857,857,857,857,857,857,857,857,857,857,857,857,857,857,857,857,857,857,857,857,857,857,857,857,857,857,857,857,858,866,876,893,915,986,1023,1043,1056,1056,1056,1060,1069,1088,1124,1194,1225,1251,1251,1304,1314,1314,1314,1314,1312,1257,1210,1157],"ymouse":[568,568,568,568,568,568,568,568,568,568,568,568,568,568,570,570,570,570,570,570,570,570,570,570,570,570,570,570,570,570,570,570,570,570,570,570,570,570,570,570,570,570,570,570,570,570,570,570,570,570,570,570,570,570,570,570,570,570,570,570,570,570,570,570,570,570,570,570,570,570,570,570,570,570,570,570,570,570,570,570,570,570,570,570,570,570,570,570,570,570,570,570,570,571,581,589,597,604,605,605,605,605,605,607,610,610,610,610,610,610,610,610,610,610,610,610,610,610,610,610,610,610,610,610,610,610,610,610,610,610,610,610,610,610,610,610,610,610,610,610,610,610,610,610,610,610,610,610,610,610,610,610,610,610,610,610,610,610,610,610,610,610,610,610,610,610,610,610,610,610,610,610,610,610,610,610,610,610,612,616,629,633,633,633,633,633,633,633,633,633,633,633,633,633,633,633,633,633,633,633,633,633,633,620,618,617,617,617,617,617,617,617,617,617,617,617,617,617,617,617,617,618,622,623,623,623,623,623,623,623,623,623,623,623,623,623,623,623,623,623,623,623,623,623,623,623,623,624,624,624,624,624,624,624,624,624,624,624,624,624,624,624,624,621,610,598,585,569,515,484,466,455,455,455,447,416,370,307,169,97,35,35,0,0,0,0,0,0,28,53,71],"timestamp_mouse":[11,31,52,71,91,111,131,152,171,191,210,230,252,272,291,311,330,350,371,391,411,432,451,470,491,511,532,551,571,592,611,632,651,672,691,711,730,751,771,792,811,830,851,870,892,912,932,951,971,990,1011,1031,1051,1071,1091,1112,1131,1152,1172,1192,1211,1230,1251,1271,1292,1311,1331,1351,1371,1391,1412,1431,1452,1472,1490,1511,1531,1550,1570,1591,1611,1631,1652,1671,1691,1711,1731,1751,1772,1791,1811,1832,1851,1871,1892,1911,1930,1951,1971,1991,2011,2032,2051,2071,2091,2112,2132,2151,2172,2190,2212,2230,2251,2271,2291,2312,2332,2350,2371,2391,2412,2432,2450,2472,2490,2510,2532,2551,2571,2590,2611,2630,2650,2672,2692,2712,2732,2751,2772,2791,2811,2830,2852,2871,2891,2911,2930,2951,2970,2991,3011,3031,3051,3071,3090,3112,3131,3151,3171,3192,3211,3230,3251,3270,3292,3312,3331,3351,3371,3391,3412,3432,3452,3471,3491,3512,3531,3551,3571,3592,3611,3631,3652,3670,3691,3711,3732,3751,3770,3791,3812,3831,3852,3870,3890,3911,3931,3950,3971,3990,4012,4031,4051,4070,4092,4111,4131,4152,4171,4192,4212,4232,4252,4271,4291,4310,4331,4352,4372,4391,4411,4432,4450,4471,4492,4512,4531,4552,4570,4591,4611,4631,4651,4671,4691,4710,4732,4751,4771,4791,4812,4832,4851,4872,4891,4912,4931,4952,4971,4991,5011,5031,5051,5070,5092,5111,5132,5151,5171,5191,5212,5232,5251,5270,5290,5310,5330,5352,5370,5392,5411,5431,5451,5471,5492,5511,5532,5551,5571,5591,5611,5631,5652,5671,5692,5711,5732,5751,5771,5790,5811],"xSR":741.5,"ySR":469.95,"xT1":424.9,"yT1":0,"xT2":1058.1,"yT2":0,"toosoon":0,"cond_shown":"randomdotsizeEA","ratio_trial":900,"smaller_num":"18","larger_num":"20","correct_side":1,"subjID":"juanavalentinauribeinfante36","gender":"1","age":"10","school":"sexto","test":{"fix_dur":[250,1500],"timestim":300,"targets_dim":[100,100],"targets_relative_coord":[0.3,0.7],"size_stim":[880,420],"start_dim":[100,100],"size_start":[300,300],"size_fix":60,"samplingrate":20,"img_types":["equaldotsize","equaldotanddens","randomdotsizeEA"],"ratios":[250,500,750,900],"rep_conds":9,"nTrials":120,"trials_to_rest":500,"Trials_order":[119,27,52,18,67,44,96,3,101,114,115,12,66,87,37,36,86,57,55,6,81,22,85,91,28,11,71,109,39,93,72,0,89,82,56,38,25,63,100,108,116,23,70,68,98,77,99,5,84,41,32,51,42,16,4,76,79,8,117,75,78,14,53,74,34,30,62,112,60,110,35,43,15,26,29,45,10,90,48,94,104,106,33,105,1,46,102,40,13,103,9,20,59,107,92,31,97,58,64,17,113,61,2,73,80,88,65,19,95,50,7,69,118,111,21,83,49,54,47,24],"cond_shown":["randomdotsizeEA","equaldotsize","equaldotanddens","equaldotsize","equaldotanddens","randomdotsizeEA","equaldotsize","equaldotsize","randomdotsizeEA","equaldotsize","equaldotanddens","equaldotsize","equaldotsize","equaldotsize","equaldotanddens","equaldotsize","randomdotsizeEA","equaldotsize","equaldotanddens","equaldotsize","equaldotsize","equaldotanddens","equaldotanddens","equaldotanddens","equaldotanddens","randomdotsizeEA","randomdotsizeEA","equaldotanddens","equaldotsize","equaldotsize","equaldotsize","equaldotsize","randomdotsizeEA","equaldotanddens","randomdotsizeEA","randomdotsizeEA","equaldotanddens","equaldotsize","equaldotanddens","equaldotsize","randomdotsizeEA","randomdotsizeEA","equaldotanddens","randomdotsizeEA","randomdotsizeEA","randomdotsizeEA","equaldotsize","randomdotsizeEA","equaldotsize","randomdotsizeEA","randomdotsizeEA","equaldotsize","equaldotsize","equaldotanddens","equaldotanddens","equaldotanddens","equaldotanddens","randomdotsizeEA","equaldotsize","equaldotsize","equaldotsize","randomdotsizeEA","randomdotsizeEA","randomdotsizeEA","equaldotanddens","equaldotsize","randomdotsizeEA","equaldotanddens","equaldotsize","randomdotsizeEA","randomdotsizeEA","equaldotanddens","equaldotsize","randomdotsizeEA","randomdotsizeEA","equaldotsize","equaldotanddens","equaldotsize","equaldotsize","equaldotanddens","randomdotsizeEA","equaldotanddens","equaldotsize","equaldotsize","equaldotanddens","equaldotanddens","equaldotsize","equaldotanddens","equaldotanddens","equaldotanddens","equaldotsize","randomdotsizeEA","randomdotsizeEA","randomdotsizeEA","randomdotsizeEA","equaldotanddens","equaldotanddens","equaldotanddens","equaldotanddens","randomdotsizeEA","randomdotsizeEA","equaldotanddens","randomdotsizeEA","equaldotanddens","randomdotsizeEA","equaldotanddens","randomdotsizeEA","equaldotanddens","randomdotsizeEA","randomdotsizeEA","equaldotanddens","equaldotsize","equaldotanddens","equaldotsize","equaldotsize","randomdotsizeEA","equaldotanddens","equaldotsize","randomdotsizeEA","equaldotsize"],"ratio_trial":[900,500,500,750,750,750,250,500,500,750,750,250,750,500,250,250,250,900,750,750,900,900,250,750,500,900,900,250,500,900,250,250,500,900,750,250,250,500,500,250,750,900,900,750,250,500,500,500,250,500,750,500,750,500,500,500,750,750,900,500,750,250,500,250,900,750,250,500,250,250,900,750,500,250,500,900,900,750,250,900,750,900,900,900,250,900,750,500,250,750,900,750,900,900,750,750,250,900,500,500,500,250,250,250,750,500,500,750,900,250,750,900,900,500,900,900,250,750,900,250],"smaller_num":["18","1","10","15","15","9","3","2","1","15","18","6","3","6","4","6","5","9","15","12","9","18","2","6","6","18","18","3","2","9","4","5","5","9","3","6","2","3","2","5","15","18","18","3","2","6","1","1","6","2","3","9","6","4","10","2","3","15","9","4","3","5","3","3","9","15","6","4","4","3","18","3","1","2","9","9","18","15","3","9","3","18","18","18","6","9","3","1","4","15","18","15","9","18","3","15","5","18","2","10","5","3","2","3","3","9","1","18","18","6","6","18","18","2","9","18","3","15","9","3"],"larger_num":["20","2","20","20","20","12","12","4","2","20","24","24","4","12","16","24","20","10","20","16","10","20","8","8","12","20","20","12","4","10","16","20","10","10","4","24","8","6","4","20","20","20","20","4","8","12","2","2","24","4","4","18","8","8","20","4","4","20","10","8","4","20","6","12","10","20","24","8","16","12","20","4","2","8","18","10","20","20","12","10","4","20","20","20","24","10","4","2","16","20","20","20","10","20","4","20","20","20","4","20","10","12","8","12","4","18","2","24","20","24","8","20","20","4","10","20","12","20","10","12"],"correct_side":[1,2,2,1,2,2,2,1,2,2,1,2,2,1,1,2,2,2,1,2,2,2,2,2,1,2,1,1,1,1,2,2,2,2,1,1,1,2,1,2,1,1,1,1,1,1,2,2,2,1,1,2,1,1,2,2,2,2,1,1,2,2,2,1,2,1,2,1,1,2,2,2,2,1,1,1,1,2,2,2,1,1,2,1,2,2,1,2,2,2,1,2,1,2,1,2,2,1,1,2,1,1,1,2,1,2,2,1,2,2,1,1,2,1,2,2,1,2,2,1],"img_shown":["img/900/randomdotsizeEA/L/8_Ratio_900_L_20_R_18.png","img/500/equaldotsize/R/12_Ratio_500_L_1_R_2.png","img/500/equaldotanddens/R/3_Ratio_500_L_10_R_20.png","img/750/equaldotsize/L/1_Ratio_750_L_20_R_15.png","img/750/equaldotanddens/R/5_Ratio_750_L_15_R_20.png","img/750/randomdotsizeEA/R/15_Ratio_750_L_9_R_12.png","img/250/equaldotsize/R/4_Ratio_250_L_3_R_12.png","img/500/equaldotsize/L/10_Ratio_500_L_4_R_2.png","img/500/randomdotsizeEA/R/15_Ratio_500_L_1_R_2.png","img/750/equaldotsize/R/3_Ratio_750_L_15_R_20.png","img/750/equaldotanddens/L/6_Ratio_750_L_24_R_18.png","img/250/equaldotsize/R/6_Ratio_250_L_6_R_24.png","img/750/equaldotsize/R/7_Ratio_750_L_3_R_4.png","img/500/equaldotsize/L/11_Ratio_500_L_12_R_6.png","img/250/equaldotanddens/L/2_Ratio_250_L_16_R_4.png","img/250/equaldotsize/R/6_Ratio_250_L_6_R_24.png","img/250/randomdotsizeEA/R/12_Ratio_250_L_5_R_20.png","img/900/equaldotsize/R/6_Ratio_900_L_9_R_10.png","img/750/equaldotanddens/L/1_Ratio_750_L_20_R_15.png","img/750/equaldotsize/R/11_Ratio_750_L_12_R_16.png","img/900/equaldotsize/R/6_Ratio_900_L_9_R_10.png","img/900/equaldotanddens/R/12_Ratio_900_L_18_R_20.png","img/250/equaldotanddens/R/13_Ratio_250_L_2_R_8.png","img/750/equaldotanddens/R/2_Ratio_750_L_6_R_8.png","img/500/equaldotanddens/L/11_Ratio_500_L_12_R_6.png","img/900/randomdotsizeEA/R/9_Ratio_900_L_18_R_20.png","img/900/randomdotsizeEA/L/10_Ratio_900_L_20_R_18.png","img/250/equaldotanddens/L/15_Ratio_250_L_12_R_3.png","img/500/equaldotsize/L/5_Ratio_500_L_4_R_2.png","img/900/equaldotsize/L/1_Ratio_900_L_10_R_9.png","img/250/equaldotsize/R/10_Ratio_250_L_4_R_16.png","img/250/equaldotsize/R/12_Ratio_250_L_5_R_20.png","img/500/randomdotsizeEA/R/14_Ratio_500_L_5_R_10.png","img/900/equaldotanddens/R/15_Ratio_900_L_9_R_10.png","img/750/randomdotsizeEA/L/8_Ratio_750_L_4_R_3.png","img/250/randomdotsizeEA/L/5_Ratio_250_L_24_R_6.png","img/250/equaldotanddens/L/7_Ratio_250_L_8_R_2.png","img/500/equaldotsize/R/2_Ratio_500_L_3_R_6.png","img/500/equaldotanddens/L/10_Ratio_500_L_4_R_2.png","img/250/equaldotsize/R/12_Ratio_250_L_5_R_20.png","img/750/randomdotsizeEA/L/1_Ratio_750_L_20_R_15.png","img/900/randomdotsizeEA/L/4_Ratio_900_L_20_R_18.png","img/900/equaldotanddens/L/8_Ratio_900_L_20_R_18.png","img/750/randomdotsizeEA/L/8_Ratio_750_L_4_R_3.png","img/250/randomdotsizeEA/L/3_Ratio_250_L_8_R_2.png","img/500/randomdotsizeEA/L/11_Ratio_500_L_12_R_6.png","img/500/equaldotsize/R/15_Ratio_500_L_1_R_2.png","img/500/randomdotsizeEA/R/15_Ratio_500_L_1_R_2.png","img/250/equaldotsize/R/6_Ratio_250_L_6_R_24.png","img/500/randomdotsizeEA/L/10_Ratio_500_L_4_R_2.png","img/750/randomdotsizeEA/L/9_Ratio_750_L_4_R_3.png","img/500/equaldotsize/R/6_Ratio_500_L_9_R_18.png","img/750/equaldotsize/L/14_Ratio_750_L_8_R_6.png","img/500/equaldotanddens/L/8_Ratio_500_L_8_R_4.png","img/500/equaldotanddens/R/3_Ratio_500_L_10_R_20.png","img/500/equaldotanddens/R/9_Ratio_500_L_2_R_4.png","img/750/equaldotanddens/R/7_Ratio_750_L_3_R_4.png","img/750/randomdotsizeEA/R/3_Ratio_750_L_15_R_20.png","img/900/equaldotsize/L/1_Ratio_900_L_10_R_9.png","img/500/equaldotsize/L/8_Ratio_500_L_8_R_4.png","img/750/equaldotsize/R/7_Ratio_750_L_3_R_4.png","img/250/randomdotsizeEA/R/12_Ratio_250_L_5_R_20.png","img/500/randomdotsizeEA/R/2_Ratio_500_L_3_R_6.png","img/250/randomdotsizeEA/L/15_Ratio_250_L_12_R_3.png","img/900/equaldotanddens/R/15_Ratio_900_L_9_R_10.png","img/750/equaldotsize/L/1_Ratio_750_L_20_R_15.png","img/250/randomdotsizeEA/R/6_Ratio_250_L_6_R_24.png","img/500/equaldotanddens/L/8_Ratio_500_L_8_R_4.png","img/250/equaldotsize/L/2_Ratio_250_L_16_R_4.png","img/250/randomdotsizeEA/R/9_Ratio_250_L_3_R_12.png","img/900/randomdotsizeEA/R/13_Ratio_900_L_18_R_20.png","img/750/equaldotanddens/R/12_Ratio_750_L_3_R_4.png","img/500/equaldotsize/R/12_Ratio_500_L_1_R_2.png","img/250/randomdotsizeEA/L/1_Ratio_250_L_8_R_2.png","img/500/randomdotsizeEA/L/4_Ratio_500_L_18_R_9.png","img/900/equaldotsize/L/1_Ratio_900_L_10_R_9.png","img/900/equaldotanddens/L/4_Ratio_900_L_20_R_18.png","img/750/equaldotsize/R/4_Ratio_750_L_15_R_20.png","img/250/equaldotsize/R/4_Ratio_250_L_3_R_12.png","img/900/equaldotanddens/R/7_Ratio_900_L_9_R_10.png","img/750/randomdotsizeEA/L/9_Ratio_750_L_4_R_3.png","img/900/equaldotanddens/L/8_Ratio_900_L_20_R_18.png","img/900/equaldotsize/R/9_Ratio_900_L_18_R_20.png","img/900/equaldotsize/L/8_Ratio_900_L_20_R_18.png","img/250/equaldotanddens/R/6_Ratio_250_L_6_R_24.png","img/900/equaldotanddens/R/3_Ratio_900_L_9_R_10.png","img/750/equaldotsize/L/9_Ratio_750_L_4_R_3.png","img/500/equaldotanddens/R/15_Ratio_500_L_1_R_2.png","img/250/equaldotanddens/R/10_Ratio_250_L_4_R_16.png","img/750/equaldotanddens/R/4_Ratio_750_L_15_R_20.png","img/900/equaldotsize/L/10_Ratio_900_L_20_R_18.png","img/750/randomdotsizeEA/R/3_Ratio_750_L_15_R_20.png","img/900/randomdotsizeEA/L/1_Ratio_900_L_10_R_9.png","img/900/randomdotsizeEA/R/9_Ratio_900_L_18_R_20.png","img/750/randomdotsizeEA/L/8_Ratio_750_L_4_R_3.png","img/750/equaldotanddens/R/3_Ratio_750_L_15_R_20.png","img/250/equaldotanddens/R/12_Ratio_250_L_5_R_20.png","img/900/equaldotanddens/L/8_Ratio_900_L_20_R_18.png","img/500/equaldotanddens/L/10_Ratio_500_L_4_R_2.png","img/500/randomdotsizeEA/R/3_Ratio_500_L_10_R_20.png","img/500/randomdotsizeEA/L/7_Ratio_500_L_10_R_5.png","img/250/equaldotanddens/L/14_Ratio_250_L_12_R_3.png","img/250/randomdotsizeEA/L/7_Ratio_250_L_8_R_2.png","img/250/equaldotanddens/R/9_Ratio_250_L_3_R_12.png","img/750/randomdotsizeEA/L/9_Ratio_750_L_4_R_3.png","img/500/equaldotanddens/R/6_Ratio_500_L_9_R_18.png","img/500/randomdotsizeEA/R/15_Ratio_500_L_1_R_2.png","img/750/equaldotanddens/L/6_Ratio_750_L_24_R_18.png","img/900/randomdotsizeEA/R/13_Ratio_900_L_18_R_20.png","img/250/randomdotsizeEA/R/6_Ratio_250_L_6_R_24.png","img/750/equaldotanddens/L/13_Ratio_750_L_8_R_6.png","img/900/equaldotsize/L/2_Ratio_900_L_20_R_18.png","img/900/equaldotanddens/R/9_Ratio_900_L_18_R_20.png","img/500/equaldotsize/L/5_Ratio_500_L_4_R_2.png","img/900/equaldotsize/R/5_Ratio_900_L_9_R_10.png","img/900/randomdotsizeEA/R/12_Ratio_900_L_18_R_20.png","img/250/equaldotanddens/L/15_Ratio_250_L_12_R_3.png","img/750/equaldotsize/R/3_Ratio_750_L_15_R_20.png","img/900/randomdotsizeEA/R/3_Ratio_900_L_9_R_10.png","img/250/equaldotsize/L/15_Ratio_250_L_12_R_3.png"],"Rat0":[["12_Ratio_0_L_9_R_0.png","13_Ratio_0_L_6_R_0.png","5_Ratio_0_L_2_R_0.png","6_Ratio_0_L_4_R_0.png","8_Ratio_0_L_6_R_0.png"],["1_Ratio_0_L_0_R_17.png","10_Ratio_0_L_0_R_22.png","11_Ratio_0_L_0_R_1.png","14_Ratio_0_L_0_R_24.png","15_Ratio_0_L_0_R_4.png","2_Ratio_0_L_0_R_5.png","3_Ratio_0_L_0_R_17.png","4_Ratio_0_L_0_R_7.png","7_Ratio_0_L_0_R_19.png","9_Ratio_0_L_0_R_15.png"]],"Rat250":[["1_Ratio_250_L_8_R_2.png","14_Ratio_250_L_12_R_3.png","15_Ratio_250_L_12_R_3.png","2_Ratio_250_L_16_R_4.png","3_Ratio_250_L_8_R_2.png","5_Ratio_250_L_24_R_6.png","7_Ratio_250_L_8_R_2.png"],["10_Ratio_250_L_4_R_16.png","11_Ratio_250_L_3_R_12.png","12_Ratio_250_L_5_R_20.png","13_Ratio_250_L_2_R_8.png","4_Ratio_250_L_3_R_12.png","6_Ratio_250_L_6_R_24.png","8_Ratio_250_L_1_R_4.png","9_Ratio_250_L_3_R_12.png"]],"Rat500":[["10_Ratio_500_L_4_R_2.png","11_Ratio_500_L_12_R_6.png","13_Ratio_500_L_12_R_6.png","4_Ratio_500_L_18_R_9.png","5_Ratio_500_L_4_R_2.png","7_Ratio_500_L_10_R_5.png","8_Ratio_500_L_8_R_4.png"],["1_Ratio_500_L_9_R_18.png","12_Ratio_500_L_1_R_2.png","14_Ratio_500_L_5_R_10.png","15_Ratio_500_L_1_R_2.png","2_Ratio_500_L_3_R_6.png","3_Ratio_500_L_10_R_20.png","6_Ratio_500_L_9_R_18.png","9_Ratio_500_L_2_R_4.png"]],"Rat750":[["1_Ratio_750_L_20_R_15.png","10_Ratio_750_L_4_R_3.png","13_Ratio_750_L_8_R_6.png","14_Ratio_750_L_8_R_6.png","6_Ratio_750_L_24_R_18.png","8_Ratio_750_L_4_R_3.png","9_Ratio_750_L_4_R_3.png"],["11_Ratio_750_L_12_R_16.png","12_Ratio_750_L_3_R_4.png","15_Ratio_750_L_9_R_12.png","2_Ratio_750_L_6_R_8.png","3_Ratio_750_L_15_R_20.png","4_Ratio_750_L_15_R_20.png","5_Ratio_750_L_15_R_20.png","7_Ratio_750_L_3_R_4.png"]],"Rat900":[["1_Ratio_900_L_10_R_9.png","10_Ratio_900_L_20_R_18.png","2_Ratio_900_L_20_R_18.png","4_Ratio_900_L_20_R_18.png","8_Ratio_900_L_20_R_18.png"],["11_Ratio_900_L_18_R_20.png","12_Ratio_900_L_18_R_20.png","13_Ratio_900_L_18_R_20.png","14_Ratio_900_L_18_R_20.png","15_Ratio_900_L_9_R_10.png","3_Ratio_900_L_9_R_10.png","5_Ratio_900_L_9_R_10.png","6_Ratio_900_L_9_R_10.png","7_Ratio_900_L_9_R_10.png","9_Ratio_900_L_18_R_20.png"]],"Rat1000":[["10_Ratio_1000_L_16_R_16.png","11_Ratio_1000_L_6_R_6.png","12_Ratio_1000_L_14_R_14.png","13_Ratio_1000_L_20_R_20.png","15_Ratio_1000_L_15_R_15.png","2_Ratio_1000_L_17_R_17.png","4_Ratio_1000_L_9_R_9.png","5_Ratio_1000_L_6_R_6.png","6_Ratio_1000_L_19_R_19.png","8_Ratio_1000_L_14_R_14.png","9_Ratio_1000_L_25_R_25.png"],["1_Ratio_1000_L_1_R_1.png","14_Ratio_1000_L_17_R_17.png","3_Ratio_1000_L_17_R_17.png","7_Ratio_1000_L_6_R_6.png"]]}},{"start_time":1551887713155,"click_time":1551887729285,"finger_time":1551887728645,"fix_duration":1207.0906358636637,"trial":1,"RT":15490,"MT":640,"sideResp":2,"stimulus":"img/500/equaldotsize/R/12_Ratio_500_L_1_R_2.png","xmouse":[773,773,773,773,773,773,773,773,773,773,773,773,773,773,773,773,773,773,773,773,773,773,773,773,773,773,773,773,773,773,773,773,773,773,773,773,773,773,773,773,773,773,773,773,773,773,773,773,773,773,773,773,773,773,773,773,773,773,773,773,773,773,773,773,773,773,773,773,773,773,773,773,773,773,773,773,773,773,773,773,773,773,773,773,773,773,773,773,773,773,773,773,773,773,773,773,773,773,773,773,773,773,773,773,773,773,773,773,773,773,773,773,773,773,773,773,773,773,773,773,773,773,773,773,773,773,773,773,773,773,773,773,773,773,773,773,773,773,773,773,773,773,773,773,773,773,773,773,773,773,773,773,773,773,773,773,773,773,773,773,773,773,773,773,773,773,773,773,773,773,773,773,773,773,773,773,773,773,773,773,773,773,773,773,773,773,773,773,773,773,773,773,773,773,773,773,773,773,773,773,773,773,773,773,773,773,773,773,773,773,773,773,773,773,773,773,773,773,773,773,773,773,773,773,773,773,773,773,773,773,773,773,773,773,773,773,773,773,773,773,773,773,773,773,773,773,773,773,773,773,773,773,773,773,773,773,773,773,773,773,773,773,773,773,773,773,773,773,773,773,773,773,773,773,773,773,773,773,773,773,773,773,773,773,773,773,773,773,773,773,773,773,773,773,773,773,773,773,773,773,773,773,773,773,773,773,773,773,773,773,773,773,773,773,773,773,773,773,773,773,773,773,773,773,773,773,773,773,773,773,773,773,773,773,773,773,773,773,773,773,773,773,773,773,773,773,773,773,773,773,773,773,773,773,773,773,773,773,773,773,773,773,773,773,773,773,773,773,773,773,773,773,773,773,773,773,773,773,773,773,773,773,773,773,773,773,773,773,773,773,773,773,773,773,773,773,773,773,773,773,773,773,773,773,773,773,773,773,773,773,773,773,773,773,773,773,773,773,773,773,773,773,773,773,773,773,773,773,773,773,773,773,773,773,773,773,773,773,773,773,773,773,773,773,773,773,773,773,773,773,773,773,773,773,773,773,773,773,773,773,773,773,773,773,773,773,773,773,773,773,773,773,773,773,773,773,773,773,773,773,773,773,773,773,773,773,773,773,773,773,773,773,773,773,773,773,773,773,773,773,773,773,773,773,773,773,773,773,773,773,773,773,773,773,773,773,773,773,773,773,773,773,773,773,773,773,773,773,773,773,773,773,773,773,773,773,773,773,773,773,773,773,773,773,773,773,773,773,773,773,773,773,773,773,773,773,773,773,773,773,773,773,773,773,773,773,773,773,773,773,773,773,773,773,773,773,773,773,773,773,773,773,773,773,773,773,773,773,773,773,773,773,773,773,773,773,773,773,773,773,773,773,773,773,773,773,773,773,773,773,773,773,773,773,773,773,773,773,773,773,773,773,773,773,773,773,773,773,773,773,773,773,773,773,773,773,773,773,773,773,773,773,773,773,773,773,773,773,773,773,773,773,773,773,773,773,773,773,773,773,773,773,773,773,773,773,773,773,773,773,773,773,773,773,773,773,773,773,773,773,773,773,773,773,773,773,773,773,773,773,773,773,773,773,773,773,773,773,773,773,773,773,773,773,773,773,773,773,773,773,773,773,773,773,773,773,773,773,773,773,773,773,773,773,773,773,773,773,773,773,773,773,773,773,773,773,773,773,773,773,773,773,773,773,773,773,773,773,773,773,773,773,773,773,773,773,773,773,773,773,773,773,773,773,773,773,773,773,773,773,773,773,782,798,899,953,1016,1075,1110,1129,1132,1134,1136,1161,1177,1186,1188,1186,1181,1178,1176,1170,1158,1150,1153,1156,1161,1162,1163,1163,1163,1163,1163,1163,1154,1139,1124],"ymouse":[587,587,587,587,587,587,587,587,587,587,587,587,587,587,587,587,587,587,587,587,587,587,587,587,587,587,587,587,587,587,587,587,587,587,587,587,587,587,587,587,587,587,587,587,587,587,587,587,587,587,587,587,587,587,587,587,587,587,587,587,587,587,587,587,587,587,587,587,587,587,587,587,587,587,587,587,587,587,587,587,587,587,587,587,587,587,587,587,587,587,587,587,587,587,587,587,587,587,587,587,587,587,587,587,587,587,587,587,587,587,587,587,587,587,587,587,587,587,587,587,587,587,587,587,587,587,587,587,587,587,587,587,587,587,587,587,587,587,587,587,587,587,587,587,587,587,587,587,587,587,587,587,587,587,587,587,587,587,587,587,587,587,587,587,587,587,587,587,587,587,587,587,587,587,587,587,587,587,587,587,587,587,587,587,587,587,587,587,587,587,587,587,587,587,587,587,587,587,587,587,587,587,587,587,587,587,587,587,587,587,587,587,587,587,587,587,587,587,587,587,587,587,587,587,587,587,587,587,587,587,587,587,587,587,587,587,587,587,587,587,587,587,587,587,587,587,587,587,587,587,587,587,587,587,587,587,587,587,587,587,587,587,587,587,587,587,587,587,587,587,587,587,587,587,587,587,587,587,587,587,587,587,587,587,587,587,587,587,587,587,587,587,587,587,587,587,587,587,587,587,587,587,587,587,587,587,587,587,587,587,587,587,587,587,587,587,587,587,587,587,587,587,587,587,587,587,587,587,587,587,587,587,587,587,587,587,587,587,587,587,587,587,587,587,587,587,587,587,587,587,587,587,587,587,587,587,587,587,587,587,587,587,587,587,587,587,587,587,587,587,587,587,587,587,587,587,587,587,587,587,587,587,587,587,587,587,587,587,587,587,587,587,587,587,587,587,587,587,587,587,587,587,587,587,587,587,587,587,587,587,587,587,587,587,587,587,587,587,587,587,587,587,587,587,587,587,587,587,587,587,587,587,587,587,587,587,587,587,587,587,587,587,587,587,587,587,587,587,587,587,587,587,587,587,587,587,587,587,587,587,587,587,587,587,587,587,587,587,587,587,587,587,587,587,587,587,587,587,587,587,587,587,587,587,587,587,587,587,587,587,587,587,587,587,587,587,587,587,587,587,587,587,587,587,587,587,587,587,587,587,587,587,587,587,587,587,587,587,587,587,587,587,587,587,587,587,587,587,587,587,587,587,587,587,587,587,587,587,587,587,587,587,587,587,587,587,587,587,587,587,587,587,587,587,587,587,587,587,587,587,587,587,587,587,587,587,587,587,587,587,587,587,587,587,587,587,587,587,587,587,587,587,587,587,587,587,587,587,587,587,587,587,587,587,587,587,587,587,587,587,587,587,587,587,587,587,587,587,587,587,587,587,587,587,587,587,587,587,587,587,587,587,587,587,587,587,587,587,587,587,587,587,587,587,587,587,587,587,587,587,587,587,587,587,587,587,587,587,587,587,587,587,587,587,587,587,587,587,587,587,587,587,587,587,587,587,587,587,587,587,587,587,587,587,587,587,587,587,587,587,587,587,587,587,587,587,587,587,587,587,587,587,587,587,587,587,587,587,587,587,587,587,587,587,587,587,587,587,587,587,587,587,587,587,587,587,587,587,587,587,587,587,587,587,587,587,587,587,587,587,587,587,587,587,587,587,587,587,587,587,587,587,587,587,587,587,587,587,587,587,587,587,587,587,587,587,587,587,587,587,587,587,587,587,587,587,587,587,587,587,587,587,590,598,609,609,609,606,601,591,582,568,556,509,489,467,434,397,342,319,293,258,222,192,144,135,124,119,116,109,108,107,105,105,104,102,99],"timestamp_mouse":[9,29,49,70,90,109,131,150,169,191,209,230,249,271,291,310,330,350,370,390,409,429,450,471,491,510,530,549,570,590,609,631,649,669,690,709,730,749,771,789,810,831,849,871,889,909,930,949,970,990,1010,1029,1050,1069,1089,1110,1130,1150,1170,1190,1210,1230,1250,1270,1290,1309,1330,1350,1369,1389,1410,1430,1450,1470,1491,1509,1530,1549,1569,1590,1611,1629,1650,1670,1690,1710,1731,1750,1769,1789,1810,1830,1850,1870,1890,1909,1930,1950,1970,1990,2010,2029,2050,2069,2091,2109,2130,2150,2169,2190,2209,2231,2250,2270,2290,2309,2330,2349,2370,2390,2410,2429,2450,2471,2490,2509,2531,2549,2570,2590,2609,2630,2650,2669,2691,2709,2729,2750,2770,2790,2809,2830,2850,2869,2891,2909,2931,2950,2970,2990,3010,3029,3051,3071,3090,3110,3129,3151,3171,3190,3211,3229,3250,3270,3291,3309,3329,3350,3370,3390,3411,3429,3450,3469,3491,3511,3529,3551,3570,3589,3610,3630,3650,3670,3690,3709,3731,3749,3770,3789,3810,3830,3850,3871,3890,3909,3929,3949,3971,3991,4010,4030,4051,4071,4091,4111,4129,4150,4171,4190,4211,4231,4251,4270,4290,4311,4331,4349,4370,4390,4410,4430,4449,4470,4490,4511,4529,4551,4570,4590,4611,4631,4649,4670,4690,4711,4729,4749,4770,4789,4811,4829,4851,4869,4889,4911,4929,4951,4970,4990,5011,5029,5050,5069,5090,5110,5129,5149,5170,5189,5209,5231,5249,5271,5289,5310,5330,5351,5371,5389,5410,5430,5451,5470,5490,5510,5530,5550,5570,5590,5610,5631,5650,5670,5690,5711,5731,5749,5771,5790,5811,5830,5849,5870,5891,5910,5931,5950,5970,5991,6010,6030,6050,6069,6090,6110,6130,6150,6170,6190,6210,6230,6250,6270,6290,6311,6329,6349,6370,6390,6411,6431,6450,6470,6490,6509,6531,6549,6569,6590,6609,6631,6651,6670,6690,6710,6730,6749,6770,6789,6810,6830,6850,6869,6890,6909,6929,6949,6970,6990,7010,7031,7049,7070,7090,7109,7131,7149,7170,7190,7210,7230,7251,7269,7290,7311,7330,7351,7370,7390,7411,7429,7451,7470,7491,7511,7529,7551,7571,7591,7610,7630,7650,7671,7690,7709,7731,7750,7770,7790,7810,7831,7851,7869,7890,7909,7929,7951,7971,7990,8011,8031,8051,8069,8091,8117,8131,8150,8170,8189,8211,8230,8250,8270,8290,8309,8330,8351,8370,8389,8411,8431,8451,8470,8491,8510,8530,8550,8570,8591,8611,8630,8650,8670,8689,8711,8730,8751,8770,8790,8809,8830,8851,8871,8891,8910,8931,8951,8971,8989,9010,9031,9050,9069,9091,9109,9130,9151,9170,9190,9209,9231,9251,9270,9291,9309,9330,9351,9370,9389,9411,9431,9450,9470,9490,9510,9531,9551,9571,9589,9611,9630,9651,9670,9691,9711,9729,9751,9771,9790,9811,9831,9851,9870,9890,9910,9930,9951,9971,9990,10010,10031,10050,10071,10089,10110,10130,10149,10171,10190,10209,10231,10250,10270,10291,10309,10330,10350,10370,10390,10410,10431,10451,10470,10489,10511,10531,10549,10570,10591,10610,10630,10651,10669,10691,10710,10730,10751,10771,10791,10810,10830,10850,10870,10891,10911,10930,10949,10971,10989,11009,11030,11051,11071,11089,11110,11131,11151,11170,11190,11210,11229,11251,11269,11291,11310,11330,11351,11371,11390,11411,11430,11450,11471,11489,11511,11530,11551,11571,11589,11609,11630,11649,11671,11689,11710,11731,11749,11770,11791,11810,11830,11851,11870,11890,11911,11929,11950,11970,11989,12011,12031,12049,12070,12091,12111,12129,12151,12169,12190,12211,12229,12251,12270,12290,12311,12331,12349,12370,12391,12410,12431,12451,12470,12489,12510,12530,12550,12571,12590,12609,12630,12651,12670,12691,12711,12730,12750,12770,12790,12810,12830,12850,12870,12891,12909,12931,12950,12969,12991,13011,13029,13050,13071,13091,13109,13131,13150,13169,13191,13210,13229,13250,13270,13290,13310,13330,13351,13370,13391,13411,13429,13451,13471,13490,13510,13530,13549,13570,13590,13610,13631,13651,13669,13690,13710,13731,13749,13770,13791,13811,13829,13851,13871,13891,13910,13929,13950,13970,13990,14011,14030,14050,14071,14090,14109,14131,14149,14169,14190,14209,14230,14250,14271,14289,14311,14331,14351,14370,14391,14411,14431,14451,14470,14490,14509,14531,14551,14569,14589,14610,14629,14650,14670,14690,14710,14730,14751,14770,14790,14809,14831,14849,14870,14890,14910,14929,14950,14970,14989,15010,15030,15050,15070,15089,15110,15130,15151,15171,15191,15209,15231,15250,15270,15289,15311,15329,15351,15370,15390,15411,15431,15450,15470,15490,15511,15529,15550,15570,15590,15610,15630,15651,15670,15689,15709,15731,15749,15770,15790,15810,15830,15849,15870,15891,15909,15930,15950,15970,15990,16011,16030,16050,16071,16090,16110,16130],"xSR":741.5,"ySR":573.95,"xT1":424.9,"yT1":0,"xT2":1058.1,"yT2":0,"toosoon":0,"cond_shown":"equaldotsize","ratio_trial":500,"smaller_num":"1","larger_num":"2","correct_side":2,"subjID":"juanavalentinauribeinfante36","gender":"1","age":"10","school":"sexto"},{"start_time":1551887734456,"click_time":1551887736605,"finger_time":1551887736024,"fix_duration":589.9311938745151,"trial":2,"RT":1568,"MT":581,"sideResp":2,"stimulus":"img/500/equaldotanddens/R/3_Ratio_500_L_10_R_20.png","xmouse":[799,799,799,799,799,799,799,799,799,799,799,799,799,799,799,799,799,799,799,799,799,799,799,799,799,799,799,799,799,799,799,799,799,799,799,799,799,799,799,799,799,799,799,799,799,799,799,799,799,799,799,799,799,799,799,799,799,799,799,799,799,799,799,799,799,799,799,799,799,799,799,799,799,799,799,799,806,833,859,888,906,927,955,1002,1018,1026,1030,1033,1035,1035,1035,1035,1034,1032,1032,1034,1039,1047,1054,1064,1067,1068,1070,1075,1081,1088,1093,1093],"ymouse":[657,657,657,657,657,657,657,657,657,657,657,657,657,657,657,657,657,657,657,657,657,657,657,657,657,657,657,657,657,657,657,657,657,657,657,657,657,657,657,657,657,657,657,657,657,657,657,657,657,657,657,657,657,657,657,657,657,657,657,657,657,657,657,657,657,657,657,657,657,657,657,657,657,657,657,655,649,632,610,578,559,541,518,480,465,453,442,430,403,391,377,361,345,310,294,277,261,245,227,203,191,180,169,145,131,119,107,99],"timestamp_mouse":[9,28,49,70,89,109,130,150,183,189,209,229,250,270,288,308,328,349,369,389,410,429,448,469,489,508,529,549,569,590,609,629,648,669,690,710,730,748,770,789,809,828,850,869,888,910,930,949,968,990,1009,1029,1049,1068,1090,1108,1128,1149,1168,1190,1210,1230,1249,1269,1290,1310,1330,1348,1370,1389,1410,1428,1449,1470,1488,1508,1528,1550,1568,1589,1608,1630,1649,1669,1688,1708,1728,1749,1769,1789,1808,1829,1849,1869,1889,1909,1930,1948,1969,1989,2010,2030,2049,2069,2088,2109,2128,2149],"xSR":741.5,"ySR":573.95,"xT1":424.9,"yT1":0,"xT2":1058.1,"yT2":0,"toosoon":0,"cond_shown":"equaldotanddens","ratio_trial":500,"smaller_num":"10","larger_num":"20","correct_side":2,"subjID":"juanavalentinauribeinfante36","gender":"1","age":"10","school":"sexto"},{"start_time":1551887738659,"click_time":1551887739845,"finger_time":1551887739425,"fix_duration":1353.4876743797015,"trial":3,"RT":766,"MT":420,"sideResp":1,"stimulus":"img/750/equaldotsize/L/1_Ratio_750_L_20_R_15.png","xmouse":[744,744,744,744,744,744,744,744,744,744,744,744,744,744,744,744,744,744,744,744,744,744,744,744,744,744,744,744,744,744,744,744,744,744,744,744,744,744,719,702,682,654,633,614,608,605,600,594,580,563,556,552,550,548,545,542,540,538,534,522],"ymouse":[623,623,623,623,623,623,623,623,623,623,623,623,623,623,623,623,623,623,623,623,623,623,623,623,623,623,623,623,623,623,623,623,623,623,623,623,623,617,533,473,410,348,292,223,200,181,166,153,130,99,89,83,81,79,78,77,75,74,71,60],"timestamp_mouse":[9,27,46,67,87,106,125,147,165,187,206,225,247,266,285,306,326,346,367,387,405,426,447,466,487,506,525,545,566,585,606,626,646,666,687,706,726,746,766,786,806,826,846,866,886,907,925,946,965,985,1005,1025,1046,1065,1085,1106,1126,1146,1166,1185],"xSR":741.5,"ySR":573.95,"xT1":424.9,"yT1":0,"xT2":1058.1,"yT2":0,"toosoon":0,"cond_shown":"equaldotsize","ratio_trial":750,"smaller_num":"15","larger_num":"20","correct_side":1,"subjID":"juanavalentinauribeinfante36","gender":"1","age":"10","school":"sexto"},{"start_time":1551887741852,"click_time":1551887743025,"finger_time":1551887742585,"fix_duration":1125.4867778199964,"trial":4,"RT":733,"MT":440,"sideResp":2,"stimulus":"img/750/equaldotanddens/R/5_Ratio_750_L_15_R_20.png","xmouse":[797,797,797,797,797,797,797,797,797,797,797,797,797,797,797,797,797,797,797,797,797,797,797,797,797,797,797,797,797,797,797,797,797,797,808,832,888,972,1108,1162,1192,1204,1208,1211,1212,1213,1216,1218,1215,1210,1203,1193,1183,1157,1145,1135,1129,1124,1108],"ymouse":[625,625,625,625,625,625,625,625,625,625,625,625,625,625,625,625,625,625,625,625,625,625,625,625,625,625,625,625,625,625,625,625,625,625,618,604,575,528,452,419,399,388,378,346,323,301,275,254,220,214,203,193,184,163,150,137,123,110,82],"timestamp_mouse":[14,33,54,72,93,114,132,154,172,193,214,232,254,272,294,313,334,352,373,392,414,434,452,474,492,514,533,554,574,592,613,632,654,673,692,713,733,753,773,792,812,833,853,873,893,913,933,954,973,993,1012,1034,1053,1073,1092,1113,1133,1153,1173],"xSR":741.5,"ySR":573.95,"xT1":424.9,"yT1":0,"xT2":1058.1,"yT2":0,"toosoon":0,"cond_shown":"equaldotanddens","ratio_trial":750,"smaller_num":"15","larger_num":"20","correct_side":2,"subjID":"juanavalentinauribeinfante36","gender":"1","age":"10","school":"sexto"},{"start_time":1551887744822,"click_time":1551887746725,"finger_time":1551887746585,"fix_duration":934.0894325908147,"trial":5,"RT":1763,"MT":140,"sideResp":2,"stimulus":"img/750/randomdotsizeEA/R/15_Ratio_750_L_9_R_12.png","xmouse":[761,761,761,761,761,761,761,761,761,761,761,761,761,761,761,761,761,761,761,761,761,761,761,761,761,761,761,761,761,761,761,761,761,761,761,761,755,754,758,766,773,773,773,773,773,773,773,773,773,773,773,773,773,773,773,773,773,773,773,773,773,773,773,773,773,773,773,773,773,773,773,773,773,773,773,773,773,773,773,773,773,773,773,773,773,773,776,782,807,836,894,986,1037,1087,1121,1152],"ymouse":[615,615,615,615,615,615,615,615,615,615,615,615,615,615,615,615,615,615,615,615,615,615,615,615,615,615,615,615,615,615,615,615,615,615,615,615,602,586,580,579,579,579,579,579,579,579,579,579,579,579,579,579,579,579,579,579,579,579,579,579,579,579,579,579,579,579,579,579,579,579,579,579,579,579,579,579,579,579,579,579,579,579,579,579,579,579,579,578,564,546,495,373,285,190,104,34],"timestamp_mouse":[10,30,43,64,83,103,123,143,163,183,203,224,243,263,283,303,324,344,364,383,403,423,444,464,483,503,523,542,563,583,604,622,644,664,683,704,723,744,762,783,803,824,844,863,884,904,924,942,964,984,1003,1023,1043,1064,1083,1103,1123,1142,1164,1183,1204,1222,1244,1263,1283,1303,1324,1342,1364,1383,1403,1423,1444,1464,1484,1503,1522,1543,1563,1584,1604,1623,1643,1664,1683,1702,1723,1744,1763,1782,1803,1824,1843,1863,1883,1903],"xSR":741.5,"ySR":573.95,"xT1":424.9,"yT1":0,"xT2":1058.1,"yT2":0,"toosoon":0,"cond_shown":"randomdotsizeEA","ratio_trial":750,"smaller_num":"9","larger_num":"12","correct_side":2,"subjID":"juanavalentinauribeinfante36","gender":"1","age":"10","school":"sexto"},{"start_time":1551887748632,"click_time":1551887750085,"finger_time":1551887749665,"fix_duration":784.3438721986598,"trial":6,"RT":1033,"MT":420,"sideResp":2,"stimulus":"img/250/equaldotsize/R/4_Ratio_250_L_3_R_12.png","xmouse":[769,769,769,769,769,769,769,769,769,769,769,769,769,769,769,769,769,769,769,769,769,769,769,769,769,769,769,769,769,769,769,769,769,769,769,769,769,769,769,769,769,769,769,769,769,769,769,769,769,770,809,859,931,1012,1104,1280,1341,1382,1406,1422,1421,1412,1402,1391,1380,1374,1369,1340,1309,1264,1195,1172,1148],"ymouse":[642,642,642,642,642,642,642,642,642,642,642,642,642,642,642,642,642,642,642,642,642,642,642,642,642,642,642,642,642,642,642,642,642,642,642,642,642,642,642,642,642,642,642,642,642,642,642,642,642,643,602,552,493,418,334,168,107,61,22,0,0,0,0,0,0,0,0,14,31,56,75,77,77],"timestamp_mouse":[17,38,53,73,94,114,134,153,174,194,212,234,252,273,292,314,333,354,374,393,412,434,453,473,493,514,533,553,573,594,612,632,653,673,693,714,734,752,773,792,814,833,852,873,894,912,934,952,974,993,1013,1033,1052,1072,1094,1113,1133,1153,1172,1192,1212,1233,1254,1272,1293,1312,1332,1352,1374,1392,1413,1434,1453],"xSR":741.5,"ySR":573.95,"xT1":424.9,"yT1":0,"xT2":1058.1,"yT2":0,"toosoon":0,"cond_shown":"equaldotsize","ratio_trial":250,"smaller_num":"3","larger_num":"12","correct_side":2,"subjID":"juanavalentinauribeinfante36","gender":"1","age":"10","school":"sexto"},{"start_time":1551887751517,"click_time":1551887752385,"finger_time":1551887752305,"fix_duration":530.9819431218431,"trial":7,"RT":788,"MT":80,"sideResp":1,"stimulus":"img/500/equaldotsize/L/10_Ratio_500_L_4_R_2.png","xmouse":[791,791,791,791,791,791,791,791,791,791,791,791,791,791,791,791,791,791,791,791,791,791,791,791,791,791,791,791,791,791,791,791,791,791,791,791,791,791,786,775,690,618,552,499],"ymouse":[616,616,616,616,616,616,616,616,616,616,616,616,616,616,616,616,616,616,616,616,616,616,616,616,616,616,616,616,616,616,616,616,616,616,616,616,616,616,584,544,329,217,124,53],"timestamp_mouse":[8,35,48,68,89,109,128,149,167,188,209,228,248,268,288,308,328,348,368,388,407,429,447,468,489,508,528,548,569,587,608,629,649,667,688,709,729,749,769,788,809,828,848,868],"xSR":741.5,"ySR":573.95,"xT1":424.9,"yT1":0,"xT2":1058.1,"yT2":0,"toosoon":0,"cond_shown":"equaldotsize","ratio_trial":500,"smaller_num":"2","larger_num":"4","correct_side":1,"subjID":"juanavalentinauribeinfante36","gender":"1","age":"10","school":"sexto"},{"start_time":1551887754790,"click_time":1551887756885,"finger_time":1551887756445,"fix_duration":1423.1177291155977,"trial":8,"RT":1655,"MT":440,"sideResp":2,"stimulus":"img/500/randomdotsizeEA/R/15_Ratio_500_L_1_R_2.png","xmouse":[777,777,777,777,777,777,777,777,777,777,777,777,777,777,777,777,777,777,777,777,777,777,777,777,777,777,777,777,777,777,777,777,777,777,777,777,777,777,777,777,777,777,777,777,777,777,777,777,777,777,777,777,777,777,777,777,777,777,777,777,777,777,777,777,777,777,777,777,777,777,777,777,777,777,777,777,777,777,777,777,778,799,936,1036,1137,1223,1277,1314,1321,1323,1324,1324,1329,1331,1331,1331,1329,1323,1309,1301,1274,1247,1193,1170,1151],"ymouse":[653,653,653,653,653,653,653,653,653,653,653,653,653,653,653,653,653,653,653,653,653,653,653,653,653,653,653,653,653,653,653,653,653,653,653,653,653,653,653,653,653,653,653,653,653,653,653,653,653,653,653,653,653,653,653,653,653,653,653,653,653,653,653,653,653,653,653,653,653,653,653,653,653,653,653,653,653,653,653,653,653,639,523,431,333,238,181,148,142,139,138,138,117,102,89,84,81,77,73,71,65,61,46,38,30],"timestamp_mouse":[16,34,55,75,95,115,136,156,174,194,215,235,255,276,294,315,335,355,375,394,415,435,455,475,494,516,534,554,576,596,616,634,655,675,696,715,734,755,776,796,814,835,855,876,896,915,935,954,976,995,1014,1035,1056,1075,1095,1115,1136,1154,1175,1195,1214,1235,1256,1275,1296,1315,1336,1355,1375,1395,1416,1436,1454,1476,1495,1515,1535,1554,1576,1596,1616,1635,1655,1674,1695,1715,1734,1754,1775,1795,1816,1835,1856,1875,1895,1915,1934,1955,1974,1995,2015,2035,2055,2074,2095],"xSR":741.5,"ySR":573.95,"xT1":424.9,"yT1":0,"xT2":1058.1,"yT2":0,"toosoon":0,"cond_shown":"randomdotsizeEA","ratio_trial":500,"smaller_num":"1","larger_num":"2","correct_side":2,"subjID":"juanavalentinauribeinfante36","gender":"1","age":"10","school":"sexto"},{"start_time":1551887758444,"click_time":1551887759645,"finger_time":1551887759265,"fix_duration":396.43691562038117,"trial":9,"RT":821,"MT":380,"sideResp":2,"stimulus":"img/750/equaldotsize/R/3_Ratio_750_L_15_R_20.png","xmouse":[750,750,750,750,750,750,750,750,750,750,750,750,750,750,750,750,750,750,750,750,750,750,750,750,750,750,750,750,750,750,750,750,750,750,750,750,750,750,750,752,801,849,898,953,1005,1080,1101,1115,1126,1136,1149,1156,1165,1172,1178,1177,1175,1173,1171,1165,1137],"ymouse":[663,663,663,663,663,663,663,663,663,663,663,663,663,663,663,663,663,663,663,663,663,663,663,663,663,663,663,663,663,663,663,663,663,663,663,663,663,663,663,656,576,505,441,379,329,259,236,215,195,170,141,124,105,83,45,36,33,31,31,30,29],"timestamp_mouse":[8,21,41,61,80,102,122,141,161,180,202,220,241,261,282,301,321,342,362,381,400,420,441,460,482,502,520,542,561,581,602,620,641,661,682,701,721,742,761,781,801,821,841,861,881,901,920,941,961,981,1001,1020,1041,1061,1082,1101,1121,1141,1161,1181,1201],"xSR":741.5,"ySR":573.95,"xT1":424.9,"yT1":0,"xT2":1058.1,"yT2":0,"toosoon":0,"cond_shown":"equaldotsize","ratio_trial":750,"smaller_num":"15","larger_num":"20","correct_side":2,"subjID":"juanavalentinauribeinfante36","gender":"1","age":"10","school":"sexto"},{"start_time":1551887761448,"click_time":1551887762704,"finger_time":1551887762285,"fix_duration":1081.2556811750492,"trial":10,"RT":837,"MT":419,"sideResp":1,"stimulus":"img/750/equaldotanddens/L/6_Ratio_750_L_24_R_18.png","xmouse":[777,777,777,777,777,777,777,777,777,777,777,777,777,777,777,777,777,777,777,777,777,777,777,777,777,777,777,777,777,777,777,777,777,777,784,795,797,794,791,774,757,740,721,685,670,651,633,618,614,601,591,576,565,554,553,551,548,543,538,529,527,525,523],"ymouse":[637,637,637,637,637,637,637,637,637,637,637,637,637,637,637,637,637,637,637,637,637,637,637,637,637,637,637,637,637,637,637,637,637,637,640,650,653,653,652,634,585,487,355,116,23,0,0,0,0,0,0,0,0,0,0,0,0,1,4,10,12,13,14],"timestamp_mouse":[20,37,56,77,96,117,137,156,176,196,217,236,257,276,296,317,336,356,376,396,417,436,456,477,496,516,538,556,576,598,616,636,656,678,696,717,736,757,776,796,816,837,856,878,897,917,937,956,978,996,1017,1037,1056,1077,1096,1117,1137,1158,1177,1197,1217,1237,1256],"xSR":741.5,"ySR":573.95,"xT1":424.9,"yT1":0,"xT2":1058.1,"yT2":0,"toosoon":0,"cond_shown":"equaldotanddens","ratio_trial":750,"smaller_num":"18","larger_num":"24","correct_side":1,"subjID":"juanavalentinauribeinfante36","gender":"1","age":"10","school":"sexto"},{"start_time":1551887766443,"click_time":1551887767344,"finger_time":1551887767125,"fix_duration":1476.3022068862003,"trial":11,"RT":682,"MT":219,"sideResp":2,"stimulus":"img/250/equaldotsize/R/6_Ratio_250_L_6_R_24.png","xmouse":[795,795,795,795,795,795,795,795,795,795,795,795,795,795,795,795,795,795,795,795,795,795,795,795,795,795,795,795,795,795,795,795,795,795,795,795,802,816,830,850,908,949,991,1036,1071,1116],"ymouse":[604,604,604,604,604,604,604,604,604,604,604,604,604,604,604,604,604,604,604,604,604,604,604,604,604,604,604,604,604,604,604,604,604,583,567,488,458,420,388,351,271,225,183,146,115,74],"timestamp_mouse":[9,32,43,62,81,101,121,142,161,181,201,222,242,262,283,301,321,341,362,381,403,421,442,462,481,502,521,542,561,581,601,623,641,661,682,703,721,742,762,781,801,822,841,861,882,901],"xSR":741.5,"ySR":573.95,"xT1":424.9,"yT1":0,"xT2":1058.1,"yT2":0,"toosoon":0,"cond_shown":"equaldotsize","ratio_trial":250,"smaller_num":"6","larger_num":"24","correct_side":2,"subjID":"juanavalentinauribeinfante36","gender":"1","age":"10","school":"sexto"},{"start_time":1551887768908,"click_time":1551887770044,"finger_time":1551887769765,"fix_duration":682.7304841597852,"trial":12,"RT":857,"MT":279,"sideResp":2,"stimulus":"img/750/equaldotsize/R/7_Ratio_750_L_3_R_4.png","xmouse":[818,818,818,818,818,818,818,818,818,818,818,818,818,818,818,818,818,818,818,818,818,818,818,818,818,818,818,818,818,818,818,818,818,818,818,818,818,818,818,818,818,821,841,860,898,930,992,1020,1040,1050,1060,1084,1093,1098,1100,1100,1100],"ymouse":[625,625,625,625,625,625,625,625,625,625,625,625,625,625,625,625,625,625,625,625,625,625,625,625,625,625,625,625,625,625,625,625,625,625,625,625,625,625,625,625,625,610,561,508,444,407,330,291,259,237,213,168,149,136,120,113,98],"timestamp_mouse":[27,36,56,77,98,116,148,157,176,197,218,237,256,276,296,317,336,356,376,397,417,436,456,477,497,518,536,557,576,596,617,636,657,677,696,718,737,757,777,798,817,836,857,876,897,916,936,957,977,996,1016,1036,1056,1078,1096,1117,1136],"xSR":741.5,"ySR":573.95,"xT1":424.9,"yT1":0,"xT2":1058.1,"yT2":0,"toosoon":0,"cond_shown":"equaldotsize","ratio_trial":750,"smaller_num":"3","larger_num":"4","correct_side":2,"subjID":"juanavalentinauribeinfante36","gender":"1","age":"10","school":"sexto"},{"start_time":1551887771350,"click_time":1551887772744,"finger_time":1551887772604,"fix_duration":504.4927327513825,"trial":13,"RT":1254,"MT":140,"sideResp":1,"stimulus":"img/500/equaldotsize/L/11_Ratio_500_L_12_R_6.png","xmouse":[771,771,771,771,771,771,771,771,771,771,771,771,771,771,771,771,771,771,771,771,771,771,771,771,771,771,771,771,771,771,771,771,771,771,771,771,771,771,771,771,771,771,771,771,771,771,771,771,771,771,771,771,771,771,771,771,771,771,771,771,771,767,734,707,648,618,579,545,513,467],"ymouse":[630,630,630,630,630,630,630,630,630,630,630,630,630,630,630,630,630,630,630,630,630,630,630,630,630,630,630,630,630,630,630,630,630,630,630,630,630,630,630,630,630,630,630,630,630,630,630,630,630,630,630,630,630,630,630,630,630,630,630,630,624,603,481,392,276,234,191,157,129,90],"timestamp_mouse":[14,35,54,75,95,114,135,154,174,195,216,235,255,275,295,316,335,354,375,396,415,436,455,475,495,514,535,554,574,595,616,634,655,674,695,715,735,756,775,794,815,834,855,874,895,915,935,955,975,995,1014,1035,1055,1074,1094,1115,1135,1155,1175,1195,1216,1234,1254,1274,1294,1314,1334,1354,1374,1394],"xSR":741.5,"ySR":573.95,"xT1":424.9,"yT1":0,"xT2":1058.1,"yT2":0,"toosoon":0,"cond_shown":"equaldotsize","ratio_trial":500,"smaller_num":"6","larger_num":"12","correct_side":1,"subjID":"juanavalentinauribeinfante36","gender":"1","age":"10","school":"sexto"},{"start_time":1551887777190,"click_time":1551887778384,"finger_time":1551887778184,"fix_duration":1103.714209718283,"trial":14,"RT":994,"MT":200,"sideResp":1,"stimulus":"img/250/equaldotanddens/L/2_Ratio_250_L_16_R_4.png","xmouse":[768,768,768,768,768,768,768,768,768,768,768,768,768,768,768,768,768,768,768,768,768,768,768,768,768,768,768,768,768,768,768,768,768,768,768,768,768,768,768,768,768,768,768,768,768,768,768,768,753,728,698,658,575,538,513,490,465,456,448,442],"ymouse":[638,638,638,638,638,638,638,638,638,638,638,638,638,638,638,638,638,638,638,638,638,638,638,638,638,638,638,638,638,638,638,638,638,638,638,638,638,638,638,638,638,638,638,638,638,638,638,630,579,515,450,380,265,222,188,161,129,117,105,93],"timestamp_mouse":[15,35,55,74,95,115,134,155,175,194,214,234,254,274,295,315,334,354,374,394,414,434,454,475,494,514,536,555,574,596,614,634,654,675,695,714,734,755,775,794,815,835,855,874,896,914,936,955,975,994,1015,1035,1054,1074,1094,1114,1135,1154,1174,1194],"xSR":741.5,"ySR":573.95,"xT1":424.9,"yT1":0,"xT2":1058.1,"yT2":0,"toosoon":0,"cond_shown":"equaldotanddens","ratio_trial":250,"smaller_num":"4","larger_num":"16","correct_side":1,"subjID":"juanavalentinauribeinfante36","gender":"1","age":"10","school":"sexto"},{"start_time":1551887780597,"click_time":1551887781364,"finger_time":1551887781044,"fix_duration":952.7388469716365,"trial":15,"RT":447,"MT":320,"sideResp":2,"stimulus":"img/250/equaldotsize/R/6_Ratio_250_L_6_R_24.png","xmouse":[800,800,800,800,800,800,800,800,800,800,800,800,800,800,800,800,800,800,800,804,817,839,920,960,1000,1040,1113,1141,1164,1176,1177,1178,1178,1178,1170,1163,1149,1147,1139],"ymouse":[668,668,668,668,668,668,668,668,668,668,668,668,668,668,668,668,668,668,668,665,653,628,516,446,379,310,185,137,95,57,46,14,0,0,0,0,0,0,5],"timestamp_mouse":[14,27,47,67,87,109,129,148,167,188,207,228,248,269,288,308,328,347,369,387,407,427,447,467,487,507,528,547,568,588,608,628,648,667,687,707,729,748,767],"xSR":741.5,"ySR":573.95,"xT1":424.9,"yT1":0,"xT2":1058.1,"yT2":0,"toosoon":0,"cond_shown":"equaldotsize","ratio_trial":250,"smaller_num":"6","larger_num":"24","correct_side":2,"subjID":"juanavalentinauribeinfante36","gender":"1","age":"10","school":"sexto"},{"start_time":1551887782654,"click_time":1551887784125,"finger_time":1551887783844,"fix_duration":308.1313071207419,"trial":16,"RT":1190,"MT":281,"sideResp":1,"stimulus":"img/250/randomdotsizeEA/R/12_Ratio_250_L_5_R_20.png","xmouse":[804,804,804,804,804,804,804,804,804,804,804,804,804,804,804,804,804,804,804,804,804,804,804,804,804,804,804,804,804,804,804,804,804,804,804,804,804,804,804,804,804,804,804,804,804,804,804,804,804,804,804,804,804,804,804,804,806,808,810,767,718,676,651,636,612,594,556,525,501,471,463,460,457,448],"ymouse":[645,645,645,645,645,645,645,645,645,645,645,645,645,645,645,645,645,645,645,645,645,645,645,645,645,645,645,645,645,645,645,645,645,645,645,645,645,645,645,645,645,645,645,645,645,645,645,645,645,645,645,645,645,645,645,645,645,635,604,478,408,350,316,292,257,235,203,184,170,147,134,118,101,82],"timestamp_mouse":[10,33,52,71,91,112,130,151,171,191,210,230,250,270,290,310,330,350,370,390,410,430,450,470,490,510,530,550,570,590,611,631,652,670,691,712,731,751,772,790,810,832,851,870,892,911,930,952,970,990,1011,1031,1050,1070,1091,1111,1130,1151,1170,1190,1210,1230,1251,1271,1290,1310,1330,1350,1370,1391,1411,1430,1450,1471],"xSR":741.5,"ySR":573.95,"xT1":424.9,"yT1":0,"xT2":1058.1,"yT2":0,"toosoon":0,"cond_shown":"randomdotsizeEA","ratio_trial":250,"smaller_num":"5","larger_num":"20","correct_side":2,"subjID":"juanavalentinauribeinfante36","gender":"1","age":"10","school":"sexto"},{"start_time":1551887785959,"click_time":1551887787764,"finger_time":1551887787064,"fix_duration":853.0887418381509,"trial":17,"RT":1105,"MT":700,"sideResp":2,"stimulus":"img/900/equaldotsize/R/6_Ratio_900_L_9_R_10.png","xmouse":[828,828,828,828,828,828,828,828,828,828,828,828,828,828,828,828,828,828,828,828,828,828,828,828,828,828,828,828,828,828,828,828,828,828,828,828,828,828,828,828,828,828,828,828,828,828,828,828,828,828,828,828,828,829,829,815,760,703,657,617,613,613,613,613,613,613,613,613,613,613,613,613,616,625,738,757,757,830,845,853,856,857,868,875,893,908,919,939,966,1029,1060],"ymouse":[586,586,586,586,586,586,586,586,586,586,586,586,586,586,586,586,586,586,586,586,586,586,586,586,586,586,586,586,586,586,586,586,586,586,586,586,586,586,586,586,586,586,586,586,586,586,586,586,586,586,586,586,586,586,586,547,334,166,64,23,23,23,23,23,23,23,23,23,23,23,23,23,17,4,0,0,0,0,0,0,2,5,23,32,40,40,40,42,46,46,46],"timestamp_mouse":[10,32,45,67,86,105,125,145,166,186,207,225,245,265,286,305,325,345,365,385,406,425,447,466,485,505,525,545,565,585,607,627,646,666,686,705,726,747,765,785,806,825,846,867,886,906,925,945,967,985,1006,1025,1045,1067,1085,1105,1125,1145,1166,1186,1205,1225,1245,1267,1287,1306,1326,1346,1365,1385,1405,1425,1445,1465,1485,1506,1526,1545,1566,1586,1606,1625,1645,1665,1686,1706,1725,1746,1766,1785,1805],"xSR":741.5,"ySR":573.95,"xT1":424.9,"yT1":0,"xT2":1058.1,"yT2":0,"toosoon":0,"cond_shown":"equaldotsize","ratio_trial":900,"smaller_num":"9","larger_num":"10","correct_side":2,"subjID":"juanavalentinauribeinfante36","gender":"1","age":"10","school":"sexto"},{"start_time":1551887790230,"click_time":1551887791286,"finger_time":1551887790966,"fix_duration":902.9642784150465,"trial":18,"RT":736,"MT":320,"sideResp":1,"stimulus":"img/750/equaldotanddens/L/1_Ratio_750_L_20_R_15.png","xmouse":[799,799,799,799,799,799,799,799,799,799,799,799,799,799,799,799,799,799,799,799,799,799,799,799,799,799,799,799,799,799,799,799,799,799,798,785,775,749,719,679,598,522,496,485,478,469,465,458,456,455,455,455,452],"ymouse":[630,630,630,630,630,630,630,630,630,630,630,630,630,630,630,630,630,630,630,630,630,630,630,630,630,630,630,630,630,630,630,630,630,630,621,589,561,469,359,224,13,0,0,0,0,0,0,0,0,0,0,0,3],"timestamp_mouse":[15,34,55,74,95,115,134,154,174,194,214,235,255,274,294,314,334,355,375,394,414,434,454,475,494,515,535,554,574,596,615,635,656,674,694,714,736,755,775,794,814,834,855,874,894,914,934,954,975,994,1015,1034,1056],"xSR":741.5,"ySR":573.95,"xT1":424.9,"yT1":0,"xT2":1058.1,"yT2":0,"toosoon":0,"cond_shown":"equaldotanddens","ratio_trial":750,"smaller_num":"15","larger_num":"20","correct_side":1,"subjID":"juanavalentinauribeinfante36","gender":"1","age":"10","school":"sexto"},{"start_time":1551887793468,"click_time":1551887797046,"finger_time":1551887796905,"fix_duration":881.5223140667772,"trial":19,"RT":3437,"MT":141,"sideResp":2,"stimulus":"img/750/equaldotsize/R/11_Ratio_750_L_12_R_16.png","xmouse":[788,788,788,788,788,788,788,788,788,788,788,788,788,788,788,788,788,788,788,788,788,788,788,788,788,788,788,788,788,788,788,788,788,788,788,788,788,788,788,788,788,788,788,788,788,788,788,788,788,788,788,788,788,788,788,788,788,788,788,788,788,788,788,788,788,788,788,788,788,788,788,788,788,788,788,788,788,788,788,788,788,788,788,788,788,788,788,788,788,788,788,788,788,788,788,788,788,788,788,788,788,788,788,788,788,788,788,788,788,788,788,788,788,788,788,788,788,788,788,788,788,788,788,788,788,788,788,788,788,788,788,788,788,788,788,788,788,788,788,788,788,788,788,788,788,788,788,788,788,788,788,788,788,788,788,788,788,788,788,788,788,788,788,788,788,788,788,788,788,792,797,821,860,940,995,1009,1049,1067,1095],"ymouse":[650,650,650,650,650,650,650,650,650,650,650,650,650,650,650,650,650,650,650,650,650,650,650,650,650,650,650,650,650,650,650,650,650,650,650,650,650,650,650,650,650,650,650,650,650,650,650,650,650,650,650,650,650,650,650,650,650,650,650,650,650,650,650,650,650,650,650,650,650,650,650,650,650,650,650,650,650,650,650,650,650,650,650,650,650,650,650,650,650,650,650,650,650,650,650,650,650,650,650,650,650,650,650,650,650,650,650,650,650,650,650,650,650,650,650,650,650,650,650,650,650,650,650,650,650,650,650,650,650,650,650,650,650,650,650,650,650,650,650,650,650,650,650,650,650,650,650,650,650,650,650,650,650,650,650,650,650,650,650,650,650,650,650,650,650,650,650,650,650,636,618,554,468,294,201,177,126,102,75],"timestamp_mouse":[21,37,58,77,98,116,138,156,176,196,216,237,258,276,296,318,337,357,376,398,416,436,458,476,496,517,537,557,577,596,617,637,656,676,697,716,737,758,776,796,817,836,856,877,896,917,936,956,978,996,1016,1036,1056,1077,1096,1116,1137,1156,1176,1197,1218,1236,1257,1277,1296,1317,1336,1357,1377,1397,1416,1438,1457,1476,1497,1516,1537,1557,1577,1597,1616,1638,1657,1676,1698,1718,1737,1757,1777,1796,1816,1837,1857,1877,1897,1918,1937,1958,1978,1997,2016,2038,2057,2077,2097,2116,2137,2156,2177,2196,2216,2236,2256,2277,2297,2316,2336,2356,2377,2398,2416,2437,2456,2476,2496,2516,2536,2557,2577,2598,2616,2636,2658,2676,2697,2716,2736,2756,2777,2797,2818,2838,2857,2876,2896,2917,2936,2956,2976,2996,3016,3038,3057,3076,3096,3117,3137,3158,3177,3196,3218,3238,3257,3277,3297,3317,3336,3356,3376,3397,3416,3437,3457,3476,3497,3516,3536,3556,3578],"xSR":741.5,"ySR":573.95,"xT1":424.9,"yT1":0,"xT2":1058.1,"yT2":0,"toosoon":0,"cond_shown":"equaldotsize","ratio_trial":750,"smaller_num":"12","larger_num":"16","correct_side":2,"subjID":"juanavalentinauribeinfante36","gender":"1","age":"10","school":"sexto"},{"start_time":1551887799779,"click_time":1551887800905,"finger_time":1551887800204,"fix_duration":311.1141650613343,"trial":20,"RT":425,"MT":701,"sideResp":1,"stimulus":"img/900/equaldotsize/R/6_Ratio_900_L_9_R_10.png","xmouse":[771,771,771,771,771,771,771,771,771,771,771,771,771,771,771,771,771,771,771,771,771,771,771,773,773,773,773,773,773,772,767,752,742,723,716,710,705,700,686,676,656,626,581,559,556,556,552,547,536,533,533,533,533,533,533,532,522],"ymouse":[620,620,620,620,620,620,620,620,620,620,620,620,620,620,620,620,618,615,603,595,585,567,549,500,472,443,414,388,336,308,281,229,204,174,164,158,154,153,145,137,120,95,54,25,18,14,5,0,0,0,0,0,0,0,0,0,8],"timestamp_mouse":[9,27,46,67,86,105,126,146,166,185,206,225,246,266,286,307,325,345,366,387,405,425,446,466,485,506,525,545,565,586,605,625,645,665,686,706,725,745,765,785,805,827,846,866,885,905,925,945,965,985,1005,1026,1046,1065,1085,1107,1126],"xSR":741.5,"ySR":573.95,"xT1":424.9,"yT1":0,"xT2":1058.1,"yT2":0,"toosoon":0,"cond_shown":"equaldotsize","ratio_trial":900,"smaller_num":"9","larger_num":"10","correct_side":2,"subjID":"juanavalentinauribeinfante36","gender":"1","age":"10","school":"sexto"},{"start_time":1551887802564,"click_time":1551887803405,"finger_time":1551887803224,"fix_duration":399.9444251973181,"trial":21,"RT":660,"MT":181,"sideResp":2,"stimulus":"img/900/equaldotanddens/R/12_Ratio_900_L_18_R_20.png","xmouse":[785,785,785,785,785,785,785,785,785,785,785,785,785,785,785,785,785,785,785,785,785,785,785,785,785,785,785,785,785,785,785,785,784,794,831,859,887,920,953,1011,1031,1047,1064],"ymouse":[599,599,599,599,599,599,599,599,599,599,599,599,599,599,599,599,599,599,599,599,599,599,599,599,599,599,599,599,599,599,599,599,591,563,464,405,338,265,189,69,40,25,11],"timestamp_mouse":[8,28,40,61,80,100,122,140,160,181,201,220,241,261,280,300,320,340,361,380,401,422,441,461,482,501,520,542,561,580,600,620,640,660,681,701,720,740,761,781,800,820,840],"xSR":741.5,"ySR":573.95,"xT1":424.9,"yT1":0,"xT2":1058.1,"yT2":0,"toosoon":0,"cond_shown":"equaldotanddens","ratio_trial":900,"smaller_num":"18","larger_num":"20","correct_side":2,"subjID":"juanavalentinauribeinfante36","gender":"1","age":"10","school":"sexto"},{"start_time":1551887804740,"click_time":1551887805446,"finger_time":1551887805265,"fix_duration":293.20483142000876,"trial":22,"RT":525,"MT":181,"sideResp":2,"stimulus":"img/250/equaldotanddens/R/13_Ratio_250_L_2_R_8.png","xmouse":[778,778,778,778,777,775,774,773,772,772,772,772,772,772,772,772,772,772,772,772,772,772,772,772,772,774,780,792,811,840,912,969,987,1021,1064,1123],"ymouse":[621,621,621,621,621,621,619,619,618,618,618,618,618,618,618,618,618,618,618,618,614,609,606,601,597,585,570,547,506,448,333,255,233,193,130,17],"timestamp_mouse":[8,31,44,64,84,106,124,144,164,184,204,226,244,265,284,305,324,345,364,384,404,424,445,465,484,505,525,545,566,585,604,625,644,665,684,706],"xSR":741.5,"ySR":573.95,"xT1":424.9,"yT1":0,"xT2":1058.1,"yT2":0,"toosoon":0,"cond_shown":"equaldotanddens","ratio_trial":250,"smaller_num":"2","larger_num":"8","correct_side":2,"subjID":"juanavalentinauribeinfante36","gender":"1","age":"10","school":"sexto"},{"start_time":1551887807916,"click_time":1551887808685,"finger_time":1551887808544,"fix_duration":250,"trial":23,"RT":628,"MT":141,"sideResp":2,"stimulus":"img/750/equaldotanddens/R/2_Ratio_750_L_6_R_8.png","xmouse":[775,775,775,775,775,775,775,775,775,775,775,775,775,775,775,775,775,775,775,775,775,775,775,775,775,775,775,775,775,776,780,839,873,897,927,951,1022,1049,1064],"ymouse":[641,641,641,641,641,641,641,641,641,641,641,641,641,641,641,641,641,641,641,641,641,641,641,641,641,641,641,641,641,640,636,568,510,448,345,281,156,120,96],"timestamp_mouse":[10,35,49,69,89,110,129,149,170,188,208,228,249,268,288,309,329,349,370,388,408,428,450,469,489,508,528,548,568,589,608,628,650,668,688,708,728,748,768],"xSR":741.5,"ySR":573.95,"xT1":424.9,"yT1":0,"xT2":1058.1,"yT2":0,"toosoon":0,"cond_shown":"equaldotanddens","ratio_trial":750,"smaller_num":"6","larger_num":"8","correct_side":2,"subjID":"juanavalentinauribeinfante36","gender":"1","age":"10","school":"sexto"},{"start_time":1551887811950,"click_time":1551887812605,"finger_time":1551887812404,"fix_duration":624.6176273088837,"trial":24,"RT":454,"MT":201,"sideResp":1,"stimulus":"img/500/equaldotanddens/L/11_Ratio_500_L_12_R_6.png","xmouse":[770,770,770,770,770,770,770,770,770,770,770,770,770,770,770,770,770,771,777,791,799,804,804,803,791,779,760,736,664,627,583,536,470],"ymouse":[636,636,636,636,636,636,636,636,636,636,636,636,636,636,636,636,636,636,630,609,595,581,563,552,517,490,446,400,303,264,223,170,93],"timestamp_mouse":[19,36,54,76,95,114,134,154,175,195,214,234,254,274,294,314,334,354,375,394,414,434,454,474,496,514,535,554,575,594,614,634,655],"xSR":741.5,"ySR":573.95,"xT1":424.9,"yT1":0,"xT2":1058.1,"yT2":0,"toosoon":0,"cond_shown":"equaldotanddens","ratio_trial":500,"smaller_num":"6","larger_num":"12","correct_side":1,"subjID":"juanavalentinauribeinfante36","gender":"1","age":"10","school":"sexto"},{"start_time":1551887821857,"click_time":1551887823066,"finger_time":1551887822686,"fix_duration":250,"trial":25,"RT":829,"MT":380,"sideResp":2,"stimulus":"img/900/randomdotsizeEA/R/9_Ratio_900_L_18_R_20.png","xmouse":[787,787,787,787,787,787,787,787,787,787,787,787,787,787,787,787,787,787,787,787,787,787,787,787,787,787,787,787,787,787,787,787,787,787,787,787,787,787,787,787,801,819,873,1007,1050,1071,1080,1083,1087,1089,1091,1094,1098,1100,1100,1099,1097,1095,1095,1095,1095],"ymouse":[613,613,613,613,613,613,613,613,613,613,613,613,613,613,613,613,613,613,613,613,613,613,613,613,613,613,613,613,613,613,613,613,613,613,613,613,613,613,613,613,585,551,470,336,299,280,264,245,225,217,210,199,188,177,155,145,137,123,117,104,98],"timestamp_mouse":[9,31,49,68,88,109,130,148,169,189,208,230,250,269,289,309,328,349,370,389,409,429,448,470,488,508,528,548,568,588,608,629,648,669,688,708,729,748,768,788,808,829,848,869,888,908,928,949,969,988,1008,1028,1048,1069,1088,1108,1128,1149,1168,1188,1208],"xSR":741.5,"ySR":573.95,"xT1":424.9,"yT1":0,"xT2":1058.1,"yT2":0,"toosoon":0,"cond_shown":"randomdotsizeEA","ratio_trial":900,"smaller_num":"18","larger_num":"20","correct_side":2,"subjID":"juanavalentinauribeinfante36","gender":"1","age":"10","school":"sexto"},{"start_time":1551887825096,"click_time":1551887826245,"finger_time":1551887825806,"fix_duration":949.9750982113559,"trial":26,"RT":710,"MT":439,"sideResp":2,"stimulus":"img/900/randomdotsizeEA/L/10_Ratio_900_L_20_R_18.png","xmouse":[806,806,806,806,806,806,806,806,806,806,806,806,806,806,806,806,806,806,806,806,806,806,806,806,806,806,806,806,806,806,806,806,806,809,826,949,1028,1130,1176,1217,1252,1270,1271,1261,1249,1246,1234,1210,1194,1177,1161,1151,1134,1129,1129,1129,1129,1127],"ymouse":[618,618,618,618,618,618,618,618,618,618,618,618,618,618,618,618,618,618,618,618,618,618,618,618,618,618,618,618,618,618,618,618,618,617,605,534,493,424,381,328,269,226,166,133,97,86,59,24,8,0,0,0,0,0,0,0,0,9],"timestamp_mouse":[9,29,50,71,90,109,131,149,169,189,209,229,249,269,289,311,331,349,369,390,409,429,450,470,489,509,530,550,569,590,610,630,649,669,689,710,730,749,769,789,809,829,849,869,890,909,929,949,970,990,1009,1030,1049,1070,1089,1109,1129,1149],"xSR":741.5,"ySR":573.95,"xT1":424.9,"yT1":0,"xT2":1058.1,"yT2":0,"toosoon":0,"cond_shown":"randomdotsizeEA","ratio_trial":900,"smaller_num":"18","larger_num":"20","correct_side":1,"subjID":"juanavalentinauribeinfante36","gender":"1","age":"10","school":"sexto"},{"start_time":1551887827497,"click_time":1551887828585,"finger_time":1551887828165,"fix_duration":250,"trial":27,"RT":668,"MT":420,"sideResp":1,"stimulus":"img/250/equaldotanddens/L/15_Ratio_250_L_12_R_3.png","xmouse":[779,779,779,779,779,779,779,776,773,773,772,772,771,771,771,771,771,771,771,771,771,771,771,771,771,771,771,771,771,771,771,770,743,699,651,572,532,504,503,503,503,503,507,512,518,520,524,530,532,532,532,531,530,528,523],"ymouse":[651,651,651,651,651,651,650,639,632,630,629,628,627,627,627,627,627,627,627,627,627,627,627,627,627,627,627,627,627,627,627,626,591,506,404,270,219,188,187,187,187,186,166,155,141,137,132,114,108,102,96,87,85,83,73],"timestamp_mouse":[8,31,48,69,89,110,128,149,168,189,209,228,248,268,288,309,328,348,370,390,408,428,449,470,488,508,529,549,569,588,608,628,648,668,689,708,728,748,768,788,808,828,848,869,888,910,929,949,968,988,1009,1029,1048,1068,1088],"xSR":741.5,"ySR":573.95,"xT1":424.9,"yT1":0,"xT2":1058.1,"yT2":0,"toosoon":0,"cond_shown":"equaldotanddens","ratio_trial":250,"smaller_num":"3","larger_num":"12","correct_side":1,"subjID":"juanavalentinauribeinfante36","gender":"1","age":"10","school":"sexto"},{"start_time":1551887829637,"click_time":1551887830966,"finger_time":1551887830265,"fix_duration":250,"trial":28,"RT":628,"MT":701,"sideResp":1,"stimulus":"img/500/equaldotsize/L/5_Ratio_500_L_4_R_2.png","xmouse":[771,771,771,771,771,771,771,771,771,771,771,771,771,771,771,771,771,771,771,771,771,771,771,771,771,771,771,771,771,772,767,762,759,758,758,758,758,758,758,758,758,758,761,769,772,774,774,774,774,774,760,749,739,733,728,712,691,667,629,615,613,612,608,594,574,534,515],"ymouse":[636,636,636,636,636,636,636,636,636,636,636,636,636,636,636,636,636,636,636,636,636,636,636,636,636,636,636,636,636,638,656,674,682,683,683,683,683,683,683,683,683,683,685,685,684,648,588,512,387,311,205,164,131,105,84,42,16,0,0,0,0,0,0,6,15,39,52],"timestamp_mouse":[10,33,48,68,88,109,128,150,169,188,208,230,249,270,289,308,329,348,369,389,409,430,450,468,489,509,530,548,568,588,608,628,648,668,689,708,728,749,768,789,808,828,848,868,888,909,928,949,970,988,1009,1028,1049,1070,1089,1108,1128,1148,1169,1189,1210,1229,1249,1268,1288,1308,1329],"xSR":741.5,"ySR":573.95,"xT1":424.9,"yT1":0,"xT2":1058.1,"yT2":0,"toosoon":0,"cond_shown":"equaldotsize","ratio_trial":500,"smaller_num":"2","larger_num":"4","correct_side":1,"subjID":"juanavalentinauribeinfante36","gender":"1","age":"10","school":"sexto"},{"start_time":1551887833345,"click_time":1551887834305,"finger_time":1551887834125,"fix_duration":1139.8508312150555,"trial":29,"RT":780,"MT":180,"sideResp":2,"stimulus":"img/900/equaldotsize/L/1_Ratio_900_L_10_R_9.png","xmouse":[790,790,790,790,790,790,790,790,790,790,790,790,790,790,790,790,790,790,790,790,790,790,790,790,790,790,790,790,790,790,790,790,790,790,790,790,790,795,807,866,1021,1094,1110,1112,1112,1112,1104,1095,1089],"ymouse":[628,628,628,628,628,628,628,628,628,628,628,628,628,628,628,628,628,628,628,628,628,628,628,628,628,628,628,628,628,628,628,628,628,628,628,628,628,625,611,549,386,299,261,235,206,152,125,102,81],"timestamp_mouse":[10,21,43,62,80,100,121,140,160,181,200,220,240,260,280,300,320,341,360,382,401,420,441,460,480,501,522,541,560,580,601,620,641,660,682,700,720,741,760,780,800,821,840,860,880,900,921,941,960],"xSR":741.5,"ySR":573.95,"xT1":424.9,"yT1":0,"xT2":1058.1,"yT2":0,"toosoon":0,"cond_shown":"equaldotsize","ratio_trial":900,"smaller_num":"9","larger_num":"10","correct_side":1,"subjID":"juanavalentinauribeinfante36","gender":"1","age":"10","school":"sexto"},{"start_time":1551887836644,"click_time":1551887837625,"finger_time":1551887837046,"fix_duration":1416.7303191644953,"trial":30,"RT":402,"MT":579,"sideResp":2,"stimulus":"img/250/equaldotsize/R/10_Ratio_250_L_4_R_16.png","xmouse":[758,758,758,758,758,758,758,758,758,758,758,758,758,758,758,758,758,758,756,754,747,746,745,745,745,745,749,754,764,771,782,792,808,848,882,918,929,944,954,967,995,1007,1020,1034,1042,1055,1061,1071,1078,1084],"ymouse":[629,629,629,629,629,629,629,629,629,629,629,629,629,629,629,629,629,627,608,589,566,559,555,552,544,538,530,523,511,503,487,473,446,403,369,326,307,281,264,248,219,210,201,190,182,160,147,123,105,90],"timestamp_mouse":[8,22,41,61,81,101,121,142,163,181,202,221,241,261,281,301,322,341,361,381,402,422,442,461,482,501,522,542,562,581,603,621,642,661,681,701,721,741,761,781,801,822,842,861,881,901,922,942,961,981],"xSR":741.5,"ySR":573.95,"xT1":424.9,"yT1":0,"xT2":1058.1,"yT2":0,"toosoon":0,"cond_shown":"equaldotsize","ratio_trial":250,"smaller_num":"4","larger_num":"16","correct_side":2,"subjID":"juanavalentinauribeinfante36","gender":"1","age":"10","school":"sexto"},{"start_time":1551887839327,"click_time":1551887840146,"finger_time":1551887839845,"fix_duration":819.6252681977738,"trial":31,"RT":518,"MT":301,"sideResp":2,"stimulus":"img/250/equaldotsize/R/12_Ratio_250_L_5_R_20.png","xmouse":[799,799,799,799,799,799,799,799,799,799,799,799,799,799,799,799,799,799,799,799,799,799,800,814,832,850,895,967,1034,1130,1143,1144,1138,1126,1105,1091,1087,1084,1080,1076,1060],"ymouse":[606,606,606,606,606,606,606,606,606,606,606,606,606,606,606,606,606,606,606,606,606,606,604,592,577,539,486,426,370,283,253,231,207,184,155,130,121,115,109,103,86],"timestamp_mouse":[28,38,58,79,98,119,138,158,180,198,219,238,258,279,298,319,338,359,379,398,419,439,459,478,499,518,539,558,578,599,618,639,658,678,698,718,738,758,778,798,819],"xSR":741.5,"ySR":573.95,"xT1":424.9,"yT1":0,"xT2":1058.1,"yT2":0,"toosoon":0,"cond_shown":"equaldotsize","ratio_trial":250,"smaller_num":"5","larger_num":"20","correct_side":2,"subjID":"juanavalentinauribeinfante36","gender":"1","age":"10","school":"sexto"},{"start_time":1551887841917,"click_time":1551887843165,"finger_time":1551887842505,"fix_duration":990.0739473401661,"trial":32,"RT":588,"MT":660,"sideResp":1,"stimulus":"img/500/randomdotsizeEA/R/14_Ratio_500_L_5_R_10.png","xmouse":[808,808,808,808,808,808,808,808,808,808,808,808,808,808,808,808,808,808,808,808,808,808,808,808,808,813,824,825,826,826,825,815,802,784,762,711,624,567,516,469,370,331,308,302,301,302,306,307,307,308,312,324,339,344,363,374,390,394,398,403,408,419,427],"ymouse":[631,631,631,631,631,631,631,631,631,631,631,631,631,631,631,631,631,631,631,631,631,631,631,631,631,624,606,595,579,553,493,460,426,390,362,317,267,242,213,189,127,99,76,57,33,24,16,16,16,15,15,15,15,15,15,15,15,15,16,16,16,18,19],"timestamp_mouse":[8,36,48,69,88,109,128,149,169,188,210,228,248,269,289,309,328,348,370,388,410,430,449,468,488,509,528,548,568,588,609,628,649,668,688,710,728,749,770,788,809,828,848,868,888,909,928,948,968,989,1008,1028,1049,1068,1088,1108,1128,1148,1169,1188,1209,1229,1248],"xSR":741.5,"ySR":573.95,"xT1":424.9,"yT1":0,"xT2":1058.1,"yT2":0,"toosoon":0,"cond_shown":"randomdotsizeEA","ratio_trial":500,"smaller_num":"5","larger_num":"10","correct_side":2,"subjID":"juanavalentinauribeinfante36","gender":"1","age":"10","school":"sexto"},{"start_time":1551887844453,"click_time":1551887860665,"finger_time":1551887860285,"fix_duration":486.61072930545646,"trial":33,"RT":15832,"MT":380,"sideResp":2,"stimulus":"img/900/equaldotanddens/R/15_Ratio_900_L_9_R_10.png","xmouse":[819,819,819,819,819,819,819,819,819,819,819,819,819,819,819,819,819,819,819,819,819,819,819,819,819,819,819,819,819,819,819,819,819,819,819,819,819,819,819,819,819,819,819,819,819,819,819,819,819,819,819,819,819,819,819,819,819,819,819,819,819,819,819,819,819,819,819,819,819,819,819,819,819,819,819,819,819,819,819,819,819,819,819,819,819,819,819,819,819,819,819,819,819,819,819,819,819,819,819,819,819,819,819,819,819,819,819,819,819,819,819,819,819,819,819,819,819,819,819,819,819,819,819,819,819,819,819,819,819,819,819,819,819,819,819,819,819,819,819,819,819,819,819,819,819,819,819,819,819,819,819,819,819,819,819,819,819,819,819,819,819,819,819,819,819,819,819,819,819,819,819,819,819,819,819,819,819,819,819,819,819,819,819,819,819,819,819,819,819,819,819,819,819,819,819,819,819,819,819,819,819,819,819,819,819,819,819,819,819,819,819,819,819,819,819,819,819,819,819,819,819,819,819,819,819,819,819,819,819,819,819,819,819,819,819,819,819,819,819,819,819,819,819,819,819,819,819,819,819,819,819,819,819,819,819,819,819,819,819,819,819,819,819,819,819,819,819,819,819,819,819,819,819,819,819,819,819,819,819,819,819,819,819,819,819,819,819,819,819,819,819,819,819,819,819,819,819,819,819,819,819,819,819,819,819,819,819,819,819,819,819,819,819,819,819,819,819,819,819,819,819,819,819,819,819,819,819,819,819,819,819,819,819,819,819,819,819,819,819,819,819,819,819,819,819,819,819,819,819,819,819,819,819,819,819,819,819,819,819,819,819,819,819,819,819,819,819,819,819,819,819,819,819,819,819,819,819,819,819,819,819,819,819,819,819,819,819,819,819,819,819,819,819,819,819,819,819,819,819,819,819,819,819,819,819,819,819,819,819,819,819,819,819,819,819,819,819,819,819,819,819,819,819,819,819,819,819,819,819,819,819,819,819,819,819,819,819,819,819,819,819,819,819,819,819,819,819,819,819,819,819,819,819,819,819,819,819,819,819,819,819,819,819,819,819,819,819,819,819,819,819,819,819,819,819,819,819,819,819,819,819,819,819,819,819,819,819,819,819,819,819,819,819,819,819,819,819,819,819,819,819,819,819,819,819,819,819,819,819,819,819,819,819,819,819,819,819,819,819,819,819,819,819,819,819,819,819,819,819,819,819,819,819,819,819,819,819,819,819,819,819,819,819,819,819,819,819,819,819,819,819,819,819,819,819,819,819,819,819,819,819,819,819,819,819,819,819,819,819,819,819,819,819,819,819,819,819,819,819,819,819,819,819,819,819,819,819,819,819,819,819,819,819,819,819,819,819,819,819,819,819,819,819,819,819,819,819,819,819,819,819,819,819,819,819,819,819,819,819,819,819,819,819,819,819,819,819,819,819,819,819,819,819,819,819,819,819,819,819,819,819,819,819,819,819,819,819,819,819,819,819,819,819,819,819,819,819,819,819,819,819,819,819,819,819,819,819,819,819,819,819,819,819,819,819,819,819,819,819,819,819,819,819,819,819,819,819,819,819,819,819,819,819,819,819,819,819,819,819,819,819,819,819,819,819,819,819,819,819,819,819,819,819,819,819,819,819,819,819,819,819,819,819,819,819,819,819,819,819,819,819,819,819,819,819,819,819,819,819,819,819,819,819,819,819,819,819,819,819,819,819,819,819,819,819,819,819,819,819,819,819,819,819,819,819,819,819,819,819,819,819,819,819,819,819,819,819,819,819,819,819,819,819,818,812,809,809,809,810,819,831,845,861,882,890,900,913,931,957,1063,1092,1113,1127,1145,1155,1162,1168,1171,1169,1163,1154],"ymouse":[662,662,662,662,662,662,662,662,662,662,662,662,662,662,662,662,662,662,662,662,662,662,662,662,662,662,662,662,662,662,662,662,662,662,662,662,662,662,662,662,662,662,662,662,662,662,662,662,662,662,662,662,662,662,662,662,662,662,662,662,662,662,662,662,662,662,662,662,662,662,662,662,662,662,662,662,662,662,662,662,662,662,662,662,662,662,662,662,662,662,662,662,662,662,662,662,662,662,662,662,662,662,662,662,662,662,662,662,662,662,662,662,662,662,662,662,662,662,662,662,662,662,662,662,662,662,662,662,662,662,662,662,662,662,662,662,662,662,662,662,662,662,662,662,662,662,662,662,662,662,662,662,662,662,662,662,662,662,662,662,662,662,662,662,662,662,662,662,662,662,662,662,662,662,662,662,662,662,662,662,662,662,662,662,662,662,662,662,662,662,662,662,662,662,662,662,662,662,662,662,662,662,662,662,662,662,662,662,662,662,662,662,662,662,662,662,662,662,662,662,662,662,662,662,662,662,662,662,662,662,662,662,662,662,662,662,662,662,662,662,662,662,662,662,662,662,662,662,662,662,662,662,662,662,662,662,662,662,662,662,662,662,662,662,662,662,662,662,662,662,662,662,662,662,662,662,662,662,662,662,662,662,662,662,662,662,662,662,662,662,662,662,662,662,662,662,662,662,662,662,662,662,662,662,662,662,662,662,662,662,662,662,662,662,662,662,662,662,662,662,662,662,662,662,662,662,662,662,662,662,662,662,662,662,662,662,662,662,662,662,662,662,662,662,662,662,662,662,662,662,662,662,662,662,662,662,662,662,662,662,662,662,662,662,662,662,662,662,662,662,662,662,662,662,662,662,662,662,662,662,662,662,662,662,662,662,662,662,662,662,662,662,662,662,662,662,662,662,662,662,662,662,662,662,662,662,662,662,662,662,662,662,662,662,662,662,662,662,662,662,662,662,662,662,662,662,662,662,662,662,662,662,662,662,662,662,662,662,662,662,662,662,662,662,662,662,662,662,662,662,662,662,662,662,662,662,662,662,662,662,662,662,662,662,662,662,662,662,662,662,662,662,662,662,662,662,662,662,662,662,662,662,662,662,662,662,662,662,662,662,662,662,662,662,662,662,662,662,662,662,662,662,662,662,662,662,662,662,662,662,662,662,662,662,662,662,662,662,662,662,662,662,662,662,662,662,662,662,662,662,662,662,662,662,662,662,662,662,662,662,662,662,662,662,662,662,662,662,662,662,662,662,662,662,662,662,662,662,662,662,662,662,662,662,662,662,662,662,662,662,662,662,662,662,662,662,662,662,662,662,662,662,662,662,662,662,662,662,662,662,662,662,662,662,662,662,662,662,662,662,662,662,662,662,662,662,662,662,662,662,662,662,662,662,662,662,662,662,662,662,662,662,662,662,662,662,662,662,662,662,662,662,662,662,662,662,662,662,662,662,662,662,662,662,662,662,662,662,662,662,662,662,662,662,662,662,662,662,662,662,662,662,662,662,662,662,662,662,662,662,662,662,662,662,662,662,662,662,662,662,662,662,662,662,662,662,662,662,662,662,662,662,662,662,662,662,662,662,662,662,662,662,662,662,662,662,662,662,662,662,662,662,662,662,662,662,662,662,662,662,662,662,662,662,662,662,662,662,662,662,662,662,662,662,662,662,662,662,662,662,662,662,662,662,662,662,662,662,662,662,662,662,662,662,662,662,662,662,662,662,662,662,662,662,662,662,662,662,662,662,662,662,662,662,662,662,662,662,662,662,662,662,662,661,657,655,655,655,652,639,621,598,562,513,495,476,457,439,422,352,320,285,250,187,162,140,121,98,76,64,51],"timestamp_mouse":[13,34,52,72,93,112,133,153,172,193,212,232,254,272,292,312,332,352,374,393,412,432,452,472,492,512,532,552,572,592,612,632,652,674,692,712,732,753,772,793,813,834,852,872,893,913,933,953,972,993,1012,1033,1053,1073,1092,1113,1132,1152,1172,1192,1213,1232,1252,1272,1292,1313,1332,1353,1372,1392,1413,1432,1452,1472,1493,1514,1534,1553,1572,1592,1612,1632,1652,1673,1693,1712,1732,1752,1773,1792,1814,1833,1852,1872,1892,1912,1932,1952,1973,1992,2013,2032,2053,2073,2093,2112,2132,2152,2173,2193,2212,2234,2252,2273,2294,2313,2333,2353,2372,2393,2413,2432,2453,2472,2493,2513,2534,2552,2573,2593,2614,2632,2652,2673,2693,2712,2732,2753,2773,2793,2812,2832,2853,2873,2893,2912,2934,2953,2972,2993,3012,3032,3053,3072,3094,3114,3132,3152,3173,3193,3213,3233,3254,3273,3293,3312,3332,3354,3372,3393,3412,3433,3453,3474,3493,3512,3533,3552,3574,3593,3612,3633,3653,3674,3692,3712,3733,3753,3773,3793,3812,3833,3853,3872,3893,3912,3933,3954,3973,3992,4013,4032,4053,4073,4093,4112,4132,4153,4172,4192,4212,4232,4252,4272,4292,4313,4333,4353,4372,4392,4412,4433,4453,4473,4493,4512,4534,4552,4573,4592,4612,4634,4652,4672,4693,4713,4732,4754,4772,4792,4812,4834,4852,4874,4893,4912,4933,4954,4974,4992,5012,5033,5053,5074,5093,5113,5133,5153,5172,5193,5213,5233,5254,5272,5293,5312,5334,5353,5372,5393,5413,5432,5452,5473,5493,5512,5533,5554,5573,5593,5613,5632,5652,5672,5693,5713,5733,5752,5772,5793,5813,5833,5852,5872,5892,5913,5934,5953,5973,5993,6013,6033,6052,6072,6092,6112,6132,6153,6173,6192,6213,6234,6252,6273,6292,6313,6332,6352,6373,6393,6412,6433,6453,6473,6493,6514,6533,6552,6572,6592,6613,6632,6652,6674,6692,6714,6733,6752,6772,6793,6812,6834,6853,6874,6893,6912,6933,6954,6973,6992,7012,7032,7053,7072,7092,7113,7132,7152,7173,7193,7214,7232,7253,7273,7293,7313,7333,7352,7372,7393,7414,7432,7453,7473,7492,7512,7532,7554,7572,7592,7613,7633,7653,7672,7694,7713,7732,7753,7772,7793,7812,7832,7852,7872,7893,7912,7934,7952,7973,7993,8013,8033,8054,8072,8093,8114,8133,8152,8172,8192,8212,8232,8252,8273,8292,8312,8333,8354,8373,8393,8413,8432,8453,8473,8492,8512,8532,8554,8572,8593,8613,8632,8652,8673,8693,8713,8733,8753,8773,8792,8812,8832,8852,8872,8893,8913,8934,8952,8972,8992,9013,9032,9052,9072,9092,9112,9132,9152,9172,9192,9212,9232,9252,9272,9292,9313,9333,9352,9373,9392,9413,9432,9452,9472,9493,9512,9532,9552,9572,9593,9614,9632,9652,9672,9693,9713,9732,9753,9772,9792,9812,9833,9852,9874,9893,9912,9932,9954,9972,9992,10012,10033,10052,10072,10092,10113,10132,10152,10172,10192,10213,10232,10252,10272,10293,10312,10334,10353,10372,10392,10412,10433,10454,10473,10492,10512,10532,10553,10574,10593,10613,10633,10652,10674,10692,10712,10732,10753,10773,10793,10812,10833,10853,10873,10892,10913,10933,10953,10972,10993,11014,11033,11053,11073,11094,11113,11132,11152,11172,11192,11212,11232,11252,11272,11293,11313,11332,11352,11372,11393,11413,11434,11452,11473,11493,11512,11532,11552,11572,11592,11613,11632,11652,11672,11693,11714,11733,11752,11772,11793,11812,11832,11852,11872,11893,11914,11932,11952,11972,11992,12012,12032,12053,12072,12093,12114,12132,12152,12172,12192,12212,12232,12252,12274,12293,12312,12332,12352,12372,12392,12414,12433,12453,12473,12493,12512,12533,12554,12572,12593,12612,12633,12652,12672,12692,12712,12734,12753,12773,12792,12812,12833,12853,12873,12893,12912,12933,12953,12972,12992,13012,13033,13053,13073,13094,13113,13132,13152,13173,13192,13213,13232,13252,13272,13293,13313,13333,13352,13373,13393,13412,13432,13453,13472,13492,13512,13532,13553,13572,13593,13613,13632,13652,13673,13694,13712,13732,13753,13772,13793,13813,13834,13853,13873,13892,13913,13932,13954,13972,13992,14013,14032,14054,14072,14093,14112,14133,14152,14172,14192,14212,14234,14252,14272,14292,14313,14334,14352,14373,14393,14412,14432,14452,14473,14493,14513,14533,14553,14573,14593,14614,14632,14652,14673,14693,14713,14732,14753,14772,14792,14813,14833,14853,14873,14892,14913,14933,14952,14973,14992,15013,15033,15052,15073,15092,15113,15133,15152,15173,15193,15213,15232,15253,15273,15292,15313,15332,15354,15372,15392,15412,15433,15452,15473,15493,15512,15533,15553,15572,15593,15613,15632,15652,15673,15692,15712,15733,15752,15772,15793,15812,15832,15852,15872,15893,15912,15932,15953,15972,15993,16013,16032,16052,16072,16092,16113,16132,16152,16173,16193,16212],"xSR":741.5,"ySR":573.95,"xT1":424.9,"yT1":0,"xT2":1058.1,"yT2":0,"toosoon":0,"cond_shown":"equaldotanddens","ratio_trial":900,"smaller_num":"9","larger_num":"10","correct_side":2,"subjID":"juanavalentinauribeinfante36","gender":"1","age":"10","school":"sexto"},{"start_time":1551887864362,"click_time":1551887865505,"finger_time":1551887865086,"fix_duration":595.1615239655242,"trial":34,"RT":724,"MT":419,"sideResp":2,"stimulus":"img/750/randomdotsizeEA/L/8_Ratio_750_L_4_R_3.png","xmouse":[771,771,771,771,771,771,771,771,771,771,771,771,771,771,771,771,771,771,771,771,771,771,771,771,771,771,771,771,771,771,771,771,771,801,818,834,859,889,948,961,967,968,968,968,968,968,968,968,971,976,980,988,1008,1043,1058,1064,1068,1069],"ymouse":[648,648,648,648,648,648,648,648,648,648,648,648,648,648,648,648,648,648,648,648,648,648,648,648,648,648,648,648,648,648,648,648,648,618,599,581,555,519,448,425,407,396,386,355,345,336,322,309,279,261,245,227,195,156,137,122,106,94],"timestamp_mouse":[9,32,43,65,84,104,125,143,164,184,204,223,244,263,283,303,324,345,364,383,403,423,443,463,483,503,524,545,563,584,603,624,644,664,684,703,724,743,763,783,803,824,843,863,884,903,923,943,963,983,1003,1023,1044,1063,1083,1105,1123,1143],"xSR":741.5,"ySR":573.95,"xT1":424.9,"yT1":0,"xT2":1058.1,"yT2":0,"toosoon":0,"cond_shown":"randomdotsizeEA","ratio_trial":750,"smaller_num":"3","larger_num":"4","correct_side":1,"subjID":"juanavalentinauribeinfante36","gender":"1","age":"10","school":"sexto"},{"start_time":1551887878361,"click_time":1551887880246,"finger_time":1551887879225,"fix_duration":1315.5046656398852,"trial":35,"RT":864,"MT":1021,"sideResp":2,"stimulus":"img/250/randomdotsizeEA/L/5_Ratio_250_L_24_R_6.png","xmouse":[809,809,809,809,809,809,809,809,809,809,809,809,809,809,809,809,809,809,809,809,809,809,809,809,809,809,809,809,809,809,809,809,810,819,822,823,823,823,825,827,830,832,835,838,839,838,828,813,750,711,672,637,606,575,568,565,564,564,564,564,564,564,564,564,564,564,564,566,591,662,754,862,970,1179,1281,1298,1299,1299,1290,1281,1270,1257,1247,1219,1205,1189,1175,1170,1169,1169,1169,1169,1169,1168,1151],"ymouse":[634,634,634,634,634,634,634,634,634,634,634,634,634,634,634,634,634,634,634,634,634,634,634,634,634,634,634,634,634,634,634,634,634,633,632,632,632,632,628,616,603,594,587,568,556,542,520,496,407,355,300,251,197,113,89,74,66,61,58,58,58,58,58,58,58,58,58,58,66,87,113,143,173,207,205,196,195,193,174,161,150,138,129,111,103,90,81,78,77,77,77,77,77,77,62],"timestamp_mouse":[8,24,44,65,85,105,125,144,164,186,204,224,244,265,284,304,324,344,364,385,405,424,445,466,484,506,524,544,564,584,605,625,644,664,684,705,724,745,765,784,804,824,844,864,885,905,924,944,964,985,1004,1024,1045,1065,1085,1104,1124,1145,1165,1184,1204,1224,1244,1265,1284,1305,1325,1344,1364,1386,1405,1424,1444,1465,1486,1505,1524,1544,1564,1584,1604,1624,1645,1665,1685,1704,1724,1745,1764,1784,1804,1824,1844,1864,1884],"xSR":741.5,"ySR":573.95,"xT1":424.9,"yT1":0,"xT2":1058.1,"yT2":0,"toosoon":0,"cond_shown":"randomdotsizeEA","ratio_trial":250,"smaller_num":"6","larger_num":"24","correct_side":1,"subjID":"juanavalentinauribeinfante36","gender":"1","age":"10","school":"sexto"},{"start_time":1551887884397,"click_time":1551887894725,"finger_time":1551887894105,"fix_duration":250,"trial":36,"RT":9708,"MT":620,"sideResp":2,"stimulus":"img/250/equaldotanddens/L/7_Ratio_250_L_8_R_2.png","xmouse":[795,795,795,795,795,795,795,795,795,795,795,795,795,795,795,795,795,795,795,795,795,795,795,795,795,795,795,795,795,795,795,795,795,795,795,795,795,795,795,795,795,795,795,795,795,795,795,795,795,795,795,795,795,795,795,795,795,795,795,795,795,795,795,795,795,795,795,795,795,795,795,795,795,795,795,795,795,795,795,795,795,795,795,795,795,795,795,795,795,795,795,795,795,795,795,795,795,795,795,795,795,795,795,795,795,795,795,795,795,795,795,795,795,795,795,795,795,795,795,795,795,795,795,795,795,795,795,795,795,795,795,795,795,795,795,795,795,795,795,795,795,795,795,795,795,795,795,795,795,795,795,795,795,795,795,795,795,795,795,795,795,795,795,795,795,795,795,795,795,795,795,795,795,795,795,795,795,795,795,795,795,795,795,795,795,795,795,795,795,795,795,795,795,795,795,795,795,795,795,795,795,795,795,795,795,795,795,795,795,795,795,795,795,795,795,795,795,795,795,795,795,795,795,795,795,795,795,795,795,795,795,795,795,795,795,795,795,795,795,795,795,795,795,795,795,795,795,795,795,795,795,795,795,795,795,795,795,795,795,795,795,795,795,795,795,795,795,795,795,795,795,795,795,795,795,795,795,795,795,795,795,795,795,795,795,795,795,795,795,795,795,795,795,795,795,795,795,795,795,795,795,795,795,795,795,795,795,795,795,795,795,795,795,795,795,795,795,795,795,795,795,795,795,795,795,795,795,795,795,795,795,795,795,795,795,795,795,795,795,795,795,795,795,795,795,795,795,795,795,795,795,795,795,795,795,795,795,795,795,795,795,795,795,795,795,795,795,795,795,795,795,795,795,795,795,795,795,795,795,795,795,795,795,795,795,795,795,795,795,795,795,795,795,795,795,795,795,795,795,795,795,795,795,795,795,795,795,795,795,795,795,795,795,795,795,795,795,795,795,795,795,795,795,795,795,795,795,795,795,795,795,795,795,795,790,788,785,785,785,785,785,785,785,785,785,785,785,785,785,784,784,783,782,782,782,782,782,782,782,782,782,782,782,782,782,782,782,782,782,782,782,782,781,776,775,775,775,775,775,775,775,775,772,766,761,759,758,761,768,778,783,807,838,846,850,853,860,865,871,879,899,911,934,943,955,971,1007,1022,1029,1033,1033,1034,1034,1034,1037,1043,1065],"ymouse":[646,646,646,646,646,646,646,646,646,646,646,646,646,646,646,646,646,646,646,646,646,646,646,646,646,646,646,646,646,646,646,646,646,646,646,646,646,646,646,646,646,646,646,646,646,646,646,646,646,646,646,646,646,646,646,646,646,646,646,646,646,646,646,646,646,646,646,646,646,646,646,646,646,646,646,646,646,646,646,646,646,646,646,646,646,646,646,646,646,646,646,646,646,646,646,646,646,646,646,646,646,646,646,646,646,646,646,646,646,646,646,646,646,646,646,646,646,646,646,646,646,646,646,646,646,646,646,646,646,646,646,646,646,646,646,646,646,646,646,646,646,646,646,646,646,646,646,646,646,646,646,646,646,646,646,646,646,646,646,646,646,646,646,646,646,646,646,646,646,646,646,646,646,646,646,646,646,646,646,646,646,646,646,646,646,646,646,646,646,646,646,646,646,646,646,646,646,646,646,646,646,646,646,646,646,646,646,646,646,646,646,646,646,646,646,646,646,646,646,646,646,646,646,646,646,646,646,646,646,646,646,646,646,646,646,646,646,646,646,646,646,646,646,646,646,646,646,646,646,646,646,646,646,646,646,646,646,646,646,646,646,646,646,646,646,646,646,646,646,646,646,646,646,646,646,646,646,646,646,646,646,646,646,646,646,646,646,646,646,646,646,646,646,646,646,646,646,646,646,646,646,646,646,646,646,646,646,646,646,646,646,646,646,646,646,646,646,646,646,646,646,646,646,646,646,646,646,646,646,646,646,646,646,646,646,646,646,646,646,646,646,646,646,646,646,646,646,646,646,646,646,646,646,646,646,646,646,646,646,646,646,646,646,646,646,646,646,646,646,646,646,646,646,646,646,646,646,646,646,646,646,646,646,646,646,646,646,646,646,646,646,646,646,646,646,646,646,646,646,646,646,646,646,646,646,646,646,646,646,646,646,646,646,646,646,646,646,646,646,646,646,646,646,646,646,646,646,646,646,646,646,646,646,641,635,631,626,624,624,624,624,624,624,624,624,624,624,624,624,623,622,619,613,611,611,611,611,611,611,611,611,611,611,611,611,611,611,611,611,611,611,611,610,614,615,615,615,615,615,615,615,616,614,601,587,572,538,518,495,461,443,373,289,256,234,215,183,174,166,158,145,136,118,110,103,95,80,73,71,70,69,69,69,68,68,68,68],"timestamp_mouse":[12,27,47,67,89,109,127,148,168,188,208,227,248,268,289,308,328,349,367,387,407,428,448,468,489,509,528,547,567,587,609,627,647,668,687,707,728,748,769,787,808,828,848,869,887,907,928,947,969,987,1009,1028,1047,1069,1087,1107,1129,1147,1168,1188,1207,1228,1248,1267,1289,1307,1329,1348,1368,1387,1407,1429,1447,1467,1488,1509,1527,1548,1569,1587,1607,1629,1647,1667,1687,1707,1729,1748,1768,1788,1809,1827,1848,1868,1888,1909,1928,1948,1968,1988,2008,2029,2047,2068,2089,2107,2127,2148,2167,2187,2208,2228,2248,2268,2289,2307,2327,2349,2367,2387,2407,2429,2448,2467,2487,2507,2528,2547,2568,2589,2608,2627,2648,2667,2688,2708,2729,2747,2767,2788,2809,2829,2848,2869,2888,2909,2928,2947,2968,2987,3008,3029,3048,3067,3088,3107,3128,3148,3168,3187,3208,3228,3247,3268,3288,3308,3328,3348,3368,3389,3408,3428,3448,3468,3487,3507,3527,3547,3568,3589,3608,3627,3648,3668,3688,3708,3728,3747,3767,3788,3809,3827,3848,3867,3889,3909,3927,3948,3969,3988,4007,4027,4048,4068,4088,4107,4127,4147,4168,4187,4209,4228,4247,4269,4287,4309,4328,4347,4368,4387,4407,4427,4448,4468,4487,4509,4527,4549,4569,4588,4607,4629,4648,4669,4687,4707,4727,4748,4768,4787,4809,4829,4848,4868,4889,4907,4927,4947,4968,4989,5007,5027,5048,5068,5088,5108,5128,5147,5168,5187,5207,5228,5248,5267,5287,5307,5328,5348,5367,5388,5409,5428,5448,5469,5487,5508,5527,5547,5569,5589,5607,5628,5648,5667,5689,5707,5727,5747,5768,5788,5809,5828,5847,5868,5888,5909,5927,5948,5967,5987,6008,6027,6048,6068,6088,6108,6129,6148,6169,6188,6208,6228,6248,6267,6288,6308,6328,6347,6368,6387,6407,6427,6448,6467,6488,6507,6529,6548,6568,6587,6607,6629,6648,6668,6689,6707,6729,6748,6768,6789,6807,6827,6847,6869,6888,6908,6927,6947,6968,6989,7007,7028,7048,7068,7088,7108,7127,7147,7168,7188,7208,7228,7248,7267,7287,7307,7328,7347,7367,7387,7407,7427,7448,7467,7488,7509,7527,7547,7567,7587,7607,7628,7647,7669,7687,7708,7729,7748,7767,7787,7808,7827,7847,7868,7889,7908,7928,7947,7969,7989,8008,8027,8048,8068,8088,8109,8129,8148,8168,8188,8209,8229,8248,8267,8288,8309,8329,8347,8367,8389,8408,8428,8448,8468,8489,8508,8528,8549,8569,8587,8607,8628,8647,8668,8689,8707,8728,8747,8767,8789,8807,8827,8847,8868,8887,8908,8927,8948,8967,8987,9009,9027,9048,9068,9087,9107,9128,9148,9167,9187,9208,9227,9247,9269,9288,9309,9327,9348,9367,9388,9408,9429,9448,9468,9488,9508,9528,9548,9567,9588,9607,9627,9648,9668,9688,9708,9728,9747,9767,9787,9809,9827,9847,9868,9888,9907,9928,9948,9968,9989,10007,10027,10048,10068,10087,10107,10128,10147,10167,10187,10207,10228,10249,10268,10288,10309,10328],"xSR":741.5,"ySR":573.95,"xT1":424.9,"yT1":0,"xT2":1058.1,"yT2":0,"toosoon":0,"cond_shown":"equaldotanddens","ratio_trial":250,"smaller_num":"2","larger_num":"8","correct_side":1,"subjID":"juanavalentinauribeinfante36","gender":"1","age":"10","school":"sexto"},{"start_time":1551887897910,"click_time":1551887900644,"finger_time":1551887898765,"fix_duration":724.3802534124867,"trial":37,"RT":855,"MT":1879,"sideResp":2,"stimulus":"img/500/equaldotsize/R/2_Ratio_500_L_3_R_6.png","xmouse":[795,795,795,795,795,795,795,795,795,795,795,795,795,795,795,795,795,795,795,795,795,795,795,795,795,795,795,795,795,795,795,795,795,795,795,795,795,795,795,795,794,798,803,809,816,819,822,822,822,822,822,822,822,822,822,822,822,825,830,834,847,853,860,867,876,898,908,916,925,932,937,947,952,959,959,963,965,966,966,967,968,970,970,971,972,973,973,974,975,975,977,977,977,977,977,977,977,978,978,982,986,997,1001,1002,1004,1006,1006,1008,1009,1011,1022,1035,1044,1052,1056,1060,1061,1061,1061,1061,1061,1061,1061,1061,1061,1061,1061,1061,1061,1061,1061,1061,1062,1063,1066,1072,1075],"ymouse":[624,624,624,624,624,624,624,624,624,624,624,624,624,624,624,624,624,624,624,624,624,624,624,624,624,624,624,624,624,624,624,624,624,624,624,624,624,624,624,624,624,601,573,548,524,515,509,509,509,509,509,509,509,509,509,509,508,502,491,482,461,450,438,427,412,373,356,338,318,303,288,268,256,238,234,219,215,209,203,197,190,179,176,175,171,169,166,165,162,161,158,158,158,158,158,158,158,158,158,158,158,160,162,163,163,163,163,163,163,163,156,149,144,140,137,133,133,133,133,133,133,133,133,133,133,133,133,133,133,133,133,132,128,125,118,106,97],"timestamp_mouse":[14,36,55,76,94,115,136,154,176,194,215,236,255,275,296,314,334,355,374,394,416,435,456,474,494,514,536,554,574,595,614,636,654,675,696,714,735,756,775,794,816,836,855,875,895,914,935,955,975,995,1015,1034,1055,1075,1094,1115,1134,1155,1175,1194,1215,1234,1255,1274,1295,1315,1334,1354,1375,1395,1414,1434,1455,1474,1495,1515,1534,1554,1575,1596,1614,1634,1654,1674,1694,1714,1735,1754,1775,1794,1815,1834,1855,1874,1895,1915,1935,1954,1975,1995,2015,2034,2054,2075,2094,2115,2136,2155,2175,2194,2215,2234,2255,2274,2294,2315,2334,2355,2375,2395,2415,2435,2455,2475,2494,2515,2534,2554,2574,2594,2616,2635,2654,2674,2695,2715,2734],"xSR":741.5,"ySR":573.95,"xT1":424.9,"yT1":0,"xT2":1058.1,"yT2":0,"toosoon":0,"cond_shown":"equaldotsize","ratio_trial":500,"smaller_num":"3","larger_num":"6","correct_side":2,"subjID":"juanavalentinauribeinfante36","gender":"1","age":"10","school":"sexto"},{"start_time":1551887910441,"click_time":1551887911624,"finger_time":1551887910844,"fix_duration":714.3183102527919,"trial":38,"RT":403,"MT":780,"sideResp":1,"stimulus":"img/500/equaldotanddens/L/10_Ratio_500_L_4_R_2.png","xmouse":[785,785,785,785,785,785,785,785,785,785,785,785,785,785,785,785,785,785,785,790,941,1005,1039,1044,1049,1049,1049,1048,1048,1046,1046,1046,1046,1046,1046,1046,1046,1046,1046,1031,979,897,803,719,610,592,580,573,568,561,559,557,557,557,557,556,555,549,544,517],"ymouse":[642,642,642,642,642,642,642,642,642,642,642,642,642,642,642,642,642,642,642,642,589,538,500,487,460,444,429,418,412,408,407,407,407,407,407,407,407,407,407,398,371,325,269,215,129,108,91,78,67,56,53,51,51,50,50,50,49,47,45,44],"timestamp_mouse":[8,28,44,64,83,105,125,144,163,184,205,225,243,264,284,304,323,344,364,383,403,423,443,464,483,504,524,543,563,583,603,623,644,663,684,704,723,744,765,784,803,823,844,863,883,903,923,944,964,983,1003,1024,1044,1065,1085,1104,1124,1143,1163,1183],"xSR":741.5,"ySR":573.95,"xT1":424.9,"yT1":0,"xT2":1058.1,"yT2":0,"toosoon":0,"cond_shown":"equaldotanddens","ratio_trial":500,"smaller_num":"2","larger_num":"4","correct_side":1,"subjID":"juanavalentinauribeinfante36","gender":"1","age":"10","school":"sexto"},{"start_time":1551887912477,"click_time":1551887913225,"finger_time":1551887912924,"fix_duration":250,"trial":39,"RT":447,"MT":301,"sideResp":2,"stimulus":"img/250/equaldotsize/R/12_Ratio_250_L_5_R_20.png","xmouse":[789,789,789,789,789,789,789,789,789,789,789,789,789,789,789,789,789,789,789,789,790,795,877,907,929,952,969,992,996,998,1002,1006,1016,1023,1032,1041,1047,1076],"ymouse":[583,583,583,583,583,583,583,583,583,583,583,583,583,583,583,583,583,583,583,583,583,581,535,498,457,405,350,235,207,186,168,150,131,125,120,115,110,87],"timestamp_mouse":[7,27,48,67,89,107,128,149,169,187,208,228,247,268,287,308,328,348,367,387,408,427,447,469,487,507,529,548,569,587,607,627,647,667,687,708,729,748],"xSR":741.5,"ySR":573.95,"xT1":424.9,"yT1":0,"xT2":1058.1,"yT2":0,"toosoon":0,"cond_shown":"equaldotsize","ratio_trial":250,"smaller_num":"5","larger_num":"20","correct_side":2,"subjID":"juanavalentinauribeinfante36","gender":"1","age":"10","school":"sexto"},{"start_time":1551887914375,"click_time":1551887915246,"finger_time":1551887914825,"fix_duration":568.9040831588017,"trial":40,"RT":450,"MT":421,"sideResp":2,"stimulus":"img/750/randomdotsizeEA/L/1_Ratio_750_L_20_R_15.png","xmouse":[784,784,784,784,784,784,784,784,784,784,784,784,784,784,784,784,784,784,784,784,784,785,803,809,814,818,824,844,866,900,947,984,1029,1032,1035,1038,1040,1041,1041,1041,1040,1040,1048,1059],"ymouse":[594,594,594,594,594,594,594,594,594,594,594,594,594,594,594,594,594,594,594,594,594,592,555,540,523,513,500,471,451,417,354,292,207,191,179,168,154,145,142,140,139,138,112,95],"timestamp_mouse":[9,38,50,71,91,109,130,151,169,190,210,231,250,270,290,310,330,350,369,391,409,429,450,469,489,510,531,549,569,590,610,629,649,669,689,709,730,749,769,789,809,830,849,871],"xSR":741.5,"ySR":573.95,"xT1":424.9,"yT1":0,"xT2":1058.1,"yT2":0,"toosoon":0,"cond_shown":"randomdotsizeEA","ratio_trial":750,"smaller_num":"15","larger_num":"20","correct_side":1,"subjID":"juanavalentinauribeinfante36","gender":"1","age":"10","school":"sexto"},{"start_time":1551887917607,"click_time":1551887918524,"finger_time":1551887918264,"fix_duration":1421.7724254313596,"trial":41,"RT":657,"MT":260,"sideResp":1,"stimulus":"img/900/randomdotsizeEA/L/4_Ratio_900_L_20_R_18.png","xmouse":[809,809,809,809,809,809,809,809,809,809,809,809,809,809,809,809,809,809,809,809,804,802,801,801,801,801,801,801,801,801,801,795,783,765,737,665,635,613,602,595,576,566,556,541,528,516],"ymouse":[637,637,637,637,637,637,637,637,637,637,637,637,637,637,637,637,637,637,637,634,611,602,597,595,594,594,594,594,594,594,593,584,567,535,492,357,289,243,217,202,170,159,147,131,113,89],"timestamp_mouse":[28,39,57,78,99,118,138,157,179,197,218,238,259,278,298,318,337,357,379,397,418,437,458,477,497,518,538,557,578,598,617,638,657,677,697,717,737,758,777,798,817,837,857,878,898,917],"xSR":741.5,"ySR":573.95,"xT1":424.9,"yT1":0,"xT2":1058.1,"yT2":0,"toosoon":0,"cond_shown":"randomdotsizeEA","ratio_trial":900,"smaller_num":"18","larger_num":"20","correct_side":1,"subjID":"juanavalentinauribeinfante36","gender":"1","age":"10","school":"sexto"},{"start_time":1551887919890,"click_time":1551887921406,"finger_time":1551887920644,"fix_duration":383.94889017759203,"trial":42,"RT":754,"MT":762,"sideResp":1,"stimulus":"img/900/equaldotanddens/L/8_Ratio_900_L_20_R_18.png","xmouse":[750,750,750,750,750,750,750,750,750,750,750,750,750,750,750,750,750,750,750,750,750,750,750,750,750,750,750,750,750,750,750,750,750,750,752,756,768,812,850,892,921,968,987,998,1005,1011,1023,1024,1024,1024,1024,1024,1024,1010,978,924,721,645,584,555,540,530,530,530,530,530,530,530,530,530,530,530,530,529,528,521],"ymouse":[631,631,631,631,631,631,631,631,631,631,631,631,631,631,631,631,631,631,631,631,631,631,631,631,631,631,631,631,631,631,631,631,631,631,631,624,599,514,450,383,322,236,202,179,164,150,120,117,116,116,116,116,115,115,115,115,106,82,62,44,33,21,19,18,18,18,18,18,18,18,18,18,18,18,18,24],"timestamp_mouse":[14,36,55,74,95,115,134,156,175,195,214,235,254,275,294,314,335,354,375,394,414,436,456,476,494,515,535,556,574,596,614,636,654,675,696,715,734,754,774,794,814,834,854,874,895,915,934,954,975,995,1015,1035,1054,1074,1096,1115,1135,1154,1174,1194,1214,1235,1255,1275,1294,1314,1335,1355,1374,1394,1414,1435,1454,1475,1494,1516],"xSR":741.5,"ySR":573.95,"xT1":424.9,"yT1":0,"xT2":1058.1,"yT2":0,"toosoon":0,"cond_shown":"equaldotanddens","ratio_trial":900,"smaller_num":"18","larger_num":"20","correct_side":1,"subjID":"juanavalentinauribeinfante36","gender":"1","age":"10","school":"sexto"},{"start_time":1551887923254,"click_time":1551887924705,"finger_time":1551887924125,"fix_duration":786.1869705744178,"trial":43,"RT":871,"MT":580,"sideResp":2,"stimulus":"img/750/randomdotsizeEA/L/8_Ratio_750_L_4_R_3.png","xmouse":[758,758,758,758,758,758,758,758,758,758,758,758,758,758,758,758,758,758,758,758,758,758,758,758,758,758,758,758,758,758,758,758,758,758,758,758,758,758,758,758,758,759,771,909,980,1041,1096,1146,1256,1269,1276,1280,1299,1311,1316,1316,1316,1316,1303,1285,1266,1245,1228,1211,1182,1171,1161,1161,1161,1161,1161,1160,1154],"ymouse":[658,658,658,658,658,658,658,658,658,658,658,658,658,658,658,658,658,658,658,658,658,658,658,658,658,658,658,658,658,658,658,658,658,658,658,658,658,658,658,658,658,658,649,505,412,315,229,158,41,25,15,10,0,0,0,0,0,0,3,11,18,23,26,28,29,29,29,29,29,29,29,29,29],"timestamp_mouse":[10,30,51,71,90,111,131,150,170,191,211,231,251,271,291,310,332,350,370,390,411,430,450,471,492,511,530,551,571,592,611,632,651,670,691,711,730,751,770,791,810,831,852,871,891,910,932,952,971,991,1010,1031,1051,1071,1091,1110,1130,11