[{"start_time":1551886896119,"click_time":1551886958190,"finger_time":1551886954688,"fix_duration":1366.5364923441914,"trial":0,"RT":58569,"MT":3502,"sideResp":2,"stimulus":[],"xmouse":[824,824,824,824,824,824,824,824,824,824,824,824,824,824,824,824,824,824,824,824,824,824,824,824,824,823,820,819,818,813,812,812,812,812,812,812,812,812,812,810,809,807,806,806,806,806,806,806,806,806,806,806,806,806,806,806,806,806,806,806,806,806,806,806,806,806,806,806,806,806,806,806,806,806,806,806,806,806,806,806,806,806,806,806,806,806,806,806,806,806,806,806,806,806,806,806,806,806,806,806,806,806,806,806,806,806,806,806,806,806,806,806,806,806,806,806,806,806,806,806,806,806,806,806,806,806,806,806,806,806,806,806,806,806,806,806,806,806,806,806,806,806,806,806,806,806,806,806,806,806,806,806,806,806,806,806,806,806,806,806,806,806,806,806,806,806,806,806,806,806,806,806,806,806,806,806,806,806,806,806,806,806,806,806,806,806,806,806,806,806,806,806,806,806,806,806,806,806,806,806,806,806,806,806,806,806,806,806,806,806,806,806,806,806,806,806,806,806,806,806,806,806,806,806,806,806,806,806,806,806,806,806,806,806,806,806,806,806,806,806,806,806,806,806,806,806,806,806,806,806,806,806,806,806,806,806,806,806,806,806,806,806,806,806,806,806,806,806,806,806,806,806,806,806,806,806,806,806,806,806,806,806,806,806,806,806,806,806,806,806,806,806,806,806,806,806,806,806,806,806,806,806,806,806,806,806,806,806,806,806,806,806,806,806,806,806,806,806,806,806,806,806,806,806,806,806,806,806,806,806,806,806,806,806,806,806,806,806,806,806,806,806,806,806,806,806,806,806,806,806,806,806,806,806,806,806,806,806,806,806,806,806,806,806,806,806,806,806,806,806,806,806,806,806,806,806,806,806,806,806,806,806,806,806,806,806,806,806,806,806,806,806,806,806,806,806,806,806,806,806,806,806,806,806,806,806,806,806,806,806,806,806,806,806,806,806,806,806,806,806,806,806,806,806,806,806,806,806,806,806,806,806,806,806,806,806,806,806,806,806,806,806,806,806,806,806,806,806,806,806,806,806,806,806,806,806,806,806,806,806,806,806,806,806,806,806,806,806,806,806,806,806,806,806,806,806,806,806,806,806,806,806,806,806,806,806,806,806,806,806,806,806,806,806,806,806,806,806,806,806,806,806,806,806,806,806,806,806,806,806,806,806,806,806,806,806,806,806,806,806,806,806,806,806,806,806,806,806,806,806,806,806,806,806,806,806,806,806,806,806,806,806,806,806,806,806,806,806,806,806,806,806,806,806,806,806,806,806,806,806,806,806,806,806,806,806,806,806,806,806,806,806,806,806,806,806,806,806,806,806,806,806,806,806,806,806,806,806,806,806,806,806,806,806,806,806,806,806,806,806,806,806,806,806,806,806,806,806,806,806,806,806,806,806,806,806,806,806,806,806,806,806,806,806,806,806,806,806,806,806,806,806,806,806,806,806,806,806,806,806,806,806,806,806,806,806,806,806,806,806,806,806,806,806,806,806,806,806,806,806,806,806,806,806,806,806,806,806,806,806,806,806,806,806,806,806,806,806,806,806,806,806,806,806,806,806,806,806,806,806,806,806,806,806,806,806,806,806,806,806,806,806,806,806,806,806,806,806,806,806,806,806,806,806,806,806,806,806,806,806,806,806,806,806,806,806,806,806,806,806,806,806,806,806,806,806,806,806,806,806,806,806,806,806,806,806,806,806,806,806,806,806,806,806,806,806,806,806,806,806,806,806,806,806,806,806,806,806,806,806,806,806,806,806,806,806,806,806,806,806,806,806,806,806,806,806,806,806,806,806,806,806,806,806,806,806,806,806,806,806,806,806,806,806,806,806,806,806,806,806,806,806,806,806,806,806,806,806,806,806,806,806,806,806,806,806,806,806,806,806,806,806,806,806,806,806,806,806,806,806,806,806,806,806,806,806,806,806,806,806,806,806,806,806,806,806,806,806,806,806,806,806,806,806,806,806,806,806,806,806,806,806,806,806,806,806,806,806,806,806,806,806,806,806,806,806,806,806,806,806,806,806,806,806,806,806,806,806,806,806,806,806,806,806,806,806,806,806,806,806,806,806,806,806,806,806,806,806,806,806,806,806,806,806,806,806,806,806,806,806,806,806,806,806,806,806,806,806,806,806,806,806,806,806,806,806,806,806,806,806,806,806,806,806,806,806,806,806,806,806,806,806,806,806,806,806,806,806,806,806,806,806,806,806,806,806,806,806,806,806,806,806,806,806,806,806,806,806,806,806,806,806,806,806,806,806,806,806,806,806,806,806,806,806,806,806,806,806,806,806,806,806,806,806,806,806,806,806,806,806,806,806,806,806,806,806,806,806,806,806,806,806,806,806,806,806,806,806,806,806,806,806,806,806,806,806,806,806,806,806,806,806,806,806,806,806,806,806,806,806,806,806,806,806,806,806,806,806,806,806,806,806,806,806,806,806,806,806,806,806,806,806,806,806,806,806,806,806,806,806,806,806,806,806,806,806,806,806,806,806,806,806,806,806,806,806,806,806,806,806,806,806,806,806,806,806,806,806,806,806,806,806,806,806,806,806,806,806,806,806,806,806,806,806,806,806,806,806,806,806,806,806,806,806,806,806,806,806,806,806,806,806,806,806,806,806,806,806,806,806,806,806,806,806,806,806,806,806,806,806,806,806,806,806,806,806,806,806,806,806,806,806,806,806,806,806,806,806,806,806,806,806,806,806,806,806,806,806,806,806,806,806,806,806,806,806,806,806,806,806,806,806,806,806,806,806,806,806,806,806,806,806,806,806,806,806,806,806,806,806,806,806,806,806,806,806,806,806,806,806,806,806,806,806,806,806,806,806,806,806,806,806,806,806,806,806,806,806,806,806,806,806,806,806,806,806,806,806,806,806,806,806,806,806,806,806,806,806,806,806,806,806,806,806,806,806,806,806,806,806,806,806,806,806,806,806,806,806,806,806,806,806,806,806,806,806,806,806,806,806,806,806,806,806,806,806,806,806,806,806,806,806,806,806,806,806,806,806,806,806,806,806,806,806,806,806,806,806,806,806,806,806,806,806,806,806,806,806,806,806,806,806,806,806,806,806,806,806,806,806,806,806,806,806,806,806,806,806,806,806,806,806,806,806,806,806,806,806,806,806,806,806,806,806,806,806,806,806,806,806,806,806,806,806,806,806,806,806,806,806,806,806,806,806,806,806,806,806,806,806,806,806,806,806,806,806,806,806,806,806,806,806,806,806,806,806,806,806,806,806,806,806,806,806,806,806,806,806,806,806,806,806,806,806,806,806,806,806,806,806,806,806,806,806,806,806,806,806,806,806,806,806,806,806,806,806,806,806,806,806,806,806,806,806,806,806,806,806,806,806,806,806,806,806,806,806,806,806,806,806,806,806,806,806,806,806,806,806,806,806,806,806,806,806,806,806,806,806,802,800,800,800,800,800,800,800,800,800,800,800,800,800,800,800,800,800,800,800,800,800,800,800,800,800,800,800,800,800,800,800,800,800,800,800,800,800,800,800,800,800,800,800,800,800,800,800,800,800,800,800,800,800,800,800,800,800,800,800,800,800,800,800,800,800,800,800,800,801,801,801,801,801,801,801,801,801,801,801,801,801,801,801,801,801,801,801,801,801,801,801,801,801,801,801,801,801,801,801,801,801,801,801,801,801,801,801,801,801,801,801,801,801,801,801,801,801,801,801,801,801,801,801,801,801,801,801,801,801,801,801,801,801,801,801,801,801,801,801,801,801,801,801,801,801,801,801,801,801,801,801,801,801,801,801,801,801,801,801,801,801,801,801,801,801,801,801,801,801,801,801,801,801,801,801,801,801,801,801,801,801,801,801,801,801,801,801,801,801,801,801,801,801,801,801,801,801,801,801,801,801,801,801,801,801,801,801,801,801,801,801,801,801,801,801,801,801,801,801,801,801,801,801,801,801,801,801,801,801,801,801,801,801,801,801,801,801,801,801,801,801,801,801,801,801,801,801,801,801,801,801,801,801,801,801,801,801,801,801,801,801,801,801,801,801,801,801,801,801,801,801,801,801,801,801,801,801,801,801,801,801,801,801,801,801,801,801,801,801,801,801,801,801,801,801,801,801,801,801,801,801,801,801,801,801,801,801,801,801,801,801,801,801,801,801,801,801,801,801,801,801,801,801,801,801,801,801,801,801,801,801,801,801,801,801,801,801,801,801,801,801,801,801,801,801,801,801,801,801,801,801,801,801,801,801,801,801,801,801,801,801,801,801,801,801,801,801,801,801,801,801,801,801,801,801,801,801,801,801,801,801,801,801,801,801,801,801,801,801,801,801,801,801,801,801,801,801,801,801,801,801,801,801,801,801,801,801,801,801,801,801,801,801,801,801,801,801,801,801,801,801,801,801,801,801,801,801,801,801,801,801,801,801,801,801,801,801,801,801,801,801,801,801,801,801,801,801,801,801,801,801,801,801,801,801,801,801,801,801,801,801,801,801,801,801,801,801,801,801,801,801,801,801,801,801,801,801,801,801,801,801,801,801,801,801,801,801,801,801,801,801,801,801,801,801,801,801,801,801,801,801,801,801,801,801,801,801,801,801,801,801,801,801,801,801,801,801,801,801,801,801,801,801,801,801,801,801,801,801,801,801,801,801,801,801,801,801,801,801,801,801,801,801,801,801,801,801,801,801,801,801,801,801,801,801,801,801,801,801,801,801,801,801,801,801,801,801,801,801,801,801,801,801,801,801,801,801,801,801,801,801,801,801,801,801,801,801,801,801,801,801,801,801,801,801,801,801,801,801,801,801,801,801,801,801,801,801,801,801,801,801,801,801,801,801,801,801,801,801,801,801,801,801,801,801,801,801,801,801,801,801,801,801,801,801,801,801,801,801,801,801,801,801,801,801,801,801,801,801,801,801,801,801,801,801,801,801,801,801,801,801,801,801,801,801,801,801,801,801,801,801,801,801,801,801,801,801,801,801,801,801,801,801,801,801,801,801,801,801,801,801,801,801,801,801,801,801,801,801,801,801,801,801,801,801,801,801,801,801,801,801,801,801,801,801,801,801,801,801,801,801,801,801,801,801,801,801,801,801,801,801,801,801,801,801,801,801,801,801,801,801,801,801,801,801,801,801,801,801,801,801,801,801,801,801,801,801,801,801,801,801,801,801,801,801,801,801,801,801,801,801,801,801,801,801,801,801,801,801,801,801,801,801,801,801,801,801,801,801,801,801,801,801,801,801,801,801,801,801,801,801,801,801,801,801,801,801,801,801,801,801,801,801,801,801,801,801,801,801,801,801,801,801,801,801,801,801,801,801,801,801,801,801,801,801,801,801,801,801,801,801,801,801,801,801,801,801,801,801,801,801,801,801,801,801,801,801,801,801,801,801,801,801,801,801,801,801,801,801,801,801,801,801,801,801,801,801,801,801,801,801,801,801,801,801,801,801,801,801,801,801,801,801,801,801,801,801,801,801,801,801,801,801,801,801,801,801,801,801,801,801,801,801,801,801,801,801,801,801,801,801,801,801,801,801,801,801,801,801,801,801,801,801,801,801,801,801,801,801,801,801,801,801,801,801,801,801,801,801,801,801,801,801,801,801,801,801,801,801,801,801,801,801,801,801,801,801,801,801,801,801,801,801,801,801,801,801,801,801,801,801,801,801,801,801,801,801,801,801,801,801,801,801,801,801,801,801,801,801,801,801,801,801,801,801,801,801,801,801,801,801,801,801,801,801,801,801,801,801,801,801,801,801,801,801,801,801,801,801,801,801,801,801,801,801,801,801,801,801,801,801,801,801,801,801,801,801,801,801,801,801,801,801,801,801,801,801,801,801,801,801,801,801,801,801,801,801,801,801,801,801,801,801,801,801,801,801,801,801,801,801,801,801,801,801,801,801,801,801,801,801,801,801,801,801,801,801,801,801,801,801,801,801,801,801,801,801,801,801,801,801,801,801,801,801,801,801,801,801,801,801,801,801,801,801,801,801,801,801,801,801,801,801,801,801,801,801,801,801,801,801,801,801,801,801,801,801,801,801,801,801,801,801,801,801,801,801,801,801,801,801,801,801,801,801,801,801,801,801,801,801,801,801,801,801,801,801,801,801,801,801,801,801,801,801,801,801,801,801,801,801,801,801,801,801,801,801,801,801,801,801,801,801,801,801,801,801,801,801,801,801,801,801,801,801,801,801,801,801,801,801,801,801,801,801,801,801,801,801,801,801,801,801,801,801,801,801,801,801,801,801,801,801,801,801,801,801,801,801,801,801,801,801,801,801,801,801,801,801,801,801,801,801,801,801,801,801,801,801,801,801,801,801,801,801,801,801,801,801,801,801,801,801,801,801,801,801,801,801,801,801,801,801,801,801,801,801,801,801,801,801,801,801,801,801,801,801,801,801,801,801,801,801,801,801,801,801,801,801,801,801,801,801,801,801,801,801,801,801,801,801,801,801,801,801,801,801,801,801,801,801,801,801,801,801,801,801,801,801,801,801,801,801,801,801,801,801,801,801,801,801,801,801,801,801,801,801,801,801,801,801,801,801,801,801,801,801,801,801,801,801,801,801,801,801,801,801,801,801,801,801,801,801,801,801,801,801,801,801,801,801,801,801,801,801,801,801,801,801,801,801,801,801,801,801,801,801,801,805,820,830,841,850,857,858,858,858,858,858,859,858,855,850,845,842,827,821,816,810,803,787,780,775,774,774,774,774,774,774,774,774,774,774,773,773,775,775,775,775,775,775,775,775,775,775,775,775,775,775,775,775,775,775,775,775,775,775,775,775,775,775,775,775,775,775,775,775,775,775,775,775,775,775,775,775,775,775,775,775,775,775,775,775,775,775,775,775,775,775,775,775,775,775,775,775,775,775,775,775,775,775,775,775,775,775,775,775,775,775,775,775,775,775,775,775,775,775,775,775,775,775,775,775,775,775,775,775,775,775,775,775,775,775,775,775,775,775,775,775,775,775,775,775,775,775,775,775,775,775,775,775,775,775,775,775,774,773,772,770,770,797,835,871,910,981,1014,1020,1023,1024,1026,1032,1040,1047,1055,1065],"ymouse":[522,522,522,522,522,522,522,522,522,522,522,522,522,522,522,522,522,522,522,522,522,522,522,522,522,522,522,522,522,523,523,523,523,523,523,523,523,523,523,524,524,525,525,525,525,525,525,525,525,525,525,525,525,525,525,525,525,525,525,525,525,525,525,525,525,525,525,525,525,525,525,525,525,525,525,525,525,525,525,525,525,525,525,525,525,525,525,525,525,525,525,525,525,525,525,525,525,525,525,525,525,525,525,525,525,525,525,525,525,525,525,525,525,525,525,525,525,525,525,525,525,525,525,525,525,525,525,525,525,525,525,525,525,525,525,525,525,525,525,525,525,525,525,525,525,525,525,525,525,525,525,525,525,525,525,525,525,525,525,525,525,525,525,525,525,525,525,525,525,525,525,525,525,525,525,525,525,525,525,525,525,525,525,525,525,525,525,525,525,525,525,525,525,525,525,525,525,525,525,525,525,525,525,525,525,525,525,525,525,525,525,525,525,525,525,525,525,525,525,525,525,525,525,525,525,525,525,525,525,525,525,525,525,525,525,525,525,525,525,525,525,525,525,525,525,525,525,525,525,525,525,525,525,525,525,525,525,525,525,525,525,525,525,525,525,525,525,525,525,525,525,525,525,525,525,525,525,525,525,525,525,525,525,525,525,525,525,525,525,525,525,525,525,525,525,525,525,525,525,525,525,525,525,525,525,525,525,525,525,525,525,525,525,525,525,525,525,525,525,525,525,525,525,525,525,525,525,525,525,525,525,525,525,525,525,525,525,525,525,525,525,525,525,525,525,525,525,525,525,525,525,525,525,525,525,525,525,525,525,525,525,525,525,525,525,525,525,525,525,525,525,525,525,525,525,525,525,525,525,525,525,525,525,525,525,525,525,525,525,525,525,525,525,525,525,525,525,525,525,525,525,525,525,525,525,525,525,525,525,525,525,525,525,525,525,525,525,525,525,525,525,525,525,525,525,525,525,525,525,525,525,525,525,525,525,525,525,525,525,525,525,525,525,525,525,525,525,525,525,525,525,525,525,525,525,525,525,525,525,525,525,525,525,525,525,525,525,525,525,525,525,525,525,525,525,525,525,525,525,525,525,525,525,525,525,525,525,525,525,525,525,525,525,525,525,525,525,525,525,525,525,525,525,525,525,525,525,525,525,525,525,525,525,525,525,525,525,525,525,525,525,525,525,525,525,525,525,525,525,525,525,525,525,525,525,525,525,525,525,525,525,525,525,525,525,525,525,525,525,525,525,525,525,525,525,525,525,525,525,525,525,525,525,525,525,525,525,525,525,525,525,525,525,525,525,525,525,525,525,525,525,525,525,525,525,525,525,525,525,525,525,525,525,525,525,525,525,525,525,525,525,525,525,525,525,525,525,525,525,525,525,525,525,525,525,525,525,525,525,525,525,525,525,525,525,525,525,525,525,525,525,525,525,525,525,525,525,525,525,525,525,525,525,525,525,525,525,525,525,525,525,525,525,525,525,525,525,525,525,525,525,525,525,525,525,525,525,525,525,525,525,525,525,525,525,525,525,525,525,525,525,525,525,525,525,525,525,525,525,525,525,525,525,525,525,525,525,525,525,525,525,525,525,525,525,525,525,525,525,525,525,525,525,525,525,525,525,525,525,525,525,525,525,525,525,525,525,525,525,525,525,525,525,525,525,525,525,525,525,525,525,525,525,525,525,525,525,525,525,525,525,525,525,525,525,525,525,525,525,525,525,525,525,525,525,525,525,525,525,525,525,525,525,525,525,525,525,525,525,525,525,525,525,525,525,525,525,525,525,525,525,525,525,525,525,525,525,525,525,525,525,525,525,525,525,525,525,525,525,525,525,525,525,525,525,525,525,525,525,525,525,525,525,525,525,525,525,525,525,525,525,525,525,525,525,525,525,525,525,525,525,525,525,525,525,525,525,525,525,525,525,525,525,525,525,525,525,525,525,525,525,525,525,525,525,525,525,525,525,525,525,525,525,525,525,525,525,525,525,525,525,525,525,525,525,525,525,525,525,525,525,525,525,525,525,525,525,525,525,525,525,525,525,525,525,525,525,525,525,525,525,525,525,525,525,525,525,525,525,525,525,525,525,525,525,525,525,525,525,525,525,525,525,525,525,525,525,525,525,525,525,525,525,525,525,525,525,525,525,525,525,525,525,525,525,525,525,525,525,525,525,525,525,525,525,525,525,525,525,525,525,525,525,525,525,525,525,525,525,525,525,525,525,525,525,525,525,525,525,525,525,525,525,525,525,525,525,525,525,525,525,525,525,525,525,525,525,525,525,525,525,525,525,525,525,525,525,525,525,525,525,525,525,525,525,525,525,525,525,525,525,525,525,525,525,525,525,525,525,525,525,525,525,525,525,525,525,525,525,525,525,525,525,525,525,525,525,525,525,525,525,525,525,525,525,525,525,525,525,525,525,525,525,525,525,525,525,525,525,525,525,525,525,525,525,525,525,525,525,525,525,525,525,525,525,525,525,525,525,525,525,525,525,525,525,525,525,525,525,525,525,525,525,525,525,525,525,525,525,525,525,525,525,525,525,525,525,525,525,525,525,525,525,525,525,525,525,525,525,525,525,525,525,525,525,525,525,525,525,525,525,525,525,525,525,525,525,525,525,525,525,525,525,525,525,525,525,525,525,525,525,525,525,525,525,525,525,525,525,525,525,525,525,525,525,525,525,525,525,525,525,525,525,525,525,525,525,525,525,525,525,525,525,525,525,525,525,525,525,525,525,525,525,525,525,525,525,525,525,525,525,525,525,525,525,525,525,525,525,525,525,525,525,525,525,525,525,525,525,525,525,525,525,525,525,525,525,525,525,525,525,525,525,525,525,525,525,525,525,525,525,525,525,525,525,525,525,525,525,525,525,525,525,525,525,525,525,525,525,525,525,525,525,525,525,525,525,525,525,525,525,525,525,525,525,525,525,525,525,525,525,525,525,525,525,525,525,525,525,525,525,525,525,525,525,525,525,525,525,525,525,525,525,525,525,525,525,525,525,525,525,525,525,525,525,525,525,525,525,525,525,525,525,525,525,525,525,525,525,525,525,525,525,525,525,525,525,525,525,525,525,525,525,525,525,525,525,525,525,525,525,525,525,525,525,525,525,525,525,525,525,525,525,525,525,525,525,525,525,525,525,525,525,525,525,525,525,525,525,525,525,525,525,525,525,525,525,525,525,525,525,525,525,525,525,525,525,525,525,525,525,525,525,525,525,525,525,525,525,525,525,525,525,525,525,525,525,525,525,525,525,525,525,525,525,525,525,525,525,525,525,525,525,525,525,525,525,525,525,525,525,525,525,525,525,525,525,525,525,525,525,525,525,525,525,525,525,525,525,525,525,525,525,525,525,525,525,525,525,525,525,525,525,525,525,525,525,525,525,525,525,525,525,525,525,525,525,525,520,517,517,517,517,517,517,517,517,517,517,517,517,517,517,517,517,517,517,517,517,517,517,517,517,517,517,517,517,517,517,517,517,517,517,517,517,517,517,517,517,517,517,517,517,517,517,517,517,517,517,517,517,517,517,517,517,517,517,517,517,517,517,517,517,517,517,515,511,510,509,505,504,503,502,501,501,501,501,501,501,501,501,501,501,501,501,501,501,501,501,501,501,501,501,501,501,501,501,501,501,501,501,501,501,501,501,501,501,501,501,501,501,501,501,501,501,501,501,501,501,501,501,501,501,501,501,501,501,501,501,501,501,501,501,501,501,501,501,501,501,501,501,501,501,501,501,501,501,501,501,501,501,501,501,501,501,501,501,501,501,501,501,501,501,501,501,501,501,501,501,501,501,501,501,501,501,501,501,501,501,501,501,501,501,501,501,501,501,501,501,501,501,501,501,501,501,501,501,501,501,501,501,501,501,501,501,501,501,501,501,501,501,501,501,501,501,501,501,501,501,501,501,501,501,501,501,501,501,501,501,501,501,501,501,501,501,501,501,501,501,501,501,501,501,501,501,501,501,501,501,501,501,501,501,501,501,501,501,501,501,501,501,501,501,501,501,501,501,501,501,501,501,501,501,501,501,501,501,501,501,501,501,501,501,501,501,501,501,501,501,501,501,501,501,501,501,501,501,501,501,501,501,501,501,501,501,501,501,501,501,501,501,501,501,501,501,501,501,501,501,501,501,501,501,501,501,501,501,501,501,501,501,501,501,501,501,501,501,501,501,501,501,501,501,501,501,501,501,501,501,501,501,501,501,501,501,501,501,501,501,501,501,501,501,501,501,501,501,501,501,501,501,501,501,501,501,501,501,501,501,501,501,501,501,501,501,501,501,501,501,501,501,501,501,501,501,501,501,501,501,501,501,501,501,501,501,501,501,501,501,501,501,501,501,501,501,501,501,501,501,501,501,501,501,501,501,501,501,501,501,501,501,501,501,501,501,501,501,501,501,501,501,501,501,501,501,501,501,501,501,501,501,501,501,501,501,501,501,501,501,501,501,501,501,501,501,501,501,501,501,501,501,501,501,501,501,501,501,501,501,501,501,501,501,501,501,501,501,501,501,501,501,501,501,501,501,501,501,501,501,501,501,501,501,501,501,501,501,501,501,501,501,501,501,501,501,501,501,501,501,501,501,501,501,501,501,501,501,501,501,501,501,501,501,501,501,501,501,501,501,501,501,501,501,501,501,501,501,501,501,501,501,501,501,501,501,501,501,501,501,501,501,501,501,501,501,501,501,501,501,501,501,501,501,501,501,501,501,501,501,501,501,501,501,501,501,501,501,501,501,501,501,501,501,501,501,501,501,501,501,501,501,501,501,501,501,501,501,501,501,501,501,501,501,501,501,501,501,501,501,501,501,501,501,501,501,501,501,501,501,501,501,501,501,501,501,501,501,501,501,501,501,501,501,501,501,501,501,501,501,501,501,501,501,501,501,501,501,501,501,501,501,501,501,501,501,501,501,501,501,501,501,501,501,501,501,501,501,501,501,501,501,501,501,501,501,501,501,501,501,501,501,501,501,501,501,501,501,501,501,501,501,501,501,501,501,501,501,501,501,501,501,501,501,501,501,501,501,501,501,501,501,501,501,501,501,501,501,501,501,501,501,501,501,501,501,501,501,501,501,501,501,501,501,501,501,501,501,501,501,501,501,501,501,501,501,501,501,501,501,501,501,501,501,501,501,501,501,501,501,501,501,501,501,501,501,501,501,501,501,501,501,501,501,501,501,501,501,501,501,501,501,501,501,501,501,501,501,501,501,501,501,501,501,501,501,501,501,501,501,501,501,501,501,501,501,501,501,501,501,501,501,501,501,501,501,501,501,501,501,501,501,501,501,501,501,501,501,501,501,501,501,501,501,501,501,501,501,501,501,501,501,501,501,501,501,501,501,501,501,501,501,501,501,501,501,501,501,501,501,501,501,501,501,501,501,501,501,501,501,501,501,501,501,501,501,501,501,501,501,501,501,501,501,501,501,501,501,501,501,501,501,501,501,501,501,501,501,501,501,501,501,501,501,501,501,501,501,501,501,501,501,501,501,501,501,501,501,501,501,501,501,501,501,501,501,501,501,501,501,501,501,501,501,501,501,501,501,501,501,501,501,501,501,501,501,501,501,501,501,501,501,501,501,501,501,501,501,501,501,501,501,501,501,501,501,501,501,501,501,501,501,501,501,501,501,501,501,501,501,501,501,501,501,501,501,501,501,501,501,501,501,501,501,501,501,501,501,501,501,501,501,501,501,501,501,501,501,501,501,501,501,501,501,501,501,501,501,501,501,501,501,501,501,501,501,501,501,501,501,501,501,501,501,501,501,501,501,501,501,501,501,501,501,501,501,501,501,501,501,501,501,501,501,501,501,501,501,501,501,501,501,501,501,501,501,501,501,501,501,501,501,501,501,501,501,501,501,501,501,501,501,501,501,501,501,501,501,501,501,501,501,501,501,501,501,501,501,501,501,501,501,501,501,501,501,501,501,501,501,501,501,501,501,501,501,501,501,501,501,501,501,501,501,501,501,501,501,501,501,501,501,501,501,501,501,501,501,501,501,501,501,501,501,501,501,501,501,501,501,501,501,501,501,501,501,501,501,501,501,501,501,501,501,501,501,501,501,501,501,501,501,501,501,501,501,501,501,501,501,501,501,501,501,501,501,501,501,501,501,501,501,501,501,501,501,501,501,501,501,501,501,501,501,501,501,501,501,501,501,501,501,501,501,501,501,501,501,501,501,501,501,501,501,501,501,501,501,501,501,501,501,501,501,501,501,501,501,501,501,501,501,501,501,501,501,501,501,501,501,501,501,501,501,501,501,501,501,501,501,501,501,501,501,501,501,501,501,501,501,501,501,501,501,501,501,501,501,501,501,501,501,501,501,501,501,501,501,501,501,501,501,501,501,501,501,501,501,501,501,501,501,501,501,501,501,501,501,501,501,501,501,501,501,501,501,501,501,501,501,501,501,501,501,501,501,501,501,501,501,501,501,501,501,501,501,501,501,501,501,501,501,501,501,501,501,501,501,501,501,501,501,501,501,501,501,501,501,501,501,501,501,501,501,501,501,501,501,501,501,501,501,501,501,501,501,501,501,501,501,501,501,501,501,501,501,501,501,501,501,501,501,501,501,501,501,501,501,501,501,501,501,501,501,501,501,501,498,482,431,406,381,363,353,353,353,353,353,353,353,368,384,399,417,431,464,476,486,498,510,530,539,543,544,544,544,544,544,544,544,544,544,544,544,543,540,539,539,539,539,539,539,539,539,539,539,539,539,539,539,539,539,539,539,539,539,539,539,539,539,539,539,539,539,539,539,539,539,539,539,539,539,539,539,539,539,539,539,539,539,539,539,539,539,539,539,539,539,539,539,539,539,539,539,539,539,539,539,539,539,539,539,539,539,539,539,539,539,539,539,539,539,539,539,539,539,539,539,539,539,539,539,539,539,539,539,539,539,539,539,539,539,539,539,539,539,539,539,539,539,539,539,539,539,539,539,539,539,539,539,539,539,535,531,520,494,483,471,456,436,354,299,249,212,149,106,96,91,89,87,84,82,79,77,72],"timestamp_mouse":[8,38,49,70,89,108,129,149,169,188,208,229,249,268,289,309,328,348,369,388,408,428,449,468,488,509,528,549,568,588,609,628,649,668,688,710,729,749,769,788,809,828,849,868,889,909,928,950,968,988,1008,1028,1050,1068,1088,1109,1129,1149,1169,1188,1209,1229,1248,1269,1288,1309,1330,1349,1368,1388,1409,1429,1449,1468,1489,1508,1529,1548,1569,1588,1609,1630,1648,1668,1689,1708,1729,1749,1769,1789,1809,1829,1848,1869,1888,1908,1929,1949,1969,1988,2009,2028,2048,2069,2088,2108,2129,2149,2168,2188,2210,2230,2249,2268,2288,2310,2329,2349,2368,2389,2409,2429,2449,2468,2488,2510,2528,2549,2569,2588,2609,2629,2649,2668,2688,2708,2728,2750,2768,2788,2809,2829,2848,2869,2888,2909,2928,2950,2970,2988,3008,3030,3048,3069,3088,3110,3128,3148,3169,3188,3208,3228,3249,3268,3288,3310,3329,3348,3368,3388,3410,3428,3448,3469,3489,3509,3529,3549,3568,3589,3608,3629,3649,3669,3688,3710,3729,3749,3768,3790,3809,3829,3848,3870,3888,3909,3928,3949,3969,3989,4009,4029,4049,4069,4088,4108,4130,4149,4170,4188,4209,4229,4250,4269,4289,4309,4329,4349,4368,4388,4410,4430,4450,4469,4488,4508,4528,4548,4568,4589,4608,4628,4650,4669,4689,4708,4728,4750,4768,4789,4810,4828,4849,4869,4889,4908,4929,4949,4970,4988,5009,5029,5048,5070,5088,5108,5130,5149,5168,5188,5209,5228,5248,5269,5288,5310,5330,5350,5368,5390,5408,5429,5449,5470,5488,5509,5528,5549,5569,5589,5609,5629,5649,5668,5689,5708,5728,5748,5768,5788,5808,5828,5849,5868,5889,5908,5928,5949,5968,5988,6009,6028,6049,6070,6088,6109,6128,6149,6170,6188,6208,6230,6248,6268,6288,6309,6330,6349,6369,6388,6408,6429,6448,6468,6489,6509,6528,6549,6568,6589,6608,6630,6648,6669,6688,6709,6730,6748,6769,6788,6808,6830,6848,6869,6888,6910,6929,6948,6968,6988,7010,7029,7049,7069,7089,7108,7129,7150,7169,7189,7209,7229,7250,7269,7288,7308,7329,7350,7368,7388,7410,7428,7448,7469,7488,7509,7530,7549,7569,7589,7610,7629,7648,7668,7689,7708,7730,7748,7768,7789,7808,7829,7850,7869,7888,7909,7929,7949,7969,7989,8009,8030,8048,8068,8089,8108,8128,8150,8169,8189,8209,8228,8249,8269,8289,8308,8328,8349,8368,8388,8408,8428,8450,8469,8489,8509,8528,8549,8569,8589,8609,8629,8649,8670,8688,8708,8729,8750,8770,8788,8809,8829,8849,8868,8888,8910,8930,8949,8969,8988,9010,9030,9049,9068,9088,9109,9130,9149,9169,9188,9209,9230,9249,9270,9288,9308,9329,9350,9369,9388,9408,9428,9448,9470,9489,9508,9528,9549,9569,9588,9608,9629,9648,9668,9689,9708,9729,9749,9768,9788,9808,9829,9850,9868,9889,9909,9929,9948,9968,9988,10008,10029,10048,10070,10090,10108,10130,10148,10169,10188,10210,10228,10248,10270,10289,10309,10329,10348,10368,10389,10409,10430,10448,10468,10489,10509,10530,10549,10569,10589,10609,10629,10649,10668,10689,10708,10730,10749,10769,10788,10808,10829,10850,10868,10888,10908,10928,10950,10968,10990,11010,11029,11049,11068,11088,11110,11128,11150,11169,11188,11210,11229,11248,11268,11289,11308,11329,11348,11368,11388,11410,11429,11449,11468,11489,11508,11528,11550,11570,11590,11609,11630,11649,11668,11690,11708,11730,11748,11768,11789,11808,11829,11850,11868,11889,11909,11929,11950,11968,11989,12008,12028,12049,12068,12088,12108,12129,12149,12168,12188,12208,12229,12248,12268,12289,12309,12329,12350,12368,12388,12409,12428,12449,12468,12489,12508,12528,12549,12568,12588,12609,12628,12648,12669,12688,12709,12729,12750,12769,12788,12809,12829,12850,12868,12888,12909,12928,12950,12970,12988,13009,13030,13049,13068,13089,13110,13129,13149,13168,13189,13209,13230,13248,13269,13288,13309,13328,13350,13370,13388,13408,13430,13448,13468,13489,13509,13528,13548,13570,13588,13610,13628,13648,13669,13688,13710,13730,13748,13769,13788,13808,13830,13849,13870,13889,13909,13930,13949,13969,13989,14008,14030,14048,14069,14088,14108,14130,14148,14168,14188,14208,14230,14249,14268,14290,14308,14328,14349,14368,14388,14408,14428,14450,14468,14488,14510,14529,14549,14568,14588,14609,14628,14649,14669,14688,14710,14730,14748,14768,14788,14809,14829,14850,14868,14890,14908,14930,14949,14968,14989,15010,15028,15048,15069,15088,15109,15130,15148,15169,15188,15210,15229,15248,15269,15288,15309,15330,15349,15370,15388,15408,15429,15448,15469,15490,15509,15529,15548,15568,15588,15610,15629,15648,15670,15688,15709,15730,15748,15768,15789,15809,15828,15849,15869,15888,15910,15928,15948,15969,15988,16009,16030,16048,16069,16088,16108,16130,16148,16168,16189,16208,16228,16250,16269,16288,16309,16329,16348,16369,16388,16408,16429,16449,16468,16488,16509,16529,16549,16569,16588,16609,16628,16648,16668,16688,16709,16728,16750,16768,16788,16808,16830,16848,16870,16888,16909,16930,16948,16969,16989,17008,17028,17050,17070,17088,17109,17130,17148,17168,17188,17208,17230,17248,17268,17288,17309,17330,17348,17368,17390,17409,17429,17449,17468,17490,17509,17529,17549,17568,17588,17610,17629,17649,17670,17690,17710,17729,17748,17770,17789,17809,17830,17849,17869,17888,17910,17928,17950,17968,17989,18008,18029,18048,18068,18088,18108,18128,18148,18168,18188,18208,18228,18248,18268,18288,18308,18328,18348,18368,18388,18409,18428,18450,18469,18488,18510,18529,18550,18569,18588,18610,18630,18649,18668,18688,18710,18729,18749,18768,18789,18808,18828,18849,18868,18888,18909,18928,18949,18969,18989,19009,19029,19048,19070,19089,19109,19129,19149,19169,19188,19209,19229,19248,19268,19288,19308,19329,19349,19368,19388,19410,19429,19450,19468,19489,19508,19529,19548,19569,19589,19609,19628,19649,19669,19688,19710,19728,19748,19769,19789,19808,19829,19848,19870,19888,19909,19929,19948,19968,19989,20009,20028,20050,20069,20088,20110,20129,20148,20170,20188,20209,20230,20249,20269,20290,20308,20329,20349,20369,20388,20409,20428,20449,20470,20490,20508,20530,20548,20569,20590,20609,20629,20650,20670,20688,20710,20729,20749,20769,20788,20809,20830,20848,20869,20889,20909,20929,20949,20969,20988,21009,21028,21049,21069,21088,21109,21129,21149,21168,21188,21208,21228,21248,21269,21288,21308,21330,21349,21368,21388,21409,21429,21448,21469,21488,21508,21528,21548,21568,21588,21608,21628,21648,21668,21688,21708,21729,21748,21769,21788,21809,21830,21848,21868,21888,21908,21929,21949,21970,21988,22009,22028,22049,22068,22088,22109,22128,22148,22169,22188,22210,22228,22249,22269,22288,22309,22329,22349,22369,22388,22409,22428,22448,22468,22489,22508,22528,22549,22569,22588,22609,22630,22648,22670,22688,22710,22729,22749,22769,22788,22809,22828,22850,22868,22888,22910,22928,22949,22968,22988,23008,23028,23050,23068,23088,23109,23130,23150,23169,23188,23208,23229,23249,23269,23288,23309,23334,23350,23368,23388,23408,23429,23450,23468,23488,23508,23529,23549,23570,23589,23609,23629,23648,23668,23689,23708,23729,23749,23768,23789,23810,23829,23849,23870,23889,23909,23929,23950,23968,23990,24008,24028,24050,24068,24088,24110,24129,24149,24169,24188,24209,24229,24248,24268,24289,24309,24329,24348,24368,24389,24409,24429,24449,24470,24489,24509,24529,24548,24568,24588,24608,24629,24648,24668,24688,24709,24730,24749,24768,24789,24809,24828,24849,24869,24888,24908,24929,24949,24969,24988,25010,25029,25049,25068,25088,25110,25128,25148,25168,25188,25208,25230,25248,25268,25289,25309,25329,25349,25368,25388,25410,25428,25449,25468,25489,25509,25528,25548,25568,25590,25609,25628,25648,25668,25688,25709,25728,25750,25768,25788,25808,25829,25849,25869,25888,25910,25928,25948,25970,25988,26008,26029,26049,26069,26088,26110,26128,26149,26169,26189,26209,26229,26249,26268,26288,26310,26330,26349,26370,26388,26409,26430,26448,26469,26488,26510,26529,26548,26568,26588,26610,26628,26648,26668,26689,26709,26729,26748,26768,26789,26809,26829,26850,26869,26889,26909,26929,26948,26968,26989,27009,27030,27050,27068,27088,27108,27129,27148,27168,27188,27208,27229,27250,27268,27288,27310,27329,27348,27370,27388,27408,27430,27448,27468,27489,27509,27528,27548,27568,27589,27609,27629,27648,27669,27689,27709,27730,27749,27768,27789,27809,27829,27850,27868,27888,27908,27929,27949,27968,27988,28009,28029,28049,28068,28089,28109,28129,28149,28168,28188,28209,28230,28250,28270,28288,28309,28330,28349,28368,28388,28410,28428,28449,28469,28488,28509,28529,28549,28569,28589,28609,28630,28649,28668,28689,28708,28730,28748,28768,28790,28809,28828,28849,28870,28888,28908,28930,28948,28968,28989,29008,29029,29048,29068,29088,29109,29128,29148,29170,29188,29208,29230,29249,29268,29289,29308,29329,29348,29368,29389,29408,29430,29450,29468,29488,29510,29528,29549,29569,29588,29609,29629,29650,29668,29688,29709,29728,29748,29768,29789,29808,29828,29849,29868,29889,29908,29928,29950,29969,29989,30008,30030,30050,30068,30088,30110,30129,30150,30168,30188,30210,30229,30249,30270,30288,30308,30328,30349,30370,30390,30409,30428,30448,30468,30489,30510,30528,30548,30569,30589,30609,30629,30649,30670,30688,30709,30730,30748,30769,30789,30809,30829,30849,30869,30889,30909,30929,30950,30969,30988,31010,31029,31049,31069,31089,31108,31129,31148,31168,31189,31209,31230,31248,31268,31290,31308,31329,31349,31370,31388,31408,31430,31450,31470,31488,31509,31529,31549,31568,31588,31610,31629,31648,31669,31689,31709,31730,31748,31769,31788,31810,31830,31849,31869,31888,31910,31930,31948,31968,31988,32010,32029,32048,32070,32088,32109,32129,32149,32168,32188,32209,32230,32249,32268,32290,32309,32328,32350,32368,32388,32409,32430,32449,32468,32488,32508,32529,32549,32569,32588,32609,32629,32648,32669,32688,32708,32728,32749,32768,32788,32808,32830,32849,32868,32889,32909,32928,32950,32968,32988,33010,33028,33050,33069,33088,33109,33129,33148,33168,33188,33208,33228,33248,33268,33289,33308,33329,33350,33368,33389,33409,33429,33450,33468,33488,33510,33528,33550,33569,33588,33608,33628,33648,33669,33689,33708,33729,33748,33768,33789,33808,33829,33848,33868,33888,33909,33929,33948,33969,33988,34008,34030,34048,34069,34089,34108,34128,34148,34169,34188,34210,34228,34248,34268,34288,34309,34329,34348,34368,34389,34408,34430,34450,34468,34489,34509,34530,34548,34569,34588,34610,34630,34649,34669,34688,34710,34728,34748,34769,34788,34809,34828,34849,34869,34888,34910,34930,34949,34968,34988,35009,35028,35048,35068,35089,35108,35129,35149,35168,35189,35208,35229,35249,35268,35289,35310,35329,35349,35368,35390,35408,35429,35448,35468,35488,35509,35529,35549,35568,35589,35609,35629,35650,35670,35688,35709,35729,35749,35769,35788,35809,35830,35850,35868,35888,35909,35930,35949,35968,35988,36010,36030,36050,36069,36088,36109,36130,36150,36169,36188,36210,36228,36249,36269,36288,36310,36329,36349,36368,36388,36410,36429,36449,36469,36488,36509,36530,36549,36568,36588,36609,36630,36648,36669,36689,36708,36728,36749,36770,36789,36809,36828,36849,36869,36889,36909,36930,36948,36968,36988,37010,37030,37049,37069,37088,37108,37129,37150,37169,37188,37208,37230,37248,37268,37289,37310,37330,37349,37368,37388,37410,37429,37449,37469,37489,37509,37529,37548,37569,37588,37608,37630,37648,37669,37688,37709,37728,37749,37770,37788,37808,37829,37848,37868,37888,37909,37928,37948,37968,37989,38008,38028,38049,38068,38089,38108,38130,38148,38168,38189,38208,38228,38248,38269,38289,38308,38330,38348,38368,38389,38409,38428,38448,38468,38488,38510,38530,38550,38568,38589,38610,38629,38650,38670,38690,38708,38729,38749,38769,38788,38808,38829,38850,38868,38888,38910,38928,38949,38969,38988,39008,39030,39049,39068,39088,39110,39128,39148,39168,39189,39208,39229,39249,39268,39289,39310,39329,39349,39368,39388,39410,39429,39450,39468,39488,39510,39530,39550,39568,39589,39608,39629,39648,39669,39690,39709,39729,39749,39770,39788,39809,39828,39848,39869,39890,39908,39928,39950,39968,39988,40010,40030,40049,40068,40089,40108,40129,40149,40169,40189,40209,40229,40248,40270,40289,40308,40329,40350,40369,40388,40408,40430,40450,40468,40489,40508,40529,40548,40568,40588,40609,40629,40650,40668,40689,40708,40730,40749,40768,40788,40809,40829,40849,40868,40890,40908,40928,40949,40969,40988,41009,41029,41049,41069,41088,41109,41130,41148,41168,41189,41210,41229,41250,41270,41288,41309,41330,41349,41369,41388,41409,41430,41450,41468,41488,41510,41530,41549,41568,41588,41609,41629,41649,41670,41688,41708,41729,41750,41770,41790,41808,41828,41849,41869,41889,41908,41930,41950,41968,41989,42010,42029,42049,42068,42088,42109,42130,42149,42169,42189,42209,42229,42248,42269,42290,42308,42329,42350,42368,42390,42409,42429,42450,42469,42490,42508,42528,42550,42568,42590,42608,42629,42650,42669,42688,42709,42730,42748,42768,42788,42809,42829,42848,42869,42888,42908,42930,42948,42968,42988,43010,43028,43049,43069,43089,43109,43129,43150,43169,43188,43208,43229,43249,43269,43288,43308,43330,43350,43368,43388,43409,43428,43449,43468,43488,43509,43529,43549,43568,43589,43608,43629,43650,43668,43688,43708,43728,43749,43768,43789,43808,43830,43848,43869,43888,43908,43929,43948,43968,43989,44009,44029,44050,44068,44089,44108,44128,44150,44168,44188,44208,44230,44248,44268,44289,44309,44329,44349,44368,44388,44408,44428,44449,44468,44489,44509,44529,44550,44569,44588,44608,44629,44649,44670,44688,44708,44730,44748,44768,44788,44809,44830,44848,44869,44888,44909,44930,44949,44969,44988,45009,45029,45048,45070,45088,45109,45128,45149,45170,45188,45209,45230,45248,45268,45288,45309,45328,45348,45368,45388,45408,45429,45450,45468,45488,45509,45528,45548,45569,45589,45609,45629,45648,45668,45688,45710,45730,45748,45768,45790,45808,45828,45850,45868,45888,45908,45928,45948,45968,45989,46008,46029,46050,46068,46088,46109,46128,46148,46169,46188,46209,46228,46250,46269,46288,46309,46330,46350,46368,46388,46409,46428,46449,46469,46489,46509,46528,46549,46568,46590,46610,46629,46649,46670,46688,46708,46730,46750,46768,46788,46809,46830,46848,46868,46889,46908,46929,46949,46968,46988,47009,47028,47049,47069,47088,47108,47129,47149,47168,47188,47209,47229,47249,47270,47289,47309,47329,47350,47369,47388,47409,47430,47450,47468,47489,47508,47529,47550,47568,47588,47608,47628,47649,47669,47689,47710,47729,47748,47769,47788,47808,47829,47848,47868,47888,47908,47928,47949,47968,47988,48010,48029,48050,48068,48089,48109,48129,48148,48168,48188,48208,48229,48248,48268,48288,48308,48329,48349,48369,48388,48410,48429,48449,48468,48488,48510,48528,48548,48569,48588,48610,48629,48648,48668,48689,48708,48730,48748,48768,48789,48808,48829,48850,48868,48888,48909,48929,48949,48968,48988,49009,49028,49048,49068,49088,49109,49128,49148,49168,49189,49209,49228,49250,49270,49288,49309,49330,49349,49368,49388,49408,49428,49450,49468,49490,49509,49529,49550,49569,49588,49609,49630,49648,49668,49689,49709,49729,49749,49769,49789,49809,49829,49849,49870,49888,49908,49929,49950,49968,49988,50010,50028,50048,50069,50089,50108,50129,50148,50168,50189,50210,50229,50249,50269,50288,50308,50328,50349,50368,50389,50408,50429,50449,50469,50490,50509,50530,50548,50569,50589,50608,50629,50648,50668,50688,50709,50729,50750,50769,50788,50809,50828,50849,50870,50888,50908,50928,50950,50970,50988,51009,51030,51048,51068,51088,51110,51128,51149,51169,51188,51209,51229,51250,51270,51288,51309,51328,51349,51369,51388,51410,51428,51448,51470,51488,51509,51530,51550,51568,51588,51610,51630,51649,51669,51688,51710,51728,51748,51769,51789,51809,51830,51849,51868,51888,51910,51930,51949,51969,51988,52010,52028,52049,52069,52089,52109,52128,52148,52169,52188,52209,52230,52250,52268,52288,52310,52328,52348,52369,52389,52408,52428,52449,52468,52488,52509,52530,52549,52570,52588,52609,52628,52649,52668,52690,52710,52728,52749,52770,52790,52808,52829,52849,52868,52888,52909,52929,52950,52970,52988,53010,53028,53049,53070,53088,53108,53129,53148,53168,53189,53210,53230,53249,53269,53288,53310,53329,53348,53369,53388,53409,53428,53450,53468,53489,53509,53528,53548,53570,53588,53609,53630,53648,53668,53688,53708,53729,53750,53769,53788,53809,53828,53850,53868,53888,53909,53929,53950,53969,53988,54009,54028,54048,54068,54088,54110,54129,54149,54168,54189,54209,54230,54248,54268,54289,54310,54329,54349,54368,54389,54410,54429,54449,54468,54489,54510,54529,54548,54569,54589,54608,54628,54648,54670,54688,54709,54730,54748,54768,54788,54809,54829,54850,54869,54888,54908,54930,54948,54969,54988,55008,55028,55050,55069,55088,55109,55128,55148,55169,55189,55209,55230,55249,55268,55289,55308,55329,55350,55369,55388,55410,55430,55449,55468,55488,55510,55528,55548,55568,55588,55609,55629,55650,55669,55688,55709,55728,55750,55768,55788,55810,55828,55849,55869,55888,55910,55929,55948,55968,55988,56008,56028,56048,56068,56088,56109,56129,56148,56170,56188,56208,56229,56248,56269,56288,56310,56330,56348,56369,56390,56410,56429,56448,56469,56490,56510,56529,56549,56570,56589,56610,56630,56649,56670,56689,56709,56728,56749,56769,56788,56808,56828,56850,56869,56889,56909,56929,56950,56969,56990,57009,57029,57048,57068,57089,57109,57128,57150,57169,57189,57208,57230,57248,57269,57289,57308,57330,57350,57368,57389,57409,57429,57449,57469,57489,57508,57530,57550,57568,57589,57610,57629,57649,57669,57689,57710,57728,57749,57769,57789,57810,57830,57848,57869,57889,57910,57930,57950,57970,57988,58009,58029,58049,58068,58089,58109,58130,58148,58169,58189,58208,58230,58249,58269,58289,58310,58330,58350,58369,58389,58410,58429,58449,58469,58490,58509,58528,58548,58569,58589,58609,58629,58649,58669,58689,58709,58729,58749,58769,58790,58808,58828,58849,58869,58889,58910,58928,58949,58969,58988,59010,59030,59049,59068,59089,59109,59129,59150,59168,59188,59209,59230,59248,59268,59289,59309,59329,59350,59369,59388,59410,59429,59449,59469,59489,59510,59529,59550,59569,59589,59610,59629,59650,59669,59689,59708,59730,59750,59768,59789,59810,59829,59849,59869,59889,59908,59930,59949,59970,59989,60010,60030,60049,60070,60089,60109,60130,60150,60169,60189,60210,60230,60249,60270,60289,60310,60329,60349,60369,60388,60410,60430,60450,60469,60488,60509,60529,60550,60570,60588,60610,60630,60648,60668,60689,60709,60730,60749,60769,60789,60809,60828,60850,60868,60888,60909,60930,60950,60968,60989,61010,61029,61049,61069,61089,61109,61130,61149,61170,61188,61210,61229,61250,61269,61289,61309,61330,61349,61369,61389,61410,61429,61448,61469,61489,61508,61530,61550,61569,61588,61610,61630,61650,61669,61689,61710,61729,61749,61769,61789,61808,61829,61850,61869,61889,61910,61929,61949,61969,61988,62010,62029,62049,62070],"xSR":741.5,"ySR":469.95,"xT1":424.9,"yT1":0,"xT2":1058.1,"yT2":0,"toosoon":0,"cond_shown":"Incongruent","ratio_trial":100,"L_num":8,"L_den":16,"R_num":6,"R_den":10,"correct_side":2,"subjID":"juanavalentinauribeinfante36","gender":"No_gender","age":"","school":"No_school","test":{"fix_dur":[250,1500],"timestim":1000,"targets_dim":[100,100],"targets_relative_coord":[0.3,0.7],"size_stim":[880,420],"start_dim":[100,100],"size_start":[300,300],"size_fix":60,"samplingrate":20,"img_types":["Congruent","Incongruent"],"ratios":[100,200,300],"rep_conds":19,"nTrials":120,"trials_to_rest":500,"Trials_order":[25,101,52,89,82,106,98,81,78,18,97,61,83,43,112,29,95,40,13,51,77,66,47,53,92,57,16,113,110,7,58,54,33,17,88,2,72,15,67,90,102,87,44,19,48,42,64,103,74,27,39,99,35,107,41,119,65,69,105,9,117,21,93,111,31,84,62,49,23,1,59,3,104,108,32,63,55,30,22,76,34,20,91,46,12,115,8,73,6,26,37,79,10,38,80,4,86,56,85,114,118,68,24,100,50,70,94,28,75,5,96,60,116,45,0,11,109,14,71,36],"cond_shown":["Incongruent","Incongruent","Congruent","Incongruent","Congruent","Congruent","Congruent","Incongruent","Congruent","Congruent","Incongruent","Incongruent","Incongruent","Incongruent","Congruent","Incongruent","Incongruent","Congruent","Incongruent","Incongruent","Incongruent","Congruent","Incongruent","Incongruent","Congruent","Incongruent","Congruent","Incongruent","Congruent","Incongruent","Congruent","Congruent","Incongruent","Incongruent","Congruent","Congruent","Congruent","Incongruent","Incongruent","Congruent","Congruent","Incongruent","Congruent","Incongruent","Congruent","Congruent","Congruent","Incongruent","Congruent","Incongruent","Incongruent","Incongruent","Incongruent","Incongruent","Incongruent","Incongruent","Incongruent","Incongruent","Incongruent","Incongruent","Incongruent","Incongruent","Incongruent","Incongruent","Incongruent","Congruent","Congruent","Incongruent","Incongruent","Incongruent","Incongruent","Incongruent","Congruent","Congruent","Congruent","Incongruent","Incongruent","Congruent","Congruent","Congruent","Congruent","Congruent","Incongruent","Congruent","Congruent","Incongruent","Congruent","Incongruent","Congruent","Congruent","Incongruent","Incongruent","Congruent","Congruent","Congruent","Congruent","Congruent","Congruent","Incongruent","Congruent","Congruent","Congruent","Congruent","Congruent","Congruent","Congruent","Congruent","Congruent","Incongruent","Incongruent","Congruent","Congruent","Congruent","Incongruent","Congruent","Incongruent","Incongruent","Congruent","Incongruent","Congruent"],"ratio_trial":[100,300,300,300,300,300,200,200,100,100,100,100,300,100,300,300,300,300,100,200,300,100,300,300,200,200,300,300,200,100,300,100,200,300,300,200,100,200,100,100,100,200,200,100,100,100,300,100,200,200,200,200,300,300,300,300,300,200,200,200,200,200,200,200,100,100,200,100,300,100,300,200,200,100,200,200,100,100,300,300,300,200,100,300,100,100,200,100,100,200,100,100,300,200,200,300,200,200,100,100,300,200,100,300,200,300,300,300,200,300,100,100,200,200,100,300,100,200,300,100],"left_num":[8,1,4,4,1,18,3,1,11,6,3,13,4,13,12,4,1,20,3,3,13,7,8,13,5,14,2,1,14,3,11,7,7,4,2,5,11,11,13,11,2,7,3,12,11,6,1,17,3,6,3,6,8,1,1,13,7,9,7,6,3,1,6,1,4,11,11,2,1,2,4,4,16,1,14,6,2,4,18,4,3,3,13,3,6,12,3,6,6,3,3,10,5,6,11,8,3,9,3,1,8,9,10,2,6,1,3,4,1,1,1,15,3,3,6,4,3,6,8,9],"right_num":[6,3,1,2,11,9,14,2,4,5,7,6,2,12,2,2,3,5,7,1,12,9,9,12,14,12,12,2,6,11,1,15,12,2,10,14,4,3,6,6,6,6,7,2,6,15,11,10,7,3,11,3,14,3,2,12,8,8,4,3,1,2,3,3,8,6,3,8,2,6,2,14,9,3,6,3,6,6,9,2,11,14,6,4,15,2,14,3,15,14,4,9,6,7,3,10,7,13,7,18,10,13,3,12,11,3,11,1,3,2,18,13,9,1,5,2,11,7,9,8],"left_den":[16,2,10,20,5,20,6,3,22,20,9,26,20,26,24,20,2,25,9,10,26,14,10,26,10,30,10,2,28,5,22,14,10,20,20,10,22,20,26,22,5,15,10,30,22,12,5,30,10,20,4,20,10,2,2,26,10,15,15,20,10,3,20,2,8,22,22,4,2,4,20,6,30,2,28,20,4,8,20,5,12,6,26,6,12,30,6,12,12,10,6,25,25,12,22,15,10,30,9,2,15,30,25,10,20,5,12,10,2,2,2,25,12,10,20,20,5,12,10,15],"right_den":[10,15,10,4,22,15,20,15,10,25,30,10,4,20,10,4,15,10,30,2,15,15,18,15,20,18,24,10,20,22,5,25,24,4,25,20,10,4,10,15,12,9,14,4,15,25,22,15,14,6,20,6,28,15,10,15,20,10,6,6,2,15,6,10,20,15,10,20,10,15,4,30,27,5,20,6,15,10,15,4,20,20,10,5,25,4,20,5,25,28,10,18,12,10,10,12,14,26,30,30,12,26,10,24,22,6,20,10,10,10,30,26,20,2,25,4,22,10,18,16],"correct_side":[2,1,1,2,2,1,2,1,1,1,1,2,2,2,1,2,1,1,1,2,2,2,1,2,2,2,2,1,1,1,1,2,1,2,2,2,1,2,2,1,2,2,2,2,1,2,2,2,2,2,1,2,1,1,1,2,1,2,2,2,2,1,2,1,1,1,1,1,1,1,2,1,1,2,1,2,1,2,1,1,2,2,2,2,2,2,2,2,2,2,1,2,2,2,1,2,2,2,1,2,2,2,1,2,2,2,2,1,1,1,2,1,2,2,1,2,1,2,1,1],"img_shown":["img2/100/Incongruent/R/I_Dist_100_LN_8_LD_16_RN_6_RD_10_1.png","img2/300/Incongruent/L/I_Dist_300_LN_1_LD_2_RN_3_RD_15_0.png","img2/300/Congruent/L/C_Dist_300_LN_4_LD_10_RN_1_RD_10_0.png","img2/300/Incongruent/R/I_Dist_300_LN_4_LD_20_RN_2_RD_4_1.png","img2/300/Congruent/R/C_Dist_300_LN_1_LD_5_RN_11_RD_22_1.png","img2/300/Congruent/L/C_Dist_300_LN_18_LD_20_RN_9_RD_15_0.png","img2/200/Congruent/R/C_Dist_200_LN_3_LD_6_RN_14_RD_20_1.png","img2/200/Incongruent/L/I_Dist_200_LN_1_LD_3_RN_2_RD_15_0.png","img2/100/Congruent/L/C_Dist_100_LN_11_LD_22_RN_4_RD_10_0.png","img2/100/Congruent/L/C_Dist_100_LN_6_LD_20_RN_5_RD_25_0.png","img2/100/Incongruent/L/I_Dist_100_LN_3_LD_9_RN_7_RD_30_0.png","img2/100/Incongruent/R/I_Dist_100_LN_13_LD_26_RN_6_RD_10_1.png","img2/300/Incongruent/R/I_Dist_300_LN_4_LD_20_RN_2_RD_4_1.png","img2/100/Incongruent/R/I_Dist_100_LN_13_LD_26_RN_12_RD_20_1.png","img2/300/Congruent/L/C_Dist_300_LN_12_LD_24_RN_2_RD_10_0.png","img2/300/Incongruent/R/I_Dist_300_LN_4_LD_20_RN_2_RD_4_1.png","img2/300/Incongruent/L/I_Dist_300_LN_1_LD_2_RN_3_RD_15_0.png","img2/300/Congruent/L/C_Dist_300_LN_20_LD_25_RN_5_RD_10_0.png","img2/100/Incongruent/L/I_Dist_100_LN_3_LD_9_RN_7_RD_30_0.png","img2/200/Incongruent/R/I_Dist_200_LN_3_LD_10_RN_1_RD_2_1.png","img2/300/Incongruent/R/I_Dist_300_LN_13_LD_26_RN_12_RD_15_1.png","img2/100/Congruent/R/C_Dist_100_LN_7_LD_14_RN_9_RD_15_1.png","img2/300/Incongruent/L/I_Dist_300_LN_8_LD_10_RN_9_RD_18_0.png","img2/300/Incongruent/R/I_Dist_300_LN_13_LD_26_RN_12_RD_15_1.png","img2/200/Congruent/R/C_Dist_200_LN_5_LD_10_RN_14_RD_20_1.png","img2/200/Incongruent/R/I_Dist_200_LN_14_LD_30_RN_12_RD_18_1.png","img2/300/Congruent/R/C_Dist_300_LN_2_LD_10_RN_12_RD_24_1.png","img2/300/Incongruent/L/I_Dist_300_LN_1_LD_2_RN_2_RD_10_0.png","img2/200/Congruent/L/C_Dist_200_LN_14_LD_28_RN_6_RD_20_0.png","img2/100/Incongruent/L/I_Dist_100_LN_3_LD_5_RN_11_RD_22_0.png","img2/300/Congruent/L/C_Dist_300_LN_11_LD_22_RN_1_RD_5_0.png","img2/100/Congruent/R/C_Dist_100_LN_7_LD_14_RN_15_RD_25_1.png","img2/200/Incongruent/L/I_Dist_200_LN_7_LD_10_RN_12_RD_24_0.png","img2/300/Incongruent/R/I_Dist_300_LN_4_LD_20_RN_2_RD_4_1.png","img2/300/Congruent/R/C_Dist_300_LN_2_LD_20_RN_10_RD_25_1.png","img2/200/Congruent/R/C_Dist_200_LN_5_LD_10_RN_14_RD_20_1.png","img2/100/Congruent/L/C_Dist_100_LN_11_LD_22_RN_4_RD_10_0.png","img2/200/Incongruent/R/I_Dist_200_LN_11_LD_20_RN_3_RD_4_1.png","img2/100/Incongruent/R/I_Dist_100_LN_13_LD_26_RN_6_RD_10_1.png","img2/100/Congruent/L/C_Dist_100_LN_11_LD_22_RN_6_RD_15_0.png","img2/100/Congruent/R/C_Dist_100_LN_2_LD_5_RN_6_RD_12_1.png","img2/200/Incongruent/R/I_Dist_200_LN_7_LD_15_RN_6_RD_9_1.png","img2/200/Congruent/R/C_Dist_200_LN_3_LD_10_RN_7_RD_14_1.png","img2/100/Incongruent/R/I_Dist_100_LN_12_LD_30_RN_2_RD_4_1.png","img2/100/Congruent/L/C_Dist_100_LN_11_LD_22_RN_6_RD_15_0.png","img2/100/Congruent/R/C_Dist_100_LN_6_LD_12_RN_15_RD_25_1.png","img2/300/Congruent/R/C_Dist_300_LN_1_LD_5_RN_11_RD_22_1.png","img2/100/Incongruent/R/I_Dist_100_LN_17_LD_30_RN_10_RD_15_1.png","img2/200/Congruent/R/C_Dist_200_LN_3_LD_10_RN_7_RD_14_1.png","img2/200/Incongruent/R/I_Dist_200_LN_6_LD_20_RN_3_RD_6_1.png","img2/200/Incongruent/L/I_Dist_200_LN_3_LD_4_RN_11_RD_20_0.png","img2/200/Incongruent/R/I_Dist_200_LN_6_LD_20_RN_3_RD_6_1.png","img2/300/Incongruent/L/I_Dist_300_LN_8_LD_10_RN_14_RD_28_0.png","img2/300/Incongruent/L/I_Dist_300_LN_1_LD_2_RN_3_RD_15_0.png","img2/300/Incongruent/L/I_Dist_300_LN_1_LD_2_RN_2_RD_10_0.png","img2/300/Incongruent/R/I_Dist_300_LN_13_LD_26_RN_12_RD_15_1.png","img2/300/Incongruent/L/I_Dist_300_LN_7_LD_10_RN_8_RD_20_0.png","img2/200/Incongruent/R/I_Dist_200_LN_9_LD_15_RN_8_RD_10_1.png","img2/200/Incongruent/R/I_Dist_200_LN_7_LD_15_RN_4_RD_6_1.png","img2/200/Incongruent/R/I_Dist_200_LN_6_LD_20_RN_3_RD_6_1.png","img2/200/Incongruent/R/I_Dist_200_LN_3_LD_10_RN_1_RD_2_1.png","img2/200/Incongruent/L/I_Dist_200_LN_1_LD_3_RN_2_RD_15_0.png","img2/200/Incongruent/R/I_Dist_200_LN_6_LD_20_RN_3_RD_6_1.png","img2/200/Incongruent/L/I_Dist_200_LN_1_LD_2_RN_3_RD_10_0.png","img2/100/Incongruent/L/I_Dist_100_LN_4_LD_8_RN_8_RD_20_0.png","img2/100/Congruent/L/C_Dist_100_LN_11_LD_22_RN_6_RD_15_0.png","img2/200/Congruent/L/C_Dist_200_LN_11_LD_22_RN_3_RD_10_0.png","img2/100/Incongruent/L/I_Dist_100_LN_2_LD_4_RN_8_RD_20_0.png","img2/300/Incongruent/L/I_Dist_300_LN_1_LD_2_RN_2_RD_10_0.png","img2/100/Incongruent/L/I_Dist_100_LN_2_LD_4_RN_6_RD_15_0.png","img2/300/Incongruent/R/I_Dist_300_LN_4_LD_20_RN_2_RD_4_1.png","img2/200/Incongruent/L/I_Dist_200_LN_4_LD_6_RN_14_RD_30_0.png","img2/200/Congruent/L/C_Dist_200_LN_16_LD_30_RN_9_RD_27_0.png","img2/100/Congruent/R/C_Dist_100_LN_1_LD_2_RN_3_RD_5_1.png","img2/200/Congruent/L/C_Dist_200_LN_14_LD_28_RN_6_RD_20_0.png","img2/200/Incongruent/R/I_Dist_200_LN_6_LD_20_RN_3_RD_6_1.png","img2/100/Incongruent/L/I_Dist_100_LN_2_LD_4_RN_6_RD_15_0.png","img2/100/Congruent/R/C_Dist_100_LN_4_LD_8_RN_6_RD_10_1.png","img2/300/Congruent/L/C_Dist_300_LN_18_LD_20_RN_9_RD_15_0.png","img2/300/Congruent/L/C_Dist_300_LN_4_LD_5_RN_2_RD_4_0.png","img2/300/Congruent/R/C_Dist_300_LN_3_LD_12_RN_11_RD_20_1.png","img2/200/Congruent/R/C_Dist_200_LN_3_LD_6_RN_14_RD_20_1.png","img2/100/Incongruent/R/I_Dist_100_LN_13_LD_26_RN_6_RD_10_1.png","img2/300/Congruent/R/C_Dist_300_LN_3_LD_6_RN_4_RD_5_1.png","img2/100/Congruent/R/C_Dist_100_LN_6_LD_12_RN_15_RD_25_1.png","img2/100/Incongruent/R/I_Dist_100_LN_12_LD_30_RN_2_RD_4_1.png","img2/200/Congruent/R/C_Dist_200_LN_3_LD_6_RN_14_RD_20_1.png","img2/100/Incongruent/R/I_Dist_100_LN_6_LD_12_RN_3_RD_5_1.png","img2/100/Congruent/R/C_Dist_100_LN_6_LD_12_RN_15_RD_25_1.png","img2/200/Congruent/R/C_Dist_200_LN_3_LD_10_RN_14_RD_28_1.png","img2/100/Incongruent/L/I_Dist_100_LN_3_LD_6_RN_4_RD_10_0.png","img2/100/Incongruent/R/I_Dist_100_LN_10_LD_25_RN_9_RD_18_1.png","img2/300/Congruent/R/C_Dist_300_LN_5_LD_25_RN_6_RD_12_1.png","img2/200/Congruent/R/C_Dist_200_LN_6_LD_12_RN_7_RD_10_1.png","img2/200/Congruent/L/C_Dist_200_LN_11_LD_22_RN_3_RD_10_0.png","img2/300/Congruent/R/C_Dist_300_LN_8_LD_15_RN_10_RD_12_1.png","img2/200/Congruent/R/C_Dist_200_LN_3_LD_10_RN_7_RD_14_1.png","img2/200/Congruent/R/C_Dist_200_LN_9_LD_30_RN_13_RD_26_1.png","img2/100/Incongruent/L/I_Dist_100_LN_3_LD_9_RN_7_RD_30_0.png","img2/100/Congruent/R/C_Dist_100_LN_1_LD_2_RN_18_RD_30_1.png","img2/300/Congruent/R/C_Dist_300_LN_8_LD_15_RN_10_RD_12_1.png","img2/200/Congruent/R/C_Dist_200_LN_9_LD_30_RN_13_RD_26_1.png","img2/100/Congruent/L/C_Dist_100_LN_10_LD_25_RN_3_RD_10_0.png","img2/300/Congruent/R/C_Dist_300_LN_2_LD_10_RN_12_RD_24_1.png","img2/200/Congruent/R/C_Dist_200_LN_6_LD_20_RN_11_RD_22_1.png","img2/300/Congruent/R/C_Dist_300_LN_1_LD_5_RN_3_RD_6_1.png","img2/300/Congruent/R/C_Dist_300_LN_3_LD_12_RN_11_RD_20_1.png","img2/300/Congruent/L/C_Dist_300_LN_4_LD_10_RN_1_RD_10_0.png","img2/200/Incongruent/L/I_Dist_200_LN_1_LD_2_RN_3_RD_10_0.png","img2/300/Incongruent/L/I_Dist_300_LN_1_LD_2_RN_2_RD_10_0.png","img2/100/Congruent/R/C_Dist_100_LN_1_LD_2_RN_18_RD_30_1.png","img2/100/Congruent/L/C_Dist_100_LN_15_LD_25_RN_13_RD_26_0.png","img2/200/Congruent/R/C_Dist_200_LN_3_LD_12_RN_9_RD_20_1.png","img2/200/Incongruent/R/I_Dist_200_LN_3_LD_10_RN_1_RD_2_1.png","img2/100/Congruent/L/C_Dist_100_LN_6_LD_20_RN_5_RD_25_0.png","img2/300/Incongruent/R/I_Dist_300_LN_4_LD_20_RN_2_RD_4_1.png","img2/100/Incongruent/L/I_Dist_100_LN_3_LD_5_RN_11_RD_22_0.png","img2/200/Congruent/R/C_Dist_200_LN_6_LD_12_RN_7_RD_10_1.png","img2/300/Incongruent/L/I_Dist_300_LN_8_LD_10_RN_9_RD_18_0.png","img2/100/Congruent/L/C_Dist_100_LN_9_LD_15_RN_8_RD_16_0.png"],"dist100_C":[["C_Dist_100_LN_10_LD_25_RN_3_RD_10_0.png","C_Dist_100_LN_11_LD_22_RN_4_RD_10_0.png","C_Dist_100_LN_11_LD_22_RN_6_RD_15_0.png","C_Dist_100_LN_15_LD_25_RN_13_RD_26_0.png","C_Dist_100_LN_3_LD_6_RN_2_RD_5_0.png","C_Dist_100_LN_6_LD_20_RN_5_RD_25_0.png","C_Dist_100_LN_8_LD_16_RN_2_RD_5_0.png","C_Dist_100_LN_9_LD_15_RN_8_RD_16_0.png"],["C_Dist_100_LN_1_LD_2_RN_18_RD_30_1.png","C_Dist_100_LN_1_LD_2_RN_3_RD_5_1.png","C_Dist_100_LN_12_LD_30_RN_13_RD_26_1.png","C_Dist_100_LN_2_LD_5_RN_11_RD_22_1.png","C_Dist_100_LN_2_LD_5_RN_6_RD_12_1.png","C_Dist_100_LN_3_LD_20_RN_4_RD_16_1.png","C_Dist_100_LN_4_LD_10_RN_15_RD_30_1.png","C_Dist_100_LN_4_LD_8_RN_6_RD_10_1.png","C_Dist_100_LN_6_LD_12_RN_15_RD_25_1.png","C_Dist_100_LN_7_LD_14_RN_15_RD_25_1.png","C_Dist_100_LN_7_LD_14_RN_9_RD_15_1.png"]],"dist100_I":[["I_Dist_100_LN_1_LD_2_RN_8_RD_20_0.png","I_Dist_100_LN_2_LD_4_RN_6_RD_15_0.png","I_Dist_100_LN_2_LD_4_RN_8_RD_20_0.png","I_Dist_100_LN_3_LD_5_RN_11_RD_22_0.png","I_Dist_100_LN_3_LD_5_RN_8_RD_16_0.png","I_Dist_100_LN_3_LD_6_RN_4_RD_10_0.png","I_Dist_100_LN_3_LD_9_RN_7_RD_30_0.png","I_Dist_100_LN_4_LD_8_RN_8_RD_20_0.png","I_Dist_100_LN_6_LD_10_RN_11_RD_22_0.png","I_Dist_100_LN_6_LD_10_RN_13_RD_26_0.png","I_Dist_100_LN_6_LD_10_RN_7_RD_14_0.png","I_Dist_100_LN_9_LD_10_RN_20_RD_25_0.png","I_Dist_100_LN_9_LD_15_RN_13_RD_26_0.png","I_Dist_100_LN_9_LD_15_RN_14_RD_28_0.png"],["I_Dist_100_LN_10_LD_25_RN_8_RD_16_1.png","I_Dist_100_LN_10_LD_25_RN_9_RD_18_1.png","I_Dist_100_LN_11_LD_22_RN_9_RD_15_1.png","I_Dist_100_LN_12_LD_24_RN_9_RD_15_1.png","I_Dist_100_LN_12_LD_30_RN_2_RD_4_1.png","I_Dist_100_LN_13_LD_26_RN_12_RD_20_1.png","I_Dist_100_LN_13_LD_26_RN_6_RD_10_1.png","I_Dist_100_LN_17_LD_30_RN_10_RD_15_1.png","I_Dist_100_LN_6_LD_12_RN_3_RD_5_1.png","I_Dist_100_LN_8_LD_16_RN_6_RD_10_1.png","I_Dist_100_LN_8_LD_20_RN_1_RD_2_1.png","I_Dist_100_LN_9_LD_18_RN_6_RD_10_1.png"]],"dist100_S":[["E_Dist_100_LN_2_LD_12_RN_2_RD_30_0.png","E_Dist_100_LN_6_LD_10_RN_6_RD_12_0.png"],["E_Dist_100_LN_6_LD_12_RN_6_RD_10_1.png"]],"dist200_C":[["C_Dist_200_LN_11_LD_22_RN_3_RD_10_0.png","C_Dist_200_LN_12_LD_15_RN_6_RD_10_0.png","C_Dist_200_LN_12_LD_20_RN_6_RD_15_0.png","C_Dist_200_LN_14_LD_28_RN_6_RD_20_0.png","C_Dist_200_LN_15_LD_25_RN_4_RD_10_0.png","C_Dist_200_LN_16_LD_20_RN_12_RD_20_0.png","C_Dist_200_LN_16_LD_30_RN_9_RD_27_0.png","C_Dist_200_LN_20_LD_25_RN_9_RD_15_0.png","C_Dist_200_LN_21_LD_30_RN_2_RD_4_0.png","C_Dist_200_LN_4_LD_10_RN_3_RD_15_0.png","C_Dist_200_LN_4_LD_8_RN_3_RD_10_0.png","C_Dist_200_LN_6_LD_15_RN_3_RD_15_0.png","C_Dist_200_LN_7_LD_21_RN_2_RD_15_0.png","C_Dist_200_LN_8_LD_15_RN_2_RD_6_0.png","C_Dist_200_LN_8_LD_15_RN_3_RD_9_0.png","C_Dist_200_LN_8_LD_15_RN_7_RD_21_0.png","C_Dist_200_LN_9_LD_20_RN_4_RD_16_0.png"],["C_Dist_200_LN_1_LD_2_RN_21_RD_30_1.png","C_Dist_200_LN_13_LD_26_RN_14_RD_20_1.png","C_Dist_200_LN_3_LD_10_RN_11_RD_22_1.png","C_Dist_200_LN_3_LD_10_RN_14_RD_28_1.png","C_Dist_200_LN_3_LD_10_RN_7_RD_14_1.png","C_Dist_200_LN_3_LD_12_RN_9_RD_20_1.png","C_Dist_200_LN_3_LD_6_RN_14_RD_20_1.png","C_Dist_200_LN_5_LD_10_RN_14_RD_20_1.png","C_Dist_200_LN_6_LD_12_RN_7_RD_10_1.png","C_Dist_200_LN_6_LD_20_RN_11_RD_22_1.png","C_Dist_200_LN_7_LD_15_RN_18_RD_27_1.png","C_Dist_200_LN_9_LD_30_RN_13_RD_26_1.png"]],"dist200_I":[["I_Dist_200_LN_1_LD_2_RN_3_RD_10_0.png","I_Dist_200_LN_1_LD_3_RN_2_RD_15_0.png","I_Dist_200_LN_3_LD_4_RN_11_RD_20_0.png","I_Dist_200_LN_4_LD_5_RN_6_RD_10_0.png","I_Dist_200_LN_4_LD_6_RN_14_RD_30_0.png","I_Dist_200_LN_7_LD_10_RN_12_RD_24_0.png","I_Dist_200_LN_7_LD_10_RN_14_RD_28_0.png","I_Dist_200_LN_7_LD_10_RN_8_RD_16_0.png"],["I_Dist_200_LN_11_LD_20_RN_3_RD_4_1.png","I_Dist_200_LN_14_LD_30_RN_12_RD_18_1.png","I_Dist_200_LN_14_LD_30_RN_6_RD_9_1.png","I_Dist_200_LN_3_LD_10_RN_1_RD_2_1.png","I_Dist_200_LN_4_LD_30_RN_1_RD_3_1.png","I_Dist_200_LN_6_LD_20_RN_3_RD_6_1.png","I_Dist_200_LN_7_LD_15_RN_4_RD_6_1.png","I_Dist_200_LN_7_LD_15_RN_6_RD_9_1.png","I_Dist_200_LN_9_LD_15_RN_8_RD_10_1.png"]],"dist200_S":[["E_Dist_200_LN_3_LD_6_RN_3_RD_10_0.png"],["E_Dist_200_LN_3_LD_10_RN_3_RD_6_1.png"]],"dist300_C":[["C_Dist_300_LN_11_LD_22_RN_1_RD_5_0.png","C_Dist_300_LN_11_LD_22_RN_2_RD_10_0.png","C_Dist_300_LN_11_LD_22_RN_4_RD_20_0.png","C_Dist_300_LN_12_LD_24_RN_2_RD_10_0.png","C_Dist_300_LN_18_LD_20_RN_9_RD_15_0.png","C_Dist_300_LN_20_LD_25_RN_13_RD_26_0.png","C_Dist_300_LN_20_LD_25_RN_14_RD_28_0.png","C_Dist_300_LN_20_LD_25_RN_5_RD_10_0.png","C_Dist_300_LN_20_LD_25_RN_8_RD_16_0.png","C_Dist_300_LN_20_LD_25_RN_9_RD_18_0.png","C_Dist_300_LN_24_LD_30_RN_2_RD_4_0.png","C_Dist_300_LN_24_LD_30_RN_8_RD_16_0.png","C_Dist_300_LN_3_LD_6_RN_2_RD_10_0.png","C_Dist_300_LN_4_LD_10_RN_1_RD_10_0.png","C_Dist_300_LN_4_LD_5_RN_2_RD_4_0.png","C_Dist_300_LN_8_LD_16_RN_1_RD_5_0.png","C_Dist_300_LN_9_LD_10_RN_3_RD_5_0.png"],["C_Dist_300_LN_1_LD_20_RN_7_RD_20_1.png","C_Dist_300_LN_1_LD_3_RN_19_RD_30_1.png","C_Dist_300_LN_1_LD_30_RN_8_RD_24_1.png","C_Dist_300_LN_1_LD_5_RN_11_RD_22_1.png","C_Dist_300_LN_1_LD_5_RN_3_RD_6_1.png","C_Dist_300_LN_1_LD_5_RN_6_RD_12_1.png","C_Dist_300_LN_2_LD_10_RN_12_RD_24_1.png","C_Dist_300_LN_2_LD_20_RN_10_RD_25_1.png","C_Dist_300_LN_3_LD_12_RN_11_RD_20_1.png","C_Dist_300_LN_3_LD_6_RN_4_RD_5_1.png","C_Dist_300_LN_4_LD_20_RN_13_RD_26_1.png","C_Dist_300_LN_5_LD_25_RN_6_RD_12_1.png","C_Dist_300_LN_5_LD_25_RN_7_RD_14_1.png","C_Dist_300_LN_7_LD_14_RN_20_RD_25_1.png","C_Dist_300_LN_8_LD_15_RN_10_RD_12_1.png"]],"dist300_I":[["I_Dist_300_LN_1_LD_2_RN_2_RD_10_0.png","I_Dist_300_LN_1_LD_2_RN_3_RD_15_0.png","I_Dist_300_LN_2_LD_4_RN_6_RD_30_0.png","I_Dist_300_LN_3_LD_6_RN_4_RD_20_0.png","I_Dist_300_LN_4_LD_5_RN_6_RD_12_0.png","I_Dist_300_LN_4_LD_5_RN_8_RD_16_0.png","I_Dist_300_LN_7_LD_10_RN_8_RD_20_0.png","I_Dist_300_LN_8_LD_10_RN_14_RD_28_0.png","I_Dist_300_LN_8_LD_10_RN_9_RD_18_0.png"],["I_Dist_300_LN_13_LD_26_RN_12_RD_15_1.png","I_Dist_300_LN_4_LD_20_RN_2_RD_4_1.png"]],"dist300_S":[["E_Dist_300_LN_9_LD_12_RN_9_RD_20_0.png"],["E_Dist_300_LN_18_LD_30_RN_18_RD_20_1.png","E_Dist_300_LN_3_LD_10_RN_3_RD_5_1.png","E_Dist_300_LN_9_LD_20_RN_9_RD_12_1.png"]],"dist500_C":[["C_Dist_500_LN_10_LD_13_RN_7_RD_26_0.png","C_Dist_500_LN_10_LD_15_RN_4_RD_24_0.png","C_Dist_500_LN_12_LD_16_RN_3_RD_12_0.png","C_Dist_500_LN_12_LD_18_RN_4_RD_24_0.png","C_Dist_500_LN_15_LD_18_RN_5_RD_15_0.png","C_Dist_500_LN_15_LD_20_RN_1_RD_4_0.png","C_Dist_500_LN_18_LD_27_RN_1_RD_6_0.png","C_Dist_500_LN_20_LD_24_RN_1_RD_3_0.png","C_Dist_500_LN_20_LD_24_RN_3_RD_9_0.png","C_Dist_500_LN_20_LD_24_RN_7_RD_21_0.png","C_Dist_500_LN_20_LD_28_RN_3_RD_14_0.png","C_Dist_500_LN_21_LD_28_RN_6_RD_24_0.png","C_Dist_500_LN_22_LD_28_RN_2_RD_7_0.png","C_Dist_500_LN_25_LD_30_RN_9_RD_27_0.png","C_Dist_500_LN_4_LD_6_RN_1_RD_6_0.png","C_Dist_500_LN_5_LD_6_RN_2_RD_6_0.png","C_Dist_500_LN_6_LD_9_RN_1_RD_6_0.png","C_Dist_500_LN_7_LD_10_RN_1_RD_5_0.png","C_Dist_500_LN_8_LD_12_RN_1_RD_6_0.png","C_Dist_500_LN_8_LD_12_RN_4_RD_24_0.png"],["C_Dist_500_LN_1_LD_4_RN_12_RD_16_1.png","C_Dist_500_LN_1_LD_4_RN_9_RD_12_1.png","C_Dist_500_LN_1_LD_9_RN_11_RD_18_1.png","C_Dist_500_LN_10_LD_24_RN_22_RD_24_1.png","C_Dist_500_LN_2_LD_12_RN_10_RD_15_1.png","C_Dist_500_LN_2_LD_12_RN_12_RD_18_1.png","C_Dist_500_LN_2_LD_12_RN_4_RD_6_1.png","C_Dist_500_LN_2_LD_24_RN_7_RD_12_1.png","C_Dist_500_LN_2_LD_5_RN_18_RD_20_1.png","C_Dist_500_LN_2_LD_5_RN_9_RD_10_1.png","C_Dist_500_LN_2_LD_8_RN_12_RD_16_1.png","C_Dist_500_LN_2_LD_8_RN_21_RD_28_1.png","C_Dist_500_LN_3_LD_10_RN_4_RD_5_1.png","C_Dist_500_LN_3_LD_12_RN_15_RD_20_1.png","C_Dist_500_LN_3_LD_30_RN_6_RD_10_1.png","C_Dist_500_LN_3_LD_8_RN_14_RD_16_1.png","C_Dist_500_LN_4_LD_16_RN_15_RD_20_1.png","C_Dist_500_LN_4_LD_24_RN_12_RD_18_1.png","C_Dist_500_LN_5_LD_14_RN_6_RD_7_1.png","C_Dist_500_LN_7_LD_21_RN_20_RD_24_1.png","C_Dist_500_LN_7_LD_28_RN_12_RD_16_1.png","C_Dist_500_LN_7_LD_28_RN_9_RD_12_1.png","C_Dist_500_LN_9_LD_27_RN_20_RD_24_1.png"]],"dist500_I":[["I_Dist_500_LN_2_LD_3_RN_4_RD_24_0.png","I_Dist_500_LN_5_LD_6_RN_6_RD_18_0.png","I_Dist_500_LN_7_LD_8_RN_9_RD_24_0.png"],["I_Dist_500_LN_7_LD_21_RN_5_RD_6_1.png"]],"dist500_S":[["E_Dist_500_LN_6_LD_8_RN_6_RD_24_0.png"],["E_Dist_500_LN_2_LD_12_RN_2_RD_3_1.png","E_Dist_500_LN_6_LD_24_RN_6_RD_8_1.png"]]}},{"start_time":1551886959735,"click_time":1551886961608,"finger_time":1551886961288,"fix_duration":266.36134992418516,"trial":1,"RT":1553,"MT":320,"sideResp":1,"stimulus":[],"xmouse":[801,801,801,801,801,801,801,801,801,801,801,799,799,798,798,798,798,798,798,798,798,798,798,798,798,798,798,798,798,798,798,798,798,798,798,798,798,798,798,798,798,798,798,798,798,798,798,798,798,798,798,798,798,798,798,798,798,798,798,798,798,798,798,798,798,798,798,798,798,798,798,798,798,798,797,793,788,770,694,647,606,577,563,557,557,557,557,557,557,556,551,539,521,484],"ymouse":[525,525,525,525,525,525,525,525,525,525,525,525,526,527,527,527,527,527,527,527,527,527,527,527,527,527,527,527,527,527,527,527,527,527,527,527,527,527,527,527,527,527,527,527,527,527,527,527,527,527,527,527,527,527,527,527,527,527,527,527,527,527,527,527,527,527,527,527,527,527,527,527,527,527,523,508,482,424,312,259,206,171,154,144,144,144,144,144,144,143,138,128,112,69],"timestamp_mouse":[15,36,53,74,92,113,133,153,173,193,213,233,253,273,293,313,333,353,372,393,413,433,453,472,493,514,533,553,574,593,613,634,653,673,693,714,733,754,773,794,813,834,853,873,893,913,933,953,972,994,1013,1033,1053,1073,1092,1112,1134,1153,1172,1192,1212,1233,1253,1273,1292,1312,1333,1352,1373,1392,1412,1434,1454,1473,1494,1514,1534,1553,1572,1594,1612,1633,1653,1673,1693,1714,1733,1754,1773,1794,1813,1833,1853,1872],"xSR":741.5,"ySR":469.95,"xT1":424.9,"yT1":0,"xT2":1058.1,"yT2":0,"toosoon":0,"cond_shown":"Incongruent","ratio_trial":300,"L_num":1,"L_den":2,"R_num":3,"R_den":15,"correct_side":1,"subjID":"juanavalentinauribeinfante36","gender":"No_gender","school":"No_school","age":""},{"start_time":1551886963879,"click_time":1551886965628,"finger_time":1551886965508,"fix_duration":250,"trial":2,"RT":1629,"MT":120,"sideResp":1,"stimulus":[],"xmouse":[804,804,804,804,804,804,804,804,804,804,804,804,804,804,804,804,804,804,804,804,804,804,804,804,804,804,804,804,804,804,804,804,804,804,804,804,804,804,804,804,804,804,804,804,804,804,804,804,804,804,804,804,804,804,804,804,804,804,804,804,804,804,804,804,804,804,804,804,804,804,805,813,813,813,813,813,813,813,813,813,804,737,706,680,653,621,536,497],"ymouse":[527,527,527,527,527,527,527,527,527,527,527,527,527,527,527,527,527,527,527,527,527,527,527,527,527,527,527,527,527,527,527,527,527,527,527,527,527,527,527,527,527,527,527,527,527,527,527,527,527,527,527,527,527,527,527,527,527,527,527,527,527,527,527,527,527,527,527,527,527,527,524,518,517,517,517,517,517,517,517,515,507,418,376,340,299,246,123,77],"timestamp_mouse":[15,39,50,68,88,109,129,150,170,188,208,230,249,269,288,309,330,348,368,389,408,430,449,469,488,510,529,549,569,589,608,630,650,669,690,709,730,748,769,789,809,829,848,868,890,909,929,950,969,989,1010,1029,1049,1070,1090,1108,1129,1149,1168,1188,1209,1229,1250,1270,1290,1309,1329,1350,1370,1389,1410,1429,1449,1470,1489,1509,1530,1548,1569,1589,1609,1629,1650,1669,1690,1709,1728,1749],"xSR":741.5,"ySR":469.95,"xT1":424.9,"yT1":0,"xT2":1058.1,"yT2":0,"toosoon":0,"cond_shown":"Congruent","ratio_trial":300,"L_num":4,"L_den":10,"R_num":1,"R_den":10,"correct_side":1,"subjID":"juanavalentinauribeinfante36","gender":"No_gender","school":"No_school","age":""},{"start_time":1551886967381,"click_time":1551886968569,"finger_time":1551886968108,"fix_duration":250,"trial":3,"RT":727,"MT":461,"sideResp":2,"stimulus":[],"xmouse":[772,772,772,772,772,772,772,772,772,772,772,772,772,772,772,772,772,772,772,772,772,772,772,772,772,772,772,772,772,772,772,772,775,779,787,800,830,850,873,901,929,974,980,986,991,991,991,991,991,991,991,991,991,991,991,991,991,1038,1051,1061],"ymouse":[516,516,516,516,516,516,516,516,516,516,516,516,516,516,516,516,516,516,516,516,516,516,516,516,516,516,516,516,516,516,516,516,513,507,496,480,437,411,376,323,256,109,60,23,0,0,0,0,0,0,0,0,0,0,0,0,0,13,28,40],"timestamp_mouse":[9,40,47,68,88,107,127,146,168,187,206,227,246,266,288,306,327,347,368,388,406,427,448,468,488,508,527,547,568,588,607,627,647,666,687,707,727,748,766,787,807,827,847,867,888,907,927,948,968,988,1007,1027,1048,1067,1086,1106,1126,1146,1166,1187],"xSR":741.5,"ySR":469.95,"xT1":424.9,"yT1":0,"xT2":1058.1,"yT2":0,"toosoon":0,"cond_shown":"Incongruent","ratio_trial":300,"L_num":4,"L_den":20,"R_num":2,"R_den":4,"correct_side":2,"subjID":"juanavalentinauribeinfante36","gender":"No_gender","school":"No_school","age":""},{"start_time":1551886974317,"click_time":1551886976089,"finger_time":1551886975708,"fix_duration":1407.536977022527,"trial":4,"RT":1391,"MT":381,"sideResp":2,"stimulus":[],"xmouse":[776,776,776,776,776,776,776,776,776,776,776,776,776,776,776,776,776,776,776,776,776,776,776,776,776,776,776,776,776,776,776,776,776,776,776,776,776,776,776,776,776,776,776,776,776,776,776,776,776,776,776,776,776,776,776,776,776,776,776,776,776,776,776,776,776,776,776,787,804,947,1024,1084,1141,1192,1245,1250,1252,1254,1255,1255,1255,1252,1248,1241,1214,1194,1177,1160,1143],"ymouse":[535,535,535,535,535,535,535,535,535,535,535,535,535,535,535,535,535,535,535,535,535,535,535,535,535,535,535,535,535,535,535,535,535,535,535,535,535,535,535,535,535,535,535,535,535,535,535,535,535,535,535,535,535,535,535,535,535,535,535,535,535,535,535,535,535,535,535,529,520,439,397,355,307,263,192,180,174,169,166,155,151,145,140,132,113,103,96,90,82],"timestamp_mouse":[12,39,52,70,90,112,131,150,171,191,212,231,251,270,291,312,332,351,370,392,410,430,451,470,492,511,531,551,571,591,611,630,651,672,691,711,731,752,770,791,811,831,851,871,891,911,931,952,970,991,1011,1031,1051,1071,1091,1110,1132,1151,1171,1191,1212,1232,1251,1271,1291,1312,1331,1350,1371,1391,1411,1431,1450,1471,1491,1511,1532,1552,1570,1591,1611,1631,1651,1670,1690,1711,1731,1750,1772],"xSR":741.5,"ySR":469.95,"xT1":424.9,"yT1":0,"xT2":1058.1,"yT2":0,"toosoon":0,"cond_shown":"Congruent","ratio_trial":300,"L_num":1,"L_den":5,"R_num":11,"R_den":22,"correct_side":2,"subjID":"juanavalentinauribeinfante36","gender":"No_gender","school":"No_school","age":""},{"start_time":1551886977565,"click_time":1551886978588,"finger_time":1551886978428,"fix_duration":315.1267336087683,"trial":5,"RT":863,"MT":160,"sideResp":1,"stimulus":[],"xmouse":[834,834,834,834,834,834,834,834,834,834,834,834,834,834,834,834,834,834,834,834,834,834,834,834,834,834,834,834,834,834,834,834,834,834,834,834,834,834,834,834,834,834,817,775,727,688,659,624,601,570,536,507],"ymouse":[539,539,539,539,539,539,539,539,539,539,539,539,539,539,539,539,539,539,539,539,539,539,539,539,539,539,539,539,539,539,539,539,539,539,539,539,539,539,539,539,539,539,517,462,401,357,323,274,236,190,141,99],"timestamp_mouse":[9,24,48,63,83,103,124,143,163,183,204,223,244,263,284,302,323,343,364,382,404,424,442,463,483,504,522,543,563,582,604,624,643,662,683,704,723,743,764,784,804,823,842,863,883,903,923,942,962,983,1003,1023],"xSR":741.5,"ySR":469.95,"xT1":424.9,"yT1":0,"xT2":1058.1,"yT2":0,"toosoon":0,"cond_shown":"Congruent","ratio_trial":300,"L_num":18,"L_den":20,"R_num":9,"R_den":15,"correct_side":1,"subjID":"juanavalentinauribeinfante36","gender":"No_gender","school":"No_school","age":""},{"start_time":1551886980275,"click_time":1551886981169,"finger_time":1551886980968,"fix_duration":806.9994982490999,"trial":6,"RT":693,"MT":201,"sideResp":2,"stimulus":[],"xmouse":[790,790,790,790,790,790,790,790,790,790,790,790,790,790,790,790,790,790,790,790,790,790,790,790,790,790,790,790,790,791,793,803,814,826,842,863,937,965,988,1007,1022,1042,1047,1050,1061],"ymouse":[553,553,553,553,553,553,553,553,553,553,553,553,553,553,553,553,553,553,553,553,553,553,553,553,553,553,553,553,553,553,551,529,516,496,473,442,337,292,250,216,191,151,135,122,95],"timestamp_mouse":[14,38,53,73,92,113,134,153,173,193,214,232,252,273,293,312,333,354,373,393,413,433,453,472,494,514,532,554,573,593,612,633,653,673,693,713,733,754,773,792,813,833,854,873,893],"xSR":741.5,"ySR":469.95,"xT1":424.9,"yT1":0,"xT2":1058.1,"yT2":0,"toosoon":0,"cond_shown":"Congruent","ratio_trial":200,"L_num":3,"L_den":6,"R_num":14,"R_den":20,"correct_side":2,"subjID":"juanavalentinauribeinfante36","gender":"No_gender","school":"No_school","age":""},{"start_time":1551886982830,"click_time":1551886985028,"finger_time":1551886984428,"fix_duration":860.517594042534,"trial":7,"RT":1598,"MT":600,"sideResp":1,"stimulus":[],"xmouse":[780,780,780,780,780,780,780,780,780,780,780,780,780,780,780,780,780,780,780,780,780,780,780,780,780,780,780,780,780,780,780,780,780,780,780,780,780,780,780,780,780,780,780,780,780,780,780,780,780,780,780,780,780,780,780,780,780,780,780,780,780,780,780,780,780,780,780,780,780,780,780,780,780,780,780,780,780,780,777,771,764,757,748,732,722,708,695,681,664,654,639,626,616,602,597,593,590,586,581,578,576,573,572,567,564,560,556,546,528,518],"ymouse":[504,504,504,504,504,504,504,504,504,504,504,504,504,504,504,504,504,504,504,504,504,504,504,504,504,504,504,504,504,504,504,504,504,504,504,504,504,504,504,504,504,504,504,504,504,504,504,504,504,504,504,504,504,504,504,504,504,504,504,504,504,504,504,504,504,504,504,504,504,504,504,504,504,504,504,504,504,504,484,460,438,416,392,353,333,310,292,269,238,224,204,186,170,147,137,132,126,122,116,114,111,109,107,101,98,94,89,84,77,72],"timestamp_mouse":[18,41,58,77,99,117,137,158,177,198,219,238,257,278,299,319,339,359,378,398,418,439,458,479,497,519,538,558,578,599,618,639,658,678,699,718,739,758,778,799,819,839,858,878,899,919,939,958,978,999,1018,1038,1058,1078,1098,1119,1139,1157,1178,1197,1218,1238,1257,1277,1298,1319,1337,1358,1378,1399,1417,1438,1457,1478,1499,1519,1537,1558,1578,1598,1617,1638,1659,1678,1697,1718,1738,1757,1778,1797,1818,1838,1857,1878,1898,1919,1938,1958,1977,1999,2019,2038,2058,2078,2099,2118,2137,2158,2177,2198],"xSR":741.5,"ySR":469.95,"xT1":424.9,"yT1":0,"xT2":1058.1,"yT2":0,"toosoon":0,"cond_shown":"Incongruent","ratio_trial":200,"L_num":1,"L_den":3,"R_num":2,"R_den":15,"correct_side":1,"subjID":"juanavalentinauribeinfante36","gender":"No_gender","school":"No_school","age":""},{"start_time":1551886987270,"click_time":1551886988709,"finger_time":1551886988088,"fix_duration":761.2800485496903,"trial":8,"RT":818,"MT":621,"sideResp":1,"stimulus":[],"xmouse":[802,802,802,802,802,802,802,802,802,802,802,802,802,802,802,802,802,802,802,802,802,802,802,802,802,802,802,802,802,802,802,802,802,802,802,802,802,802,796,772,734,687,678,673,668,663,647,639,631,623,615,599,594,590,585,580,570,566,557,550,546,539,536,532,528,524,514,511,507,504,498,478],"ymouse":[512,512,512,512,512,512,512,512,512,512,512,512,512,512,512,512,512,512,512,512,512,512,512,512,512,512,512,512,512,512,512,512,512,512,512,512,512,512,508,487,454,417,409,401,393,380,356,347,337,327,316,294,284,274,262,251,222,211,198,186,178,166,162,158,154,149,138,133,128,121,113,96],"timestamp_mouse":[18,38,59,78,98,118,138,158,179,197,219,238,258,279,299,319,338,358,378,397,419,439,457,478,499,517,538,557,577,598,618,637,657,678,697,718,738,759,779,798,818,838,857,878,898,918,938,958,978,998,1017,1038,1058,1077,1098,1118,1140,1159,1178,1198,1219,1237,1259,1278,1298,1318,1339,1358,1377,1397,1419,1439],"xSR":741.5,"ySR":469.95,"xT1":424.9,"yT1":0,"xT2":1058.1,"yT2":0,"toosoon":0,"cond_shown":"Congruent","ratio_trial":100,"L_num":11,"L_den":22,"R_num":4,"R_den":10,"correct_side":1,"subjID":"juanavalentinauribeinfante36","gender":"No_gender","school":"No_school","age":""},{"start_time":1551887010058,"click_time":1551887011908,"finger_time":1551887011528,"fix_duration":550.5907136348568,"trial":9,"RT":1470,"MT":380,"sideResp":1,"stimulus":[],"xmouse":[778,778,778,778,778,778,778,778,778,778,778,778,778,778,778,778,778,778,778,778,778,778,778,778,778,778,778,778,778,778,778,778,778,778,778,778,778,778,778,778,778,778,778,778,778,778,778,778,778,778,778,778,778,778,778,778,778,778,778,778,778,778,778,778,778,778,778,778,778,778,778,778,778,777,769,765,756,722,707,687,664,638,591,571,553,538,528,523,523,523,523,522,518],"ymouse":[514,514,514,514,514,514,514,514,514,514,514,514,514,514,514,514,514,514,514,514,514,514,514,514,514,514,514,514,514,514,514,514,514,514,514,514,514,514,514,514,514,514,514,514,514,514,514,514,514,514,514,514,514,514,514,514,514,514,514,514,514,514,514,514,514,514,514,514,514,514,514,513,486,459,431,409,387,328,311,297,287,275,250,238,221,204,190,162,150,139,130,116,95],"timestamp_mouse":[9,30,50,71,89,109,130,149,171,190,209,231,251,270,290,311,330,351,371,391,410,430,450,470,490,510,530,551,569,590,610,630,649,670,690,711,730,750,769,790,810,830,850,870,889,911,931,949,970,991,1009,1030,1050,1070,1091,1109,1130,1150,1171,1189,1210,1230,1250,1270,1290,1310,1330,1349,1370,1391,1410,1429,1450,1470,1490,1511,1530,1550,1570,1590,1611,1631,1650,1670,1690,1710,1730,1750,1771,1789,1809,1830,1850],"xSR":741.5,"ySR":469.95,"xT1":424.9,"yT1":0,"xT2":1058.1,"yT2":0,"toosoon":0,"cond_shown":"Congruent","ratio_trial":100,"L_num":6,"L_den":20,"R_num":5,"R_den":25,"correct_side":1,"subjID":"juanavalentinauribeinfante36","gender":"No_gender","school":"No_school","age":""},{"start_time":1551887020139,"click_time":1551887022089,"finger_time":1551887021509,"fix_duration":1109.2241065531039,"trial":10,"RT":1370,"MT":580,"sideResp":2,"stimulus":[],"xmouse":[770,770,770,770,770,770,770,770,770,770,770,770,770,770,770,770,770,770,770,770,770,770,770,770,770,770,770,770,770,770,770,770,770,770,770,770,770,770,770,770,770,770,770,770,770,770,770,770,770,770,770,770,770,770,770,770,770,770,770,770,770,770,770,770,770,770,771,776,841,887,942,992,1041,1124,1142,1155,1166,1173,1184,1187,1189,1189,1189,1189,1186,1183,1181,1175,1166,1161,1159,1159,1159,1159,1159,1159,1159,1158],"ymouse":[494,494,494,494,494,494,494,494,494,494,494,494,494,494,494,494,494,494,494,494,494,494,494,494,494,494,494,494,494,494,494,494,494,494,494,494,494,494,494,494,494,494,494,494,494,494,494,494,494,494,494,494,494,494,494,494,494,494,494,494,494,494,494,494,494,494,494,489,420,371,331,293,258,199,183,168,154,141,121,113,105,99,90,80,74,70,69,66,63,63,62,62,62,62,62,62,62,62],"timestamp_mouse":[9,36,49,69,89,111,130,150,169,189,210,230,249,269,289,309,330,350,370,390,409,429,449,469,489,509,529,550,570,589,610,630,649,670,689,710,729,749,769,789,810,829,850,869,890,910,930,949,970,989,1009,1030,1049,1069,1089,1109,1129,1150,1169,1189,1209,1229,1250,1269,1289,1310,1329,1349,1370,1389,1409,1429,1449,1469,1489,1509,1529,1550,1569,1589,1610,1630,1649,1669,1690,1709,1730,1749,1770,1789,1809,1831,1850,1870,1889,1911,1930,1950],"xSR":741.5,"ySR":469.95,"xT1":424.9,"yT1":0,"xT2":1058.1,"yT2":0,"toosoon":0,"cond_shown":"Incongruent","ratio_trial":100,"L_num":3,"L_den":9,"R_num":7,"R_den":30,"correct_side":1,"subjID":"juanavalentinauribeinfante36","gender":"No_gender","school":"No_school","age":""},{"start_time":1551887024558,"click_time":1551887026029,"finger_time":1551887025268,"fix_duration":1128.9291702256512,"trial":11,"RT":710,"MT":761,"sideResp":1,"stimulus":[],"xmouse":[798,798,798,798,798,798,798,798,798,798,798,798,798,798,798,798,798,798,798,798,798,798,798,798,801,803,805,808,813,817,818,818,818,818,806,734,550,373,366,367,371,375,378,378,376,369,363,360,359,359,357,357,354,354,354,354,357,364,370,378,384,388,393,396,401,404,406,408,409,410,412,413,421,425],"ymouse":[520,520,520,520,520,520,520,520,520,520,520,520,520,520,520,520,520,520,520,520,520,520,520,520,522,523,524,524,524,524,524,524,524,524,513,474,383,222,204,193,180,166,126,106,88,70,58,51,50,47,43,38,23,17,14,12,11,11,15,22,28,34,43,48,49,49,49,49,49,49,48,48,47,46],"timestamp_mouse":[10,30,62,70,91,110,131,151,171,191,211,231,250,270,292,310,331,350,371,391,411,430,451,471,491,510,531,550,571,590,611,630,651,670,691,710,730,751,771,790,811,830,850,870,891,910,930,950,970,990,1010,1032,1050,1070,1091,1110,1131,1150,1171,1190,1210,1231,1250,1270,1290,1310,1331,1350,1370,1390,1410,1430,1451,1471],"xSR":741.5,"ySR":469.95,"xT1":424.9,"yT1":0,"xT2":1058.1,"yT2":0,"toosoon":0,"cond_shown":"Incongruent","ratio_trial":100,"L_num":13,"L_den":26,"R_num":6,"R_den":10,"correct_side":2,"subjID":"juanavalentinauribeinfante36","gender":"No_gender","school":"No_school","age":""},{"start_time":1551887028262,"click_time":1551887029968,"finger_time":1551887029508,"fix_duration":952.2131453777107,"trial":12,"RT":1246,"MT":460,"sideResp":2,"stimulus":[],"xmouse":[777,777,777,777,777,777,777,777,777,777,777,777,777,775,774,774,774,774,774,774,774,774,774,774,774,774,774,774,774,774,774,774,774,774,774,774,774,774,774,774,774,774,774,774,774,774,774,774,774,774,774,774,774,774,774,774,774,774,774,779,786,816,911,966,1030,1086,1127,1169,1177,1183,1187,1188,1188,1188,1188,1188,1188,1188,1188,1188,1188,1188,1164,1162,1159,1157],"ymouse":[539,539,539,539,539,539,539,539,539,539,539,539,539,538,538,538,538,538,538,538,538,538,538,538,538,538,538,538,538,538,538,538,538,538,538,538,538,538,538,538,538,538,538,538,538,538,538,538,538,538,538,538,538,538,538,538,538,538,538,530,520,485,373,308,242,176,123,58,39,22,7,0,0,0,0,0,0,0,0,0,0,0,0,3,6,10],"timestamp_mouse":[10,33,47,66,87,107,126,146,166,186,207,227,246,266,286,306,326,346,366,386,406,428,446,466,487,506,526,548,566,586,607,626,646,668,688,707,726,746,766,786,806,827,847,866,887,906,926,947,967,986,1007,1027,1047,1067,1088,1106,1126,1147,1167,1186,1207,1226,1246,1267,1286,1306,1326,1346,1366,1386,1406,1426,1446,1466,1486,1507,1526,1546,1566,1586,1606,1628,1647,1666,1686,1706],"xSR":741.5,"ySR":469.95,"xT1":424.9,"yT1":0,"xT2":1058.1,"yT2":0,"toosoon":0,"cond_shown":"Incongruent","ratio_trial":300,"L_num":4,"L_den":20,"R_num":2,"R_den":4,"correct_side":2,"subjID":"juanavalentinauribeinfante36","gender":"No_gender","school":"No_school","age":""},{"start_time":1551887032054,"click_time":1551887033689,"finger_time":1551887033309,"fix_duration":645.0768198663993,"trial":13,"RT":1255,"MT":380,"sideResp":2,"stimulus":[],"xmouse":[828,828,828,828,828,828,828,828,828,828,828,828,828,828,828,828,828,828,828,828,828,828,828,828,828,828,828,828,828,828,828,828,828,828,828,828,828,828,828,828,828,828,828,828,828,828,828,828,828,828,828,828,828,828,828,828,828,828,828,828,828,828,848,914,995,1065,1114,1177,1183,1184,1184,1184,1184,1184,1184,1184,1184,1184,1184,1184,1184,1153],"ymouse":[509,509,509,509,509,509,509,509,509,509,509,509,509,509,509,509,509,509,509,509,509,509,509,509,509,509,509,509,509,509,509,509,509,509,509,509,509,509,509,509,509,509,509,509,509,509,509,509,509,509,509,509,509,509,509,509,509,509,509,509,509,509,475,380,276,193,136,39,11,2,2,2,2,2,2,2,2,2,2,2,2,2],"timestamp_mouse":[18,46,54,75,94,114,134,154,174,194,215,234,254,275,295,314,334,354,374,394,414,435,454,475,494,514,534,555,575,595,615,634,654,674,694,714,734,754,774,795,814,836,854,874,894,915,935,954,975,994,1015,1034,1055,1074,1096,1115,1134,1154,1174,1195,1214,1234,1255,1275,1294,1314,1334,1354,1376,1394,1415,1434,1455,1474,1495,1516,1534,1554,1575,1594,1614,1635],"xSR":741.5,"ySR":469.95,"xT1":424.9,"yT1":0,"xT2":1058.1,"yT2":0,"toosoon":0,"cond_shown":"Incongruent","ratio_trial":100,"L_num":13,"L_den":26,"R_num":12,"R_den":20,"correct_side":2,"subjID":"juanavalentinauribeinfante36","gender":"No_gender","school":"No_school","age":""},{"start_time":1551887035854,"click_time":1551887037349,"finger_time":1551887036768,"fix_duration":904.4323573856801,"trial":14,"RT":914,"MT":581,"sideResp":1,"stimulus":[],"xmouse":[777,777,777,777,777,777,777,777,777,777,777,777,777,777,777,777,777,777,777,777,777,777,777,777,777,777,777,777,777,777,777,777,777,777,777,777,777,777,777,777,777,777,779,779,772,754,718,630,618,612,611,611,612,612,612,612,612,612,612,612,612,612,612,603,589,574,561,544,541,538,535,532,527,526,524],"ymouse":[529,529,529,529,529,529,529,529,529,529,529,529,529,529,529,529,529,529,529,529,529,529,529,529,529,529,529,529,529,529,529,529,529,529,529,529,529,529,529,529,529,531,529,513,487,441,375,219,192,172,154,141,126,123,120,118,118,118,118,118,118,118,117,114,109,102,97,89,88,87,86,83,80,79,78],"timestamp_mouse":[15,37,54,76,94,114,135,154,175,194,215,234,254,275,294,315,335,354,374,395,414,434,454,474,494,514,534,554,574,594,615,634,654,674,695,714,734,754,775,794,814,834,854,874,894,914,934,954,974,995,1014,1035,1055,1074,1095,1114,1134,1154,1174,1194,1214,1235,1255,1275,1294,1314,1335,1354,1374,1395,1415,1435,1454,1475,1495],"xSR":741.5,"ySR":469.95,"xT1":424.9,"yT1":0,"xT2":1058.1,"yT2":0,"toosoon":0,"cond_shown":"Congruent","ratio_trial":300,"L_num":12,"L_den":24,"R_num":2,"R_den":10,"correct_side":1,"subjID":"juanavalentinauribeinfante36","gender":"No_gender","school":"No_school","age":""},{"start_time":1551887041488,"click_time":1551887043408,"finger_time":1551887042808,"fix_duration":1278.0915293192284,"trial":15,"RT":1320,"MT":600,"sideResp":2,"stimulus":[],"xmouse":[808,808,808,808,808,808,808,808,808,808,808,808,808,808,808,808,808,808,808,808,808,808,808,808,808,808,808,808,808,808,808,808,808,808,808,808,808,808,808,808,808,808,808,808,808,808,808,808,808,808,808,808,808,808,808,808,808,808,808,808,808,808,808,808,808,811,848,889,933,977,1008,1035,1038,1038,1038,1038,1038,1038,1038,1037,1036,1034,1034,1034,1034,1034,1034,1034,1036,1040,1044,1048,1048,1049,1050,1055,1062],"ymouse":[499,499,499,499,499,499,499,499,499,499,499,499,499,499,499,499,499,499,499,499,499,499,499,499,499,499,499,499,499,499,499,499,499,499,499,499,499,499,499,499,499,499,499,499,499,499,499,499,499,499,499,499,499,499,499,499,499,499,499,499,499,499,499,499,499,493,449,406,361,321,290,260,256,254,253,252,237,226,218,208,202,185,176,160,144,128,101,92,85,74,68,60,58,56,54,48,44],"timestamp_mouse":[8,32,40,60,80,100,121,142,160,180,201,221,240,262,281,300,321,340,362,381,401,420,440,460,480,501,520,540,560,581,602,620,641,661,680,700,720,740,760,780,800,820,840,860,880,900,920,940,960,980,1000,1020,1041,1060,1080,1100,1122,1141,1160,1180,1200,1220,1242,1261,1280,1300,1320,1340,1360,1380,1400,1421,1441,1460,1481,1500,1520,1540,1560,1580,1600,1620,1640,1660,1681,1700,1721,1740,1760,1781,1801,1821,1841,1860,1881,1900,1920],"xSR":741.5,"ySR":469.95,"xT1":424.9,"yT1":0,"xT2":1058.1,"yT2":0,"toosoon":0,"cond_shown":"Incongruent","ratio_trial":300,"L_num":4,"L_den":20,"R_num":2,"R_den":4,"correct_side":2,"subjID":"juanavalentinauribeinfante36","gender":"No_gender","school":"No_school","age":""},{"start_time":1551887045913,"click_time":1551887047608,"finger_time":1551887046929,"fix_duration":1103.8429052839238,"trial":16,"RT":1016,"MT":679,"sideResp":1,"stimulus":[],"xmouse":[827,827,827,827,827,827,827,827,827,827,827,827,827,827,827,827,827,827,827,827,827,827,827,827,827,827,827,827,827,827,827,827,827,827,827,827,827,827,827,827,827,827,827,827,827,827,827,827,827,802,789,781,779,777,768,763,757,754,751,746,745,742,738,732,711,708,703,689,661,596,596,596,596,596,596,596,596,596,596,596,596,596,596,596,443],"ymouse":[504,504,504,504,504,504,504,504,504,504,504,504,504,504,504,504,504,504,504,504,504,504,504,504,504,504,504,504,504,504,504,504,504,504,504,504,504,504,504,504,504,504,504,504,504,504,504,503,500,473,463,459,456,455,449,443,435,429,426,418,416,411,403,395,329,313,297,272,185,17,17,17,17,17,17,17,17,17,17,17,17,17,17,17,13],"timestamp_mouse":[32,36,55,76,95,115,135,156,175,195,215,236,255,277,295,316,335,356,375,396,416,436,455,475,495,516,535,557,576,595,616,635,655,675,697,715,735,756,775,795,815,835,856,875,895,915,935,956,975,995,1016,1035,1055,1075,1096,1115,1135,1155,1175,1196,1215,1235,1255,1276,1296,1316,1336,1355,1375,1397,1415,1435,1455,1476,1495,1515,1535,1556,1575,1596,1616,1636,1656,1676,1695],"xSR":741.5,"ySR":469.95,"xT1":424.9,"yT1":0,"xT2":1058.1,"yT2":0,"toosoon":0,"cond_shown":"Incongruent","ratio_trial":300,"L_num":1,"L_den":2,"R_num":3,"R_den":15,"correct_side":1,"subjID":"juanavalentinauribeinfante36","gender":"No_gender","school":"No_school","age":""},{"start_time":1551887048920,"click_time":1551887050008,"finger_time":1551887049828,"fix_duration":250,"trial":17,"RT":908,"MT":180,"sideResp":1,"stimulus":[],"xmouse":[785,785,785,785,785,785,785,785,785,785,785,785,785,785,785,785,788,788,788,789,789,789,789,789,789,789,789,789,790,790,791,791,791,791,791,791,791,791,791,791,791,791,791,791,783,766,741,709,675,609,587,557,533,510,466],"ymouse":[516,516,516,516,516,516,516,516,516,516,516,516,516,516,516,516,511,509,505,502,500,499,498,497,497,497,497,497,496,494,493,493,493,493,493,493,493,493,493,493,493,493,493,493,472,433,374,328,283,213,193,167,147,126,68],"timestamp_mouse":[11,36,49,68,88,108,128,149,169,188,208,229,248,268,289,308,328,349,368,388,408,428,448,468,488,510,528,548,568,588,608,629,649,668,688,708,728,748,768,788,808,828,848,868,888,908,929,948,968,988,1008,1028,1048,1068,1088],"xSR":741.5,"ySR":469.95,"xT1":424.9,"yT1":0,"xT2":1058.1,"yT2":0,"toosoon":0,"cond_shown":"Congruent","ratio_trial":300,"L_num":20,"L_den":25,"R_num":5,"R_den":10,"correct_side":1,"subjID":"juanavalentinauribeinfante36","gender":"No_gender","school":"No_school","age":""},{"start_time":1551887051761,"click_time":1551887053089,"finger_time":1551887052749,"fix_duration":250,"trial":18,"RT":988,"MT":340,"sideResp":1,"stimulus":[],"xmouse":[775,775,775,775,775,775,775,775,775,775,775,775,775,775,775,775,775,775,777,779,779,781,781,781,781,781,781,781,781,781,781,781,781,781,781,781,781,781,781,781,781,781,781,781,781,781,781,778,770,761,747,732,700,684,670,657,646,631,625,618,610,601,577,563,546,529,503],"ymouse":[504,504,504,504,504,504,504,504,504,504,504,504,504,504,504,504,504,504,504,503,501,499,499,499,499,499,499,499,499,499,499,498,496,496,496,496,496,496,496,496,496,496,496,496,496,495,494,483,470,455,434,409,354,332,313,296,282,255,241,224,205,186,144,128,109,87,58],"timestamp_mouse":[10,35,47,67,88,108,128,147,168,189,207,228,247,267,287,308,327,348,367,388,408,427,449,468,488,507,529,547,568,588,608,627,647,668,687,708,727,748,767,788,808,828,847,868,888,908,928,947,968,988,1008,1028,1047,1067,1087,1109,1128,1147,1167,1187,1207,1227,1247,1268,1288,1308,1328],"xSR":741.5,"ySR":469.95,"xT1":424.9,"yT1":0,"xT2":1058.1,"yT2":0,"toosoon":0,"cond_shown":"Incongruent","ratio_trial":100,"L_num":3,"L_den":9,"R_num":7,"R_den":30,"correct_side":1,"subjID":"juanavalentinauribeinfante36","gender":"No_gender","school":"No_school","age":""},{"start_time":1551887055565,"click_time":1551887056229,"finger_time":1551887056028,"fix_duration":1496.8267566177442,"trial":19,"RT":463,"MT":201,"sideResp":1,"stimulus":[],"xmouse":[829,825,795,791,790,790,790,790,790,790,790,790,790,790,790,790,790,790,790,789,787,784,775,771,766,751,731,687,672,658,645,620,553,508],"ymouse":[543,543,530,528,528,528,528,528,528,528,528,528,528,528,528,528,528,528,528,526,523,514,472,446,398,342,293,231,216,205,196,172,90,55],"timestamp_mouse":[3,24,55,63,84,103,123,144,165,183,204,223,243,264,283,303,324,344,364,384,404,424,443,463,483,503,524,544,563,583,603,623,644,664],"xSR":741.5,"ySR":469.95,"xT1":424.9,"yT1":0,"xT2":1058.1,"yT2":0,"toosoon":0,"cond_shown":"Incongruent","ratio_trial":200,"L_num":3,"L_den":10,"R_num":1,"R_den":2,"correct_side":2,"subjID":"juanavalentinauribeinfante36","gender":"No_gender","school":"No_school","age":""},{"start_time":1551887061223,"click_time":1551887062729,"finger_time":1551887062108,"fix_duration":593.7262157052702,"trial":20,"RT":885,"MT":621,"sideResp":2,"stimulus":[],"xmouse":[808,808,808,808,808,808,808,808,808,808,808,808,808,808,808,808,808,808,808,808,808,808,808,808,808,808,808,808,808,808,808,808,808,808,808,808,808,808,808,808,808,808,814,833,963,1058,1153,1233,1288,1343,1345,1346,1346,1346,1346,1344,1340,1338,1335,1319,1307,1291,1272,1255,1239,1238,1238,1238,1236,1226,1222,1219,1214,1205,1165,1139],"ymouse":[514,514,514,514,514,514,514,514,514,514,514,514,514,514,514,514,514,514,514,514,514,514,514,514,514,514,514,514,514,514,514,514,514,514,514,514,514,514,514,514,514,514,507,496,398,327,260,196,145,61,52,48,46,45,43,40,37,36,35,35,35,36,41,45,52,53,53,53,54,59,59,60,60,62,71,80],"timestamp_mouse":[11,35,46,66,86,106,127,146,165,185,206,226,246,266,285,305,327,346,365,385,405,426,447,465,485,506,526,546,565,585,606,625,646,666,685,707,726,746,766,786,806,826,846,866,885,906,925,946,966,986,1005,1025,1045,1067,1086,1105,1125,1146,1165,1185,1217,1225,1246,1266,1285,1305,1325,1346,1365,1385,1405,1426,1445,1465,1485,1506],"xSR":741.5,"ySR":469.95,"xT1":424.9,"yT1":0,"xT2":1058.1,"yT2":0,"toosoon":0,"cond_shown":"Incongruent","ratio_trial":300,"L_num":13,"L_den":26,"R_num":12,"R_den":15,"correct_side":2,"subjID":"juanavalentinauribeinfante36","gender":"No_gender","school":"No_school","age":""},{"start_time":1551887064281,"click_time":1551887065829,"finger_time":1551887065208,"fix_duration":250,"trial":21,"RT":927,"MT":621,"sideResp":2,"stimulus":[],"xmouse":[804,804,804,804,804,804,804,804,804,804,804,804,804,804,804,804,804,804,804,804,804,804,804,804,804,804,804,804,804,804,804,804,804,804,804,804,804,804,804,804,804,804,804,804,804,810,862,875,884,889,892,904,906,911,917,924,934,935,936,937,939,943,945,949,953,957,969,973,979,988,996,1014,1022,1030,1035,1038,1055,1061],"ymouse":[532,532,532,532,532,532,532,532,532,532,532,532,532,532,532,532,532,532,532,532,532,532,532,532,532,532,532,532,532,532,532,532,532,532,532,532,532,532,532,532,532,532,532,532,529,519,454,439,430,425,421,401,388,369,348,325,291,284,277,268,256,232,218,202,189,172,143,136,129,120,111,90,82,73,68,63,46,41],"timestamp_mouse":[10,39,48,72,88,107,127,147,167,187,207,228,247,267,287,307,328,347,367,387,407,427,447,467,488,507,527,547,568,587,607,627,647,668,688,708,727,747,767,787,807,828,847,867,888,907,927,947,967,988,1008,1027,1048,1067,1087,1108,1127,1148,1167,1187,1207,1227,1248,1268,1287,1308,1327,1347,1367,1387,1407,1427,1448,1468,1488,1507,1528,1548],"xSR":741.5,"ySR":469.95,"xT1":424.9,"yT1":0,"xT2":1058.1,"yT2":0,"toosoon":0,"cond_shown":"Congruent","ratio_trial":100,"L_num":7,"L_den":14,"R_num":9,"R_den":15,"correct_side":2,"subjID":"juanavalentinauribeinfante36","gender":"No_gender","school":"No_school","age":""},{"start_time":1551887068002,"click_time":1551887069489,"finger_time":1551887068928,"fix_duration":1352.5905482167777,"trial":22,"RT":926,"MT":561,"sideResp":1,"stimulus":[],"xmouse":[812,812,812,812,812,812,812,812,812,812,812,812,812,812,812,812,812,812,812,812,812,812,812,812,812,812,812,812,812,812,812,812,812,812,812,812,812,812,812,812,812,812,812,811,807,794,788,783,775,766,716,698,682,671,657,637,630,625,621,618,607,602,595,586,577,557,546,534,521,506,484,481,479,477,476],"ymouse":[529,529,529,529,529,529,529,529,529,529,529,529,529,529,529,529,529,529,529,529,529,529,529,529,529,529,529,529,529,529,529,529,529,529,529,529,529,529,529,529,529,529,527,521,504,473,464,457,448,435,352,321,302,287,273,249,238,230,222,217,204,199,193,186,180,166,158,150,141,133,118,114,107,102,97],"timestamp_mouse":[10,39,46,66,86,107,126,146,166,186,206,226,246,267,286,306,326,346,367,387,406,426,447,466,486,506,527,546,567,586,606,627,647,666,686,707,727,747,767,786,806,826,846,866,886,906,926,947,966,987,1006,1027,1046,1066,1086,1108,1126,1146,1167,1186,1206,1228,1247,1266,1286,1307,1327,1346,1366,1387,1407,1426,1446,1467,1487],"xSR":741.5,"ySR":469.95,"xT1":424.9,"yT1":0,"xT2":1058.1,"yT2":0,"toosoon":0,"cond_shown":"Incongruent","ratio_trial":300,"L_num":8,"L_den":10,"R_num":9,"R_den":18,"correct_side":1,"subjID":"juanavalentinauribeinfante36","gender":"No_gender","school":"No_school","age":""},{"start_time":1551887071620,"click_time":1551887072449,"finger_time":1551887072268,"fix_duration":831.9472862637053,"trial":23,"RT":648,"MT":181,"sideResp":2,"stimulus":[],"xmouse":[793,793,793,793,793,793,793,793,793,793,793,793,793,793,793,793,793,793,793,793,793,793,793,793,793,793,793,793,793,793,793,806,853,917,1016,1035,1047,1058,1074,1093,1098,1105],"ymouse":[479,479,479,479,479,479,479,479,479,479,479,479,479,479,479,479,479,479,479,479,479,479,479,479,479,479,479,479,479,479,479,477,443,392,318,303,288,266,210,139,104,64],"timestamp_mouse":[11,34,49,69,89,108,128,150,168,188,208,229,249,268,288,308,329,350,369,388,408,429,449,468,488,508,529,549,568,588,608,628,648,668,688,708,728,748,769,788,810,829],"xSR":741.5,"ySR":469.95,"xT1":424.9,"yT1":0,"xT2":1058.1,"yT2":0,"toosoon":0,"cond_shown":"Incongruent","ratio_trial":300,"L_num":13,"L_den":26,"R_num":12,"R_den":15,"correct_side":2,"subjID":"juanavalentinauribeinfante36","gender":"No_gender","school":"No_school","age":""},{"start_time":1551887074600,"click_time":1551887076110,"finger_time":1551887075228,"fix_duration":1149.9360832964658,"trial":24,"RT":628,"MT":882,"sideResp":2,"stimulus":[],"xmouse":[786,786,786,786,786,786,786,786,786,786,786,786,786,786,786,786,786,786,786,786,786,786,786,786,786,786,786,786,786,786,788,800,821,847,877,926,948,964,977,988,988,988,988,988,988,988,988,988,988,988,988,988,1031,1025,1021,1012,1010,1009,1009,1008,1002,1002,999,999,999,999,1000,1005,1013,1025,1035,1037,1041,1048,1054,1065],"ymouse":[495,495,495,495,495,495,495,495,495,495,495,495,495,495,495,495,495,495,495,495,495,495,495,495,495,495,495,495,495,495,476,437,384,322,257,142,93,57,28,1,1,1,1,1,1,1,1,1,1,1,1,1,10,18,28,48,53,57,60,64,79,83,87,89,89,89,90,90,90,89,86,84,81,76,70,58],"timestamp_mouse":[10,40,48,68,88,108,130,149,169,189,208,228,248,269,288,308,328,349,369,388,408,428,448,468,488,509,528,548,568,588,608,628,648,668,689,709,728,748,769,789,809,828,848,869,889,909,928,948,968,990,1009,1028,1049,1069,1089,1108,1128,1148,1169,1189,1208,1229,1248,1268,1289,1308,1329,1349,1368,1389,1408,1428,1449,1468,1489,1509],"xSR":741.5,"ySR":469.95,"xT1":424.9,"yT1":0,"xT2":1058.1,"yT2":0,"toosoon":0,"cond_shown":"Congruent","ratio_trial":200,"L_num":5,"L_den":10,"R_num":14,"R_den":20,"correct_side":2,"subjID":"juanavalentinauribeinfante36","gender":"No_gender","school":"No_school","age":""},{"start_time":1551887079600,"click_time":1551887080908,"finger_time":1551887080468,"fix_duration":1011.0337212890813,"trial":25,"RT":868,"MT":440,"sideResp":2,"stimulus":[],"xmouse":[810,810,810,810,810,810,810,810,810,810,810,810,810,810,810,810,810,810,810,810,810,810,810,810,810,810,810,810,810,810,810,810,810,810,810,810,810,810,810,810,810,810,819,842,877,944,962,973,988,988,992,994,997,999,1002,1004,1005,1007,1009,1013,1028,1034,1040,1047,1052,1061],"ymouse":[518,518,518,518,518,518,518,518,518,518,518,518,518,518,518,518,518,518,518,518,518,518,518,518,518,518,518,518,518,518,518,518,518,518,518,518,518,518,518,518,518,516,490,445,384,293,259,236,190,190,166,156,146,136,126,112,108,104,101,96,85,81,76,71,68,62],"timestamp_mouse":[10,38,48,68,89,108,128,148,168,188,208,229,248,268,288,308,328,348,368,388,408,428,448,468,488,508,528,548,569,588,608,628,648,669,688,708,728,748,768,790,808,829,848,868,889,909,928,948,975,989,1008,1028,1048,1070,1089,1108,1128,1148,1169,1188,1209,1229,1248,1268,1289,1308],"xSR":741.5,"ySR":469.95,"xT1":424.9,"yT1":0,"xT2":1058.1,"yT2":0,"toosoon":0,"cond_shown":"Incongruent","ratio_trial":200,"L_num":14,"L_den":30,"R_num":12,"R_den":18,"correct_side":2,"subjID":"juanavalentinauribeinfante36","gender":"No_gender","school":"No_school","age":""},{"start_time":1551887082571,"click_time":1551887084668,"finger_time":1551887083649,"fix_duration":561.4253251767962,"trial":26,"RT":1078,"MT":1019,"sideResp":1,"stimulus":[],"xmouse":[823,823,823,823,823,823,823,823,823,823,823,823,823,823,823,823,823,823,823,823,823,823,823,823,823,823,823,823,823,823,823,823,823,823,823,823,823,823,823,823,823,823,823,823,823,823,823,823,823,823,823,823,831,882,937,979,1016,1019,1019,1019,1019,1009,1006,1005,1005,1005,1004,1004,1004,1004,1006,1009,1010,1010,1010,1010,1010,1010,1010,1006,993,940,911,882,843,800,717,684,656,630,596,558,542,530,519,511,510,513,520,526,529,530,528,526,523],"ymouse":[504,504,504,504,504,504,504,504,504,504,504,504,504,504,504,504,504,504,504,504,504,504,504,504,504,504,504,504,504,504,504,504,504,504,504,504,504,504,504,504,504,504,504,504,504,504,504,504,504,504,504,504,486,424,369,329,274,263,256,248,236,205,201,200,200,200,198,188,179,169,154,144,142,142,142,142,142,142,142,144,151,175,187,197,208,220,234,239,241,241,238,220,209,197,186,174,157,149,139,127,118,103,99,96,93],"timestamp_mouse":[17,37,57,77,98,118,138,158,177,198,217,238,258,277,297,318,337,358,377,398,418,437,458,477,497,518,537,558,579,597,618,638,658,677,697,718,737,757,778,797,817,837,857,877,897,917,937,957,977,998,1017,1038,1057,1078,1097,1117,1137,1157,1177,1197,1218,1237,1257,1277,1298,1318,1337,1358,1377,1398,1418,1437,1457,1478,1497,1517,1538,1557,1577,1598,1617,1637,1657,1677,1698,1718,1737,1757,1777,1797,1817,1837,1857,1877,1899,1918,1937,1958,1977,1997,2017,2037,2057,2077,2097],"xSR":741.5,"ySR":469.95,"xT1":424.9,"yT1":0,"xT2":1058.1,"yT2"