[{"start_time":1551887604329,"click_time":1551887609479,"finger_time":1551887605498,"fix_duration":746.9892584920872,"trial":0,"RT":1169,"MT":3981,"sideResp":1,"stimulus":"img/750/equaldotanddens/L/10_Ratio_750_L_4_R_3.png","xmouse":[666,666,666,666,666,666,666,666,666,666,666,666,666,666,666,666,666,666,666,666,666,666,666,666,666,666,666,666,666,666,666,666,666,666,666,666,666,663,661,660,659,658,656,654,654,654,654,654,654,654,654,654,654,654,654,653,653,663,726,801,911,911,911,911,911,911,911,911,911,911,911,911,911,911,911,911,911,911,911,911,911,911,911,911,911,911,911,911,911,911,911,911,911,911,911,911,911,911,911,911,911,911,911,911,911,911,911,911,911,911,911,960,864,805,751,718,698,690,689,689,688,684,678,659,652,645,641,635,634,632,631,631,631,631,631,631,631,631,631,630,629,629,629,629,629,629,629,629,629,629,629,629,629,629,629,629,629,629,629,629,629,629,629,629,629,629,629,629,629,629,629,629,629,629,629,629,629,629,629,629,629,629,629,629,629,629,629,629,629,629,634,657,676,677,642,571,487,364,337,320,316,316,316,316,316,316,316,316,316,316,316,312,300,276,276,276,276,276,276,276,276,276,276,276,276,276,276,276,276,276,276,245,252,259,261,264,264,264,264,264,264,264,265,268,269,270,274,284,303,310,315,319,320,320,321,323,326,330],"ymouse":[428,428,428,428,428,428,428,428,428,428,428,428,428,428,428,428,428,428,428,428,428,428,428,428,428,428,428,428,428,428,428,428,427,427,427,427,427,428,429,431,431,432,432,434,434,434,434,434,434,434,434,434,434,434,434,434,434,435,453,473,500,500,500,500,500,500,500,500,500,500,500,500,500,500,500,500,500,500,500,500,500,500,500,500,500,500,500,500,500,500,500,500,500,500,500,500,500,500,500,500,500,500,500,500,500,500,500,500,500,500,500,524,492,475,461,450,441,437,436,436,429,422,414,404,405,409,412,414,414,414,414,414,414,414,414,414,414,414,414,415,415,416,416,416,416,416,416,416,416,416,416,416,416,416,416,416,416,416,416,416,416,416,416,416,416,416,416,416,416,416,416,416,416,416,416,416,416,416,416,416,416,416,416,416,416,416,416,416,416,416,415,392,354,315,304,284,272,265,263,257,256,256,256,256,256,256,256,256,256,256,256,192,107,16,16,16,16,16,16,16,16,16,16,16,16,16,16,16,16,16,16,0,13,21,24,26,26,26,26,26,26,26,26,26,25,25,25,25,31,35,37,40,40,40,40,41,41,42],"timestamp_mouse":[9,37,49,69,90,110,130,149,170,189,209,229,250,269,290,309,330,349,370,390,410,429,449,471,489,510,529,549,569,589,609,630,649,670,691,709,729,750,769,789,810,829,850,870,889,909,929,949,969,990,1009,1031,1050,1069,1090,1109,1129,1149,1169,1189,1210,1231,1250,1270,1289,1310,1329,1349,1370,1389,1410,1430,1451,1470,1490,1510,1529,1550,1570,1590,1610,1629,1649,1671,1689,1710,1729,1749,1770,1790,1810,1830,1849,1870,1890,1909,1930,1950,1969,1989,2010,2029,2049,2069,2089,2109,2130,2149,2169,2190,2210,2229,2250,2269,2290,2309,2329,2351,2370,2389,2409,2429,2449,2469,2490,2510,2530,2550,2569,2590,2609,2630,2650,2670,2689,2709,2730,2749,2770,2789,2810,2830,2849,2870,2889,2910,2929,2949,2970,2989,3010,3029,3049,3070,3089,3110,3129,3149,3169,3189,3209,3229,3249,3269,3289,3309,3330,3349,3369,3389,3409,3429,3449,3469,3490,3510,3529,3549,3570,3589,3611,3630,3649,3670,3689,3709,3730,3751,3771,3789,3809,3830,3849,3869,3889,3910,3929,3950,3969,3989,4009,4030,4050,4070,4089,4109,4130,4150,4169,4189,4209,4231,4250,4271,4289,4310,4330,4350,4370,4390,4411,4431,4451,4470,4490,4510,4529,4549,4570,4589,4609,4629,4649,4669,4689,4709,4729,4749,4770,4789,4809,4830,4849,4871,4889,4910,4930,4949,4969,4990,5010,5030,5050,5069,5089,5110,5129,5150],"xSR":583.2000122070312,"ySR":375.96001586914065,"xT1":329.9200073242187,"yT1":0,"xT2":836.4800170898437,"yT2":0,"toosoon":0,"cond_shown":"equaldotanddens","ratio_trial":750,"smaller_num":"3","larger_num":"4","correct_side":1,"subjID":"juancamiloregaladoniño27","gender":"0","age":"11","school":"6","test":{"fix_dur":[250,1500],"timestim":300,"targets_dim":[100,100],"targets_relative_coord":[0.3,0.7],"size_stim":[880,420],"start_dim":[100,100],"size_start":[300,300],"size_fix":60,"samplingrate":20,"img_types":["equaldotsize","equaldotanddens","randomdotsizeEA"],"ratios":[250,500,750,900],"rep_conds":9,"nTrials":120,"trials_to_rest":500,"Trials_order":[103,63,39,26,19,53,49,38,76,112,57,81,62,33,29,36,47,108,95,117,89,68,119,30,104,40,96,69,91,52,16,4,90,102,82,14,28,99,77,86,75,41,74,24,25,6,94,70,5,54,105,60,7,64,10,9,114,109,83,100,48,84,85,18,107,46,27,2,11,13,93,15,61,110,45,21,0,31,115,37,3,35,50,118,23,34,43,88,71,58,73,97,51,32,113,79,116,17,65,1,12,8,80,92,55,72,101,56,42,87,22,44,67,59,111,66,106,78,98,20],"cond_shown":["equaldotanddens","equaldotsize","equaldotsize","randomdotsizeEA","equaldotanddens","randomdotsizeEA","equaldotanddens","randomdotsizeEA","equaldotanddens","equaldotanddens","equaldotsize","equaldotsize","randomdotsizeEA","equaldotsize","randomdotsizeEA","equaldotsize","randomdotsizeEA","equaldotsize","randomdotsizeEA","equaldotsize","randomdotsizeEA","randomdotsizeEA","randomdotsizeEA","equaldotsize","randomdotsizeEA","equaldotanddens","equaldotsize","equaldotsize","equaldotanddens","equaldotanddens","equaldotanddens","equaldotanddens","equaldotsize","equaldotsize","equaldotanddens","randomdotsizeEA","equaldotanddens","equaldotsize","randomdotsizeEA","randomdotsizeEA","equaldotsize","randomdotsizeEA","randomdotsizeEA","equaldotsize","equaldotanddens","equaldotsize","equaldotanddens","equaldotanddens","randomdotsizeEA","equaldotsize","equaldotsize","equaldotsize","equaldotanddens","equaldotanddens","equaldotanddens","equaldotsize","equaldotsize","equaldotanddens","randomdotsizeEA","equaldotanddens","equaldotsize","equaldotsize","equaldotanddens","equaldotsize","randomdotsizeEA","equaldotanddens","equaldotsize","randomdotsizeEA","randomdotsizeEA","equaldotanddens","equaldotsize","equaldotsize","equaldotanddens","randomdotsizeEA","equaldotsize","equaldotsize","equaldotsize","equaldotanddens","equaldotanddens","equaldotanddens","equaldotsize","randomdotsizeEA","randomdotsizeEA","equaldotanddens","randomdotsizeEA","equaldotanddens","equaldotanddens","equaldotanddens","randomdotsizeEA","equaldotanddens","equaldotanddens","equaldotanddens","equaldotsize","randomdotsizeEA","randomdotsizeEA","equaldotanddens","randomdotsizeEA","randomdotsizeEA","randomdotsizeEA","equaldotanddens","equaldotsize","randomdotsizeEA","randomdotsizeEA","randomdotsizeEA","equaldotanddens","equaldotsize","randomdotsizeEA","randomdotsizeEA","equaldotsize","equaldotsize","equaldotanddens","randomdotsizeEA","equaldotanddens","randomdotsizeEA","equaldotsize","equaldotsize","equaldotanddens","equaldotsize","randomdotsizeEA","randomdotsizeEA"],"ratio_trial":[750,500,500,250,750,500,250,250,500,500,900,900,250,900,500,250,900,250,900,900,500,750,900,750,750,500,250,900,750,500,500,500,750,750,900,250,500,500,500,250,500,500,250,250,250,750,900,900,500,750,900,250,750,500,900,900,750,250,900,500,250,250,250,750,900,900,500,250,900,250,900,500,250,250,900,900,250,750,750,250,500,900,250,900,900,900,750,500,900,900,250,250,500,750,500,750,750,500,500,250,250,750,750,750,750,250,500,750,750,500,900,750,750,900,500,750,900,750,250,750],"smaller_num":["3","1","9","6","15","5","2","2","2","9","18","18","3","18","6","3","18","3","9","18","9","6","18","6","6","6","2","9","3","2","6","6","3","6","9","4","1","5","3","3","4","1","3","2","6","3","9","9","2","12","9","1","3","9","9","18","3","2","9","9","1","3","2","3","9","9","5","2","18","2","18","5","3","2","18","18","2","3","3","1","5","18","3","9","9","9","3","4","9","18","6","4","9","15","2","15","3","9","9","2","4","15","15","15","3","5","5","3","15","9","18","18","6","18","5","3","18","12","3","3"],"larger_num":["4","2","18","24","20","10","8","8","4","18","20","20","12","20","12","12","20","12","10","20","18","8","20","8","8","12","8","10","4","4","12","12","4","8","10","16","2","10","6","12","8","2","12","8","24","4","10","10","4","16","10","4","4","18","10","20","4","8","10","18","4","12","8","4","10","10","10","8","20","8","20","10","12","8","20","20","8","4","4","4","10","20","12","10","10","10","4","8","10","20","24","16","18","20","4","20","4","18","18","8","16","20","20","20","4","20","10","4","20","18","20","24","8","20","10","4","20","16","12","4"],"correct_side":[1,2,1,2,1,2,1,1,1,1,2,1,2,1,1,1,1,1,1,1,2,2,1,1,1,1,1,2,1,1,1,1,1,1,2,1,2,1,2,1,1,2,1,1,1,2,2,1,1,2,1,2,2,2,1,1,1,1,1,2,2,1,1,1,2,1,1,1,1,1,2,1,1,1,1,2,2,1,2,2,1,1,1,1,1,1,2,1,2,1,1,1,2,2,1,2,1,2,1,1,2,2,2,2,1,2,2,1,2,2,2,1,2,1,1,1,1,2,2,2],"img_shown":["img/750/equaldotanddens/L/10_Ratio_750_L_4_R_3.png","img/500/equaldotsize/R/15_Ratio_500_L_1_R_2.png","img/500/equaldotsize/L/4_Ratio_500_L_18_R_9.png","img/250/randomdotsizeEA/R/6_Ratio_250_L_6_R_24.png","img/750/equaldotanddens/L/1_Ratio_750_L_20_R_15.png","img/500/randomdotsizeEA/R/14_Ratio_500_L_5_R_10.png","img/250/equaldotanddens/L/3_Ratio_250_L_8_R_2.png","img/250/randomdotsizeEA/L/1_Ratio_250_L_8_R_2.png","img/500/equaldotanddens/L/5_Ratio_500_L_4_R_2.png","img/500/equaldotanddens/L/4_Ratio_500_L_18_R_9.png","img/900/equaldotsize/R/14_Ratio_900_L_18_R_20.png","img/900/equaldotsize/L/2_Ratio_900_L_20_R_18.png","img/250/randomdotsizeEA/R/4_Ratio_250_L_3_R_12.png","img/900/equaldotsize/L/4_Ratio_900_L_20_R_18.png","img/500/randomdotsizeEA/L/13_Ratio_500_L_12_R_6.png","img/250/equaldotsize/L/14_Ratio_250_L_12_R_3.png","img/900/randomdotsizeEA/L/2_Ratio_900_L_20_R_18.png","img/250/equaldotsize/L/15_Ratio_250_L_12_R_3.png","img/900/randomdotsizeEA/L/1_Ratio_900_L_10_R_9.png","img/900/equaldotsize/L/10_Ratio_900_L_20_R_18.png","img/500/randomdotsizeEA/R/1_Ratio_500_L_9_R_18.png","img/750/randomdotsizeEA/R/2_Ratio_750_L_6_R_8.png","img/900/randomdotsizeEA/L/4_Ratio_900_L_20_R_18.png","img/750/equaldotsize/L/14_Ratio_750_L_8_R_6.png","img/750/randomdotsizeEA/L/13_Ratio_750_L_8_R_6.png","img/500/equaldotanddens/L/11_Ratio_500_L_12_R_6.png","img/250/equaldotsize/L/7_Ratio_250_L_8_R_2.png","img/900/equaldotsize/R/15_Ratio_900_L_9_R_10.png","img/750/equaldotanddens/L/8_Ratio_750_L_4_R_3.png","img/500/equaldotanddens/L/10_Ratio_500_L_4_R_2.png","img/500/equaldotanddens/L/11_Ratio_500_L_12_R_6.png","img/500/equaldotanddens/L/11_Ratio_500_L_12_R_6.png","img/750/equaldotsize/L/8_Ratio_750_L_4_R_3.png","img/750/equaldotsize/L/13_Ratio_750_L_8_R_6.png","img/900/equaldotanddens/R/3_Ratio_900_L_9_R_10.png","img/250/randomdotsizeEA/L/2_Ratio_250_L_16_R_4.png","img/500/equaldotanddens/R/12_Ratio_500_L_1_R_2.png","img/500/equaldotsize/L/7_Ratio_500_L_10_R_5.png","img/500/randomdotsizeEA/R/2_Ratio_500_L_3_R_6.png","img/250/randomdotsizeEA/L/14_Ratio_250_L_12_R_3.png","img/500/equaldotsize/L/8_Ratio_500_L_8_R_4.png","img/500/randomdotsizeEA/R/15_Ratio_500_L_1_R_2.png","img/250/randomdotsizeEA/L/14_Ratio_250_L_12_R_3.png","img/250/equaldotsize/L/7_Ratio_250_L_8_R_2.png","img/250/equaldotanddens/L/5_Ratio_250_L_24_R_6.png","img/750/equaldotsize/R/12_Ratio_750_L_3_R_4.png","img/900/equaldotanddens/R/6_Ratio_900_L_9_R_10.png","img/900/equaldotanddens/L/1_Ratio_900_L_10_R_9.png","img/500/randomdotsizeEA/L/5_Ratio_500_L_4_R_2.png","img/750/equaldotsize/R/11_Ratio_750_L_12_R_16.png","img/900/equaldotsize/L/1_Ratio_900_L_10_R_9.png","img/250/equaldotsize/R/8_Ratio_250_L_1_R_4.png","img/750/equaldotanddens/R/7_Ratio_750_L_3_R_4.png","img/500/equaldotanddens/R/6_Ratio_500_L_9_R_18.png","img/900/equaldotanddens/L/1_Ratio_900_L_10_R_9.png","img/900/equaldotsize/L/10_Ratio_900_L_20_R_18.png","img/750/equaldotsize/L/8_Ratio_750_L_4_R_3.png","img/250/equaldotanddens/L/1_Ratio_250_L_8_R_2.png","img/900/randomdotsizeEA/L/1_Ratio_900_L_10_R_9.png","img/500/equaldotanddens/R/1_Ratio_500_L_9_R_18.png","img/250/equaldotsize/R/8_Ratio_250_L_1_R_4.png","img/250/equaldotsize/L/14_Ratio_250_L_12_R_3.png","img/250/equaldotanddens/L/1_Ratio_250_L_8_R_2.png","img/750/equaldotsize/L/10_Ratio_750_L_4_R_3.png","img/900/randomdotsizeEA/R/6_Ratio_900_L_9_R_10.png","img/900/equaldotanddens/L/1_Ratio_900_L_10_R_9.png","img/500/equaldotsize/L/7_Ratio_500_L_10_R_5.png","img/250/randomdotsizeEA/L/3_Ratio_250_L_8_R_2.png","img/900/randomdotsizeEA/L/4_Ratio_900_L_20_R_18.png","img/250/equaldotanddens/L/1_Ratio_250_L_8_R_2.png","img/900/equaldotsize/R/11_Ratio_900_L_18_R_20.png","img/500/equaldotsize/L/7_Ratio_500_L_10_R_5.png","img/250/equaldotanddens/L/14_Ratio_250_L_12_R_3.png","img/250/randomdotsizeEA/L/3_Ratio_250_L_8_R_2.png","img/900/equaldotsize/L/8_Ratio_900_L_20_R_18.png","img/900/equaldotsize/R/9_Ratio_900_L_18_R_20.png","img/250/equaldotsize/R/13_Ratio_250_L_2_R_8.png","img/750/equaldotanddens/L/9_Ratio_750_L_4_R_3.png","img/750/equaldotanddens/R/12_Ratio_750_L_3_R_4.png","img/250/equaldotanddens/R/8_Ratio_250_L_1_R_4.png","img/500/equaldotsize/L/7_Ratio_500_L_10_R_5.png","img/900/randomdotsizeEA/L/10_Ratio_900_L_20_R_18.png","img/250/randomdotsizeEA/L/15_Ratio_250_L_12_R_3.png","img/900/equaldotanddens/L/1_Ratio_900_L_10_R_9.png","img/900/randomdotsizeEA/L/1_Ratio_900_L_10_R_9.png","img/900/equaldotanddens/L/1_Ratio_900_L_10_R_9.png","img/750/equaldotanddens/R/7_Ratio_750_L_3_R_4.png","img/500/equaldotanddens/L/8_Ratio_500_L_8_R_4.png","img/900/randomdotsizeEA/R/7_Ratio_900_L_9_R_10.png","img/900/equaldotanddens/L/2_Ratio_900_L_20_R_18.png","img/250/equaldotanddens/L/5_Ratio_250_L_24_R_6.png","img/250/equaldotanddens/L/2_Ratio_250_L_16_R_4.png","img/500/equaldotsize/R/1_Ratio_500_L_9_R_18.png","img/750/randomdotsizeEA/R/4_Ratio_750_L_15_R_20.png","img/500/randomdotsizeEA/L/10_Ratio_500_L_4_R_2.png","img/750/equaldotanddens/R/3_Ratio_750_L_15_R_20.png","img/750/randomdotsizeEA/L/9_Ratio_750_L_4_R_3.png","img/500/randomdotsizeEA/R/6_Ratio_500_L_9_R_18.png","img/500/randomdotsizeEA/L/4_Ratio_500_L_18_R_9.png","img/250/equaldotanddens/L/7_Ratio_250_L_8_R_2.png","img/250/equaldotsize/R/10_Ratio_250_L_4_R_16.png","img/750/randomdotsizeEA/R/4_Ratio_750_L_15_R_20.png","img/750/randomdotsizeEA/R/4_Ratio_750_L_15_R_20.png","img/750/randomdotsizeEA/R/5_Ratio_750_L_15_R_20.png","img/750/equaldotanddens/L/9_Ratio_750_L_4_R_3.png","img/250/equaldotsize/R/12_Ratio_250_L_5_R_20.png","img/500/randomdotsizeEA/R/14_Ratio_500_L_5_R_10.png","img/750/randomdotsizeEA/L/9_Ratio_750_L_4_R_3.png","img/750/equaldotsize/R/3_Ratio_750_L_15_R_20.png","img/500/equaldotsize/R/6_Ratio_500_L_9_R_18.png","img/900/equaldotanddens/R/14_Ratio_900_L_18_R_20.png","img/750/randomdotsizeEA/L/6_Ratio_750_L_24_R_18.png","img/750/equaldotanddens/R/2_Ratio_750_L_6_R_8.png","img/900/randomdotsizeEA/L/8_Ratio_900_L_20_R_18.png","img/500/equaldotsize/L/7_Ratio_500_L_10_R_5.png","img/750/equaldotsize/L/8_Ratio_750_L_4_R_3.png","img/900/equaldotanddens/L/8_Ratio_900_L_20_R_18.png","img/750/equaldotsize/R/11_Ratio_750_L_12_R_16.png","img/250/randomdotsizeEA/R/11_Ratio_250_L_3_R_12.png","img/750/randomdotsizeEA/R/12_Ratio_750_L_3_R_4.png"],"Rat0":[["12_Ratio_0_L_9_R_0.png","13_Ratio_0_L_6_R_0.png","5_Ratio_0_L_2_R_0.png","6_Ratio_0_L_4_R_0.png","8_Ratio_0_L_6_R_0.png"],["1_Ratio_0_L_0_R_17.png","10_Ratio_0_L_0_R_22.png","11_Ratio_0_L_0_R_1.png","14_Ratio_0_L_0_R_24.png","15_Ratio_0_L_0_R_4.png","2_Ratio_0_L_0_R_5.png","3_Ratio_0_L_0_R_17.png","4_Ratio_0_L_0_R_7.png","7_Ratio_0_L_0_R_19.png","9_Ratio_0_L_0_R_15.png"]],"Rat250":[["1_Ratio_250_L_8_R_2.png","14_Ratio_250_L_12_R_3.png","15_Ratio_250_L_12_R_3.png","2_Ratio_250_L_16_R_4.png","3_Ratio_250_L_8_R_2.png","5_Ratio_250_L_24_R_6.png","7_Ratio_250_L_8_R_2.png"],["10_Ratio_250_L_4_R_16.png","11_Ratio_250_L_3_R_12.png","12_Ratio_250_L_5_R_20.png","13_Ratio_250_L_2_R_8.png","4_Ratio_250_L_3_R_12.png","6_Ratio_250_L_6_R_24.png","8_Ratio_250_L_1_R_4.png","9_Ratio_250_L_3_R_12.png"]],"Rat500":[["10_Ratio_500_L_4_R_2.png","11_Ratio_500_L_12_R_6.png","13_Ratio_500_L_12_R_6.png","4_Ratio_500_L_18_R_9.png","5_Ratio_500_L_4_R_2.png","7_Ratio_500_L_10_R_5.png","8_Ratio_500_L_8_R_4.png"],["1_Ratio_500_L_9_R_18.png","12_Ratio_500_L_1_R_2.png","14_Ratio_500_L_5_R_10.png","15_Ratio_500_L_1_R_2.png","2_Ratio_500_L_3_R_6.png","3_Ratio_500_L_10_R_20.png","6_Ratio_500_L_9_R_18.png","9_Ratio_500_L_2_R_4.png"]],"Rat750":[["1_Ratio_750_L_20_R_15.png","10_Ratio_750_L_4_R_3.png","13_Ratio_750_L_8_R_6.png","14_Ratio_750_L_8_R_6.png","6_Ratio_750_L_24_R_18.png","8_Ratio_750_L_4_R_3.png","9_Ratio_750_L_4_R_3.png"],["11_Ratio_750_L_12_R_16.png","12_Ratio_750_L_3_R_4.png","15_Ratio_750_L_9_R_12.png","2_Ratio_750_L_6_R_8.png","3_Ratio_750_L_15_R_20.png","4_Ratio_750_L_15_R_20.png","5_Ratio_750_L_15_R_20.png","7_Ratio_750_L_3_R_4.png"]],"Rat900":[["1_Ratio_900_L_10_R_9.png","10_Ratio_900_L_20_R_18.png","2_Ratio_900_L_20_R_18.png","4_Ratio_900_L_20_R_18.png","8_Ratio_900_L_20_R_18.png"],["11_Ratio_900_L_18_R_20.png","12_Ratio_900_L_18_R_20.png","13_Ratio_900_L_18_R_20.png","14_Ratio_900_L_18_R_20.png","15_Ratio_900_L_9_R_10.png","3_Ratio_900_L_9_R_10.png","5_Ratio_900_L_9_R_10.png","6_Ratio_900_L_9_R_10.png","7_Ratio_900_L_9_R_10.png","9_Ratio_900_L_18_R_20.png"]],"Rat1000":[["10_Ratio_1000_L_16_R_16.png","11_Ratio_1000_L_6_R_6.png","12_Ratio_1000_L_14_R_14.png","13_Ratio_1000_L_20_R_20.png","15_Ratio_1000_L_15_R_15.png","2_Ratio_1000_L_17_R_17.png","4_Ratio_1000_L_9_R_9.png","5_Ratio_1000_L_6_R_6.png","6_Ratio_1000_L_19_R_19.png","8_Ratio_1000_L_14_R_14.png","9_Ratio_1000_L_25_R_25.png"],["1_Ratio_1000_L_1_R_1.png","14_Ratio_1000_L_17_R_17.png","3_Ratio_1000_L_17_R_17.png","7_Ratio_1000_L_6_R_6.png"]]}},{"start_time":1551887611802,"click_time":1551887612998,"finger_time":1551887612618,"fix_duration":902.7217382642465,"trial":1,"RT":816,"MT":380,"sideResp":2,"stimulus":"img/500/equaldotsize/R/15_Ratio_500_L_1_R_2.png","xmouse":[613,613,613,613,613,613,613,613,613,613,613,613,613,613,613,613,613,613,613,613,613,613,613,613,613,613,613,613,613,613,613,613,613,614,616,620,623,629,642,675,698,728,756,784,812,820,824,829,835,845,852,858,863,868,870,870,870,870,873,876],"ymouse":[452,452,452,452,452,452,452,452,452,452,452,452,452,452,452,452,452,452,452,452,452,452,452,452,452,452,452,452,452,452,452,452,452,451,448,444,440,433,420,391,373,350,325,296,252,235,224,212,201,184,174,167,156,143,139,135,129,124,100,84],"timestamp_mouse":[16,36,57,76,96,117,138,156,176,198,218,236,258,276,296,316,337,357,377,396,416,437,456,477,496,516,536,558,577,596,616,637,658,676,696,716,737,756,776,796,816,838,857,876,896,916,937,956,977,996,1016,1037,1057,1077,1096,1116,1136,1156,1179,1196],"xSR":583.2000122070312,"ySR":375.96001586914065,"xT1":329.9200073242187,"yT1":0,"xT2":836.4800170898437,"yT2":0,"toosoon":0,"cond_shown":"equaldotsize","ratio_trial":500,"smaller_num":"1","larger_num":"2","correct_side":2,"subjID":"juancamiloregaladoniño27","gender":"0","age":"11","school":"6"},{"start_time":1551887616323,"click_time":1551887617979,"finger_time":1551887617519,"fix_duration":563.2622579939845,"trial":2,"RT":1196,"MT":460,"sideResp":1,"stimulus":"img/500/equaldotsize/L/4_Ratio_500_L_18_R_9.png","xmouse":[652,652,652,652,652,652,652,652,652,652,652,652,652,652,652,652,652,652,652,652,652,652,652,652,652,652,652,652,652,652,652,652,652,652,652,652,652,652,652,652,652,652,652,652,652,652,652,652,652,652,652,652,652,650,645,639,632,623,607,600,594,588,581,570,565,560,555,550,546,543,542,540,538,532,522,506,488,460,445,433,419,391,369],"ymouse":[408,408,408,408,408,408,408,408,408,408,408,408,408,408,408,408,408,408,408,408,408,408,408,408,408,408,408,408,408,408,408,408,408,408,408,408,408,408,408,408,408,408,408,408,408,408,408,408,408,408,408,408,408,406,401,398,395,389,378,372,366,360,343,317,305,291,277,263,232,218,208,199,195,189,185,177,171,156,146,139,128,111,97],"timestamp_mouse":[16,36,55,75,96,115,136,156,175,196,217,235,256,277,295,316,337,355,377,396,416,436,456,476,496,515,536,557,576,595,616,636,656,677,695,717,737,756,777,796,816,837,856,875,895,917,936,955,975,996,1016,1037,1057,1077,1095,1117,1136,1156,1175,1196,1216,1235,1256,1277,1295,1317,1335,1355,1376,1396,1416,1437,1456,1476,1495,1516,1535,1556,1575,1595,1617,1636,1656],"xSR":583.2000122070312,"ySR":375.96001586914065,"xT1":329.9200073242187,"yT1":0,"xT2":836.4800170898437,"yT2":0,"toosoon":0,"cond_shown":"equaldotsize","ratio_trial":500,"smaller_num":"9","larger_num":"18","correct_side":1,"subjID":"juancamiloregaladoniño27","gender":"0","age":"11","school":"6"},{"start_time":1551887619371,"click_time":1551887621380,"finger_time":1551887620480,"fix_duration":250,"trial":3,"RT":1109,"MT":900,"sideResp":2,"stimulus":"img/250/randomdotsizeEA/R/6_Ratio_250_L_6_R_24.png","xmouse":[644,644,644,644,644,644,644,644,644,644,644,644,644,644,644,644,644,644,644,644,644,644,644,646,647,648,648,648,648,648,648,648,648,648,648,648,648,648,648,648,648,648,648,648,648,648,646,645,644,644,642,634,626,616,605,588,576,568,562,556,548,536,532,528,524,521,516,512,509,508,508,512,519,530,540,552,587,602,616,632,661,673,688,705,724,764,784,812,835,854,872,877,880,884,888,896,908,912,912,912,913],"ymouse":[420,420,420,420,420,420,420,420,420,420,420,420,420,420,420,420,420,420,420,420,420,420,420,419,418,417,416,416,416,416,416,416,416,416,416,416,416,416,416,416,416,416,416,415,414,412,411,411,411,411,411,405,400,391,382,360,346,336,328,321,311,292,281,270,260,254,243,236,231,230,228,224,223,217,214,209,202,200,197,196,193,193,193,193,196,202,204,207,207,207,207,204,202,199,192,182,155,143,128,103,88],"timestamp_mouse":[9,37,48,67,87,109,127,148,169,189,208,228,247,268,287,308,329,348,368,387,407,428,447,467,488,507,528,548,569,588,609,627,648,667,688,709,729,748,769,787,808,828,848,868,888,908,927,947,967,987,1007,1028,1049,1067,1088,1109,1127,1148,1168,1188,1208,1228,1247,1269,1288,1309,1328,1349,1368,1389,1408,1428,1447,1468,1488,1509,1528,1547,1568,1588,1610,1627,1647,1668,1688,1708,1727,1748,1768,1788,1808,1828,1847,1868,1888,1909,1927,1947,1967,1988,2009],"xSR":583.2000122070312,"ySR":375.96001586914065,"xT1":329.9200073242187,"yT1":0,"xT2":836.4800170898437,"yT2":0,"toosoon":0,"cond_shown":"randomdotsizeEA","ratio_trial":250,"smaller_num":"6","larger_num":"24","correct_side":2,"subjID":"juancamiloregaladoniño27","gender":"0","age":"11","school":"6"},{"start_time":1551887622670,"click_time":1551887624779,"finger_time":1551887623880,"fix_duration":250,"trial":4,"RT":1210,"MT":899,"sideResp":2,"stimulus":"img/750/equaldotanddens/L/1_Ratio_750_L_20_R_15.png","xmouse":[600,600,600,600,602,602,602,602,602,602,602,602,602,602,602,602,602,602,602,602,602,602,602,602,602,602,602,602,602,602,602,602,602,602,602,602,602,602,602,602,602,602,602,602,602,602,602,602,603,604,604,604,604,604,605,607,608,608,608,606,593,583,569,557,548,544,544,544,544,544,544,545,550,557,570,580,602,616,628,641,653,681,696,712,724,745,771,784,798,812,827,830,832,832,833,833,833,834,834,834,836,836,837,840,843,848],"ymouse":[416,415,415,414,413,413,412,412,412,412,412,412,412,412,412,412,412,412,412,412,412,412,412,412,412,412,412,412,412,412,412,412,412,412,412,412,412,412,412,412,412,412,412,412,412,412,412,412,412,412,412,412,412,412,412,411,410,408,404,395,364,343,318,297,283,272,270,270,269,269,268,265,262,257,251,245,234,228,225,221,218,208,200,192,185,172,152,144,136,128,118,115,113,112,112,112,112,111,111,111,109,108,108,105,103,99],"timestamp_mouse":[10,41,49,69,90,108,129,149,168,189,208,230,248,269,289,309,329,350,369,390,409,429,450,470,490,509,530,548,569,590,608,628,649,669,689,709,730,749,769,789,808,830,850,869,888,909,930,948,970,990,1009,1028,1049,1068,1090,1109,1129,1148,1169,1189,1210,1229,1249,1269,1288,1310,1329,1348,1370,1388,1410,1429,1448,1468,1489,1509,1529,1548,1569,1588,1609,1628,1649,1669,1688,1708,1729,1748,1770,1788,1809,1828,1849,1869,1888,1909,1929,1949,1969,1988,2009,2029,2049,2069,2088,2109],"xSR":583.2000122070312,"ySR":375.96001586914065,"xT1":329.9200073242187,"yT1":0,"xT2":836.4800170898437,"yT2":0,"toosoon":0,"cond_shown":"equaldotanddens","ratio_trial":750,"smaller_num":"15","larger_num":"20","correct_side":1,"subjID":"juancamiloregaladoniño27","gender":"0","age":"11","school":"6"},{"start_time":1551887628606,"click_time":1551887630580,"finger_time":1551887629658,"fix_duration":885.1702934412685,"trial":5,"RT":1052,"MT":922,"sideResp":2,"stimulus":"img/500/randomdotsizeEA/R/14_Ratio_500_L_5_R_10.png","xmouse":[628,628,628,628,628,628,628,628,628,628,628,628,628,628,628,628,628,628,628,628,628,628,628,628,628,628,628,628,628,628,628,628,628,628,628,628,628,628,628,628,628,628,628,627,626,625,625,625,624,616,604,591,580,576,576,576,575,575,580,587,593,602,616,647,664,680,693,718,748,825,875,920,961,1012,1027,1036,1040,1043,1046,1047,1047,1044,1040,1029,1021,1020,1012,1000,981,972,966,960,958,956,950,946,944,940,934],"ymouse":[412,412,412,412,412,412,412,412,412,412,412,412,412,412,412,412,412,412,412,412,412,412,412,412,412,412,412,412,412,412,412,412,412,412,412,412,412,412,412,412,412,412,412,413,413,414,414,414,414,404,389,380,376,375,375,375,375,373,368,364,362,360,357,348,340,332,325,308,292,245,214,187,157,116,104,96,92,87,80,74,68,56,48,31,28,28,28,28,32,34,36,37,37,38,39,40,40,40,41],"timestamp_mouse":[14,32,54,73,93,114,132,154,172,194,214,233,253,272,294,313,332,352,374,393,412,433,453,474,493,513,532,553,574,592,612,634,652,674,692,713,732,754,773,794,813,834,853,874,892,912,933,954,972,993,1012,1032,1052,1074,1093,1113,1133,1152,1172,1193,1212,1233,1253,1274,1293,1312,1333,1353,1373,1392,1412,1434,1453,1474,1493,1513,1533,1554,1574,1592,1612,1632,1653,1675,1692,1713,1733,1753,1774,1792,1812,1832,1853,1873,1892,1913,1933,1952,1973],"xSR":583.2000122070312,"ySR":375.96001586914065,"xT1":329.9200073242187,"yT1":0,"xT2":836.4800170898437,"yT2":0,"toosoon":0,"cond_shown":"randomdotsizeEA","ratio_trial":500,"smaller_num":"5","larger_num":"10","correct_side":2,"subjID":"juancamiloregaladoniño27","gender":"0","age":"11","school":"6"},{"start_time":1551887632127,"click_time":1551887633439,"finger_time":1551887632958,"fix_duration":426.17874345582254,"trial":6,"RT":831,"MT":481,"sideResp":1,"stimulus":"img/250/equaldotanddens/L/3_Ratio_250_L_8_R_2.png","xmouse":[620,620,620,620,620,620,620,620,620,620,620,620,620,620,620,620,620,620,620,620,620,620,620,620,620,620,620,620,620,620,620,620,620,620,621,622,624,632,641,653,672,694,749,762,772,779,791,820,834,846,854,860,864,864,864,863,857,846,804,763,717,632,569,478,446,423],"ymouse":[412,412,412,412,412,412,412,412,412,412,412,412,412,412,412,412,412,412,412,412,412,412,412,412,412,412,412,412,412,412,412,412,412,412,412,411,409,404,399,393,385,375,346,339,332,325,314,288,276,265,256,248,238,236,234,232,230,228,219,206,193,168,140,98,77,61],"timestamp_mouse":[12,32,53,73,92,113,132,152,171,192,213,233,252,271,292,311,331,353,371,393,412,431,453,471,491,511,532,551,571,593,611,632,651,672,691,711,732,753,771,792,812,831,853,872,891,911,932,953,972,991,1012,1032,1053,1072,1091,1112,1132,1151,1171,1193,1213,1232,1252,1272,1292,1312],"xSR":583.2000122070312,"ySR":375.96001586914065,"xT1":329.9200073242187,"yT1":0,"xT2":836.4800170898437,"yT2":0,"toosoon":0,"cond_shown":"equaldotanddens","ratio_trial":250,"smaller_num":"2","larger_num":"8","correct_side":1,"subjID":"juancamiloregaladoniño27","gender":"0","age":"11","school":"6"},{"start_time":1551887639729,"click_time":1551887641739,"finger_time":1551887641518,"fix_duration":1309.9724994968253,"trial":7,"RT":1789,"MT":221,"sideResp":1,"stimulus":"img/250/randomdotsizeEA/L/1_Ratio_250_L_8_R_2.png","xmouse":[639,639,639,639,639,639,639,639,639,639,639,639,639,639,639,639,639,639,639,639,639,639,639,639,639,639,639,639,639,639,639,639,639,639,639,639,639,639,639,639,639,639,639,639,639,639,639,639,639,639,639,639,639,639,639,639,639,639,639,639,639,639,639,639,639,639,639,639,639,639,639,639,639,639,639,639,639,639,639,639,639,639,639,639,639,639,639,628,616,601,583,562,540,533,526,518,500,484,452,438,427],"ymouse":[422,422,422,422,422,422,422,422,422,422,422,422,422,422,422,422,422,422,422,422,422,422,422,422,422,422,422,422,422,422,422,422,422,422,422,422,422,422,422,422,422,422,422,422,422,422,422,422,422,422,422,422,422,422,422,422,422,422,422,422,422,422,422,422,422,422,422,422,422,422,422,422,422,422,422,422,422,422,422,422,422,422,422,422,422,422,422,408,385,358,323,285,235,217,200,178,148,127,101,92,83],"timestamp_mouse":[11,30,50,71,90,110,131,151,170,190,210,230,251,270,291,310,330,351,370,390,410,431,450,470,489,511,531,550,571,590,611,630,649,671,691,709,730,751,771,790,810,831,851,870,890,911,930,951,971,991,1009,1030,1050,1069,1090,1110,1131,1149,1169,1190,1211,1229,1250,1270,1290,1311,1331,1350,1371,1391,1411,1429,1449,1471,1491,1510,1531,1550,1570,1590,1611,1631,1650,1670,1691,1711,1729,1751,1769,1789,1810,1830,1851,1869,1889,1911,1930,1950,1970,1990,2010],"xSR":583.2000122070312,"ySR":375.96001586914065,"xT1":329.9200073242187,"yT1":0,"xT2":836.4800170898437,"yT2":0,"toosoon":0,"cond_shown":"randomdotsizeEA","ratio_trial":250,"smaller_num":"2","larger_num":"8","correct_side":1,"subjID":"juancamiloregaladoniño27","gender":"0","age":"11","school":"6"},{"start_time":1551887644047,"click_time":1551887645840,"finger_time":1551887645058,"fix_duration":1067.7267959530095,"trial":8,"RT":1011,"MT":782,"sideResp":1,"stimulus":"img/500/equaldotanddens/L/5_Ratio_500_L_4_R_2.png","xmouse":[631,631,631,631,631,631,631,631,631,631,631,631,631,631,631,631,631,631,631,631,631,631,631,631,631,631,631,631,631,631,631,631,631,631,631,631,631,631,631,631,631,631,631,631,631,631,631,626,616,608,598,576,569,566,564,562,558,546,535,524,514,506,506,508,508,508,520,536,539,541,541,541,541,541,541,541,541,541,541,541,541,541,541,541,541,541,541,541,541,367],"ymouse":[426,426,426,426,426,426,426,426,426,426,426,426,426,426,426,426,426,426,426,426,426,426,426,426,426,426,426,426,426,426,426,426,426,426,426,426,426,426,426,426,426,426,426,426,426,426,426,412,396,380,364,332,321,312,301,292,284,262,247,231,212,173,163,159,158,156,140,89,60,28,7,7,7,7,7,7,7,7,7,7,7,7,7,7,7,7,7,7,7,2],"timestamp_mouse":[15,32,53,72,92,113,132,152,171,193,212,232,252,272,292,312,333,351,373,393,412,432,452,472,491,512,532,552,571,592,611,633,652,672,691,713,731,751,773,791,812,833,852,872,892,912,931,953,972,992,1011,1033,1051,1072,1092,1112,1132,1153,1171,1191,1211,1232,1252,1272,1293,1311,1333,1352,1372,1392,1412,1432,1452,1471,1492,1513,1533,1551,1572,1592,1613,1633,1652,1673,1692,1713,1733,1753,1772,1793],"xSR":583.2000122070312,"ySR":375.96001586914065,"xT1":329.9200073242187,"yT1":0,"xT2":836.4800170898437,"yT2":0,"toosoon":0,"cond_shown":"equaldotanddens","ratio_trial":500,"smaller_num":"2","larger_num":"4","correct_side":1,"subjID":"juancamiloregaladoniño27","gender":"0","age":"11","school":"6"},{"start_time":1551887647590,"click_time":1551887649379,"finger_time":1551887648979,"fix_duration":250,"trial":9,"RT":1389,"MT":400,"sideResp":1,"stimulus":"img/500/equaldotanddens/L/4_Ratio_500_L_18_R_9.png","xmouse":[607,607,607,607,607,607,607,607,607,607,607,607,607,607,607,607,607,607,607,607,607,607,607,607,607,607,607,607,607,607,607,607,607,607,607,607,607,607,607,607,607,607,607,607,607,607,607,607,607,607,607,607,607,607,607,607,607,607,607,607,607,607,607,607,607,607,606,604,604,604,604,600,595,588,571,561,552,543,534,510,501,492,482,472,464,451,445,438,436,428],"ymouse":[410,410,410,410,410,410,410,410,410,410,410,410,410,410,410,410,410,410,410,410,410,410,410,410,410,410,410,410,410,410,410,410,410,410,410,410,410,411,411,411,411,411,411,411,411,411,411,411,411,411,411,411,411,411,411,411,411,411,411,411,411,411,411,411,412,412,412,409,399,369,306,280,262,244,219,204,192,178,166,137,128,117,108,97,90,72,64,56,48,32],"timestamp_mouse":[9,29,50,69,90,108,130,148,169,189,209,229,249,270,290,308,329,349,369,389,410,428,450,468,488,510,528,548,570,588,610,630,648,670,689,709,729,749,769,788,810,829,849,869,889,909,930,948,969,989,1010,1029,1050,1070,1088,1109,1128,1149,1169,1190,1210,1229,1249,1268,1290,1309,1329,1348,1369,1389,1409,1428,1448,1469,1490,1509,1529,1549,1568,1590,1609,1628,1649,1669,1690,1709,1728,1749,1769,1789],"xSR":583.2000122070312,"ySR":375.96001586914065,"xT1":329.9200073242187,"yT1":0,"xT2":836.4800170898437,"yT2":0,"toosoon":0,"cond_shown":"equaldotanddens","ratio_trial":500,"smaller_num":"9","larger_num":"18","correct_side":1,"subjID":"juancamiloregaladoniño27","gender":"0","age":"11","school":"6"},{"start_time":1551887651282,"click_time":1551887653140,"finger_time":1551887652119,"fix_duration":902.3343121782582,"trial":10,"RT":837,"MT":1021,"sideResp":1,"stimulus":"img/900/equaldotsize/R/14_Ratio_900_L_18_R_20.png","xmouse":[630,630,630,630,630,630,630,630,630,630,630,630,630,630,630,630,630,630,630,630,630,630,630,630,630,630,630,630,630,630,630,630,630,630,630,630,630,631,633,644,680,700,720,740,772,829,861,891,920,939,965,973,977,979,974,960,935,888,821,736,521,521,521,521,521,521,521,521,521,521,521,521,521,521,521,521,521,521,521,521,521,521,521,521,269,286,292,295,299,303,320,329,338],"ymouse":[420,420,420,420,420,420,420,420,420,420,420,420,420,420,420,420,420,420,420,420,420,420,420,420,420,420,420,420,420,420,420,420,420,420,420,420,420,420,420,416,406,400,397,392,380,354,338,320,304,292,274,268,264,261,250,240,228,208,181,139,27,27,27,27,27,27,27,27,27,27,27,27,27,27,27,27,27,27,27,27,27,27,27,27,6,13,16,17,18,19,26,29,32],"timestamp_mouse":[16,42,57,78,96,117,138,158,177,198,216,238,258,278,297,318,336,357,378,398,417,436,457,477,498,517,537,556,578,597,617,636,658,677,697,716,738,757,777,797,816,837,857,878,897,916,936,957,977,997,1017,1036,1057,1077,1098,1116,1136,1157,1177,1196,1216,1238,1257,1278,1297,1316,1337,1357,1376,1398,1418,1438,1457,1477,1498,1517,1537,1557,1576,1596,1617,1637,1658,1678,1698,1716,1736,1757,1777,1797,1817,1837,1858],"xSR":583.2000122070312,"ySR":375.96001586914065,"xT1":329.9200073242187,"yT1":0,"xT2":836.4800170898437,"yT2":0,"toosoon":0,"cond_shown":"equaldotsize","ratio_trial":900,"smaller_num":"18","larger_num":"20","correct_side":2,"subjID":"juancamiloregaladoniño27","gender":"0","age":"11","school":"6"},{"start_time":1551887654913,"click_time":1551887656318,"finger_time":1551887655878,"fix_duration":613.5538640272779,"trial":11,"RT":965,"MT":440,"sideResp":1,"stimulus":"img/900/equaldotsize/L/2_Ratio_900_L_20_R_18.png","xmouse":[599,599,599,599,599,599,599,599,599,599,599,599,599,599,599,599,599,599,599,599,599,599,599,599,599,599,599,599,599,600,601,602,604,607,615,620,628,637,644,651,652,654,655,655,655,651,644,632,617,580,559,530,504,458,458,458,458,458,458,458,458,458,458,458,458,458,458,458,458,329,331],"ymouse":[460,460,460,460,460,460,460,460,460,460,460,460,460,460,460,460,460,460,460,460,460,460,460,460,460,460,460,460,460,460,460,459,458,457,454,451,448,444,442,439,439,437,436,434,425,415,398,376,351,274,218,156,93,6,6,6,6,6,6,6,6,6,6,6,6,6,6,6,6,3,7],"timestamp_mouse":[7,35,46,67,87,106,127,146,166,187,206,226,245,267,287,306,326,346,367,387,406,427,447,466,486,506,527,547,565,586,606,626,646,666,685,706,726,746,765,785,805,825,846,866,886,906,926,946,965,986,1006,1026,1046,1066,1087,1107,1126,1146,1166,1187,1207,1226,1246,1267,1286,1306,1327,1346,1366,1385,1405],"xSR":583.2000122070312,"ySR":375.96001586914065,"xT1":329.9200073242187,"yT1":0,"xT2":836.4800170898437,"yT2":0,"toosoon":0,"cond_shown":"equaldotsize","ratio_trial":900,"smaller_num":"18","larger_num":"20","correct_side":1,"subjID":"juancamiloregaladoniño27","gender":"0","age":"11","school":"6"},{"start_time":1551887658195,"click_time":1551887659680,"finger_time":1551887659058,"fix_duration":353.02963273368624,"trial":12,"RT":863,"MT":622,"sideResp":2,"stimulus":"img/250/randomdotsizeEA/R/4_Ratio_250_L_3_R_12.png","xmouse":[616,616,616,616,616,616,616,616,616,616,616,616,616,616,616,616,616,616,616,616,616,616,616,616,616,616,616,616,616,616,616,616,616,616,617,617,619,619,620,626,646,660,677,699,769,808,839,872,896,922,947,954,962,968,974,979,983,987,988,988,982,974,968,961,956,946,944,943,942,942,942,942,941,939,926],"ymouse":[437,437,437,437,437,437,437,437,437,437,437,437,437,437,437,437,437,437,437,437,437,437,437,437,437,437,437,437,437,437,437,437,437,437,436,436,436,435,435,433,423,412,400,386,351,335,321,306,294,280,265,261,257,254,248,244,241,237,234,223,207,188,171,152,135,108,101,100,96,96,96,96,95,94,88],"timestamp_mouse":[3,31,44,64,83,104,123,144,164,183,205,225,244,264,283,303,323,344,365,385,404,424,444,464,485,505,524,545,564,584,604,623,645,663,685,703,724,743,763,784,805,824,845,863,885,903,923,944,964,984,1004,1023,1044,1063,1083,1104,1124,1144,1164,1185,1203,1223,1243,1264,1284,1304,1325,1343,1364,1384,1405,1423,1444,1464,1485],"xSR":583.2000122070312,"ySR":375.96001586914065,"xT1":329.9200073242187,"yT1":0,"xT2":836.4800170898437,"yT2":0,"toosoon":0,"cond_shown":"randomdotsizeEA","ratio_trial":250,"smaller_num":"3","larger_num":"12","correct_side":2,"subjID":"juancamiloregaladoniño27","gender":"0","age":"11","school":"6"},{"start_time":1551887661890,"click_time":1551887663058,"finger_time":1551887662659,"fix_duration":1149.1635857922056,"trial":13,"RT":769,"MT":399,"sideResp":1,"stimulus":"img/900/equaldotsize/L/4_Ratio_900_L_20_R_18.png","xmouse":[628,628,628,628,628,628,628,628,628,628,628,628,628,628,628,628,628,628,628,628,628,628,628,628,628,628,628,628,628,628,628,628,628,628,628,626,618,608,595,548,521,500,480,467,449,446,446,446,446,446,446,446,446,446,446,442,436,432,428],"ymouse":[411,411,411,411,411,411,411,411,411,411,411,411,411,411,411,411,411,411,411,411,411,411,411,411,411,411,411,411,411,411,411,411,411,411,411,411,400,385,360,283,236,196,159,134,99,94,93,93,93,93,93,93,93,93,93,88,82,79,77],"timestamp_mouse":[8,30,50,68,90,108,129,148,170,188,210,229,248,268,289,309,330,349,370,388,409,429,449,470,490,508,528,550,569,590,609,630,649,669,688,710,729,750,769,789,808,829,849,868,889,908,929,949,968,988,1008,1029,1049,1069,1090,1108,1128,1148,1168],"xSR":583.2000122070312,"ySR":375.96001586914065,"xT1":329.9200073242187,"yT1":0,"xT2":836.4800170898437,"yT2":0,"toosoon":0,"cond_shown":"equaldotsize","ratio_trial":900,"smaller_num":"18","larger_num":"20","correct_side":1,"subjID":"juancamiloregaladoniño27","gender":"0","age":"11","school":"6"},{"start_time":1551887664651,"click_time":1551887666039,"finger_time":1551887665719,"fix_duration":470.03167709810543,"trial":14,"RT":1068,"MT":320,"sideResp":2,"stimulus":"img/500/randomdotsizeEA/L/13_Ratio_500_L_12_R_6.png","xmouse":[616,616,616,616,616,616,616,616,616,616,616,616,616,616,616,616,616,616,616,616,616,616,616,616,616,616,616,616,616,616,616,616,616,616,616,616,616,616,616,616,616,616,616,616,616,616,616,616,616,616,616,617,644,674,699,724,767,801,814,823,831,846,852,860,864,871,880,896,914,930],"ymouse":[405,405,405,405,405,405,405,405,405,405,405,405,405,405,405,405,405,405,405,405,405,405,405,405,405,405,405,405,405,405,405,405,405,405,405,405,405,405,405,405,405,405,405,405,405,405,405,405,405,405,405,404,388,372,359,342,318,298,290,285,280,265,256,246,238,227,212,178,135,98],"timestamp_mouse":[8,31,47,68,88,107,128,148,168,189,208,229,248,268,288,307,329,347,369,389,407,429,448,468,487,509,529,548,567,588,609,627,647,668,689,709,729,747,769,788,808,829,848,869,888,907,928,947,968,989,1007,1028,1047,1068,1088,1108,1127,1147,1167,1187,1207,1228,1247,1269,1287,1308,1329,1348,1368,1387],"xSR":583.2000122070312,"ySR":375.96001586914065,"xT1":329.9200073242187,"yT1":0,"xT2":836.4800170898437,"yT2":0,"toosoon":0,"cond_shown":"randomdotsizeEA","ratio_trial":500,"smaller_num":"6","larger_num":"12","correct_side":1,"subjID":"juancamiloregaladoniño27","gender":"0","age":"11","school":"6"},{"start_time":1551887668190,"click_time":1551887669499,"finger_time":1551887669159,"fix_duration":250,"trial":15,"RT":969,"MT":340,"sideResp":1,"stimulus":"img/250/equaldotsize/L/14_Ratio_250_L_12_R_3.png","xmouse":[660,660,660,660,660,660,660,660,660,660,660,660,660,660,660,660,660,660,660,660,660,660,660,660,660,660,660,660,660,660,660,660,660,660,660,660,660,660,660,660,660,660,662,665,668,668,668,668,668,655,634,611,590,567,546,508,493,480,469,454,439,435,430,430,430,428],"ymouse":[447,447,447,447,447,447,447,447,447,447,447,447,447,447,447,447,447,447,447,447,447,447,447,447,447,447,447,447,447,447,447,447,447,447,447,447,447,447,447,447,447,447,444,441,420,408,397,380,364,314,265,207,156,117,86,51,40,32,25,16,8,5,3,3,3,3],"timestamp_mouse":[10,28,49,68,90,108,129,150,168,189,210,228,250,268,290,310,330,350,370,389,409,429,449,469,489,508,529,549,569,589,609,630,650,669,690,709,728,750,769,789,810,829,849,868,890,908,929,950,969,989,1008,1029,1049,1069,1090,1109,1129,1148,1169,1189,1209,1228,1249,1269,1289,1309],"xSR":583.2000122070312,"ySR":375.96001586914065,"xT1":329.9200073242187,"yT1":0,"xT2":836.4800170898437,"yT2":0,"toosoon":0,"cond_shown":"equaldotsize","ratio_trial":250,"smaller_num":"3","larger_num":"12","correct_side":1,"subjID":"juancamiloregaladoniño27","gender":"0","age":"11","school":"6"},{"start_time":1551887671959,"click_time":1551887672940,"finger_time":1551887672799,"fix_duration":1179.954457722682,"trial":16,"RT":840,"MT":141,"sideResp":1,"stimulus":"img/900/randomdotsizeEA/L/2_Ratio_900_L_20_R_18.png","xmouse":[616,616,616,616,616,616,616,616,616,616,616,616,616,616,616,616,616,616,616,616,616,616,616,616,616,616,616,616,616,616,616,616,616,616,616,616,616,615,612,611,606,597,579,568,551,531,508,464,439,416],"ymouse":[432,432,432,432,432,432,432,432,432,432,432,432,432,432,432,432,432,432,432,432,432,432,432,432,432,432,432,432,432,432,432,432,432,432,432,432,432,430,426,424,417,404,375,352,313,268,218,113,72,41],"timestamp_mouse":[1,20,40,60,79,99,121,139,160,180,200,220,240,261,279,300,321,340,359,381,401,420,441,461,481,501,520,540,561,579,599,620,640,661,680,700,721,740,761,780,800,820,840,860,879,900,920,939,961,980],"xSR":583.2000122070312,"ySR":375.96001586914065,"xT1":329.9200073242187,"yT1":0,"xT2":836.4800170898437,"yT2":0,"toosoon":0,"cond_shown":"randomdotsizeEA","ratio_trial":900,"smaller_num":"18","larger_num":"20","correct_side":1,"subjID":"juancamiloregaladoniño27","gender":"0","age":"11","school":"6"},{"start_time":1551887674828,"click_time":1551887676259,"finger_time":1551887675699,"fix_duration":1068.1914362965779,"trial":17,"RT":871,"MT":560,"sideResp":1,"stimulus":"img/250/equaldotsize/L/15_Ratio_250_L_12_R_3.png","xmouse":[666,666,666,666,666,666,666,666,666,666,666,666,666,666,666,666,666,666,666,666,666,666,666,666,666,666,666,666,666,666,666,666,666,666,666,666,666,664,645,636,624,614,604,584,576,566,562,553,538,526,513,502,493,469,457,436,430,416,408,406,405,404,404,404,404,404,404,404,404,404,400,396],"ymouse":[452,452,452,452,452,452,452,452,452,452,452,452,452,452,452,452,452,452,452,452,452,452,452,452,452,452,452,452,452,452,452,452,452,452,452,452,453,453,435,424,408,392,378,348,336,324,320,310,296,287,277,268,261,243,228,204,196,178,164,160,156,156,156,156,156,156,156,154,145,131,109,87],"timestamp_mouse":[11,31,51,71,91,111,131,152,170,192,211,231,251,271,291,312,330,350,372,390,412,431,450,472,491,511,532,550,571,590,610,631,651,672,692,710,731,750,772,791,812,831,850,870,891,911,930,952,971,991,1010,1031,1050,1070,1092,1111,1132,1151,1172,1190,1212,1230,1250,1270,1291,1311,1331,1351,1371,1391,1411,1431],"xSR":583.2000122070312,"ySR":375.96001586914065,"xT1":329.9200073242187,"yT1":0,"xT2":836.4800170898437,"yT2":0,"toosoon":0,"cond_shown":"equaldotsize","ratio_trial":250,"smaller_num":"3","larger_num":"12","correct_side":1,"subjID":"juancamiloregaladoniño27","gender":"0","age":"11","school":"6"},{"start_time":1551887678542,"click_time":1551887679618,"finger_time":1551887679419,"fix_duration":1201.0074917941906,"trial":18,"RT":877,"MT":199,"sideResp":1,"stimulus":"img/900/randomdotsizeEA/L/1_Ratio_900_L_10_R_9.png","xmouse":[627,627,627,627,627,627,627,627,627,627,627,627,627,627,627,627,627,627,627,627,627,627,627,628,628,628,628,632,639,643,644,646,646,646,647,647,651,657,660,663,664,667,675,684,692,696,698,692,681,659,628,501,442,398],"ymouse":[457,457,457,457,457,457,457,457,457,457,457,457,457,457,457,457,457,457,457,457,457,457,457,456,456,456,456,456,456,454,454,452,452,452,452,452,448,439,436,431,428,424,413,398,383,365,346,304,281,252,225,148,113,81],"timestamp_mouse":[17,38,56,76,98,117,138,158,177,197,218,238,258,277,296,316,337,357,377,398,416,438,458,476,497,517,538,557,577,596,617,638,657,677,698,717,737,756,777,797,816,837,858,877,896,917,936,957,978,997,1018,1038,1057,1076],"xSR":583.2000122070312,"ySR":375.96001586914065,"xT1":329.9200073242187,"yT1":0,"xT2":836.4800170898437,"yT2":0,"toosoon":0,"cond_shown":"randomdotsizeEA","ratio_trial":900,"smaller_num":"9","larger_num":"10","correct_side":1,"subjID":"juancamiloregaladoniño27","gender":"0","age":"11","school":"6"},{"start_time":1551887681055,"click_time":1551887682379,"finger_time":1551887681819,"fix_duration":453.99783792793824,"trial":19,"RT":764,"MT":560,"sideResp":2,"stimulus":"img/900/equaldotsize/L/10_Ratio_900_L_20_R_18.png","xmouse":[615,615,615,615,615,615,615,615,615,615,615,615,615,615,615,615,615,615,615,615,615,615,615,615,615,615,615,615,615,615,615,615,615,618,624,637,648,672,688,704,724,776,804,828,844,856,868,881,893,906,920,932,947,952,956,957,964,965,967,967,967,967,965,960,948,944,930],"ymouse":[431,431,431,431,431,431,431,431,431,431,431,431,431,431,432,432,432,432,432,432,432,432,432,432,432,432,432,432,432,432,432,432,432,430,426,415,407,387,377,368,360,337,325,317,312,308,300,291,281,271,259,248,228,220,208,204,177,165,156,144,135,127,121,111,94,88,70],"timestamp_mouse":[4,35,44,65,83,103,124,143,164,185,204,224,243,264,284,305,324,344,365,385,405,425,444,464,484,505,524,543,565,583,603,625,643,664,684,705,724,745,764,784,803,824,843,865,884,904,925,944,963,985,1004,1023,1043,1064,1084,1103,1124,1143,1164,1185,1204,1224,1243,1264,1284,1305,1324],"xSR":583.2000122070312,"ySR":375.96001586914065,"xT1":329.9200073242187,"yT1":0,"xT2":836.4800170898437,"yT2":0,"toosoon":0,"cond_shown":"equaldotsize","ratio_trial":900,"smaller_num":"18","larger_num":"20","correct_side":1,"subjID":"juancamiloregaladoniño27","gender":"0","age":"11","school":"6"},{"start_time":1551887683675,"click_time":1551887684880,"finger_time":1551887684359,"fix_duration":496.67890847618514,"trial":20,"RT":684,"MT":521,"sideResp":1,"stimulus":"img/500/randomdotsizeEA/R/1_Ratio_500_L_9_R_18.png","xmouse":[608,608,608,608,608,608,608,608,608,608,608,608,608,608,608,608,608,608,608,608,608,608,608,608,608,608,608,608,608,608,608,606,604,592,573,527,456,431,410,396,380,377,376,376,376,376,376,376,376,377,386,389,391,392,392,392,394,394,396,396,396],"ymouse":[463,463,463,463,463,463,463,463,463,463,463,463,463,463,463,463,463,463,463,463,463,463,463,463,463,463,463,464,464,464,464,464,462,454,440,400,333,304,274,251,217,208,204,204,204,204,204,203,200,196,173,163,154,148,146,145,140,134,126,117,99],"timestamp_mouse":[3,35,44,63,85,104,125,145,164,184,204,224,244,265,284,303,324,344,363,384,404,424,445,464,485,505,524,544,564,585,604,624,643,664,684,703,724,743,765,783,805,823,844,864,884,904,924,943,964,984,1005,1023,1043,1064,1083,1103,1124,1144,1164,1185,1205],"xSR":583.2000122070312,"ySR":375.96001586914065,"xT1":329.9200073242187,"yT1":0,"xT2":836.4800170898437,"yT2":0,"toosoon":0,"cond_shown":"randomdotsizeEA","ratio_trial":500,"smaller_num":"9","larger_num":"18","correct_side":2,"subjID":"juancamiloregaladoniño27","gender":"0","age":"11","school":"6"},{"start_time":1551887688673,"click_time":1551887690698,"finger_time":1551887689600,"fix_duration":1373.6083352646392,"trial":21,"RT":927,"MT":1098,"sideResp":2,"stimulus":"img/750/randomdotsizeEA/R/2_Ratio_750_L_6_R_8.png","xmouse":[635,635,635,635,635,635,635,635,635,635,635,635,635,635,635,635,635,635,635,635,635,635,635,635,635,635,635,635,635,635,635,635,636,636,636,636,636,636,636,639,647,650,653,657,658,659,649,638,623,604,583,559,554,552,552,552,546,536,524,511,498,489,489,488,492,495,501,508,519,536,565,659,709,757,792,860,880,896,908,921,932,953,961,970,972,976,981,983,984,985,985,982,979,974,969,963,955,948,940,932,919,900],"ymouse":[423,423,423,423,423,423,423,423,423,423,422,422,422,422,422,422,422,422,422,422,422,422,422,422,422,422,422,422,422,422,422,422,421,421,421,421,421,421,420,418,412,409,405,398,393,388,365,352,337,323,308,292,289,288,288,288,281,271,260,248,240,232,232,232,230,227,221,219,217,216,216,214,214,214,214,214,212,210,208,206,204,198,195,191,189,188,184,182,181,180,177,166,160,154,148,140,129,121,116,109,102,89],"timestamp_mouse":[5,32,46,66,86,105,126,146,167,187,207,226,246,266,285,306,326,345,366,386,406,425,445,466,486,507,527,545,565,586,605,626,647,665,685,706,726,745,766,786,806,825,846,866,885,906,927,946,966,986,1005,1025,1046,1067,1085,1105,1126,1145,1166,1186,1207,1225,1246,1266,1286,1305,1325,1345,1367,1385,1406,1426,1446,1465,1486,1507,1526,1545,1566,1586,1606,1626,1646,1666,1685,1705,1726,1746,1766,1785,1805,1825,1845,1866,1885,1905,1926,1946,1966,1987,2005,2025],"xSR":583.2000122070312,"ySR":375.96001586914065,"xT1":329.9200073242187,"yT1":0,"xT2":836.4800170898437,"yT2":0,"toosoon":0,"cond_shown":"randomdotsizeEA","ratio_trial":750,"smaller_num":"6","larger_num":"8","correct_side":2,"subjID":"juancamiloregaladoniño27","gender":"0","age":"11","school":"6"},{"start_time":1551887692211,"click_time":1551887693599,"finger_time":1551887693159,"fix_duration":250,"trial":22,"RT":948,"MT":440,"sideResp":2,"stimulus":"img/900/randomdotsizeEA/L/4_Ratio_900_L_20_R_18.png","xmouse":[619,619,619,619,619,619,617,614,604,594,592,588,588,588,588,588,588,588,588,588,588,588,588,588,588,588,588,588,588,588,588,588,588,588,588,588,588,588,588,588,588,588,588,596,615,632,657,695,748,817,839,855,864,866,866,866,864,864,864,864,864,864,864,864,874,877,880,884,887,893],"ymouse":[407,407,407,407,407,407,407,407,412,416,420,422,422,422,422,422,422,422,422,422,422,422,422,422,422,422,422,422,422,422,422,422,422,422,422,422,422,422,422,422,422,422,422,421,414,405,389,362,320,267,252,240,233,232,232,232,232,233,233,233,233,233,231,231,206,187,167,147,122,98],"timestamp_mouse":[8,32,47,67,87,108,127,148,168,189,226,228,249,268,288,307,328,349,368,388,407,429,448,467,487,509,529,548,568,588,608,627,647,668,687,707,728,748,768,788,808,827,847,868,888,907,928,948,968,989,1007,1028,1047,1067,1087,1108,1128,1149,1169,1189,1207,1228,1248,1268,1288,1307,1328,1348,1367,1388],"xSR":583.2000122070312,"ySR":375.96001586914065,"xT1":329.9200073242187,"yT1":0,"xT2":836.4800170898437,"yT2":0,"toosoon":0,"cond_shown":"randomdotsizeEA","ratio_trial":900,"smaller_num":"18","larger_num":"20","correct_side":1,"subjID":"juancamiloregaladoniño27","gender":"0","age":"11","school":"6"},{"start_time":1551887696496,"click_time":1551887697559,"finger_time":1551887697019,"fix_duration":395.8394240974227,"trial":23,"RT":523,"MT":540,"sideResp":1,"stimulus":"img/750/equaldotsize/L/14_Ratio_750_L_8_R_6.png","xmouse":[624,624,624,624,624,624,624,624,624,624,624,624,624,624,624,624,624,624,623,620,609,607,604,603,598,595,590,584,577,556,545,535,521,506,488,466,456,445,436,423,420,416,412,411,410,408,407,406,406,405,404,403,400,397],"ymouse":[418,418,418,418,418,418,418,418,418,418,418,418,418,418,418,418,418,418,416,415,405,403,397,395,384,378,372,364,354,329,317,305,293,278,254,224,208,192,179,159,153,149,142,140,137,132,130,128,127,121,116,110,100,91],"timestamp_mouse":[4,28,43,64,82,103,123,143,164,184,202,223,244,264,282,303,323,343,362,383,403,423,443,464,483,503,523,542,562,583,603,623,643,663,683,703,723,744,762,784,803,823,843,863,884,904,922,942,963,985,1003,1023,1043,1063],"xSR":583.2000122070312,"ySR":375.96001586914065,"xT1":329.9200073242187,"yT1":0,"xT2":836.4800170898437,"yT2":0,"toosoon":0,"cond_shown":"equaldotsize","ratio_trial":750,"smaller_num":"6","larger_num":"8","correct_side":1,"subjID":"juancamiloregaladoniño27","gender":"0","age":"11","school":"6"},{"start_time":1551887698552,"click_time":1551887699439,"finger_time":1551887699319,"fix_duration":250,"trial":24,"RT":767,"MT":120,"sideResp":1,"stimulus":"img/750/randomdotsizeEA/L/13_Ratio_750_L_8_R_6.png","xmouse":[619,619,619,619,619,619,619,619,619,619,619,619,619,619,619,619,619,619,619,619,619,619,619,619,619,619,619,619,619,619,619,619,619,619,619,618,608,586,549,506,471,427,396,388,384],"ymouse":[440,440,440,440,440,440,440,440,440,440,440,440,440,440,440,440,440,440,440,440,440,440,440,440,440,440,440,440,440,440,440,440,440,440,440,439,429,413,382,344,304,236,148,113,85],"timestamp_mouse":[8,32,47,66,88,108,127,148,167,187,207,227,247,267,288,307,328,347,367,388,408,427,447,466,487,508,528,546,568,588,606,626,647,667,686,707,728,747,767,787,807,827,847,866,887],"xSR":583.2000122070312,"ySR":375.96001586914065,"xT1":329.9200073242187,"yT1":0,"xT2":836.4800170898437,"yT2":0,"toosoon":0,"cond_shown":"randomdotsizeEA","ratio_trial":750,"smaller_num":"6","larger_num":"8","correct_side":1,"subjID":"juancamiloregaladoniño27","gender":"0","age":"11","school":"6"},{"start_time":1551887702123,"click_time":1551887703239,"finger_time":1551887702878,"fix_duration":1262.9309134122989,"trial":25,"RT":755,"MT":361,"sideResp":1,"stimulus":"img/500/equaldotanddens/L/11_Ratio_500_L_12_R_6.png","xmouse":[637,637,637,638,638,638,638,638,638,638,638,638,638,638,638,638,638,638,638,638,638,638,638,638,638,638,638,638,638,637,636,636,634,627,619,609,600,592,574,567,561,558,551,548,543,538,533,529,516,508,498,482,472,448,436,423],"ymouse":[408,408,408,408,410,410,410,410,410,410,410,410,410,410,410,410,410,410,410,411,411,411,412,412,412,412,412,412,412,412,412,412,412,408,401,392,380,366,336,318,298,279,228,208,192,177,168,161,151,144,136,122,111,91,82,74],"timestamp_mouse":[16,35,56,76,96,116,136,156,176,196,217,236,256,275,297,316,336,357,375,397,417,435,456,477,496,516,537,555,575,596,616,637,656,676,696,716,735,755,775,796,816,835,857,875,896,917,936,955,975,996,1016,1035,1055,1076,1097,1116],"xSR":583.2000122070312,"ySR":375.96001586914065,"xT1":329.9200073242187,"yT1":0,"xT2":836.4800170898437,"yT2":0,"toosoon":0,"cond_shown":"equaldotanddens","ratio_trial":500,"smaller_num":"6","larger_num":"12","correct_side":1,"subjID":"juancamiloregaladoniño27","gender":"0","age":"11","school":"6"},{"start_time":1551887705787,"click_time":1551887707198,"finger_time":1551887706699,"fix_duration":1386.0410277686508,"trial":26,"RT":912,"MT":499,"sideResp":1,"stimulus":"img/250/equaldotsize/L/7_Ratio_250_L_8_R_2.png","xmouse":[649,649,649,649,649,649,649,649,649,649,649,649,649,649,649,649,649,649,649,649,649,649,649,649,650,652,652,652,652,654,654,655,655,655,655,655,655,655,654,651,650,648,644,640,633,620,615,612,610,608,605,604,600,590,566,556,544,524,516,487,478,471,465,462,460,453,448,442,429,420,399],"ymouse":[405,405,405,405,405,405,405,405,405,405,405,405,405,405,405,405,405,405,405,405,405,405,405,405,405,405,404,403,400,398,397,396,396,396,396,396,396,394,393,392,391,389,386,384,380,372,368,366,360,343,332,320,305,287,245,228,212,189,184,161,156,151,147,144,143,140,138,134,123,114,94],"timestamp_mouse":[12,35,52,71,92,111,133,153,172,193,213,233,253,271,293,313,332,352,372,391,412,433,451,473,492,511,532,552,572,593,612,632,652,672,691,713,731,751,772,793,812,832,853,871,892,912,933,952,971,993,1012,1031,1052,1072,1092,1111,1132,1152,1173,1194,1211,1231,1252,1272,1292,1312,1332,1351,1371,1391,1411],"xSR":583.2000122070312,"ySR":375.96001586914065,"xT1":329.9200073242187,"yT1":0,"xT2":836.4800170898437,"yT2":0,"toosoon":0,"cond_shown":"equaldotsize","ratio_trial":250,"smaller_num":"2","larger_num":"8","correct_side":1,"subjID":"juancamiloregaladoniño27","gender":"0","age":"11","school":"6"},{"start_time":1551887712255,"click_time":1551887713698,"finger_time":1551887713139,"fix_duration":634.5472360571528,"trial":27,"RT":884,"MT":559,"sideResp":2,"stimulus":"img/900/equaldotsize/R/15_Ratio_900_L_9_R_10.png","xmouse":[649,649,649,649,649,649,649,649,649,649,649,649,649,649,649,649,649,649,649,649,649,649,649,649,649,649,649,649,649,649,649,649,649,649,649,649,649,649,649,649,649,649,649,649,649,649,640,599,570,546,528,520,520,525,535,553,568,596,614,631,647,677,692,705,717,730,740,757,764,775,792,821,879],"ymouse":[401,401,401,401,401,401,401,401,401,401,401,401,401,401,401,401,401,401,401,401,401,401,401,401,401,401,401,401,401,401,401,401,401,401,401,401,401,401,401,401,401,401,401,390,371,361,328,250,211,181,156,143,134,128,123,112,107,95,87,80,75,69,65,62,61,59,57,56,56,56,56,64,80],"timestamp_mouse":[4,23,45,64,83,103,123,143,165,183,204,224,243,265,283,303,325,344,364,384,404,424,445,463,485,505,524,545,564,583,604,625,643,664,683,703,725,743,765,785,805,823,844,864,884,904,924,944,965,983,1003,1023,1043,1064,1084,1104,1125,1145,1163,1184,1204,1225,1244,1264,1284,1303,1324,1344,1364,1384,1404,1423,1443],"xSR":583.2000122070312,"ySR":375.96001586914065,"xT1":329.9200073242187,"yT1":0,"xT2":836.4800170898437,"yT2":0,"toosoon":0,"cond_shown":"equaldotsize","ratio_trial":900,"smaller_num":"9","larger_num":"10","correct_side":2,"subjID":"juancamiloregaladoniño27","gender":"0","age":"11","school":"6"},{"start_time":1551887716211,"click_time":1551887717900,"finger_time":1551887717600,"fix_duration":1271.2555690265947,"trial":28,"RT":1389,"MT":300,"sideResp":1,"stimulus":"img/750/equaldotanddens/L/8_Ratio_750_L_4_R_3.png","xmouse":[592,592,592,592,592,592,592,592,594,596,596,598,600,602,604,604,604,604,604,604,604,604,604,604,604,604,604,604,604,604,604,604,604,604,604,604,604,604,604,604,604,604,604,604,604,604,604,604,604,604,604,604,604,604,604,604,604,604,604,604,604,604,604,604,604,604,604,604,603,580,564,544,527,511,511,511,511,511,511,508,504,493,478,457,404],"ymouse":[451,451,451,451,451,451,451,451,451,451,451,451,451,451,451,451,451,451,451,451,451,451,451,451,451,451,451,451,451,451,451,451,451,451,451,451,451,451,451,451,451,451,451,451,451,451,451,451,451,451,451,451,451,451,451,451,451,451,451,451,451,451,451,451,451,451,448,428,404,329,296,264,244,224,222,222,222,222,222,216,207,193,173,148,85],"timestamp_mouse":[7,33,48,69,87,108,129,148,169,189,208,228,248,269,288,308,327,349,368,388,407,428,448,469,488,508,529,547,569,587,609,628,647,668,687,709,728,749,767,789,808,827,849,867,889,908,929,949,968,987,1007,1028,1049,1067,1088,1109,1129,1148,1169,1188,1208,1227,1249,1268,1289,1308,1327,1348,1368,1389,1408,1428,1448,1468,1487,1508,1528,1547,1567,1588,1609,1629,1648,1669,1689],"xSR":583.2000122070312,"ySR":375.96001586914065,"xT1":329.9200073242187,"yT1":0,"xT2":836.4800170898437,"yT2":0,"toosoon":0,"cond_shown":"equaldotanddens","ratio_trial":750,"smaller_num":"3","larger_num":"4","correct_side":1,"subjID":"juancamiloregaladoniño27","gender":"0","age":"11","school":"6"},{"start_time":1551887724937,"click_time":1551887726298,"finger_time":1551887725879,"fix_duration":916.8858896509088,"trial":29,"RT":942,"MT":419,"sideResp":1,"stimulus":"img/500/equaldotanddens/L/10_Ratio_500_L_4_R_2.png","xmouse":[644,644,644,644,644,644,644,644,644,644,644,644,644,644,644,644,644,644,644,644,644,644,644,644,644,644,644,644,644,644,644,644,644,644,644,644,644,644,644,644,644,644,644,644,649,652,652,644,612,591,567,540,524,503,493,488,480,474,462,456,455,455,455,455,454,453,450,437,394],"ymouse":[435,435,435,435,435,435,435,435,435,435,435,435,435,435,435,435,435,435,435,435,435,435,435,435,435,435,435,435,435,435,435,435,435,435,435,435,435,435,435,435,435,435,435,433,424,408,388,364,304,272,242,212,195,172,164,155,146,140,126,121,121,120,120,120,120,120,118,110,88],"timestamp_mouse":[4,24,42,61,82,102,123,143,162,181,202,222,243,262,283,302,322,341,363,382,401,421,443,462,483,502,521,542,562,583,601,623,641,663,681,702,721,743,762,782,803,823,841,862,882,903,922,942,962,982,1002,1021,1041,1061,1083,1102,1122,1142,1162,1182,1201,1221,1242,1262,1282,1302,1321,1341,1361],"xSR":583.2000122070312,"ySR":375.96001586914065,"xT1":329.9200073242187,"yT1":0,"xT2":836.4800170898437,"yT2":0,"toosoon":0,"cond_shown":"equaldotanddens","ratio_trial":500,"smaller_num":"2","larger_num":"4","correct_side":1,"subjID":"juancamiloregaladoniño27","gender":"0","age":"11","school":"6"},{"start_time":1551887731327,"click_time":1551887732359,"finger_time":1551887732159,"fix_duration":646.7514982128318,"trial":30,"RT":832,"MT":200,"sideResp":1,"stimulus":"img/500/equaldotanddens/L/11_Ratio_500_L_12_R_6.png","xmouse":[656,656,656,656,656,656,656,656,656,656,656,656,656,656,656,656,656,656,656,656,656,656,656,656,656,656,656,656,656,656,656,656,656,656,656,656,656,654,644,632,624,616,604,599,593,588,580,544,515,481,450,425],"ymouse":[434,433,433,433,433,433,433,433,433,433,433,433,433,433,433,433,433,433,433,433,433,433,433,433,433,433,433,433,433,433,433,433,433,433,433,433,432,425,412,393,379,363,319,299,280,260,236,177,143,108,76,53],"timestamp_mouse":[13,32,53,71,92,113,133,152,172,192,213,233,251,271,293,312,333,353,373,392,412,433,453,472,493,511,533,553,571,593,613,633,652,671,693,711,732,753,772,792,812,832,852,872,892,912,932,953,971,992,1011,1032],"xSR":583.2000122070312,"ySR":375.96001586914065,"xT1":329.9200073242187,"yT1":0,"xT2":836.4800170898437,"yT2":0,"toosoon":0,"cond_shown":"equaldotanddens","ratio_trial":500,"smaller_num":"6","larger_num":"12","correct_side":1,"subjID":"juancamiloregaladoniño27","gender":"0","age":"11","school":"6"},{"start_time":1551887734819,"click_time":1551887736200,"finger_time":1551887735519,"fix_duration":1498.6261534196417,"trial":31,"RT":700,"MT":681,"sideResp":1,"stimulus":"img/500/equaldotanddens/L/11_Ratio_500_L_12_R_6.png","xmouse":[592,592,592,592,592,592,592,592,592,592,592,592,592,592,592,592,592,592,592,592,592,592,592,592,592,592,592,592,592,593,593,593,593,589,584,577,568,548,524,512,504,497,492,485,480,475,472,471,468,468,468,467,464,459,444,437,432,422,417,415,414,413,412,408,408,408,408,408,408,407],"ymouse":[436,436,436,436,436,436,436,436,436,436,436,436,436,436,436,436,436,436,436,436,436,436,436,436,436,436,436,436,436,436,432,431,427,410,396,379,358,313,263,244,228,216,204,188,179,172,168,164,161,161,161,160,156,150,137,131,127,119,115,112,111,110,108,102,101,101,101,101,101,97],"timestamp_mouse":[3,21,41,59,80,100,121,139,161,181,201,221,240,261,280,299,319,339,360,380,399,421,441,459,479,500,520,541,561,580,599,619,640,661,680,700,720,740,761,779,801,821,840,861,879,900,921,939,961,979,999,1020,1040,1061,1080,1099,1120,1141,1160,1180,1199,1220,1240,1261,1279,1299,1319,1340,1359,1380],"xSR":583.2000122070312,"ySR":375.96001586914065,"xT1":329.9200073242187,"yT1":0,"xT2":836.4800170898437,"yT2":0,"toosoon":0,"cond_shown":"equaldotanddens","ratio_trial":500,"smaller_num":"6","larger_num":"12","correct_side":1,"subjID":"juancamiloregaladoniño27","gender":"0","age":"11","school":"6"},{"start_time":1551887778352,"click_time":1551887779202,"finger_time":1551887778920,"fix_duration":1348.3221197573246,"trial":32,"RT":568,"MT":282,"sideResp":1,"stimulus":"img/750/equaldotsize/L/8_Ratio_750_L_4_R_3.png","xmouse":[630,630,630,630,630,630,630,630,630,630,630,630,630,630,630,630,630,630,630,630,630,630,630,630,630,628,624,604,589,575,558,554,554,554,554,554,556,557,554,538,518,479,424],"ymouse":[432,432,432,432,432,432,432,432,432,432,432,432,432,432,432,432,432,432,432,432,432,432,432,432,432,433,436,463,492,526,561,568,568,568,568,568,540,493,442,380,304,191,59],"timestamp_mouse":[8,37,48,68,88,109,128,148,169,188,208,228,249,270,288,309,329,349,368,389,409,428,448,468,488,508,528,548,568,589,609,629,649,668,688,709,729,748,768,788,808,828,849],"xSR":583.2000122070312,"ySR":375.96001586914065,"xT1":329.9200073242187,"yT1":0,"xT2":836.4800170898437,"yT2":0,"toosoon":0,"cond_shown":"equaldotsize","ratio_trial":750,"smaller_num":"3","larger_num":"4","correct_side":1,"subjID":"juancamiloregaladoniño27","gender":"0","age":"11","school":"6"},{"start_time":1551887781856,"click_time":1551887783100,"finger_time":1551887782721,"fix_duration":1415.6745435580829,"trial":33,"RT":865,"MT":379,"sideResp":1,"stimulus":"img/750/equaldotsize/L/13_Ratio_750_L_8_R_6.png","xmouse":[619,619,619,619,619,619,619,619,619,619,619,619,619,619,619,619,619,619,619,619,619,619,619,619,619,619,619,619,619,619,619,619,619,619,619,619,619,619,619,619,619,616,612,602,596,572,558,531,520,509,500,488,484,480,476,468,460,451,446,442,436,432,424],"ymouse":[428,428,428,428,428,428,428,428,428,428,428,428,428,428,428,428,428,428,428,428,428,428,428,428,428,428,428,428,428,428,428,428,428,428,428,428,428,428,428,424,420,402,390,365,354,315,293,253,234,216,200,177,171,164,157,146,138,126,120,112,105,97,84],"timestamp_mouse":[4,37,46,64,85,104,125,144,164,185,205,224,245,266,284,305,326,345,365,385,404,425,444,464,485,505,524,544,564,584,604,625,644,664,684,705,725,745,764,784,804,824,844,865,885,904,924,944,964,985,1005,1025,1044,1064,1085,1104,1124,1144,1164,1185,1204,1224,1244],"xSR":583.2000122070312,"ySR":375.96001586914065,"xT1":329.9200073242187,"yT1":0,"xT2":836.4800170898437,"yT2":0,"toosoon":0,"cond_shown":"equaldotsize","ratio_trial":750,"smaller_num":"6","larger_num":"8","correct_side":1,"subjID":"juancamiloregaladoniño27","gender":"0","age":"11","school":"6"},{"start_time":1551887785328,"click_time":1551887786781,"finger_time":1551887786140,"fix_duration":1327.0949651363328,"trial":34,"RT":812,"MT":641,"sideResp":2,"stimulus":"img/900/equaldotanddens/R/3_Ratio_900_L_9_R_10.png","xmouse":[620,620,620,620,620,620,620,620,620,620,620,620,620,620,620,620,620,620,620,620,620,620,620,620,620,620,620,620,620,620,620,620,620,620,620,628,633,657,671,683,696,716,752,766,777,785,796,824,837,851,864,880,888,898,904,911,917,922,929,930,932,932,931,929,929,928,925,922,919,919,918,918,912],"ymouse":[438,438,438,438,438,438,438,438,438,438,438,438,438,438,438,438,438,438,438,438,438,438,438,438,438,438,438,438,438,438,438,438,438,438,438,437,436,425,420,415,408,398,372,361,354,348,339,316,302,288,272,249,237,212,200,188,176,164,144,140,132,131,125,124,123,121,116,112,105,105,104,104,95],"timestamp_mouse":[12,32,53,73,92,113,133,153,173,193,213,233,252,273,293,312,332,353,373,392,413,432,452,473,492,512,534,552,572,593,614,633,653,672,692,713,732,753,772,793,812,833,852,872,892,912,932,952,972,992,1014,1032,1052,1072,1093,1112,1132,1152,1173,1192,1213,1233,1254,1272,1292,1312,1332,1352,1372,1392,1412,1433,1453],"xSR":583.2000122070312,"ySR":375.96001586914065,"xT1":329.9200073242187,"yT1":0,"xT2":836.4800170898437,"yT2":0,"toosoon":0,"cond_shown":"equaldotanddens","ratio_trial":900,"smaller_num":"9","larger_num":"10","correct_side":2,"subjID":"juancamiloregaladoniño27","gender":"0","age":"11","school":"6"},{"start_time":1551887789084,"click_time":1551887790481,"finger_time":1551887789902,"fix_duration":562.9773353795586,"trial":35,"RT":818,"MT":579,"sideResp":1,"stimulus":"img/250/randomdotsizeEA/L/2_Ratio_250_L_16_R_4.png","xmouse":[630,630,630,630,630,630,630,630,630,630,630,630,630,630,630,630,630,630,630,630,630,630,630,630,630,630,630,630,630,630,630,630,630,630,632,634,636,637,641,645,654,656,656,648,640,620,608,595,576,542,532,524,515,500,494,481,476,471,468,459,452,445,437,433,432,432,432,431,430,417],"ymouse":[419,419,419,419,419,419,419,419,419,419,419,419,419,419,419,419,419,419,419,419,419,419,419,419,419,419,419,419,419,419,419,419,419,419,418,412,409,405,399,392,363,338,313,279,257,224,212,202,192,167,157,145,129,103,90,72,65,59,56,50,47,44,40,38,38,38,38,38,38,38],"timestamp_mouse":[16,44,57,76,97,116,137,158,176,196,216,237,256,276,296,317,337,356,376,396,416,436,456,477,496,517,538,557,576,596,616,638,656,676,696,716,736,756,776,797,818,836,856,876,896,917,936,957,977,997,1016,1036,1056,1077,1096,1116,1136,1157,1176,1196,1216,1236,1257,1276,1296,1316,1336,1357,1376,1397],"xSR":583.2000122070312,"ySR":375.96001586914065,"xT1":329.9200073242187,"yT1":0,"xT2":836.4800170898437,"yT2":0,"toosoon":0,"cond_shown":"randomdotsizeEA","ratio_trial":250,"smaller_num":"4","larger_num":"16","correct_side":1,"subjID":"juancamiloregaladoniño27","gender":"0","age":"11","school":"6"},{"start_time":1551887792109,"click_time":1551887793300,"finger_time":1551887792780,"fix_duration":868.6564719494786,"trial":36,"RT":671,"MT":520,"sideResp":2,"stimulus":"img/500/equaldotanddens/R/12_Ratio_500_L_1_R_2.png","xmouse":[614,614,614,614,614,614,614,614,614,614,614,614,614,614,614,614,614,614,614,614,614,614,614,614,614,614,614,614,614,620,626,643,669,690,726,747,771,803,856,883,908,927,943,963,980,987,990,992,993,996,997,998,998,998,998,998,996,988,944,906],"ymouse":[465,465,465,465,465,465,465,465,465,465,465,465,465,465,465,465,465,465,465,465,465,465,465,465,465,465,465,465,465,464,461,456,445,437,418,407,390,371,335,316,296,280,266,249,234,228,224,220,218,212,210,208,208,208,208,207,203,190,127,72],"timestamp_mouse":[11,34,52,73,91,111,132,152,172,192,212,231,251,272,291,311,332,352,372,391,411,431,452,471,492,513,531,552,571,591,611,631,651,671,692,711,731,751,772,791,811,831,851,872,891,911,931,951,971,991,1011,1032,1051,1071,1091,1111,1131,1151,1172,1191],"xSR":583.2000122070312,"ySR":375.96001586914065,"xT1":329.9200073242187,"yT1":0,"xT2":836.4800170898437,"yT2":0,"toosoon":0,"cond_shown":"equaldotanddens","ratio_trial":500,"smaller_num":"1","larger_num":"2","correct_side":2,"subjID":"juancamiloregaladoniño27","gender":"0","age":"11","school":"6"},{"start_time":1551887795870,"click_time":1551887796800,"finger_time":1551887796420,"fix_duration":488.05325975941327,"trial":37,"RT":550,"MT":380,"sideResp":1,"stimulus":"img/500/equaldotsize/L/7_Ratio_500_L_10_R_5.png","xmouse":[630,630,630,630,630,630,630,630,630,630,630,630,630,630,630,630,630,630,630,628,620,609,601,596,592,591,587,583,577,571,553,544,535,528,520,504,500,493,484,475,456,448,440,430,426,411,393],"ymouse":[440,440,440,440,440,440,440,440,440,440,440,440,440,440,440,440,440,440,440,440,436,429,424,420,416,414,407,401,393,384,355,338,322,307,292,251,231,210,192,174,144,132,125,116,112,101,88],"timestamp_mouse":[11,35,50,71,90,111,130,150,171,190,210,230,250,271,291,311,331,351,370,390,410,430,450,471,490,510,531,550,571,590,611,630,650,670,690,712,730,750,770,790,810,830,850,870,890,910,930],"xSR":583.2000122070312,"ySR":375.96001586914065,"xT1":329.9200073242187,"yT1":0,"xT2":836.4800170898437,"yT2":0,"toosoon":0,"cond_shown":"equaldotsize","ratio_trial":500,"smaller_num":"5","larger_num":"10","correct_side":1,"subjID":"juancamiloregaladoniño27","gender":"0","age":"11","school":"6"},{"start_time":1551887799385,"click_time":1551887800640,"finger_time":1551887800240,"fix_duration":1404.5169638102943,"trial":38,"RT":855,"MT":400,"sideResp":2,"stimulus":"img/500/randomdotsizeEA/R/2_Ratio_500_L_3_R_6.png","xmouse":[595,595,595,595,595,595,595,595,595,595,595,595,595,595,595,595,595,595,595,595,595,595,595,595,595,595,595,595,595,595,595,595,595,595,595,595,595,598,612,643,664,682,704,731,762,828,864,901,928,959,968,972,976,979,982,982,981,979,975,958,947,933,923],"ymouse":[442,442,442,442,442,442,442,442,442,442,442,442,442,442,442,442,442,442,442,442,442,442,442,442,442,442,442,442,442,442,442,442,442,442,442,442,442,442,439,424,413,404,391,376,354,308,285,268,256,233,224,218,211,204,190,180,172,166,154,128,116,100,89],"timestamp_mouse":[15,35,55,76,96,115,135,156,175,195,215,235,256,276,295,315,335,355,376,395,415,435,455,475,496,515,536,555,575,595,615,635,656,675,695,715,735,755,775,796,815,835,855,875,895,915,935,955,977,996,1015,1035,1055,1076,1096,1115,1136,1155,1176,1197,1215,1235,1255],"xSR":583.2000122070312,"ySR":375.96001586914065,"xT1":329.9200073242187,"yT1":0,"xT2":836.4800170898437,"yT2":0,"toosoon":0,"cond_shown":"randomdotsizeEA","ratio_trial":500,"smaller_num":"3","larger_num":"6","correct_side":2,"subjID":"juancamiloregaladoniño27","gender":"0","age":"11","school":"6"},{"start_time":1551887801912,"click_time":1551887803160,"finger_time":1551887802780,"fix_duration":569.512164546945,"trial":39,"RT":868,"MT":380,"sideResp":1,"stimulus":"img/250/randomdotsizeEA/L/14_Ratio_250_L_12_R_3.png","xmouse":[631,631,631,631,631,631,631,631,631,631,631,631,631,631,631,631,631,631,631,631,631,631,631,631,631,631,631,631,631,631,631,631,631,631,631,631,631,631,629,627,622,611,597,574,548,539,530,521,511,491,487,484,483,482,482,480,478,472,455,444,431,419,405],"ymouse":[444,444,444,444,444,444,444,444,444,444,444,444,444,444,444,444,444,444,444,444,444,444,444,444,444,444,444,444,444,444,444,444,444,444,444,444,444,445,445,445,441,429,413,380,341,326,311,296,281,256,249,244,240,235,228,220,208,190,152,134,118,106,92],"timestamp_mouse":[8,33,48,69,89,109,128,148,168,188,208,229,248,268,289,309,329,350,368,388,409,428,448,468,488,508,528,549,568,588,608,629,648,669,688,710,729,748,769,788,809,828,848,868,889,908,928,948,968,988,1008,1028,1050,1068,1088,1109,1128,1148,1169,1188,1209,1228,1248],"xSR":583.2000122070312,"ySR":375.96001586914065,"xT1":329.9200073242187,"yT1":0,"xT2":836.4800170898437,"yT2":0,"toosoon":0,"cond_shown":"randomdotsizeEA","ratio_trial":250,"smaller_num":"3","larger_num":"12","correct_side":1,"subjID":"juancamiloregaladoniño27","gender":"0","age":"11","school":"6"},{"start_time":1551887808276,"click_time":1551887813260,"finger_time":1551887812360,"fix_duration":1353.9552576369551,"trial":40,"RT":4084,"MT":900,"sideResp":2,"stimulus":"img/500/equaldotsize/L/8_Ratio_500_L_8_R_4.png","xmouse":[640,640,640,640,640,640,642,648,653,658,661,663,663,663,663,663,663,663,663,663,663,663,664,665,666,667,667,667,667,667,667,667,667,667,668,668,668,669,670,670,670,670,670,670,670,670,670,670,670,670,670,670,670,669,668,668,668,668,668,668,668,668,668,668,668,668,668,668,668,665,664,663,662,662,662,662,660,656,655,651,643,639,636,632,632,632,632,632,632,632,632,632,632,632,632,632,632,632,632,632,632,632,632,632,632,632,632,632,633,633,634,634,634,635,635,636,638,638,638,638,639,639,639,639,639,639,639,639,639,639,637,632,629,626,624,619,617,617,617,617,617,617,617,617,617,617,617,617,617,617,617,617,617,617,617,617,620,622,622,622,622,622,622,622,622,623,623,623,623,623,623,623,623,623,623,620,620,620,620,620,620,620,620,620,620,620,620,620,620,620,620,620,620,620,620,620,620,620,620,620,620,620,621,629,667,729,901,988,1067,1137,1191,1237,1244,1244,1244,1244,1244,1244,1244,1244,1244,1244,1244,1244,1244,1244,1244,1244,1244,1244,1244,1244,1244,1244,1244,1244,1244,1244,1244,1244,1244,1244,1244,1244,1244,1244,1244,1244,870,874],"ymouse":[467,467,467,467,467,467,467,467,467,467,467,467,467,467,467,467,467,467,467,467,467,467,467,467,466,466,466,466,466,466,466,466,466,466,465,464,464,464,463,462,462,462,462,462,462,462,462,462,462,462,462,462,464,464,468,469,469,469,469,469,469,469,469,469,469,469,469,469,469,472,473,474,475,475,475,475,475,474,473,472,468,465,463,460,460,460,460,460,460,460,460,460,460,460,460,460,460,460,460,460,457,456,456,456,456,456,456,454,452,452,449,448,447,445,444,441,439,439,438,438,437,437,437,437,437,437,437,437,437,437,436,436,437,440,442,446,448,448,448,448,448,448,448,448,448,448,448,448,448,448,448,448,448,448,448,447,441,438,436,436,436,436,436,436,436,435,435,435,434,434,433,428,426,422,415,400,400,400,400,400,400,400,400,400,400,400,400,400,400,400,400,400,400,400,400,400,400,400,400,400,400,398,396,388,362,325,216,163,115,74,44,8,2,2,2,2,2,2,2,2,2,2,2,2,2,2,2,2,2,2,2,2,2,2,2,2,2,2,2,2,2,2,2,2,2,2,2,2,0,4],"timestamp_mouse":[4,25,45,64,84,104,124,144,164,184,204,225,245,265,284,304,324,345,365,385,405,424,444,464,484,504,525,544,564,584,605,625,644,665,685,704,725,745,764,785,804,826,846,865,885,906,925,944,964,984,1005,1025,1045,1065,1085,1104,1125,1144,1164,1185,1204,1225,1245,1265,1284,1305,1325,1344,1364,1384,1405,1424,1444,1464,1484,1504,1525,1544,1565,1584,1604,1624,1645,1664,1684,1705,1724,1745,1764,1786,1804,1825,1844,1864,1885,1905,1924,1944,1964,1984,2005,2024,2045,2065,2085,2104,2125,2144,2165,2184,2205,2224,2244,2264,2286,2304,2324,2344,2365,2385,2405,2425,2444,2465,2484,2505,2524,2545,2566,2585,2605,2624,2645,2664,2684,2704,2724,2744,2764,2784,2805,2825,2845,2864,2884,2904,2924,2945,2964,2984,3004,3025,3044,3064,3085,3104,3124,3144,3164,3185,3204,3224,3244,3265,3285,3304,3324,3344,3364,3385,3404,3424,3444,3464,3485,3504,3524,3544,3565,3584,3606,3625,3645,3665,3684,3706,3724,3744,3764,3784,3805,3824,3844,3864,3884,3905,3924,3944,3965,3985,4004,4024,4044,4064,4084,4104,4125,4144,4164,4184,4204,4224,4244,4264,4285,4305,4325,4344,4364,4384,4404,4425,4445,4465,4485,4505,4524,4544,4565,4585,4605,4624,4645,4665,4685,4704,4725,4744,4764,4784,4805,4824,4845,4864,4884,4905,4925,4945,4964,4984],"xSR":583.2000122070312,"ySR":375.96001586914065,"xT1":329.9200073242187,"yT1":0,"xT2":836.4800170898437,"yT2":0,"toosoon":0,"cond_shown":"equaldotsize","ratio_trial":500,"smaller_num":"4","larger_num":"8","correct_side":1,"subjID":"juancamiloregaladoniño27","gender":"0","age":"11","school":"6"},{"start_time":1551887817126,"click_time":1551887818360,"finger_time":1551887818281,"fix_duration":1105.6306659206416,"trial":41,"RT":1155,"MT":79,"sideResp":2,"stimulus":"img/500/randomdotsizeEA/R/15_Ratio_500_L_1_R_2.png","xmouse":[619,619,619,619,619,619,619,619,619,619,619,619,619,619,619,619,619,619,619,619,619,619,619,619,619,619,619,619,619,619,619,619,619,619,619,619,619,619,619,619,619,619,619,619,619,619,619,619,619,619,619,619,620,624,627,632,638,664,695,733,800,843],"ymouse":[445,445,445,445,445,445,445,445,445,445,445,445,445,445,445,445,445,445,445,445,445,445,445,445,445,445,445,445,445,445,445,445,445,445,445,445,445,445,445,445,445,445,445,445,445,445,445,445,445,445,445,444,442,426,419,407,393,343,288,222,112,59],"timestamp_mouse":[14,35,55,75,95,115,135,155,175,196,214,235,254,274,294,314,335,354,374,394,416,435,454,474,494,516,534,554,576,595,616,634,654,676,695,714,734,754,775,794,815,834,855,875,895,914,935,955,974,994,1014,1034,1054,1074,1094,1115,1134,1155,1174,1194,1214,1234],"xSR":583.2000122070312,"ySR":375.96001586914065,"xT1":329.9200073242187,"yT1":0,"xT2":836.4800170898437,"yT2":0,"toosoon":0,"cond_shown":"randomdotsizeEA","ratio_trial":500,"smaller_num":"1","larger_num":"2","correct_side":2,"subjID":"juancamiloregaladoniño27","gender":"0","age":"11","school":"6"},{"start_time":1551887820851,"click_time":1551887822020,"finger_time":1551887821841,"fix_duration":1289.2668718690986,"trial":42,"RT":990,"MT":179,"sideResp":1,"stimulus":"img/250/randomdotsizeEA/L/14_Ratio_250_L_12_R_3.png","xmouse":[642,642,642,642,642,642,642,642,642,642,642,642,642,642,642,642,642,642,642,642,642,642,642,642,642,642,642,642,642,642,642,642,642,642,642,642,642,642,642,642,642,642,642,642,642,642,642,642,632,613,589,566,512,485,471,459,448,433,427],"ymouse":[444,444,444,444,444,444,444,444,444,444,444,444,444,444,444,444,444,444,444,444,444,444,444,444,444,444,444,444,444,444,444,444,444,444,444,444,444,444,444,444,444,444,444,444,444,444,444,433,397,352,302,252,159,116,97,83,72,59,54],"timestamp_mouse":[9,30,49,70,89,109,129,149,170,191,209,230,251,270,290,310,329,350,369,389,410,430,449,470,489,509,529,549,570,590,610,630,649,670,689,709,729,749,770,790,810,830,849,869,889,911,930,950,969,990,1009,1030,1049,1069,1089,1109,1129,1149,1169],"xSR":583.2000122070312,"ySR":375.96001586914065,"xT1":329.9200073242187,"yT1":0,"xT2":836.4800170898437,"yT2":0,"toosoon":0,"cond_shown":"randomdotsizeEA","ratio_trial":250,"smaller_num":"3","larger_num":"12","correct_side":1,"subjID":"juancamiloregaladoniño27","gender":"0","age":"11","school":"6"},{"start_time":1551887826480,"click_time":1551887827340,"finger_time":1551887827160,"fix_duration":1198.8209256381774,"trial":43,"RT":680,"MT":180,"sideResp":1,"stimulus":"img/250/equaldotsize/L/7_Ratio_250_L_8_R_2.png","xmouse":[639,639,639,639,639,639,639,639,639,639,639,639,639,639,639,639,639,639,639,639,639,639,639,639,639,639,639,639,639,639,639,639,635,629,615,604,567,545,521,501,482,451,440,428],"ymouse":[421,421,421,421,421,421,421,421,421,421,421,421,421,421,421,421,421,421,421,421,421,421,421,421,421,421,421,421,421,421,421,419,411,400,375,352,289,251,208,163,124,72,56,42],"timestamp_mouse":[3,30,41,60,80,100,120,140,161,180,200,221,241,261,280,301,321,340,360,382,400,420,441,461,481,500,521,541,561,581,604,620,642,660,680,700,721,740,760,780,800,820,840,860],"xSR":583.2000122070312,"ySR":375.96001586914065,"xT1":329.9200073242187,"yT1":0,"xT2":836.4800170898437,"yT2":0,"toosoon":0,"cond_shown":"equaldotsize","ratio_trial":250,"smaller_num":"2","larger_num":"8","correct_side":1,"subjID":"juancamiloregaladoniño27","gender":"0","age":"11","school":"6"},{"start_time":1551887831202,"click_time":1551887832260,"finger_time":1551887831860,"fix_duration":1119.556889039855,"trial":44,"RT":658,"MT":400,"sideResp":1,"stimulus":"img/250/equaldotanddens/L/5_Ratio_250_L_24_R_6.png","xmouse":[635,635,635,635,635,635,635,635,635,635,635,635,635,635,635,635,635,635,635,635,635,635,635,635,635,635,635,635,635,635,630,624,616,590,573,555,537,522,515,508,507,504,502,496,477,465,456,445,439,438,436,432,428],"ymouse":[400,400,400,400,400,400,400,400,400,400,400,400,400,400,400,400,400,400,400,400,400,400,400,400,400,400,400,400,400,401,395,381,362,303,260,216,177,141,128,118,116,112,109,104,90,81,76,71,70,70,70,70,69],"timestamp_mouse":[18,38,58,78,98,118,139,159,179,198,219,238,259,280,298,319,339,360,379,399,418,438,459,478,499,518,539,559,578,598,618,638,658,680,698,718,738,758,778,798,818,838,858,879,898,918,940,958,979,998,1019,1038,1058],"xSR":583.2000122070312,"ySR":375.96001586914065,"xT1":329.9200073242187,"yT1":0,"xT2":836.4800170898437,"yT2":0,"toosoon":0,"cond_shown":"equaldotanddens","ratio_trial":250,"smaller_num":"6","larger_num":"24","correct_side":1,"subjID":"juancamiloregaladoniño27","gender":"0","age":"11","school":"6"},{"start_time":1551887835405,"click_time":1551887836441,"finger_time":1551887836160,"fix_duration":342.08987406145496,"trial":45,"RT":755,"MT":281,"sideResp":2,"stimulus":"img/750/equaldotsize/R/12_Ratio_750_L_3_R_4.png","xmouse":[612,612,612,612,612,612,612,612,612,612,612,612,612,612,612,612,612,612,612,612,612,612,612,608,606,605,604,602,601,601,601,601,602,604,610,616,625,638,650,711,756,791,807,816,822,824,828,836,846,867,877,887],"ymouse":[456,456,456,456,456,456,456,456,456,456,456,456,456,456,456,456,456,456,456,456,456,455,453,443,438,432,428,424,422,422,419,417,416,412,405,397,387,374,364,321,281,246,225,211,196,192,184,167,152,119,104,91],"timestamp_mouse":[16,36,55,76,95,115,135,156,176,196,215,236,255,275,296,315,335,357,375,395,416,435,456,475,495,516,535,555,576,596,615,635,656,675,695,716,735,755,775,795,816,835,855,876,895,916,935,955,976,995,1015,1036],"xSR":583.2000122070312,"ySR":375.96001586914065,"xT1":329.9200073242187,"yT1":0,"xT2":836.4800170898437,"yT2":0,"toosoon":0,"cond_shown":"equaldotsize","ratio_trial":750,"smaller_num":"3","larger_num":"4","correct_side":2,"subjID":"juancamiloregaladoniño27","gender":"0","age":"11","school":"6"},{"start_time":1551887838142,"click_time":1551887839900,"finger_time":1551887839021,"fix_duration":660.0889478090901,"trial":46,"RT":879,"MT":879,"sideResp":1,"stimulus":"img/900/equaldotanddens/R/6_Ratio_900_L_9_R_10.png","xmouse":[660,660,660,660,660,660,660,660,660,660,660,660,660,660,660,660,660,660,660,660,660,660,660,660,660,660,660,660,660,660,660,660,660,660,660,660,660,660,660,662,666,671,680,686,692,698,708,712,716,720,724,738,746,755,760,766,776,780,784,787,790,791,791,791,788,781,757,736,711,680,631,563,531,507,490,479,473,465,462,456,448,444,444,444,444,442,431,423],"ymouse":[446,446,446,446,446,446,446,446,446,446,446,446,446,446,446,446,446,446,446,446,446,446,446,446,446,446,446,446,446,446,446,446,446,446,446,446,446,445,444,442,438,432,418,410,398,387,367,357,348,340,332,304,287,269,252,239,214,204,193,186,178,172,171,170,168,166,159,152,142,129,111,84,71,60,54,51,49,48,48,48,48,48,48,48,48,48,52,54],"timestamp_mouse":[19,39,58,78,99,120,139,158,178,198,220,240,259,279,299,320,339,359,378,398,420,440,458,479,499,518,540,558,580,599,619,639,659,680,699,718,739,758,778,799,820,839,859,879,899,919,939,958,978,999,1020,1039,1059,1078,1099,1119,1140,1158,1179,1199,1219,1239,1258,1280,1300,1319,1339,1358,1379,1398,1419,1440,1458,1478,1498,1519,1538,1559,1579,1599,1619,1639,1659,1679,1699,1720,1739,1758],"xSR":583.2000122070312,"ySR":375.96001586914065,"xT1":329.9200073242187,"yT1":0,"xT2":836.4800170898437,"yT2":0,"toosoon":0,"cond_shown":"equaldotanddens","ratio_trial":900,"smaller_num":"9","larger_num":"10","correct_side":2,"subjID":"juancamiloregaladoniño27","gender":"0","age":"11","school":"6"},{"start_time":1551887842283,"click_time":1551887843642,"finger_time":1551887843141,"fix_duration":1140.962099997139,"trial":47,"RT":858,"MT":501,"sideResp":1,"stimulus":"img/900/equaldotanddens/L/1_Ratio_900_L_10_R_9.png","xmouse":[628,628,628,628,628,628,628,628,628,628,628,628,628,628,628,628,628,628,628,628,628,628,628,628,628,628,628,628,628,628,628,628,628,628,628,628,628,628,626,616,605,591,578,564,558,544,536,527,516,490,478,466,460,453,447,443,440,433,424,406,400,395,395,395,395,395,394,393],"ymouse":[442,442,442,442,442,442,442,442,442,442,442,442,442,442,442,442,442,442,442,442,442,442,442,442,442,442,442,442,442,442,442,442,442,442,442,442,442,442,442,424,408,389,371,350,340,308,290,270,251,214,196,182,174,168,163,161,159,155,147,127,117,110,107,106,104,102,100,97],"timestamp_mouse":[17,38,57,79,99,117,138,159,177,199,217,237,259,279,298,318,338,357,379,397,418,439,459,479,499,519,537,559,578,598,619,637,659,678,699,717,739,758,777,799,818,837,858,879,899,919,938,958,978,998,1017,1038,1059,1079,1098,1119,1137,1158,1178,1198,1218,1237,1258,1278,1299,1318,1337,1359],"xSR":583.2000122070312,"ySR":375.96001586914065,"xT1":329.9200073242187,"yT1":0,"xT2":836.4800170898437,"yT2":0,"toosoon":0,"cond_shown":"equaldotanddens","ratio_trial":900,"smaller_num":"9","larger_num":"10","correct_side":1,"subjID":"juancamiloregaladoniño27","gender":"0","age":"11","school":"6"},{"start_time":1551887844903,"click_time":1551887847581,"finger_time":1551887847081,"fix_duration":321.2071392752529,"trial":48,"RT":2178,"MT":500,"sideResp":1,"stimulus":"img/500/randomdotsizeEA/L/5_Ratio_500_L_4_R_2.png","xmouse":[636,636,636,636,636,636,636,636,636,636,636,636,636,636,636,636,636,636,636,636,636,636,636,636,636,636,636,636,636,636,636,636,636,636,636,636,636,636,636,636,635,632,628,624,617,616,616,616,616,616,616,616,616,616,616,616,616,616,616,616,616,615,615,616,617,617,617,617,617,617,617,617,617,617,619,621,623,626,630,631,632,632,632,632,632,632,632,632,632,632,632,632,632,632,632,632,632,632,632,632,632,632,632,632,632,632,632,632,623,616,604,592,582,532,504,480,461,447,437,435,431,428,420,412,404,404,404,404,402,401,400,399,396,385],"ymouse":[452,452,452,452,452,452,452,452,452,452,452,452,452,452,452,452,452,452,452,452,452,452,452,452,452,452,452,452,452,452,452,452,452,452,452,452,452,452,452,452,452,451,448,447,444,443,443,443,443,443,443,443,443,443,443,443,443,443,443,443,443,442,441,440,440,440,440,440,440,440,440,440,440,439,436,432,427,420,411,408,405,404,400,397,390,388,387,387,387,387,387,387,387,387,387,387,387,387,387,387,387,387,387,387,387,387,384,380,351,336,318,304,288,234,211,190,174,164,156,154,152,149,143,137,130,128,128,127,124,122,119,113,103,76],"timestamp_mouse":[18,37,57,77,97,117,137,157,177,197,217,237,257,277,297,317,337,357,379,399,419,439,459,479,498,517,537,557,579,599,618,638,659,678,699,717,737,759,778,799,818,837,858,878,899,918,938,957,978,997,1018,1038,1057,1078,1098,1118,1138,1159,1177,1199,1218,1238,1258,1278,1299,1318,1339,1359,1378,1399,1418,1439,1458,1478,1499,1518,1538,1558,1578,1597,1619,1637,1658,1678,1698,1717,1738,1758,1778,1797,1818,1839,1858,1877,1899,1917,1938,1958,1978,1997,2018,2038,2059,2078,2097,2119,2138,2157,2178,2198,2217,2238,2258,2278,2297,2318,2337,2357,2379,2398,2417,2437,2457,2478,2498,2518,2538,2557,2579,2597,2618,2637,2659,2678],"xSR":583.2000122070312,"ySR":375.96001586914065,"xT1":329.9200073242187,"yT1":0,"xT2":836.4800170898437,"yT2":0,"toosoon":0,"cond_shown":"randomdotsizeEA","ratio_trial":500,"smaller_num":"2","larger_num":"4","correct_side":1,"subjID":"juancamiloregaladoniño27","gender":"0","age":"11","school":"6"},{"start_time":1551887849444,"click_time":1551887850582,"finger_time":1551887850441,"fix_duration":721.0908938218867,"trial":49,"RT":997,"MT":141,"sideResp":2,"stimulus":"img/750/equaldotsize/R/11_Ratio_750_L_12_R_16.png","xmouse":[633,633,633,633,633,632,632,630,629,629,628,628,627,626,626,625,625,625,625,625,625,625,625,625,625,625,624,624,624,624,624,624,624,624,623,623,623,623,623,623,623,623,623,623,623,623,623,627,643,666,698,728,767,781,795,808,861],"ymouse":[393,393,393,393,393,393,394,396,397,397,398,398,400,400,401,401,401,401,401,401,401,401,401,401,401,401,402,403,404,404,404,404,404,404,405,405,405,405,405,405,405,405,405,405,405,405,405,401,387,364,329,295,236,201,171,143,76],"timestamp_mouse":[17,40,58,77,96,117,136,157,177,196,217,236,256,277,296,317,338,358,377,396,417,436,458,476,498,517,537,556,576,598,616,638,657,678,697,717,737,757,776,798,818,836,858,878,897,917,936,958,976,997,1018,1036,1056,1078,1097,1117,1138],"xSR":583.2000122070312,"ySR":375.96001586914065,"xT1":329.9200073242187,"yT1":0,"xT2":836.4800170898437,"yT2":0,"toosoon":0,"cond_shown":"equaldotsize","ratio_trial":750,"smaller_num":"12","larger_num":"16","correct_side":2,"subjID":"juancamiloregaladoniño27","gender":"0","age":"11","school":"6"},{"start_time":1551887853127,"click_time":1551887854321,"finger_time":1551887853922,"fix_duration":1424.866094433066,"trial":50,"RT":795,"MT":399,"sideResp":1,"stimulus":"img/900/equaldotsize/L/1_Ratio_900_L_10_R_9.png","xmouse":[655,655,652,644,634,625,619,615,615,615,615,615,615,615,615,615,615,615,615,615,615,615,615,615,615,615,615,615,615,615,615,615,615,615,615,615,614,609,605,597,583,564,532,499,490,481,476,470,462,458,453,447,440,440,440,440,440,440,420,416],"ymouse":[442,442,442,442,441,437,435,433,433,433,433,433,433,433,433,433,433,433,433,433,433,433,433,433,433,433,433,433,433,433,433,433,433,433,433,433,432,408,383,347,299,246,171,101,82,67,54,44,28,24,15,7,0,0,0,0,0,0,0,7],"timestamp_mouse":[14,34,54,73,93,115,135,154,175,194,214,234,253,274,294,315,334,353,374,395,414,435,454,474,494,513,534,554,573,595,613,633,653,674,693,714,733,754,773,795,814,835,854,873,893,914,934,953,974,995,1014,1035,1054,1073,1095,1115,1133,1155,1174,1194],"xSR":583.2000122070312,"ySR":375.96001586914065,"xT1":329.9200073242187,"yT1":0,"xT2":836.4800170898437,"yT2":0,"toosoon":0,"cond_shown":"equaldotsize","ratio_trial":900,"smaller_num":"9","larger_num":"10","correct_side":1,"subjID":"juancamiloregaladoniño27","gender":"0","age":"11","school":"6"},{"start_time":1551887855787,"click_time":1551887857221,"finger_time":1551887856521,"fix_duration":424.96414533645765,"trial":51,"RT":734,"MT":700,"sideResp":2,"stimulus":"img/250/equaldotsize/R/8_Ratio_250_L_1_R_4.png","xmouse":[617,617,617,617,617,617,617,617,617,617,617,617,617,617,617,617,617,617,617,617,617,617,617,617,617,617,617,617,619,620,629,639,647,654,664,670,676,684,692,712,720,727,735,744,765,780,794,806,819,840,848,852,856,859,863,864,864,868,870,872,873,874,875,876,877,878,878,879,879,880,880,881],"ymouse":[438,438,438,438,438,438,438,438,438,438,438,438,438,438,438,438,438,438,438,438,438,438,438,438,438,438,438,438,437,436,427,418,410,403,388,380,368,358,346,322,312,304,295,283,256,238,222,208,194,168,162,157,153,150,144,143,142,139,136,134,132,130,128,126,120,118,118,116,116,111,106,96],"timestamp_mouse":[15,36,55,74,94,114,134,155,174,193,214,235,254,273,295,314,333,354,373,393,414,433,455,473,493,513,535,554,573,593,613,633,654,674,694,713,734,754,773,795,814,834,853,873,895,913,934,953,974,994,1014,1034,1055,1074,1095,1114,1134,1153,1173,1194,1213,1233,1254,1274,1294,1314,1334,1354,1374,1394,1414,1434],"xSR":583.2000122070312,"ySR":375.96001586914065,"xT1":329.9200073242187,"yT1":0,"xT2":836.4800170898437,"yT2":0,"toosoon":0,"cond_shown":"equaldotsize","ratio_trial":250,"smaller_num":"1","larger_num":"4","correct_side":2,"subjID":"juancamiloregaladoniño27","gender":"0","age":"11","school":"6"},{"start_time":1551887858592,"click_time":1551887859862,"finger_time":1551887859482,"fix_duration":250,"trial":52,"RT":890,"MT":380,"sideResp":2,"stimulus":"img/750/equaldotanddens/R/7_Ratio_750_L_3_R_4.png","xmouse":[639,639,639,639,639,639,639,639,639,639,639,639,639,639,639,639,639,639,639,639,639,639,639,639,639,639,639,639,639,639,639,639,639,639,639,639,639,639,639,639,639,640,641,643,643,642,635,624,608,592,592,592,592,592,594,598,607,626,634,693,728,781,833,883],"ymouse":[418,418,418,418,418,418,418,418,418,418,418,418,418,418,418,418,418,418,418,418,418,418,418,418,418,418,418,418,418,418,418,418,418,418,418,418,418,418,418,418,418,413,408,396,355,330,308,280,246,217,214,214,214,213,207,201,192,174,169,142,130,113,98,85],"timestamp_mouse":[19,30,49,70,88,110,128,149,169,188,209,229,250,268,289,310,328,350,368,390,408,429,449,469,488,508,529,549,570,589,608,630,650,669,689,708,730,749,769,788,810,828,848,869,890,908,929,948,969,989,1008,1028,1049,1070,1089,1109,1129,1149,1170,1189,1209,1228,1249,1270],"xSR":583.2000122070312,"ySR":375.96001586914065,"xT1":329.9200073242187,"yT1":0,"xT2":836.4800170898437,"yT2":0,"toosoon":0,"cond_shown":"equaldotanddens","ratio_trial":750,"smaller_num":"3","larger_num":"4","correct_side":2,"subjID":"juancamiloregaladoniño27","gender":"0","age":"11","school":"6"},{"start_time":1551887863352,"click_time":1551887864541,"finger_time":1551887864160,"fix_duration":451.5307825088735,"trial":53,"RT":808,"MT":381,"sideResp":2,"stimulus":"img/500/equaldotanddens/R/6_Ratio_500_L_9_R_18.png","xmouse":[599,599,599,599,599,599,599,599,599,599,599,599,599,599,599,599,599,599,599,599,599,599,599,599,599,599,599,599,599,599,599,599,599,599,599,599,599,601,608,620,645,678,688,700,712,725,736,753,764,768,779,787,810,820,832,844,870,889,911,928],"ymouse":[426,426,426,426,426,426,426,426,426,426,426,426,426,426,426,426,426,426,426,426,426,426,426,426,426,426,426,426,426,426,426,426,426,426,426,426,426,426,416,401,374,340,329,316,301,287,276,262,252,250,240,232,213,202,192,183,154,132,109,96],"timestamp_mouse":[8,32,48,69,88,109,129,149,170,189,209,229,249,270,288,309,329,348,370,390,410,429,449,469,490,509,528,550,570,589,609,628,650,670,688,709,728,748,769,788,808,829,848,869,888,909,928,949,969,990,1008,1028,1050,1069,1089,1108,1130,1148,1169,1189],"xSR":583.2000122070312,"ySR":375.96001586914065,"xT1":329.9200073242187,"yT1":0,"xT2":836.4800170898437,"yT2":0,"toosoon":0,"cond_shown":"equaldotanddens","ratio_trial":500,"smaller_num":"9","larger_num":"18","correct_side":2,"subjID":"juancamiloregaladoniño27","gender":"0","age":"11","school":"6"},{"start_time":1551887867060,"click_time":1551887868442,"finger_time":1551887868021,"fix_duration":1497.2455146120478,"trial":54,"RT":961,"MT":421,"sideResp":1,"stimulus":"img/900/equaldotanddens/L/1_Ratio_900_L_10_R_9.png","xmouse":[612,612,612,612,612,612,612,612,612,612,612,612,612,612,612,612,612,612,612,612,612,612,612,611,611,611,611,611,611,611,611,611,611,611,611,611,611,611,611,611,611,611,611,611,611,611,611,584,558,529,501,472,467,464,462,460,452,447,443,440,436,434,433,433,433,433,433,432,430,425],"ymouse":[424,424,424,424,424,424,424,424,424,424,424,424,424,424,424,424,424,424,424,424,424,424,424,424,424,424,424,424,424,424,424,424,424,424,424,424,424,424,424,424,424,424,424,424,424,424,424,390,356,316,271,212,197,187,176,164,125,108,94,83,73,68,67,67,67,67,67,65,64,62],"timestamp_mouse":[3,33,41,61,81,102,121,142,160,181,201,221,241,262,280,301,321,341,360,382,401,421,442,461,480,501,522,542,562,580,600,622,642,662,682,700,721,742,760,780,801,821,842,861,882,901,927,941,961,982,1001,1021,1040,1060,1081,1102,1121,1140,1161,1180,1200,1222,1240,1260,1281,1302,1322,1341,1360,1382],"xSR":583.2000122070312,"ySR":375.96001586914065,"xT1":329.9200073242187,"yT1":0,"xT2":836.4800170898437,"yT2":0,"toosoon":0,"cond_shown":"equaldotanddens","ratio_trial":900,"smaller_num":"9","larger_num":"10","correct_side":1,"subjID":"juancamiloregaladoniño27","gender":"0","age":"11","school":"6"},{"start_time":1551887870272,"click_time":1551887871341,"finger_time":1551887871042,"fix_duration":250,"trial":55,"RT":770,"MT":299,"sideResp":1,"stimulus":"img/900/equaldotsize/L/10_Ratio_900_L_20_R_18.png","xmouse":[605,605,605,605,605,605,605,605,605,605,605,605,605,605,605,605,605,605,605,605,605,605,605,605,605,605,605,605,605,605,605,605,605,605,605,605,604,600,592,582,555,540,524,512,499,489,476,471,468,466,461,453,443,429],"ymouse":[383,383,383,383,383,383,383,383,383,383,383,383,383,383,383,383,383,383,383,383,383,383,383,383,383,383,383,383,383,383,383,383,383,383,383,383,383,376,362,345,295,259,222,186,144,120,90,83,77,75,68,60,48,37],"timestamp_mouse":[9,33,49,68,88,108,130,150,169,188,209,230,250,269,290,309,329,350,369,389,409,429,449,470,488,510,528,549,569,589,608,630,649,668,689,710,729,748,770,788,810,828,849,868,890,910,930,949,969,988,1009,1028,1050,1069],"xSR":583.2000122070312,"ySR":375.96001586914065,"xT1":329.9200073242187,"yT1":0,"xT2":836.4800170898437,"yT2":0,"toosoon":0,"cond_shown":"equaldotsize","ratio_trial":900,"smaller_num":"18","larger_num":"20","correct_side":1,"subjID":"juancamiloregaladoniño27","gender":"0","age":"11","school":"6"},{"start_time":1551887873753,"click_time":1551887874781,"finger_time":1551887874481,"fix_duration":1329.8973887466473,"trial":56,"RT":728,"MT":300,"sideResp":1,"stimulus":"img/750/equaldotsize/L/8_Ratio_750_L_4_R_3.png","xmouse":[614,614,614,614,614,614,614,614,614,614,614,614,614,614,614,614,614,614,614,614,614,614,614,614,614,614,614,614,614,614,614,614,614,612,611,605,581,560,536,515,480,462,431,414,401,388,369,363,360,357,356,354],"ymouse":[409,409,409,409,409,409,409,409,409,409,409,409,409,409,409,409,409,409,409,409,409,409,409,409,409,409,409,409,409,409,409,409,409,408,407,399,369,344,317,292,256,235,200,184,172,156,124,115,109,104,102,99],"timestamp_mouse":[8,28,47,68,88,107,127,149,167,188,209,228,247,268,287,308,329,348,367,387,408,428,448,468,489,507,529,547,568,588,608,627,649,667,689,709,728,748,768,788,809,827,848,867,887,907,929,947,968,987,1008,1028],"xSR":583.2000122070312,"ySR":375.96001586914065,"xT1":329.9200073242187,"yT1":0,"xT2":836.4800170898437,"yT2":0,"toosoon":0,"cond_shown":"equaldotsize","ratio_trial":750,"smaller_num":"3","larger_num":"4","correct_side":1,"subjID":"juancamiloregaladoniño27","gender":"0","age":"11","school":"6"},{"start_time":1551887876811,"click_time":1551887878342,"finger_time":1551887877582,"fix_duration":1308.0278854110936,"trial":57,"RT":771,"MT":760,"sideResp":1,"stimulus":"img/250/equaldotanddens/L/1_Ratio_250_L_8_R_2.png","xmouse":[639,639,639,639,639,639,639,639,639,639,639,639,639,639,639,639,639,639,639,639,639,639,639,639,639,639,639,639,639,639,638,638,636,631,624,614,604,592,562,548,537,529,524,512,508,504,502,500,497,496,496,496,496,491,487,482,477,472,469,468,466,465,464,464,464,464,464,464,464,463,461,460,459,449,440,432,424],"ymouse":[447,447,447,447,447,447,447,447,447,447,447,447,447,447,447,447,447,447,447,447,447,447,447,447,447,447,447,447,447,447,447,448,448,448,444,436,424,412,368,348,334,323,312,292,286,279,274,271,265,261,251,232,209,164,143,124,110,91,80,70,63,60,56,56,56,56,56,56,56,56,56,56,57,58,56,52,50],"timestamp_mouse":[10,33,50,71,89,111,131,151,169,190,210,229,250,270,290,310,329,350,370,390,410,431,449,471,489,510,531,551,571,591,609,630,651,671,689,710,729,751,771,789,811,829,850,871,890,909,930,950,970,989,1009,1030,1049,1071,1090,1111,1131,1149,1169,1190,1209,1229,1250,1269,1290,1310,1331,1349,1370,1389,1409,1429,1449,1471,1489,1510,1531],"xSR":583.2000122070312,"ySR":375.96001586914065,"xT1":329.9200073242187,"yT1":0,"xT2":836.4800170898437,"yT2":0,"toosoon":0,"cond_shown":"equaldotanddens","ratio_trial":250,"smaller_num":"2","larger_num":"8","correct_side":1,"subjID":"juancamiloregaladoniño27","gender":"0","age":"11","school":"6"},{"start_time":1551887880503,"click_time":1551887881520,"finger_time":1551887881180,"fix_duration":1121.0885363875984,"trial":58,"RT":677,"MT":340,"sideResp":1,"stimulus":"img/900/randomdotsizeEA/L/1_Ratio_900_L_10_R_9.png","xmouse":[643,643,643,643,643,643,643,643,643,643,643,643,643,643,643,643,643,643,643,643,643,643,643,643,643,643,643,643,643,640,637,626,612,585,545,532,521,515,502,497,494,491,486,481,472,467,462,458,441,433,428],"ymouse":[422,422,422,422,422,422,422,422,42