[{"start_time":1551886948486,"click_time":1551886951241,"finger_time":1551886950160,"fix_duration":600.3674063586789,"trial":0,"RT":1674,"MT":1081,"sideResp":1,"stimulus":[],"xmouse":[806,806,806,802,801,797,796,795,795,795,795,795,795,795,795,795,795,795,795,795,795,795,795,795,795,795,795,795,795,795,795,795,795,795,795,795,795,795,795,795,795,795,795,795,795,795,795,795,795,795,795,795,795,795,795,795,795,795,795,795,795,795,795,795,795,795,795,795,795,795,795,795,795,795,795,795,795,795,795,795,795,788,773,760,735,723,710,699,691,680,678,676,673,671,662,657,652,648,641,632,630,630,629,629,629,628,626,621,612,592,584,575,568,563,556,545,538,527,513,502,502,502,502,501,501,500,499,498,498,498,498,498,498,498,498,498,497,497],"ymouse":[538,538,538,530,529,525,523,523,523,523,523,523,523,523,523,523,523,523,523,523,523,523,523,523,523,523,523,523,523,523,523,523,523,523,523,523,523,523,523,523,523,523,523,523,523,523,523,523,523,523,523,523,523,523,523,523,523,523,523,523,523,523,523,523,523,523,523,523,523,523,523,523,523,523,523,523,523,523,523,523,522,505,481,464,431,418,402,390,382,364,359,350,341,332,305,292,279,264,252,234,229,229,229,228,226,222,221,218,213,202,195,188,181,177,171,165,161,157,151,145,144,144,144,144,143,140,136,130,125,115,111,107,106,106,106,104,101,97],"timestamp_mouse":[29,34,54,75,94,115,134,155,175,194,214,234,254,275,294,314,334,354,374,395,414,434,455,474,495,514,535,554,575,594,614,634,654,674,695,714,734,753,775,794,814,834,854,874,894,914,934,954,974,995,1015,1034,1055,1075,1094,1115,1134,1154,1174,1195,1215,1235,1254,1275,1295,1315,1334,1354,1374,1395,1415,1434,1455,1474,1494,1515,1534,1555,1574,1595,1614,1635,1654,1674,1694,1714,1734,1755,1774,1795,1814,1834,1854,1874,1894,1913,1934,1954,1974,1995,2014,2034,2054,2075,2094,2115,2134,2155,2174,2195,2213,2235,2254,2274,2295,2314,2334,2354,2373,2395,2414,2434,2454,2475,2495,2514,2534,2554,2574,2595,2613,2634,2654,2675,2694,2715,2734,2755],"xSR":741.5,"ySR":469.95,"xT1":424.9,"yT1":0,"xT2":1058.1,"yT2":0,"toosoon":0,"cond_shown":"Incongruent","ratio_trial":200,"L_num":7,"L_den":15,"R_num":4,"R_den":6,"correct_side":2,"subjID":"juancamiloregaladoniño27","gender":"0","age":"11","school":"6","test":{"fix_dur":[250,1500],"timestim":1000,"targets_dim":[100,100],"targets_relative_coord":[0.3,0.7],"size_stim":[880,420],"start_dim":[100,100],"size_start":[300,300],"size_fix":60,"samplingrate":20,"img_types":["Congruent","Incongruent"],"ratios":[100,200,300],"rep_conds":19,"nTrials":120,"trials_to_rest":500,"Trials_order":[87,58,38,62,80,104,114,7,64,49,83,97,88,63,91,96,100,27,19,115,40,44,68,99,17,6,3,53,48,22,69,111,33,117,85,79,109,24,98,11,93,30,25,42,73,26,60,78,81,72,61,31,108,113,118,2,112,50,20,57,47,37,92,45,13,102,75,0,94,36,34,18,43,84,46,70,10,101,12,4,103,39,106,35,9,67,86,82,110,21,116,76,52,105,66,59,56,65,5,8,71,74,89,77,29,107,90,15,51,14,16,28,54,95,55,1,32,23,119,41],"cond_shown":["Incongruent","Congruent","Congruent","Congruent","Congruent","Congruent","Congruent","Incongruent","Congruent","Incongruent","Incongruent","Incongruent","Congruent","Incongruent","Incongruent","Congruent","Congruent","Incongruent","Incongruent","Incongruent","Congruent","Congruent","Congruent","Incongruent","Incongruent","Congruent","Incongruent","Incongruent","Congruent","Congruent","Incongruent","Incongruent","Incongruent","Incongruent","Incongruent","Incongruent","Incongruent","Congruent","Congruent","Incongruent","Incongruent","Congruent","Incongruent","Congruent","Incongruent","Congruent","Congruent","Congruent","Incongruent","Congruent","Incongruent","Incongruent","Congruent","Incongruent","Congruent","Congruent","Congruent","Congruent","Congruent","Incongruent","Incongruent","Incongruent","Congruent","Incongruent","Incongruent","Congruent","Incongruent","Congruent","Congruent","Congruent","Congruent","Congruent","Incongruent","Congruent","Congruent","Congruent","Congruent","Incongruent","Congruent","Congruent","Incongruent","Incongruent","Congruent","Incongruent","Incongruent","Incongruent","Congruent","Congruent","Congruent","Incongruent","Congruent","Congruent","Congruent","Incongruent","Congruent","Incongruent","Congruent","Incongruent","Incongruent","Congruent","Incongruent","Congruent","Incongruent","Incongruent","Incongruent","Incongruent","Congruent","Incongruent","Incongruent","Congruent","Congruent","Congruent","Congruent","Incongruent","Incongruent","Incongruent","Congruent","Incongruent","Incongruent","Incongruent"],"ratio_trial":[200,300,200,200,200,200,100,100,300,100,300,100,300,200,100,100,300,200,100,100,300,200,200,200,300,100,200,300,100,300,200,200,200,200,100,100,100,100,200,300,200,100,100,100,100,200,100,100,200,100,100,100,100,300,300,200,300,200,200,200,300,100,200,200,100,100,200,100,300,100,300,100,100,100,300,300,300,300,100,300,100,200,300,300,200,100,200,300,200,200,200,300,300,200,100,300,200,300,300,200,300,200,300,300,300,300,100,200,200,200,300,300,100,300,100,100,200,300,300,300],"left_num":[7,20,3,8,13,12,2,8,20,11,4,4,12,7,17,3,7,7,8,3,24,7,3,7,7,7,1,3,11,20,14,7,3,4,6,6,11,9,9,13,7,1,13,3,13,3,8,8,3,2,8,9,1,13,3,12,1,3,20,7,13,9,15,1,10,11,7,6,1,1,20,1,17,9,1,11,1,1,4,2,8,1,1,4,1,3,8,20,3,7,3,20,1,7,12,4,9,8,2,7,1,8,7,13,8,4,2,3,9,9,5,3,2,4,6,6,3,8,4,13],"right_num":[4,9,11,7,14,6,6,6,9,9,2,8,2,8,10,4,20,14,6,8,8,2,14,12,8,9,3,4,6,9,6,14,1,14,3,3,9,8,4,12,8,3,6,2,12,14,2,2,11,11,1,13,3,12,11,6,8,14,9,6,12,20,4,3,9,4,6,5,19,18,8,18,10,8,7,1,11,3,15,10,6,2,11,6,3,8,2,13,14,12,7,5,19,14,13,2,4,9,6,2,2,7,8,12,14,2,6,11,8,4,7,4,6,2,11,3,7,9,2,12],"left_den":[15,25,10,15,26,20,5,16,25,22,20,8,24,10,30,20,14,10,16,5,30,21,10,10,10,14,2,6,22,25,30,10,10,6,12,12,22,15,20,26,10,2,26,6,26,10,16,16,4,5,20,15,2,26,12,20,30,10,25,15,26,10,25,2,25,22,15,20,3,2,25,2,30,15,20,22,5,2,10,20,16,3,5,5,2,5,15,25,10,10,10,25,3,10,30,20,20,10,4,21,2,15,10,26,10,20,5,4,15,20,25,6,5,20,10,12,10,10,20,26],"right_den":[6,18,22,21,20,15,12,10,18,15,4,20,10,16,15,16,25,28,10,16,16,15,28,24,20,15,10,20,15,18,9,28,2,30,5,5,15,16,16,15,16,5,10,5,20,28,5,5,20,22,2,26,5,15,20,15,24,28,15,9,15,25,10,10,18,10,9,25,30,30,16,30,15,16,20,5,22,15,30,25,10,15,22,12,10,16,6,26,28,24,14,10,30,28,26,4,16,18,30,15,10,21,20,15,28,4,12,20,10,16,14,5,12,4,22,5,14,18,4,15],"correct_side":[2,1,2,1,2,1,2,2,1,2,2,1,1,1,2,2,2,1,2,1,1,1,2,1,1,2,1,1,1,1,2,1,2,1,2,2,2,1,1,2,1,2,2,1,2,2,1,1,1,2,2,1,2,2,2,1,2,2,1,2,2,1,1,1,2,1,2,1,2,2,1,2,2,1,2,1,2,1,2,2,2,1,2,1,1,1,1,1,2,1,2,1,2,1,2,2,1,1,1,1,1,1,1,2,1,2,2,1,2,1,2,2,2,2,1,2,2,1,2,2],"img_shown":["img2/200/Incongruent/R/I_Dist_200_LN_7_LD_15_RN_4_RD_6_1.png","img2/300/Congruent/L/C_Dist_300_LN_20_LD_25_RN_9_RD_18_0.png","img2/200/Congruent/R/C_Dist_200_LN_3_LD_10_RN_11_RD_22_1.png","img2/200/Congruent/L/C_Dist_200_LN_8_LD_15_RN_7_RD_21_0.png","img2/200/Congruent/R/C_Dist_200_LN_13_LD_26_RN_14_RD_20_1.png","img2/200/Congruent/L/C_Dist_200_LN_12_LD_20_RN_6_RD_15_0.png","img2/100/Congruent/R/C_Dist_100_LN_2_LD_5_RN_6_RD_12_1.png","img2/100/Incongruent/R/I_Dist_100_LN_8_LD_16_RN_6_RD_10_1.png","img2/300/Congruent/L/C_Dist_300_LN_20_LD_25_RN_9_RD_18_0.png","img2/100/Incongruent/R/I_Dist_100_LN_11_LD_22_RN_9_RD_15_1.png","img2/300/Incongruent/R/I_Dist_300_LN_4_LD_20_RN_2_RD_4_1.png","img2/100/Incongruent/L/I_Dist_100_LN_4_LD_8_RN_8_RD_20_0.png","img2/300/Congruent/L/C_Dist_300_LN_12_LD_24_RN_2_RD_10_0.png","img2/200/Incongruent/L/I_Dist_200_LN_7_LD_10_RN_8_RD_16_0.png","img2/100/Incongruent/R/I_Dist_100_LN_17_LD_30_RN_10_RD_15_1.png","img2/100/Congruent/R/C_Dist_100_LN_3_LD_20_RN_4_RD_16_1.png","img2/300/Congruent/R/C_Dist_300_LN_7_LD_14_RN_20_RD_25_1.png","img2/200/Incongruent/L/I_Dist_200_LN_7_LD_10_RN_14_RD_28_0.png","img2/100/Incongruent/R/I_Dist_100_LN_8_LD_16_RN_6_RD_10_1.png","img2/100/Incongruent/L/I_Dist_100_LN_3_LD_5_RN_8_RD_16_0.png","img2/300/Congruent/L/C_Dist_300_LN_24_LD_30_RN_8_RD_16_0.png","img2/200/Congruent/L/C_Dist_200_LN_7_LD_21_RN_2_RD_15_0.png","img2/200/Congruent/R/C_Dist_200_LN_3_LD_10_RN_14_RD_28_1.png","img2/200/Incongruent/L/I_Dist_200_LN_7_LD_10_RN_12_RD_24_0.png","img2/300/Incongruent/L/I_Dist_300_LN_7_LD_10_RN_8_RD_20_0.png","img2/100/Congruent/R/C_Dist_100_LN_7_LD_14_RN_9_RD_15_1.png","img2/200/Incongruent/L/I_Dist_200_LN_1_LD_2_RN_3_RD_10_0.png","img2/300/Incongruent/L/I_Dist_300_LN_3_LD_6_RN_4_RD_20_0.png","img2/100/Congruent/L/C_Dist_100_LN_11_LD_22_RN_6_RD_15_0.png","img2/300/Congruent/L/C_Dist_300_LN_20_LD_25_RN_9_RD_18_0.png","img2/200/Incongruent/R/I_Dist_200_LN_14_LD_30_RN_6_RD_9_1.png","img2/200/Incongruent/L/I_Dist_200_LN_7_LD_10_RN_14_RD_28_0.png","img2/200/Incongruent/R/I_Dist_200_LN_3_LD_10_RN_1_RD_2_1.png","img2/200/Incongruent/L/I_Dist_200_LN_4_LD_6_RN_14_RD_30_0.png","img2/100/Incongruent/R/I_Dist_100_LN_6_LD_12_RN_3_RD_5_1.png","img2/100/Incongruent/R/I_Dist_100_LN_6_LD_12_RN_3_RD_5_1.png","img2/100/Incongruent/R/I_Dist_100_LN_11_LD_22_RN_9_RD_15_1.png","img2/100/Congruent/L/C_Dist_100_LN_9_LD_15_RN_8_RD_16_0.png","img2/200/Congruent/L/C_Dist_200_LN_9_LD_20_RN_4_RD_16_0.png","img2/300/Incongruent/R/I_Dist_300_LN_13_LD_26_RN_12_RD_15_1.png","img2/200/Incongruent/L/I_Dist_200_LN_7_LD_10_RN_8_RD_16_0.png","img2/100/Congruent/R/C_Dist_100_LN_1_LD_2_RN_3_RD_5_1.png","img2/100/Incongruent/R/I_Dist_100_LN_13_LD_26_RN_6_RD_10_1.png","img2/100/Congruent/L/C_Dist_100_LN_3_LD_6_RN_2_RD_5_0.png","img2/100/Incongruent/R/I_Dist_100_LN_13_LD_26_RN_12_RD_20_1.png","img2/200/Congruent/R/C_Dist_200_LN_3_LD_10_RN_14_RD_28_1.png","img2/100/Congruent/L/C_Dist_100_LN_8_LD_16_RN_2_RD_5_0.png","img2/100/Congruent/L/C_Dist_100_LN_8_LD_16_RN_2_RD_5_0.png","img2/200/Incongruent/L/I_Dist_200_LN_3_LD_4_RN_11_RD_20_0.png","img2/100/Congruent/R/C_Dist_100_LN_2_LD_5_RN_11_RD_22_1.png","img2/100/Incongruent/R/I_Dist_100_LN_8_LD_20_RN_1_RD_2_1.png","img2/100/Incongruent/L/I_Dist_100_LN_9_LD_15_RN_13_RD_26_0.png","img2/100/Congruent/R/C_Dist_100_LN_1_LD_2_RN_3_RD_5_1.png","img2/300/Incongruent/R/I_Dist_300_LN_13_LD_26_RN_12_RD_15_1.png","img2/300/Congruent/R/C_Dist_300_LN_3_LD_12_RN_11_RD_20_1.png","img2/200/Congruent/L/C_Dist_200_LN_12_LD_20_RN_6_RD_15_0.png","img2/300/Congruent/R/C_Dist_300_LN_1_LD_30_RN_8_RD_24_1.png","img2/200/Congruent/R/C_Dist_200_LN_3_LD_10_RN_14_RD_28_1.png","img2/200/Congruent/L/C_Dist_200_LN_20_LD_25_RN_9_RD_15_0.png","img2/200/Incongruent/R/I_Dist_200_LN_7_LD_15_RN_6_RD_9_1.png","img2/300/Incongruent/R/I_Dist_300_LN_13_LD_26_RN_12_RD_15_1.png","img2/100/Incongruent/L/I_Dist_100_LN_9_LD_10_RN_20_RD_25_0.png","img2/200/Congruent/L/C_Dist_200_LN_15_LD_25_RN_4_RD_10_0.png","img2/200/Incongruent/L/I_Dist_200_LN_1_LD_2_RN_3_RD_10_0.png","img2/100/Incongruent/R/I_Dist_100_LN_10_LD_25_RN_9_RD_18_1.png","img2/100/Congruent/L/C_Dist_100_LN_11_LD_22_RN_4_RD_10_0.png","img2/200/Incongruent/R/I_Dist_200_LN_7_LD_15_RN_6_RD_9_1.png","img2/100/Congruent/L/C_Dist_100_LN_6_LD_20_RN_5_RD_25_0.png","img2/300/Congruent/R/C_Dist_300_LN_1_LD_3_RN_19_RD_30_1.png","img2/100/Congruent/R/C_Dist_100_LN_1_LD_2_RN_18_RD_30_1.png","img2/300/Congruent/L/C_Dist_300_LN_20_LD_25_RN_8_RD_16_0.png","img2/100/Congruent/R/C_Dist_100_LN_1_LD_2_RN_18_RD_30_1.png","img2/100/Incongruent/R/I_Dist_100_LN_17_LD_30_RN_10_RD_15_1.png","img2/100/Congruent/L/C_Dist_100_LN_9_LD_15_RN_8_RD_16_0.png","img2/300/Congruent/R/C_Dist_300_LN_1_LD_20_RN_7_RD_20_1.png","img2/300/Congruent/L/C_Dist_300_LN_11_LD_22_RN_1_RD_5_0.png","img2/300/Congruent/R/C_Dist_300_LN_1_LD_5_RN_11_RD_22_1.png","img2/300/Incongruent/L/I_Dist_300_LN_1_LD_2_RN_3_RD_15_0.png","img2/100/Congruent/R/C_Dist_100_LN_4_LD_10_RN_15_RD_30_1.png","img2/300/Congruent/R/C_Dist_300_LN_2_LD_20_RN_10_RD_25_1.png","img2/100/Incongruent/R/I_Dist_100_LN_8_LD_16_RN_6_RD_10_1.png","img2/200/Incongruent/L/I_Dist_200_LN_1_LD_3_RN_2_RD_15_0.png","img2/300/Congruent/R/C_Dist_300_LN_1_LD_5_RN_11_RD_22_1.png","img2/300/Incongruent/L/I_Dist_300_LN_4_LD_5_RN_6_RD_12_0.png","img2/200/Incongruent/L/I_Dist_200_LN_1_LD_2_RN_3_RD_10_0.png","img2/100/Incongruent/L/I_Dist_100_LN_3_LD_5_RN_8_RD_16_0.png","img2/200/Congruent/L/C_Dist_200_LN_8_LD_15_RN_2_RD_6_0.png","img2/300/Congruent/L/C_Dist_300_LN_20_LD_25_RN_13_RD_26_0.png","img2/200/Congruent/R/C_Dist_200_LN_3_LD_10_RN_14_RD_28_1.png","img2/200/Incongruent/L/I_Dist_200_LN_7_LD_10_RN_12_RD_24_0.png","img2/200/Congruent/R/C_Dist_200_LN_3_LD_10_RN_7_RD_14_1.png","img2/300/Congruent/L/C_Dist_300_LN_20_LD_25_RN_5_RD_10_0.png","img2/300/Congruent/R/C_Dist_300_LN_1_LD_3_RN_19_RD_30_1.png","img2/200/Incongruent/L/I_Dist_200_LN_7_LD_10_RN_14_RD_28_0.png","img2/100/Congruent/R/C_Dist_100_LN_12_LD_30_RN_13_RD_26_1.png","img2/300/Incongruent/R/I_Dist_300_LN_4_LD_20_RN_2_RD_4_1.png","img2/200/Congruent/L/C_Dist_200_LN_9_LD_20_RN_4_RD_16_0.png","img2/300/Incongruent/L/I_Dist_300_LN_8_LD_10_RN_9_RD_18_0.png","img2/300/Incongruent/L/I_Dist_300_LN_2_LD_4_RN_6_RD_30_0.png","img2/200/Congruent/L/C_Dist_200_LN_7_LD_21_RN_2_RD_15_0.png","img2/300/Incongruent/L/I_Dist_300_LN_1_LD_2_RN_2_RD_10_0.png","img2/200/Congruent/L/C_Dist_200_LN_8_LD_15_RN_7_RD_21_0.png","img2/300/Incongruent/L/I_Dist_300_LN_7_LD_10_RN_8_RD_20_0.png","img2/300/Incongruent/R/I_Dist_300_LN_13_LD_26_RN_12_RD_15_1.png","img2/300/Incongruent/L/I_Dist_300_LN_8_LD_10_RN_14_RD_28_0.png","img2/300/Incongruent/R/I_Dist_300_LN_4_LD_20_RN_2_RD_4_1.png","img2/100/Congruent/R/C_Dist_100_LN_2_LD_5_RN_6_RD_12_1.png","img2/200/Incongruent/L/I_Dist_200_LN_3_LD_4_RN_11_RD_20_0.png","img2/200/Incongruent/R/I_Dist_200_LN_9_LD_15_RN_8_RD_10_1.png","img2/200/Congruent/L/C_Dist_200_LN_9_LD_20_RN_4_RD_16_0.png","img2/300/Congruent/R/C_Dist_300_LN_5_LD_25_RN_7_RD_14_1.png","img2/300/Congruent/R/C_Dist_300_LN_3_LD_6_RN_4_RD_5_1.png","img2/100/Congruent/R/C_Dist_100_LN_2_LD_5_RN_6_RD_12_1.png","img2/300/Incongruent/R/I_Dist_300_LN_4_LD_20_RN_2_RD_4_1.png","img2/100/Incongruent/L/I_Dist_100_LN_6_LD_10_RN_11_RD_22_0.png","img2/100/Incongruent/R/I_Dist_100_LN_6_LD_12_RN_3_RD_5_1.png","img2/200/Congruent/R/C_Dist_200_LN_3_LD_10_RN_7_RD_14_1.png","img2/300/Incongruent/L/I_Dist_300_LN_8_LD_10_RN_9_RD_18_0.png","img2/300/Incongruent/R/I_Dist_300_LN_4_LD_20_RN_2_RD_4_1.png","img2/300/Incongruent/R/I_Dist_300_LN_13_LD_26_RN_12_RD_15_1.png"],"dist100_C":[["C_Dist_100_LN_10_LD_25_RN_3_RD_10_0.png","C_Dist_100_LN_11_LD_22_RN_4_RD_10_0.png","C_Dist_100_LN_11_LD_22_RN_6_RD_15_0.png","C_Dist_100_LN_15_LD_25_RN_13_RD_26_0.png","C_Dist_100_LN_3_LD_6_RN_2_RD_5_0.png","C_Dist_100_LN_6_LD_20_RN_5_RD_25_0.png","C_Dist_100_LN_8_LD_16_RN_2_RD_5_0.png","C_Dist_100_LN_9_LD_15_RN_8_RD_16_0.png"],["C_Dist_100_LN_1_LD_2_RN_18_RD_30_1.png","C_Dist_100_LN_1_LD_2_RN_3_RD_5_1.png","C_Dist_100_LN_12_LD_30_RN_13_RD_26_1.png","C_Dist_100_LN_2_LD_5_RN_11_RD_22_1.png","C_Dist_100_LN_2_LD_5_RN_6_RD_12_1.png","C_Dist_100_LN_3_LD_20_RN_4_RD_16_1.png","C_Dist_100_LN_4_LD_10_RN_15_RD_30_1.png","C_Dist_100_LN_4_LD_8_RN_6_RD_10_1.png","C_Dist_100_LN_6_LD_12_RN_15_RD_25_1.png","C_Dist_100_LN_7_LD_14_RN_15_RD_25_1.png","C_Dist_100_LN_7_LD_14_RN_9_RD_15_1.png"]],"dist100_I":[["I_Dist_100_LN_1_LD_2_RN_8_RD_20_0.png","I_Dist_100_LN_2_LD_4_RN_6_RD_15_0.png","I_Dist_100_LN_2_LD_4_RN_8_RD_20_0.png","I_Dist_100_LN_3_LD_5_RN_11_RD_22_0.png","I_Dist_100_LN_3_LD_5_RN_8_RD_16_0.png","I_Dist_100_LN_3_LD_6_RN_4_RD_10_0.png","I_Dist_100_LN_3_LD_9_RN_7_RD_30_0.png","I_Dist_100_LN_4_LD_8_RN_8_RD_20_0.png","I_Dist_100_LN_6_LD_10_RN_11_RD_22_0.png","I_Dist_100_LN_6_LD_10_RN_13_RD_26_0.png","I_Dist_100_LN_6_LD_10_RN_7_RD_14_0.png","I_Dist_100_LN_9_LD_10_RN_20_RD_25_0.png","I_Dist_100_LN_9_LD_15_RN_13_RD_26_0.png","I_Dist_100_LN_9_LD_15_RN_14_RD_28_0.png"],["I_Dist_100_LN_10_LD_25_RN_8_RD_16_1.png","I_Dist_100_LN_10_LD_25_RN_9_RD_18_1.png","I_Dist_100_LN_11_LD_22_RN_9_RD_15_1.png","I_Dist_100_LN_12_LD_24_RN_9_RD_15_1.png","I_Dist_100_LN_12_LD_30_RN_2_RD_4_1.png","I_Dist_100_LN_13_LD_26_RN_12_RD_20_1.png","I_Dist_100_LN_13_LD_26_RN_6_RD_10_1.png","I_Dist_100_LN_17_LD_30_RN_10_RD_15_1.png","I_Dist_100_LN_6_LD_12_RN_3_RD_5_1.png","I_Dist_100_LN_8_LD_16_RN_6_RD_10_1.png","I_Dist_100_LN_8_LD_20_RN_1_RD_2_1.png","I_Dist_100_LN_9_LD_18_RN_6_RD_10_1.png"]],"dist100_S":[["E_Dist_100_LN_2_LD_12_RN_2_RD_30_0.png","E_Dist_100_LN_6_LD_10_RN_6_RD_12_0.png"],["E_Dist_100_LN_6_LD_12_RN_6_RD_10_1.png"]],"dist200_C":[["C_Dist_200_LN_11_LD_22_RN_3_RD_10_0.png","C_Dist_200_LN_12_LD_15_RN_6_RD_10_0.png","C_Dist_200_LN_12_LD_20_RN_6_RD_15_0.png","C_Dist_200_LN_14_LD_28_RN_6_RD_20_0.png","C_Dist_200_LN_15_LD_25_RN_4_RD_10_0.png","C_Dist_200_LN_16_LD_20_RN_12_RD_20_0.png","C_Dist_200_LN_16_LD_30_RN_9_RD_27_0.png","C_Dist_200_LN_20_LD_25_RN_9_RD_15_0.png","C_Dist_200_LN_21_LD_30_RN_2_RD_4_0.png","C_Dist_200_LN_4_LD_10_RN_3_RD_15_0.png","C_Dist_200_LN_4_LD_8_RN_3_RD_10_0.png","C_Dist_200_LN_6_LD_15_RN_3_RD_15_0.png","C_Dist_200_LN_7_LD_21_RN_2_RD_15_0.png","C_Dist_200_LN_8_LD_15_RN_2_RD_6_0.png","C_Dist_200_LN_8_LD_15_RN_3_RD_9_0.png","C_Dist_200_LN_8_LD_15_RN_7_RD_21_0.png","C_Dist_200_LN_9_LD_20_RN_4_RD_16_0.png"],["C_Dist_200_LN_1_LD_2_RN_21_RD_30_1.png","C_Dist_200_LN_13_LD_26_RN_14_RD_20_1.png","C_Dist_200_LN_3_LD_10_RN_11_RD_22_1.png","C_Dist_200_LN_3_LD_10_RN_14_RD_28_1.png","C_Dist_200_LN_3_LD_10_RN_7_RD_14_1.png","C_Dist_200_LN_3_LD_12_RN_9_RD_20_1.png","C_Dist_200_LN_3_LD_6_RN_14_RD_20_1.png","C_Dist_200_LN_5_LD_10_RN_14_RD_20_1.png","C_Dist_200_LN_6_LD_12_RN_7_RD_10_1.png","C_Dist_200_LN_6_LD_20_RN_11_RD_22_1.png","C_Dist_200_LN_7_LD_15_RN_18_RD_27_1.png","C_Dist_200_LN_9_LD_30_RN_13_RD_26_1.png"]],"dist200_I":[["I_Dist_200_LN_1_LD_2_RN_3_RD_10_0.png","I_Dist_200_LN_1_LD_3_RN_2_RD_15_0.png","I_Dist_200_LN_3_LD_4_RN_11_RD_20_0.png","I_Dist_200_LN_4_LD_5_RN_6_RD_10_0.png","I_Dist_200_LN_4_LD_6_RN_14_RD_30_0.png","I_Dist_200_LN_7_LD_10_RN_12_RD_24_0.png","I_Dist_200_LN_7_LD_10_RN_14_RD_28_0.png","I_Dist_200_LN_7_LD_10_RN_8_RD_16_0.png"],["I_Dist_200_LN_11_LD_20_RN_3_RD_4_1.png","I_Dist_200_LN_14_LD_30_RN_12_RD_18_1.png","I_Dist_200_LN_14_LD_30_RN_6_RD_9_1.png","I_Dist_200_LN_3_LD_10_RN_1_RD_2_1.png","I_Dist_200_LN_4_LD_30_RN_1_RD_3_1.png","I_Dist_200_LN_6_LD_20_RN_3_RD_6_1.png","I_Dist_200_LN_7_LD_15_RN_4_RD_6_1.png","I_Dist_200_LN_7_LD_15_RN_6_RD_9_1.png","I_Dist_200_LN_9_LD_15_RN_8_RD_10_1.png"]],"dist200_S":[["E_Dist_200_LN_3_LD_6_RN_3_RD_10_0.png"],["E_Dist_200_LN_3_LD_10_RN_3_RD_6_1.png"]],"dist300_C":[["C_Dist_300_LN_11_LD_22_RN_1_RD_5_0.png","C_Dist_300_LN_11_LD_22_RN_2_RD_10_0.png","C_Dist_300_LN_11_LD_22_RN_4_RD_20_0.png","C_Dist_300_LN_12_LD_24_RN_2_RD_10_0.png","C_Dist_300_LN_18_LD_20_RN_9_RD_15_0.png","C_Dist_300_LN_20_LD_25_RN_13_RD_26_0.png","C_Dist_300_LN_20_LD_25_RN_14_RD_28_0.png","C_Dist_300_LN_20_LD_25_RN_5_RD_10_0.png","C_Dist_300_LN_20_LD_25_RN_8_RD_16_0.png","C_Dist_300_LN_20_LD_25_RN_9_RD_18_0.png","C_Dist_300_LN_24_LD_30_RN_2_RD_4_0.png","C_Dist_300_LN_24_LD_30_RN_8_RD_16_0.png","C_Dist_300_LN_3_LD_6_RN_2_RD_10_0.png","C_Dist_300_LN_4_LD_10_RN_1_RD_10_0.png","C_Dist_300_LN_4_LD_5_RN_2_RD_4_0.png","C_Dist_300_LN_8_LD_16_RN_1_RD_5_0.png","C_Dist_300_LN_9_LD_10_RN_3_RD_5_0.png"],["C_Dist_300_LN_1_LD_20_RN_7_RD_20_1.png","C_Dist_300_LN_1_LD_3_RN_19_RD_30_1.png","C_Dist_300_LN_1_LD_30_RN_8_RD_24_1.png","C_Dist_300_LN_1_LD_5_RN_11_RD_22_1.png","C_Dist_300_LN_1_LD_5_RN_3_RD_6_1.png","C_Dist_300_LN_1_LD_5_RN_6_RD_12_1.png","C_Dist_300_LN_2_LD_10_RN_12_RD_24_1.png","C_Dist_300_LN_2_LD_20_RN_10_RD_25_1.png","C_Dist_300_LN_3_LD_12_RN_11_RD_20_1.png","C_Dist_300_LN_3_LD_6_RN_4_RD_5_1.png","C_Dist_300_LN_4_LD_20_RN_13_RD_26_1.png","C_Dist_300_LN_5_LD_25_RN_6_RD_12_1.png","C_Dist_300_LN_5_LD_25_RN_7_RD_14_1.png","C_Dist_300_LN_7_LD_14_RN_20_RD_25_1.png","C_Dist_300_LN_8_LD_15_RN_10_RD_12_1.png"]],"dist300_I":[["I_Dist_300_LN_1_LD_2_RN_2_RD_10_0.png","I_Dist_300_LN_1_LD_2_RN_3_RD_15_0.png","I_Dist_300_LN_2_LD_4_RN_6_RD_30_0.png","I_Dist_300_LN_3_LD_6_RN_4_RD_20_0.png","I_Dist_300_LN_4_LD_5_RN_6_RD_12_0.png","I_Dist_300_LN_4_LD_5_RN_8_RD_16_0.png","I_Dist_300_LN_7_LD_10_RN_8_RD_20_0.png","I_Dist_300_LN_8_LD_10_RN_14_RD_28_0.png","I_Dist_300_LN_8_LD_10_RN_9_RD_18_0.png"],["I_Dist_300_LN_13_LD_26_RN_12_RD_15_1.png","I_Dist_300_LN_4_LD_20_RN_2_RD_4_1.png"]],"dist300_S":[["E_Dist_300_LN_9_LD_12_RN_9_RD_20_0.png"],["E_Dist_300_LN_18_LD_30_RN_18_RD_20_1.png","E_Dist_300_LN_3_LD_10_RN_3_RD_5_1.png","E_Dist_300_LN_9_LD_20_RN_9_RD_12_1.png"]],"dist500_C":[["C_Dist_500_LN_10_LD_13_RN_7_RD_26_0.png","C_Dist_500_LN_10_LD_15_RN_4_RD_24_0.png","C_Dist_500_LN_12_LD_16_RN_3_RD_12_0.png","C_Dist_500_LN_12_LD_18_RN_4_RD_24_0.png","C_Dist_500_LN_15_LD_18_RN_5_RD_15_0.png","C_Dist_500_LN_15_LD_20_RN_1_RD_4_0.png","C_Dist_500_LN_18_LD_27_RN_1_RD_6_0.png","C_Dist_500_LN_20_LD_24_RN_1_RD_3_0.png","C_Dist_500_LN_20_LD_24_RN_3_RD_9_0.png","C_Dist_500_LN_20_LD_24_RN_7_RD_21_0.png","C_Dist_500_LN_20_LD_28_RN_3_RD_14_0.png","C_Dist_500_LN_21_LD_28_RN_6_RD_24_0.png","C_Dist_500_LN_22_LD_28_RN_2_RD_7_0.png","C_Dist_500_LN_25_LD_30_RN_9_RD_27_0.png","C_Dist_500_LN_4_LD_6_RN_1_RD_6_0.png","C_Dist_500_LN_5_LD_6_RN_2_RD_6_0.png","C_Dist_500_LN_6_LD_9_RN_1_RD_6_0.png","C_Dist_500_LN_7_LD_10_RN_1_RD_5_0.png","C_Dist_500_LN_8_LD_12_RN_1_RD_6_0.png","C_Dist_500_LN_8_LD_12_RN_4_RD_24_0.png"],["C_Dist_500_LN_1_LD_4_RN_12_RD_16_1.png","C_Dist_500_LN_1_LD_4_RN_9_RD_12_1.png","C_Dist_500_LN_1_LD_9_RN_11_RD_18_1.png","C_Dist_500_LN_10_LD_24_RN_22_RD_24_1.png","C_Dist_500_LN_2_LD_12_RN_10_RD_15_1.png","C_Dist_500_LN_2_LD_12_RN_12_RD_18_1.png","C_Dist_500_LN_2_LD_12_RN_4_RD_6_1.png","C_Dist_500_LN_2_LD_24_RN_7_RD_12_1.png","C_Dist_500_LN_2_LD_5_RN_18_RD_20_1.png","C_Dist_500_LN_2_LD_5_RN_9_RD_10_1.png","C_Dist_500_LN_2_LD_8_RN_12_RD_16_1.png","C_Dist_500_LN_2_LD_8_RN_21_RD_28_1.png","C_Dist_500_LN_3_LD_10_RN_4_RD_5_1.png","C_Dist_500_LN_3_LD_12_RN_15_RD_20_1.png","C_Dist_500_LN_3_LD_30_RN_6_RD_10_1.png","C_Dist_500_LN_3_LD_8_RN_14_RD_16_1.png","C_Dist_500_LN_4_LD_16_RN_15_RD_20_1.png","C_Dist_500_LN_4_LD_24_RN_12_RD_18_1.png","C_Dist_500_LN_5_LD_14_RN_6_RD_7_1.png","C_Dist_500_LN_7_LD_21_RN_20_RD_24_1.png","C_Dist_500_LN_7_LD_28_RN_12_RD_16_1.png","C_Dist_500_LN_7_LD_28_RN_9_RD_12_1.png","C_Dist_500_LN_9_LD_27_RN_20_RD_24_1.png"]],"dist500_I":[["I_Dist_500_LN_2_LD_3_RN_4_RD_24_0.png","I_Dist_500_LN_5_LD_6_RN_6_RD_18_0.png","I_Dist_500_LN_7_LD_8_RN_9_RD_24_0.png"],["I_Dist_500_LN_7_LD_21_RN_5_RD_6_1.png"]],"dist500_S":[["E_Dist_500_LN_6_LD_8_RN_6_RD_24_0.png"],["E_Dist_500_LN_2_LD_12_RN_2_RD_3_1.png","E_Dist_500_LN_6_LD_24_RN_6_RD_8_1.png"]]}},{"start_time":1551886953752,"click_time":1551886956461,"finger_time":1551886955100,"fix_duration":430.39262987022806,"trial":1,"RT":1348,"MT":1361,"sideResp":1,"stimulus":[],"xmouse":[768,768,768,768,768,768,768,768,768,768,768,768,768,768,768,768,768,768,768,768,768,768,768,768,768,768,768,768,768,768,768,768,768,768,768,768,768,768,768,768,768,768,768,768,768,768,768,768,768,768,768,768,768,768,768,768,768,768,768,768,768,768,768,768,766,763,751,714,690,672,660,651,649,648,648,647,644,642,640,638,635,627,623,619,615,610,601,598,592,587,584,581,581,582,584,587,589,590,590,593,594,596,596,596,593,592,591,591,591,591,604,633,681,681,681,681,681,681,681,681,681,681,681,681,681,681,685,686,680,659,628,604,561,545,532,523],"ymouse":[520,520,520,520,520,520,520,520,520,520,520,520,520,520,520,520,520,520,520,520,520,520,520,520,520,520,520,520,520,520,520,520,520,520,520,520,520,520,520,520,520,520,520,520,520,520,520,520,520,520,520,520,520,520,520,520,520,520,520,520,520,520,520,520,513,507,487,422,379,339,310,268,260,256,253,251,247,242,237,232,225,200,190,181,171,160,146,140,131,119,109,89,78,72,65,59,46,40,36,31,28,24,23,22,21,20,20,20,20,20,25,37,57,57,57,57,57,57,57,57,57,57,57,57,57,57,57,55,48,39,33,29,25,23,21,19],"timestamp_mouse":[8,29,57,67,88,108,128,148,168,189,209,227,248,268,288,309,328,348,368,389,407,429,449,468,488,509,527,549,568,589,608,628,648,668,688,709,729,748,768,788,808,828,848,868,889,909,928,949,968,988,1009,1029,1048,1068,1088,1108,1129,1148,1169,1189,1208,1229,1249,1268,1289,1309,1328,1348,1369,1388,1409,1428,1448,1468,1488,1508,1528,1548,1568,1588,1608,1628,1648,1668,1689,1708,1728,1747,1768,1788,1809,1829,1848,1868,1889,1908,1929,1948,1968,1988,2008,2029,2048,2068,2087,2108,2129,2148,2168,2188,2209,2228,2249,2268,2288,2309,2328,2348,2368,2389,2408,2428,2449,2468,2488,2508,2529,2548,2569,2588,2608,2627,2649,2668,2689,2708],"xSR":741.5,"ySR":469.95,"xT1":424.9,"yT1":0,"xT2":1058.1,"yT2":0,"toosoon":0,"cond_shown":"Congruent","ratio_trial":300,"L_num":20,"L_den":25,"R_num":9,"R_den":18,"correct_side":1,"subjID":"juancamiloregaladoniño27","gender":"0","school":"6","age":"11"},{"start_time":1551886959482,"click_time":1551886961581,"finger_time":1551886961000,"fix_duration":920.2599577016008,"trial":2,"RT":1518,"MT":581,"sideResp":2,"stimulus":[],"xmouse":[775,775,775,775,775,775,775,775,775,775,775,775,775,775,775,775,775,775,775,775,775,775,775,775,775,775,775,775,775,775,775,775,775,775,775,775,775,775,775,775,775,775,775,775,775,775,775,775,775,775,775,775,775,775,775,775,775,775,775,775,775,775,775,775,775,775,775,775,775,775,775,774,774,781,797,811,826,845,869,901,947,968,984,996,1021,1027,1031,1033,1034,1036,1037,1040,1042,1044,1048,1057,1061,1066,1072,1078,1091,1098,1104,1111,1125],"ymouse":[506,506,506,506,506,506,506,506,506,506,506,506,506,506,506,506,506,506,506,506,506,506,506,506,506,506,506,506,506,506,506,506,506,506,506,506,506,506,506,506,506,506,506,506,506,506,506,506,506,506,506,506,506,506,506,506,506,506,506,506,506,506,506,506,506,506,506,506,506,506,506,506,504,497,482,469,454,436,416,390,343,312,288,266,227,218,212,209,207,203,202,199,195,191,185,173,168,161,154,148,136,129,121,111,83],"timestamp_mouse":[18,41,59,79,99,118,138,157,178,197,218,237,259,277,298,318,338,358,379,398,418,438,458,477,498,518,539,558,578,598,619,639,659,678,699,719,739,758,779,799,818,838,858,878,899,918,937,958,979,997,1018,1039,1058,1079,1098,1118,1138,1158,1178,1198,1218,1239,1258,1278,1299,1319,1338,1359,1377,1398,1419,1439,1459,1479,1498,1518,1538,1558,1579,1599,1619,1638,1658,1679,1698,1717,1738,1759,1777,1799,1817,1838,1858,1877,1899,1918,1938,1958,1978,1998,2018,2038,2058,2079,2098],"xSR":741.5,"ySR":469.95,"xT1":424.9,"yT1":0,"xT2":1058.1,"yT2":0,"toosoon":0,"cond_shown":"Congruent","ratio_trial":200,"L_num":3,"L_den":10,"R_num":11,"R_den":22,"correct_side":2,"subjID":"juancamiloregaladoniño27","gender":"0","school":"6","age":"11"},{"start_time":1551886964201,"click_time":1551886966321,"finger_time":1551886965780,"fix_duration":700.5771947428218,"trial":3,"RT":1579,"MT":541,"sideResp":1,"stimulus":[],"xmouse":[798,798,798,798,798,798,798,798,798,798,798,798,798,798,798,798,798,798,798,798,798,798,798,798,798,798,798,798,798,798,798,798,798,798,798,798,798,798,798,798,798,798,798,798,798,798,798,798,798,798,798,798,798,798,798,798,798,798,798,798,798,798,798,798,798,798,798,798,798,798,798,798,798,798,798,798,798,797,779,766,749,728,706,658,637,612,572,572,572,572,572,572,572,572,572,572,572,572,572,572,572,572,537,530,527,522],"ymouse":[503,503,503,503,503,503,503,503,503,503,503,503,503,503,503,503,503,503,503,503,503,503,503,503,503,503,503,503,503,503,503,503,503,503,503,503,503,503,503,503,503,503,503,503,503,503,503,503,503,503,503,503,503,503,504,504,504,504,504,504,504,504,504,504,504,504,504,504,504,504,504,504,504,504,504,502,500,488,453,428,395,356,319,234,178,124,26,26,26,26,26,26,26,26,26,26,26,26,26,26,26,26,0,15,20,27],"timestamp_mouse":[19,40,59,79,99,120,139,160,179,199,219,239,259,279,299,319,339,359,379,399,419,438,459,480,499,519,539,559,579,600,619,639,659,680,699,720,740,760,779,798,819,840,860,880,900,920,939,960,980,998,1018,1040,1059,1079,1100,1119,1139,1160,1179,1200,1218,1240,1259,1279,1299,1318,1340,1360,1379,1400,1420,1440,1459,1479,1500,1519,1539,1560,1579,1599,1619,1640,1659,1680,1699,1718,1739,1759,1779,1799,1819,1839,1859,1880,1900,1920,1940,1959,1980,1999,2020,2039,2060,2079,2099,2119],"xSR":741.5,"ySR":469.95,"xT1":424.9,"yT1":0,"xT2":1058.1,"yT2":0,"toosoon":0,"cond_shown":"Congruent","ratio_trial":200,"L_num":8,"L_den":15,"R_num":7,"R_den":21,"correct_side":1,"subjID":"juancamiloregaladoniño27","gender":"0","school":"6","age":"11"},{"start_time":1551886968512,"click_time":1551886970981,"finger_time":1551886970060,"fix_duration":250,"trial":4,"RT":1548,"MT":921,"sideResp":2,"stimulus":[],"xmouse":[782,782,782,782,782,782,782,782,782,782,782,782,782,782,780,779,778,777,776,776,776,776,776,776,776,776,776,776,776,776,776,776,776,776,776,776,776,776,776,776,776,776,776,776,776,776,776,776,776,776,776,776,776,776,776,776,776,776,776,776,776,776,776,776,776,776,776,776,776,776,776,776,776,776,785,803,841,908,1007,1264,1399,1465,1465,1465,1465,1465,1465,1465,1465,1465,1465,1465,1465,1465,1465,1465,1465,1465,1465,1465,1465,1465,1465,1376,1366,1357,1347,1337,1317,1312,1307,1302,1296,1278,1269,1261,1256,1248,1233,1222,1210,1194,1181,1147],"ymouse":[565,563,563,563,563,563,563,563,563,563,563,563,563,563,559,557,554,550,547,542,541,541,541,541,541,541,541,541,541,541,541,541,541,541,541,541,541,541,541,541,541,541,541,541,541,541,541,541,541,541,541,541,541,541,541,541,541,541,541,541,541,541,541,541,541,541,541,541,541,541,541,541,541,541,536,524,492,432,350,152,61,24,24,24,24,24,24,24,24,24,24,24,24,24,24,24,24,24,24,24,24,24,24,3,7,10,12,15,18,19,19,20,20,20,20,22,25,29,39,45,51,57,62,74],"timestamp_mouse":[8,28,48,69,88,109,129,148,169,187,208,229,248,268,289,308,329,348,368,388,408,429,449,467,488,508,528,548,568,589,608,628,648,668,688,709,728,748,768,788,809,829,848,868,889,908,929,948,968,988,1008,1027,1048,1069,1089,1108,1128,1148,1168,1188,1208,1228,1249,1269,1288,1309,1328,1348,1368,1389,1409,1428,1448,1468,1488,1507,1529,1548,1569,1588,1608,1628,1648,1669,1689,1709,1728,1748,1769,1789,1809,1829,1848,1869,1888,1908,1929,1949,1968,1989,2009,2028,2049,2069,2088,2108,2128,2149,2168,2187,2208,2228,2248,2269,2289,2308,2328,2348,2368,2388,2409,2428,2449,2468],"xSR":741.5,"ySR":469.95,"xT1":424.9,"yT1":0,"xT2":1058.1,"yT2":0,"toosoon":0,"cond_shown":"Congruent","ratio_trial":200,"L_num":13,"L_den":26,"R_num":14,"R_den":20,"correct_side":2,"subjID":"juancamiloregaladoniño27","gender":"0","school":"6","age":"11"},{"start_time":1551886973176,"click_time":1551886975400,"finger_time":1551886974660,"fix_duration":434.6827679925042,"trial":5,"RT":1484,"MT":740,"sideResp":1,"stimulus":[],"xmouse":[799,799,799,799,799,799,799,799,799,799,799,799,799,799,799,799,799,798,798,798,798,798,798,798,798,798,798,798,798,798,798,798,798,798,798,798,798,798,798,798,798,798,798,798,798,798,798,798,798,798,798,798,798,798,797,797,797,796,796,795,795,794,794,794,794,793,793,791,790,788,780,775,767,756,741,702,676,649,621,590,565,551,548,543,538,532,532,532,535,537,540,540,540,540,539,528,524,520,517,515,515,508,503,502,501,501,501,501,501,501,501,501],"ymouse":[510,510,510,510,510,510,510,510,510,510,510,510,510,510,510,510,510,510,510,509,509,509,509,509,509,509,509,509,509,509,509,509,509,509,509,509,509,509,509,509,509,509,509,509,509,509,509,509,509,509,509,509,509,509,509,509,509,509,509,509,509,509,509,509,509,509,509,509,509,509,507,503,498,489,479,450,429,404,378,341,310,287,278,267,259,240,232,224,215,210,198,194,192,187,182,162,152,144,137,134,130,122,119,117,116,116,115,115,113,111,109,95],"timestamp_mouse":[7,25,45,75,84,105,125,144,163,185,205,225,245,264,285,304,323,345,364,384,405,425,444,464,485,503,525,545,564,585,605,623,644,664,683,704,724,744,764,785,804,824,844,864,885,904,925,943,965,985,1004,1024,1045,1065,1084,1104,1124,1145,1164,1184,1204,1224,1244,1265,1285,1304,1324,1344,1364,1384,1404,1425,1444,1464,1484,1505,1524,1544,1564,1583,1604,1623,1644,1664,1683,1705,1723,1744,1764,1783,1804,1824,1844,1864,1884,1905,1924,1944,1964,1985,2004,2025,2043,2064,2084,2105,2123,2144,2165,2184,2205,2224],"xSR":741.5,"ySR":469.95,"xT1":424.9,"yT1":0,"xT2":1058.1,"yT2":0,"toosoon":0,"cond_shown":"Congruent","ratio_trial":200,"L_num":12,"L_den":20,"R_num":6,"R_den":15,"correct_side":1,"subjID":"juancamiloregaladoniño27","gender":"0","school":"6","age":"11"},{"start_time":1551886980341,"click_time":1551886981581,"finger_time":1551886981380,"fix_duration":1359.9074363897344,"trial":6,"RT":1039,"MT":201,"sideResp":2,"stimulus":[],"xmouse":[773,773,773,773,773,773,773,773,773,773,773,773,773,773,773,773,773,773,773,773,773,773,773,773,773,773,773,773,773,773,773,773,773,773,773,773,773,773,773,773,773,773,773,773,773,773,773,773,775,779,802,845,851,861,880,902,945,971,1001,1026,1051,1084],"ymouse":[534,534,534,534,534,534,534,534,534,534,534,534,534,534,534,534,534,534,534,534,534,534,534,534,534,534,534,534,534,534,534,534,534,534,534,534,534,534,534,534,534,534,534,534,534,534,534,534,533,531,521,499,489,471,437,398,293,241,188,141,98,36],"timestamp_mouse":[19,40,59,79,100,119,139,159,180,199,220,240,259,279,299,319,339,359,380,399,419,439,460,480,500,519,540,558,580,599,618,640,660,679,699,719,740,760,779,800,819,840,860,878,899,919,940,960,980,999,1019,1039,1059,1079,1100,1119,1139,1159,1179,1199,1220,1239],"xSR":741.5,"ySR":469.95,"xT1":424.9,"yT1":0,"xT2":1058.1,"yT2":0,"toosoon":0,"cond_shown":"Congruent","ratio_trial":100,"L_num":2,"L_den":5,"R_num":6,"R_den":12,"correct_side":2,"subjID":"juancamiloregaladoniño27","gender":"0","school":"6","age":"11"},{"start_time":1551886989258,"click_time":1551886990801,"finger_time":1551886990140,"fix_duration":1396.0363005671463,"trial":7,"RT":882,"MT":661,"sideResp":1,"stimulus":[],"xmouse":[770,770,770,770,770,770,770,770,770,770,770,770,770,770,770,770,770,770,770,770,770,770,770,770,770,770,770,770,770,770,770,770,770,770,770,768,767,766,764,762,761,752,749,745,739,733,713,700,687,672,656,631,621,612,608,603,596,585,578,570,565,559,558,557,555,553,540,532,523,515,508,499,494,489,483,479,475,476],"ymouse":[524,524,524,524,524,524,524,524,524,524,524,524,524,524,524,524,524,524,524,524,524,524,524,524,524,524,524,524,524,524,524,524,524,524,524,523,523,522,522,520,518,510,507,501,495,490,473,464,455,444,433,413,405,395,389,380,369,356,350,343,335,320,314,307,297,289,267,259,247,236,224,199,185,171,152,135,103,98],"timestamp_mouse":[7,23,43,61,82,102,122,142,163,182,201,222,242,263,283,303,322,342,362,382,402,422,443,462,482,503,522,543,562,582,603,623,643,662,682,702,722,743,761,782,802,822,842,862,882,902,922,942,962,982,1002,1023,1042,1062,1082,1103,1122,1142,1161,1183,1202,1223,1242,1263,1282,1302,1322,1341,1362,1382,1402,1423,1442,1463,1483,1503,1522,1543],"xSR":741.5,"ySR":469.95,"xT1":424.9,"yT1":0,"xT2":1058.1,"yT2":0,"toosoon":0,"cond_shown":"Incongruent","ratio_trial":100,"L_num":8,"L_den":16,"R_num":6,"R_den":10,"correct_side":2,"subjID":"juancamiloregaladoniño27","gender":"0","school":"6","age":"11"},{"start_time":1551886993371,"click_time":1551886994940,"finger_time":1551886994260,"fix_duration":609.5150743577875,"trial":8,"RT":889,"MT":680,"sideResp":1,"stimulus":[],"xmouse":[775,775,775,775,775,775,775,775,775,775,775,775,775,775,775,775,775,775,775,775,775,775,775,775,775,775,775,775,775,775,775,775,775,775,775,775,773,769,765,761,753,753,751,749,745,731,721,711,703,695,671,659,645,633,620,603,598,593,588,577,560,552,546,540,535,527,524,522,521,521,518,517,515,511,509,504,503,502,499],"ymouse":[545,545,545,545,545,545,545,545,545,545,545,545,545,545,545,545,545,545,545,545,545,545,545,545,545,545,545,545,545,545,545,545,545,545,545,544,544,541,537,532,513,503,493,481,468,439,422,404,384,365,316,296,277,263,249,229,226,222,219,214,203,195,190,184,178,171,169,168,167,167,160,155,149,141,132,112,106,101,95],"timestamp_mouse":[9,39,49,70,89,109,129,149,169,189,210,229,249,269,289,309,329,349,369,390,409,429,449,469,489,509,529,549,569,589,609,629,650,669,690,708,729,749,770,790,809,829,849,869,889,910,929,949,969,990,1011,1029,1048,1070,1089,1110,1129,1149,1169,1189,1209,1229,1248,1268,1289,1310,1329,1349,1370,1389,1409,1429,1448,1469,1490,1510,1528,1549,1569],"xSR":741.5,"ySR":469.95,"xT1":424.9,"yT1":0,"xT2":1058.1,"yT2":0,"toosoon":0,"cond_shown":"Congruent","ratio_trial":300,"L_num":20,"L_den":25,"R_num":9,"R_den":18,"correct_side":1,"subjID":"juancamiloregaladoniño27","gender":"0","school":"6","age":"11"},{"start_time":1551886997252,"click_time":1551887000340,"finger_time":1551886997780,"fix_duration":250,"trial":9,"RT":528,"MT":2560,"sideResp":2,"stimulus":[],"xmouse":[779,779,779,779,779,779,779,779,779,779,779,779,779,778,778,778,778,778,778,778,778,771,766,759,751,744,733,732,732,732,732,732,732,732,732,732,732,732,732,732,732,732,732,732,732,732,733,751,757,761,762,763,763,763,763,764,765,768,771,774,774,774,774,774,774,774,774,774,774,774,774,774,774,774,774,774,774,774,774,774,774,774,774,774,774,774,774,774,774,774,774,774,774,774,774,774,774,774,775,780,781,783,783,783,783,783,783,783,783,783,784,784,785,785,785,786,786,786,786,786,786,786,786,786,786,786,786,786,786,788,790,802,807,815,825,828,850,863,876,892,909,942,954,965,973,982,1007,1018,1025,1031,1038,1047,1052,1058,1066],"ymouse":[539,539,539,539,539,539,539,539,539,539,539,539,539,538,538,537,537,537,536,534,532,525,520,514,508,502,492,491,491,491,491,491,491,491,491,491,491,491,491,491,491,491,491,491,491,491,491,495,496,497,498,498,498,498,498,498,498,500,501,501,501,501,501,501,501,501,501,501,501,501,501,501,501,501,501,501,501,501,501,501,501,501,501,501,501,501,501,501,501,501,501,501,501,501,501,501,501,501,503,506,507,508,508,508,508,508,508,508,508,509,510,510,510,510,510,511,511,511,511,511,511,511,512,512,512,512,512,512,512,512,512,498,487,473,447,438,381,352,318,278,238,155,127,103,86,72,41,32,27,25,23,21,20,20,20],"timestamp_mouse":[7,34,48,69,88,109,127,149,168,189,208,228,248,268,288,308,328,349,367,388,408,428,448,469,488,509,528,547,568,588,608,628,649,668,688,709,728,748,768,789,808,828,849,868,888,908,929,949,968,988,1007,1028,1048,1068,1088,1108,1128,1148,1168,1189,1209,1228,1249,1267,1288,1308,1328,1348,1367,1388,1407,1428,1448,1468,1488,1508,1528,1548,1568,1588,1608,1628,1648,1668,1689,1708,1728,1748,1769,1789,1808,1828,1848,1869,1889,1907,1928,1948,1968,1988,2008,2028,2049,2069,2087,2109,2129,2148,2167,2189,2208,2228,2249,2268,2288,2309,2329,2349,2367,2389,2408,2428,2448,2468,2489,2509,2528,2549,2568,2588,2608,2628,2648,2668,2688,2709,2729,2748,2768,2788,2807,2829,2847,2868,2888,2908,2928,2948,2968,2989,3007,3029,3047,3068,3088],"xSR":741.5,"ySR":469.95,"xT1":424.9,"yT1":0,"xT2":1058.1,"yT2":0,"toosoon":0,"cond_shown":"Incongruent","ratio_trial":100,"L_num":11,"L_den":22,"R_num":9,"R_den":15,"correct_side":2,"subjID":"juancamiloregaladoniño27","gender":"0","school":"6","age":"11"},{"start_time":1551887002748,"click_time":1551887004340,"finger_time":1551887004161,"fix_duration":267.2029764799194,"trial":10,"RT":1413,"MT":179,"sideResp":2,"stimulus":[],"xmouse":[770,770,770,770,770,770,770,770,770,770,770,770,770,770,770,770,770,770,770,770,770,770,770,770,770,770,770,770,770,770,770,770,770,770,770,770,770,770,770,770,770,770,770,770,770,770,770,770,770,770,770,770,770,770,770,770,770,770,770,770,770,770,770,770,771,772,775,787,795,809,828,886,913,939,965,989,1030,1049,1062,1077],"ymouse":[524,524,524,524,524,524,524,524,524,524,524,524,524,524,524,524,524,524,524,524,524,524,524,524,524,524,524,524,524,524,524,524,524,524,524,524,524,524,524,524,524,524,524,524,524,524,524,524,524,524,524,524,524,524,524,524,524,524,524,524,524,524,524,524,524,524,524,514,505,489,466,394,360,326,290,254,180,149,123,98],"timestamp_mouse":[13,32,52,73,92,112,132,153,173,192,213,232,252,272,292,312,332,352,372,392,412,432,452,472,493,513,533,552,572,593,612,632,653,673,692,712,733,753,772,793,812,832,853,873,892,913,932,951,972,992,1012,1032,1052,1072,1092,1112,1133,1152,1172,1193,1213,1232,1252,1272,1292,1313,1333,1351,1372,1393,1413,1433,1451,1472,1493,1513,1533,1551,1571,1592],"xSR":741.5,"ySR":469.95,"xT1":424.9,"yT1":0,"xT2":1058.1,"yT2":0,"toosoon":0,"cond_shown":"Incongruent","ratio_trial":300,"L_num":4,"L_den":20,"R_num":2,"R_den":4,"correct_side":2,"subjID":"juancamiloregaladoniño27","gender":"0","school":"6","age":"11"},{"start_time":1551887006817,"click_time":1551887008100,"finger_time":1551887007920,"fix_duration":1056.455347807987,"trial":11,"RT":1103,"MT":180,"sideResp":2,"stimulus":[],"xmouse":[807,807,807,807,807,807,807,807,807,807,807,805,803,799,799,799,799,799,799,799,799,799,799,799,799,799,799,799,799,799,799,799,799,799,799,799,799,799,799,799,799,799,799,799,799,799,799,799,799,799,804,812,821,837,841,848,855,870,933,960,988,1010,1032,1067,1083],"ymouse":[514,514,514,514,514,514,514,514,514,514,514,518,520,530,533,533,533,533,533,532,531,530,530,530,530,530,530,530,530,530,530,530,530,530,530,530,530,530,530,530,530,530,530,530,530,530,530,530,530,530,528,519,512,489,477,463,448,429,361,327,288,246,197,102,68],"timestamp_mouse":[7,34,43,63,84,103,123,143,163,182,203,223,243,263,282,303,323,342,364,384,402,424,443,464,483,503,523,542,562,584,602,624,644,662,684,704,722,744,764,782,802,824,844,863,883,902,923,943,963,984,1002,1023,1043,1063,1082,1103,1123,1142,1164,1182,1202,1223,1243,1263,1283],"xSR":741.5,"ySR":469.95,"xT1":424.9,"yT1":0,"xT2":1058.1,"yT2":0,"toosoon":0,"cond_shown":"Incongruent","ratio_trial":100,"L_num":4,"L_den":8,"R_num":8,"R_den":20,"correct_side":1,"subjID":"juancamiloregaladoniño27","gender":"0","school":"6","age":"11"},{"start_time":1551887010437,"click_time":1551887011839,"finger_time":1551887011140,"fix_duration":816.3655529626085,"trial":12,"RT":703,"MT":699,"sideResp":1,"stimulus":[],"xmouse":[777,777,777,777,777,777,777,777,777,777,777,777,777,777,777,777,777,777,777,777,777,777,777,777,777,777,777,776,776,775,775,772,766,758,751,742,735,712,700,687,678,671,668,668,667,663,663,663,663,663,661,659,656,656,656,656,656,656,656,656,656,656,656,656,560,556,550,544,531,527,524],"ymouse":[489,489,489,489,489,489,489,489,489,489,489,489,489,489,489,489,489,489,489,489,489,489,489,489,490,490,490,490,490,490,490,490,487,482,477,468,460,425,408,385,362,339,291,263,236,208,182,116,89,63,40,21,1,1,1,1,1,1,1,1,1,1,1,1,0,6,17,26,47,53,58],"timestamp_mouse":[8,24,43,64,84,103,124,144,163,183,202,222,243,264,282,304,324,343,363,382,402,424,443,463,483,503,523,543,564,583,604,622,643,662,682,703,724,743,762,782,802,822,843,863,883,903,923,943,962,983,1003,1022,1044,1063,1082,1103,1124,1143,1164,1183,1203,1224,1243,1262,1284,1303,1323,1343,1364,1382,1402],"xSR":741.5,"ySR":469.95,"xT1":424.9,"yT1":0,"xT2":1058.1,"yT2":0,"toosoon":0,"cond_shown":"Congruent","ratio_trial":300,"L_num":12,"L_den":24,"R_num":2,"R_den":10,"correct_side":1,"subjID":"juancamiloregaladoniño27","gender":"0","school":"6","age":"11"},{"start_time":1551887014464,"click_time":1551887015840,"finger_time":1551887015299,"fix_duration":661.3290867042433,"trial":13,"RT":835,"MT":541,"sideResp":1,"stimulus":[],"xmouse":[793,793,793,793,793,793,793,793,793,793,793,793,793,793,793,793,793,793,793,793,793,793,793,793,793,793,793,793,793,793,793,793,793,793,793,793,793,793,793,793,786,765,751,734,713,684,569,522,483,454,421,410,399,394,391,388,386,383,381,379,378,378,379,382,389,405,415,428,436],"ymouse":[501,501,501,501,501,501,501,501,501,501,501,501,501,501,501,501,501,501,501,501,501,501,501,501,501,501,501,501,501,501,501,501,501,501,501,501,501,501,499,496,485,462,450,436,422,403,343,319,297,281,258,251,243,238,234,226,220,214,208,200,189,185,180,177,166,141,122,100,79],"timestamp_mouse":[17,36,55,76,97,115,137,156,175,197,217,236,256,276,296,317,336,356,376,397,417,436,456,477,495,517,536,556,576,597,616,636,657,677,696,716,737,757,776,796,816,835,855,876,897,916,936,955,977,996,1016,1035,1055,1075,1095,1117,1136,1156,1177,1196,1216,1236,1256,1276,1295,1316,1335,1355,1376],"xSR":741.5,"ySR":469.95,"xT1":424.9,"yT1":0,"xT2":1058.1,"yT2":0,"toosoon":0,"cond_shown":"Incongruent","ratio_trial":200,"L_num":7,"L_den":10,"R_num":8,"R_den":16,"correct_side":1,"subjID":"juancamiloregaladoniño27","gender":"0","school":"6","age":"11"},{"start_time":1551887017573,"click_time":1551887018420,"finger_time":1551887018000,"fix_duration":512.832940578195,"trial":14,"RT":427,"MT":420,"sideResp":1,"stimulus":[],"xmouse":[793,793,793,793,793,793,793,793,793,793,793,793,793,793,793,793,793,793,792,791,775,728,697,670,653,634,625,618,609,602,581,574,566,561,557,552,549,545,539,532,502,489,479],"ymouse":[523,523,523,523,523,523,523,523,523,523,523,523,523,523,523,523,523,523,523,522,508,480,463,447,436,422,415,411,404,398,380,371,361,351,343,327,316,302,284,258,156,110,67],"timestamp_mouse":[8,27,48,67,87,107,127,147,167,188,206,227,247,266,286,307,327,347,366,388,407,427,446,468,487,507,527,546,567,587,607,626,646,666,687,707,726,747,767,787,807,827,846],"xSR":741.5,"ySR":469.95,"xT1":424.9,"yT1":0,"xT2":1058.1,"yT2":0,"toosoon":0,"cond_shown":"Incongruent","ratio_trial":100,"L_num":17,"L_den":30,"R_num":10,"R_den":15,"correct_side":2,"subjID":"juancamiloregaladoniño27","gender":"0","school":"6","age":"11"},{"start_time":1551887021112,"click_time":1551887022820,"finger_time":1551887022599,"fix_duration":1210.9275902233028,"trial":15,"RT":1487,"MT":221,"sideResp":2,"stimulus":[],"xmouse":[817,817,817,817,817,817,817,817,817,817,817,817,816,814,813,813,813,813,813,813,813,813,813,813,813,813,813,813,813,813,813,813,813,813,813,813,813,813,813,813,813,813,813,813,813,813,813,813,813,814,814,814,815,815,815,815,815,815,815,817,818,820,822,827,830,831,831,831,831,831,831,831,832,833,837,842,850,858,868,899,915,939,967,1041,1070,1104],"ymouse":[494,494,494,494,494,494,494,494,494,494,494,494,495,497,497,498,498,498,498,498,498,498,498,498,498,498,498,498,498,498,498,498,498,498,498,498,498,498,498,498,498,498,498,498,498,498,498,498,498,497,497,496,495,494,494,494,494,494,494,491,490,488,485,479,473,472,471,471,471,471,471,471,471,470,465,457,447,435,421,384,360,324,283,160,109,65],"timestamp_mouse":[7,30,49,68,87,109,127,149,168,187,209,227,249,268,289,307,327,348,368,388,409,427,447,468,488,508,527,547,568,588,609,628,649,669,689,709,728,748,769,789,808,828,849,868,888,908,929,948,968,988,1008,1028,1048,1068,1088,1107,1128,1148,1167,1189,1209,1228,1247,1267,1288,1307,1328,1348,1367,1389,1408,1428,1448,1467,1487,1507,1529,1548,1569,1587,1609,1628,1649,1668,1687,1708],"xSR":741.5,"ySR":469.95,"xT1":424.9,"yT1":0,"xT2":1058.1,"yT2":0,"toosoon":0,"cond_shown":"Congruent","ratio_trial":100,"L_num":3,"L_den":20,"R_num":4,"R_den":16,"correct_side":2,"subjID":"juancamiloregaladoniño27","gender":"0","school":"6","age":"11"},{"start_time":1551887024275,"click_time":1551887025719,"finger_time":1551887025040,"fix_duration":314.2293108737928,"trial":16,"RT":765,"MT":679,"sideResp":2,"stimulus":[],"xmouse":[753,753,753,753,753,753,753,753,753,753,753,753,753,753,753,753,753,753,753,753,753,753,753,753,753,753,753,753,753,753,753,753,753,753,753,754,759,765,776,789,819,835,848,862,873,897,907,917,925,931,946,954,958,962,971,995,1002,1010,1015,1016,1018,1019,1021,1024,1030,1035,1042,1043,1043,1043,1044,1058,1069],"ymouse":[485,485,485,485,485,485,485,485,485,485,485,485,485,485,485,485,485,485,485,485,485,485,485,485,485,485,485,485,485,485,485,485,485,485,485,485,482,473,458,439,397,377,353,329,307,252,228,211,195,185,157,149,144,139,131,110,104,97,92,90,89,86,85,83,79,75,71,71,71,71,71,71,71],"timestamp_mouse":[8,25,44,69,84,106,125,145,165,184,206,225,246,265,286,306,324,345,366,384,404,426,444,465,486,505,525,546,566,585,606,625,646,665,686,706,725,744,765,784,805,824,845,865,886,905,925,944,966,985,1006,1024,1045,1065,1085,1105,1124,1144,1165,1185,1206,1225,1245,1265,1284,1305,1325,1345,1365,1384,1405,1425,1444],"xSR":741.5,"ySR":469.95,"xT1":424.9,"yT1":0,"xT2":1058.1,"yT2":0,"toosoon":0,"cond_shown":"Congruent","ratio_trial":300,"L_num":7,"L_den":14,"R_num":20,"R_den":25,"correct_side":2,"subjID":"juancamiloregaladoniño27","gender":"0","school":"6","age":"11"},{"start_time":1551887029087,"click_time":1551887034380,"finger_time":1551887029219,"fix_duration":505.4698169105222,"trial":17,"RT":132,"MT":5161,"sideResp":2,"stimulus":[],"xmouse":[747,747,747,747,747,747,747,747,747,747,747,747,748,748,752,754,754,754,754,754,754,754,754,754,754,754,754,754,754,754,754,754,754,754,754,744,737,736,736,736,736,736,736,736,736,736,736,734,731,721,717,719,728,738,744,747,748,748,748,748,748,748,748,749,749,750,750,752,752,753,755,756,756,756,756,756,756,756,756,756,758,758,758,758,758,758,758,758,758,758,759,759,760,760,760,762,763,764,766,768,775,776,778,779,780,782,782,782,783,783,783,783,783,783,783,783,783,783,783,783,783,783,783,783,783,783,783,783,783,783,783,783,783,783,783,783,783,783,782,774,768,761,753,749,746,746,746,747,754,757,772,775,779,781,781,782,782,782,782,782,783,783,784,786,789,791,792,793,794,795,795,795,795,795,796,806,818,837,856,906,931,951,967,977,979,979,979,977,974,951,931,905,874,826,775,758,751,751,751,751,751,751,751,751,751,751,751,751,751,751,752,754,757,760,761,761,761,761,762,768,772,774,775,775,775,775,775,775,775,775,775,775,775,775,775,775,775,775,775,775,775,775,777,781,788,811,822,834,844,867,879,890,903,917,932,971,984,995,1002,1019,1025,1032,1038,1044,1061],"ymouse":[560,564,567,567,567,569,571,572,572,572,572,572,572,572,568,567,567,567,567,567,567,567,567,567,567,567,567,567,567,567,567,567,567,567,566,574,582,584,584,584,584,584,584,584,584,584,584,588,591,609,621,620,608,588,565,560,557,557,557,557,557,557,557,556,556,553,552,551,549,548,545,544,544,544,544,544,544,544,544,544,542,541,541,541,541,541,541,541,541,541,540,540,539,539,539,536,535,533,530,528,524,523,521,520,519,517,517,517,516,516,516,516,516,516,516,516,516,516,516,516,516,516,516,516,516,516,516,516,516,516,516,516,516,516,516,516,516,516,517,526,534,546,557,565,570,570,570,569,564,560,547,544,539,536,534,533,533,533,533,532,532,532,530,527,525,519,516,513,510,509,507,507,507,507,506,503,502,499,499,499,499,499,499,499,499,499,499,498,498,497,497,497,497,497,504,508,511,511,511,511,511,511,511,511,511,511,511,511,511,511,511,511,511,511,511,511,511,511,511,511,509,509,508,508,508,508,508,508,508,508,508,508,508,508,508,508,508,508,508,507,500,494,483,471,456,414,397,382,368,341,325,307,289,271,253,212,198,183,171,144,134,124,117,108,86],"timestamp_mouse":[17,40,53,72,93,114,132,152,173,194,214,233,252,272,293,312,333,354,373,393,414,433,453,474,494,513,533,554,572,593,612,632,654,674,692,713,732,753,774,793,813,834,854,873,894,914,933,952,973,993,1012,1033,1052,1072,1094,1114,1134,1152,1172,1193,1213,1233,1252,1272,1292,1313,1332,1353,1372,1392,1413,1433,1452,1473,1493,1513,1533,1553,1573,1594,1613,1632,1652,1673,1693,1714,1734,1752,1774,1792,1814,1833,1853,1873,1893,1914,1934,1953,1972,1992,2012,2033,2052,2072,2092,2113,2133,2154,2172,2193,2213,2234,2252,2273,2293,2313,2333,2353,2374,2392,2412,2433,2452,2474,2493,2513,2532,2552,2572,2593,2613,2632,2652,2673,2694,2714,2733,2752,2773,2793,2813,2832,2853,2873,2894,2913,2932,2952,2973,2993,3012,3032,3053,3073,3093,3113,3133,3153,3173,3193,3213,3233,3253,3272,3292,3313,3332,3353,3373,3393,3412,3433,3452,3472,3492,3513,3532,3553,3573,3593,3613,3632,3653,3673,3694,3713,3733,3753,3773,3793,3813,3832,3853,3873,3893,3913,3934,3952,3972,3993,4013,4033,4053,4073,4093,4112,4133,4152,4174,4192,4213,4233,4253,4273,4292,4314,4332,4352,4372,4394,4412,4433,4453,4474,4494,4513,4533,4554,4573,4592,4614,4632,4654,4673,4693,4713,4734,4754,4773,4793,4813,4834,4853,4872,4893,4913,4932,4953,4973,4993,5013,5033,5053,5073,5093,5114,5132,5152,5173,5193,5212,5232,5252,5273,5293],"xSR":741.5,"ySR":469.95,"xT1":424.9,"yT1":0,"xT2":1058.1,"yT2":0,"toosoon":0,"cond_shown":"Incongruent","ratio_trial":200,"L_num":7,"L_den":10,"R_num":14,"R_den":28,"correct_side":1,"subjID":"juancamiloregaladoniño27","gender":"0","school":"6","age":"11"},{"start_time":1551887035726,"click_time":1551887036899,"finger_time":1551887036601,"fix_duration":264.1644592453909,"trial":18,"RT":875,"MT":298,"sideResp":1,"stimulus":[],"xmouse":[804,804,804,804,804,804,804,804,804,804,804,804,804,804,804,804,804,804,804,804,804,804,804,804,804,804,804,804,804,804,804,804,804,804,804,804,804,804,802,795,788,778,773,742,721,690,667,622,606,593,581,569,530,514,504,495,491,488,487],"ymouse":[495,495,495,495,495,495,495,495,495,495,495,495,495,495,495,495,495,495,495,495,495,495,495,495,495,495,495,495,495,495,495,495,495,495,495,495,495,495,496,496,496,492,489,466,451,428,410,369,349,331,313,293,229,200,178,157,141,111,99],"timestamp_mouse":[14,34,54,73,94,113,134,153,175,193,213,235,253,275,294,314,335,354,374,393,414,433,453,473,495,514,534,553,575,593,613,635,655,673,695,713,735,755,773,794,814,833,854,875,893,913,934,954,973,994,1014,1035,1055,1073,1093,1114,1134,1154,1173],"xSR":741.5,"ySR":469.95,"xT1":424.9,"yT1":0,"xT2":1058.1,"yT2":0,"toosoon":0,"cond_shown":"Incongruent","ratio_trial":100,"L_num":8,"L_den":16,"R_num":6,"R_den":10,"correct_side":2,"subjID":"juancamiloregaladoniño27","gender":"0","school":"6","age":"11"},{"start_time":1551887039811,"click_time":1551887041180,"finger_time":1551887040500,"fix_duration":250,"trial":19,"RT":689,"MT":680,"sideResp":2,"stimulus":[],"xmouse":[788,788,788,788,788,788,788,789,789,789,789,789,789,789,789,789,789,789,789,789,789,789,789,789,789,789,789,790,790,790,791,793,796,811,819,827,837,847,870,880,890,898,908,919,922,924,925,925,927,929,932,936,945,970,984,998,1007,1015,1028,1029,1030,1031,1032,1032,1032,1032,1035,1043,1074],"ymouse":[523,523,523,523,523,523,523,523,523,523,523,523,523,523,523,523,523,523,523,523,523,523,523,523,523,523,523,523,523,522,519,515,507,478,458,437,414,390,335,313,293,276,262,242,237,234,233,232,230,225,221,215,204,176,159,140,122,109,91,90,88,86,86,85,85,85,85,85,80],"timestamp_mouse":[8,31,49,69,90,108,128,150,169,190,209,230,250,269,290,309,329,349,368,389,408,428,450,469,489,509,530,549,568,589,608,628,649,669,689,708,729,749,769,789,808,829,849,869,889,908,930,949,969,988,1008,1030,1049,1069,1088,1110,1129,1148,1170,1190,1210,1230,1249,1269,1289,1310,1329,1348,1369],"xSR":741.5,"ySR":469.95,"xT1":424.9,"yT1":0,"xT2":1058.1,"yT2":0,"toosoon":0,"cond_shown":"Incongruent","ratio_trial":100,"L_num":3,"L_den":5,"R_num":8,"R_den":16,"correct_side":1,"subjID":"juancamiloregaladoniño27","gender":"0","school":"6","age":"11"},{"start_time":1551887045812,"click_time":1551887046980,"finger_time":1551887046419,"fix_duration":250,"trial":20,"RT":607,"MT":561,"sideResp":1,"stimulus":[],"xmouse":[793,793,793,793,793,793,793,793,793,793,793,793,793,793,793,793,793,793,793,793,793,793,793,793,793,793,793,792,791,777,762,741,705,600,549,504,458,424,373,365,361,358,356,354,354,354,354,354,354,354,387,393,396,401,404,409,414,419,429],"ymouse":[502,502,502,502,502,502,502,502,502,502,502,502,502,502,502,502,502,502,502,502,502,502,502,502,502,501,499,496,492,474,461,446,426,359,321,281,242,196,102,73,50,30,16,1,0,0,0,0,0,0,0,1,3,4,6,8,11,13,18],"timestamp_mouse":[9,28,48,67,88,108,128,148,167,188,208,228,249,267,288,308,328,348,368,388,408,429,448,467,487,509,528,547,568,588,607,628,647,669,687,708,728,748,768,787,807,828,848,868,887,907,928,949,968,987,1007,1028,1048,1068,1088,1109,1128,1148,1168],"xSR":741.5,"ySR":469.95,"xT1":424.9,"yT1":0,"xT2":1058.1,"yT2":0,"toosoon":0,"cond_shown":"Congruent","ratio_trial":300,"L_num":24,"L_den":30,"R_num":8,"R_den":16,"correct_side":1,"subjID":"juancamiloregaladoniño27","gender":"0","school":"6","age":"11"},{"start_time":1551887048920,"click_time":1551887050380,"finger_time":1551887049680,"fix_duration":719.1359078750751,"trial":21,"RT":760,"MT":700,"sideResp":2,"stimulus":[],"xmouse":[801,801,801,801,802,802,802,802,802,802,802,802,802,802,802,802,802,802,802,802,802,802,802,802,802,801,801,801,801,801,801,801,801,802,805,811,815,818,822,822,822,822,822,822,822,824,829,847,861,883,908,929,952,952,952,949,949,949,949,949,950,950,957,972,981,986,996,1022,1039,1053,1063,1073,1098],"ymouse":[489,490,493,496,497,498,498,498,498,498,498,498,498,498,498,498,498,498,498,498,498,498,498,497,496,496,494,494,494,494,494,494,494,490,486,479,474,469,463,461,460,460,460,460,460,458,453,432,414,389,362,340,301,290,287,284,283,283,283,283,282,282,278,266,258,249,236,206,188,171,154,134,77],"timestamp_mouse":[21,40,60,81,100,120,140,160,180,199,221,240,260,279,299,320,341,360,380,401,419,439,460,480,500,521,541,561,581,600,621,640,659,680,700,720,740,760,780,800,820,839,861,880,899,920,940,961,980,999,1020,1040,1061,1080,1100,1121,1140,1160,1180,1200,1219,1240,1260,1281,1299,1321,1340,1360,1380,1401,1421,1441,1460],"xSR":741.5,"ySR":469.95,"xT1":424.9,"yT1":0,"xT2":1058.1,"yT2":0,"toosoon":0,"cond_shown":"Congruent","ratio_trial":200,"L_num":7,"L_den":21,"R_num":2,"R_den":15,"correct_side":1,"subjID":"juancamiloregaladoniño27","gender":"0","school":"6","age":"11"},{"start_time":1551887052709,"click_time":1551887053960,"finger_time":1551887053820,"fix_duration":1228.1841756061344,"trial":22,"RT":1111,"MT":140,"sideResp":2,"stimulus":[],"xmouse":[792,792,792,792,792,792,792,792,792,792,792,792,792,792,792,792,792,792,792,792,792,792,790,779,768,760,756,755,755,755,755,755,755,755,755,755,755,755,755,755,755,755,755,755,755,755,755,755,755,757,759,763,770,792,808,837,866,905,1003,1051,1095,1133,1158],"ymouse":[543,543,543,543,543,543,543,543,543,543,543,543,542,542,540,539,539,539,536,535,535,535,533,523,518,512,510,509,509,509,509,509,509,509,509,509,509,509,509,509,509,509,509,509,509,509,509,509,509,509,509,509,505,491,478,456,427,386,284,226,167,113,66],"timestamp_mouse":[11,35,51,71,91,110,131,150,171,192,212,231,250,271,292,311,331,350,371,391,410,430,452,471,491,511,530,551,572,591,610,631,650,671,691,710,732,751,770,791,812,831,851,871,890,910,932,952,971,990,1011,1031,1050,1071,1091,1111,1131,1151,1171,1190,1210,1231,1251],"xSR":741.5,"ySR":469.95,"xT1":424.9,"yT1":0,"xT2":1058.1,"yT2":0,"toosoon":0,"cond_shown":"Congruent","ratio_trial":200,"L_num":3,"L_den":10,"R_num":14,"R_den":28,"correct_side":2,"subjID":"juancamiloregaladoniño27","gender":"0","school":"6","age":"11"},{"start_time":1551887055831,"click_time":1551887060680,"finger_time":1551887056360,"fix_duration":269.47269322377343,"trial":23,"RT":529,"MT":4320,"sideResp":2,"stimulus":[],"xmouse":[799,799,799,799,799,799,799,799,799,799,799,799,799,799,799,799,799,799,800,802,804,809,811,815,818,818,820,820,820,820,820,820,820,820,820,820,820,820,820,820,820,820,820,820,820,818,816,811,809,807,804,802,797,795,793,791,790,788,785,783,782,782,779,778,778,778,778,778,778,778,777,777,777,776,776,776,774,774,773,773,773,772,772,768,766,764,761,752,746,739,730,720,711,711,711,711,711,711,711,710,710,710,714,718,722,728,732,736,744,747,753,762,773,799,812,819,826,828,828,828,828,828,829,829,829,829,829,829,829,829,829,829,829,829,829,829,824,802,795,793,793,793,793,793,793,793,793,792,780,765,749,739,736,736,736,736,736,736,736,736,738,741,741,741,741,741,741,743,743,745,747,749,755,759,763,765,768,772,772,772,772,774,775,777,778,779,780,780,780,780,780,780,780,780,780,780,780,780,780,780,781,782,782,785,786,789,793,813,824,836,848,860,885,894,902,908,910,911,911,911,911,911,911,907,900,882,861,815,803,790,781,775,775,777,786,808,858,899,982,1016,1038,1053,1064],"ymouse":[518,518,518,518,518,518,518,518,518,518,518,518,518,518,518,518,518,518,517,513,507,500,494,481,475,472,468,468,468,468,468,468,468,468,468,468,468,468,468,468,468,468,468,468,468,468,469,473,476,479,483,486,496,498,502,505,506,509,513,515,517,518,521,522,522,522,522,522,522,522,522,523,523,524,525,525,526,528,528,529,529,529,530,533,535,536,538,543,544,546,547,548,549,549,549,549,549,549,549,549,549,548,545,543,542,541,539,538,536,534,534,533,531,528,526,525,523,521,521,521,521,521,521,521,521,521,521,521,521,521,520,519,517,516,514,510,503,488,486,485,485,485,485,485,485,485,485,485,494,504,509,510,512,512,512,512,512,512,512,512,512,512,514,515,515,516,518,523,526,529,531,531,532,532,532,532,532,532,532,532,532,531,531,528,526,525,523,523,523,523,523,523,523,523,523,523,523,523,523,523,522,520,519,514,511,508,502,484,472,460,444,427,393,380,369,360,354,352,352,352,352,352,352,352,352,352,352,364,372,381,389,393,394,392,384,362,313,267,170,123,86,59,19],"timestamp_mouse":[10,28,50,70,90,110,129,149,169,189,209,228,250,270,290,310,330,348,369,389,409,428,448,468,489,509,529,550,570,588,608,629,650,669,688,710,730,749,769,789,809,829,850,869,888,908,929,950,970,989,1009,1029,1049,1069,1089,1110,1130,1148,1169,1189,1210,1228,1249,1270,1288,1308,1329,1349,1368,1390,1410,1428,1448,1469,1489,1508,1530,1549,1569,1589,1609,1629,1648,1668,1689,1709,1728,1749,1769,1789,1809,1828,1850,1868,1888,1909,1930,1949,1969,1988,2010,2029,2049,2068,2089,2109,2129,2148,2169,2189,2209,2228,2249,2269,2290,2309,2330,2349,2369,2389,2409,2428,2450,2469,2488,2508,2530,2549,2568,2590,2608,2630,2649,2668,2689,2709,2729,2749,2770,2789,2808,2830,2849,2870,2888,2909,2929,2948,2969,2988,3009,3030,3050,3068,3090,3109,3129,3149,3168,3188,3210,3229,3248,3269,3289,3309,3330,3349,3369,3389,3409,3429,3449,3469,3490,3509,3530,3549,3570,3588,3608,3629,3648,3668,3689,3710,3730,3750,3769,3788,3810,3828,3850,3868,3889,3908,3928,3949,3968,3990,4010,4029,4049,4069,4089,4108,4128,4149,4169,4188,4209,4229,4249,4268,4288,4309,4329,4349,4369,4390,4409,4428,4450,4468,4489,4509,4528,4550,4568,4588,4609,4628,4649,4668,4689,4709,4728,4748,4768,4789,4808,4828,4849],"xSR":741.5,"ySR":469.95,"xT1":424.9,"yT1":0,"xT2":1058.1,"yT2":0,"toosoon":0,"cond_shown":"Incongruent","ratio_trial":200,"L_num":7,"L_den":10,"R_num":12,"R_den":24,"correct_side":1,"subjID":"juancamiloregaladoniño27","gender":"0","school":"6","age":"11"},{"start_time":1551887062631,"click_time":1551887063980,"finger_time":1551887063479,"fix_duration":250,"trial":24,"RT":848,"MT":501,"sideResp":2,"stimulus":[],"xmouse":[778,778,778,778,778,778,778,778,778,778,778,778,778,778,778,778,778,778,778,778,778,778,778,779,779,776,773,771,767,767,767,767,767,767,767,767,767,767,767,766,768,774,784,812,822,827,833,851,855,858,866,873,888,898,908,916,921,941,952,965,977,988,1015,1027,1037,1045,1050,1062],"ymouse":[495,495,495,495,495,495,495,495,495,495,495,495,495,495,495,495,495,495,495,495,495,495,495,495,494,491,490,489,487,487,487,487,487,487,487,487,487,487,487,486,482,473,457,416,390,369,350,331,329,329,328,328,324,317,309,298,284,247,235,223,209,197,163,142,120,97,74,32],"timestamp_mouse":[9,29,50,70,88,108,128,148,169,188,209,229,249,270,290,308,329,349,369,390,409,429,449,469,488,509,530,548,569,589,609,629,648,670,688,708,729,748,769,789,808,829,848,868,888,909,929,949,969,988,1009,1029,1049,1069,1088,1109,1130,1149,1169,1190,1209,1228,1249,1268,1289,1309,1329,1348],"xSR":741.5,"ySR":469.95,"xT1":424.9,"yT1":0,"xT2":1058.1,"yT2":0,"toosoon":0,"cond_shown":"Incongruent","ratio_trial":300,"L_num":7,"L_den":10,"R_num":8,"R_den":20,"correct_side":1,"subjID":"juancamiloregaladoniño27","gender":"0","school":"6","age":"11"},{"start_time":1551887067255,"click_time":1551887069121,"finger_time":1551887068800,"fix_duration":1333.3471784502663,"trial":25,"RT":1545,"MT":321,"sideResp":2,"stimulus":[],"xmouse":[781,792,794,794,794,794,794,794,794,794,794,794,794,794,794,794,794,794,794,794,794,794,794,794,794,794,794,794,794,794,794,794,794,794,794,794,794,794,794,794,794,794,794,794,794,794,794,794,794,794,794,794,794,794,794,794,794,794,794,794,794,794,794,794,794,794,794,794,794,794,794,794,794,795,797,803,806,837,851,865,880,910,924,937,949,970,995,1007,1019,1030,1038,1050,1056,1061],"ymouse":[489,488,487,487,487,487,487,487,487,487,487,487,487,487,487,487,487,487,487,487,487,487,487,487,487,487,487,487,487,487,487,487,487,487,487,487,487,487,487,487,487,487,487,487,487,487,487,487,487,487,487,487,487,487,487,487,487,487,487,487,487,487,487,487,487,487,487,487,487,487,487,487,487,486,484,478,474,440,424,402,381,341,321,300,281,252,209,188,170,153,138,111,98,88],"timestamp_mouse":[4,25,54,66,84,105,125,144,165,184,205,224,245,265,285,305,326,345,365,386,406,426,445,465,485,504,525,545,565,585,606,625,645,665,686,706,725,745,765,785,805,824,845,866,885,904,926,945,966,986,1004,1026,1045,1065,1085,1104,1125,1145,1166,1185,1205,1225,1245,1265,1285,1306,1325,1346,1364,1386,1406,1425,1444,1465,1485,1504,1525,1545,1565,1586,1605,1626,1644,1665,1685,1705,1725,1745,1764,1785,1805,1825,1844,1865],"xSR":741.5,"ySR":469.95,"xT1":424.9,"yT1":0,"xT2":1058.1,"yT2":0,"toosoon":0,"cond_shown":"Congruent","ratio_trial":100,"L_num":7,"L_den":14,"R_num":9,"R_den":15,"correct_side":2,"subjID":"juancamiloregaladoniño27","gender":"0","school":"6","age":"11"},{"start_time":1551887072777,"click_time":1551887074580,"finger_time":1551887074120,"fix_duration":295.36791539272576,"trial":26,"RT":1343,"MT":460,"sideResp":1,"stimulus":[],"xmouse":[762,762,762,762,762,762,762,762,762,762,762,762,762,762,762,762,762,762,762,762,762,762,762,762,762,762,762,762,762,762,762,762,762,762,762,762,762,762,762,762,762,762,762,762,762,762,762,762,762,762,762,762,762,762,762,762,762,762,762,762,762,762,762,762,762,761,751,738,718,693,601,560,519,483,462,438,430,425,423,423,423,423,423,423,423,426,431,437,442,446,448],"ymouse":[515,515,515,515,515,515,515,515,515,515,514,514,514,514,514,514,514,514,514,514,514,514,514,514,514,514,514,514,514,514,514,514,514,514,514,514,514,514,514,514,514,513,513,513,513,513,513,513,513,513,513,513,513,513,513,513,513,513,513,513,513,513,513,513,513,511,500,488,467,437,333,287,247,213,193,168,162,160,160,160,160,160,160,159,159,153,149,140,130,113,93],"timestamp_mouse":[7,35,43,63,84,103,123,143,163,183,203,223,242,264,284,304,323,344,364,382,404,423,443,462,483,502,522,543,562,582,603,623,643,662,683,704,722,744,763,784,803,824,843,862,884,904,924,942,964,983,1002,1024,1044,1063,1084,1103,1124,1143,1164,1182,1204,1223,1242,1264,1283,1303,1322,1343,1363,1383,1403,1422,1442,1462,1482,1504,1522,1543,1563,1582,1604,1624,1643,1664,1683,1703,1722,1743,1763,1784,1803],"xSR":741.5,"ySR":469.95,"xT1":424.9,"yT1":0,"xT2":1058.1,"yT2":0,"toosoon":0,"cond_shown":"Incongruent","ratio_trial":200,"L_num":1,"L_den":2,"R_num":3,"R_den":10,"correct_side":1,"subjID":"juancamiloregaladoniño27","gender":"0","school":"6","age":"11"},{"start_time":1551887076191,"click_time":1551887078359,"finger_time":1551887077780,"fix_duration":250,"trial":27,"RT":1589,"MT":579,"sideResp":2,"stimulus":[],"xmouse":[797,797,797,797,797,797,797,797,797,797,797,797,797,797,797,797,797,797,797,797,797,797,797,797,797,797,797,797,797,797,797,797,797,797,797,797,797,797,797,797,797,797,797,797,797,797,797,797,797,797,797,797,797,797,797,797,797,797,797,797,797,797,797,797,797,797,797,797,797,797,797,797,797,797,797,798,799,804,810,835,845,854,862,869,883,890,899,908,917,925,946,953,961,967,978,983,987,990,994,996,997,999,1003,1009,1016,1035,1045,1054,1063],"ymouse":[501,501,501,501,501,501,501,501,501,501,501,501,501,501,501,501,501,501,501,501,501,501,501,501,501,501,501,501,501,501,501,501,501,501,501,501,501,501,501,501,501,501,501,501,501,501,501,501,501,501,501,501,501,501,501,501,501,501,501,501,501,501,501,501,501,501,501,501,501,501,501,501,501,501,501,501,500,491,478,430,411,390,373,355,325,312,296,281,264,249,212,200,188,179,161,154,149,145,140,137,136,134,131,128,123,111,101,93,86],"timestamp_mouse":[9,34,49,70,88,109,129,149,170,189,208,230,250,268,290,310,329,349,369,390,410,428,448,470,488,510,528,550,569,589,609,630,650,670,690,709,728,750,768,789,810,830,848,870,890,910,929,950,968,989,1010,1028,1050,1068,1090,1109,1130,1149,1170,1188,1209,1230,1249,1268,1289,1310,1329,1350,1368,1390,1408,1430,1449,1470,1490,1509,1530,1548,1569,1589,1608,1629,1650,1668,1690,1708,1729,1749,1768,1789,1809,1829,1850,1869,1889,1908,1929,1949,1969,1989,2008,2029,2050,2069,2090,2109,2129,2149,2168],"xSR":741.5,"ySR":469.95,"xT1":424.9,"yT1":0,"xT2":1058.1,"yT2":0,"toosoon":0,"cond_shown":"Incongruent","ratio_trial":300,"L_num":3,"L_den":6,"R_num":4,"R_den":20,"correct_side":1,"subjID":"juancamiloregaladoniño27","gender":"0","school":"6","age":"11"},{"start_time":1551887080007,"click_time":1551887081360,"finger_time":1551887080640,"fix_duration":346.04752811921844,"trial":28,"RT":633,"MT":720,"sideResp":1,"stimulus":[],"xmouse":[763,763,763,763,763,763,763,763,763,763,763,763,763,763,763,763,763,763,763,763,763,763,763,763,763,763,763,763,763,755,744,730,715,702,678,665,652,635,602,593,584,577,572,563,562,562,562,562,562,553,547,542,540,540,540,540,540,540,540,541,541,541,541,541,538,533,527,521],"ymouse":[516,516,516,516,516,516,516,516,516,516,516,516,516,516,516,516,516,516,516,516,516,516,516,516,516,516,516,516,517,517,513,507,500,493,477,465,454,436,389,367,344,321,295,249,227,203,176,135,110,66,49,38,35,34,34,34,34,34,34,38,42,45,48,50,53,54,54,54],"timestamp_mouse":[13,38,53,73,93,114,132,154,174,193,214,233,252,274,293,312,334,353,374,394,413,434,453,474,493,513,533,553,573,594,613,633,653,673,693,713,732,753,773,792,812,833,852,873,893,912,933,953,973,993,1012,1034,1053,1073,1092,1113,1134,1153,1174,1193,1213,1233,1253,1273,1294,1313,1333,1353],"xSR":741.5,"ySR":469.95,"xT1":424.9,"yT1":0,"xT2":1058.1,"yT2":0,"toosoon":0,"cond_shown":"Congruent","ratio_trial":100,"L_num":11,"L_den":22,"R_num":6,"R_den":15,"correct_side":1,"subjID":"juancamiloregaladoniño27","gender":"0","school":"6","age":"11"},{"start_time":1551887082932,"click_time":1551887084381,"finger_time":1551887083700,"fix_duration":250,"trial":29,"RT":768,"MT":681,"sideResp":1,"stimulus":[],"xmouse":[786,786,786,786,786,786,786,786,786,786,786,786,786,786,786,786,786,786,786,786,786,786,786,786,786,786,786,786,786,786,786,785,782,780,777,772,765,743,723,703,685,669,631,618,608,600,595,592,588,582,573,565,565,565,565,565,565,565,565,565,565,565,565,565,565,565,565,537,537,535,532,530,517],"ymouse":[519,519,519,519,519,519,519,519,519,519,519,519,519,519,519,519,519,519,519,519,519,519,519,519,519,519,519,519,519,519,519,519,519,519,518,516,511,493,475,456,436,416,359,337,317,295,272,248,169,120,60,3,3,3,3,3,3,3,3,3,3,3,3,3,3,3,3,8,13,19,25,30,45],"timestamp_mouse":[13,32,48,69,88,109,129,148,169,187,209,227,248,269,288,309,329,348,368,388,409,428,448,468,488,508,528,548,568,588,609,628,648,667,688,707,728,749,768,788,807,829,849,867,888,908,927,949,968,988,1008,1029,1049,1069,1089,1108,1128,1148,1168,1188,1209,1228,1248,1268,1288,1307,1327,1348,1368,1389,1408,1428,1449],"xSR":741.5,"ySR":469.95,"xT1":424.9,"yT1":0,"xT2":1058.1,"yT2":0,"toosoon":0,"cond_shown":"Congruent","ratio_trial":300,"L_num":20,"L_den":25,"R_num":9,"R_den":18,"correct_side":1,"subjID":"juancamiloregaladoniño27","gender":"0","school":"6","age":"11"},{"start_time":1551887087408,"click_time":1551887089140,"finger_time":1551887089020,"fix_duration":1245.8601371618765,"trial":30,"RT":1612,"MT":120,"sideResp":2,"stimulus":[],"xmouse":[782,782,782,782,782,782,782,782,782,782,782,783,785,785,785,785,785,785,785,785,785,785,785,785,785,785,785,785,785,785,785,785,785,785,785,785,785,785,785,785,785,785,785,785,785,785,785,785,785,785,785,785,785,785,785,785,785,785,785,785,785,785,785,785,783,781,778,777,776,776,776,776,776,775,775,777,781,785,788,808,825,851,889,929,1005,1038,1064],"ymouse":[536,536,536,536,536,536,536,536,536,536,536,536,536,536,536,536,536,536,536,536,536,536,536,536,536,536,536,536,535,535,535,535,535,535,535,535,535,535,535,535,535,535,535,535,535,535,535,535,535,535,535,535,535,535,535,535,535,535,535,535,535,535,535,535,535,534,534,533,533,533,533,533,533,532,532,531,530,529,525,493,462,413,346,277,151,106,72],"timestamp_mouse":[12,36,52,72,93,113,131,153,172,191,213,232,253,271,292,312,332,351,373,391,411,433,451,472,492,513,533,552,571,593,613,632,652,671,693,713,731,753,772,792,813,833,852,871,892,911,933,953,972,993,1012,1033,1053,1071,1092,1113,1133,1153,1171,1192,1213,1232,1252,1273,1291,1312,1331,1352,1371,1392,1412,1432,1452,1473,1492,1512,1532,1551,1572,1592,1612,1631,1652,1671,1692,1712,1732],"xSR":741.5,"ySR":469.95,"xT1":424.9,"yT1":0,"xT2":1058.1,"yT2":0,"toosoon":0,"cond_shown":"Incongruent","ratio_trial":200,"L_num":14,"L_den":30,"R_num":6,"R_den":9,"correct_side":2,"subjID":"juancamiloregaladoniño27","gender":"0","school":"6","age":"11"},{"start_time":1551887092931,"click_time":1551887095360,"finger_time":1551887094879,"fix_duration":250,"trial":31,"RT":1948,"MT":481,"sideResp":1,"stimulus":[],"xmouse":[807,807,807,807,807,807,807,807,807,807,807,807,807,807,807,807,807,807,807,807,807,807,807,807,807,807,807,807,807,807,807,807,807,807,807,807,807,807,807,807,807,807,807,807,807,807,804,801,791,790,790,790,790,790,790,790,790,790,790,790,790,790,790,790,790,790,790,790,790,790,790,790,790,790,790,790,790,790,790,790,790,790,790,790,790,790,790,790,790,790,790,790,790,790,787,782,773,763,739,730,722,713,684,673,663,653,644,621,610,598,589,582,577,574,571,563,552,523,512,507,503,499],"ymouse":[510,510,510,510,510,510,510,510,510,510,510,510,510,510,510,510,510,510,510,510,510,510,510,510,510,510,510,510,510,510,510,510,510,510,510,510,510,510,510,510,510,510,510,510,510,510,510,510,508,508,508,508,508,508,508,508,508,508,508,508,508,508,508,508,508,508,508,508,508,508,508,508,508,508,508,508,508,508,508,508,508,508,508,508,508,508,508,508,508,508,508,508,508,508,502,493,477,459,417,396,380,360,329,318,308,297,288,271,263,255,249,243,235,225,216,204,188,150,135,120,108,98],"timestamp_mouse":[9,29,49,69,89,109,129,150,169,189,210,229,248,269,289,308,329,348,370,388,410,429,449,469,489,510,528,549,569,589,610,628,649,669,690,709,729,749,768,790,809,828,850,869,889,910,929,949,969,989,1009,1029,1049,1069,1089,1109,1129,1148,1169,1189,1210,1228,1250,1269,1290,1309,1330,1348,1370,1389,1409,1429,1450,1469,1489,1510,1530,1550,1568,1588,1610,1629,1650,1669,1689,1708,1729,1749,1770,1789,1810,1830,1849,1869,1888,1910,1929,1948,1968,1989,2009,2029,2050,2068,2088,2109,2129,2149,2169,2189,2208,2229,2249,2269,2289,2309,2329,2349,2368,2389,2409,2428],"xSR":741.5,"ySR":469.95,"xT1":424.9,"yT1":0,"xT2":1058.1,"yT2":0,"toosoon":0,"cond_shown":"Incongruent","ratio_trial":200,"L_num":7,"L_den":10,"R_num":14,"R_den":28,"correct_side":1,"subjID":"juancamiloregaladoniño27","gender":"0","school":"6","age":"11"},{"start_time":1551887097782,"click_time":1551887100101,"finger_time":1551887099400,"fix_duration":979.9861995513897,"trial":32,"RT":1618,"MT":701,"sideResp":1,"stimulus":[],"xmouse":[788,788,788,788,788,788,788,788,788,788,788,788,788,788,788,788,788,788,788,788,788,788,788,788,788,788,788,788,788,788,788,788,788,788,788,788,788,788,788,788,788,788,788,788,788,788,788,788,788,788,788,788,788,788,788,788,788,788,788,788,788,788,788,788,788,788,788,788,788,788,788,788,788,788,788,784,779,772,758,750,709,690,670,653,637,615,608,605,601,593,587,580,571,564,552,547,542,535,531,526,526,526,526,526,526,526,526,526,526,526,526,526,526,526,526,523],"ymouse":[521,521,521,521,521,521,521,521,521,521,521,521,521,521,521,521,521,521,521,521,521,521,521,521,521,521,521,521,521,521,521,521,521,521,521,521,521,521,521,521,521,521,521,521,521,521,521,521,521,521,521,521,521,521,521,521,521,521,521,521,521,521,521,521,521,521,521,521,521,521,521,521,521,521,521,519,515,511,502,497,468,454,440,427,416,394,385,378,371,343,326,304,281,256,202,178,160,130,121,87,82,78,78,78,78,78,78,78,78,78,78,78,78,78,77,77],"timestamp_mouse":[18,39,59,79,99,118,138,158,178,198,219,238,259,278,299,319,339,358,377,399,418,437,459,478,497,517,538,558,579,599,618,638,658,678,698,719,739,758,779,797,819,837,858,879,899,918,938,959,978,997,1019,1039,1058,1077,1098,1118,1138,1157,1178,1198,1218,1238,1257,1278,1299,1317,1337,1358,1379,1397,1418,1438,1457,1478,1498,1518,1538,1558,1578,1598,1618,1638,1658,1677,1698,1718,1738,1757,1778,1798,1818,1837,1858,1878,1899,1918,1937,1958,1978,1998,2018,2038,2058,2078,2098,2118,2138,2159,2178,2198,2218,2239,2258,2278,2298,2319],"xSR":741.5,"ySR":469.95,"xT1":424.9,"yT1":0,"xT2":1058.1,"yT2":0,"toosoon":0,"cond_shown":"Incongruent","ratio_trial":200,"L_num":3,"L_den":10,"R_num":1,"R_den":2,"correct_side":2,"subjID":"juancamiloregaladoniño27","gender":"0","school":"6","age":"11"},{"start_time":1551887104672,"click_time":1551887107101,"finger_time":1551887106460,"fix_duration":1410.0147860450613,"trial":33,"RT":1788,"MT":641,"sideResp":1,"stimulus":[],"xmouse":[766,766,766,766,766,766,766,766,766,766,766,766,766,766,766,766,766,766,766,766,766,766,766,766,766,766,766,766,766,766,766,766,766,766,766,766,766,766,766,766,766,766,766,766,766,766,766,766,766,766,766,766,766,766,766,766,766,766,766,766,766,766,766,766,766,766,766,766,766,766,766,766,766,766,766,766,766,766,766,766,766,766,766,766,765,763,751,748,743,740,723,703,678,644,602,568,562,558,554,550,540,534,526,519,507,494,487,480,475,468,460,457,457,456,456,456,456,456,455,455,452,451],"ymouse":[534,534,534,534,534,534,534,534,534,534,534,534,534,534,534,534,534,534,534,534,534,534,534,534,534,534,534,534,534,534,534,534,534,534,534,534,534,534,534,534,534,534,534,534,534,534,534,534,534,534,534,534,534,534,534,534,534,534,534,534,534,534,534,534,534,534,534,534,534,534,534,534,534,534,534,534,534,534,534,534,534,534,534,534,533,533,531,530,528,526,517,507,497,478,451,412,394,377,360,343,310,293,275,258,234,205,193,181,173,162,148,142,140,139,137,135,133,130,126,122,107,98],"timestamp_mouse":[10,37,47,68,87,108,128,147,168,188,208,227,249,269,287,308,329,347,368,388,409,428,448,468,489,509,527,549,568,588,607,628,649,668,688,709,729,748,769,787,809,829,848,868,889,909,927,948,969,989,1008,1028,1047,1068,1089,1109,1128,1149,1168,1189,1208,1227,1248,1268,1287,1309,1327,1348,1369,1389,1409,1429,1448,1469,1488,1508,1529,1549,1567,1589,1607,1629,1648,1667,1687,1708,1728,1748,1768,1788,1809,1828,1848,1868,1888,1908,1928,1947,1969,1988,2008,2027,2047,2068,2089,2108,2127,2147,2167,2188,2208,2227,2249,2268,2289,2308,2329,2348,2369,2388,2408,2428],"xSR":741.5,"ySR":469.95,"xT1":424.9,"yT1":0,"xT2":1058.1,"yT2":0,"toosoon":0,"cond_shown":"Incongruent","ratio_trial":200,"L_num":4,"L_den":6,"R_num":14,"R_den":30,"correct_side":1,"subjID":"juancamiloregaladoniño27","gender":"0","school":"6","age":"11"},{"start_time":1551887108943,"click_time":1551887112040,"finger_time":1551887111600,"fix_duration":322.65680699393226,"trial":34,"RT":2657,"MT":440,"sideResp":1,"stimulus":[],"xmouse":[767,767,767,767,767,767,767,767,767,767,767,767,767,767,767,767,767,767,767,767,767,767,767,767,767,767,767,767,767,767,767,767,767,767,767,767,767,767,767,767,767,767,767,767,767,767,767,767,767,767,767,767,767,767,767,767,767,767,767,767,767,767,767,767,767,767,767,767,767,767,767,766,764,760,757,755,754,754,754,754,754,754,754,754,754,754,754,754,754,754,754,754,754,754,754,754,754,754,754,754,754,754,754,754,754,754,754,754,754,754,754,754,754,754,754,754,754,754,754,754,754,754,754,754,754,754,754,754,754,752,750,748,720,703,686,670,637,625,616,605,602,587,579,572,562,555,536,529,523,515,508,490,483,477,472],"ymouse":[520,520,520,520,520,520,520,520,520,520,520,520,520,520,520,520,520,520,520,520,520,520,520,520,520,520,520,520,520,520,520,520,520,520,520,520,520,520,520,520,520,520,520,520,520,520,520,520,520,520,520,520,520,520,520,520,520,520,520,520,520,520,520,520,520,520,520,520,520,520,520,520,518,516,514,512,511,511,511,511,511,511,511,511,511,511,511,511,511,511,511,511,511,511,511,511,511,511,511,511,511,511,511,511,511,511,511,511,511,511,511,511,511,511,511,511,511,511,511,511,511,511,511,511,511,511,511,511,511,511,511,511,497,486,473,459,428,413,399,380,373,339,320,304,287,270,229,211,196,181,168,134,120,106,90],"timestamp_mouse":[17,37,57,77,96,116,136,157,177,197,218,237,257,277,296,316,337,358,377,397,417,436,456,477,498,516,538,556,576,597,617,637,658,678,697,718,738,757,777,796,817,838,857,877,897,918,938,958,976,997,1018,1037,1056,1078,1097,1118,1136,1157,1178,1198,1217,1237,1257,1277,1297,1317,1336,1358,1377,1397,1417,1437,1457,1477,1497,1516,1537,1558,1577,1597,1617,1638,1656,1677,1698,1717,1736,1756,1776,1797,1816,1837,1858,1877,1898,1918,1937,1957,1978,1997,2018,2037,2056,2077,2096,2118,2138,2158,2176,2197,2216,2238,2257,2276,2297,2316,2337,2357,2376,2397,2417,2437,2457,2477,2497,2516,2536,2557,2577,2597,2617,2637,2657,2677,2697,2717,2737,2757,2776,2797,2817,2837,2856,2876,2898,2917,2937,2957,2976,2996,3018,3037,3056,3077,3097],"xSR":741.5,"ySR":469.95,"xT1":424.9,"yT1":0,"xT2":1058.1,"yT2":0,"toosoon":0,"cond_shown":"Incongruent","ratio_trial":100,"L_num":6,"L_den":12,"R_num":3,"R_den":5,"correct_side":2,"subjID":"juancamiloregaladoniño27","gender":"0","school":"6","age":"11"},{"start_time":1551887114476,"click_time":1551887116761,"finger_time":1551887116260,"fix_duration":694.5057556942327,"trial":35,"RT":1784,"MT":501,"sideResp":2,"stimulus":[],"xmouse":[778,778,778,778,778,778,778,778,778,778,778,778,778,778,778,778,778,778,778,778,778,778,778,778,778,778,778,778,778,778,778,778,778,778,778,778,778,778,778,778,778,778,778,778,778,778,778,778,778,778,778,778,778,778,778,778,778,778,778,778,778,778,778,778,778,778,778,778,778,778,778,778,778,778,778,778,778,778,778,778,778,778,778,780,785,795,800,807,816,822,841,853,862,872,882,905,915,927,938,947,964,972,978,986,998,1003,1020,1028,1039,1047,1061,1067,1074,1081,1092],"ymouse":[525,525,525,525,525,525,525,525,525,525,525,525,525,525,525,525,525,525,525,525,525,525,525,525,525,525,525,525,525,525,525,525,525,525,525,525,525,525,525,525,525,525,525,525,525,525,525,525,525,525,525,525,525,525,525,525,525,525,525,525,525,525,525,525,525,525,525,525,525,525,525,525,525,525,525,525,525,525,525,525,525,524,523,521,515,503,497,487,477,469,447,433,421,410,399,377,367,356,343,333,310,300,288,276,259,253,222,209,194,181,156,143,127,113,90],"timestamp_mouse":[7,24,44,65,84,104,124,143,164,184,204,225,244,264,285,305,324,345,365,385,403,424,445,465,484,504,525,543,564,585,603,625,645,664,683,704,725,744,764,785,804,825,843,864,884,904,924,945,964,985,1004,1023,1045,1065,1083,1103,1124,1144,1163,1185,1205,1225,1244,1263,1285,1304,1324,1345,1365,1385,1405,1425,1445,1463,1485,1504,1524,1544,1564,1584,1605,1624,1644,1664,1683,1704,1724,1744,1763,1784,1804,1824,1844,1864,1885,1904,1925,1944,1964,1984,2004,2023,2044,2064,2085,2103,2125,2145,2165,2184,2204,2223,2244,2264,2285],"xSR":741.5,"ySR":469.95,"xT1":424.9,"yT1":0,"xT2":1058.1,"yT2":0,"toosoon":0,"cond_shown":"Incongruent","ratio_trial":100,"L_num":6,"L_den":12,"R_num":3,"R_den":5,"correct_side":2,"subjID":"juancamiloregaladoniño27","gender":"0","school":"6","age":"11"},{"start_time":1551887120373,"click_time":1551887122580,"finger_time":1551887122019,"fix_duration":432.9005633753853,"trial":36,"RT":1646,"MT":561,"sideResp":2,"stimulus":[],"xmouse":[794,794,794,794,794,794,794,794,794,794,794,794,794,794,794,794,794,794,794,794,794,794,794,794,794,794,794,794,794,794,794,794,794,794,794,794,794,794,794,794,794,794,794,794,794,794,794,794,794,794,794,794,794,794,794,794,794,794,794,794,794,794,794,794,794,794,794,794,794,794,794,794,794,794,794,794,794,794,793,793,801,807,818,830,846,860,882,890,895,899,906,908,911,916,922,945,958,969,983,995,1022,1030,1037,1042,1045,1048,1053,1057,1059,1062,1065],"ymouse":[516,516,516,516,516,516,516,516,516,516,516,516,516,516,516,516,516,516,516,516,516,516,516,516,516,516,516,516,516,516,516,516,516,516,516,516,516,516,516,516,516,516,516,516,516,516,516,516,516,516,516,516,516,516,516,516,516,516,516,516,516,516,516,516,516,516,516,516,516,516,516,516,516,516,516,516,516,516,515,514,501,488,468,446,419,395,350,333,320,310,296,292,287,280,272,245,233,220,204,189,158,149,141,134,128,124,115,110,108,102,98],"timestamp_mouse":[13,34,47,67,86,107,128,146,167,188,207,227,246,266,287,308,328,348,368,387,408,426,448,468,487,507,527,548,568,587,607,628,648,667,687,707,726,748,767,786,807,828,847,868,888,907,926,948,967,986,1007,1028,1047,1068,1088,1106,1128,1147,1167,1188,1208,1227,1248,1266,1288,1308,1328,1348,1367,1387,1408,1427,1447,1468,1486,1508,1527,1547,1567,1588,1607,1627,1646,1668,1687,1707,1727,1747,1767,1787,1807,1826,1847,1866,1887,1907,1926,1947,1966,1988,2007,2027,2046,2068,2087,2107,2126,2147,2167,2187,2207],"xSR":741.5,"ySR":469.95,"xT1":424.9,"yT1":0,"xT2":1058.1,"yT2":0,"toosoon":0,"cond_shown":"Incongruent","ratio_trial":100,"L_num":11,"L_den":22,"R_num":9,"R_den":15,"correct_side":2,"subjID":"juancamiloregaladoniño27","gender":"0","school":"6","age":"11"},{"start_time":1551887125472,"click_time":1551887127541,"finger_time":1551887126980,"fix_duration":250,"trial":37,"RT":1508,"MT":561,"sideResp":1,"stimulus":[],"xmouse":[808,808,808,808,808,808,808,808,808,808,808,808,808,808,808,808,808,808,808,808,808,808,808,808,808,808,808,808,808,808,808,808,808,808,808,808,808,808,808,808,808,808,808,808,808,808,808,808,808,808,808,808,808,808,808,808,808,808,808,808,808,808,808,808,808,808,808,808,808,808,808,808,808,808,808,777,769,767,766,766,762,759,756,750,745,736,731,722,713,700,679,665,653,640,625,618,589,577,568,559,552,534,527,521],"ymouse":[480,480,480,480,480,480,480,480,480,480,480,480,480,480,480,480,480,480,480,480,480,480,480,480,480,480,480,480,480,480,480,480,480,480,480,480,480,480,480,480,480,480,480,480,480,480,480,480,480,480,480,480,480,480,480,480,480,480,480,480,480,480,480,480,480,480,480,480,480,480,480,480,480,479,477,458,454,452,451,451,449,448,447,444,441,430,422,411,399,384,356,338,321,304,283,275,235,216,197,178,161,124,106,91],"timestamp_mouse":[8,40,47,69,88,107,127,148,167,187,207,228,247,268,288,308,329,347,369,389,409,429,448,468,489,507,528,549,569,588,609,628,648,669,689,707,727,747,768,788,809,828,848,869,888,908,929,948,968,988,1009,1028,1049,1069,1088,1109,1128,1149,1168,1187,1208,1229,1249,1268,1287,1308,1329,1349,1369,1388,1407,1428,1447,1467,1488,1508,1528,1547,1569,1588,1608,1627,1648,1668,1687,1709,1729,1748,1768,1789,1809,1828,1848,1869,1888,1909,1928,1948,1969,1989,2009,2028,2048,2068],"xSR":741.5,"ySR":469.95,"xT1":424.9,"yT1":0,"xT2":1058.1,"yT2":0,"toosoon":0,"cond_shown":"Congruent","ratio_trial":100,"L_num":9,"L_den":15,"R_num":8,"R_den":16,"correct_side":1,"subjID":"juancamiloregaladoniño27","gender":"0","school":"6","age":"11"},{"start_time":1551887131732,"click_time":1551887134201,"finger_time":1551887133641,"fix_duration":370.3830462826602,"trial":38,"RT":1909,"MT":560,"sideResp":1,"stimulus":[],"xmouse":[786,786,786,786,786,786,786,786,786,786,786,786,786,786,786,786,786,786,786,786,786,786,786,786,786,786,786,786,786,786,786,786,786,786,786,786,786,786,786,786,786,786,786,786,786,786,786,786,786,786,786,786,786,786,786,786,786,786,786,786,786,786,786,786,786,786,786,786,786,786,786,786,786,786,786,786,786,786,786,786,786,786,786,786,786,786,786,786,786,786,786,786,784,769,754,739,726,709,702,695,691,684,667,660,654,645,635,609,596,588,578,578,578,578,578,578,578,578,578,578,578,578,578,489],"ymouse":[499,499,499,499,499,499,499,499,499,499,499,499,499,499,499,499,499,499,499,499,499,499,499,499,499,499,499,499,499,499,499,499,499,499,499,499,499,499,499,499,499,499,499,499,499,499,499,499,499,499,499,499,499,499,499,499,499,499,499,499,499,499,499,499,499,499,499,499,499,499,499,499,499,499,499,499,499,499,499,499,499,499,499,499,499,499,499,499,499,499,499,499,498,493,488,477,467,444,430,413,399,382,331,308,281,251,213,123,79,47,2,2,2,2,2,2,2,2,2,2,2,2,2,2],"timestamp_mouse":[9,29,48,68,89,109,129,154,169,188,208,230,250,268,289,308,330,348,368,389,409,430,448,468,489,510,529,549,570,589,610,629,649,668,690,710,728,748,770,789,810,830,849,870,890,909,929,948,969,988,1009,1029,1049,1068,1088,1110,1130,1149,1169,1190,1208,1230,1248,1269,1288,1310,1328,1350,1369,1388,1410,1429,1448,1469,1490,1509,1529,1549,1570,1588,1608,1628,1649,1669,1688,1710,1728,1749,1769,1789,1808,1828,1848,1869,1889,1909,1928,1948,1968,1989,2009,2029,2048,2068,2088,2108,2128,2149,2168,2189,2208,2229,2249,2269,2289,2309,2328,2349,2368,2389,2408,2429,2448,2468],"xSR":741.5,"ySR":469.95,"xT1":424.9,"yT1":0,"xT2":1058.1,"yT2":0,"toosoon":0,"cond_shown":"Congruent","ratio_trial":200,"L_num":9,"L_den":20,"R_num":4,"R_den":16,"correct_side":1,"subjID":"juancamiloregaladoniño27","gender":"0","school":"6","age":"11"},{"start_time":1551887136842,"click_time":1551887138661,"finger_time":1551887138321,"fix_duration":739.6249462864916,"trial":39,"RT":1479,"MT":340,"sideResp":2,"stimulus":[],"xmouse":[808,808,808,808,808,808,808,808,808,808,808,808,808,808,808,808,808,808,808,808,806,794,781,768,761,758,758,758,758,758,758,758,758,758,758,758,758,758,758,758,758,758,758,758,758,758,758,758,758,758,758,758,758,758,759,761,762,765,766,767,770,776,778,779,781,781,782,782,782,782,784,789,791,795,800,806,848,867,885,903,922,953,970,984,996,1008,1028,1057,1071,1085,1099],"ymouse":[521,521,521,521,521,521,521,521,521,521,521,521,521,521,521,521,521,521,521,521,521,521,521,519,518,517,517,517,517,517,517,517,517,517,517,517,517,517,517,517,517,517,517,517,517,517,517,517,517,517,517,517,517,517,517,517,517,517,516,516,514,508,502,499,495,494,493,493,493,491,488,478,472,465,457,450,418,399,372,343,311,255,228,210,194,181,162,135,120,103,83],"timestamp_mouse":[19,39,59,79,99,120,139,159,178,200,220,238,258,279,299,319,338,359,378,399,419,439,459,478,498,519,540,559,578,599,620,638,658,679,698,718,739,759,779,798,820,838,858,880,899,919,938,958,980,998,1018,1039,1058,1079,1098,1119,1139,1158,1178,1199,1219,1238,1258,1280,1299,1318,1339,1360,1378,1398,1418,1439,1458,1479,1498,1518,1539,1559,1578,1599,1619,1639,1658,1679,1699,1718,1738,1759,1779,1799,1818],"xSR":741.5,"ySR":469.95,"xT1":424.9,"yT1":0,"xT2":1058.1,"yT2":0,"toosoon":0,"cond_shown":"Incongruent","ratio_trial":300,"L_num":13,"L_den":26,"R_num":12,"R_den":15,"correct_side":2,"subjID":"juancamiloregaladoniño27","gender":"0","school":"6","age":"11"},{"start_time":1551887141591,"click_time":1551887144100,"finger_time":1551887143780,"fix_duration":250,"trial":40,"RT":2189,"MT":320,"sideResp":1,"stimulus":[],"xmouse":[776,776,776,776,776,776,776,776,776,776,776,776,776,776,776,776,776,776,776,776,776,776,776,776,776,776,776,776,776,776,776,776,776,776,776,776,776,776,776,776,776,776,776,776,776,776,776,776,776,776,776,776,776,776,776,776,776,776,776,776,776,776,776,776,776,776,776,776,776,776,776,776,776,776,776,776,776,776,776,776,776,776,776,776,776,776,776,776,776,776,776,776,776,776,776,776,776,776,776,776,776,776,775,773,761,754,749,746,744,741,737,732,726,716,691,673,652,627,604,585,544,530,519,508,492,482],"ymouse":[526,526,526,526,526,526,526,526,526,526,526,526,526,526,526,526,526,526,526,526,526,526,526,526,526,526,526,526,526,526,526,526,526,526,526,526,526,526,526,526,526,526,526,526,526,526,526,526,526,526,526,526,526,526,526,526,526,526,526,526,526,526,526,526,526,526,526,526,526,526,526,526,526,526,526,526,526,526,526,526,526,526,526,526,526,526,526,526,526,526,526,526,526,526,526,526,526,526,526,526,526,526,525,524,513,503,494,483,473,464,446,435,421,405,373,357,338,320,304,290,252,233,215,191,136,98],"timestamp_mouse":[10,35,49,70,89,110,129,149,170,190,210,230,249,269,290,310,330,350,369,391,409,429,450,470,490,509,529,551,569,590,609,631,649,670,689,710,731,749,770,789,810,831,849,871,890,909,931,950,971,990,1010,1030,1049,1070,1090,1111,1129,1150,1171,1190,1209,1229,1250,1271,1290,1311,1329,1349,1370,1390,1410,1430,1451,1470,1490,1510,1531,1549,1570,1591,1610,1630,1649,1670,1690,1711,1729,1749,1769,1790,1811,1831,1851,1870,1890,1910,1931,1951,1969,1989,2010,2029,2051,2070,2089,2110,2131,2149,2170,2189,2209,2229,2250,2269,2289,2309,2329,2349,2370,2390,2410,2429,2450,2469,2490,2509],"xSR":741.5,"ySR":469.95,"xT1":424.9,"yT1":0,"xT2":1058.1,"yT2":0,"toosoon":0,"cond_shown":"Incongruent","ratio_trial":200,"L_num":7,"L_den":10,"R_num":8,"R_den":16,"correct_side":1,"subjID":"juancamiloregaladoniño27","gender":"0","school":"6","age":"11"},{"start_time":1551887149338,"click_time":1551887151380,"finger_time":1551887151081,"fix_duration":335.13368693083055,"trial":41,"RT":1743,"MT":299,"sideResp":2,"stimulus":[],"xmouse":[763,763,763,763,763,763,763,763,763,763,763,763,763,763,764,764,764,764,765,766,767,767,767,767,767,767,767,767,767,767,767,767,767,767,767,767,767,767,767,767,767,767,767,767,767,767,767,767,767,767,767,767,767,767,767,767,767,767,767,767,767,767,767,767,767,767,767,767,767,767,767,767,767,767,767,769,770,773,776,779,784,785,792,795,798,805,814,849,877,908,934,955,999,1015,1028,1039,1049,1063,1068,1072,1075,1075,1075],"ymouse":[527,527,527,527,527,527,527,527,527,527,527,527,527,527,526,526,526,526,526,526,526,526,526,526,526,526,526,526,526,526,526,526,526,526,526,526,526,526,526,526,526,526,526,526,526,526,526,526,526,526,526,526,526,526,526,526,526,526,526,526,526,526,526,526,526,526,526,526,526,526,526,526,526,526,526,525,525,524,524,522,519,517,509,503,495,485,472,439,415,386,358,330,261,240,219,199,183,152,135,123,110,102,90],"timestamp_mouse":[7,22,44,62,82,102,122,143,162,182,202,222,242,263,283,303,324,343,364,382,404,422,442,462,482,502,522,543,563,583,603,622,642,662,682,703,722,742,764,782,804,823,842,862,883,902,922,942,964,984,1002,1023,1042,1063,1083,1103,1123,1143,1162,1184,1202,1222,1244,1264,1284,1303,1322,1344,1363,1382,1403,1424,1442,1463,1483,1503,1522,1543,1563,1583,1602,1623,1642,1664,1683,1703,1723,1743,1762,1783,1802,1822,1844,1863,1882,1904,1922,1942,1962,1983,2002,2023,2042],"xSR":741.5,"ySR":469.95,"xT1":424.9,"yT1":0,"xT2":1058.1,"yT2":0,"toosoon":0,"cond_shown":"Congruent","ratio_trial":100,"L_num":1,"L_den":2,"R_num":3,"R_den":5,"correct_side":2,"subjID":"juancamiloregaladoniño27","gender":"0","school":"6","age":"11"},{"start_time":1551887156132,"click_time":1551887159340,"finger_time":1551887158741,"fix_duration":250,"trial":42,"RT":2609,"MT":599,"sideResp":1,"stimulus":[],"xmouse":[770,770,770,770,770,770,770,770,770,770,770,770,770,770,770,771,772,772,772,773,773,773,773,773,773,773,773,773,773,773,773,773,774,774,775,775,775,775,775,775,775,775,775,775,775,775,775,775,775,775,775,775,775,775,775,775,775,775,775,775,775,775,775,775,775,775,775,775,775,775,775,775,775,775,775,775,775,775,775,775,775,775,775,775,775,775,775,775,775,775,775,775,775,775,775,775,776,776,776,776,776,776,776,776,776,776,776,777,778,778,779,779,779,779,779,779,779,779,779,779,779,779,779,779,779,779,779,779,776,773,764,752,724,707,692,679,666,645,636,627,621,612,596,588,583,581,578,577,574,573,569,562,557,538,530,519,511,497,492,490,489],"ymouse":[546,546,546,546,545,545,545,545,545,545,545,545,545,544,544,543,543,541,541,541,541,541,541,541,541,541,541,541,541,541,541,541,540,539,538,538,538,538,538,538,538,538,538,538,538,538,538,538,538,538,538,538,538,538,538,538,538,538,538,538,538,538,538,538,538,538,538,538,538,538,538,538,538,538,538,538,538,538,538,538,537,536,535,533,533,533,533,533,533,533,533,533,533,533,533,532,531,531,531,531,531,531,531,531,531,531,530,529,529,527,526,524,524,524,524,524,524,524,524,524,524,524,524,524,524,524,523,514,504,487,465,438,373,344,318,298,279,250,238,227,220,210,195,188,184,182,178,174,171,169,166,162,158,143,136,129,122,111,106,102,99],"timestamp_mouse":[8,28,49,69,89,110,130,148,170,190,209,228,249,269,290,308,329,348,369,388,408,429,448,468,490,508,528,548,569,589,608,629,648,669,690,708,729,748,770,788,810,830,848,869,890,909,929,948,970,989,1009,1028,1049,1069,1089,1108,1129,1149,1168,1188,1209,1230,1249,1269,1289,1310,1328,1349,1370,1388,1410,1428,1450,1469,1488,1509,1528,1549,1569,1588,1609,1629,1649,1669,1689,1709,1728,1749,1769,1788,1809,1828,1848,1869,1888,1910,1929,1949,1970,1989,2008,2030,2048,2069,2090,2109,2129,2149,2170,2188,2208,2228,2249,2270,2288,2309,2328,2348,2370,2388,2408,2428,2449,2469,2488,2508,2529,2549,2569,2588,2609,2628,2648,2668,2689,2709,2728,2749,2768,2788,2808,2829,2849,2868,2888,2908,2929,2948,2968,2988,3008,3029,3049,3069,3088,3108,3128,3149,3168,3188,3208],"xSR":741.5,"ySR":469.95,"xT1":424.9,"yT1":0,"xT2":1058.1,"yT2":0,"toosoon":0,"cond_shown":"Incongruent","ratio_trial":100,"L_num":13,"L_den":26,"R_num":6,"R_den":10,"correct_side":2,"subjID":"juancamiloregaladoniño27","gender":"0","school":"6","age":"11"},{"start_time":1551887161087,"click_time":1551887163441,"finger_time":1551887162801,"fix_duration":465.3297995486271,"trial":43,"RT":1714,"MT":640,"sideResp":1,"stimulus":[],"xmouse":[779,779,779,779,779,779,779,779,779,779,779,779,779,779,779,779,779,779,779,779,779,779,779,779,780,780,780,780,780,780,780,780,780,780,780,780,780,780,780,780,780,780,780,780,780,780,780,780,780,780,780,780,780,780,780,780,780,780,780,780,780,780,780,780,780,780,780,780,780,780,780,780,780,780,780,782,784,786,788,791,797,798,798,798,798,798,797,793,787,769,756,741,721,700,648,632,617,604,594,577,569,562,557,552,535,527,516,504,492,472,468,467,467,467,467,467,469,472],"ymouse":[521,521,521,521,521,521,521,521,521,521,521,521,521,521,521,521,521,521,521,521,521,521,521,521,521,521,521,521,521,521,521,521,521,521,521,521,521,521,521,521,521,521,521,521,521,521,521,521,521,521,521,521,521,521,521,521,521,521,521,521,521,521,521,521,521,521,521,521,521,521,521,521,521,521,521,520,518,516,513,508,494,488,482,477,470,467,463,458,451,431,419,408,392,375,326,306,291,274,261,239,231,225,220,216,205,198,191,181,175,158,152,146,141,136,123,117,108,99],"timestamp_mouse":[27,34,53,73,93,115,133,153,174,194,214,234,254,274,293,313,334,354,373,394,415,434,453,475,493,513,534,555,574,594,613,634,654,675,695,714,734,755,773,794,813,833,854,874,893,913,934,955,973,995,1014,1033,1053,1075,1095,1114,1134,1155,1174,1194,1214,1233,1255,1273,1294,1313,1334,1354,1374,1393,1414,1434,1453,1473,1495,1514,1533,1553,1574,1593,1613,1635,1654,1673,1693,1714,1733,1753,1773,1793,1813,1834,1853,1873,1893,1913,1933,1953,1973,1994,2013,2034,2053,2075,2094,2113,2133,2155,2173,2194,2213,2234,2253,2275,2294,2314,2334,2354],"xSR":741.5,"ySR":469.95,"xT1":424.9,"yT1":0,"xT2":1058.1,"yT2":0,"toosoon":0,"cond_shown":"Congruent","ratio_trial":100,"L_num":3,"L_den":6,"R_num":2,"R_den":5,"correct_side":1,"subjID":"juancamiloregaladoniño27","gender":"0","school":"6","age":"11"},{"start_time":1551887166309,"click_time":1551887169820,"finger_time":1551887169180,"fix_duration":1486.775935014453,"trial":44,"RT":2871,"MT":640,"sideResp":1,"stimulus":[],"xmouse":[798,798,798,798,798,798,798,798,798,798,798,798,798,798,798,798,798,798,798,798,798,798,798,798,798,798,798,798,798,798,798,798,798,798,798,798,798,798,798,798,798,798,798,798,798,798,798,798,798,798,798,798,798,798,798,798,798,798,798,798,798,798,798,798,798,798,798,798,798,798,798,798,798,798,798,798,798,798,798,798,798,798,798,798,798,798,798,798,798,798,798,798,798,798,798,798,798,798,798,798,798,798,798,798,798,798,798,798,798,798,798,798,798,798,798,798,798,798,798,798,798,798,798,798,798,798,798,798,798,795,791,784,778,777,777,777,775,775,768,763,759,753,745,737,714,705,698,691,681,677,674,670,666,651,646,641,637,633,628,626,623,621,615,612,609,607,605,603,600,588,579,570,559,534,528,521],"ymouse":[530,530,530,530,530,530,530,530,530,530,530,530,530,530,530,530,530,530,530,530,530,530,530,530,530,530,530,530,530,530,530,530,530,530,530,530,530,530,530,530,530,530,530,530,530,530,530,530,530,530,530,530,530,530,530,530,530,530,530,530,530,530,530,530,530,530,530,530,530,530,530,530,530,530,530,530,530,530,530,530,530,530,530,530,530,530,530,530,530,530,530,530,530,530,530,530,530,530,530,530,530,530,530,530,530,530,530,530,530,530,530,530,530,530,530,530,530,530,530,530,530,530,530,530,530,530,530,530,530,530,530,530,530,530,530,530,530,529,522,516,511,503,494,486,458,448,439,430,415,405,394,381,367,322,303,285,268,250,209,186,167,149,134,124,118,117,116,116,115,112,111,107,105,97,96,94],"timestamp_mouse":[12,45,52,71,92,111,133,152,171,192,212,231,252,271,291,313,331,352,372,392,411,431,451,472,491,513,531,552,571,593,611,633,651,671,691,712,731,751,773,791,811,833,852,873,892,911,933,952,971,993,1012,1031,1051,1073,1093,1111,1133,1151,1172,1192,1212,1232,1252,1273,1292,1311,1333,1352,1372,1391,1411,1432,1452,1472,1492,1511,1532,1551,1572,1591,1612,1631,1653,1671,1691,1711,1732,1751,1771,1792,1811,1831,1852,1871,1892,1911,1932,1951,1971,1993,2013,2032,2052,2071,2093,2111,2133,2151,2171,2192,2211,2232,2251,2273,2291,2311,2333,2351,2371,2392,2411,2431,2451,2472,2491,2511,2531,2552,2572,2592,2611,2631,2652,2673,2691,2712,2732,2751,2772,2791,2813,2831,2852,2871,2892,2911,2932,2951,2971,2991,3012,3032,3052,3072,3092,3111,3131,3152,3172,3191,3212,3231,3252,3271,3293,3312,3331,3351,3371,3392,3411,3431,3453,3472,3492,3511],"xSR":741.5,"ySR":469.95,"xT1":424.9,"yT1":0,"xT2":1058.1,"yT2":0,"toosoon":0,"cond_shown":"Incongruent","ratio_trial":100,"L_num":13,"L_den":26,"R_num":