[{"start_time":1551891608090,"click_time":1551891611772,"finger_time":1551891610173,"fix_duration":334.39423836011764,"trial":0,"RT":2083,"MT":1599,"sideResp":2,"stimulus":"img/750/equaldotanddens/R/12_Ratio_750_L_3_R_4.png","xmouse":[802,802,802,801,801,801,801,801,801,801,801,801,801,801,801,801,801,801,801,801,801,801,801,801,801,801,801,801,801,801,801,801,801,801,801,801,801,801,801,801,801,801,801,801,801,801,801,801,801,801,801,801,801,801,801,801,801,801,801,801,801,801,801,801,801,801,801,801,801,801,801,801,801,801,801,801,801,801,801,801,801,801,801,801,801,801,801,801,801,801,801,801,801,801,801,801,801,801,801,801,801,802,805,815,875,926,986,1050,1115,1236,1286,1331,1376,1398,1423,1434,1441,1445,1446,1447,1445,1437,1436,1433,1426,1421,1409,1393,1373,1340,1315,1298,1282,1268,1247,1241,1239,1238,1238,1237,1236,1235,1228,1221,1208,1202,1192,1180,1166,1155,1143,1138,1135,1133,1131,1131,1131,1131,1131,1131,1131,1131,1131,1131,1131,1131,1131,1131,1131,1131,1131,1131,1131,1131,1131,1131,1131,1131,1131,1132,1132,1131,1131,1130,1128],"ymouse":[534,533,533,533,533,533,533,533,533,533,533,533,533,533,533,533,533,533,533,533,533,533,533,533,533,533,533,533,533,533,533,533,533,533,533,533,533,533,533,533,533,533,533,533,533,533,533,533,533,533,533,533,533,533,533,533,533,533,533,533,533,533,533,533,533,533,533,533,533,533,533,533,533,533,533,533,533,533,533,533,533,533,533,533,533,533,533,533,533,533,533,533,533,533,533,533,533,533,533,533,533,533,533,531,524,517,509,497,479,438,419,397,372,356,331,315,303,292,281,262,252,238,234,229,220,215,206,196,187,172,158,152,145,141,135,132,131,131,131,129,129,129,128,126,121,121,121,123,127,128,131,131,130,130,130,130,130,130,130,130,130,130,130,130,130,130,130,130,130,130,130,130,130,130,130,130,130,130,130,127,121,112,108,104,98],"timestamp_mouse":[10,32,42,61,81,103,122,143,163,182,203,221,242,263,282,303,322,343,363,383,403,422,443,463,483,502,522,543,561,581,602,623,643,661,683,703,722,742,763,782,802,823,842,863,882,902,922,943,962,983,1003,1021,1042,1063,1083,1101,1123,1143,1163,1182,1202,1223,1243,1263,1282,1303,1322,1343,1363,1383,1402,1423,1442,1462,1483,1503,1523,1543,1563,1582,1603,1622,1643,1663,1682,1702,1723,1742,1763,1782,1802,1822,1842,1862,1883,1902,1921,1943,1962,1983,2002,2021,2042,2061,2083,2102,2122,2142,2162,2181,2202,2222,2242,2262,2282,2301,2322,2342,2362,2382,2402,2422,2443,2461,2482,2501,2522,2542,2562,2582,2602,2622,2643,2662,2682,2702,2722,2742,2763,2783,2803,2823,2843,2862,2882,2901,2922,2942,2962,2982,3002,3022,3043,3061,3082,3102,3122,3142,3163,3182,3203,3222,3242,3262,3282,3302,3321,3342,3363,3383,3403,3422,3441,3463,3481,3502,3523,3542,3562,3582,3602,3622,3643,3662,3682],"xSR":741.5,"ySR":469.95,"xT1":424.9,"yT1":0,"xT2":1058.1,"yT2":0,"toosoon":0,"cond_shown":"equaldotanddens","ratio_trial":750,"smaller_num":"3","larger_num":"4","correct_side":2,"subjID":"juandavidalvarezmontes3","gender":"0","age":"11","school":"6","test":{"fix_dur":[250,1500],"timestim":300,"targets_dim":[100,100],"targets_relative_coord":[0.3,0.7],"size_stim":[880,420],"start_dim":[100,100],"size_start":[300,300],"size_fix":60,"samplingrate":20,"img_types":["equaldotsize","equaldotanddens","randomdotsizeEA"],"ratios":[250,500,750,900],"rep_conds":9,"nTrials":120,"trials_to_rest":500,"Trials_order":[79,69,66,93,6,92,67,54,1,74,101,103,111,60,59,35,77,88,112,29,110,109,5,119,84,3,105,56,46,107,32,91,18,19,38,53,0,118,37,27,78,55,39,99,89,16,52,72,117,106,62,114,21,108,20,73,98,76,2,47,97,116,80,82,96,87,102,68,71,8,44,95,15,104,50,42,33,58,115,12,65,48,63,11,85,28,30,61,81,22,51,36,94,40,31,75,25,90,64,57,13,70,45,43,100,49,113,26,14,10,23,24,17,34,41,86,83,9,4,7],"cond_shown":["equaldotanddens","equaldotsize","equaldotsize","equaldotsize","equaldotsize","randomdotsizeEA","equaldotanddens","equaldotsize","equaldotanddens","randomdotsizeEA","randomdotsizeEA","equaldotanddens","equaldotsize","equaldotsize","randomdotsizeEA","randomdotsizeEA","randomdotsizeEA","equaldotanddens","equaldotanddens","randomdotsizeEA","randomdotsizeEA","equaldotanddens","randomdotsizeEA","randomdotsizeEA","equaldotsize","equaldotsize","equaldotsize","randomdotsizeEA","equaldotanddens","randomdotsizeEA","randomdotsizeEA","equaldotanddens","equaldotsize","equaldotanddens","randomdotsizeEA","randomdotsizeEA","equaldotsize","equaldotanddens","equaldotanddens","equaldotsize","equaldotsize","equaldotanddens","equaldotsize","equaldotsize","randomdotsizeEA","equaldotanddens","equaldotanddens","equaldotsize","equaldotsize","equaldotanddens","randomdotsizeEA","equaldotsize","equaldotsize","equaldotsize","randomdotsizeEA","equaldotanddens","randomdotsizeEA","equaldotanddens","randomdotsizeEA","randomdotsizeEA","equaldotanddens","randomdotsizeEA","randomdotsizeEA","equaldotanddens","equaldotsize","equaldotsize","equaldotsize","randomdotsizeEA","randomdotsizeEA","randomdotsizeEA","randomdotsizeEA","randomdotsizeEA","equaldotsize","randomdotsizeEA","randomdotsizeEA","equaldotsize","equaldotsize","equaldotanddens","equaldotanddens","equaldotsize","randomdotsizeEA","equaldotsize","equaldotsize","randomdotsizeEA","equaldotanddens","equaldotanddens","equaldotsize","equaldotanddens","equaldotsize","equaldotanddens","equaldotsize","equaldotsize","equaldotanddens","equaldotanddens","equaldotanddens","equaldotsize","equaldotanddens","equaldotsize","equaldotanddens","equaldotsize","equaldotanddens","equaldotanddens","equaldotsize","equaldotanddens","equaldotanddens","equaldotanddens","randomdotsizeEA","randomdotsizeEA","randomdotsizeEA","equaldotanddens","randomdotsizeEA","equaldotsize","randomdotsizeEA","equaldotanddens","randomdotsizeEA","randomdotsizeEA","randomdotsizeEA","equaldotsize","equaldotanddens","equaldotanddens"],"ratio_trial":[750,900,750,900,750,750,750,750,250,250,500,750,500,250,900,900,500,500,500,500,250,250,500,900,250,500,900,750,900,900,750,750,750,750,250,500,250,900,250,500,750,750,500,500,500,500,500,250,900,900,250,750,900,250,750,250,250,500,250,900,250,750,750,900,250,500,750,750,900,750,750,900,500,750,250,750,900,900,750,250,500,250,500,900,250,500,750,250,900,900,500,250,900,500,750,500,250,750,500,900,250,900,900,750,500,250,500,250,250,900,900,250,500,900,500,250,900,900,500,750],"smaller_num":["3","9","6","9","15","3","3","15","5","3","1","3","5","3","9","18","2","6","2","9","3","3","2","18","4","9","9","12","9","18","6","15","3","3","3","5","3","9","2","2","18","6","9","6","1","10","4","3","18","18","3","3","9","1","3","5","3","9","2","18","2","3","15","9","2","3","18","6","18","3","15","18","9","15","5","3","18","18","3","2","9","3","4","18","2","2","15","4","18","18","10","2","9","2","3","2","1","18","2","9","2","18","18","3","3","5","1","2","2","18","18","2","9","18","3","2","18","18","2","6"],"larger_num":["4","10","8","10","20","4","4","20","20","12","2","4","10","12","10","20","4","12","4","18","12","12","4","20","16","18","10","16","10","20","8","20","4","4","12","10","12","10","8","4","24","8","18","12","2","20","8","12","20","20","12","4","10","4","4","20","12","18","8","20","8","4","20","10","8","6","24","8","20","4","20","20","18","20","20","4","20","20","4","8","18","12","8","20","8","4","20","16","20","20","20","8","10","4","4","4","4","24","4","10","8","20","20","4","6","20","2","8","8","20","20","8","18","20","6","8","20","20","4","8"],"correct_side":[2,2,1,1,2,1,1,1,2,2,2,1,1,2,1,1,2,1,2,2,2,1,2,2,1,2,2,2,1,1,1,2,1,1,1,1,2,2,1,2,1,1,1,1,2,2,1,1,2,2,1,2,1,2,2,2,2,2,1,1,1,1,1,2,2,2,1,2,2,2,1,2,2,2,2,1,2,1,1,1,1,1,1,1,1,1,1,2,1,1,2,1,2,2,1,1,2,1,2,2,1,1,2,2,2,2,2,2,1,1,1,2,1,1,2,2,2,2,1,1],"img_shown":["img/750/equaldotanddens/R/12_Ratio_750_L_3_R_4.png","img/900/equaldotsize/R/7_Ratio_900_L_9_R_10.png","img/750/equaldotsize/L/13_Ratio_750_L_8_R_6.png","img/900/equaldotsize/L/1_Ratio_900_L_10_R_9.png","img/750/equaldotsize/R/4_Ratio_750_L_15_R_20.png","img/750/randomdotsizeEA/L/8_Ratio_750_L_4_R_3.png","img/750/equaldotanddens/L/8_Ratio_750_L_4_R_3.png","img/750/equaldotsize/L/1_Ratio_750_L_20_R_15.png","img/250/equaldotanddens/R/12_Ratio_250_L_5_R_20.png","img/250/randomdotsizeEA/R/4_Ratio_250_L_3_R_12.png","img/500/randomdotsizeEA/R/12_Ratio_500_L_1_R_2.png","img/750/equaldotanddens/L/9_Ratio_750_L_4_R_3.png","img/500/equaldotsize/L/7_Ratio_500_L_10_R_5.png","img/250/equaldotsize/R/4_Ratio_250_L_3_R_12.png","img/900/randomdotsizeEA/L/1_Ratio_900_L_10_R_9.png","img/900/randomdotsizeEA/L/8_Ratio_900_L_20_R_18.png","img/500/randomdotsizeEA/R/9_Ratio_500_L_2_R_4.png","img/500/equaldotanddens/L/11_Ratio_500_L_12_R_6.png","img/500/equaldotanddens/R/9_Ratio_500_L_2_R_4.png","img/500/randomdotsizeEA/R/6_Ratio_500_L_9_R_18.png","img/250/randomdotsizeEA/R/9_Ratio_250_L_3_R_12.png","img/250/equaldotanddens/L/15_Ratio_250_L_12_R_3.png","img/500/randomdotsizeEA/R/9_Ratio_500_L_2_R_4.png","img/900/randomdotsizeEA/R/9_Ratio_900_L_18_R_20.png","img/250/equaldotsize/L/2_Ratio_250_L_16_R_4.png","img/500/equaldotsize/R/6_Ratio_500_L_9_R_18.png","img/900/equaldotsize/R/7_Ratio_900_L_9_R_10.png","img/750/randomdotsizeEA/R/11_Ratio_750_L_12_R_16.png","img/900/equaldotanddens/L/1_Ratio_900_L_10_R_9.png","img/900/randomdotsizeEA/L/2_Ratio_900_L_20_R_18.png","img/750/randomdotsizeEA/L/13_Ratio_750_L_8_R_6.png","img/750/equaldotanddens/R/3_Ratio_750_L_15_R_20.png","img/750/equaldotsize/L/8_Ratio_750_L_4_R_3.png","img/750/equaldotanddens/L/9_Ratio_750_L_4_R_3.png","img/250/randomdotsizeEA/L/14_Ratio_250_L_12_R_3.png","img/500/randomdotsizeEA/L/7_Ratio_500_L_10_R_5.png","img/250/equaldotsize/R/11_Ratio_250_L_3_R_12.png","img/900/equaldotanddens/R/7_Ratio_900_L_9_R_10.png","img/250/equaldotanddens/L/7_Ratio_250_L_8_R_2.png","img/500/equaldotsize/R/9_Ratio_500_L_2_R_4.png","img/750/equaldotsize/L/6_Ratio_750_L_24_R_18.png","img/750/equaldotanddens/L/14_Ratio_750_L_8_R_6.png","img/500/equaldotsize/L/4_Ratio_500_L_18_R_9.png","img/500/equaldotsize/L/11_Ratio_500_L_12_R_6.png","img/500/randomdotsizeEA/R/12_Ratio_500_L_1_R_2.png","img/500/equaldotanddens/R/3_Ratio_500_L_10_R_20.png","img/500/equaldotanddens/L/8_Ratio_500_L_8_R_4.png","img/250/equaldotsize/L/14_Ratio_250_L_12_R_3.png","img/900/equaldotsize/R/14_Ratio_900_L_18_R_20.png","img/900/equaldotanddens/R/9_Ratio_900_L_18_R_20.png","img/250/randomdotsizeEA/L/14_Ratio_250_L_12_R_3.png","img/750/equaldotsize/R/7_Ratio_750_L_3_R_4.png","img/900/equaldotsize/L/1_Ratio_900_L_10_R_9.png","img/250/equaldotsize/R/8_Ratio_250_L_1_R_4.png","img/750/randomdotsizeEA/R/12_Ratio_750_L_3_R_4.png","img/250/equaldotanddens/R/12_Ratio_250_L_5_R_20.png","img/250/randomdotsizeEA/R/9_Ratio_250_L_3_R_12.png","img/500/equaldotanddens/R/6_Ratio_500_L_9_R_18.png","img/250/randomdotsizeEA/L/7_Ratio_250_L_8_R_2.png","img/900/randomdotsizeEA/L/10_Ratio_900_L_20_R_18.png","img/250/equaldotanddens/L/3_Ratio_250_L_8_R_2.png","img/750/randomdotsizeEA/L/9_Ratio_750_L_4_R_3.png","img/750/randomdotsizeEA/L/1_Ratio_750_L_20_R_15.png","img/900/equaldotanddens/R/7_Ratio_900_L_9_R_10.png","img/250/equaldotsize/R/13_Ratio_250_L_2_R_8.png","img/500/equaldotsize/R/2_Ratio_500_L_3_R_6.png","img/750/equaldotsize/L/6_Ratio_750_L_24_R_18.png","img/750/randomdotsizeEA/R/2_Ratio_750_L_6_R_8.png","img/900/randomdotsizeEA/R/9_Ratio_900_L_18_R_20.png","img/750/randomdotsizeEA/R/7_Ratio_750_L_3_R_4.png","img/750/randomdotsizeEA/L/1_Ratio_750_L_20_R_15.png","img/900/randomdotsizeEA/R/14_Ratio_900_L_18_R_20.png","img/500/equaldotsize/R/1_Ratio_500_L_9_R_18.png","img/750/randomdotsizeEA/R/3_Ratio_750_L_15_R_20.png","img/250/randomdotsizeEA/R/12_Ratio_250_L_5_R_20.png","img/750/equaldotsize/L/10_Ratio_750_L_4_R_3.png","img/900/equaldotsize/R/13_Ratio_900_L_18_R_20.png","img/900/equaldotanddens/L/2_Ratio_900_L_20_R_18.png","img/750/equaldotanddens/L/9_Ratio_750_L_4_R_3.png","img/250/equaldotsize/L/1_Ratio_250_L_8_R_2.png","img/500/randomdotsizeEA/L/4_Ratio_500_L_18_R_9.png","img/250/equaldotsize/L/14_Ratio_250_L_12_R_3.png","img/500/equaldotsize/L/8_Ratio_500_L_8_R_4.png","img/900/randomdotsizeEA/L/8_Ratio_900_L_20_R_18.png","img/250/equaldotanddens/L/3_Ratio_250_L_8_R_2.png","img/500/equaldotanddens/L/10_Ratio_500_L_4_R_2.png","img/750/equaldotsize/L/1_Ratio_750_L_20_R_15.png","img/250/equaldotanddens/R/10_Ratio_250_L_4_R_16.png","img/900/equaldotsize/L/10_Ratio_900_L_20_R_18.png","img/900/equaldotanddens/L/4_Ratio_900_L_20_R_18.png","img/500/equaldotsize/R/3_Ratio_500_L_10_R_20.png","img/250/equaldotsize/L/1_Ratio_250_L_8_R_2.png","img/900/equaldotanddens/R/7_Ratio_900_L_9_R_10.png","img/500/equaldotanddens/R/9_Ratio_500_L_2_R_4.png","img/750/equaldotanddens/L/10_Ratio_750_L_4_R_3.png","img/500/equaldotsize/L/5_Ratio_500_L_4_R_2.png","img/250/equaldotanddens/R/8_Ratio_250_L_1_R_4.png","img/750/equaldotsize/L/6_Ratio_750_L_24_R_18.png","img/500/equaldotanddens/R/9_Ratio_500_L_2_R_4.png","img/900/equaldotsize/R/6_Ratio_900_L_9_R_10.png","img/250/equaldotanddens/L/3_Ratio_250_L_8_R_2.png","img/900/equaldotanddens/L/4_Ratio_900_L_20_R_18.png","img/900/equaldotsize/R/13_Ratio_900_L_18_R_20.png","img/750/equaldotanddens/R/12_Ratio_750_L_3_R_4.png","img/500/equaldotanddens/R/2_Ratio_500_L_3_R_6.png","img/250/equaldotanddens/R/12_Ratio_250_L_5_R_20.png","img/500/randomdotsizeEA/R/12_Ratio_500_L_1_R_2.png","img/250/randomdotsizeEA/R/13_Ratio_250_L_2_R_8.png","img/250/randomdotsizeEA/L/1_Ratio_250_L_8_R_2.png","img/900/equaldotanddens/L/4_Ratio_900_L_20_R_18.png","img/900/randomdotsizeEA/L/10_Ratio_900_L_20_R_18.png","img/250/equaldotsize/R/13_Ratio_250_L_2_R_8.png","img/500/randomdotsizeEA/L/4_Ratio_500_L_18_R_9.png","img/900/equaldotanddens/L/2_Ratio_900_L_20_R_18.png","img/500/randomdotsizeEA/R/2_Ratio_500_L_3_R_6.png","img/250/randomdotsizeEA/R/13_Ratio_250_L_2_R_8.png","img/900/randomdotsizeEA/R/14_Ratio_900_L_18_R_20.png","img/900/equaldotsize/R/14_Ratio_900_L_18_R_20.png","img/500/equaldotanddens/L/5_Ratio_500_L_4_R_2.png","img/750/equaldotanddens/L/13_Ratio_750_L_8_R_6.png"],"Rat0":[["12_Ratio_0_L_9_R_0.png","13_Ratio_0_L_6_R_0.png","5_Ratio_0_L_2_R_0.png","6_Ratio_0_L_4_R_0.png","8_Ratio_0_L_6_R_0.png"],["1_Ratio_0_L_0_R_17.png","10_Ratio_0_L_0_R_22.png","11_Ratio_0_L_0_R_1.png","14_Ratio_0_L_0_R_24.png","15_Ratio_0_L_0_R_4.png","2_Ratio_0_L_0_R_5.png","3_Ratio_0_L_0_R_17.png","4_Ratio_0_L_0_R_7.png","7_Ratio_0_L_0_R_19.png","9_Ratio_0_L_0_R_15.png"]],"Rat250":[["1_Ratio_250_L_8_R_2.png","14_Ratio_250_L_12_R_3.png","15_Ratio_250_L_12_R_3.png","2_Ratio_250_L_16_R_4.png","3_Ratio_250_L_8_R_2.png","5_Ratio_250_L_24_R_6.png","7_Ratio_250_L_8_R_2.png"],["10_Ratio_250_L_4_R_16.png","11_Ratio_250_L_3_R_12.png","12_Ratio_250_L_5_R_20.png","13_Ratio_250_L_2_R_8.png","4_Ratio_250_L_3_R_12.png","6_Ratio_250_L_6_R_24.png","8_Ratio_250_L_1_R_4.png","9_Ratio_250_L_3_R_12.png"]],"Rat500":[["10_Ratio_500_L_4_R_2.png","11_Ratio_500_L_12_R_6.png","13_Ratio_500_L_12_R_6.png","4_Ratio_500_L_18_R_9.png","5_Ratio_500_L_4_R_2.png","7_Ratio_500_L_10_R_5.png","8_Ratio_500_L_8_R_4.png"],["1_Ratio_500_L_9_R_18.png","12_Ratio_500_L_1_R_2.png","14_Ratio_500_L_5_R_10.png","15_Ratio_500_L_1_R_2.png","2_Ratio_500_L_3_R_6.png","3_Ratio_500_L_10_R_20.png","6_Ratio_500_L_9_R_18.png","9_Ratio_500_L_2_R_4.png"]],"Rat750":[["1_Ratio_750_L_20_R_15.png","10_Ratio_750_L_4_R_3.png","13_Ratio_750_L_8_R_6.png","14_Ratio_750_L_8_R_6.png","6_Ratio_750_L_24_R_18.png","8_Ratio_750_L_4_R_3.png","9_Ratio_750_L_4_R_3.png"],["11_Ratio_750_L_12_R_16.png","12_Ratio_750_L_3_R_4.png","15_Ratio_750_L_9_R_12.png","2_Ratio_750_L_6_R_8.png","3_Ratio_750_L_15_R_20.png","4_Ratio_750_L_15_R_20.png","5_Ratio_750_L_15_R_20.png","7_Ratio_750_L_3_R_4.png"]],"Rat900":[["1_Ratio_900_L_10_R_9.png","10_Ratio_900_L_20_R_18.png","2_Ratio_900_L_20_R_18.png","4_Ratio_900_L_20_R_18.png","8_Ratio_900_L_20_R_18.png"],["11_Ratio_900_L_18_R_20.png","12_Ratio_900_L_18_R_20.png","13_Ratio_900_L_18_R_20.png","14_Ratio_900_L_18_R_20.png","15_Ratio_900_L_9_R_10.png","3_Ratio_900_L_9_R_10.png","5_Ratio_900_L_9_R_10.png","6_Ratio_900_L_9_R_10.png","7_Ratio_900_L_9_R_10.png","9_Ratio_900_L_18_R_20.png"]],"Rat1000":[["10_Ratio_1000_L_16_R_16.png","11_Ratio_1000_L_6_R_6.png","12_Ratio_1000_L_14_R_14.png","13_Ratio_1000_L_20_R_20.png","15_Ratio_1000_L_15_R_15.png","2_Ratio_1000_L_17_R_17.png","4_Ratio_1000_L_9_R_9.png","5_Ratio_1000_L_6_R_6.png","6_Ratio_1000_L_19_R_19.png","8_Ratio_1000_L_14_R_14.png","9_Ratio_1000_L_25_R_25.png"],["1_Ratio_1000_L_1_R_1.png","14_Ratio_1000_L_17_R_17.png","3_Ratio_1000_L_17_R_17.png","7_Ratio_1000_L_6_R_6.png"]]}},{"start_time":1551891614257,"click_time":1551891615473,"finger_time":1551891614832,"fix_duration":1362.6962044501313,"trial":1,"RT":575,"MT":641,"sideResp":2,"stimulus":"img/900/equaldotsize/R/7_Ratio_900_L_9_R_10.png","xmouse":[802,802,802,802,802,802,802,802,802,802,802,802,802,802,802,802,802,802,802,802,802,802,802,802,802,802,812,830,850,872,893,935,948,958,966,981,995,1013,1037,1058,1102,1121,1131,1138,1144,1150,1150,1151,1151,1153,1153,1153,1153,1153,1150,1148,1147,1144,1142,1139,1139],"ymouse":[514,514,514,514,514,514,514,514,514,514,514,514,514,514,514,514,514,514,514,514,514,514,514,514,514,514,514,514,514,513,507,482,472,464,459,448,438,423,403,386,349,322,306,289,272,250,244,237,234,228,207,195,184,177,168,150,139,125,114,106,99],"timestamp_mouse":[14,35,55,76,94,115,136,155,174,196,215,236,254,275,296,315,335,354,376,394,414,436,456,476,494,515,534,555,575,595,614,635,655,675,695,716,734,755,774,796,816,835,855,876,895,915,935,954,975,995,1016,1035,1055,1074,1094,1116,1135,1154,1174,1195,1215],"xSR":741.5,"ySR":469.95,"xT1":424.9,"yT1":0,"xT2":1058.1,"yT2":0,"toosoon":0,"cond_shown":"equaldotsize","ratio_trial":900,"smaller_num":"9","larger_num":"10","correct_side":2,"subjID":"juandavidalvarezmontes3","gender":"0","age":"11","school":"6"},{"start_time":1551891617401,"click_time":1551891618952,"finger_time":1551891618152,"fix_duration":927.7933201577538,"trial":2,"RT":751,"MT":800,"sideResp":1,"stimulus":"img/750/equaldotsize/L/13_Ratio_750_L_8_R_6.png","xmouse":[780,780,780,780,780,780,780,780,780,780,780,780,780,780,780,780,780,780,780,780,780,780,780,780,780,780,780,780,780,780,780,780,780,780,780,779,764,732,698,663,649,646,638,625,624,622,621,619,617,617,617,620,621,620,617,616,612,610,605,589,579,562,548,536,526,525,525,525,525,525,525,525,525,525,525,525,525,524],"ymouse":[526,526,526,526,526,526,526,526,526,526,526,526,526,526,526,526,526,526,526,526,526,526,526,526,526,526,526,526,526,526,526,526,526,526,526,526,510,477,439,380,342,329,290,247,232,220,212,206,192,175,155,138,118,113,104,101,96,92,87,79,75,72,68,64,63,63,63,63,63,63,63,63,63,63,63,63,63,63],"timestamp_mouse":[26,33,50,70,91,111,131,151,171,191,212,230,252,272,291,312,331,351,371,392,411,431,450,471,491,512,531,550,570,591,612,631,652,670,691,710,732,751,771,791,811,831,852,873,891,910,931,951,972,991,1012,1031,1051,1070,1091,1111,1131,1151,1171,1191,1212,1230,1251,1270,1291,1311,1332,1352,1372,1391,1411,1431,1451,1472,1491,1511,1532,1551],"xSR":741.5,"ySR":469.95,"xT1":424.9,"yT1":0,"xT2":1058.1,"yT2":0,"toosoon":0,"cond_shown":"equaldotsize","ratio_trial":750,"smaller_num":"6","larger_num":"8","correct_side":1,"subjID":"juandavidalvarezmontes3","gender":"0","age":"11","school":"6"},{"start_time":1551891620424,"click_time":1551891621652,"finger_time":1551891621152,"fix_duration":470.9648163863199,"trial":3,"RT":728,"MT":500,"sideResp":1,"stimulus":"img/900/equaldotsize/L/1_Ratio_900_L_10_R_9.png","xmouse":[759,759,759,759,759,759,759,759,759,759,759,759,759,759,759,759,759,759,759,759,759,759,759,759,759,759,759,759,759,759,759,759,759,759,761,762,761,748,712,696,685,670,650,619,611,609,607,604,599,599,599,599,599,593,588,584,579,573,547,530,527,523],"ymouse":[540,540,540,540,540,540,540,540,540,540,540,540,540,540,540,540,540,540,540,540,540,540,540,540,540,540,540,540,540,540,540,540,540,540,533,485,427,364,266,224,203,179,151,97,80,67,52,39,30,30,30,30,30,30,30,30,30,30,34,37,37,37],"timestamp_mouse":[10,31,48,67,88,108,127,148,168,189,209,228,249,267,289,309,327,349,368,387,408,429,449,467,489,508,528,548,568,587,608,628,648,669,687,709,728,748,769,788,808,828,848,868,889,908,928,949,969,988,1009,1028,1049,1068,1088,1108,1128,1148,1168,1189,1208,1228],"xSR":741.5,"ySR":469.95,"xT1":424.9,"yT1":0,"xT2":1058.1,"yT2":0,"toosoon":0,"cond_shown":"equaldotsize","ratio_trial":900,"smaller_num":"9","larger_num":"10","correct_side":1,"subjID":"juandavidalvarezmontes3","gender":"0","age":"11","school":"6"},{"start_time":1551891622705,"click_time":1551891623713,"finger_time":1551891623292,"fix_duration":250,"trial":4,"RT":587,"MT":421,"sideResp":2,"stimulus":"img/750/equaldotsize/R/4_Ratio_750_L_15_R_20.png","xmouse":[805,805,805,805,805,805,805,805,805,805,805,805,805,805,805,805,805,805,805,805,805,805,805,805,805,805,805,810,820,888,907,923,940,961,1026,1039,1045,1052,1061,1081,1087,1092,1095,1099,1117,1128,1137,1139,1139,1139,1140],"ymouse":[532,532,532,532,532,532,532,532,532,532,532,532,532,532,532,532,532,532,532,532,532,532,532,532,532,532,532,529,520,467,446,423,399,369,280,261,247,231,217,192,185,178,174,165,129,114,105,102,101,100,94],"timestamp_mouse":[9,28,49,68,88,106,127,147,168,187,208,228,247,267,287,307,327,348,367,388,407,427,447,468,488,507,527,548,567,587,606,627,646,668,688,707,726,748,767,788,807,826,847,868,888,906,926,947,967,987,1007],"xSR":741.5,"ySR":469.95,"xT1":424.9,"yT1":0,"xT2":1058.1,"yT2":0,"toosoon":0,"cond_shown":"equaldotsize","ratio_trial":750,"smaller_num":"15","larger_num":"20","correct_side":2,"subjID":"juandavidalvarezmontes3","gender":"0","age":"11","school":"6"},{"start_time":1551891626008,"click_time":1551891628412,"finger_time":1551891628012,"fix_duration":1494.7583419437724,"trial":5,"RT":2004,"MT":400,"sideResp":1,"stimulus":"img/750/randomdotsizeEA/L/8_Ratio_750_L_4_R_3.png","xmouse":[806,806,806,806,806,806,806,806,806,806,806,806,806,806,806,806,806,806,806,806,806,806,806,806,806,806,806,806,806,806,806,800,793,787,782,781,781,781,780,779,778,777,777,777,777,777,777,777,777,777,777,777,777,777,777,777,777,777,777,777,777,777,777,777,777,777,777,777,777,777,777,777,777,777,777,777,777,777,777,777,777,777,777,777,777,777,777,777,777,777,777,777,777,777,777,777,777,777,776,775,743,717,689,655,612,544,533,529,526,525,524,524,524,524,524,520,518,515,513,512,512],"ymouse":[533,533,533,533,533,533,533,533,533,533,533,533,533,533,533,533,533,533,533,533,533,533,533,533,533,533,533,533,533,533,532,524,517,512,508,507,507,507,507,506,504,504,504,504,504,504,504,504,504,504,504,504,504,504,504,504,504,504,504,504,504,504,504,504,504,504,504,504,504,504,504,504,504,504,504,504,504,504,504,504,504,504,504,504,504,504,504,504,504,504,504,504,504,504,504,504,504,504,502,496,444,412,380,340,293,236,220,208,195,190,185,182,182,181,176,160,150,134,121,111,98],"timestamp_mouse":[9,30,44,65,83,105,125,144,163,184,204,225,245,265,285,303,323,345,364,385,405,424,444,463,484,505,525,545,565,585,604,623,645,664,685,704,724,744,764,784,804,825,844,865,885,905,925,945,964,983,1004,1023,1043,1065,1085,1104,1125,1145,1165,1183,1205,1224,1244,1264,1285,1305,1324,1344,1365,1384,1405,1423,1445,1465,1485,1505,1524,1545,1563,1583,1604,1625,1645,1664,1684,1703,1724,1743,1763,1784,1804,1823,1844,1864,1884,1905,1924,1944,1964,1984,2004,2025,2044,2063,2084,2104,2124,2144,2164,2184,2204,2224,2243,2264,2284,2304,2324,2343,2363,2384,2403],"xSR":741.5,"ySR":469.95,"xT1":424.9,"yT1":0,"xT2":1058.1,"yT2":0,"toosoon":0,"cond_shown":"randomdotsizeEA","ratio_trial":750,"smaller_num":"3","larger_num":"4","correct_side":1,"subjID":"juandavidalvarezmontes3","gender":"0","age":"11","school":"6"},{"start_time":1551891629948,"click_time":1551891631413,"finger_time":1551891630912,"fix_duration":274.9199815240454,"trial":6,"RT":964,"MT":501,"sideResp":2,"stimulus":"img/750/equaldotanddens/L/8_Ratio_750_L_4_R_3.png","xmouse":[782,782,782,782,782,782,782,782,782,782,782,782,782,782,782,782,782,782,782,782,782,782,782,782,782,782,782,782,782,782,782,782,782,782,782,782,782,782,782,782,782,781,781,781,781,787,794,810,847,867,875,882,887,900,912,927,946,977,1038,1052,1061,1072,1080,1096,1103,1107,1108,1111,1114,1116,1116,1116,1116,1116],"ymouse":[504,504,504,504,504,504,504,504,504,504,504,504,504,504,504,504,504,504,504,504,504,504,504,504,504,504,504,504,504,504,504,504,504,504,504,504,504,504,504,504,505,507,507,507,507,504,498,489,467,456,452,448,445,435,426,414,398,369,318,305,295,283,271,246,231,221,214,204,186,144,131,120,112,96],"timestamp_mouse":[9,33,44,65,85,104,124,144,165,183,205,223,245,263,284,304,325,345,365,384,404,424,445,465,485,505,523,544,564,584,604,624,644,663,685,705,724,744,765,785,803,823,845,865,884,905,924,943,964,985,1004,1024,1044,1064,1083,1103,1124,1145,1164,1184,1204,1224,1244,1264,1284,1304,1324,1345,1364,1384,1404,1425,1444,1465],"xSR":741.5,"ySR":469.95,"xT1":424.9,"yT1":0,"xT2":1058.1,"yT2":0,"toosoon":0,"cond_shown":"equaldotanddens","ratio_trial":750,"smaller_num":"3","larger_num":"4","correct_side":1,"subjID":"juandavidalvarezmontes3","gender":"0","age":"11","school":"6"},{"start_time":1551891634476,"click_time":1551891635832,"finger_time":1551891635391,"fix_duration":1463.0220217556734,"trial":7,"RT":915,"MT":441,"sideResp":1,"stimulus":"img/750/equaldotsize/L/1_Ratio_750_L_20_R_15.png","xmouse":[822,822,822,822,822,822,822,822,822,822,822,822,822,822,822,822,822,822,822,822,822,822,822,822,822,822,822,822,822,822,822,822,822,822,822,822,822,822,822,822,822,822,822,822,813,789,734,703,641,625,610,605,601,596,585,576,570,565,565,565,563,559,544,533,527,525,525,524],"ymouse":[519,519,519,519,519,519,519,519,519,519,519,519,519,519,519,519,519,519,519,519,519,519,519,519,519,519,519,519,519,519,519,519,519,519,519,519,519,519,519,519,519,519,519,519,503,439,338,307,261,248,237,231,209,183,147,118,104,97,97,97,91,79,47,30,22,21,21,21],"timestamp_mouse":[15,39,55,77,97,116,136,156,175,196,217,236,256,276,296,316,336,357,375,396,417,437,456,475,496,516,537,556,576,595,617,637,656,675,695,717,735,756,775,796,815,835,857,875,896,915,938,956,975,995,1016,1036,1055,1075,1095,1115,1136,1156,1175,1195,1216,1235,1255,1276,1295,1315,1336,1356],"xSR":741.5,"ySR":469.95,"xT1":424.9,"yT1":0,"xT2":1058.1,"yT2":0,"toosoon":0,"cond_shown":"equaldotsize","ratio_trial":750,"smaller_num":"15","larger_num":"20","correct_side":1,"subjID":"juandavidalvarezmontes3","gender":"0","age":"11","school":"6"},{"start_time":1551891637137,"click_time":1551891638232,"finger_time":1551891637591,"fix_duration":303.3912586584716,"trial":8,"RT":454,"MT":641,"sideResp":2,"stimulus":"img/250/equaldotanddens/R/12_Ratio_250_L_5_R_20.png","xmouse":[776,776,776,776,776,776,776,776,776,776,776,776,776,776,776,776,776,777,781,802,817,835,856,874,907,927,937,953,965,990,999,1004,1010,1017,1028,1034,1046,1060,1069,1073,1074,1075,1077,1080,1090,1092,1096,1098,1102,1106,1106,1106,1106,1106,1107],"ymouse":[548,548,548,548,548,548,548,548,548,548,548,548,548,548,548,548,548,548,543,528,515,501,486,475,450,435,421,400,380,340,324,312,297,283,258,244,221,201,189,179,177,175,172,169,164,159,151,142,135,126,122,117,109,104,98],"timestamp_mouse":[16,37,55,75,95,114,134,156,175,196,216,235,254,275,295,314,336,356,375,394,414,435,454,474,494,516,534,554,574,594,614,634,654,675,694,716,734,756,774,794,814,834,855,874,895,914,934,955,974,994,1016,1036,1055,1074,1095],"xSR":741.5,"ySR":469.95,"xT1":424.9,"yT1":0,"xT2":1058.1,"yT2":0,"toosoon":0,"cond_shown":"equaldotanddens","ratio_trial":250,"smaller_num":"5","larger_num":"20","correct_side":2,"subjID":"juandavidalvarezmontes3","gender":"0","age":"11","school":"6"},{"start_time":1551891639717,"click_time":1551891641033,"finger_time":1551891640471,"fix_duration":463.4788372319849,"trial":9,"RT":754,"MT":562,"sideResp":2,"stimulus":"img/250/randomdotsizeEA/R/4_Ratio_250_L_3_R_12.png","xmouse":[800,800,800,800,800,800,800,800,800,800,800,800,800,800,800,800,800,800,800,800,800,800,800,800,800,800,800,800,800,800,800,800,800,800,800,804,810,817,821,823,825,826,830,834,840,852,857,862,866,871,875,882,888,895,903,930,946,965,979,994,1023,1038,1050,1059,1068,1089],"ymouse":[525,525,525,525,525,525,525,525,525,525,525,525,525,525,525,525,525,525,525,525,525,525,525,525,525,525,525,525,525,525,525,525,525,525,524,499,478,460,451,445,433,430,424,414,408,396,391,385,379,374,368,361,358,353,349,325,302,275,249,224,186,169,156,147,135,99],"timestamp_mouse":[15,36,56,75,94,115,134,154,174,194,215,236,255,275,295,315,335,355,374,395,414,434,454,474,496,514,536,556,575,595,615,635,656,676,695,714,734,754,776,794,815,834,855,875,895,916,934,954,975,994,1016,1035,1056,1074,1095,1115,1134,1154,1174,1195,1215,1234,1254,1274,1294,1315],"xSR":741.5,"ySR":469.95,"xT1":424.9,"yT1":0,"xT2":1058.1,"yT2":0,"toosoon":0,"cond_shown":"randomdotsizeEA","ratio_trial":250,"smaller_num":"3","larger_num":"12","correct_side":2,"subjID":"juandavidalvarezmontes3","gender":"0","age":"11","school":"6"},{"start_time":1551891643242,"click_time":1551891644411,"finger_time":1551891643972,"fix_duration":1248.2038134550198,"trial":10,"RT":730,"MT":439,"sideResp":2,"stimulus":"img/500/randomdotsizeEA/R/12_Ratio_500_L_1_R_2.png","xmouse":[807,807,807,807,807,807,807,807,807,807,807,807,807,807,807,807,807,807,807,807,807,807,807,807,807,807,807,807,807,807,807,807,807,810,813,830,843,859,887,926,936,944,951,960,972,1006,1017,1026,1040,1053,1071,1074,1076,1077,1078,1078,1080,1088,1096],"ymouse":[516,516,516,516,516,516,516,516,516,516,516,516,516,516,516,516,516,516,516,516,516,516,516,516,516,516,516,516,516,516,516,516,516,510,505,486,473,462,445,411,397,383,368,354,331,271,247,226,193,172,137,129,125,122,119,117,113,102,91],"timestamp_mouse":[9,37,49,69,90,111,131,150,170,189,211,229,249,269,290,310,331,350,370,390,410,429,449,471,489,510,530,551,571,591,610,630,651,670,689,709,730,749,770,791,809,829,849,869,889,909,931,950,969,990,1009,1029,1050,1069,1091,1109,1129,1150,1169],"xSR":741.5,"ySR":469.95,"xT1":424.9,"yT1":0,"xT2":1058.1,"yT2":0,"toosoon":0,"cond_shown":"randomdotsizeEA","ratio_trial":500,"smaller_num":"1","larger_num":"2","correct_side":2,"subjID":"juandavidalvarezmontes3","gender":"0","age":"11","school":"6"},{"start_time":1551891646576,"click_time":1551891648652,"finger_time":1551891647451,"fix_duration":1202.7238621583483,"trial":11,"RT":875,"MT":1201,"sideResp":1,"stimulus":"img/750/equaldotanddens/L/9_Ratio_750_L_4_R_3.png","xmouse":[822,822,822,822,822,822,822,822,822,822,822,822,822,822,822,822,822,822,822,822,822,822,822,822,822,822,822,822,822,822,822,822,822,822,822,822,822,822,822,822,820,816,811,797,787,774,756,732,710,663,639,625,614,602,598,595,593,587,582,580,579,579,579,576,574,574,574,574,574,573,572,570,567,563,558,555,552,550,550,550,550,550,550,550,550,550,550,546,537,532,532,532,532,532,532,531,531,531,531,531,531,531,529,523],"ymouse":[508,508,508,508,508,508,508,508,508,508,508,508,508,508,508,508,508,508,508,508,508,508,508,508,508,508,508,508,508,508,508,508,508,508,508,508,508,508,508,508,504,493,480,455,442,427,411,396,382,356,339,329,319,299,288,280,269,254,224,198,182,169,154,134,132,129,129,129,129,128,127,125,122,118,112,110,107,105,105,105,105,105,105,105,105,105,105,101,90,87,87,87,87,87,87,87,87,87,87,87,87,87,87,82],"timestamp_mouse":[16,35,56,76,97,115,136,156,176,197,217,236,256,276,296,316,336,355,377,396,416,436,455,477,497,515,536,556,575,595,615,637,656,677,696,715,735,756,776,795,815,836,855,875,896,916,936,956,975,995,1015,1035,1055,1075,1095,1116,1136,1155,1176,1196,1215,1236,1256,1280,1295,1316,1336,1355,1375,1395,1415,1435,1455,1475,1495,1515,1535,1556,1576,1596,1616,1636,1655,1676,1696,1716,1735,1756,1775,1796,1816,1836,1856,1875,1897,1917,1936,1955,1976,1995,2016,2035,2056,2076],"xSR":741.5,"ySR":469.95,"xT1":424.9,"yT1":0,"xT2":1058.1,"yT2":0,"toosoon":0,"cond_shown":"equaldotanddens","ratio_trial":750,"smaller_num":"3","larger_num":"4","correct_side":1,"subjID":"juandavidalvarezmontes3","gender":"0","age":"11","school":"6"},{"start_time":1551891650409,"click_time":1551891651654,"finger_time":1551891651151,"fix_duration":835.0234488815724,"trial":12,"RT":742,"MT":503,"sideResp":1,"stimulus":"img/500/equaldotsize/L/7_Ratio_500_L_10_R_5.png","xmouse":[815,815,815,815,815,815,815,815,815,815,815,815,815,815,815,815,815,815,815,815,815,815,815,815,815,815,815,815,815,815,815,815,815,815,815,807,800,768,719,700,681,663,631,622,613,608,608,608,608,606,603,598,588,582,571,559,548,536,532,527,523,519,514],"ymouse":[515,515,515,515,515,515,515,515,515,515,515,515,515,515,515,515,515,515,515,515,515,515,515,515,515,515,515,515,515,515,515,515,515,515,515,499,488,450,397,378,357,338,312,305,298,293,293,293,293,288,276,257,214,198,181,166,149,129,121,115,110,105,98],"timestamp_mouse":[10,23,42,63,84,103,122,143,164,184,203,224,243,264,283,302,323,342,363,383,403,424,443,463,482,504,523,542,563,583,604,623,643,663,684,703,722,742,762,782,803,822,845,862,883,903,923,942,962,982,1002,1022,1044,1062,1082,1102,1124,1144,1162,1183,1204,1223,1244],"xSR":741.5,"ySR":469.95,"xT1":424.9,"yT1":0,"xT2":1058.1,"yT2":0,"toosoon":0,"cond_shown":"equaldotsize","ratio_trial":500,"smaller_num":"5","larger_num":"10","correct_side":1,"subjID":"juandavidalvarezmontes3","gender":"0","age":"11","school":"6"},{"start_time":1551891652906,"click_time":1551891653971,"finger_time":1551891653571,"fix_duration":472.660495494591,"trial":13,"RT":665,"MT":400,"sideResp":2,"stimulus":"img/250/equaldotsize/R/4_Ratio_250_L_3_R_12.png","xmouse":[785,785,785,785,785,785,785,785,785,785,785,785,785,785,785,785,785,785,785,785,785,785,785,785,785,785,785,785,785,785,785,786,792,823,842,864,891,914,945,955,964,968,972,989,1002,1011,1016,1018,1022,1025,1037,1046,1057,1077],"ymouse":[521,521,521,521,521,521,521,521,521,521,521,521,521,521,521,521,521,521,521,521,521,521,521,521,521,521,521,521,521,521,521,520,505,455,432,403,369,336,278,257,236,224,214,183,164,150,142,137,131,128,119,113,106,91],"timestamp_mouse":[9,32,46,66,86,106,126,146,165,186,206,226,245,267,286,305,326,346,366,386,405,427,447,467,486,506,526,545,567,586,605,626,646,665,686,705,726,746,765,787,805,825,845,865,885,906,925,946,965,987,1005,1027,1046,1065],"xSR":741.5,"ySR":469.95,"xT1":424.9,"yT1":0,"xT2":1058.1,"yT2":0,"toosoon":0,"cond_shown":"equaldotsize","ratio_trial":250,"smaller_num":"3","larger_num":"12","correct_side":2,"subjID":"juandavidalvarezmontes3","gender":"0","age":"11","school":"6"},{"start_time":1551891655434,"click_time":1551891659511,"finger_time":1551891656371,"fix_duration":401.96757393152774,"trial":14,"RT":937,"MT":3140,"sideResp":1,"stimulus":"img/900/randomdotsizeEA/L/1_Ratio_900_L_10_R_9.png","xmouse":[795,795,795,795,795,795,795,795,795,795,795,795,795,795,795,795,795,795,795,795,795,795,795,795,795,795,795,795,795,795,795,795,795,795,795,795,795,795,795,795,795,795,795,794,798,813,864,889,910,928,949,974,985,991,996,1001,1013,1016,1018,1019,1019,1019,1019,1019,1019,1019,1019,1019,1019,1019,1019,1019,1019,1019,1020,1022,1028,1030,1034,1037,1041,1045,1051,1054,1055,1055,1055,1055,1055,1055,1055,1055,1055,1055,1055,1055,1055,1055,1055,1055,1055,1055,1055,1055,1055,1055,1055,1055,1055,1055,1055,1055,1055,1055,1055,1055,1055,1055,1055,1055,1055,1055,1055,1055,1055,1055,1055,1055,1055,1055,1055,1055,1055,1055,1055,1055,1055,1055,1055,1055,1055,1055,1055,1055,1055,1055,1055,1055,1055,1055,1055,1055,1055,1055,1055,1049,1026,1010,992,970,948,919,911,899,884,866,824,797,760,708,653,535,508,487,466,451,441,441,441,440,439,437,437,439,440,440,441,443,444,444,445,446,449,449,449,449,449,449,450,450,450,454,455,458],"ymouse":[532,532,532,532,532,532,532,532,532,532,532,532,532,532,532,532,532,532,532,532,532,532,532,532,532,532,532,532,532,532,532,532,532,532,532,532,532,532,532,532,532,532,532,531,515,485,408,374,350,329,307,276,257,247,238,231,209,199,191,189,189,189,189,189,189,189,189,189,189,189,187,183,179,174,169,163,151,145,137,128,120,107,96,90,87,86,86,86,86,86,86,86,86,86,86,86,86,86,86,86,86,86,86,86,86,86,86,86,86,86,86,86,86,86,86,86,86,86,86,86,86,86,86,86,86,86,86,86,86,86,86,86,86,86,86,86,86,86,86,86,86,86,86,86,86,86,86,86,86,86,86,86,86,86,87,94,105,110,115,121,128,137,139,143,148,152,158,162,167,175,183,198,202,205,205,205,205,205,205,203,202,192,185,177,170,163,158,147,142,138,132,127,120,119,119,119,119,118,117,116,114,105,101,97],"timestamp_mouse":[18,40,58,78,97,117,138,157,179,197,217,239,257,278,298,318,338,357,379,397,418,437,459,479,498,519,537,558,577,598,618,638,658,677,698,719,737,759,778,798,817,837,858,878,898,918,937,958,977,997,1018,1038,1058,1077,1098,1117,1138,1157,1177,1198,1217,1238,1257,1277,1297,1318,1338,1358,1378,1399,1417,1438,1457,1477,1498,1517,1538,1557,1577,1598,1619,1638,1658,1677,1698,1719,1738,1758,1778,1798,1818,1838,1858,1879,1898,1917,1938,1957,1977,1998,2018,2037,2058,2078,2098,2117,2138,2157,2177,2197,2217,2238,2258,2279,2299,2318,2338,2358,2377,2397,2417,2437,2458,2478,2498,2517,2537,2557,2578,2598,2619,2638,2659,2679,2699,2718,2738,2757,2777,2797,2818,2838,2858,2877,2898,2919,2938,2958,2978,2999,3017,3038,3058,3078,3097,3118,3138,3157,3178,3198,3218,3238,3257,3277,3298,3318,3338,3357,3378,3399,3418,3438,3458,3477,3497,3517,3539,3558,3578,3598,3617,3638,3657,3677,3697,3717,3738,3757,3778,3799,3818,3837,3857,3877,3898,3918,3938,3957,3978,3999,4018,4038,4057,4077],"xSR":741.5,"ySR":469.95,"xT1":424.9,"yT1":0,"xT2":1058.1,"yT2":0,"toosoon":0,"cond_shown":"randomdotsizeEA","ratio_trial":900,"smaller_num":"9","larger_num":"10","correct_side":1,"subjID":"juandavidalvarezmontes3","gender":"0","age":"11","school":"6"},{"start_time":1551891661973,"click_time":1551891663092,"finger_time":1551891662631,"fix_duration":1279.6627532235884,"trial":15,"RT":658,"MT":461,"sideResp":2,"stimulus":"img/900/randomdotsizeEA/L/8_Ratio_900_L_20_R_18.png","xmouse":[756,756,756,756,756,756,756,756,756,756,756,756,756,756,756,756,756,756,756,756,756,756,756,756,756,756,756,756,756,756,756,760,770,778,788,803,830,840,846,855,865,900,930,940,967,985,1033,1056,1076,1095,1110,1135,1147,1150,1150,1150,1148],"ymouse":[533,533,533,533,533,533,533,533,533,533,533,533,533,533,533,533,533,533,533,533,533,533,533,533,533,533,533,533,533,533,533,519,486,458,436,416,388,371,350,324,301,258,236,229,215,209,191,183,174,166,160,143,131,122,113,104,88],"timestamp_mouse":[1,18,39,59,78,99,120,139,158,180,199,219,238,259,280,299,318,338,359,380,399,418,438,460,479,499,518,539,559,578,599,619,639,658,678,698,718,738,758,778,800,818,838,859,878,899,918,938,960,979,998,1018,1038,1058,1078,1099,1119],"xSR":741.5,"ySR":469.95,"xT1":424.9,"yT1":0,"xT2":1058.1,"yT2":0,"toosoon":0,"cond_shown":"randomdotsizeEA","ratio_trial":900,"smaller_num":"18","larger_num":"20","correct_side":1,"subjID":"juandavidalvarezmontes3","gender":"0","age":"11","school":"6"},{"start_time":1551891665468,"click_time":1551891666812,"finger_time":1551891666111,"fix_duration":1054.274828923188,"trial":16,"RT":643,"MT":701,"sideResp":2,"stimulus":"img/500/randomdotsizeEA/R/9_Ratio_500_L_2_R_4.png","xmouse":[791,791,791,791,791,791,791,791,791,791,791,791,791,791,791,791,791,791,791,791,791,791,791,791,791,791,791,791,791,791,791,774,762,750,745,744,744,745,745,745,746,758,772,793,820,854,983,1083,1139,1176,1203,1228,1233,1236,1237,1239,1241,1241,1239,1237,1236,1236,1236,1236,1230,1221,1188,1157],"ymouse":[514,514,514,514,514,514,514,514,514,514,514,514,514,514,514,514,514,514,514,514,514,514,514,514,514,514,514,514,514,514,511,488,467,444,426,412,394,393,393,393,391,384,374,360,343,322,255,205,175,152,136,114,107,102,95,78,31,19,13,10,10,10,9,9,11,18,44,71],"timestamp_mouse":[9,40,45,64,84,105,123,144,164,183,203,224,244,263,284,303,324,344,365,385,404,423,443,463,483,504,524,545,564,584,603,623,643,664,683,704,724,743,763,784,804,824,843,864,883,904,924,943,964,984,1005,1024,1044,1064,1084,1104,1124,1143,1163,1184,1203,1223,1243,1264,1284,1305,1324,1343],"xSR":741.5,"ySR":469.95,"xT1":424.9,"yT1":0,"xT2":1058.1,"yT2":0,"toosoon":0,"cond_shown":"randomdotsizeEA","ratio_trial":500,"smaller_num":"2","larger_num":"4","correct_side":2,"subjID":"juandavidalvarezmontes3","gender":"0","age":"11","school":"6"},{"start_time":1551891668383,"click_time":1551891669593,"finger_time":1551891669092,"fix_duration":250,"trial":17,"RT":709,"MT":501,"sideResp":1,"stimulus":"img/500/equaldotanddens/L/11_Ratio_500_L_12_R_6.png","xmouse":[809,809,809,809,809,809,809,809,809,809,809,809,809,809,809,809,809,809,809,809,809,809,809,809,809,809,809,809,809,809,809,809,804,794,758,699,579,527,455,432,327,327,327,327,327,327,327,327,327,327,327,327,327,327,327,327,327,327,387,402,429],"ymouse":[545,545,545,545,545,545,545,545,545,545,545,545,545,545,545,545,545,545,545,545,545,545,545,545,545,545,545,545,545,545,545,545,539,529,504,464,387,346,263,225,39,39,39,39,39,39,39,39,39,39,39,39,39,39,39,39,39,39,14,33,61],"timestamp_mouse":[9,37,48,69,88,109,130,148,169,190,209,229,249,269,288,309,328,348,368,389,409,428,448,469,489,508,530,549,568,589,608,629,648,668,688,709,728,749,769,788,809,828,848,869,888,908,928,949,969,989,1008,1028,1048,1068,1088,1110,1129,1148,1169,1189,1210],"xSR":741.5,"ySR":469.95,"xT1":424.9,"yT1":0,"xT2":1058.1,"yT2":0,"toosoon":0,"cond_shown":"equaldotanddens","ratio_trial":500,"smaller_num":"6","larger_num":"12","correct_side":1,"subjID":"juandavidalvarezmontes3","gender":"0","age":"11","school":"6"},{"start_time":1551891671248,"click_time":1551891672312,"finger_time":1551891671951,"fix_duration":595.0625457778483,"trial":18,"RT":703,"MT":361,"sideResp":2,"stimulus":"img/500/equaldotanddens/R/9_Ratio_500_L_2_R_4.png","xmouse":[785,785,785,785,785,785,785,785,785,785,785,785,785,785,785,785,785,785,785,785,785,785,785,785,786,786,786,786,786,786,786,787,789,810,817,823,827,835,858,871,886,904,925,983,1008,1032,1043,1052,1060,1062,1063,1064,1065,1066],"ymouse":[521,521,521,521,521,521,521,521,521,521,521,521,521,521,521,521,521,521,521,521,521,521,521,521,522,522,522,522,522,522,522,521,516,484,475,462,454,446,423,407,386,359,333,268,236,198,180,162,135,125,114,105,100,93],"timestamp_mouse":[10,24,43,64,84,113,125,145,165,185,204,223,244,265,283,303,324,345,363,384,404,423,445,464,484,504,524,543,565,584,605,623,643,663,685,703,723,743,763,783,803,823,844,864,883,903,924,943,963,984,1003,1023,1043,1064],"xSR":741.5,"ySR":469.95,"xT1":424.9,"yT1":0,"xT2":1058.1,"yT2":0,"toosoon":0,"cond_shown":"equaldotanddens","ratio_trial":500,"smaller_num":"2","larger_num":"4","correct_side":2,"subjID":"juandavidalvarezmontes3","gender":"0","age":"11","school":"6"},{"start_time":1551891675185,"click_time":1551891676571,"finger_time":1551891675912,"fix_duration":250,"trial":19,"RT":727,"MT":659,"sideResp":1,"stimulus":"img/500/randomdotsizeEA/R/6_Ratio_500_L_9_R_18.png","xmouse":[784,784,784,784,784,784,784,784,784,784,784,784,784,784,784,784,784,784,784,784,784,784,784,784,784,784,784,784,784,784,784,784,784,784,782,774,733,713,696,680,664,624,609,596,588,583,578,576,574,572,569,565,561,559,557,556,554,552,552,552,551,550,545,541,538,531,518,515,512,509],"ymouse":[531,531,531,531,531,531,531,531,531,531,531,531,531,531,531,531,531,531,531,531,531,531,531,531,531,531,531,531,531,531,531,531,531,531,530,526,509,494,481,463,442,392,373,356,343,333,303,287,272,264,250,236,218,208,196,185,169,160,159,158,157,155,147,142,138,127,110,106,101,96],"timestamp_mouse":[10,37,46,67,87,106,126,146,167,188,208,227,247,266,288,308,327,347,367,386,408,426,446,468,486,507,527,548,567,586,607,627,648,668,686,707,726,747,766,786,806,827,847,866,887,908,927,946,967,988,1007,1027,1046,1067,1086,1106,1127,1147,1166,1186,1206,1227,1246,1266,1286,1306,1328,1346,1366,1386],"xSR":741.5,"ySR":469.95,"xT1":424.9,"yT1":0,"xT2":1058.1,"yT2":0,"toosoon":0,"cond_shown":"randomdotsizeEA","ratio_trial":500,"smaller_num":"9","larger_num":"18","correct_side":2,"subjID":"juandavidalvarezmontes3","gender":"0","age":"11","school":"6"},{"start_time":1551891678181,"click_time":1551891679731,"finger_time":1551891678892,"fix_duration":688.1344634495226,"trial":20,"RT":711,"MT":839,"sideResp":2,"stimulus":"img/250/randomdotsizeEA/R/9_Ratio_250_L_3_R_12.png","xmouse":[816,816,816,816,816,816,816,816,816,816,816,816,816,816,816,816,816,816,816,816,816,816,816,816,816,816,816,816,816,816,816,816,806,791,781,740,711,668,653,642,634,614,607,600,598,598,598,598,598,598,598,598,598,598,600,609,653,682,712,740,774,812,875,903,914,922,932,942,944,949,957,965,982,991,1009,1025,1046,1090],"ymouse":[536,536,536,536,536,536,536,536,536,536,536,536,536,536,536,536,536,536,536,536,536,536,536,536,536,536,536,536,536,536,536,536,527,514,506,471,446,389,366,346,329,296,285,273,268,268,268,268,268,268,268,268,268,268,268,274,298,309,317,319,319,316,286,258,243,227,211,192,186,178,167,157,144,136,120,107,92,67],"timestamp_mouse":[10,34,50,72,91,111,132,150,171,192,211,232,252,270,290,312,331,351,371,391,410,431,451,471,491,511,531,552,570,590,611,632,650,670,691,711,730,750,770,790,811,833,851,871,890,911,931,951,972,991,1012,1031,1051,1071,1090,1110,1132,1150,1170,1191,1210,1231,1250,1271,1290,1310,1332,1350,1370,1391,1410,1431,1450,1470,1490,1511,1530,1550],"xSR":741.5,"ySR":469.95,"xT1":424.9,"yT1":0,"xT2":1058.1,"yT2":0,"toosoon":0,"cond_shown":"randomdotsizeEA","ratio_trial":250,"smaller_num":"3","larger_num":"12","correct_side":2,"subjID":"juandavidalvarezmontes3","gender":"0","age":"11","school":"6"},{"start_time":1551891681439,"click_time":1551891682712,"finger_time":1551891682053,"fix_duration":966.5364976301948,"trial":21,"RT":614,"MT":659,"sideResp":1,"stimulus":"img/250/equaldotanddens/L/15_Ratio_250_L_12_R_3.png","xmouse":[793,793,793,793,793,793,793,793,793,793,793,793,793,793,793,793,793,793,793,793,793,793,793,793,793,793,793,786,780,745,695,654,606,554,482,458,436,424,419,418,418,418,417,416,415,415,415,416,419,421,421,421,421,421,421,421,421,422,422,422,422,423,423,425],"ymouse":[522,522,522,522,522,522,522,522,522,522,522,522,522,522,522,522,522,522,522,522,522,522,522,522,522,522,522,517,512,490,462,441,421,394,338,306,269,233,205,174,167,165,162,158,146,139,133,125,119,110,107,104,103,102,100,100,97,96,96,94,92,91,89,86],"timestamp_mouse":[14,35,53,73,92,112,134,153,173,193,212,234,253,272,292,312,334,352,373,394,414,433,453,474,494,513,532,552,572,592,614,633,652,673,693,713,733,753,774,793,813,832,852,872,892,912,933,952,973,992,1012,1033,1054,1074,1093,1112,1132,1152,1174,1193,1213,1232,1253,1273],"xSR":741.5,"ySR":469.95,"xT1":424.9,"yT1":0,"xT2":1058.1,"yT2":0,"toosoon":0,"cond_shown":"equaldotanddens","ratio_trial":250,"smaller_num":"3","larger_num":"12","correct_side":1,"subjID":"juandavidalvarezmontes3","gender":"0","age":"11","school":"6"},{"start_time":1551891683905,"click_time":1551891685052,"finger_time":1551891684531,"fix_duration":250,"trial":22,"RT":626,"MT":521,"sideResp":2,"stimulus":"img/500/randomdotsizeEA/R/9_Ratio_500_L_2_R_4.png","xmouse":[783,783,783,783,783,783,783,783,783,783,783,783,783,783,783,783,783,783,783,783,783,783,783,783,783,783,775,770,759,750,744,738,736,735,735,735,735,735,735,742,758,810,840,865,893,926,989,998,1003,1007,1012,1023,1030,1036,1041,1045,1057,1059],"ymouse":[521,521,521,521,521,521,521,521,521,521,521,521,521,521,521,521,521,521,521,521,521,521,521,521,519,516,506,502,495,490,487,481,479,478,478,478,478,478,476,465,448,409,387,370,349,326,270,258,248,235,223,198,182,165,151,136,99,91],"timestamp_mouse":[16,28,46,66,86,106,126,146,168,187,208,226,246,268,286,307,327,348,367,386,406,427,446,466,486,507,526,548,566,587,606,626,646,668,687,706,727,747,766,786,806,827,846,867,886,908,927,946,966,986,1006,1027,1046,1066,1086,1108,1127,1146],"xSR":741.5,"ySR":469.95,"xT1":424.9,"yT1":0,"xT2":1058.1,"yT2":0,"toosoon":0,"cond_shown":"randomdotsizeEA","ratio_trial":500,"smaller_num":"2","larger_num":"4","correct_side":2,"subjID":"juandavidalvarezmontes3","gender":"0","age":"11","school":"6"},{"start_time":1551891686834,"click_time":1551891687992,"finger_time":1551891687652,"fix_duration":841.4668074831319,"trial":23,"RT":818,"MT":340,"sideResp":2,"stimulus":"img/900/randomdotsizeEA/R/9_Ratio_900_L_18_R_20.png","xmouse":[794,794,794,794,794,794,794,794,794,794,794,794,794,794,794,794,793,792,792,792,792,792,792,792,792,792,792,792,792,792,797,801,806,811,825,830,833,837,838,841,855,860,867,878,894,930,958,975,982,1003,1027,1035,1040,1042,1048,1054,1065,1070],"ymouse":[539,539,539,539,539,539,539,539,539,539,539,539,539,539,539,538,537,537,537,537,537,537,537,537,537,537,537,537,537,536,533,530,525,514,494,488,483,480,478,473,458,450,439,426,407,355,311,282,269,224,180,165,156,149,136,123,104,94],"timestamp_mouse":[18,38,58,77,97,118,139,157,178,198,219,238,258,277,299,317,339,357,378,398,418,438,457,478,498,518,538,558,578,598,617,637,658,678,699,718,738,757,778,797,818,837,857,877,898,918,937,958,978,997,1018,1037,1058,1079,1099,1118,1137,1158],"xSR":741.5,"ySR":469.95,"xT1":424.9,"yT1":0,"xT2":1058.1,"yT2":0,"toosoon":0,"cond_shown":"randomdotsizeEA","ratio_trial":900,"smaller_num":"18","larger_num":"20","correct_side":2,"subjID":"juandavidalvarezmontes3","gender":"0","age":"11","school":"6"},{"start_time":1551891690950,"click_time":1551891691973,"finger_time":1551891691492,"fix_duration":655.026636190637,"trial":24,"RT":542,"MT":481,"sideResp":1,"stimulus":"img/250/equaldotsize/L/2_Ratio_250_L_16_R_4.png","xmouse":[802,802,802,802,802,802,802,802,802,802,802,802,802,802,802,802,802,802,802,802,802,802,802,802,801,789,758,699,631,576,533,520,510,496,479,465,447,443,440,440,437,435,435,435,438,445,446,447,447,447,436,436],"ymouse":[530,530,530,530,530,530,530,530,530,530,530,530,530,530,530,530,530,530,530,530,530,530,530,530,530,515,493,472,451,433,409,390,380,365,351,338,311,302,296,290,274,260,248,233,219,195,186,181,174,163,110,82],"timestamp_mouse":[13,29,43,62,82,102,122,141,163,181,201,222,241,262,282,301,322,342,361,381,402,422,441,462,482,502,521,542,561,583,602,623,641,661,681,702,721,741,761,783,801,821,841,861,881,902,922,942,961,982,1002,1022],"xSR":741.5,"ySR":469.95,"xT1":424.9,"yT1":0,"xT2":1058.1,"yT2":0,"toosoon":0,"cond_shown":"equaldotsize","ratio_trial":250,"smaller_num":"4","larger_num":"16","correct_side":1,"subjID":"juandavidalvarezmontes3","gender":"0","age":"11","school":"6"},{"start_time":1551891693919,"click_time":1551891694772,"finger_time":1551891694472,"fix_duration":1047.6075923820265,"trial":25,"RT":553,"MT":300,"sideResp":2,"stimulus":"img/500/equaldotsize/R/6_Ratio_500_L_9_R_18.png","xmouse":[838,838,838,838,838,838,838,838,838,838,838,838,837,834,831,826,823,823,823,823,823,823,823,822,822,823,829,846,859,878,909,927,962,983,1007,1030,1057,1065,1072,1075,1079,1080,1081],"ymouse":[541,541,541,541,541,541,541,541,541,541,541,542,542,542,542,542,542,542,542,542,542,542,542,541,538,532,521,493,475,450,408,380,322,287,251,220,172,153,139,126,113,104,96],"timestamp_mouse":[12,33,53,72,92,112,133,152,172,192,212,232,253,273,294,313,335,353,374,393,414,432,453,472,493,512,534,553,572,592,613,632,652,672,692,712,734,751,772,792,813,832,853],"xSR":741.5,"ySR":469.95,"xT1":424.9,"yT1":0,"xT2":1058.1,"yT2":0,"toosoon":0,"cond_shown":"equaldotsize","ratio_trial":500,"smaller_num":"9","larger_num":"18","correct_side":2,"subjID":"juandavidalvarezmontes3","gender":"0","age":"11","school":"6"},{"start_time":1551891696503,"click_time":1551891697593,"finger_time":1551891697271,"fix_duration":830.584701675915,"trial":26,"RT":768,"MT":322,"sideResp":2,"stimulus":"img/900/equaldotsize/R/7_Ratio_900_L_9_R_10.png","xmouse":[760,760,760,760,760,760,760,760,760,760,760,760,760,760,760,760,760,760,760,760,760,760,760,760,760,760,760,760,760,760,761,762,763,766,770,773,776,783,818,841,853,892,916,958,979,997,1020,1036,1070,1079,1084,1087,1091,1100,1101],"ymouse":[535,535,535,535,535,535,535,535,535,535,535,535,535,535,535,535,535,535,535,535,535,535,535,535,535,535,535,535,535,535,533,529,527,521,515,511,504,494,449,426,415,381,356,305,281,257,231,211,165,150,141,133,124,101,90],"timestamp_mouse":[9,34,48,69,89,109,129,149,169,188,209,228,248,268,289,308,328,348,368,388,408,429,449,469,488,509,528,549,569,588,608,628,648,668,688,708,728,748,768,788,808,829,848,868,889,908,928,948,968,988,1008,1029,1048,1068,1089],"xSR":741.5,"ySR":469.95,"xT1":424.9,"yT1":0,"xT2":1058.1,"yT2":0,"toosoon":0,"cond_shown":"equaldotsize","ratio_trial":900,"smaller_num":"9","larger_num":"10","correct_side":2,"subjID":"juandavidalvarezmontes3","gender":"0","age":"11","school":"6"},{"start_time":1551891698987,"click_time":1551891700251,"finger_time":1551891699771,"fix_duration":414.58090706287766,"trial":27,"RT":784,"MT":480,"sideResp":2,"stimulus":"img/750/randomdotsizeEA/R/11_Ratio_750_L_12_R_16.png","xmouse":[792,792,792,792,792,792,792,792,792,792,792,792,792,792,792,792,792,792,792,792,792,792,792,792,792,792,792,792,792,792,792,792,792,793,797,803,807,818,833,884,920,945,961,974,991,996,997,997,997,997,997,1000,1003,1005,1008,1016,1024,1039,1058,1079,1081,1081,1081,1083],"ymouse":[530,530,530,530,530,530,530,530,530,530,530,530,530,530,530,530,530,530,530,530,530,530,530,530,530,530,530,530,530,530,530,530,530,530,526,516,509,495,477,437,415,396,380,363,322,281,255,228,208,182,172,162,153,147,142,134,131,125,116,106,104,104,102,99],"timestamp_mouse":[11,31,43,65,84,104,124,144,164,184,205,224,244,264,285,303,324,344,365,385,404,423,445,464,484,504,525,544,563,584,604,624,644,665,684,705,724,745,764,784,804,824,844,865,884,904,924,944,964,985,1004,1024,1044,1063,1084,1104,1124,1144,1164,1185,1205,1225,1245,1264],"xSR":741.5,"ySR":469.95,"xT1":424.9,"yT1":0,"xT2":1058.1,"yT2":0,"toosoon":0,"cond_shown":"randomdotsizeEA","ratio_trial":750,"smaller_num":"12","larger_num":"16","correct_side":2,"subjID":"juandavidalvarezmontes3","gender":"0","age":"11","school":"6"},{"start_time":1551891702275,"click_time":1551891703911,"finger_time":1551891703131,"fix_duration":1162.5493262512505,"trial":28,"RT":856,"MT":780,"sideResp":1,"stimulus":"img/900/equaldotanddens/L/1_Ratio_900_L_10_R_9.png","xmouse":[770,770,770,770,770,770,770,770,770,770,770,770,770,770,770,770,770,770,770,770,770,770,770,770,770,770,770,770,770,770,770,770,770,770,770,769,770,777,793,805,829,839,845,849,850,852,852,852,852,852,852,851,844,823,769,741,710,665,652,604,594,586,581,577,573,569,567,562,555,541,529,526,525,523,522,519,517,516,516,516,516,514],"ymouse":[539,539,539,539,539,539,539,539,539,539,539,539,539,539,539,539,539,539,539,539,539,539,539,539,539,539,539,539,539,539,539,539,539,539,539,540,540,526,507,499,484,479,476,473,472,469,468,468,467,467,467,467,467,467,467,467,467,463,460,432,423,413,402,390,359,342,326,305,283,253,227,218,209,202,193,171,160,151,143,137,112,98],"timestamp_mouse":[17,37,56,76,96,116,136,157,177,196,217,237,256,277,297,317,336,356,376,396,417,436,456,476,496,516,536,556,577,596,616,636,656,677,697,716,737,756,777,796,817,836,856,876,897,916,937,957,976,997,1017,1036,1056,1076,1097,1116,1137,1155,1176,1197,1216,1237,1256,1276,1298,1316,1336,1356,1376,1397,1416,1436,1455,1476,1496,1516,1536,1556,1576,1596,1616,1636],"xSR":741.5,"ySR":469.95,"xT1":424.9,"yT1":0,"xT2":1058.1,"yT2":0,"toosoon":0,"cond_shown":"equaldotanddens","ratio_trial":900,"smaller_num":"9","larger_num":"10","correct_side":1,"subjID":"juandavidalvarezmontes3","gender":"0","age":"11","school":"6"},{"start_time":1551891706121,"click_time":1551891707612,"finger_time":1551891706911,"fix_duration":1468.84819448155,"trial":29,"RT":790,"MT":701,"sideResp":1,"stimulus":"img/900/randomdotsizeEA/L/2_Ratio_900_L_20_R_18.png","xmouse":[789,789,789,789,789,789,789,789,789,789,789,789,789,789,789,789,789,789,789,789,789,789,789,789,789,789,789,789,789,789,789,789,789,791,793,797,804,810,816,819,822,825,829,831,827,817,806,794,761,744,723,705,685,639,613,598,588,574,548,541,535,528,520,507,504,504,503,503,502,502,501,501,500,499,499],"ymouse":[521,521,521,521,521,521,521,521,521,521,521,521,521,521,521,521,521,521,521,521,521,521,521,521,521,521,521,521,521,521,521,521,521,519,515,507,498,489,478,469,460,451,440,419,401,385,369,355,327,314,300,286,267,233,215,207,200,190,167,160,154,146,139,127,122,121,120,119,113,110,108,105,103,100,99],"timestamp_mouse":[10,34,49,70,90,110,130,151,171,190,211,229,250,271,291,310,331,350,370,390,411,430,451,471,491,511,529,550,570,591,611,630,649,670,690,710,730,750,770,790,810,830,851,870,891,910,930,950,970,990,1010,1030,1051,1070,1090,1110,1131,1150,1170,1191,1211,1230,1251,1270,1289,1311,1330,1351,1370,1391,1411,1430,1450,1470,1491],"xSR":741.5,"ySR":469.95,"xT1":424.9,"yT1":0,"xT2":1058.1,"yT2":0,"toosoon":0,"cond_shown":"randomdotsizeEA","ratio_trial":900,"smaller_num":"18","larger_num":"20","correct_side":1,"subjID":"juandavidalvarezmontes3","gender":"0","age":"11","school":"6"},{"start_time":1551891709391,"click_time":1551891710992,"finger_time":1551891710391,"fix_duration":857.4038175218551,"trial":30,"RT":1000,"MT":601,"sideResp":1,"stimulus":"img/750/randomdotsizeEA/L/13_Ratio_750_L_8_R_6.png","xmouse":[786,786,786,786,786,786,786,787,788,788,788,788,788,788,788,788,788,788,788,788,788,788,788,788,788,788,788,788,788,788,788,788,788,788,788,788,788,788,788,788,788,788,788,788,788,782,781,778,775,770,736,709,674,642,611,557,532,510,493,478,447,416,413,413,413,417,417,417,418,419,419,419,419,420,421,424,424,424,424,424,425],"ymouse":[508,508,508,508,508,508,513,518,521,521,521,521,521,521,521,521,521,521,521,521,521,521,521,521,521,521,521,521,521,521,521,521,521,521,521,521,521,521,521,521,521,521,521,520,518,511,510,508,506,501,469,450,431,410,387,333,297,264,230,193,140,87,78,75,73,66,66,65,64,63,61,61,61,60,58,53,52,52,52,51,48],"timestamp_mouse":[9,31,40,61,80,100,120,141,161,181,200,220,240,260,281,300,321,340,359,381,401,421,440,460,481,501,520,540,560,581,600,621,640,660,681,701,720,741,760,781,801,821,841,861,880,900,920,940,959,979,1000,1020,1039,1060,1080,1101,1120,1140,1160,1180,1200,1219,1240,1260,1280,1301,1320,1341,1359,1380,1401,1420,1440,1460,1480,1501,1520,1541,1560,1581,1601],"xSR":741.5,"ySR":469.95,"xT1":424.9,"yT1":0,"xT2":1058.1,"yT2":0,"toosoon":0,"cond_shown":"randomdotsizeEA","ratio_trial":750,"smaller_num":"6","larger_num":"8","correct_side":1,"subjID":"juandavidalvarezmontes3","gender":"0","age":"11","school":"6"},{"start_time":1551891713396,"click_time":1551891714612,"finger_time":1551891714211,"fix_duration":1483.1631634283247,"trial":31,"RT":815,"MT":401,"sideResp":2,"stimulus":"img/750/equaldotanddens/R/3_Ratio_750_L_15_R_20.png","xmouse":[807,807,807,807,807,807,807,807,807,807,807,807,807,807,807,807,807,807,807,807,807,807,807,807,807,807,807,807,807,807,807,807,807,807,807,807,807,807,807,809,842,871,888,896,903,925,930,947,956,964,977,984,993,1001,1006,1014,1017,1026,1036,1044,1064],"ymouse":[497,497,497,497,497,497,497,497,497,497,497,497,497,497,497,497,497,497,497,497,497,497,497,497,497,497,497,497,497,497,497,497,497,497,497,497,497,497,497,497,446,402,378,361,343,293,282,255,235,217,183,168,154,146,142,136,132,122,112,104,88],"timestamp_mouse":[14,36,56,76,95,116,136,156,176,196,215,236,255,276,296,315,335,355,375,396,416,435,456,476,496,516,536,556,576,596,615,635,655,676,696,716,736,756,775,794,815,834,855,875,896,915,935,955,976,995,1015,1035,1055,1075,1095,1115,1136,1156,1175,1195,1216],"xSR":741.5,"ySR":469.95,"xT1":424.9,"yT1":0,"xT2":1058.1,"yT2":0,"toosoon":0,"cond_shown":"equaldotanddens","ratio_trial":750,"smaller_num":"15","larger_num":"20","correct_side":2,"subjID":"juandavidalvarezmontes3","gender":"0","age":"11","school":"6"},{"start_time":1551891716236,"click_time":1551891717393,"finger_time":1551891717071,"fix_duration":424.773958773042,"trial":32,"RT":835,"MT":322,"sideResp":1,"stimulus":"img/750/equaldotsize/L/8_Ratio_750_L_4_R_3.png","xmouse":[815,815,815,815,815,815,815,814,813,809,808,805,805,805,805,805,805,805,805,805,805,805,805,805,805,805,805,805,805,805,805,805,805,805,805,805,805,804,795,783,770,757,737,664,625,608,594,583,553,539,528,518,513,504,498,493,488,482],"ymouse":[515,516,518,524,524,525,525,525,525,525,525,525,525,525,525,525,525,525,525,525,525,525,525,525,525,525,525,525,525,525,525,525,525,525,525,525,525,525,512,496,480,463,435,366,336,322,305,285,235,214,195,181,170,153,139,128,116,99],"timestamp_mouse":[15,35,56,75,96,116,136,155,176,195,216,234,256,276,295,316,336,356,376,396,416,436,454,476,496,516,536,556,575,595,616,636,655,675,696,715,736,755,774,795,815,835,855,875,895,915,936,955,975,995,1015,1035,1055,1075,1094,1115,1135,1156],"xSR":741.5,"ySR":469.95,"xT1":424.9,"yT1":0,"xT2":1058.1,"yT2":0,"toosoon":0,"cond_shown":"equaldotsize","ratio_trial":750,"smaller_num":"3","larger_num":"4","correct_side":1,"subjID":"juandavidalvarezmontes3","gender":"0","age":"11","school":"6"},{"start_time":1551891719053,"click_time":1551891720131,"finger_time":1551891719691,"fix_duration":659.1265386466209,"trial":33,"RT":638,"MT":440,"sideResp":1,"stimulus":"img/750/equaldotanddens/L/9_Ratio_750_L_4_R_3.png","xmouse":[795,795,795,795,795,795,795,795,795,795,795,795,795,795,795,795,795,795,795,795,795,795,795,795,795,795,798,799,803,803,803,801,793,784,766,756,741,723,691,609,586,570,556,528,521,513,501,491,484,479,479,479,478,475,471],"ymouse":[506,506,506,506,506,506,506,506,506,506,506,506,506,506,506,506,506,506,506,506,506,506,506,506,506,506,504,501,488,483,479,472,460,453,442,438,429,417,402,364,350,338,321,273,257,236,211,183,160,141,137,132,117,108,92],"timestamp_mouse":[1,19,39,58,79,98,118,138,159,178,199,218,238,259,278,298,319,339,359,379,399,419,439,458,479,499,518,538,559,578,599,618,638,658,679,698,718,738,759,777,798,818,839,858,878,898,918,938,958,978,999,1018,1038,1059,1078],"xSR":741.5,"ySR":469.95,"xT1":424.9,"yT1":0,"xT2":1058.1,"yT2":0,"toosoon":0,"cond_shown":"equaldotanddens","ratio_trial":750,"smaller_num":"3","larger_num":"4","correct_side":1,"subjID":"juandavidalvarezmontes3","gender":"0","age":"11","school":"6"},{"start_time":1551891722040,"click_time":1551891723113,"finger_time":1551891722771,"fix_duration":1147.9870648598494,"trial":34,"RT":731,"MT":342,"sideResp":1,"stimulus":"img/250/randomdotsizeEA/L/14_Ratio_250_L_12_R_3.png","xmouse":[781,781,781,781,781,781,781,781,781,781,781,781,781,781,781,781,781,781,781,781,781,781,781,781,781,781,781,781,781,781,781,781,781,781,774,756,735,716,702,674,658,632,612,592,561,549,539,530,523,511,504,502,500,500],"ymouse":[532,532,532,532,532,532,532,532,532,532,532,532,532,532,532,532,532,532,532,532,532,532,532,532,532,532,532,532,532,532,532,532,532,532,521,500,481,465,450,418,398,367,347,321,278,255,232,211,196,168,145,140,120,99],"timestamp_mouse":[14,31,51,72,92,111,132,152,172,192,213,232,252,271,292,311,332,352,372,391,412,431,451,472,492,511,532,552,572,592,611,632,651,672,692,711,731,751,771,791,811,831,851,871,891,912,932,951,972,991,1011,1031,1052,1073],"xSR":741.5,"ySR":469.95,"xT1":424.9,"yT1":0,"xT2":1058.1,"yT2":0,"toosoon":0,"cond_shown":"randomdotsizeEA","ratio_trial":250,"smaller_num":"3","larger_num":"12","correct_side":1,"subjID":"juandavidalvarezmontes3","gender":"0","age":"11","school":"6"},{"start_time":1551891725204,"click_time":1551891726231,"finger_time":1551891725911,"fix_duration":1349.217892043148,"trial":35,"RT":707,"MT":320,"sideResp":1,"stimulus":"img/500/randomdotsizeEA/L/7_Ratio_500_L_10_R_5.png","xmouse":[804,804,804,804,804,804,804,804,804,804,804,804,804,804,804,804,804,804,804,804,804,804,804,804,804,804,804,804,804,804,803,787,773,759,744,732,710,695,673,651,627,593,570,554,542,531,516,511,505,499,491,461],"ymouse":[522,522,522,522,522,522,522,522,522,522,522,522,522,522,522,522,522,522,522,522,522,522,522,522,522,522,522,522,522,522,522,507,498,490,480,471,452,437,420,403,382,345,314,291,273,254,218,205,191,176,156,98],"timestamp_mouse":[10,27,48,68,88,107,127,148,167,188,208,228,248,268,287,306,327,347,368,387,408,428,448,468,487,507,527,547,567,588,608,627,648,667,687,707,727,747,767,787,807,827,847,867,887,908,928,947,967,987,1008,1027],"xSR":741.5,"ySR":469.95,"xT1":424.9,"yT1":0,"xT2":1058.1,"yT2":0,"toosoon":0,"cond_shown":"randomdotsizeEA","ratio_trial":500,"smaller_num":"5","larger_num":"10","correct_side":1,"subjID":"juandavidalvarezmontes3","gender":"0","age":"11","school":"6"},{"start_time":1551891728562,"click_time":1551891729671,"finger_time":1551891729212,"fix_duration":1388.374826887643,"trial":36,"RT":650,"MT":459,"sideResp":2,"stimulus":"img/250/equaldotsize/R/11_Ratio_250_L_3_R_12.png","xmouse":[827,827,827,827,827,827,827,827,827,827,827,827,827,827,827,827,827,827,827,827,827,827,827,827,827,827,827,827,827,827,831,835,849,874,907,922,936,946,952,961,965,969,971,972,975,977,981,987,993,1007,1010,1015,1024,1039,1055,1059],"ymouse":[519,519,519,519,519,519,519,519,519,519,519,519,519,519,519,519,519,519,519,519,519,519,519,519,519,519,519,519,519,519,516,506,482,448,401,378,355,331,309,272,257,246,235,229,214,202,187,172,159,139,133,125,114,97,75,70],"timestamp_mouse":[9,33,50,70,90,110,130,149,170,190,209,229,249,269,290,309,329,350,369,389,410,430,450,469,490,510,530,549,570,590,609,630,650,669,689,709,729,749,769,789,810,829,849,869,889,910,930,949,970,988,1009,1029,1049,1069,1089,1109],"xSR":741.5,"ySR":469.95,"xT1":424.9,"yT1":0,"xT2":1058.1,"yT2":0,"toosoon":0,"cond_shown":"equaldotsize","ratio_trial":250,"smaller_num":"3","larger_num":"12","correct_side":2,"subjID":"juandavidalvarezmontes3","gender":"0","age":"11","school":"6"},{"start_time":1551891731722,"click_time":1551891732851,"finger_time":1551891732412,"fix_duration":1209.9022451720934,"trial":37,"RT":690,"MT":439,"sideResp":2,"stimulus":"img/900/equaldotanddens/R/7_Ratio_900_L_9_R_10.png","xmouse":[814,814,814,814,814,814,814,814,814,814,814,814,814,814,814,814,814,814,814,814,814,814,814,814,814,814,814,814,814,814,814,814,816,833,851,866,897,912,922,932,942,963,978,984,988,991,998,1001,1002,1004,1010,1024,1036,1040,1044,1050,1074],"ymouse":[547,547,547,547,547,547,547,547,547,547,547,547,547,547,547,547,547,547,547,547,547,547,547,547,547,547,547,547,547,547,547,544,538,508,485,463,417,390,366,343,318,270,233,211,186,166,140,132,127,122,115,101,89,84,78,72,55],"timestamp_mouse":[11,34,50,69,89,110,130,150,170,190,210,229,249,269,289,310,330,349,370,389,410,429,449,470,490,509,530,549,570,589,609,629,649,669,690,709,729,750,769,789,809,829,849,870,890,909,928,949,969,989,1010,1029,1049,1068,1089,1109,1128],"xSR":741.5,"ySR":469.95,"xT1":424.9,"yT1":0,"xT2":1058.1,"yT2":0,"toosoon":0,"cond_shown":"equaldotanddens","ratio_trial":900,"smaller_num":"9","larger_num":"10","correct_side":2,"subjID":"juandavidalvarezmontes3","gender":"0","age":"11","school":"6"},{"start_time":1551891734461,"click_time":1551891735591,"finger_time":1551891735211,"fix_duration":588.218142461868,"trial":38,"RT":750,"MT":380,"sideResp":1,"stimulus":"img/250/equaldotanddens/L/7_Ratio_250_L_8_R_2.png","xmouse":[785,785,785,785,785,785,785,785,785,785,785,785,785,785,785,785,785,785,785,785,785,785,785,785,785,785,785,785,793,809,819,825,828,832,835,835,828,816,790,712,675,646,629,617,586,575,567,560,551,525,515,509,503,498,491,490,489],"ymouse":[538,538,538,538,538,538,538,538,538,538,538,538,538,538,538,538,538,538,538,538,538,538,538,538,538,538,538,538,534,525,520,516,513,506,490,481,471,459,447,428,424,423,416,407,343,316,290,269,248,202,185,171,159,150,125,111,99],"timestamp_mouse":[10,34,51,70,90,111,130,151,171,191,210,230,251,271,291,311,330,350,370,390,410,430,451,471,490,511,530,551,570,590,610,630,650,671,690,710,730,750,770,790,810,830,850,871,891,910,930,950,970,990,1010,1030,1050,1071,1091,1110,1130],"xSR":741.5,"ySR":469.95,"xT1":424.9,"yT1":0,"xT2":1058.1,"yT2":0,"toosoon":0,"cond_shown":"equaldotanddens","ratio_trial":250,"smaller_num":"2","larger_num":"8","correct_side":1,"subjID":"juandavidalvarezmontes3","gender":"0","age":"11","school":"6"},{"start_time":1551891737576,"click_time":1551891738971,"finger_time":1551891738372,"fix_duration":1042.422671777041,"trial":39,"RT":796,"MT":599,"sideResp":2,"stimulus":"img/500/equaldotsize/R/9_Ratio_500_L_2_R_4.png","xmouse":[801,801,801,801,801,801,801,801,801,801,801,801,801,801,801,801,801,801,801,801,801,801,801,801,801,801,801,801,801,801,802,803,804,806,806,807,808,810,811,820,827,836,844,852,864,871,882,894,911,938,952,958,964,973,993,1001,1009,1009,1009,1009,1009,1009,1009,1009,1009,1009,1009,1009,1009,1069],"ymouse":[524,524,524,524,524,524,524,524,524,524,524,524,524,524,524,524,524,524,524,524,524,524,524,524,524,524,524,524,524,524,521,516,513,505,502,500,498,492,487,469,457,443,431,419,392,374,350,321,273,180,136,104,70,43,10,4,0,0,0,0,0,0,0,0,0,0,0,0,0,14],"timestamp_mouse":[15,36,56,75,95,116,135,154,175,196,214,236,255,276,295,316,336,355,375,395,415,436,456,475,496,515,535,555,576,595,615,636,655,676,695,715,735,756,775,796,815,835,855,876,894,915,935,955,975,995,1015,1035,1055,1075,1095,1115,1135,1155,1176,1195,1215,1236,1255,1275,1296,1314,1335,1356,1376,1395],"xSR":741.5,"ySR":469.95,"xT1":424.9,"yT1":0,"xT2":1058.1,"yT2":0,"toosoon":0,"cond_shown":"equaldotsize","ratio_trial":500,"smaller_num":"2","larger_num":"4","correct_side":2,"subjID":"juandavidalvarezmontes3","gender":"0","age":"11","school":"6"},{"start_time":1551891740050,"click_time":1551891741271,"finger_time":1551891740852,"fix_duration":256.4363467614647,"trial":40,"RT":802,"MT":419,"sideResp":1,"stimulus":"img/750/equaldotsize/L/6_Ratio_750_L_24_R_18.png","xmouse":[811,811,811,811,811,811,811,811,811,811,811,811,811,811,811,811,811,811,811,811,811,811,811,811,811,811,811,811,811,811,811,811,811,811,811,810,799,786,768,742,712,635,589,571,533,500,466,453,447,444,444,443,443,443,446,451,466,472,480,486,490,493],"ymouse":[545,545,545,545,545,545,545,545,545,545,545,545,545,545,545,545,545,545,545,545,545,545,545,545,545,545,545,545,545,545,545,545,545,545,545,545,538,530,517,500,480,434,397,381,346,316,280,265,257,252,249,235,228,214,203,191,164,153,139,130,118,96],"timestamp_mouse":[9,21,41,62,81,102,122,142,162,182,202,220,242,262,282,302,321,341,361,381,402,420,441,462,482,501,522,542,561,582,602,622,641,661,680,701,721,741,762,781,802,821,842,862,882,901,921,941,960,981,1001,1021,1041,1061,1082,1101,1120,1141,1162,1182,1201,1221],"xSR":741.5,"ySR":469.95,"xT1":424.9,"yT1":0,"xT2":1058.1,"yT2":0,"toosoon":0,"cond_shown":"equaldotsize","ratio_trial":750,"smaller_num":"18","larger_num":"24","correct_side":1,"subjID":"juandavidalvarezmontes3","gender":"0","age":"11","school":"6"},{"start_time":1551891742670,"click_time":1551891744011,"finger_time":1551891743531,"fix_duration":377.7401184379561,"trial":41,"RT":861,"MT":480,"sideResp":1,"stimulus":"img/750/equaldotanddens/L/14_Ratio_750_L_8_R_6.png","xmouse":[805,805,805,805,805,805,805,805,805,805,805,805,805,805,805,805,805,805,805,805,805,805,805,805,805,805,805,805,805,805,805,805,805,805,805,805,805,804,801,794,776,764,751,730,694,598,559,533,514,496,444,423,407,398,390,379,379,379,379,381,385,386,389,392,395,406,417,425],"ymouse":[505,505,505,505,505,505,505,505,505,505,505,505,505,505,505,505,505,505,505,505,505,505,505,505,505,505,505,505,505,505,505,505,505,505,505,505,505,505,503,500,490,483,472,458,431,365,336,316,297,276,223,208,198,188,179,158,152,146,139,131,117,114,110,103,100,91,87,83],"timestamp_mouse":[10,20,41,62,81,101,121,142,162,181,201,221,241,261,282,301,321,342,361,382,401,422,442,460,482,502,521,542,562,581,601,622,641,662,681,702,722,741,762,781,801,822,841,861,881,902,921,941,961,981,1001,1021,1040,1061,1081,1101,1121,1142,1161,1181,1202,1221,1241,1261,1281,1301,1321,1341],"xSR":741.5,"ySR":469.95,"xT1":424.9,"yT1":0,"xT2":1058.1,"yT2":0,"toosoon":0,"cond_shown":"equaldotanddens","ratio_trial":750,"smaller_num":"6","larger_num":"8","correct_side":1,"subjID":"juandavidalvarezmontes3","gender":"0","age":"11","school":"6"},{"start_time":1551891746310,"click_time":1551891747412,"finger_time":1551891746811,"fix_duration":1438.3277214141406,"trial":42,"RT":501,"MT":601,"sideResp":1,"stimulus":"img/500/equaldotsize/L/4_Ratio_500_L_18_R_9.png","xmouse":[784,784,784,784,784,784,784,784,784,784,784,784,784,784,784,784,784,784,784,784,784,784,776,770,748,739,727,722,716,689,670,650,628,580,553,527,507,484,460,450,445,439,438,435,435,435,435,435,435,439,442,442,442,442,445,447],"ymouse":[506,506,506,506,506,506,506,506,506,506,506,506,506,506,506,506,506,506,506,506,506,506,500,497,487,484,480,477,473,458,447,433,415,369,341,309,283,250,221,210,203,196,189,182,165,159,156,150,143,127,120,119,118,116,104,97],"timestamp_mouse":[10,22,41,62,81,101,121,141,161,181,202,221,242,261,282,301,322,342,360,381,401,422,442,462,481,501,521,541,562,581,602,622,641,662,681,701,721,741,762,781,801,821,841,861,881,901,921,941,961,981,1002,1021,1041,1062,1081,1101],"xSR":741.5,"ySR":469.95,"xT1":424.9,"yT1":0,"xT2":1058.1,"yT2":0,"toosoon":0,"cond_shown":"equaldotsize","ratio_trial":500,"smaller_num":"9","larger_num":"18","correct_side":1,"subjID":"juandavidalvarezmontes3","gender":"0","age":"11","school":"6"},{"start_time":1551891750901,"click_time":1551891752211,"finger_time":1551891751371,"fix_duration":1328.361825263299,"trial":43,"RT":470,"MT":840,"sideResp":1,"stimulus":"img/500/equaldotsize/L/11_Ratio_500_L_12_R_6.png","xmouse":[767,767,767,767,767,767,767,767,767,767,767,767,767,767,767,767,767,767,767,767,763,760,753,738,716,641,583,524,465,402,393,386,382,378,374,372,372,372,374,381,384,389,398,409,420,421,421,422,422,422,422,422,422,422,422,422,422,422,422,422,422,422,422,422,422,432],"ymouse":[529,529,529,529,529,529,529,529,529,529,529,529,529,529,529,529,529,529,529,529,523,520,513,501,491,465,440,407,371,319,306,294,285,273,261,237,218,206,196,182,175,163,147,131,118,116,112,107,103,97,96,95,93,92,89,87,86,84,83,83,83,83,83,83,82,88],"timestamp_mouse":[10,33,50,71,90,111,130,151,170,191,211,231,251,269,290,310,330,350,371,391,409,431,450,470,490,511,531,551,570,590,610,630,651,670,690,710,730,750,770,790,810,830,849,871,890,911,930,951,970,990,1010,1030,1051,1070,1090,1110,1130,1150,1171,1190,1211,1235,1251,1271,1290,1309],"xSR":741.5,"ySR":469.95,"xT1":424.9,"yT1":0,"xT2":1058.1,"yT2":0,"toosoon":0,"cond_shown":"equaldotsize","ratio_trial":500,"smaller_num":"6","larger_num":"12","correct_side":1,"subjID":"juandavidalvarezmontes3","gender":"0","age":"11","school":"6"},{"start_time":1551891755018,"click_time":1551891756093,"finger_time":1551891755892,"fix_duration":345.2170337423163,"trial":44,"RT":874,"MT":201,"sideResp":2,"stimulus":"img/500/randomdotsizeEA/R/12_Ratio_500_L_1_R_2.png","xmouse":[824,824,824,824,824,824,824,824,824,824,824,824,824,824,824,824,824,824,824,824,824,824,824,824,824,824,824,824,824,824,824,824,824,824,824,824,824,824,824,824,825,828,836,857,914,944,975,1003,1012,1022,1026,1035,1045,1072],"ymouse":[540,540,540,540,540,540,540,540,540,540,540,540,540,540,540,540,540,540,540,540,540,540,540,540,540,540,540,540,540,540,540,540,540,540,540,540,540,540,540,540,535,520,493,454,370,330,295,253,227,182,155,132,115,87],"timestamp_mouse":[14,36,54,73,93,114,133,153,173,194,213,234,254,274,294,314,334,354,373,393,413,433,454,474,492,514,533,553,573,593,612,634,653,673,693,714,734,753,773,794,813,833,853,874,893,913,933,954,973,993,1012,1033,1053,1074],"xSR":741.5,"ySR":469.95,"xT1":424.9,"yT1":0,"xT2":1058.1,"yT2":0,"toosoon":0,"cond_shown":"randomdotsizeEA","ratio_trial":500,"smaller_num":"1","larger_num":"2","correct_side":2,"subjID":"juandavidalvarezmontes3","gender":"0","age":"11","school":"6"},{"start_time":1551891757947,"click_time":1551891758751,"finger_time":1551891758511,"fix_duration":1013.0393842460784,"trial":45,"RT":564,"MT":240,"sideResp":2,"stimulus":"img/500/equaldotanddens/R/3_Ratio_500_L_10_R_20.png","xmouse":[799,799,799,799,799,799,799,799,799,799,799,799,799,799,799,799,799,799,799,799,799,799,799,799,799,799,802,810,857,881,919,958,999,1039,1046,1048,1051,1052,1059,1060,1063],"ymouse":[509,509,509,509,509,509,509,509,509,509,509,509,509,509,509,509,509,509,509,509,509,509,509,509,509,509,507,497,445,415,365,313,251,174,158,148,140,133,112,105,96],"timestamp_mouse":[10,33,45,65,84,104,125,144,164,185,205,225,244,265,284,305,323,344,364,385,405,424,444,465,485,505,524,544,564,584,605,624,644,664,685,704,724,745,764,785,804],"xSR":741.5,"ySR":469.95,"xT1":424.9,"yT1":0,"xT2":1058.1,"yT2":0,"toosoon":0,"cond_shown":"equaldotanddens","ratio_trial":500,"smaller_num":"10","larger_num":"20","correct_side":2,"subjID":"juandavidalvarezmontes3","gender":"0","age":"11","school":"6"},{"start_time":1551891762601,"click_time":1551891763712,"finger_time":1551891763311,"fix_duration":1248.3628285597479,"trial":46,"RT":710,"MT":401,"sideResp":1,"stimulus":"img/500/equaldotanddens/L/8_Ratio_500_L_8_R_4.png","xmouse":[782,782,782,782,782,782,782,782,782,782,782,782,782,782,782,782,782,782,782,782,782,782,782,782,782,782,782,782,782,782,782,778,771,757,751,703,671,643,617,595,570,566,565,564,562,554,552,549,545,540,528,524,522,518,515,505],"ymouse":[525,525,525,525,525,525,525,525,525,525,525,525,525,525,525,525,525,525,525,525,525,525,525,525,525,525,525,525,525,525,525,521,514,494,485,431,404,378,348,319,284,273,262,248,242,218,208,198,185,168,137,124,115,108,101,86],"timestamp_mouse":[10,38,51,70,90,111,129,150,170,189,210,230,249,270,290,310,331,350,370,390,410,430,450,471,490,509,531,551,570,591,611,630,650,670,690,710,730,751,771,790,811,829,850,870,890,910,929,950,971,991,1012,1030,1050,1069,1091,1111],"xSR":741.5,"ySR":469.95,"xT1":424.9,"yT1":0,"xT2":1058.1,"yT2":0,"toosoon":0,"cond_shown":"equaldotanddens","ratio_trial":500,"smaller_num":"4","larger_num":"8","correct_side":1,"subjID":"juandavidalvarezmontes3","gender":"0","age":"11","school":"6"},{"start_time":1551891765596,"click_time":1551891766431,"finger_time":1551891766291,"fix_duration":363.206573978335,"trial":47,"RT":695,"MT":140,"sideResp":1,"stimulus":"img/250/equaldotsize/L/14_Ratio_250_L_12_R_3.png","xmouse":[785,785,785,785,785,785,785,785,785,785,785,785,785,785,785,785,785,785,785,785,785,785,785,785,785,785,785,785,785,785,785,785,785,770,738,655,629,604,581,555,530,489],"ymouse":[523,523,523,523,523,523,523,523,523,523,523,523,523,523,523,523,523,523,523,523,523,523,523,523,523,523,523,523,523,523,523,523,520,502,469,382,330,271,217,155,101,20],"timestamp_mouse":[15,36,54,75,95,116,136,156,175,196,214,236,254,276,296,315,335,356,376,396,416,435,454,476,495,516,535,556,574,596,615,636,655,675,695,717,734,755,775,795,815,834],"xSR":741.5,"ySR":469.95,"xT1":424.9,"yT1":0,"xT2":1058.1,"yT2":0,"toosoon":0,"cond_shown":"equaldotsize","ratio_trial":250,"smaller_num":"3","larger_num":"12","correct_side":1,"subjID":"juandavidalvarezmontes3","gender":"0","age":"11","school":"6"},{"start_time":1551891769254,"click_time":1551891770331,"finger_time":1551891769931,"fix_duration":1482.9678092397614,"trial":48,"RT":677,"MT":400,"sideResp":2,"stimulus":"img/900/equaldotsize/R/14_Ratio_900_L_18_R_20.png","xmouse":[788,788,788,788,788,788,788,788,788,788,788,788,788,788,788,788,788,788,788,788,788,788,788,788,788,788,788,788,788,788,789,794,805,828,838,845,849,850,851,851,851,850,850,860,865,869,876,894,968,996,1022,1040,1049,1059],"ymouse":[506,506,506,506,506,506,506,506,506,506,506,506,506,506,506,506,506,506,506,506,506,506,506,506,506,506,506,506,506,506,506,499,477,435,417,404,396,393,385,379,369,360,350,330,321,315,307,294,235,203,167,133,105,53],"timestamp_mouse":[16,37,57,77,98,118,138,158,178,197,217,238,258,278,297,318,338,357,378,397,417,438,458,478,498,517,537,558,577,598,617,636,657,677,697,717,737,757,777,797,817,838,857,877,897,917,937,958,978,998,1017,1037,1056,1077],"xSR":741.5,"ySR":469.95,"xT1":424.9,"yT1":0,"xT2":1058.1,"yT2":0,"toosoon":0,"cond_shown":"equaldotsize","ratio_trial":900,"smaller_num":"18","larger_num":"20","correct_side":2,"subjID":"juandavidalvarezmontes3","gender":"0","age":"11","school":"6"},{"start_time":1551891774065,"click_time":1551891775171,"finger_time":1551891774771,"fix_duration":1250.556069403807,"trial":49,"RT":706,"MT":400,"sideResp":2,"stimulus":"img/900/equaldotanddens/R/9_Ratio_900_L_18_R_20.png","xmouse":[787,787,787,787,787,787,787,787,787,787,787,787,787,787,787,787,787,787,787,787,787,787,787,787,787,787,787,787,787,787,787,788,788,796,822,845,941,1019,1077,1137,1151,1159,1162,1163,1165,1167,1170,1173,1174,1169,1163,1157,1151,1146,1145,1145],"ymouse":[539,539,539,539,539,539,539,539,539,539,539,539,539,539,539,539,539,539,539,539,539,539,539,539,539,539,539,539,539,539,539,538,537,521,482,458,399,356,323,277,261,245,234,226,215,204,194,182,163,151,142,131,122,116,111,99],"timestamp_mouse":[10,33,46,67,85,106,125,146,166,186,207,225,246,266,287,307,325,346,367,387,407,426,447,467,489,506,525,546,567,586,606,626,646,667,686,706,726,746,766,786,807,826,846,867,885,907,925,946,968,985,1007,1027,1047,1066,1085,1106],"xSR":741.5,"ySR":469.95,"xT1":424.9,"yT1":0,"xT2":1058.1,"yT2":0,"toosoon":0,"cond_shown":"equaldotanddens","ratio_trial":900,"smaller_num":"18","larger_num":"20","correct_side":2,"subjID":"juandavidalvarezmontes3","gender":"0","age":"11","school":"6"},{"start_time":1551891776891,"click_time":1551891777831,"finger_time":1551891777511,"fix_duration":777.0744127938591,"trial":50,"RT":620,"MT":320,"sideResp":1,"stimulus":"img/250/randomdotsizeEA/L/14_Ratio_250_L_12_R_3.png","xmouse":[793,793,793,793,793,793,793,793,793,793,793,793,793,793,793,793,793,793,793,793,793,793,793,793,793,793,793,793,784,770,756,741,726,668,641,612,590,568,552,550,548,545,541,531,527,526,524,519],"ymouse":[532,532,532,532,532,532,532,532,532,532,532,532,532,532,532,532,532,532,532,532,532,532,532,532,532,532,532,532,523,510,498,487,469,408,374,330,291,251,215,205,200,193,178,141,118,108,100,89],"timestamp_mouse":[9,20,41,61,81,100,121,141,160,181,199,221,241,260,279,300,321,340,360,380,401,421,439,460,481,499,521,540,560,580,599,620,640,660,681,699,720,740,760,779,800,820,841,860,881,900,920,940],"xSR":741.5,"ySR":469.95,"xT1":424.9,"yT1":0,"xT2":1058.1,"yT2":0,"toosoon":0,"cond_shown":"randomdotsizeEA","ratio_trial":250,"smaller_num":"3","larger_num":"12","correct_side":1,"subjID":"juandavidalvarezmontes3","gender":"0","age":"11","school":"6"},{"start_time":1551891779212,"click_time":1551891780191,"finger_time":1551891779712,"fix_duration":519.4773739365056,"trial":51,"RT":500,"MT":479,"sideResp":2,"stimulus":"img/750/equaldotsize/R/7_Ratio_750_L_3_R_4.png","xmouse":[791,791,791,791,791,791,791,791,791,791,791,791,791,791,791,791,791,791,791,791,791,792,795,808,824,839,856,896,909,922,934,946,967,977,987,994,1000,1008,1014,1019,1024,1029,1039,1042,1049,1054,1059,1063,1067,1073],"ymouse":[500,500,500,500,500,500,500,500,500,500,500,500,500,500,500,500,500,500,500,500,500,500,499,486,473,462,449,410,397,379,359,338,291,265,241,224,215,205,197,191,184,174,155,149,140,134,125,109,100,90],"timestamp_mouse":[1,19,40,58,80,100,120,139,158,180,199,220,240,260,280,300,319,339,359,379,398,419,439,459,479,500,520,540,559,579,599,618,639,660,679,698,719,739,760,778,800,819,839,860,880,900,919,940,959,979],"xSR":741.5,"ySR":469.95,"xT1":424.9,"yT1":0,"xT2":1058.1,"yT2":0,"toosoon":0,"cond_shown":"equaldotsize","ratio_trial":750,"smaller_num":"3","larger_num":"4","correct_side":2,"subjID":"juandavidalvarezmontes3","gender":"0","age":"11","school":"6"},{"start_time":1551891782339,"click_time":1551891783252,"finger_time":1551891782911,"fix_duration":1347.4039838823967,"trial":52,"RT":572,"MT":341,"sideResp":1,"stimulus":"img/900/equaldotsize/L/1_Ratio_900_L_10_R_9.png","xmouse":[815,815,815,815,815,815,815,815,815,815,815,815,815,815,815,815,815,815,815,815,815,815,814,812,805,791,762,748,738,728,725,720,718,717,713,702,686,682,674,668,663,632,604,570,519,468],"ymouse":[559,559,559,559,559,559,559,559,559,559,559,559,559,559,559,559,559,559,559,559,559,559,558,554,541,526,505,493,482,468,458,445,439,433,423,393,366,359,343,335,329,294,261,212,148,96],"timestamp_mouse":[12,32,52,73,93,113,133,153,171,193,212,233,252,272,292,312,332,352,373,393,411,432,452,473,491,512,532,552,572,592,611,631,652,672,692,714,733,752,772,793,811,832,853,872,891,913],"xSR":741.5,"ySR":469.95,"xT1":424.9,"yT1":0,"xT2":1058.1,"yT2":0,"toosoon":0,"cond_shown":"equaldotsize","ratio_trial":900,"smaller_num":"9","larger_num":"10","correct_side":1,"subjID":"juandavidalvarezmontes3","gender":"0","age":"11","school":"6"},{"start_time":1551891785196,"click_time":1551891786571,"finger_time":1551891785991,"fix_duration":904.4160519438128,"trial":53,"RT":795,"MT":580,"sideResp":2,"stimulus":"img/250/equaldotsize/R/8_Ratio_250_L_1_R_4.png","xmouse":[788,788,788,788,788,788,788,788,788,788,788,788,788,788,788,788,788,788,788,788,788,788,788,788,788,788,788,788,788,788,788,788,788,788,788,789,790,790,795,801,807,813,821,839,856,865,876,890,912,920,923,925,927,937,954,966,973,978,987,997,1005,1016,1025,1036,1037,1040,1048,1058,1070],"ymouse":[501,501,501,501,501,501,501,501,501,501,501,501,501,501,501,501,501,501,501,501,501,501,501,501,501,501,501,501,501,501,501,501,501,501,501,501,498,496,480,467,455,443,429,395,355,322,295,274,243,233,228,223,219,204,184,169,161,155,144,137,130,124,117,107,106,104,101,98,92],"timestamp_mouse":[15,37,55,76,96,115,136,154,175,196,215,235,256,275,295,316,335,356,375,396,415,435,456,476,496,516,536,555,576,596,616,635,656,675,696,715,734,755,775,795,815,835,855,875,895,915,935,956,975,996,1015,1035,1055,1075,1096,1114,1134,1154,1175,1196,1216,1236,1255,1275,1295,1314,1335,1355,1375],"xSR":741.5,"ySR":469.95,"xT1":424.9,"yT1":0,"xT2":1058.1,"yT2":0,"toosoon":0,"cond_shown":"equaldotsize","ratio_trial":250,"smaller_num":"1","larger_num":"4","correct_side":2,"subjID":"juandavidalvarezmontes3","gender":"0","age":"11","school":"6"},{"start_time":1551891788560,"click_time":1551891789891,"finger_time":1551891789171,"fix_duration":1168.2230332905738,"trial":54,"RT":611,"MT":720,"sideResp":2,"stimulus":"img/750/randomdotsizeEA/R/12_Ratio_750_L_3_R_4.png","xmouse":[816,816,816,816,816,816,816,816,816,816,816,816,816,816,816,816,816,816,816,816,816,816,816,816,816,816,816,817,819,828,856,871,884,890,892,892,892,892,892,893,895,898,902,910,923,937,946,952,959,965,974,978,984,990,1002,1011,1023,1024,1024,1025,1028,1030,1033,1039,1043,1053,1073],"ymouse":[511,511,511,511,511,511,511,511,511,511,511,511,511,511,511,511,511,511,511,511,511,511,511,511,511,511,511,512,510,494,459,442,427,419,416,413,412,409,406,399,388,378,364,344,311,265,247,231,218,208,192,183,168,154,125,109,90,87,87,86,81,78,74,69,67,61,51],"timestamp_mouse":[11,38,51,72,90,111,131,151,171,191,210,231,251,272,292,312,331,351,371,392,412,431,451,471,491,510,531,551,571,591,611,630,651,671,691,711,730,752,771,790,812,831,851,871,891,912,931,951,971,992,1012,1031,1052,1072,1092,1111,1131,1151,1172,1192,1212,1231,1251,1271,1291,1311,1331],"xSR":741.5,"ySR":469.95,"xT1":424.9,"yT1":0,"xT2":1058.1,"yT2":0,"toosoon":0,"cond_shown":"randomdotsizeEA","ratio_trial":750,"smaller_num":"3","larger_num":"4","correct_side":2,"subjID":"juandavidalvarezmontes3","gender":"0","age":"11","school":"6"},{"start_time":1551891792503,"click_time":1551891793271,"finger_time":1551891793151,"fix_duration":250,"trial":55,"RT":648,"MT":120,"sideResp":2,"stimulus":"img/250/equaldotanddens/R/12_Ratio_250_L_5_R_20.png","xmouse":[773,773,773,773,773,773,773,773,773,773,773,773,773,773,773,773,773,773,773,773,773,773,773,773,773,773,773,773,773,773,781,800,822,854,943,1010,1052,1084,1104],"ymouse":[526,526,526,526,526,526,526,526,526,526,526,526,526,526,526,526,526,526,526,526,526,526,526,526,526,526,526,526,526,526,514,492,467,427,303,208,150,104,65],"timestamp_mouse":[10,31,49,68,88,109,129,148,168,187,209,228,248,269,289,309,329,348,369,389,409,428,448,469,489,508,528,549,568,588,607,628,648,669,688,708,728,748,767],"xSR":741.5,"ySR":469.95,"xT1":424.9,"yT1":0,"xT2":1058.1,"yT2":0,"toosoon":0,"cond_shown":"equaldotanddens","ratio_trial":250,"smaller_num":"5","larger_num":"20","correct_side":2,"subjID":"juandavidalvarezmontes3","gender":"0","age":"11","school":"6"},{"start_time":1551891794304,"click_time":1551891796091,"finger_time":1551891794991,"fix_duration":250,"trial":56,"RT":687,"MT":1100,"sideResp":2,"stimulus":"img/250/randomdotsizeEA/R/9_Ratio_250_L_3_R_12.png","xmouse":[783,783,783,783,783,783,783,783,783,783,783,783,783,783,783,783,783,783,783,783,783,783,783,783,783,784,786,789,793,796,796,796,796,795,776,757,735,713,692,678,674,674,675,678,675,669,662,654,645,627,620,611,604,595,582,580,578,578,578,578,578,578,579,579,590,601,614,630,650,696,724,755,781,806,849,873,883,893,904,930,947,964,981,995,1022,1026,1030,1040,1055,1084],"ymouse":[520,520,520,520,520,520,520,520,520,520,520,520,520,520,520,520,520,520,520,520,520,520,520,520,520,521,518,511,502,492,488,486,484,481,465,456,448,443,436,432,429,427,422,411,368,353,338,324,308,269,249,231,212,192,163,158,156,156,156,156,156,156,156,156,165,172,179,188,201,231,248,264,275,283,288,280,272,263,249,209,186,164,145,129,104,101,98,92,84,68],"timestamp_mouse":[11,31,47,67,88,108,127,148,168,188,207,227,247,268,287,308,326,347,367,387,407,427,447,467,488,507,526,547,567,587,607,628,647,667,687,706,726,748,767,787,807,828,847,867,887,907,926,948,966,987,1008,1028,1046,1068,1088,1108,1128,1147,1168,1187,1207,1228,1247,1268,1287,1308,1327,1347,1368,1387,1407,1427,1447,1468,1488,1507,1528,1547,1568,1587,1608,1627,1646,1667,1687,1708,1727,1747,1768,1787],"xSR":741.5,"ySR":469.95,"xT1":424.9,"yT1":0,"xT2":1058.1,"yT2":0,"toosoon":0,"cond_shown":"randomdotsizeEA","ratio_trial":250,"smaller_num":"3","larger_num":"12","correct_side":2,"subjID":"juandavidalvarezmontes3","gender":"0","age":"11","school":"6"},{"start_time":1551891797490,"click_time":1551891798651,"finger_time":1551891798151,"fix_duration":516.3864481925518,"trial":57,"RT":661,"MT":500,"sideResp":2,"stimulus":"img/500/equaldotanddens/R/6_Ratio_500_L_9_R_18.png","xmouse":[777,777,777,777,777,777,777,777,777,777,777,777,777,777,777,777,777,777,777,777,777,777,777,777,777,777,782,792,801,811,818,827,835,848,864,902,914,927,945,964,1002,1019,1033,1037,1039,1047,1053,1058,1061,1061,1062,1063,1063,1064,1065,1067,1069,1070,1070],"ymouse":[543,543,543,543,543,543,543,543,543,543,543,543,543,543,543,543,543,543,543,543,543,543,543,543,543,543,535,524,513,503,495,482,471,452,432,377,356,332,301,267,217,202,192,187,184,168,159,152,146,143,138,134,130,128,121,116,107,103,98],"timestamp_mouse":[9,22,41,62,81,100,122,142,162,181,202,222,242,261,282,300,322,342,360,382,401,421,441,462,481,502,522,540,561,582,601,620,642,661,682,702,721,742,762,782,802,820,841,861,881,901,921,942,961,980,1002,1021,1041,1060,1081,1102,1122,1141,1161],"xSR":741.5,"ySR":469.95,"xT1":424.9,"yT1":0,"xT2":1058.1,"yT2":0,"toosoon":0,"cond_shown":"equaldotanddens","ratio_trial":500,"smaller_num":"9","larger_num":"18","correct_side":2,"subjID":"juandavidalvarezmontes3","gender":"0","age":"11","school":"6"},{"start_time":1551891801455,"click_time":1551891802711,"finger_time":1551891802311,"fix_duration":342.85986675257584,"trial":58,"RT":856,"MT":400,"sideResp":1,"stimulus":"img/250/randomdotsizeEA/L/7_Ratio_250_L_8_R_2.png","xmouse":[797,797,797,797,797,797,797,797,797,797,797,797,797,797,797,797,797,797,797,797,797,797,797,797,797,797,797,797,797,797,797,796,793,791,789,788,787,786,783,777,765,748,684,646,599,571,542,492,473,462,455,449,440,439,438,438,439,444,446,447,449,449,451],"ymouse":[533,533,533,533,533,533,533,533,533,533,533,533,533,533,533,533,533,533,533,533,533,533,533,533,533,533,533,533,533,533,532,528,514,509,502,501,501,500,498,495,490,483,449,424,384,351,317,251,229,215,205,193,170,163,161,159,157,146,141,139,134,123,81],"timestamp_mouse":[16,41,56,77,96,117,136,157,176,196,216,236,257,277,296,316,337,355,376,397,417,437,455,477,496,517,537,556,577,596,616,636,656,676,697,716,736,756,777,796,816,836,856,876,896,916,936,956,976,996,1016,1036,1056,1076,1096,1116,1135,1156,1175,1196,1215,1237,1256],"xSR":741.5,"ySR":469.95,"xT1":424.9,"yT1":0,"xT2":1058.1,"yT2":0,"toosoon":0,"cond_shown":"randomdotsizeEA","ratio_trial":250,"smaller_num":"2","larger_num":"8","correct_side":1,"subjID":"juandavidalvarezmontes3","gender":"0","age":"11","school":"6"},{"start_time":1551891803764,"click_time":1551891804852,"finger_time":1551891804430,"fix_duration":250,"trial":59,"RT":666,"MT":422,"sideResp":1,"stimulus":"img/900/randomdotsizeEA/L/10_Ratio_900_L_20_R_18.png","xmouse":[769,769,769,769,769,769,769,769,769,769,769,769,769,769,769,769,769,769,769,769,769,769,769,769,769,769,769,769,769,769,768,766,760,752,741,727,710,659,609,587,572,560,532,514,499,486,469,466,466,466,466,466,466,466,466],"ymouse":[494,494,494,494,494,494,494,494,494,494,494,494,494,494,494,494,494,494,494,494,494,494,494,494,494,494,494,494,494,492,490,486,476,467,453,437,417,367,333,318,303,286,243,221,204,188,167,154,148,140,134,128,120,105,98],"timestamp_mouse":[9,32,48,67,87,108,127,148,167,187,207,228,248,266,287,307,327,348,368,387,407,427,448,467,488,508,527,547,567,587,608,627,647,666,688,707,727,747,768,787,807,827,847,867,887,906,926,947,968,987,1007,1028,1047,1067,1087],"xSR":741.5,"ySR":469.95,"xT1":424.9,"yT1":0,"xT2":1058.1,"yT2":0,"toosoon":0,"cond_shown":"randomdotsizeEA","ratio_trial":900,"smaller_num":"18","larger_num":"20","correct_side":1,"subjID":"juandavidalvarezmontes3","gender":"0","age":"11","school":"6"},{"start_time":1551891806262,"click_time":1551891807511,"finger_time":1551891806971,"fix_duration":549.1077779012555,"trial":60,"RT":709,"MT":540,"sideResp":1,"stimulus":"img/250/equaldotanddens/L/3_Ratio_250_L_8_R_2.png","xmouse":[782,782,782,782,782,782,782,782,782,782,782,782,782,782,782,782,782,782,782,782,782,782,782,782,782,782,782,782,782,782,782,782,790,801,815,838,858,885,891,891,891,891,891,891,891,889,883,861,855,851,847,836,823,794,777,759,740,681,630,568,511,467,434],"ymouse":[520,520,520,520,520,520,520,520,520,520,520,520,520,520,520,520,520,520,520,520,520,520,520,520,520,520,520,520,520,520,520,520,509,496,473,435,396,349,337,334,334,334,332,330,328,327,324,323,323,323,323,325,327,331,332,332,326,292,250,195,144,108,85],"timestamp_mouse":[9,29,49,68,90,109,129,149,169,189,210,229,249,270,288,309,330,349,368,389,410,430,448,470,490,510,530,550,570,589,610,630,649,668,689,709,728,750,769,789,809,829,850,868,889,908,928,949,968,990,1010,1029,1050,1068,1089,1109,1129,1150,1169,1189,1209,1229,1249],"xSR":741.5,"ySR":469.95,"xT1":424.9,"yT1":0,"xT2":1058.1,"yT2":0,"toosoon":0,"cond_shown":"equaldotanddens","ratio_trial":250,"smaller_num":"2","larger_num":"8","correct_side":1,"subjID":"juandavidalvarezmontes3","gender":"0","age":"11","school":"6"},{"start_time":1551891809252,"click_time":1551891811231,"finger_time":1551891810630,"fix_duration":900.1425330761525,"trial":61,"RT":1378,"MT":601,"sideResp":1,"stimulus":"img/750/randomdotsizeEA/L/9_Ratio_750_L_4_R_3.png","xmouse":[769,769,769,769,769,769,769,769,769,769,769,769,769,769,769,769,769,769,769,769,769,769,769,769,769,769,769,769,769,769,769,769,769,769,769,769,769,769,770,770,770,770,770,770,770,770,770,770,769,769,769,769,769,769,769,769,769,769,769,769,769,769,769,769,769,764,761,749,707,683,654,642,625,617,612,610,608,608,608,608,608,608,607,606,605,602,600,598,590,583,567,559,551,539,532,524,514,504,488],"ymouse":[533,533,533,533,533,533,533,533,533,533,533,533,533,533,533,533,533,533,533,533,533,533,533,533,533,533,533,533,533,533,533,533,533,533,533,533,533,533,532,531,530,529,529,529,529,528,528,528,526,526,525,525,525,525,525,525,525,525,525,525,525,525,525,525,525,519,517,509,486,472,452,440,417,406,397,390,387,385,382,377,374,372,368,358,351,342,334,328,302,284,253,235,220,191,178,161,144,122,88],"timestamp_mouse":[19,39,60,80,99,119,140,159,179,200,220,240,259,279,300,319,340,358,379,399,419,440,460,480,498,518,540,560,580,600,619,639,659,679,699,719,739,760,778,800,819,839,859,879,899,920,939,959,978,999,1019,1038,1060,1078,1099,1120,1140,1160,1179,1200,1220,1239,1259,1280,1300,1319,1339,1360,1378,1400,1419,1439,1461,1479,1499,1519,1539,1559,1578,1598,1619,1639,1659,1679,1698,1719,1739,1760,1779,1800,1819,1839,1858,1879,1900,1919,1940,1960,1979],"xSR":741.5,"ySR":469.95,"xT1":424.9,"yT1":0,"xT2":1058.1,"yT2":0,"toosoon":0,"cond_shown":"randomdotsizeEA","ratio_trial":750,"smaller_num":"3","larger_num":"4","correct_side":1,"subjID":"juandavidalvarezmontes3","gender":"0","age":"11","school":"6"},{"start_time":1551891812915,"click_time":1551891814632,"finger_time":1551891814191,"fix_duration":943.6700454518997,"trial":62,"RT":1276,"MT":441,"sideResp":1,"stimulus":"img/750/randomdotsizeEA/L/1_Ratio_750_L_20_R_15.png","xmouse":[832,832,832,832,832,832,832,832,832,832,832,831,830,829,828,828,828,828,828,828,828,828,828,828,828,828,828,828,828,828,828,828,828,828,828,828,828,828,828,827,822,819,816,816,815,812,810,808,807,804,802,801,800,799,797,794,792,789,787,785,777,771,765,760,750,725,708,687,661,630,567,539,518,507,501,496,496,496,496,494,490,488,485,482,479,472],"ymouse":[508,508,508,508,508,508,508,508,508,508,508,509,512,513,514,515,515,515,515,516,516,516,516,516,516,516,516,516,516,516,516,516,516,516,516,516,516,516,515,512,503,500,496,495,494,489,487,484,483,481,479,479,478,478,477,476,475,474,474,474,472,471,470,469,464,454,441,422,390,349,260,222,198,182,173,163,161,161,159,155,147,143,137,129,120,88],"timestamp_mouse":[17,41,56,75,96,116,135,156,177,197,216,237,256,276,296,317,337,356,377,397,416,437,456,477,497,517,536,556,576,597,616,636,657,676,696,716,736,756,777,796,815,835,856,877,896,917,937,956,976,996,1016,1037,1056,1076,1097,1116,1136,1156,1177,1196,1216,1237,1257,1276,1297,1316,1336,1355,1377,1397,1417,1435,1456,1476,1497,1516,1536,1556,1577,1596,1617,1635,1656,1676,1696,1717],"xSR":741.5,"ySR":469.95,"xT1":424.9,"yT1":0,"xT2":1058.1,"yT2":0,"toosoon":0,"cond_shown":"randomdotsizeEA","ratio_trial":750,"smaller_num":"15","larger_num":"20","correct_side":1,"subjID":"juandavidalvarezmontes3","gender":"0","age":"11","school":"6"},{"start_time":1551891816970,"click_time":1551891818651,"finger_time":1551891818070,"fix_duration":1417.0503234059056,"trial":63,"RT":1100,"MT":581,"sideResp":1,"stimulus":"img/900/equaldotanddens/R/7_Ratio_900_L_9_R_10.png","xmouse":[815,815,815,815,815,815,815,815,815,815,815,815,815,815,815,815,815,815,815,815,815,815,815,815,815,815,815,815,815,815,815,815,815,815,815,815,815,815,815,815,815,815,815,815,815,815,815,815,815,815,815,815,808,776,759,738,719,704,697,678,665,653,639,609,597,587,577,565,554,531,523,516,512,504,502,498,496,492,488,486,485,484,483,481,478],"ymouse":[540,540,540,540,540,540,540,540,540,540,540,540,540,540,540,540,540,540,540,540,540,540,540,540,540,540,540,540,540,540,540,540,540,540,540,540,540,540,540,540,540,540,540,540,540,540,540,540,540,540,540,539,534,514,504,492,481,473,465,446,428,410,390,352,336,317,300,280,266,232,222,209,201,184,179,171,163,157,144,138,133,125,119,110,94],"timestamp_mouse":[9,21,41,61,82,101,120,142,161,182,201,220,241,261,281,301,321,340,362,381,401,421,442,460,480,501,522,542,561,582,602,621,642,661,681,701,720,741,762,780,802,822,841,862,881,901,920,942,960,981,1001,1020,1041,1062,1081,1100,1121,1141,1160,1180,1202,1221,1242,1262,1281,1301,1321,1341,1360,1380,1401,1421,1441,1463,1480,1501,1521,1542,1563,1580,1600,1620,1641,1662,1681],"xSR":741.5,"ySR":469.95,"xT1":424.9,"yT1":0,"xT2":1058.1,"yT2":0,"toosoon":0,"cond_shown":"equaldotanddens","ratio_trial":900,"smaller_num":"9","larger_num":"10","correct_side":2,"subjID":"juandavidalvarezmontes3","gender":"0","age":"11","school":"6"},{"start_time":1551891820796,"click_time":1551891822090,"finger_time":1551891821750,"fix_duration":1084.702476233078,"trial":64,"RT":954,"MT":340,"sideResp":2,"stimulus":"img/250/equaldotsize/R/13_Ratio_250_L_2_R_8.png","xmouse":[782,782,782,782,782,782,782,782,782,782,782,782,782,782,782,782,782,782,782,782,782,782,782,782,782,782,782,782,782,782,782,782,782,782,782,782,782,782,782,782,782,783,788,792,796,803,816,866,894,912,928,940,960,967,970,974,977,983,989,994,1002,1012,1041,1058,1076],"ymouse":[511,511,511,511,511,511,511,511,511,511,511,511,511,511,511,511,511,511,511,511,511,511,511,511,511,511,511,511,511,511,511,511,511,511,511,511,511,511,511,511,511,511,510,505,499,490,475,428,404,384,362,340,298,281,269,256,244,219,196,179,161,145,120,109,97],"timestamp_mouse":[15,36,55,76,96,115,136,156,175,196,215,235,254,276,29