[{"start_time":1551890951267,"click_time":1551890953229,"finger_time":1551890953049,"fix_duration":1432.3101458817052,"trial":0,"RT":1782,"MT":180,"sideResp":2,"stimulus":[],"xmouse":[776,776,776,776,776,776,776,776,776,776,776,776,776,776,776,776,776,776,776,776,776,776,776,776,776,776,776,776,776,776,776,776,776,776,776,776,776,776,776,776,776,776,776,776,776,776,776,776,776,776,776,776,776,776,776,776,776,776,776,776,776,776,776,776,776,776,776,776,776,776,776,776,776,776,776,776,776,776,776,776,776,776,776,776,776,776,776,776,810,846,883,913,939,990,1018,1044,1066,1080,1090],"ymouse":[521,521,521,521,521,521,521,521,521,521,521,521,521,521,521,521,521,521,521,521,521,521,521,521,521,521,521,521,521,521,521,521,521,521,521,521,521,521,521,521,521,521,521,521,521,521,521,521,521,521,521,521,521,521,521,521,521,521,521,521,521,521,521,521,521,521,521,521,521,521,521,521,521,521,521,521,521,521,521,521,521,521,521,521,521,521,521,521,476,438,405,372,338,261,225,189,156,130,99],"timestamp_mouse":[9,21,43,62,82,100,122,141,161,181,201,221,241,261,282,300,322,341,361,382,400,422,441,462,482,502,522,542,561,582,602,621,642,660,682,701,722,742,761,782,802,822,842,862,880,902,921,941,962,981,1001,1022,1041,1061,1081,1100,1122,1142,1161,1181,1201,1221,1242,1262,1281,1302,1320,1340,1360,1382,1402,1421,1441,1461,1481,1501,1521,1541,1561,1582,1601,1622,1641,1662,1682,1702,1721,1740,1761,1782,1800,1821,1841,1860,1882,1901,1921,1941,1961],"xSR":741.5,"ySR":469.95,"xT1":424.9,"yT1":0,"xT2":1058.1,"yT2":0,"toosoon":0,"cond_shown":"Incongruent","ratio_trial":200,"L_num":7,"L_den":15,"R_num":4,"R_den":6,"correct_side":2,"subjID":"juandavidalvarezmontes3","gender":"0","age":"11","school":"6","test":{"fix_dur":[250,1500],"timestim":1000,"targets_dim":[100,100],"targets_relative_coord":[0.3,0.7],"size_stim":[880,420],"start_dim":[100,100],"size_start":[300,300],"size_fix":60,"samplingrate":20,"img_types":["Congruent","Incongruent"],"ratios":[100,200,300],"rep_conds":19,"nTrials":120,"trials_to_rest":500,"Trials_order":[15,20,36,119,73,109,1,81,71,35,5,61,88,102,26,67,106,62,105,37,108,75,25,63,70,8,68,77,9,57,17,33,32,65,90,49,30,21,13,39,10,51,50,87,34,107,93,110,23,92,86,79,54,113,74,118,80,6,94,82,111,47,64,89,29,84,103,38,4,11,58,16,24,78,83,98,12,41,27,3,19,56,116,43,76,95,53,101,14,117,99,52,97,0,96,104,59,22,100,42,40,44,91,28,31,45,46,60,2,18,48,72,85,55,7,115,66,114,112,69],"cond_shown":["Incongruent","Congruent","Congruent","Incongruent","Incongruent","Incongruent","Incongruent","Incongruent","Incongruent","Incongruent","Incongruent","Incongruent","Congruent","Congruent","Congruent","Incongruent","Congruent","Congruent","Incongruent","Incongruent","Congruent","Incongruent","Incongruent","Incongruent","Congruent","Congruent","Congruent","Incongruent","Incongruent","Incongruent","Incongruent","Incongruent","Congruent","Incongruent","Congruent","Incongruent","Congruent","Incongruent","Incongruent","Incongruent","Congruent","Incongruent","Congruent","Incongruent","Congruent","Incongruent","Incongruent","Congruent","Incongruent","Congruent","Congruent","Incongruent","Congruent","Incongruent","Congruent","Congruent","Congruent","Congruent","Congruent","Congruent","Incongruent","Incongruent","Congruent","Incongruent","Incongruent","Congruent","Incongruent","Congruent","Congruent","Incongruent","Congruent","Congruent","Congruent","Congruent","Incongruent","Congruent","Congruent","Incongruent","Incongruent","Incongruent","Incongruent","Congruent","Congruent","Incongruent","Congruent","Incongruent","Incongruent","Incongruent","Congruent","Incongruent","Incongruent","Congruent","Incongruent","Congruent","Congruent","Congruent","Incongruent","Congruent","Congruent","Congruent","Congruent","Congruent","Incongruent","Congruent","Incongruent","Incongruent","Congruent","Congruent","Congruent","Congruent","Congruent","Congruent","Incongruent","Incongruent","Incongruent","Incongruent","Congruent","Congruent","Congruent","Incongruent"],"ratio_trial":[200,200,100,300,100,100,100,200,300,300,300,100,300,100,200,100,300,200,200,100,100,200,100,200,300,200,200,300,200,200,300,200,200,300,100,100,100,200,100,200,300,200,200,200,300,300,200,200,300,200,200,100,100,300,200,300,200,100,300,300,200,300,300,300,300,100,100,200,300,300,300,300,100,100,300,200,100,300,200,200,100,200,200,100,300,300,300,300,200,200,200,300,100,100,100,200,300,300,300,100,300,200,100,300,100,200,300,100,200,100,100,100,100,100,100,100,100,100,300,200],"left_num":[7,3,8,3,10,13,1,6,4,8,4,10,24,3,4,10,1,4,4,3,7,14,9,3,4,16,1,4,4,4,4,6,16,13,7,3,10,7,4,1,1,3,16,9,11,4,3,5,4,21,15,6,12,4,6,11,16,9,5,9,7,4,20,7,4,15,3,3,4,1,5,3,3,8,1,3,10,1,7,7,17,16,6,1,2,3,1,13,9,3,9,2,6,1,1,3,1,3,12,3,5,13,6,24,13,7,5,8,9,11,3,3,8,6,6,3,15,7,8,1],"right_num":[4,14,2,4,8,12,8,3,2,9,2,8,2,2,3,9,11,3,1,4,9,6,6,1,1,12,21,2,6,6,2,3,12,12,15,11,3,14,8,2,3,11,12,8,1,2,1,14,6,2,4,11,13,2,7,2,12,8,6,3,4,8,14,8,8,13,4,14,13,2,6,4,2,2,2,14,3,2,6,6,10,12,11,8,10,4,3,12,13,1,8,10,11,18,3,14,3,2,2,4,6,14,11,2,12,4,6,2,13,4,2,4,6,7,3,11,13,15,1,2],"left_den":[15,6,16,6,25,26,2,20,20,10,20,25,30,6,8,25,5,8,30,6,14,30,18,10,10,20,2,20,5,5,20,20,20,26,14,5,25,10,8,3,5,4,20,15,22,20,10,10,5,30,25,10,30,20,12,22,20,15,25,10,15,5,25,10,5,25,6,10,20,2,25,6,6,16,2,6,25,2,15,15,30,20,20,2,20,6,2,26,30,10,15,20,10,2,2,6,2,6,24,20,25,26,10,30,26,15,25,16,30,22,6,20,16,10,12,5,25,14,16,3],"right_den":[6,20,5,20,16,20,20,6,4,18,4,16,4,5,10,18,22,10,3,10,15,9,10,2,10,20,30,4,10,10,4,6,20,15,25,22,10,28,20,15,6,20,20,10,5,4,2,20,12,4,10,22,26,4,10,10,20,16,12,5,6,16,28,20,16,26,10,28,26,10,12,5,5,5,10,20,10,10,9,9,15,20,22,20,25,20,15,15,26,2,10,25,22,30,5,20,15,10,10,16,12,20,22,4,20,6,12,5,26,10,5,16,10,14,5,22,26,25,5,15],"correct_side":[2,2,1,1,2,2,1,2,2,1,2,2,1,1,1,2,2,1,2,1,2,2,2,2,1,1,2,2,1,1,2,2,1,2,2,1,1,1,1,1,2,1,1,2,1,2,2,2,1,1,1,1,2,2,2,1,1,1,2,1,2,1,1,1,1,1,1,2,2,1,2,2,1,1,1,2,1,1,2,2,2,1,2,1,2,1,1,2,2,2,2,2,1,2,2,2,1,1,1,2,2,2,1,1,2,2,2,1,2,1,1,2,2,1,2,1,1,2,1,1],"img_shown":["img2/200/Incongruent/R/I_Dist_200_LN_7_LD_15_RN_4_RD_6_1.png","img2/200/Congruent/R/C_Dist_200_LN_3_LD_6_RN_14_RD_20_1.png","img2/100/Congruent/L/C_Dist_100_LN_8_LD_16_RN_2_RD_5_0.png","img2/300/Incongruent/L/I_Dist_300_LN_3_LD_6_RN_4_RD_20_0.png","img2/100/Incongruent/R/I_Dist_100_LN_10_LD_25_RN_8_RD_16_1.png","img2/100/Incongruent/R/I_Dist_100_LN_13_LD_26_RN_12_RD_20_1.png","img2/100/Incongruent/L/I_Dist_100_LN_1_LD_2_RN_8_RD_20_0.png","img2/200/Incongruent/R/I_Dist_200_LN_6_LD_20_RN_3_RD_6_1.png","img2/300/Incongruent/R/I_Dist_300_LN_4_LD_20_RN_2_RD_4_1.png","img2/300/Incongruent/L/I_Dist_300_LN_8_LD_10_RN_9_RD_18_0.png","img2/300/Incongruent/R/I_Dist_300_LN_4_LD_20_RN_2_RD_4_1.png","img2/100/Incongruent/R/I_Dist_100_LN_10_LD_25_RN_8_RD_16_1.png","img2/300/Congruent/L/C_Dist_300_LN_24_LD_30_RN_2_RD_4_0.png","img2/100/Congruent/L/C_Dist_100_LN_3_LD_6_RN_2_RD_5_0.png","img2/200/Congruent/L/C_Dist_200_LN_4_LD_8_RN_3_RD_10_0.png","img2/100/Incongruent/R/I_Dist_100_LN_10_LD_25_RN_9_RD_18_1.png","img2/300/Congruent/R/C_Dist_300_LN_1_LD_5_RN_11_RD_22_1.png","img2/200/Congruent/L/C_Dist_200_LN_4_LD_8_RN_3_RD_10_0.png","img2/200/Incongruent/R/I_Dist_200_LN_4_LD_30_RN_1_RD_3_1.png","img2/100/Incongruent/L/I_Dist_100_LN_3_LD_6_RN_4_RD_10_0.png","img2/100/Congruent/R/C_Dist_100_LN_7_LD_14_RN_9_RD_15_1.png","img2/200/Incongruent/R/I_Dist_200_LN_14_LD_30_RN_6_RD_9_1.png","img2/100/Incongruent/R/I_Dist_100_LN_9_LD_18_RN_6_RD_10_1.png","img2/200/Incongruent/R/I_Dist_200_LN_3_LD_10_RN_1_RD_2_1.png","img2/300/Congruent/L/C_Dist_300_LN_4_LD_10_RN_1_RD_10_0.png","img2/200/Congruent/L/C_Dist_200_LN_16_LD_20_RN_12_RD_20_0.png","img2/200/Congruent/R/C_Dist_200_LN_1_LD_2_RN_21_RD_30_1.png","img2/300/Incongruent/R/I_Dist_300_LN_4_LD_20_RN_2_RD_4_1.png","img2/200/Incongruent/L/I_Dist_200_LN_4_LD_5_RN_6_RD_10_0.png","img2/200/Incongruent/L/I_Dist_200_LN_4_LD_5_RN_6_RD_10_0.png","img2/300/Incongruent/R/I_Dist_300_LN_4_LD_20_RN_2_RD_4_1.png","img2/200/Incongruent/R/I_Dist_200_LN_6_LD_20_RN_3_RD_6_1.png","img2/200/Congruent/L/C_Dist_200_LN_16_LD_20_RN_12_RD_20_0.png","img2/300/Incongruent/R/I_Dist_300_LN_13_LD_26_RN_12_RD_15_1.png","img2/100/Congruent/R/C_Dist_100_LN_7_LD_14_RN_15_RD_25_1.png","img2/100/Incongruent/L/I_Dist_100_LN_3_LD_5_RN_11_RD_22_0.png","img2/100/Congruent/L/C_Dist_100_LN_10_LD_25_RN_3_RD_10_0.png","img2/200/Incongruent/L/I_Dist_200_LN_7_LD_10_RN_14_RD_28_0.png","img2/100/Incongruent/L/I_Dist_100_LN_4_LD_8_RN_8_RD_20_0.png","img2/200/Incongruent/L/I_Dist_200_LN_1_LD_3_RN_2_RD_15_0.png","img2/300/Congruent/R/C_Dist_300_LN_1_LD_5_RN_3_RD_6_1.png","img2/200/Incongruent/L/I_Dist_200_LN_3_LD_4_RN_11_RD_20_0.png","img2/200/Congruent/L/C_Dist_200_LN_16_LD_20_RN_12_RD_20_0.png","img2/200/Incongruent/R/I_Dist_200_LN_9_LD_15_RN_8_RD_10_1.png","img2/300/Congruent/L/C_Dist_300_LN_11_LD_22_RN_1_RD_5_0.png","img2/300/Incongruent/R/I_Dist_300_LN_4_LD_20_RN_2_RD_4_1.png","img2/200/Incongruent/R/I_Dist_200_LN_3_LD_10_RN_1_RD_2_1.png","img2/200/Congruent/R/C_Dist_200_LN_5_LD_10_RN_14_RD_20_1.png","img2/300/Incongruent/L/I_Dist_300_LN_4_LD_5_RN_6_RD_12_0.png","img2/200/Congruent/L/C_Dist_200_LN_21_LD_30_RN_2_RD_4_0.png","img2/200/Congruent/L/C_Dist_200_LN_15_LD_25_RN_4_RD_10_0.png","img2/100/Incongruent/L/I_Dist_100_LN_6_LD_10_RN_11_RD_22_0.png","img2/100/Congruent/R/C_Dist_100_LN_12_LD_30_RN_13_RD_26_1.png","img2/300/Incongruent/R/I_Dist_300_LN_4_LD_20_RN_2_RD_4_1.png","img2/200/Congruent/R/C_Dist_200_LN_6_LD_12_RN_7_RD_10_1.png","img2/300/Congruent/L/C_Dist_300_LN_11_LD_22_RN_2_RD_10_0.png","img2/200/Congruent/L/C_Dist_200_LN_16_LD_20_RN_12_RD_20_0.png","img2/100/Congruent/L/C_Dist_100_LN_9_LD_15_RN_8_RD_16_0.png","img2/300/Congruent/R/C_Dist_300_LN_5_LD_25_RN_6_RD_12_1.png","img2/300/Congruent/L/C_Dist_300_LN_9_LD_10_RN_3_RD_5_0.png","img2/200/Incongruent/R/I_Dist_200_LN_7_LD_15_RN_4_RD_6_1.png","img2/300/Incongruent/L/I_Dist_300_LN_4_LD_5_RN_8_RD_16_0.png","img2/300/Congruent/L/C_Dist_300_LN_20_LD_25_RN_14_RD_28_0.png","img2/300/Incongruent/L/I_Dist_300_LN_7_LD_10_RN_8_RD_20_0.png","img2/300/Incongruent/L/I_Dist_300_LN_4_LD_5_RN_8_RD_16_0.png","img2/100/Congruent/L/C_Dist_100_LN_15_LD_25_RN_13_RD_26_0.png","img2/100/Incongruent/L/I_Dist_100_LN_3_LD_6_RN_4_RD_10_0.png","img2/200/Congruent/R/C_Dist_200_LN_3_LD_10_RN_14_RD_28_1.png","img2/300/Congruent/R/C_Dist_300_LN_4_LD_20_RN_13_RD_26_1.png","img2/300/Incongruent/L/I_Dist_300_LN_1_LD_2_RN_2_RD_10_0.png","img2/300/Congruent/R/C_Dist_300_LN_5_LD_25_RN_6_RD_12_1.png","img2/300/Congruent/R/C_Dist_300_LN_3_LD_6_RN_4_RD_5_1.png","img2/100/Congruent/L/C_Dist_100_LN_3_LD_6_RN_2_RD_5_0.png","img2/100/Congruent/L/C_Dist_100_LN_8_LD_16_RN_2_RD_5_0.png","img2/300/Incongruent/L/I_Dist_300_LN_1_LD_2_RN_2_RD_10_0.png","img2/200/Congruent/R/C_Dist_200_LN_3_LD_6_RN_14_RD_20_1.png","img2/100/Congruent/L/C_Dist_100_LN_10_LD_25_RN_3_RD_10_0.png","img2/300/Incongruent/L/I_Dist_300_LN_1_LD_2_RN_2_RD_10_0.png","img2/200/Incongruent/R/I_Dist_200_LN_7_LD_15_RN_6_RD_9_1.png","img2/200/Incongruent/R/I_Dist_200_LN_7_LD_15_RN_6_RD_9_1.png","img2/100/Incongruent/R/I_Dist_100_LN_17_LD_30_RN_10_RD_15_1.png","img2/200/Congruent/L/C_Dist_200_LN_16_LD_20_RN_12_RD_20_0.png","img2/200/Congruent/R/C_Dist_200_LN_6_LD_20_RN_11_RD_22_1.png","img2/100/Incongruent/L/I_Dist_100_LN_1_LD_2_RN_8_RD_20_0.png","img2/300/Congruent/R/C_Dist_300_LN_2_LD_20_RN_10_RD_25_1.png","img2/300/Incongruent/L/I_Dist_300_LN_3_LD_6_RN_4_RD_20_0.png","img2/300/Incongruent/L/I_Dist_300_LN_1_LD_2_RN_3_RD_15_0.png","img2/300/Incongruent/R/I_Dist_300_LN_13_LD_26_RN_12_RD_15_1.png","img2/200/Congruent/R/C_Dist_200_LN_9_LD_30_RN_13_RD_26_1.png","img2/200/Incongruent/R/I_Dist_200_LN_3_LD_10_RN_1_RD_2_1.png","img2/200/Incongruent/R/I_Dist_200_LN_9_LD_15_RN_8_RD_10_1.png","img2/300/Congruent/R/C_Dist_300_LN_2_LD_20_RN_10_RD_25_1.png","img2/100/Incongruent/L/I_Dist_100_LN_6_LD_10_RN_11_RD_22_0.png","img2/100/Congruent/R/C_Dist_100_LN_1_LD_2_RN_18_RD_30_1.png","img2/100/Congruent/R/C_Dist_100_LN_1_LD_2_RN_3_RD_5_1.png","img2/200/Congruent/R/C_Dist_200_LN_3_LD_6_RN_14_RD_20_1.png","img2/300/Incongruent/L/I_Dist_300_LN_1_LD_2_RN_3_RD_15_0.png","img2/300/Congruent/L/C_Dist_300_LN_3_LD_6_RN_2_RD_10_0.png","img2/300/Congruent/L/C_Dist_300_LN_12_LD_24_RN_2_RD_10_0.png","img2/100/Congruent/R/C_Dist_100_LN_3_LD_20_RN_4_RD_16_1.png","img2/300/Congruent/R/C_Dist_300_LN_5_LD_25_RN_6_RD_12_1.png","img2/200/Congruent/R/C_Dist_200_LN_13_LD_26_RN_14_RD_20_1.png","img2/100/Incongruent/L/I_Dist_100_LN_6_LD_10_RN_11_RD_22_0.png","img2/300/Congruent/L/C_Dist_300_LN_24_LD_30_RN_2_RD_4_0.png","img2/100/Incongruent/R/I_Dist_100_LN_13_LD_26_RN_12_RD_20_1.png","img2/200/Incongruent/R/I_Dist_200_LN_7_LD_15_RN_4_RD_6_1.png","img2/300/Congruent/R/C_Dist_300_LN_5_LD_25_RN_6_RD_12_1.png","img2/100/Congruent/L/C_Dist_100_LN_8_LD_16_RN_2_RD_5_0.png","img2/200/Congruent/R/C_Dist_200_LN_9_LD_30_RN_13_RD_26_1.png","img2/100/Congruent/L/C_Dist_100_LN_11_LD_22_RN_4_RD_10_0.png","img2/100/Congruent/L/C_Dist_100_LN_3_LD_6_RN_2_RD_5_0.png","img2/100/Congruent/R/C_Dist_100_LN_3_LD_20_RN_4_RD_16_1.png","img2/100/Incongruent/R/I_Dist_100_LN_8_LD_16_RN_6_RD_10_1.png","img2/100/Incongruent/L/I_Dist_100_LN_6_LD_10_RN_7_RD_14_0.png","img2/100/Incongruent/R/I_Dist_100_LN_6_LD_12_RN_3_RD_5_1.png","img2/100/Incongruent/L/I_Dist_100_LN_3_LD_5_RN_11_RD_22_0.png","img2/100/Congruent/L/C_Dist_100_LN_15_LD_25_RN_13_RD_26_0.png","img2/100/Congruent/R/C_Dist_100_LN_7_LD_14_RN_15_RD_25_1.png","img2/300/Congruent/L/C_Dist_300_LN_8_LD_16_RN_1_RD_5_0.png","img2/200/Incongruent/L/I_Dist_200_LN_1_LD_3_RN_2_RD_15_0.png"],"dist100_C":[["C_Dist_100_LN_10_LD_25_RN_3_RD_10_0.png","C_Dist_100_LN_11_LD_22_RN_4_RD_10_0.png","C_Dist_100_LN_11_LD_22_RN_6_RD_15_0.png","C_Dist_100_LN_15_LD_25_RN_13_RD_26_0.png","C_Dist_100_LN_3_LD_6_RN_2_RD_5_0.png","C_Dist_100_LN_6_LD_20_RN_5_RD_25_0.png","C_Dist_100_LN_8_LD_16_RN_2_RD_5_0.png","C_Dist_100_LN_9_LD_15_RN_8_RD_16_0.png"],["C_Dist_100_LN_1_LD_2_RN_18_RD_30_1.png","C_Dist_100_LN_1_LD_2_RN_3_RD_5_1.png","C_Dist_100_LN_12_LD_30_RN_13_RD_26_1.png","C_Dist_100_LN_2_LD_5_RN_11_RD_22_1.png","C_Dist_100_LN_2_LD_5_RN_6_RD_12_1.png","C_Dist_100_LN_3_LD_20_RN_4_RD_16_1.png","C_Dist_100_LN_4_LD_10_RN_15_RD_30_1.png","C_Dist_100_LN_4_LD_8_RN_6_RD_10_1.png","C_Dist_100_LN_6_LD_12_RN_15_RD_25_1.png","C_Dist_100_LN_7_LD_14_RN_15_RD_25_1.png","C_Dist_100_LN_7_LD_14_RN_9_RD_15_1.png"]],"dist100_I":[["I_Dist_100_LN_1_LD_2_RN_8_RD_20_0.png","I_Dist_100_LN_2_LD_4_RN_6_RD_15_0.png","I_Dist_100_LN_2_LD_4_RN_8_RD_20_0.png","I_Dist_100_LN_3_LD_5_RN_11_RD_22_0.png","I_Dist_100_LN_3_LD_5_RN_8_RD_16_0.png","I_Dist_100_LN_3_LD_6_RN_4_RD_10_0.png","I_Dist_100_LN_3_LD_9_RN_7_RD_30_0.png","I_Dist_100_LN_4_LD_8_RN_8_RD_20_0.png","I_Dist_100_LN_6_LD_10_RN_11_RD_22_0.png","I_Dist_100_LN_6_LD_10_RN_13_RD_26_0.png","I_Dist_100_LN_6_LD_10_RN_7_RD_14_0.png","I_Dist_100_LN_9_LD_10_RN_20_RD_25_0.png","I_Dist_100_LN_9_LD_15_RN_13_RD_26_0.png","I_Dist_100_LN_9_LD_15_RN_14_RD_28_0.png"],["I_Dist_100_LN_10_LD_25_RN_8_RD_16_1.png","I_Dist_100_LN_10_LD_25_RN_9_RD_18_1.png","I_Dist_100_LN_11_LD_22_RN_9_RD_15_1.png","I_Dist_100_LN_12_LD_24_RN_9_RD_15_1.png","I_Dist_100_LN_12_LD_30_RN_2_RD_4_1.png","I_Dist_100_LN_13_LD_26_RN_12_RD_20_1.png","I_Dist_100_LN_13_LD_26_RN_6_RD_10_1.png","I_Dist_100_LN_17_LD_30_RN_10_RD_15_1.png","I_Dist_100_LN_6_LD_12_RN_3_RD_5_1.png","I_Dist_100_LN_8_LD_16_RN_6_RD_10_1.png","I_Dist_100_LN_8_LD_20_RN_1_RD_2_1.png","I_Dist_100_LN_9_LD_18_RN_6_RD_10_1.png"]],"dist100_S":[["E_Dist_100_LN_2_LD_12_RN_2_RD_30_0.png","E_Dist_100_LN_6_LD_10_RN_6_RD_12_0.png"],["E_Dist_100_LN_6_LD_12_RN_6_RD_10_1.png"]],"dist200_C":[["C_Dist_200_LN_11_LD_22_RN_3_RD_10_0.png","C_Dist_200_LN_12_LD_15_RN_6_RD_10_0.png","C_Dist_200_LN_12_LD_20_RN_6_RD_15_0.png","C_Dist_200_LN_14_LD_28_RN_6_RD_20_0.png","C_Dist_200_LN_15_LD_25_RN_4_RD_10_0.png","C_Dist_200_LN_16_LD_20_RN_12_RD_20_0.png","C_Dist_200_LN_16_LD_30_RN_9_RD_27_0.png","C_Dist_200_LN_20_LD_25_RN_9_RD_15_0.png","C_Dist_200_LN_21_LD_30_RN_2_RD_4_0.png","C_Dist_200_LN_4_LD_10_RN_3_RD_15_0.png","C_Dist_200_LN_4_LD_8_RN_3_RD_10_0.png","C_Dist_200_LN_6_LD_15_RN_3_RD_15_0.png","C_Dist_200_LN_7_LD_21_RN_2_RD_15_0.png","C_Dist_200_LN_8_LD_15_RN_2_RD_6_0.png","C_Dist_200_LN_8_LD_15_RN_3_RD_9_0.png","C_Dist_200_LN_8_LD_15_RN_7_RD_21_0.png","C_Dist_200_LN_9_LD_20_RN_4_RD_16_0.png"],["C_Dist_200_LN_1_LD_2_RN_21_RD_30_1.png","C_Dist_200_LN_13_LD_26_RN_14_RD_20_1.png","C_Dist_200_LN_3_LD_10_RN_11_RD_22_1.png","C_Dist_200_LN_3_LD_10_RN_14_RD_28_1.png","C_Dist_200_LN_3_LD_10_RN_7_RD_14_1.png","C_Dist_200_LN_3_LD_12_RN_9_RD_20_1.png","C_Dist_200_LN_3_LD_6_RN_14_RD_20_1.png","C_Dist_200_LN_5_LD_10_RN_14_RD_20_1.png","C_Dist_200_LN_6_LD_12_RN_7_RD_10_1.png","C_Dist_200_LN_6_LD_20_RN_11_RD_22_1.png","C_Dist_200_LN_7_LD_15_RN_18_RD_27_1.png","C_Dist_200_LN_9_LD_30_RN_13_RD_26_1.png"]],"dist200_I":[["I_Dist_200_LN_1_LD_2_RN_3_RD_10_0.png","I_Dist_200_LN_1_LD_3_RN_2_RD_15_0.png","I_Dist_200_LN_3_LD_4_RN_11_RD_20_0.png","I_Dist_200_LN_4_LD_5_RN_6_RD_10_0.png","I_Dist_200_LN_4_LD_6_RN_14_RD_30_0.png","I_Dist_200_LN_7_LD_10_RN_12_RD_24_0.png","I_Dist_200_LN_7_LD_10_RN_14_RD_28_0.png","I_Dist_200_LN_7_LD_10_RN_8_RD_16_0.png"],["I_Dist_200_LN_11_LD_20_RN_3_RD_4_1.png","I_Dist_200_LN_14_LD_30_RN_12_RD_18_1.png","I_Dist_200_LN_14_LD_30_RN_6_RD_9_1.png","I_Dist_200_LN_3_LD_10_RN_1_RD_2_1.png","I_Dist_200_LN_4_LD_30_RN_1_RD_3_1.png","I_Dist_200_LN_6_LD_20_RN_3_RD_6_1.png","I_Dist_200_LN_7_LD_15_RN_4_RD_6_1.png","I_Dist_200_LN_7_LD_15_RN_6_RD_9_1.png","I_Dist_200_LN_9_LD_15_RN_8_RD_10_1.png"]],"dist200_S":[["E_Dist_200_LN_3_LD_6_RN_3_RD_10_0.png"],["E_Dist_200_LN_3_LD_10_RN_3_RD_6_1.png"]],"dist300_C":[["C_Dist_300_LN_11_LD_22_RN_1_RD_5_0.png","C_Dist_300_LN_11_LD_22_RN_2_RD_10_0.png","C_Dist_300_LN_11_LD_22_RN_4_RD_20_0.png","C_Dist_300_LN_12_LD_24_RN_2_RD_10_0.png","C_Dist_300_LN_18_LD_20_RN_9_RD_15_0.png","C_Dist_300_LN_20_LD_25_RN_13_RD_26_0.png","C_Dist_300_LN_20_LD_25_RN_14_RD_28_0.png","C_Dist_300_LN_20_LD_25_RN_5_RD_10_0.png","C_Dist_300_LN_20_LD_25_RN_8_RD_16_0.png","C_Dist_300_LN_20_LD_25_RN_9_RD_18_0.png","C_Dist_300_LN_24_LD_30_RN_2_RD_4_0.png","C_Dist_300_LN_24_LD_30_RN_8_RD_16_0.png","C_Dist_300_LN_3_LD_6_RN_2_RD_10_0.png","C_Dist_300_LN_4_LD_10_RN_1_RD_10_0.png","C_Dist_300_LN_4_LD_5_RN_2_RD_4_0.png","C_Dist_300_LN_8_LD_16_RN_1_RD_5_0.png","C_Dist_300_LN_9_LD_10_RN_3_RD_5_0.png"],["C_Dist_300_LN_1_LD_20_RN_7_RD_20_1.png","C_Dist_300_LN_1_LD_3_RN_19_RD_30_1.png","C_Dist_300_LN_1_LD_30_RN_8_RD_24_1.png","C_Dist_300_LN_1_LD_5_RN_11_RD_22_1.png","C_Dist_300_LN_1_LD_5_RN_3_RD_6_1.png","C_Dist_300_LN_1_LD_5_RN_6_RD_12_1.png","C_Dist_300_LN_2_LD_10_RN_12_RD_24_1.png","C_Dist_300_LN_2_LD_20_RN_10_RD_25_1.png","C_Dist_300_LN_3_LD_12_RN_11_RD_20_1.png","C_Dist_300_LN_3_LD_6_RN_4_RD_5_1.png","C_Dist_300_LN_4_LD_20_RN_13_RD_26_1.png","C_Dist_300_LN_5_LD_25_RN_6_RD_12_1.png","C_Dist_300_LN_5_LD_25_RN_7_RD_14_1.png","C_Dist_300_LN_7_LD_14_RN_20_RD_25_1.png","C_Dist_300_LN_8_LD_15_RN_10_RD_12_1.png"]],"dist300_I":[["I_Dist_300_LN_1_LD_2_RN_2_RD_10_0.png","I_Dist_300_LN_1_LD_2_RN_3_RD_15_0.png","I_Dist_300_LN_2_LD_4_RN_6_RD_30_0.png","I_Dist_300_LN_3_LD_6_RN_4_RD_20_0.png","I_Dist_300_LN_4_LD_5_RN_6_RD_12_0.png","I_Dist_300_LN_4_LD_5_RN_8_RD_16_0.png","I_Dist_300_LN_7_LD_10_RN_8_RD_20_0.png","I_Dist_300_LN_8_LD_10_RN_14_RD_28_0.png","I_Dist_300_LN_8_LD_10_RN_9_RD_18_0.png"],["I_Dist_300_LN_13_LD_26_RN_12_RD_15_1.png","I_Dist_300_LN_4_LD_20_RN_2_RD_4_1.png"]],"dist300_S":[["E_Dist_300_LN_9_LD_12_RN_9_RD_20_0.png"],["E_Dist_300_LN_18_LD_30_RN_18_RD_20_1.png","E_Dist_300_LN_3_LD_10_RN_3_RD_5_1.png","E_Dist_300_LN_9_LD_20_RN_9_RD_12_1.png"]],"dist500_C":[["C_Dist_500_LN_10_LD_13_RN_7_RD_26_0.png","C_Dist_500_LN_10_LD_15_RN_4_RD_24_0.png","C_Dist_500_LN_12_LD_16_RN_3_RD_12_0.png","C_Dist_500_LN_12_LD_18_RN_4_RD_24_0.png","C_Dist_500_LN_15_LD_18_RN_5_RD_15_0.png","C_Dist_500_LN_15_LD_20_RN_1_RD_4_0.png","C_Dist_500_LN_18_LD_27_RN_1_RD_6_0.png","C_Dist_500_LN_20_LD_24_RN_1_RD_3_0.png","C_Dist_500_LN_20_LD_24_RN_3_RD_9_0.png","C_Dist_500_LN_20_LD_24_RN_7_RD_21_0.png","C_Dist_500_LN_20_LD_28_RN_3_RD_14_0.png","C_Dist_500_LN_21_LD_28_RN_6_RD_24_0.png","C_Dist_500_LN_22_LD_28_RN_2_RD_7_0.png","C_Dist_500_LN_25_LD_30_RN_9_RD_27_0.png","C_Dist_500_LN_4_LD_6_RN_1_RD_6_0.png","C_Dist_500_LN_5_LD_6_RN_2_RD_6_0.png","C_Dist_500_LN_6_LD_9_RN_1_RD_6_0.png","C_Dist_500_LN_7_LD_10_RN_1_RD_5_0.png","C_Dist_500_LN_8_LD_12_RN_1_RD_6_0.png","C_Dist_500_LN_8_LD_12_RN_4_RD_24_0.png"],["C_Dist_500_LN_1_LD_4_RN_12_RD_16_1.png","C_Dist_500_LN_1_LD_4_RN_9_RD_12_1.png","C_Dist_500_LN_1_LD_9_RN_11_RD_18_1.png","C_Dist_500_LN_10_LD_24_RN_22_RD_24_1.png","C_Dist_500_LN_2_LD_12_RN_10_RD_15_1.png","C_Dist_500_LN_2_LD_12_RN_12_RD_18_1.png","C_Dist_500_LN_2_LD_12_RN_4_RD_6_1.png","C_Dist_500_LN_2_LD_24_RN_7_RD_12_1.png","C_Dist_500_LN_2_LD_5_RN_18_RD_20_1.png","C_Dist_500_LN_2_LD_5_RN_9_RD_10_1.png","C_Dist_500_LN_2_LD_8_RN_12_RD_16_1.png","C_Dist_500_LN_2_LD_8_RN_21_RD_28_1.png","C_Dist_500_LN_3_LD_10_RN_4_RD_5_1.png","C_Dist_500_LN_3_LD_12_RN_15_RD_20_1.png","C_Dist_500_LN_3_LD_30_RN_6_RD_10_1.png","C_Dist_500_LN_3_LD_8_RN_14_RD_16_1.png","C_Dist_500_LN_4_LD_16_RN_15_RD_20_1.png","C_Dist_500_LN_4_LD_24_RN_12_RD_18_1.png","C_Dist_500_LN_5_LD_14_RN_6_RD_7_1.png","C_Dist_500_LN_7_LD_21_RN_20_RD_24_1.png","C_Dist_500_LN_7_LD_28_RN_12_RD_16_1.png","C_Dist_500_LN_7_LD_28_RN_9_RD_12_1.png","C_Dist_500_LN_9_LD_27_RN_20_RD_24_1.png"]],"dist500_I":[["I_Dist_500_LN_2_LD_3_RN_4_RD_24_0.png","I_Dist_500_LN_5_LD_6_RN_6_RD_18_0.png","I_Dist_500_LN_7_LD_8_RN_9_RD_24_0.png"],["I_Dist_500_LN_7_LD_21_RN_5_RD_6_1.png"]],"dist500_S":[["E_Dist_500_LN_6_LD_8_RN_6_RD_24_0.png"],["E_Dist_500_LN_2_LD_12_RN_2_RD_3_1.png","E_Dist_500_LN_6_LD_24_RN_6_RD_8_1.png"]]}},{"start_time":1551890956933,"click_time":1551890959530,"finger_time":1551890959348,"fix_duration":1142.3506205510967,"trial":1,"RT":2415,"MT":182,"sideResp":2,"stimulus":[],"xmouse":[774,774,774,774,774,774,774,774,774,774,774,774,774,774,774,774,774,774,774,774,774,774,774,774,774,774,774,774,774,774,774,774,774,774,775,775,775,775,775,775,775,775,775,775,775,775,775,775,775,775,775,775,771,768,759,758,758,758,758,758,758,758,758,758,758,758,758,758,758,758,758,758,758,758,758,758,758,758,758,758,758,758,758,758,758,758,758,758,758,758,758,758,758,758,758,758,758,758,758,758,758,759,759,760,760,760,760,760,760,760,760,760,760,760,760,760,760,760,762,775,804,821,833,845,882,911,949,987,1026,1091],"ymouse":[554,554,554,554,554,554,554,554,554,554,554,554,554,554,554,554,554,554,554,554,554,554,554,554,554,554,554,554,554,554,554,554,550,547,546,546,546,546,546,546,546,546,546,546,546,546,546,546,546,546,546,545,546,548,553,554,554,554,554,554,554,554,554,554,554,554,554,554,554,554,554,554,554,554,554,554,554,554,554,554,554,554,554,554,554,554,554,554,554,554,554,554,554,554,554,554,554,554,554,554,554,553,553,552,552,552,552,552,552,552,552,552,552,552,552,552,552,551,545,526,466,428,389,348,271,236,193,150,100,8],"timestamp_mouse":[15,41,55,76,96,115,136,155,176,196,216,235,256,276,296,315,334,356,376,396,414,436,456,475,496,515,535,556,576,596,614,636,655,675,694,716,735,755,776,795,815,836,855,874,895,916,936,954,975,995,1015,1035,1055,1075,1095,1116,1135,1155,1175,1195,1216,1235,1256,1275,1295,1315,1334,1356,1375,1396,1416,1436,1455,1476,1495,1516,1535,1555,1575,1595,1616,1636,1656,1676,1694,1715,1736,1756,1774,1795,1816,1835,1854,1874,1896,1916,1935,1955,1974,1995,2016,2035,2056,2076,2096,2116,2134,2154,2175,2195,2215,2234,2255,2276,2294,2315,2336,2355,2375,2395,2415,2435,2456,2475,2496,2515,2535,2556,2576,2596],"xSR":741.5,"ySR":469.95,"xT1":424.9,"yT1":0,"xT2":1058.1,"yT2":0,"toosoon":0,"cond_shown":"Congruent","ratio_trial":200,"L_num":3,"L_den":6,"R_num":14,"R_den":20,"correct_side":2,"subjID":"juandavidalvarezmontes3","gender":"0","school":"6","age":"11"},{"start_time":1551890962724,"click_time":1551890964949,"finger_time":1551890964709,"fix_duration":294.27404097323506,"trial":2,"RT":1985,"MT":240,"sideResp":1,"stimulus":[],"xmouse":[785,785,785,785,785,785,785,785,785,785,785,785,785,785,785,785,785,785,785,785,785,785,785,785,785,785,785,785,785,785,785,785,785,785,785,785,785,785,785,785,785,785,785,785,785,785,785,785,785,785,785,785,785,785,785,785,785,785,785,785,785,785,785,785,785,785,785,785,785,785,785,785,785,785,785,785,785,785,785,785,785,785,785,785,785,785,785,785,785,785,785,776,776,776,776,776,776,770,766,757,751,747,740,728,713,700,674,653,616,557,528,489],"ymouse":[536,536,536,536,536,536,536,536,536,536,536,536,536,536,536,536,536,536,536,536,536,536,536,536,536,536,536,536,536,536,536,536,536,536,536,536,536,536,536,536,536,536,536,536,536,536,536,536,536,536,536,536,536,536,536,536,536,536,536,536,536,536,536,536,536,536,536,536,536,536,536,536,536,536,536,536,536,536,536,536,536,536,536,536,536,536,536,536,536,535,526,495,495,495,495,495,495,488,482,468,450,423,402,376,336,301,231,184,123,52,28,3],"timestamp_mouse":[12,41,45,63,85,104,125,145,165,183,204,225,245,263,284,305,325,343,363,385,405,423,445,465,485,503,525,544,565,584,605,625,643,664,685,704,725,745,763,785,803,825,844,865,884,904,925,944,964,985,1003,1024,1045,1065,1084,1104,1123,1143,1165,1185,1205,1225,1244,1263,1284,1304,1324,1343,1365,1385,1403,1425,1445,1463,1485,1504,1524,1545,1565,1583,1604,1625,1645,1665,1684,1703,1725,1745,1764,1785,1805,1823,1845,1865,1883,1904,1925,1945,1963,1985,2005,2024,2044,2064,2084,2103,2124,2143,2165,2185,2205,2225],"xSR":741.5,"ySR":469.95,"xT1":424.9,"yT1":0,"xT2":1058.1,"yT2":0,"toosoon":0,"cond_shown":"Congruent","ratio_trial":100,"L_num":8,"L_den":16,"R_num":2,"R_den":5,"correct_side":1,"subjID":"juandavidalvarezmontes3","gender":"0","school":"6","age":"11"},{"start_time":1551890967135,"click_time":1551890971068,"finger_time":1551890970368,"fix_duration":826.4057584874065,"trial":3,"RT":3233,"MT":700,"sideResp":1,"stimulus":[],"xmouse":[809,809,809,809,809,809,809,809,809,809,809,809,809,809,809,809,809,809,809,809,809,809,809,809,809,809,809,809,809,809,809,809,809,809,809,809,809,809,809,809,809,809,809,809,809,809,809,809,809,809,809,809,809,809,809,809,809,809,809,809,809,809,809,809,809,809,809,809,809,809,809,809,809,809,809,809,809,809,809,809,809,809,809,809,809,809,809,809,809,809,809,809,809,809,809,809,809,809,809,809,809,809,809,809,809,809,809,809,809,809,809,809,809,809,809,809,809,809,809,809,809,809,809,809,809,809,809,809,809,809,809,809,809,809,809,809,809,809,809,809,809,809,809,809,809,809,809,809,809,809,809,809,809,809,809,809,809,809,804,793,770,733,716,700,685,661,642,634,630,628,627,625,621,614,602,577,565,558,548,545,543,543,543,541,539,533,529,529,529,529,529,527,526,526,526,526,523],"ymouse":[515,515,515,515,515,515,515,515,515,515,515,515,515,515,515,515,515,515,515,515,515,515,515,515,515,515,515,515,515,515,515,515,515,515,515,515,515,515,515,515,515,515,515,515,515,515,515,515,515,515,515,515,515,515,515,515,515,515,515,515,515,515,515,515,515,515,515,515,515,515,515,515,515,515,515,515,515,515,515,515,515,515,515,515,515,515,515,515,515,515,515,515,515,515,515,515,515,515,515,515,515,515,515,515,515,515,515,515,515,515,515,515,515,515,515,515,515,515,515,515,515,515,515,515,515,515,515,515,515,515,515,515,515,515,515,515,515,515,515,515,515,515,515,515,515,515,515,515,515,515,515,515,515,515,515,515,515,515,513,509,499,482,469,452,434,390,359,344,330,316,281,256,229,195,155,92,71,63,52,48,47,47,47,47,50,58,61,61,61,61,61,62,63,63,63,63,63],"timestamp_mouse":[12,35,53,74,92,113,133,154,173,193,212,234,254,272,292,314,334,353,373,392,413,433,454,474,493,521,532,554,574,594,614,634,653,673,694,712,732,754,773,793,812,833,854,873,894,913,932,952,973,994,1014,1034,1052,1074,1092,1113,1133,1154,1173,1193,1213,1233,1253,1273,1293,1314,1333,1353,1373,1394,1412,1434,1454,1473,1494,1513,1533,1552,1573,1594,1613,1633,1652,1673,1694,1713,1732,1754,1774,1794,1813,1833,1854,1873,1892,1912,1933,1952,1974,1993,2013,2032,2053,2072,2094,2113,2133,2154,2173,2193,2214,2233,2254,2273,2293,2313,2333,2354,2373,2394,2413,2434,2452,2474,2494,2512,2534,2554,2572,2594,2613,2632,2652,2674,2694,2714,2734,2752,2774,2794,2814,2834,2853,2873,2893,2913,2933,2953,2973,2994,3012,3033,3054,3073,3092,3113,3134,3154,3174,3193,3213,3233,3253,3274,3293,3315,3333,3354,3374,3393,3415,3433,3452,3474,3494,3515,3533,3553,3572,3594,3613,3634,3653,3673,3693,3713,3732,3753,3774,3793,3813,3833,3853,3872,3892,3913,3933],"xSR":741.5,"ySR":469.95,"xT1":424.9,"yT1":0,"xT2":1058.1,"yT2":0,"toosoon":0,"cond_shown":"Incongruent","ratio_trial":300,"L_num":3,"L_den":6,"R_num":4,"R_den":20,"correct_side":1,"subjID":"juandavidalvarezmontes3","gender":"0","school":"6","age":"11"},{"start_time":1551890973849,"click_time":1551890976248,"finger_time":1551890975507,"fix_duration":780.3526330607651,"trial":4,"RT":1658,"MT":741,"sideResp":2,"stimulus":[],"xmouse":[804,804,804,804,804,804,804,804,804,804,804,804,804,804,804,804,804,804,804,804,804,804,804,804,804,804,804,804,804,804,804,804,804,804,804,804,804,804,804,804,804,804,804,804,804,804,804,804,804,804,804,804,804,804,804,804,804,804,804,804,804,804,804,804,804,804,804,804,804,804,804,804,804,804,804,804,804,807,811,812,816,818,821,822,823,830,834,838,843,849,861,874,889,903,917,940,948,956,971,978,989,993,996,998,1000,1002,1004,1006,1007,1009,1019,1028,1038,1047,1051,1054,1056,1057,1058,1059],"ymouse":[518,518,518,518,518,518,518,518,518,518,518,518,518,518,518,518,518,518,518,518,518,518,518,518,518,518,518,518,518,518,518,518,518,518,518,518,518,518,518,518,518,518,518,518,518,518,518,518,518,518,518,518,518,518,518,518,518,518,518,518,518,518,518,518,518,518,518,518,518,518,518,518,518,518,518,518,518,511,499,489,476,471,467,465,462,449,444,438,431,426,413,397,381,366,350,318,303,286,253,232,195,182,172,162,158,151,149,148,148,147,131,118,105,93,84,75,66,61,56,55],"timestamp_mouse":[19,39,59,79,100,118,139,159,180,198,218,240,260,279,300,319,339,360,379,399,419,439,460,479,500,518,540,560,580,600,619,639,659,679,699,719,740,759,779,799,819,839,859,879,899,919,939,959,979,999,1020,1039,1059,1079,1099,1120,1140,1160,1179,1198,1219,1239,1258,1278,1299,1318,1339,1358,1380,1400,1418,1439,1460,1480,1499,1519,1539,1559,1579,1598,1619,1638,1658,1679,1699,1720,1739,1759,1779,1799,1819,1839,1860,1880,1899,1920,1939,1959,1980,2000,2019,2038,2059,2079,2099,2119,2139,2158,2180,2200,2220,2239,2259,2279,2300,2320,2338,2360,2380,2399],"xSR":741.5,"ySR":469.95,"xT1":424.9,"yT1":0,"xT2":1058.1,"yT2":0,"toosoon":0,"cond_shown":"Incongruent","ratio_trial":100,"L_num":10,"L_den":25,"R_num":8,"R_den":16,"correct_side":2,"subjID":"juandavidalvarezmontes3","gender":"0","school":"6","age":"11"},{"start_time":1551890978586,"click_time":1551890986168,"finger_time":1551890983687,"fix_duration":895.7364975810893,"trial":5,"RT":5101,"MT":2481,"sideResp":2,"stimulus":[],"xmouse":[796,796,796,796,796,796,796,796,796,796,796,796,796,796,796,796,796,796,796,796,796,796,796,796,796,796,796,796,796,796,796,796,796,796,796,796,796,796,796,796,796,796,796,796,796,796,796,796,796,796,796,796,796,796,796,796,796,796,796,796,796,796,796,796,796,796,796,796,796,796,796,796,796,796,796,796,796,796,796,796,796,796,796,796,796,796,796,796,796,796,796,796,796,796,796,796,796,796,796,796,796,796,796,796,796,796,796,796,796,796,796,796,796,796,796,796,796,796,796,796,796,796,796,796,796,796,796,796,796,796,796,796,796,796,796,796,796,796,796,796,796,796,796,796,796,796,796,796,796,796,796,796,796,796,796,796,796,796,796,796,796,796,796,796,796,796,796,796,796,796,796,796,796,796,796,796,796,796,796,796,796,796,796,796,796,796,796,796,796,796,796,796,796,796,796,796,796,796,796,796,796,796,796,796,796,796,796,796,796,796,796,796,796,796,796,796,796,796,796,796,796,796,796,796,796,796,796,796,796,796,796,796,796,796,796,796,796,796,796,796,796,796,796,796,796,798,803,804,806,807,807,807,810,812,816,828,841,846,870,879,889,889,889,889,889,890,893,893,894,894,894,895,896,896,897,897,897,898,899,901,902,902,902,902,903,906,912,915,917,918,919,919,919,919,919,919,919,919,919,919,919,919,919,919,919,919,919,919,919,919,919,919,919,919,919,919,919,919,919,919,919,919,919,919,919,919,919,919,919,919,919,919,919,919,919,919,919,919,919,919,919,919,919,919,923,942,955,960,963,967,996,1015,1031,1036,1036,1036,1036,1036,1036,1036,1036,1036,1036,1036,1036,1036,1036,1036,1036,1036,1036,1036,1036,1036,1036,1036,1036,1036,1040,1059],"ymouse":[521,521,521,521,521,521,521,521,521,521,521,521,521,521,521,521,521,521,521,521,521,521,521,521,521,521,521,521,521,521,521,521,521,521,521,521,521,521,521,521,521,521,521,521,521,521,521,521,521,521,521,521,521,521,521,521,521,521,521,521,521,521,521,521,521,521,521,521,521,521,521,521,521,521,521,521,521,521,521,521,521,521,521,521,521,521,521,521,521,521,521,521,521,521,521,521,521,521,521,521,521,521,521,521,521,521,521,521,521,521,521,521,521,521,521,521,521,521,521,521,521,521,521,521,521,521,521,521,521,521,521,521,521,521,521,521,521,521,521,521,521,521,521,521,521,521,521,521,521,521,521,521,521,521,521,521,521,521,521,521,521,521,521,521,521,521,521,521,521,521,521,521,521,521,521,521,521,521,521,521,521,521,521,521,521,521,521,521,521,521,521,521,521,521,521,521,521,521,521,521,521,521,521,521,521,521,521,521,521,521,521,521,521,521,521,521,521,521,521,521,521,521,521,521,521,521,521,521,521,521,521,521,521,521,521,521,521,521,521,521,521,521,521,521,517,512,506,503,501,500,500,500,491,488,481,455,422,408,348,315,270,251,234,217,202,175,158,154,145,144,142,142,140,139,138,133,131,129,126,123,121,121,121,121,120,116,113,111,110,109,106,105,104,104,104,104,104,104,104,104,104,104,104,104,104,104,104,104,104,104,104,104,104,104,104,104,104,104,104,104,104,104,104,104,104,104,104,104,104,104,104,104,104,104,104,104,104,104,104,104,104,104,104,104,99,88,82,81,79,79,75,72,69,68,68,68,68,68,68,68,68,68,68,68,68,68,68,68,68,68,68,68,68,68,68,68,68,68,67,65],"timestamp_mouse":[9,31,42,62,81,103,123,143,162,182,202,223,241,262,283,303,321,342,361,382,403,421,441,463,483,501,522,543,562,582,602,622,641,663,683,702,723,743,763,782,803,823,843,863,883,903,923,942,961,982,1002,1022,1043,1062,1081,1103,1122,1142,1163,1182,1203,1223,1243,1263,1283,1303,1322,1342,1363,1383,1403,1422,1443,1463,1481,1502,1523,1543,1562,1582,1603,1622,1643,1662,1683,1703,1722,1742,1762,1781,1802,1822,1843,1862,1882,1901,1923,1943,1963,1983,2003,2022,2041,2063,2083,2103,2122,2143,2161,2182,2203,2222,2243,2263,2282,2302,2322,2341,2362,2383,2403,2422,2441,2461,2483,2502,2523,2543,2562,2582,2602,2622,2642,2661,2683,2703,2722,2743,2762,2781,2803,2822,2842,2862,2881,2902,2923,2943,2963,2982,3002,3023,3042,3061,3082,3102,3122,3141,3163,3182,3203,3222,3243,3262,3282,3301,3323,3342,3362,3383,3403,3422,3441,3462,3482,3502,3522,3543,3562,3582,3603,3622,3642,3663,3683,3703,3722,3742,3763,3782,3802,3821,3841,3863,3882,3903,3923,3942,3963,3982,4003,4023,4043,4061,4083,4103,4122,4141,4163,4181,4203,4223,4243,4262,4282,4303,4321,4342,4363,4383,4401,4423,4443,4463,4482,4503,4521,4542,4562,4583,4602,4622,4643,4663,4681,4701,4723,4743,4763,4782,4802,4823,4842,4863,4883,4902,4921,4943,4962,4983,5003,5022,5042,5062,5082,5101,5122,5142,5162,5182,5202,5222,5241,5263,5282,5302,5323,5342,5362,5382,5402,5422,5442,5462,5483,5502,5521,5542,5563,5583,5602,5623,5643,5663,5683,5703,5723,5742,5763,5783,5802,5822,5842,5863,5883,5902,5922,5942,5962,5981,6002,6022,6041,6062,6083,6103,6123,6142,6163,6183,6202,6222,6242,6262,6283,6302,6322,6342,6362,6383,6401,6423,6443,6463,6483,6502,6521,6542,6562,6583,6602,6622,6641,6662,6681,6703,6722,6742,6763,6782,6802,6822,6842,6862,6883,6903,6922,6942,6962,6981,7003,7022,7041,7062,7083,7103,7123,7142,7163,7183,7202,7221,7242,7263,7282,7303,7322,7342,7363,7383,7402,7422,7442,7463,7483,7502,7522,7543,7562,7582],"xSR":741.5,"ySR":469.95,"xT1":424.9,"yT1":0,"xT2":1058.1,"yT2":0,"toosoon":0,"cond_shown":"Incongruent","ratio_trial":100,"L_num":13,"L_den":26,"R_num":12,"R_den":20,"correct_side":2,"subjID":"juandavidalvarezmontes3","gender":"0","school":"6","age":"11"},{"start_time":1551890988641,"click_time":1551890990928,"finger_time":1551890990268,"fix_duration":571.7807088913897,"trial":6,"RT":1627,"MT":660,"sideResp":2,"stimulus":[],"xmouse":[781,779,778,778,778,778,778,778,778,778,778,778,778,778,778,778,778,778,778,778,778,778,778,778,778,778,778,778,778,778,778,778,778,778,778,778,778,778,778,779,779,779,779,779,779,779,779,779,779,779,779,779,779,779,779,779,779,779,779,779,779,779,779,779,779,779,779,779,779,779,779,779,779,779,779,779,779,780,784,794,807,833,840,869,875,879,881,883,886,889,894,904,920,931,932,933,936,944,975,988,1001,1022,1031,1043,1044,1044,1044,1044,1044,1045,1046,1048,1050,1057,1062],"ymouse":[539,541,541,541,541,541,541,541,541,541,541,541,541,541,541,541,541,541,541,541,541,541,541,541,541,541,541,541,541,541,541,541,541,541,541,541,541,541,541,542,542,542,542,542,542,542,542,542,542,542,542,542,542,542,542,542,542,542,542,542,542,542,542,542,542,542,542,542,542,542,542,542,542,542,542,542,542,541,523,503,481,443,430,367,348,334,325,319,306,294,277,256,233,219,217,215,210,201,170,151,126,78,58,42,41,41,41,41,41,41,41,41,42,48,51],"timestamp_mouse":[7,26,50,67,88,107,127,146,166,186,208,227,247,267,288,306,328,347,366,388,408,426,446,467,488,508,528,548,567,588,607,628,647,667,687,709,728,748,768,788,807,827,848,866,887,908,927,947,968,986,1007,1027,1047,1067,1087,1107,1128,1148,1166,1188,1208,1227,1246,1267,1287,1308,1327,1347,1366,1386,1406,1428,1447,1468,1488,1507,1528,1547,1566,1587,1607,1627,1647,1667,1687,1706,1727,1748,1766,1786,1808,1827,1847,1867,1887,1906,1927,1946,1966,1987,2007,2027,2047,2066,2087,2108,2127,2147,2167,2188,2207,2227,2247,2267,2287],"xSR":741.5,"ySR":469.95,"xT1":424.9,"yT1":0,"xT2":1058.1,"yT2":0,"toosoon":0,"cond_shown":"Incongruent","ratio_trial":100,"L_num":1,"L_den":2,"R_num":8,"R_den":20,"correct_side":1,"subjID":"juandavidalvarezmontes3","gender":"0","school":"6","age":"11"},{"start_time":1551890995607,"click_time":1551890998709,"finger_time":1551890997848,"fix_duration":896.2816682690859,"trial":7,"RT":2241,"MT":861,"sideResp":1,"stimulus":[],"xmouse":[769,769,769,769,769,769,769,769,769,769,769,769,769,769,769,769,769,769,769,769,769,769,769,769,769,769,769,769,769,769,769,769,769,769,769,769,769,769,769,769,769,769,769,769,769,769,769,769,769,769,769,769,769,769,769,769,769,769,769,769,769,769,769,769,769,769,769,769,769,769,769,769,769,769,769,769,769,769,769,769,769,769,769,769,769,769,769,769,769,769,769,769,769,769,769,769,769,769,769,769,769,769,769,769,769,769,769,769,769,769,765,742,720,688,653,626,614,613,612,612,609,601,595,586,578,575,573,572,570,566,564,559,554,550,547,545,530,523,518,518,518,514,510,506,505,503,492,485,480,476,474,474,473,472,471,470],"ymouse":[557,557,557,557,557,557,557,557,557,557,557,557,557,557,557,557,557,557,557,557,557,557,557,557,557,557,557,557,557,557,557,557,557,557,557,557,557,557,557,557,557,557,557,557,557,557,557,557,557,557,557,557,557,557,557,557,557,557,557,557,557,557,557,557,557,557,557,557,557,557,557,557,557,557,557,557,557,557,557,557,557,557,557,557,557,557,557,557,557,557,557,557,557,557,557,557,557,557,557,557,557,557,557,557,557,557,557,557,557,557,555,528,506,481,457,441,430,429,424,416,399,391,385,377,365,356,347,343,339,328,316,276,257,243,236,232,212,196,186,185,185,180,175,169,167,163,150,139,132,129,128,123,119,116,108,98],"timestamp_mouse":[9,34,41,62,82,101,121,141,161,180,202,222,242,261,281,301,321,341,362,381,402,422,441,461,482,501,521,541,561,581,601,622,642,662,682,701,721,741,760,782,801,821,842,861,882,901,921,940,962,981,1001,1021,1042,1061,1081,1100,1122,1142,1162,1182,1202,1221,1242,1262,1282,1301,1321,1342,1362,1382,1400,1422,1442,1462,1480,1502,1522,1542,1560,1582,1602,1622,1641,1662,1682,1702,1722,1741,1762,1781,1801,1821,1841,1861,1880,1901,1922,1941,1960,1981,2002,2021,2042,2061,2080,2102,2122,2140,2161,2182,2201,2222,2241,2262,2280,2301,2321,2341,2362,2382,2402,2421,2441,2462,2481,2501,2521,2540,2560,2580,2601,2621,2641,2662,2682,2701,2720,2741,2761,2780,2801,2821,2841,2862,2881,2902,2921,2941,2961,2981,3001,3021,3041,3060,3082,3102],"xSR":741.5,"ySR":469.95,"xT1":424.9,"yT1":0,"xT2":1058.1,"yT2":0,"toosoon":0,"cond_shown":"Incongruent","ratio_trial":200,"L_num":6,"L_den":20,"R_num":3,"R_den":6,"correct_side":2,"subjID":"juandavidalvarezmontes3","gender":"0","school":"6","age":"11"},{"start_time":1551891006160,"click_time":1551891015669,"finger_time":1551891015348,"fix_duration":250,"trial":8,"RT":9188,"MT":321,"sideResp":2,"stimulus":[],"xmouse":[809,809,809,809,809,809,809,809,809,809,809,809,809,809,809,809,809,809,809,809,809,809,809,809,809,809,809,809,809,809,809,809,809,809,809,809,809,809,809,809,809,809,809,809,809,809,809,809,809,809,809,809,809,809,809,809,809,809,809,809,809,809,809,809,809,809,809,809,809,809,809,809,809,809,809,809,809,809,809,809,809,809,809,809,809,809,809,809,809,809,809,809,809,809,809,809,809,809,809,809,809,809,809,809,809,809,809,809,809,809,809,809,809,809,809,809,809,809,809,809,809,809,809,809,809,809,809,809,809,809,809,809,809,809,809,809,809,809,809,809,809,809,809,809,809,809,809,809,809,809,809,809,809,809,809,809,809,809,811,814,814,814,814,814,814,814,814,814,814,814,814,814,814,814,814,814,814,814,814,814,814,814,814,814,814,814,817,821,827,830,830,830,830,831,836,839,840,840,840,840,840,840,840,840,840,840,840,840,840,840,840,840,840,840,840,840,840,840,840,840,840,840,840,840,840,840,840,840,840,840,840,840,840,840,840,840,840,840,840,840,840,840,840,840,840,840,840,840,840,840,840,840,840,840,840,840,840,840,840,840,840,840,840,840,840,840,840,840,840,840,840,840,840,840,840,840,840,840,840,840,840,840,840,840,840,840,840,840,840,840,840,840,840,840,840,840,840,840,840,840,840,840,840,840,840,840,840,840,840,840,840,840,840,840,840,840,840,840,840,839,839,836,829,823,819,819,819,819,819,819,819,819,818,817,809,802,800,800,800,800,800,800,800,800,800,800,800,800,800,800,800,800,800,800,800,800,800,800,800,800,800,800,800,800,800,800,800,800,800,800,800,800,800,800,800,800,800,800,800,800,800,800,800,800,800,800,800,800,800,800,800,800,800,800,800,800,800,800,800,800,800,800,800,800,800,800,800,800,800,800,800,800,800,800,800,800,800,800,800,800,800,800,800,800,800,800,800,800,800,800,800,800,800,800,800,800,800,800,800,800,800,800,800,800,800,800,800,800,800,800,800,800,800,800,800,800,800,796,796,808,830,869,897,981,1038,1065,1065,1065,1065,1065,1065,1071,1072,1074,1076,1091],"ymouse":[518,518,518,518,518,518,518,518,518,518,518,518,518,518,518,518,518,518,518,518,518,518,518,518,518,518,518,518,518,518,518,518,518,518,518,518,518,518,518,518,518,518,518,518,518,518,518,518,518,518,518,518,518,518,518,518,518,518,518,518,518,518,518,518,518,518,518,518,518,518,518,518,518,518,518,518,518,518,518,518,518,518,518,518,518,518,518,518,518,518,518,518,518,518,518,518,518,518,518,518,518,518,518,518,518,518,518,518,518,518,518,518,518,518,518,518,518,518,518,518,518,518,518,518,518,518,518,518,518,518,518,518,518,518,518,518,518,518,518,518,518,518,518,518,518,518,518,518,518,518,518,518,518,518,518,518,518,517,513,506,506,506,506,506,506,506,506,506,506,506,506,506,506,506,506,506,506,506,506,506,506,506,506,506,505,505,500,494,487,483,483,483,483,481,476,472,470,470,470,470,470,470,470,470,470,470,470,470,470,470,470,470,470,470,470,470,470,470,470,470,470,470,470,470,470,470,470,470,470,470,470,470,470,470,470,470,470,470,470,470,470,470,470,470,470,470,470,470,470,470,470,470,470,470,470,470,470,470,470,470,470,470,470,541,541,541,541,541,541,541,541,541,541,541,541,541,541,541,541,541,541,541,541,541,541,541,541,541,541,541,541,541,541,541,541,541,541,541,541,541,541,541,541,541,541,541,541,541,541,541,541,541,541,541,541,541,541,541,540,539,539,537,534,531,529,529,529,529,529,529,529,529,529,529,525,524,524,524,524,524,524,524,524,524,524,524,524,524,524,524,524,524,524,524,524,524,524,524,524,524,524,524,524,524,524,524,524,524,524,524,524,524,524,524,524,524,524,524,524,524,524,524,524,524,524,524,524,524,524,524,524,524,524,524,524,524,524,524,524,524,524,524,524,524,524,524,524,524,524,524,524,524,524,524,524,524,524,524,524,524,524,524,524,524,524,524,524,524,524,524,524,524,524,524,524,524,524,524,524,524,524,524,524,524,524,524,524,524,524,524,524,524,524,524,524,524,524,518,490,411,240,146,96,0,0,0,0,0,0,0,0,0,0,0,0,24],"timestamp_mouse":[14,40,47,68,89,108,129,149,169,188,209,229,248,269,288,309,327,348,368,389,409,429,448,467,488,509,527,549,568,588,609,627,647,668,688,708,728,747,768,787,807,828,848,867,889,907,929,948,968,988,1008,1027,1047,1069,1089,1107,1128,1148,1167,1187,1209,1228,1249,1267,1289,1308,1329,1348,1368,1389,1409,1429,1448,1468,1487,1508,1529,1548,1569,1587,1609,1628,1649,1668,1688,1709,1729,1748,1768,1788,1808,1828,1849,1868,1889,1908,1927,1949,1968,1989,2008,2028,2049,2069,2088,2109,2128,2149,2168,2189,2209,2229,2248,2268,2290,2309,2328,2349,2369,2388,2409,2429,2448,2468,2488,2508,2529,2549,2569,2588,2608,2628,2648,2669,2688,2708,2729,2749,2768,2788,2808,2829,2848,2869,2890,2910,2929,2948,2969,2989,3010,3029,3049,3069,3088,3109,3129,3150,3169,3188,3209,3228,3249,3268,3288,3309,3329,3349,3369,3388,3408,3429,3448,3469,3488,3509,3530,3549,3568,3589,3609,3628,3648,3669,3689,3708,3729,3748,3769,3788,3809,3829,3849,3869,3888,3909,3928,3949,3969,3988,4010,4028,4049,4069,4088,4108,4128,4148,4168,4188,4208,4228,4248,4270,4289,4308,4328,4348,4368,4388,4409,4428,4448,4470,4488,4508,4528,4548,4569,4588,4609,4630,4648,4669,4688,4710,4728,4748,4769,4789,4809,4829,4848,4869,4888,4909,4928,4949,4968,4989,5009,5028,5048,5068,5089,5110,5129,5148,5169,5190,5209,5228,5248,5269,5288,5308,5329,5348,5369,5389,5408,5429,5448,5469,5489,5508,5528,5549,5568,5589,5609,5630,5649,5669,5688,5709,5729,5748,5768,5789,5808,5828,5848,5868,5888,5909,5928,5948,5968,5988,6009,6029,6048,6068,6088,6109,6129,6149,6169,6188,6209,6228,6249,6268,6290,6309,6329,6350,6369,6389,6409,6428,6449,6468,6489,6509,6529,6549,6568,6590,6609,6628,6649,6669,6689,6709,6729,6749,6768,6789,6809,6828,6849,6868,6888,6909,6928,6950,6968,6989,7010,7028,7049,7069,7088,7109,7130,7149,7168,7189,7209,7228,7249,7268,7289,7309,7329,7349,7370,7388,7409,7429,7449,7469,7489,7508,7528,7549,7569,7589,7609,7629,7649,7669,7689,7708,7729,7749,7769,7789,7809,7829,7849,7869,7889,7909,7929,7949,7969,7989,8009,8029,8048,8069,8089,8109,8129,8148,8169,8189,8209,8230,8249,8269,8290,8309,8328,8349,8368,8389,8410,8429,8448,8468,8489,8509,8529,8550,8569,8588,8610,8629,8649,8669,8688,8709,8729,8749,8769,8789,8808,8828,8850,8869,8889,8909,8930,8948,8969,8989,9008,9028,9049,9068,9088,9108,9129,9148,9169,9188,9209,9229,9249,9270,9288,9309,9328,9349,9369,9388,9410,9429,9449,9469,9488,9509],"xSR":741.5,"ySR":469.95,"xT1":424.9,"yT1":0,"xT2":1058.1,"yT2":0,"toosoon":0,"cond_shown":"Incongruent","ratio_trial":300,"L_num":4,"L_den":20,"R_num":2,"R_den":4,"correct_side":2,"subjID":"juandavidalvarezmontes3","gender":"0","school":"6","age":"11"},{"start_time":1551891017161,"click_time":1551891019809,"finger_time":1551891019568,"fix_duration":250,"trial":9,"RT":2407,"MT":241,"sideResp":1,"stimulus":[],"xmouse":[766,766,766,766,766,766,766,766,766,766,766,766,766,766,766,766,766,766,766,766,766,766,766,766,766,766,766,766,766,766,766,766,766,766,766,766,766,766,766,766,766,766,766,766,766,766,766,766,766,766,766,766,766,766,766,766,766,766,766,766,766,766,766,766,766,766,766,766,766,766,766,766,766,766,766,766,766,766,766,766,766,766,766,766,766,766,766,766,766,766,766,766,766,766,766,766,766,766,766,766,766,766,766,766,766,766,766,766,766,766,766,766,766,766,766,766,766,770,782,806,802,774,756,732,694,579,539,512,496,486,482,483,484],"ymouse":[637,637,637,637,637,637,637,637,637,637,637,637,637,637,637,637,637,637,637,637,637,637,637,637,637,637,637,637,637,637,637,637,637,637,637,637,637,637,637,637,637,637,637,637,637,637,637,637,637,637,637,637,637,637,637,637,637,637,637,637,637,637,637,637,637,637,637,637,637,637,637,637,637,637,637,637,637,637,637,637,637,637,637,637,637,637,637,637,637,637,637,637,637,637,637,637,637,637,637,637,637,637,637,637,637,637,637,637,637,637,637,637,637,637,637,637,637,635,627,592,497,442,418,389,342,236,200,168,144,127,108,102,85],"timestamp_mouse":[13,34,48,67,87,108,127,147,168,187,208,227,248,269,288,308,327,348,367,387,407,427,449,467,488,508,527,548,568,587,608,628,648,668,687,708,729,748,768,787,808,829,847,868,889,907,928,949,968,988,1007,1028,1047,1068,1087,1107,1127,1148,1167,1188,1207,1228,1247,1267,1288,1308,1327,1348,1368,1388,1409,1428,1447,1467,1488,1508,1528,1547,1567,1587,1608,1629,1647,1668,1688,1708,1727,1747,1767,1788,1808,1828,1848,1868,1887,1908,1928,1947,1967,1987,2008,2028,2047,2068,2088,2109,2128,2148,2168,2187,2208,2228,2247,2268,2289,2308,2328,2348,2368,2388,2407,2427,2447,2468,2488,2507,2527,2547,2568,2587,2608,2627,2648],"xSR":741.5,"ySR":573.95,"xT1":424.9,"yT1":0,"xT2":1058.1,"yT2":0,"toosoon":0,"cond_shown":"Incongruent","ratio_trial":300,"L_num":8,"L_den":10,"R_num":9,"R_den":18,"correct_side":1,"subjID":"juandavidalvarezmontes3","gender":"0","school":"6","age":"11"},{"start_time":1551891022330,"click_time":1551891033228,"finger_time":1551891030249,"fix_duration":958.6851047733032,"trial":10,"RT":7919,"MT":2979,"sideResp":2,"stimulus":[],"xmouse":[809,809,809,809,809,809,809,809,809,809,809,809,809,809,809,809,809,809,809,809,809,809,809,809,809,809,809,809,809,809,809,809,809,809,809,809,809,809,809,809,809,809,809,809,809,809,809,809,809,809,809,809,809,809,809,809,809,809,809,809,809,809,809,809,809,809,809,809,809,809,809,809,809,809,809,809,809,809,809,809,809,809,809,809,809,809,809,809,809,809,809,809,809,809,809,809,809,809,809,809,809,809,809,809,809,809,809,809,809,809,809,809,809,809,809,809,809,809,809,809,809,809,809,809,809,809,809,809,809,809,809,809,809,809,809,809,809,809,809,809,809,809,809,809,809,809,809,809,809,809,809,809,809,809,809,809,809,809,809,809,809,809,809,809,809,809,809,809,809,809,809,809,809,809,809,809,809,809,809,809,809,809,809,809,809,809,809,809,809,809,809,809,809,809,809,809,809,809,809,809,809,809,809,809,809,809,809,809,809,809,809,809,809,809,809,809,809,809,809,809,809,809,809,809,809,809,809,809,809,809,809,809,809,809,809,809,809,809,809,809,809,809,809,809,809,809,809,809,809,809,809,809,809,809,809,809,809,809,809,809,809,809,809,809,809,809,809,809,809,809,809,809,809,809,809,809,809,809,809,809,809,809,809,809,809,809,809,809,809,809,809,809,809,809,809,809,809,809,809,809,809,809,809,809,809,809,809,809,809,809,809,809,809,809,809,809,809,809,809,809,809,809,809,809,809,809,809,809,809,809,809,809,809,809,809,809,809,809,809,809,809,809,809,809,809,809,809,809,809,809,809,809,809,809,809,809,809,809,809,809,809,809,809,809,809,809,809,809,809,809,809,809,809,809,809,809,809,809,809,809,809,809,809,809,809,809,809,809,809,809,809,809,809,809,809,831,850,893,1015,1125,1156,1237,1271,1303,1332,1347,1354,1370,1370,1369,1368,1368,1366,1362,1357,1348,1336,1319,1286,1272,1269,1267,1267,1267,1267,1267,1267,1266,1266,1266,1266,1266,1265,1264,1264,1264,1264,1263,1263,1262,1260,1259,1258,1256,1256,1256,1256,1256,1256,1256,1256,1256,1256,1256,1256,1256,1256,1256,1256,1256,1256,1256,1256,1256,1256,1256,1256,1256,1256,1256,1256,1255,1255,1255,1255,1255,1255,1255,1255,1255,1255,1254,1253,1250,1248,1246,1245,1245,1243,1241,1237,1234,1230,1226,1224,1223,1222,1221,1219,1219,1219,1219,1219,1219,1216,1216,1216,1216,1216,1216,1216,1216,1216,1216,1216,1216,1216,1216,1216,1216,1216,1216,1216,1216,1216,1216,1216,1216,1216,1216,1216,1215,1213,1205,1196,1188,1182,1179,1179,1179,1179,1179,1179,1175,1166,1153],"ymouse":[621,621,621,621,621,621,621,621,621,621,621,621,621,621,621,621,621,621,621,621,621,621,621,621,621,621,621,621,621,621,621,621,621,621,621,621,621,621,621,621,621,621,621,621,621,621,621,621,621,621,621,621,621,621,621,621,621,621,621,621,621,621,621,621,621,621,621,621,621,621,621,621,621,621,621,621,621,621,621,621,621,621,621,621,621,621,621,621,621,621,621,621,621,621,621,621,621,621,621,621,621,621,621,621,621,621,621,621,621,621,621,621,621,621,621,621,621,621,621,621,621,621,621,621,621,621,621,621,621,621,621,621,621,621,621,621,621,621,621,621,621,621,621,621,621,621,621,621,621,621,621,621,621,621,621,621,621,621,621,621,621,621,621,621,621,621,621,621,621,621,621,621,621,621,621,621,621,621,621,621,621,621,621,621,621,621,621,621,621,621,621,621,621,621,621,621,621,621,621,621,621,621,621,621,621,621,621,621,621,621,621,621,621,621,621,621,621,621,621,621,621,621,621,621,621,621,621,621,621,621,621,621,621,621,621,621,621,621,621,621,621,621,621,621,621,621,621,621,621,621,621,621,621,621,621,621,621,621,621,621,621,621,621,621,621,621,621,621,621,621,621,621,621,621,621,621,621,621,621,621,621,621,621,621,621,621,621,621,621,621,621,621,621,621,621,621,621,621,621,621,621,621,621,621,621,621,621,621,621,621,621,621,621,621,621,621,621,621,621,621,621,621,621,621,621,621,621,621,621,621,621,621,621,621,621,621,621,621,621,621,621,621,621,621,621,621,621,621,621,621,621,621,621,621,621,621,621,621,621,621,621,621,621,621,621,621,621,621,621,621,621,621,621,621,621,621,621,621,621,621,621,621,621,621,621,621,621,621,621,621,621,621,621,621,621,607,593,576,544,502,488,427,387,299,222,187,161,81,72,61,58,56,54,49,43,38,36,36,46,56,59,61,61,61,61,61,61,61,61,61,61,61,61,61,61,61,61,61,61,61,65,70,75,82,82,82,82,82,82,82,82,82,82,82,82,82,82,82,82,82,82,82,82,82,82,82,82,82,82,82,82,83,83,83,83,83,83,83,83,83,83,83,83,84,85,86,86,86,88,90,94,96,97,100,100,101,102,102,103,103,103,103,104,104,104,104,104,104,104,104,104,104,104,104,104,104,104,104,104,104,104,104,104,104,104,104,104,104,104,104,104,104,104,104,100,97,95,94,94,94,94,94,94,92,87,82],"timestamp_mouse":[6,22,49,58,78,98,119,139,158,180,199,219,240,258,279,298,318,338,358,380,398,419,439,458,478,498,519,539,558,579,598,619,639,659,679,699,718,739,759,779,798,818,840,858,879,898,919,939,960,978,999,1018,1038,1059,1079,1099,1119,1139,1158,1179,1199,1218,1238,1259,1278,1299,1318,1338,1359,1379,1399,1418,1439,1458,1479,1498,1519,1539,1558,1578,1599,1619,1638,1658,1679,1699,1719,1739,1759,1779,1800,1819,1838,1858,1879,1899,1920,1938,1958,1979,1999,2019,2039,2058,2079,2098,2120,2139,2158,2179,2199,2219,2239,2258,2279,2299,2318,2338,2358,2380,2400,2419,2438,2458,2479,2499,2518,2538,2559,2578,2599,2618,2639,2658,2678,2700,2718,2739,2759,2778,2798,2820,2838,2859,2878,2899,2919,2939,2958,2978,2999,3019,3039,3059,3079,3098,3120,3138,3159,3178,3199,3219,3240,3259,3279,3298,3320,3338,3359,3378,3399,3418,3438,3459,3479,3498,3519,3538,3559,3579,3599,3620,3638,3658,3678,3699,3718,3739,3759,3778,3799,3818,3839,3858,3879,3898,3919,3938,3958,3978,4000,4019,4039,4059,4079,4098,4118,4138,4158,4178,4198,4219,4239,4259,4278,4299,4318,4339,4359,4379,4398,4419,4438,4458,4479,4499,4518,4540,4559,4579,4598,4618,4640,4659,4678,4699,4720,4738,4758,4779,4799,4819,4838,4859,4878,4899,4919,4939,4958,4980,5000,5018,5039,5059,5078,5100,5120,5139,5159,5179,5199,5220,5240,5259,5279,5299,5319,5338,5358,5380,5400,5419,5439,5458,5479,5499,5518,5539,5559,5579,5598,5619,5638,5659,5678,5699,5719,5739,5759,5779,5800,5818,5839,5859,5879,5898,5919,5939,5959,5979,5999,6018,6039,6058,6079,6099,6118,6139,6158,6179,6198,6218,6238,6258,6279,6299,6318,6338,6358,6379,6398,6420,6438,6458,6479,6499,6520,6539,6558,6578,6598,6619,6638,6659,6678,6699,6720,6740,6758,6779,6799,6818,6838,6859,6878,6898,6919,6940,6959,6979,6999,7018,7039,7058,7078,7100,7119,7139,7159,7178,7200,7218,7239,7258,7279,7299,7319,7339,7359,7378,7398,7419,7438,7460,7479,7499,7519,7539,7558,7579,7598,7619,7639,7658,7679,7700,7718,7739,7758,7779,7800,7818,7839,7859,7879,7899,7919,7940,7958,7978,7999,8018,8039,8059,8078,8099,8119,8147,8158,8180,8198,8218,8240,8259,8278,8298,8318,8338,8358,8378,8398,8419,8440,8458,8478,8498,8519,8538,8559,8578,8599,8618,8638,8658,8678,8699,8718,8739,8760,8778,8799,8818,8840,8859,8878,8898,8919,8938,8959,8978,9000,9019,9038,9059,9078,9098,9118,9139,9159,9179,9198,9218,9240,9258,9279,9298,9319,9339,9359,9379,9398,9418,9439,9459,9479,9499,9519,9539,9559,9578,9598,9618,9639,9660,9679,9699,9718,9738,9759,9778,9798,9819,9839,9858,9878,9899,9919,9938,9959,9979,9998,10019,10039,10058,10078,10098,10120,10139,10159,10179,10198,10218,10239,10258,10278,10299,10318,10339,10359,10378,10398,10418,10439,10459,10478,10510,10519,10539,10559,10580,10598,10619,10638,10659,10679,10699,10719,10738,10758,10778,10799,10819,10838,10859,10878,10898],"xSR":741.5,"ySR":573.95,"xT1":424.9,"yT1":0,"xT2":1058.1,"yT2":0,"toosoon":0,"cond_shown":"Incongruent","ratio_trial":300,"L_num":4,"L_den":20,"R_num":2,"R_den":4,"correct_side":2,"subjID":"juandavidalvarezmontes3","gender":"0","school":"6","age":"11"},{"start_time":1551891035210,"click_time":1551891042669,"finger_time":1551891036849,"fix_duration":679.7772422197578,"trial":11,"RT":1639,"MT":5820,"sideResp":2,"stimulus":[],"xmouse":[793,793,793,793,793,793,793,793,793,793,793,793,793,793,793,793,793,793,793,793,793,793,793,793,793,793,793,793,793,793,793,793,793,793,793,793,793,793,793,793,793,793,793,793,793,793,793,793,793,793,793,793,793,793,793,793,793,793,793,793,793,793,793,793,793,793,793,793,793,793,793,793,793,793,793,793,793,793,793,793,793,810,851,870,893,906,912,918,925,930,935,944,957,979,995,1033,1046,1053,1061,1068,1084,1097,1108,1118,1125,1127,1127,1127,1127,1127,1127,1127,1127,1126,1122,1116,1113,1113,1111,1111,1110,1110,1110,1110,1110,1110,1110,1110,1110,1110,1110,1110,1110,1108,1106,1103,1103,1103,1103,1103,1103,1103,1103,1103,1103,1103,1103,1103,1103,1103,1103,1103,1103,1103,1103,1103,1103,1103,1103,1103,1103,1103,1103,1103,1103,1103,1103,1103,1103,1103,1103,1103,1103,1103,1103,1103,1103,1103,1103,1103,1103,1103,1103,1103,1103,1103,1103,1103,1103,1103,1103,1103,1103,1103,1103,1103,1103,1103,1103,1103,1103,1103,1103,1103,1103,1103,1103,1103,1103,1103,1103,1103,1103,1103,1103,1103,1103,1103,1103,1103,1103,1103,1103,1103,1103,1103,1103,1103,1103,1103,1103,1103,1103,1103,1103,1103,1103,1103,1103,1103,1103,1103,1103,1103,1097,1000,929,852,782,744,726,725,720,705,682,626,597,574,554,540,530,530,530,530,530,530,530,530,530,530,530,530,530,530,530,530,530,530,530,530,530,530,530,530,530,530,530,530,530,530,530,530,530,530,530,530,530,530,530,530,530,530,530,530,530,530,530,530,530,530,530,530,530,530,530,530,530,530,530,531,569,621,703,746,776,820,835,843,849,855,861,871,876,879,883,895,909,932,958,980,1000,1007,1020,1027,1031,1031,1031,1031,1031,1031,1031,1031,1031,1031,1031,1033,1034,1037,1042,1046,1049,1055,1055,1055,1055,1055,1055,1055,1056,1056,1056,1056,1057,1060],"ymouse":[647,647,647,647,647,647,647,647,647,647,647,647,647,647,647,647,647,647,647,647,647,647,647,647,647,647,647,647,647,647,647,647,647,647,647,647,647,647,647,647,647,647,647,647,647,647,647,647,647,647,647,647,647,647,647,647,647,647,647,647,647,647,647,647,647,647,647,647,647,647,647,647,647,647,647,647,647,647,647,647,647,625,575,552,518,470,448,430,413,402,384,369,353,335,322,291,279,268,257,248,230,214,194,170,145,135,133,132,132,132,132,132,132,132,131,127,125,125,122,120,118,118,118,118,118,118,118,118,118,118,118,118,117,115,110,104,103,103,103,103,103,103,103,103,103,103,103,103,103,103,103,103,103,103,103,103,103,103,103,103,103,103,103,103,103,103,103,103,103,103,103,103,103,103,103,103,103,103,103,103,103,103,103,103,103,103,103,103,103,103,103,103,103,103,103,103,103,103,103,103,103,103,103,103,103,103,103,103,103,103,103,103,103,103,103,103,103,103,103,103,103,103,103,103,103,103,103,103,103,103,103,103,103,103,103,103,103,103,103,103,103,103,103,103,103,101,100,96,96,92,90,90,88,84,80,66,58,51,43,37,34,34,34,34,34,34,34,34,34,34,34,34,34,34,34,34,34,34,34,34,34,34,34,34,34,34,34,34,34,34,34,34,34,34,34,34,34,34,34,34,34,34,34,34,34,34,34,34,34,34,34,34,34,34,34,34,34,34,34,34,34,34,34,34,34,34,34,34,31,28,25,21,21,21,21,21,21,27,34,40,46,47,50,51,51,51,51,51,51,51,51,51,51,51,51,52,52,54,56,56,58,60,60,60,60,60,60,60,61,61,61,61,62,64],"timestamp_mouse":[1,20,38,58,78,99,119,139,158,179,199,219,240,259,278,299,319,339,359,379,399,418,439,458,478,498,518,539,558,579,599,618,639,659,678,699,718,739,758,778,799,818,838,858,878,899,918,939,959,978,999,1020,1039,1058,1079,1098,1119,1139,1158,1179,1199,1218,1238,1259,1278,1299,1319,1338,1359,1378,1399,1419,1439,1459,1479,1498,1519,1539,1559,1578,1598,1619,1639,1659,1678,1698,1719,1739,1758,1779,1799,1820,1838,1859,1879,1898,1918,1938,1958,1979,1998,2018,2039,2058,2078,2098,2119,2138,2159,2179,2199,2219,2238,2259,2278,2298,2318,2339,2359,2379,2398,2419,2438,2459,2479,2498,2518,2538,2558,2579,2598,2618,2639,2658,2679,2698,2719,2739,2759,2778,2798,2819,2840,2859,2879,2898,2919,2938,2958,2980,2999,3019,3038,3059,3078,3098,3119,3139,3158,3179,3198,3219,3238,3258,3278,3299,3319,3338,3359,3379,3398,3420,3438,3458,3478,3499,3518,3538,3559,3579,3599,3618,3638,3658,3680,3699,3719,3738,3758,3778,3798,3818,3839,3859,3878,3899,3919,3938,3959,3978,3999,4019,4039,4060,4079,4099,4118,4138,4158,4178,4199,4220,4239,4259,4278,4299,4318,4338,4359,4378,4398,4419,4439,4458,4479,4499,4519,4538,4559,4579,4599,4619,4638,4658,4680,4699,4719,4739,4758,4778,4799,4818,4839,4859,4879,4898,4919,4938,4959,4978,4999,5020,5039,5058,5079,5098,5118,5138,5159,5178,5199,5218,5239,5259,5279,5298,5318,5339,5359,5380,5399,5419,5439,5459,5478,5499,5518,5539,5558,5579,5599,5618,5638,5659,5679,5699,5719,5738,5759,5779,5798,5818,5839,5858,5878,5898,5920,5940,5959,5978,5998,6018,6040,6058,6078,6099,6118,6139,6158,6179,6199,6219,6239,6259,6278,6299,6320,6338,6359,6378,6399,6418,6438,6459,6479,6498,6518,6539,6560,6579,6599,6619,6638,6659,6678,6699,6718,6738,6759,6778,6799,6818,6838,6859,6878,6899,6919,6939,6959,6978,7000,7018,7039,7059,7078,7099,7118,7140,7160,7180,7198,7219,7238,7259,7278,7300,7320,7338,7359,7379,7398,7418,7439,7459],"xSR":741.5,"ySR":573.95,"xT1":424.9,"yT1":0,"xT2":1058.1,"yT2":0,"toosoon":0,"cond_shown":"Incongruent","ratio_trial":100,"L_num":10,"L_den":25,"R_num":8,"R_den":16,"correct_side":2,"subjID":"juandavidalvarezmontes3","gender":"0","school":"6","age":"11"},{"start_time":1551891044839,"click_time":1551891046889,"finger_time":1551891046328,"fix_duration":588.8104503198663,"trial":12,"RT":1489,"MT":561,"sideResp":1,"stimulus":[],"xmouse":[822,822,822,822,822,822,822,822,822,822,822,822,822,822,822,822,822,822,822,822,822,822,822,822,822,822,822,822,822,822,822,822,822,822,822,822,822,822,822,822,822,822,822,822,822,822,822,822,822,822,822,822,822,822,822,822,822,822,822,822,822,822,822,822,822,822,822,822,822,822,822,822,820,818,786,765,741,699,677,646,628,605,582,564,544,539,534,530,526,514,512,510,510,510,510,510,510,510,510,510,510,510,508],"ymouse":[652,652,652,652,652,652,652,652,652,652,652,652,652,652,652,652,652,652,652,652,652,652,652,652,652,652,652,652,652,652,652,652,652,652,652,652,652,652,652,652,652,652,652,652,652,652,652,652,652,652,652,652,652,652,652,652,652,652,652,652,652,652,652,652,652,652,652,652,652,652,652,652,645,634,573,547,517,468,437,373,342,306,275,250,218,203,186,171,156,120,113,106,103,103,103,103,103,103,103,103,103,103,99],"timestamp_mouse":[14,40,49,69,90,110,129,150,169,189,210,229,249,270,291,310,329,350,370,389,410,429,450,469,490,510,530,549,570,589,609,630,650,670,689,710,730,749,770,789,810,830,849,870,890,910,930,950,969,990,1009,1029,1049,1070,1089,1109,1130,1150,1170,1190,1210,1230,1249,1269,1290,1309,1329,1349,1369,1390,1410,1430,1450,1470,1489,1510,1530,1550,1571,1591,1610,1629,1649,1670,1690,1710,1730,1750,1770,1789,1809,1829,1849,1870,1889,1910,1930,1950,1970,1989,2010,2030,2049],"xSR":741.5,"ySR":573.95,"xT1":424.9,"yT1":0,"xT2":1058.1,"yT2":0,"toosoon":0,"cond_shown":"Congruent","ratio_trial":300,"L_num":24,"L_den":30,"R_num":2,"R_den":4,"correct_side":1,"subjID":"juandavidalvarezmontes3","gender":"0","school":"6","age":"11"},{"start_time":1551891049755,"click_time":1551891051829,"finger_time":1551891051388,"fix_duration":1125.0310804441312,"trial":13,"RT":1633,"MT":441,"sideResp":1,"stimulus":[],"xmouse":[773,773,773,773,773,773,773,773,773,773,773,773,773,773,773,773,773,773,773,773,773,773,773,773,773,773,773,773,773,773,773,773,773,773,773,773,773,773,773,773,773,773,773,773,773,773,773,773,773,773,773,773,773,773,773,773,773,773,773,773,773,773,773,773,773,773,773,773,773,773,773,773,773,773,773,773,773,773,773,772,761,741,713,654,629,614,596,582,560,552,542,538,532,528,523,522,522,521,517,514,514,514,514,514],"ymouse":[619,619,619,619,619,619,619,619,619,619,619,619,619,619,619,619,619,619,619,619,619,619,619,619,619,619,619,619,619,619,619,619,619,619,619,619,619,619,619,619,619,619,619,619,619,619,619,619,619,619,619,619,619,619,619,619,619,619,619,619,619,619,619,619,619,619,619,619,619,619,619,619,619,619,619,619,619,619,619,619,611,595,574,512,482,459,434,410,359,338,313,298,281,268,236,224,212,198,171,147,132,120,110,97],"timestamp_mouse":[14,37,54,74,94,114,133,154,173,193,214,233,254,274,294,313,334,353,374,395,414,433,455,474,494,514,534,555,574,594,614,635,654,673,694,713,734,754,773,794,813,834,854,874,894,914,933,954,974,994,1014,1033,1053,1075,1093,1113,1133,1153,1174,1193,1214,1233,1253,1273,1293,1315,1334,1354,1373,1394,1415,1433,1453,1473,1493,1514,1534,1554,1574,1594,1614,1633,1654,1674,1693,1713,1734,1754,1774,1793,1814,1833,1854,1874,1893,1913,1933,1954,1974,1993,2014,2034,2054,2074],"xSR":741.5,"ySR":573.95,"xT1":424.9,"yT1":0,"xT2":1058.1,"yT2":0,"toosoon":0,"cond_shown":"Congruent","ratio_trial":100,"L_num":3,"L_den":6,"R_num":2,"R_den":5,"correct_side":1,"subjID":"juandavidalvarezmontes3","gender":"0","school":"6","age":"11"},{"start_time":1551891054438,"click_time":1551891056409,"finger_time":1551891055948,"fix_duration":1208.1008104056618,"trial":14,"RT":1510,"MT":461,"sideResp":1,"stimulus":[],"xmouse":[773,773,773,773,773,773,773,773,773,773,773,773,773,773,773,773,773,773,773,773,773,773,773,773,773,773,773,773,773,773,773,773,773,773,773,773,773,773,773,773,773,773,773,773,773,773,773,773,773,773,773,773,773,773,773,773,773,773,773,773,773,773,773,773,773,773,773,773,773,773,773,773,773,773,773,734,687,640,602,570,513,499,491,489,486,484,482,481,478,478,476,475,473,472,471,471,470,470,470],"ymouse":[612,613,613,613,613,613,613,613,613,613,613,613,613,613,613,613,613,613,613,613,613,613,613,613,613,613,613,613,613,613,613,613,613,613,613,613,613,613,613,613,613,613,613,613,613,613,613,613,613,613,613,613,613,613,613,613,613,613,613,613,613,613,613,613,613,613,613,613,613,613,613,613,613,613,613,566,512,459,408,364,284,260,243,233,225,218,216,212,207,202,193,187,178,167,148,121,110,102,96],"timestamp_mouse":[16,44,50,71,90,112,131,151,170,192,211,230,250,271,290,311,331,350,371,391,410,432,451,470,490,510,531,550,570,591,610,631,650,671,690,712,731,750,770,790,811,830,851,871,890,910,931,951,971,990,1010,1031,1051,1071,1090,1110,1130,1150,1170,1190,1210,1230,1250,1271,1292,1311,1331,1351,1370,1391,1411,1430,1451,1471,1490,1510,1530,1550,1571,1591,1610,1631,1651,1671,1691,1711,1730,1750,1770,1790,1810,1830,1850,1870,1890,1910,1931,1951,1970],"xSR":741.5,"ySR":573.95,"xT1":424.9,"yT1":0,"xT2":1058.1,"yT2":0,"toosoon":0,"cond_shown":"Congruent","ratio_trial":200,"L_num":4,"L_den":8,"R_num":3,"R_den":10,"correct_side":1,"subjID":"juandavidalvarezmontes3","gender":"0","school":"6","age":"11"},{"start_time":1551891057984,"click_time":1551891060608,"finger_time":1551891059549,"fix_duration":273.7124789963168,"trial":15,"RT":1565,"MT":1059,"sideResp":2,"stimulus":[],"xmouse":[783,783,783,783,783,783,783,783,783,783,783,783,783,783,783,783,783,783,783,783,783,783,783,783,783,783,783,783,783,783,783,783,783,783,783,783,783,783,783,783,783,783,783,783,783,783,783,783,783,783,783,783,783,783,783,783,783,783,783,783,783,783,783,783,783,783,783,783,783,783,783,783,783,783,783,783,783,783,789,795,800,804,807,819,830,844,857,862,880,892,907,921,934,951,959,965,971,974,975,978,981,984,986,996,1001,1008,1009,1011,1018,1021,1023,1025,1033,1043,1049,1049,1049,1049,1049,1053,1054,1054,1054,1054,1054,1054,1054,1054,1054,1054,1055,1059],"ymouse":[613,613,613,613,613,613,613,613,613,613,613,613,613,613,613,613,613,613,613,613,613,613,613,613,613,613,613,613,613,613,613,613,613,613,613,613,613,613,613,613,613,613,613,613,613,613,613,613,613,613,613,613,613,613,613,613,613,613,613,613,613,613,613,613,613,613,613,613,613,613,613,613,613,613,613,613,611,603,567,547,529,515,504,481,465,450,436,426,391,369,348,329,312,282,264,242,221,216,209,201,195,190,185,170,162,152,150,146,133,127,123,118,110,104,100,100,100,100,100,96,96,95,95,95,95,95,95,95,95,95,95,91],"timestamp_mouse":[12,35,44,65,85,105,125,145,164,184,205,224,245,265,285,305,325,345,365,385,405,424,444,465,485,505,524,545,565,585,604,625,645,664,685,705,724,744,764,784,805,824,844,865,885,904,925,944,964,985,1004,1025,1045,1065,1085,1104,1124,1145,1165,1184,1206,1224,1245,1264,1285,1305,1324,1345,1364,1384,1404,1425,1444,1465,1485,1505,1525,1545,1565,1584,1605,1625,1644,1664,1684,1704,1725,1744,1764,1785,1804,1824,1845,1864,1885,1905,1925,1944,1970,1985,2004,2025,2044,2064,2085,2104,2124,2146,2164,2184,2204,2224,2244,2265,2284,2305,2324,2344,2365,2384,2405,2426,2445,2464,2485,2504,2526,2546,2564,2584,2604,2624],"xSR":741.5,"ySR":573.95,"xT1":424.9,"yT1":0,"xT2":1058.1,"yT2":0,"toosoon":0,"cond_shown":"Incongruent","ratio_trial":100,"L_num":10,"L_den":25,"R_num":9,"R_den":18,"correct_side":2,"subjID":"juandavidalvarezmontes3","gender":"0","school":"6","age":"11"},{"start_time":1551891062381,"click_time":1551891064188,"finger_time":1551891063789,"fix_duration":250.80259866228172,"trial":16,"RT":1408,"MT":399,"sideResp":2,"stimulus":[],"xmouse":[756,756,756,756,756,756,756,756,756,756,756,756,756,756,756,756,756,756,756,756,756,756,756,756,756,756,756,756,756,756,756,756,756,756,756,756,756,756,756,756,756,756,756,756,756,756,756,756,756,756,756,756,756,756,756,756,756,756,756,756,756,756,756,756,756,756,756,756,762,768,798,812,827,842,867,875,880,884,886,894,898,907,914,920,934,938,941,948,960,1011,1071],"ymouse":[632,632,632,632,632,632,632,632,632,632,632,632,632,632,632,632,632,632,632,632,632,632,632,632,632,632,632,632,632,632,632,632,632,632,632,632,632,632,632,632,632,632,632,632,632,632,632,632,632,632,632,632,632,632,632,632,632,632,632,632,632,632,632,632,632,632,632,632,622,608,541,508,480,455,419,410,403,396,391,378,371,356,343,327,291,277,267,250,229,155,82],"timestamp_mouse":[10,44,47,67,88,108,127,147,167,188,208,228,248,267,288,307,328,348,368,388,407,427,448,467,488,508,528,548,569,588,608,628,648,668,688,707,728,748,768,787,807,828,847,867,888,909,928,947,968,988,1007,1027,1047,1068,1089,1108,1128,1148,1168,1187,1207,1228,1247,1268,1289,1308,1327,1348,1367,1387,1408,1428,1448,1468,1488,1507,1528,1548,1567,1588,1607,1628,1647,1667,1687,1707,1728,1748,1767,1788,1807],"xSR":741.5,"ySR":573.95,"xT1":424.9,"yT1":0,"xT2":1058.1,"yT2":0,"toosoon":0,"cond_shown":"Congruent","ratio_trial":300,"L_num":1,"L_den":5,"R_num":11,"R_den":22,"correct_side":2,"subjID":"juandavidalvarezmontes3","gender":"0","school":"6","age":"11"},{"start_time":1551891066422,"click_time":1551891068348,"finger_time":1551891067888,"fix_duration":1052.0796272606162,"trial":17,"RT":1466,"MT":460,"sideResp":1,"stimulus":[],"xmouse":[803,803,803,803,803,803,803,803,803,803,803,803,803,803,803,803,803,803,803,803,803,803,803,803,803,803,803,803,803,803,803,803,803,803,803,803,803,803,803,803,803,803,803,803,803,803,803,803,803,803,803,803,803,803,803,803,803,803,803,803,803,803,803,803,803,803,803,803,803,803,793,783,753,684,647,620,599,574,550,540,531,525,522,519,519,516,513,506,504,504,503,501,498,495,493,490,488],"ymouse":[621,621,621,621,621,621,621,621,621,621,621,621,621,621,621,621,621,621,621,621,621,621,621,621,621,621,621,621,621,621,621,621,621,621,621,621,621,621,621,621,621,621,621,621,621,621,621,621,621,621,621,621,621,621,621,621,621,621,621,621,621,621,621,621,621,621,621,621,621,621,617,610,593,559,539,524,508,483,447,427,409,393,378,344,325,308,288,251,207,191,177,165,156,139,128,106,98],"timestamp_mouse":[20,28,47,67,86,106,126,147,166,186,206,227,246,268,286,306,327,347,367,387,407,427,446,466,487,506,526,547,566,586,606,627,647,666,687,708,727,747,768,787,806,827,846,866,887,907,927,947,967,986,1007,1027,1047,1066,1087,1107,1127,1147,1166,1186,1206,1226,1247,1267,1286,1306,1327,1346,1367,1387,1407,1428,1446,1466,1486,1507,1527,1546,1566,1586,1606,1627,1646,1666,1687,1706,1726,1747,1767,1786,1807,1826,1847,1866,1886,1907,1926],"xSR":741.5,"ySR":573.95,"xT1":424.9,"yT1":0,"xT2":1058.1,"yT2":0,"toosoon":0,"cond_shown":"Congruent","ratio_trial":200,"L_num":4,"L_den":8,"R_num":3,"R_den":10,"correct_side":1,"subjID":"juandavidalvarezmontes3","gender":"0","school":"6","age":"11"},{"start_time":1551891070089,"click_time":1551891072070,"finger_time":1551891071628,"fix_duration":718.5090583912593,"trial":18,"RT":1539,"MT":442,"sideResp":1,"stimulus":[],"xmouse":[801,801,801,801,801,801,801,801,801,801,801,801,801,801,801,801,801,801,801,801,801,801,801,801,801,801,801,801,801,801,801,801,801,801,801,801,801,801,801,801,801,801,801,801,801,801,801,801,801,801,801,801,801,801,801,801,801,801,801,801,801,801,801,801,801,801,801,801,801,801,801,801,801,796,791,778,759,730,697,670,647,642,625,610,600,593,575,568,561,559,558,555,550,540,534,527,527,527,525,521],"ymouse":[638,638,638,638,638,638,638,638,638,638,638,638,638,638,638,638,638,638,638,638,638,638,638,638,638,638,638,638,638,638,638,638,638,638,638,638,638,638,638,638,638,638,638,638,638,638,638,638,638,638,638,638,638,638,638,638,638,638,638,638,638,638,638,638,638,638,638,638,638,638,638,638,636,635,633,623,604,580,548,509,437,406,340,305,272,245,187,163,138,121,95,82,74,63,58,56,56,56,56,56],"timestamp_mouse":[1,19,39,59,79,99,119,140,159,180,199,219,240,260,279,299,319,340,360,380,400,419,440,460,481,501,519,540,559,579,599,619,639,659,680,700,719,739,760,780,800,821,840,860,880,899,919,940,960,980,999,1019,1040,1059,1080,1100,1120,1140,1159,1180,1200,1219,1240,1260,1279,1301,1319,1340,1360,1379,1400,1419,1440,1459,1481,1499,1520,1539,1560,1580,1599,1621,1640,1659,1680,1699,1720,1740,1761,1779,1799,1819,1840,1859,1879,1899,1919,1940,1959,1980],"xSR":741.5,"ySR":573.95,"xT1":424.9,"yT1":0,"xT2":1058.1,"yT2":0,"toosoon":0,"cond_shown":"Incongruent","ratio_trial":200,"L_num":4,"L_den":30,"R_num":1,"R_den":3,"correct_side":2,"subjID":"juandavidalvarezmontes3","gender":"0","school":"6","age":"11"},{"start_time":1551891075870,"click_time":1551891078829,"finger_time":1551891077769,"fix_duration":1458.8452301243615,"trial":19,"RT":1899,"MT":1060,"sideResp":2,"stimulus":[],"xmouse":[777,777,777,777,777,777,777,777,777,777,777,777,777,777,777,777,777,777,777,777,777,777,777,777,777,777,777,777,777,777,777,777,777,777,777,777,777,777,777,777,777,777,777,777,777,777,777,777,777,777,777,777,777,777,777,777,777,777,777,777,777,777,777,777,777,777,777,777,777,777,777,777,777,777,777,777,777,777,777,777,777,777,777,777,777,777,777,777,777,777,777,780,786,794,818,876,1011,1058,1080,1087,1092,1099,1099,1100,1100,1102,1105,1105,1105,1105,1105,1104,1103,1102,1101,1100,1098,1098,1098,1097,1096,1096,1096,1095,1095,1095,1095,1095,1095,1094,1091,1088,1087,1086,1085,1085,1085,1085,1085,1085,1085,1088,1089,1090,1090,1091,1091,1091],"ymouse":[640,640,640,640,640,640,640,640,640,640,640,640,640,640,640,640,640,640,640,640,640,640,640,640,640,640,640,640,640,640,640,640,640,640,640,640,640,640,640,640,640,640,640,640,640,640,640,640,640,640,640,640,640,640,640,640,640,640,640,640,640,640,640,640,640,640,640,640,640,640,640,640,640,640,640,640,640,640,640,640,640,640,640,640,640,640,640,640,640,640,640,634,619,601,563,495,352,304,274,256,238,213,210,205,197,188,174,171,170,163,161,156,154,152,148,145,140,139,135,133,131,129,127,125,123,122,122,121,120,120,118,117,117,116,116,116,116,116,116,116,115,108,105,103,101,100,100,99],"timestamp_mouse":[19,38,58,79,99,118,139,158,179,199,218,238,259,279,299,318,338,358,378,399,419,438,458,478,498,519,539,558,579,598,618,638,658,680,698,719,738,758,778,798,819,838,858,880,899,919,939,959,979,998,1019,1038,1058,1079,1100,1119,1138,1159,1179,1199,1219,1238,1259,1279,1299,1319,1339,1358,1380,1398,1419,1438,1458,1478,1498,1518,1539,1560,1580,1599,1618,1638,1659,1679,1699,1718,1738,1759,1779,1798,1819,1838,1858,1879,1899,1919,1938,1959,1979,1998,2018,2038,2059,2079,2099,2119,2138,2159,2178,2198,2218,2238,2258,2279,2298,2319,2338,2359,2378,2398,2418,2438,2458,2478,2499,2519,2538,2559,2578,2598,2618,2638,2659,2679,2700,2719,2738,2758,2779,2798,2818,2839,2859,2880,2899,2918,2938,2959],"xSR":741.5,"ySR":573.95,"xT1":424.9,"yT1":0,"xT2":1058.1,"yT2":0,"toosoon":0,"cond_shown":"Incongruent","ratio_trial":100,"L_num":3,"L_den":6,"R_num":4,"R_den":10,"correct_side":1,"subjID":"juandavidalvarezmontes3","gender":"0","school":"6","age":"11"},{"start_time":1551891081948,"click_time":1551891085128,"finger_time":1551891084668,"fix_duration":417.89532661750394,"trial":20,"RT":2720,"MT":460,"sideResp":2,"stimulus":[],"xmouse":[808,808,808,808,808,808,808,808,808,808,808,808,808,808,808,808,808,808,808,808,808,808,808,808,808,808,808,808,808,808,808,808,808,808,808,808,808,808,808,808,808,808,808,808,808,808,808,808,808,808,808,808,808,808,808,808,808,808,808,808,808,808,808,808,808,808,808,808,808,808,808,808,808,808,808,808,808,808,808,808,808,808,808,808,808,808,808,808,808,808,808,808,808,808,808,808,808,808,808,808,808,808,808,808,808,808,808,808,808,808,808,808,808,808,808,808,808,808,808,808,808,808,808,808,808,808,808,808,808,808,808,809,814,824,833,844,853,879,900,933,965,983,1000,1010,1021,1033,1044,1054,1066,1068,1069,1069,1069,1071,1071,1070,1067,1065,1067],"ymouse":[626,626,626,626,626,626,626,626,626,626,626,626,626,626,626,626,626,626,626,626,626,626,626,626,626,626,626,626,626,626,626,626,626,626,626,626,626,626,626,626,626,626,626,626,626,626,626,626,626,626,626,626,626,626,626,626,626,626,626,626,626,626,626,626,626,626,626,626,626,626,626,626,626,626,626,626,626,626,626,626,626,626,626,626,626,626,626,626,626,626,626,626,626,626,626,626,626,626,626,626,626,626,626,626,626,626,626,626,626,626,626,626,626,626,626,626,626,626,626,626,626,626,626,626,626,626,626,626,626,626,626,626,621,606,596,582,571,537,511,473,433,403,358,324,303,282,268,253,226,218,212,209,188,172,157,143,129,106,97],"timestamp_mouse":[23,45,60,80,101,120,140,161,180,200,220,241,260,281,300,321,340,361,380,400,420,440,460,481,500,520,541,561,580,601,621,641,660,680,701,721,740,761,782,801,821,840,860,882,901,920,941,960,980,1000,1020,1040,1061,1081,1100,1121,1140,1161,1181,1200,1220,1241,1260,1281,1301,1320,1341,1361,1380,1401,1421,1440,1460,1480,1500,1520,1540,1560,1580,1601,1620,1641,1660,1680,1701,1721,1741,1760,1782,1801,1821,1841,1862,1882,1901,1921,1940,1961,1980,2000,2021,2040,2061,2081,2100,2121,2140,2160,2181,2200,2221,2241,2260,2280,2301,2320,2341,2361,2380,2400,2421,2440,2461,2480,2500,2521,2540,2560,2580,2601,2620,2641,2660,2682,2700,2720,2740,2761,2780,2800,2821,2841,2861,2880,2901,2920,2941,2960,2980,3001,3020,3040,3061,3080,3100,3121,3141,3161,3180],"xSR":741.5,"ySR":573.95,"xT1":424.9,"yT1":0,"xT2":1058.1,"yT2":0,"toosoon":0,"cond_shown":"Congruent","ratio_trial":100,"L_num":7,"L_den":14,"R_num":9,"R_den":15,"correct_side":2,"subjID":"juandavidalvarezmontes3","gender":"0","school":"6","age":"11"},{"start_time":1551891086653,"click_time":1551891088908,"finger_time":1551891088589,"fix_duration":384.085841149003,"trial":21,"RT":1936,"MT":319,"sideResp":2,"stimulus":[],"xmouse":[781,781,781,781,781,781,781,781,781,781,781,781,781,781,781,781,781,781,781,781,781,781,781,781,781,781,781,781,781,781,781,781,781,781,781,781,781,781,781,781,781,781,781,781,781,781,781,781,781,781,781,781,781,781,781,781,781,781,781,781,781,781,781,781,781,781,781,781,781,781,781,781,781,781,781,781,781,781,781,781,781,781,781,781,781,781,781,781,777,777,777,777,777,777,777,784,787,803,832,844,859,871,885,916,929,941,971,991,1018,1027,1038,1054,1078],"ymouse":[610,610,610,610,610,610,610,610,610,610,610,610,610,610,610,610,610,610,610,610,610,610,610,610,610,610,610,610,610,610,610,610,610,610,610,610,610,610,610,610,610,610,610,610,610,610,610,610,610,610,610,610,610,610,610,610,610,610,610,610,610,610,610,610,610,610,610,610,610,610,610,610,610,610,610,610,610,610,610,610,610,610,610,610,610,610,611,609,600,600,600,600,600,596,591,576,568,538,480,444,399,373,348,297,278,257,205,172,129,116,103,96,92],"timestamp_mouse":[16,38,56,76,95,116,135,155,175,195,215,236,256,275,295,315,336,355,375,395,416,435,455,475,495,517,536,556,576,595,616,635,656,676,695,715,735,756,775,796,815,836,855,875,897,915,935,955,976,995,1016,1036,1055,1077,1096,1116,1136,1155,1176,1195,1216,1237,1255,1276,1296,1315,1335,1355,1376,1396,1415,1435,1456,1476,1495,1515,1535,1555,1575,1596,1616,1636,1655,1676,1695,1715,1735,1756,1775,1796,1815,1835,1856,1875,1895,1915,1936,1955,1976,1995,2016,2036,2055,2076,2095,2116,2135,2156,2175,2195,2215,2236,2255],"xSR":741.5,"ySR":573.95,"xT1":424.9,"yT1":0,"xT2":1058.1,"yT2":0,"toosoon":0,"cond_shown":"Incongruent","ratio_trial":200,"L_num":14,"L_den":30,"R_num":6,"R_den":9,"correct_side":2,"subjID":"juandavidalvarezmontes3","gender":"0","school":"6","age":"11"},{"start_time":1551891090552,"click_time":1551891092389,"finger_time":1551891091949,"fix_duration":481.9059368750085,"trial":22,"RT":1397,"MT":440,"sideResp":2,"stimulus":[],"xmouse":[773,773,773,773,773,773,773,773,773,773,773,773,773,773,773,773,773,773,773,773,773,773,773,773,773,773,773,773,773,773,773,773,773,773,773,773,773,773,773,773,773,773,773,773,773,773,773,773,773,773,773,773,773,773,773,773,773,773,773,773,773,773,773,773,773,773,773,773,776,818,833,885,916,971,995,1010,1018,1021,1021,1021,1021,1023,1023,1025,1028,1033,1040,1049,1065,1072,1077,1086],"ymouse":[625,625,625,625,625,625,625,625,625,625,625,625,625,625,625,625,625,625,625,625,625,625,625,625,625,625,625,625,625,625,625,625,625,625,625,625,625,625,625,625,625,625,625,625,625,625,625,625,625,625,625,625,625,625,625,625,625,625,625,625,625,625,625,625,625,625,625,625,620,562,544,486,444,360,327,307,293,287,279,273,266,259,254,241,228,214,198,181,143,128,111,85],"timestamp_mouse":[16,41,57,76,96,116,136,157,176,196,217,237,256,277,297,317,338,357,376,396,418,437,456,476,497,516,537,556,577,597,616,637,657,677,698,716,736,757,778,797,817,838,857,876,898,917,936,956,977,997,1017,1036,1056,1076,1096,1116,1136,1157,1176,1197,1216,1237,1257,1277,1297,1317,1337,1357,1376,1397,1417,1437,1457,1476,1496,1516,1537,1557,1576,1596,1617,1637,1657,1676,1696,1717,1736,1757,1776,1796,1817,1837],"xSR":741.5,"ySR":573.95,"xT1":424.9,"yT1":0,"xT2":1058.1,"yT2":0,"toosoon":0,"cond_shown":"Incongruent","ratio_trial":100,"L_num":9,"L_den":18,"R_num":6,"R_den":10,"correct_side":2,"subjID":"juandavidalvarezmontes3","gender":"0","school":"6","age":"11"},{"start_time":1551891093775,"click_time":1551891096769,"finger_time":1551891095568,"fix_duration":305.112926029234,"trial":23,"RT":1793,"MT":1201,"sideResp":2,"stimulus":[],"xmouse":[817,817,817,817,817,817,817,817,817,817,817,817,817,817,817,817,817,817,817,817,817,817,817,817,817,817,817,817,817,817,817,817,817,817,817,817,817,817,817,817,817,817,817,817,817,817,817,817,817,817,817,817,817,817,817,817,817,817,817,817,817,817,817,817,817,817,817,817,817,817,817,817,817,817,817,817,817,817,817,817,817,817,817,817,817,817,817,821,824,827,831,838,841,851,861,873,890,909,942,944,945,946,954,959,967,975,982,993,997,998,998,998,998,998,998,998,998,998,998,998,998,998,998,998,998,998,998,998,998,999,1002,1005,1010,1013,1013,1014,1014,1014,1021,1024,1026,1030,1040,1045,1051,1054,1056,1057,1058,1059],"ymouse":[649,649,649,649,649,649,649,649,649,649,649,649,649,649,649,649,649,649,649,649,649,649,649,649,649,649,649,649,649,649,649,649,649,649,649,649,649,649,649,649,649,649,649,649,649,649,649,649,649,649,649,649,649,649,649,649,649,649,649,649,649,649,649,649,649,649,649,649,649,649,649,649,649,649,649,649,649,649,649,649,649,649,649,649,642,634,626,594,576,565,551,535,525,494,469,440,406,370,279,258,245,237,218,209,199,191,185,163,156,154,154,154,154,154,154,154,154,154,154,154,154,154,154,154,154,154,154,154,154,153,149,145,141,139,138,137,137,137,129,125,123,116,101,93,85,79,75,72,68,68],"timestamp_mouse":[14,35,53,73,94,113,133,154,173,193,214,233,254,273,293,315,334,354,373,394,415,433,454,473,493,514,533,554,573,595,613,634,654,673,693,713,734,754,774,794,813,834,853,874,894,914,933,953,973,994,1013,1034,1053,1074,1094,1114,1133,1153,1173,1193,1213,1233,1253,1274,1294,1313,1333,1354,1374,1393,1414,1434,1453,1473,1494,1513,1534,1554,1573,1593,1613,1634,1653,1673,1693,1713,1733,1754,1773,1793,1814,1834,1853,1873,1894,1913,1933,1954,1973,1993,2013,2033,2054,2073,2093,2114,2134,2154,2173,2193,2213,2234,2254,2273,2293,2313,2333,2353,2373,2394,2413,2434,2453,2473,2495,2513,2534,2553,2574,2593,2614,2635,2653,2674,2694,2714,2733,2753,2774,2794,2813,2833,2854,2873,2893,2914,2934,2953,2974,2993],"xSR":741.5,"ySR":573.95,"xT1":424.9,"yT1":0,"xT2":1058.1,"yT2":0,"toosoon":0,"cond_shown":"Incongruent","ratio_trial":200,"L_num":3,"L_den":10,"R_num":1,"R_den":2,"correct_side":2,"subjID":"juandavidalvarezmontes3","gender":"0","school":"6","age":"11"},{"start_time":1551891098403,"click_time":1551891100129,"finger_time":1551891099748,"fix_duration":334.0700933617446,"trial":24,"RT":1345,"MT":381,"sideResp":1,"stimulus":[],"xmouse":[809,809,809,809,809,809,809,809,809,809,809,809,809,809,809,809,809,809,809,809,809,809,809,809,809,809,809,809,809,809,809,809,809,809,809,809,809,809,809,809,809,809,809,809,809,809,809,809,809,809,809,809,809,809,809,809,809,809,809,808,804,803,795,793,788,775,761,724,702,679,661,637,587,560,520,511,489,476,471,467,464,463,461,461,461,461,464],"ymouse":[618,618,618,618,618,618,618,618,618,618,618,618,618,618,618,618,618,618,618,618,618,618,618,618,618,618,618,618,618,618,618,618,618,618,618,618,618,618,618,618,618,618,618,618,618,618,618,618,618,618,618,618,618,618,618,618,618,618,618,618,616,616,611,608,604,594,584,559,544,526,506,473,401,363,305,293,256,216,199,182,165,150,129,121,114,106,91],"timestamp_mouse":[20,38,46,67,86,105,126,145,165,185,206,225,246,265,286,306,326,345,366,386,405,426,447,466,486,505,525,545,566,585,606,625,646,666,685,705,725,746,766,786,806,826,845,866,885,905,926,946,967,986,1005,1025,1046,1066,1085,1106,1125,1145,1167,1185,1205,1226,1245,1266,1285,1306,1325,1345,1366,1385,1405,1425,1445,1466,1486,1505,1526,1545,1565,1586,1606,1625,1645,1666,1686,1706,1726],"xSR":741.5,"ySR":573.95,"xT1":424.9,"yT1":0,"xT2":1058.1,"yT2":0,"toosoon":0,"cond_shown":"Congruent","ratio_trial":300,"L_num":4,"L_den":10,"R_num":1,"R_den":10,"correct_side":1,"subjID":"juandavidalvarezmontes3","gender":"0","school":"6","age":"11"},{"start_time":1551891102435,"click_time":1551891105149,"finger_time":1551891104189,"fix_duration":964.4100062030651,"trial":25,"RT":1754,"MT":960,"sideResp":2,"stimulus":[],"xmouse":[808,808,808,808,808,808,808,808,808,808,808,808,808,808,808,808,808,808,808,808,808,808,808,808,808,808,808,808,808,808,808,808,808,808,808,808,808,808,808,808,808,808,808,808,808,808,808,808,808,808,808,808,808,808,808,808,808,808,808,808,808,808,808,808,808,808,808,808,808,808,808,808,808,808,808,808,808,808,808,808,808,808,808,808,808,793,779,761,745,727,702,689,677,674,671,667,650,640,629,623,619,619,619,619,619,625,648,685,730,769,835,867,886,901,910,919,948,968,991,1012,1025,1042,1050,1053,1055,1055,1055,1055,1055,1055,1055,1055,1055,1057,1058,1068],"ymouse":[621,621,621,621,621,621,621,621,621,621,621,621,621,621,621,621,621,621,621,621,621,621,621,621,621,621,621,621,621,621,621,621,621,621,621,621,621,621,621,621,621,621,621,621,621,621,621,621,621,621,621,621,621,621,621,621,621,621,621,621,621,621,621,621,621,621,621,621,621,621,621,621,621,621,621,621,621,621,621,621,621,621,621,621,621,603,586,567,548,526,498,484,468,462,453,441,407,394,381,372,366,365,365,365,364,355,343,328,311,297,263,229,208,194,185,178,154,141,125,113,105,91,85,83,83,82,82,82,82,82,82,82,82,81,81,79],"timestamp_mouse":[14,43,53,75,94,114,135,154,173,194,215,233,254,275,293,314,334,353,374,393,414,433,454,473,494,513,533,554,573,593,613,633,654,673,694,713,733,753,774,793,814,834,854,873,894,914,934,954,974,993,1013,1033,1053,1074,1094,1114,1133,1153,1174,1194,1214,1235,1254,1274,1294,1314,1334,1353,1374,1394,1414,1433,1454,1474,1493,1514,1534,1554,1575,1594,1614,1634,1654,1674,1693,1713,1733,1754,1774,1794,1814,1835,1854,1874,1894,1913,1933,1953,1974,1993,2014,2033,2053,2074,2093,2114,2133,2154,2174,2194,2213,2234,2253,2274,2294,2313,2333,2353,2373,2394,2414,2433,2453,2474,2493,2514,2533,2553,2573,2593,2615,2634,2653,2673,2694,2714],"xSR":741.5,"ySR":573.95,"xT1":424.9,"yT1":0,"xT2":1058.1,"yT2":0,"toosoon":0,"cond_shown":"Congruent","ratio_trial":200,"L_num":16,"L_den":20,"R_num":12,"R_den":20,"correct_side":1,"subjID":"juandavidalvarezmontes3","gender":"0","school":"6","age":"11"},{"start_time":1551891107051,"click_time":1551891109069,"finger_time":1551891108848,"fix_duration":881.9612937984093,"trial":26,"RT":1797,"MT":221,"sideResp":2,"stimulus":[],"xmouse":[800,800,800,800,800,800,800,800,800,800,800,800,800,800,800,800,800,800,800,800,800,800,800,800,800,800,800,800,800,800,800,800,800,800,800,800,800,800,800,800,800,800,800,800,800,800,800,800,800,800,800,800,800,800,800,800,800,800,800,800,800,800,800,800,800,800,800,800,800,800,800,800,798,798,797,795,795,794,794,794,794,794,794,794,794,794,794,794,803,822,838,846,861,880,908,985,1008,1024,1035,1056,1075],"ymouse":[618,618,614,611,608,600,598,597,597,597,597,597,597,597,597,597,597,597,597,597,597,597,597,597,597,597,597,597,597,597,597,597,597,597,597,597,597,597,597,597,597,597,597,597,597,597,597,597,597,597,597,597,597,597,597,597,597,597,597,597,597,597,597,597,597,597,597,597,597,597,597,597,606,609,612,625,628,630,630,630,630,630,630,630,630,630,630,630,617,567,473,438,401,360,314,200,163,130,106,78,62],"timestamp_mouse":[19,39,59,77,97,117,137,158,178,197,217,237,258,278,298,318,338,357,378,397,417,438,459,478,498,518,537,557,578,598,618,637,658,678,697,718,737,757,777,798,818,838,858,877,897,917,938,957,979,999,1018,1037,1058,1079,1097,1118,1137,1158,1177,1198,1217,1238,1258,1277,1298,1317,1337,1358,1379,1398,1419,1437,1458,1478,1497,1517,1537,1557,1578,1597,1618,1638,1657,1677,1698,1719,1738,1757,1778,1797,1817,1838,1858,1878,1897,1917,1937,1958,1978,1997,2018],"xSR":741.5,"ySR":573.95,"xT1":424.9,"yT1":0,"xT2":1058.1,"yT2":0,"toosoon":0,"cond_shown":"Congruent","ratio_trial":200,"L_num":1,"L_den":2,"R_num":21,"R_den":30,"correct_side":2,"subjID":"juandavidalvarezmontes3","gender":"0","school":"6","age":"11"},{"start_time":1551891110951,"click_time":1551891114608,"finger_time":1551891112488,"fix_duration":781.4889042412681,"trial":27,"RT":1537,"MT":2120,"sideResp":1,"stimulus":[],"xmouse":[803,803,803,803,803,803,803,803,803,803,803,803,803,803,803,803,803,803,803,803,803,803,803,803,803,803,803,803,803,803,803,803,803,803,803,803,803,803,803,803,803,803,803,803,803,803,803,803,803,803,803,803,803,803,803,803,803,803,803,803,803,803,803,803,803,803,803,803,803,803,803,803,803,802,793,744,717,690,663,641,606,595,586,574,567,557,555,555,555,555,554,553,553,553,553,552,552,552,552,552,551,550,550,549,549,549,548,548,547,546,544,543,541,541,541,541,541,541,541,541,540,539,539,539,539,539,539,538,536,534,533,530,528,528,527,526,525,525,525,525,525,525,525,525,525,525,525,525,525,525,525,525,525,525,525,525,523,520,520,520,520,520,518,517,516,513,513,512,511,511,510,510,510,510,510,510,510,510,510,510,508,508,508],"ymouse":[616,616,616,616,616,616,616,616,616,616,616,616,616,616,616,616,616,616,616,616,616,616,616,616,616,616,616,616,616,616,616,616,616,616,616,616,616,616,616,616,616,616,616,616,616,616,616,616,616,616,616,616,616,616,616,616,616,616,616,616,616,616,616,616,616,616,616,616,616,616,616,616,616,617,616,582,557,533,511,490,445,426,404,373,358,334,325,322,318,315,307,303,300,298,297,296,296,294,293,292,287,282,281,277,276,274,271,267,262,259,250,245,240,239,238,237,235,235,234,233,229,226,222,221,221,220,220,217,210,203,201,189,185,182,180,177,174,174,174,174,174,174,174,174,174,174,174,174,174,174,174,174,174,174,174,172,164,158,154,151,147,143,138,133,129,124,123,120,118,116,115,115,115,115,115,115,115,115,115,113,109,104,98],"timestamp_mouse":[18,38,57,78,97,118,138,158,178,199,217,237,257,278,298,318,338,358,378,398,417,438,458,477,498,518,538,558,578,598,617,637,658,678,698,718,738,757,777,798,817,837,857,879,898,918,937,957,978,997,1018,1038,1059,1077,1098,1117,1137,1158,1178,1198,1217,1237,1258,1277,1298,1317,1338,1357,1377,1398,1418,1438,1458,1477,1498,1517,1537,1557,1577,1597,1617,1638,1658,1678,1698,1717,1737,1758,1777,1798,1817,1837,1858,1878,1897,1918,1938,1958,1977,1997,2017,2037,2057,2078,2097,2118,2138,2158,2178,2197,2217,2237,2258,2277,2299,2318,2337,2357,2377,2398,2417,2439,2459,2478,2497,2518,2537,2558,2578,2597,2617,2637,2657,2678,2697,2717,2737,2758,2778,2798,2817,2838,2858,2877,2898,2918,2938,2958,2978,2997,3019,3037,3058,3078,3097,3117,3137,3157,3177,3197,3217,3237,3257,3277,3297,3317,3337,3358,3377,3398,3418,3437,3458,3478,3497,3518,3539,3558,3577,3599,3617,3637,3657],"xSR":741.5,"ySR":573.95,"xT1":424.9,"yT1":0,"xT2":1058.1,"yT2":0,"toosoon":0,"cond_shown":"Incongruent","ratio_trial":300,"L_num":4,"L_den":20,"R_num":2,"R_den":4,"correct_side":2,"subjID":"juandavidalvarezmontes3","gender":"0","school":"6","age":"11"},{"start_time":1551891118342,"click_time":1551891120408,"finger_time":1551891119908,"fix_duration":250,"trial":28,"RT":1566,"MT":500,"sideResp":2,"stimulus":[],"xmouse":[787,787,787,787,787,787,787,787,787,787,787,787,787,787,787,787,787,787,787,787,787,787,787,787,787,787,787,787,787,787,787,787,787,787,787,787,787,787,787,787,787,787,787,787,787,787,787,787,787,787,787,787,787,787,787,787,787,787,787,787,787,787,787,787,787,787,787,787,787,787,787,787,788,793,802,811,820,834,839,845,847,855,868,875,880,888,895,910,918,927,945,965,1008,1029,1046,1061,1077,1088,1114,1120,1123,1127,1130,1134],"ymouse":[657,657,657,657,657,657,657,657,657,657,657,657,657,657,657,657,657,657,657,657,657,657,657,657,657,657,657,657,657,657,654,651,646,642,639,637,636,636,636,636,636,636,636,636,636,636,636,636,636,636,636,636,636,636,636,636,636,636,636,636,636,636,636,636,636,636,636,636,636,636,636,636,635,634,627,618,607,581,569,553,546,520,481,463,443,419,394,355,340,326,306,292,267,255,245,236,223,214,197,193,189,177,157,99],"timestamp_mouse":[13,26,46,66,87,107,127,147,166,187,206,227,247,266,287,307,327,347,366,386,407,428,448,467,487,507,526,546,568,587,606,626,647,666,687,707,726,746,766,788,807,827,846,866,887,907,927,947,966,987,1006,1026,1046,1066,1087,1107,1127,1147,1166,1188,1206,1227,1247,1267,1287,1306,1327,1347,1366,1386,1406,1427,1446,1466,1487,1506,1526,1546,1566,1587,1607,1626,1647,1666,1686,1707,1727,1746,1766,1786,1806,1826,1847,1867,1887,1906,1926,1946,1966,1986,2006,2026,2046,2066],"xSR":741.5,"ySR":573.95,"xT1":424.9,"yT1":0,"xT2":1058.1,"yT2":0,"toosoon":0,"cond_shown":"Incongruent","ratio_trial":200,"L_num":4,"L_den":5,"R_num":6,"R_den":10,"correct_side":1,"subjID":"juandavidalvarezmontes3","gender":"0","school":"6","age":"11"},{"start_time":1551891126383,"click_time":1551891128828,"finger_time":1551891128127,"fix_duration":1012.8165978440742,"trial":29,"RT":1744,"MT":701,"sideResp":2,"stimulus":[],"xmouse":[822,822,822,822,822,822,822,822,822,822,822,822,822,822,822,822,822,822,822,822,822,822,822,822,822,822,822,822,822,822,822,822,822,822,822,822,822,822,822,822,822,822,822,822,822,822,822,822,822,822,822,822,822,822,822,822,822,822,822,822,822,822,822,822,822,822,822,822,822,822,822,822,822,822,824,825,825,825,825,825,825,825,825,825,824,824,822,821,818,816,816,817,832,839,843,846,846,846,845,845,851,904,922,930,935,938,940,943,945,954,967,997,1022,1031,1034,1036,1039,1043,1047,1052,1056,1058,1059],"ymouse":[645,645,645,645,645,645,645,645,645,645,645,645,645,645,645,645,645,645,645,645,645,645,645,645,645,645,645,645,645,645,645,645,645,645,645,645,645,645,645,645,645,645,645,645,645,645,645,645,645,645,645,645,645,645,645,645,645,645,645,645,645,645,645,645,645,645,645,645,645,645,645,645,645,645,643,639,633,625,623,621,620,618,615,613,607,601,592,567,551,537,513,495,461,446,437,428,418,404,397,391,379,314,298,289,282,275,270,264,256,238,211,160,116,104,99,97,87,79,71,64,57,55,54],"timestamp_mouse":[9,26,45,65,86,106,125,145,165,186,205,226,246,266,285,307,327,345,366,386,405,425,446,466,486,505,525,546,565,585,606,625,645,665,685,705,725,745,767,786,806,826,845,866,885,905,925,945,966,985,1006,1026,1046,1066,1087,1106,1126,1145,1166,1186,1205,1226,1246,1265,1287,1306,1325,1346,1367,1387,1406,1425,1445,1465,1487,1506,1526,1545,1567,1585,1605,1626,1645,1665,1686,1705,1725,1744,1765,1784,1804,1824,1844,1864,1885,1905,1923,1944,1964,1985,2005,2025,2044,2064,2084,2104,2124,2144,2164,2184,2204,2224,2245,2265,2284,2304,2325,2344,2364,2384,2404,2424,2445],"xSR":741.5,"ySR":573.95,"xT1":424.9,"yT1":0,"xT2":1058.1,"yT2":0,"toosoon":0,"cond_shown":"Incongruent","ratio_trial":200,"L_num":4,"L_den":5,"R_num":6,"R_den":10,"correct_side":1,"subjID":"juandavidalvarezmontes3","gender":"0","school":"6","age":"11"},{"start_time":1551891130575,"click_time":1551891134367,"finger_time":1551891131087,"fix_duration":825.8998065897795,"trial":30,"RT":512,"MT":3280,"sideResp":1,"stimulus":[],"xmouse":[754,754,754,754,754,754,754,754,754,754,754,754,754,754,754,754,754,754,754,754,754,754,754,754,748,730,704,698,695,695,695,695,695,695,695,695,695,695,695,695,695,695,695,695,696,715,752,799,804,804,804,804,804,804,804,804,804,804,804,804,805,803,803,803,803,802,802,802,800,800,800,799,798,797,797,797,797,797,797,797,797,797,797,797,797,797,797,797,797,797,797,797,797,797,797,795,788,768,763,760,760,760,754,741,722,701,674,578,484,427,397,378,374,374,374,374,380,405,429,470,508,558,658,700,726,740,745,748,748,749,750,753,759,762,766,767,769,769,769,769,769,769,769,769,769,769,769,769,769,769,769,769,769,769,769,769,769,769,769,769,769,769,769,769,769,769,768,732,669,627,587,544,444,401,365,331,313,303,300,300,300,300,300,307,314,324,338,372,420,438],"ymouse":[579,579,579,579,579,579,579,579,579,579,579,579,579,579,579,579,579,579,579,579,579,579,579,579,578,578,588,590,591,591,591,591,591,591,591,591,591,591,591,591,591,591,591,591,596,614,642,668,671,671,671,671,671,671,671,671,671,671,671,671,669,665,663,661,660,658,656,655,654,653,652,651,648,648,647,647,647,647,647,647,647,647,647,647,647,647,647,647,647,647,647,647,647,640,633,622,606,581,575,573,573,573,575,581,589,600,611,648,678,694,703,708,709,709,709,709,709,706,704,703,701,694,674,661,650,639,635,631,629,628,622,618,610,609,607,607,606,606,606,606,606,606,606,606,606,606,606,606,606,606,606,606,606,606,606,606,606,606,606,606,606,606,606,606,606,606,598,548,460,395,326,251,100,40,0,0,0,0,0,0,0,0,0,1,2,4,8,19,29,31],"timestamp_mouse":[12,35,53,72,92,112,132,152,171,193,212,233,253,273,292,313,333,353,373,392,413,432,453,473,491,512,532,552,573,592,612,631,652,672,693,713,734,753,772,792,812,832,853,871,893,912,932,952,972,992,1011,1033,1052,1073,1092,1113,1133,1153,1173,1192,1212,1232,1252,1272,1292,1313,1332,1352,1372,1392,1412,1432,1452,1472,1493,1513,1532,1552,1573,1593,1613,1633,1653,1672,1693,1712,1732,1753,1772,1793,1811,1832,1853,1872,1892,1912,1932,1952,1972,1993,2012,2032,2052,2072,2092,2113,2132,2152,2172,2193,2212,2233,2253,2272,2292,2312,2332,2352,2373,2392,2412,2432,2452,2472,2492,2512,2532,2552,2573,2592,2612,2633,2652,2672,2693,2713,2732,2752,2773,2792,2812,2832,2852,2872,2893,2913,2932,2953,2973,2993,3012,3032,3053,3073,3092,3112,3132,3153,3171,3193,3213,3233,3252,3273,3292,3313,3332,3352,3372,3392,3412,3432,3452,3472,3492,3512,3533,3553,3572,3592,3611,3632,3653,3672,3693,3712,3732,3753,3773,3792],"xSR":741.5,"ySR":573.95,"xT1":424.9,"yT1":0,"xT2":1058.1,"yT2":0,"toosoon":0,"cond_shown":"Incongruent","ratio_trial":300,"L_num":4,"L_den":20,"R_num":2,"R_den":4,"correct_side":2,"subjID":"juandavidalvarezmontes3","gender":"0","school":"6","age":"11"},{"start_time":1551891137770,"click_time":1551891140088,"fi