[{"start_time":1551801349883,"click_time":1551801352201,"finger_time":1551801351601,"fix_duration":1199.7713065623823,"trial":0,"RT":1718,"MT":600,"sideResp":1,"stimulus":"img/750/randomdotsizeEA/L/9_Ratio_750_L_4_R_3.png","xmouse":[803,803,803,803,803,803,803,803,803,803,803,803,803,803,803,803,803,803,803,803,803,803,803,803,803,803,803,803,803,803,803,803,803,803,803,803,803,803,803,803,803,803,803,803,803,803,803,803,803,803,803,803,803,803,803,803,803,803,803,803,803,803,803,803,803,803,803,803,803,803,803,803,803,803,803,803,803,803,803,803,803,800,793,784,773,766,763,761,754,748,736,710,703,685,679,678,675,673,665,660,655,650,641,631,617,606,587,581,560,553,548,546,545,538,534,526,518],"ymouse":[518,518,518,518,518,518,518,518,518,518,518,518,518,518,518,518,518,518,518,518,518,518,518,518,518,518,518,518,518,518,518,518,518,518,518,518,518,518,518,518,518,518,518,518,518,518,518,518,518,518,518,518,518,518,518,518,518,518,518,518,518,518,518,518,518,518,518,518,518,518,518,518,518,518,518,518,518,518,518,518,518,514,505,491,470,456,446,433,408,394,376,350,342,320,302,290,274,259,231,220,209,198,177,163,145,134,121,117,103,98,94,91,91,82,78,73,69],"timestamp_mouse":[0,18,39,58,78,98,119,138,159,178,198,218,239,259,278,298,318,338,359,378,398,419,438,458,478,499,518,538,558,578,598,618,638,658,678,699,718,738,758,778,798,819,839,859,878,898,918,938,958,978,998,1019,1038,1058,1078,1098,1118,1139,1158,1180,1198,1218,1239,1259,1279,1299,1319,1340,1358,1379,1398,1418,1438,1458,1478,1498,1518,1539,1559,1579,1599,1618,1638,1659,1678,1699,1718,1738,1759,1780,1798,1818,1838,1859,1879,1898,1918,1938,1959,1979,1998,2018,2038,2059,2079,2098,2118,2138,2159,2178,2198,2218,2239,2259,2278,2298,2318],"xSR":741.5,"ySR":479.7,"xT1":424.9,"yT1":0,"xT2":1058.1,"yT2":0,"toosoon":0,"cond_shown":"randomdotsizeEA","ratio_trial":750,"smaller_num":"3","larger_num":"4","correct_side":1,"subjID":"juandaviuddiazrodriguez29","gender":"No_gender","age":"11","school":"No_school","test":{"fix_dur":[250,1500],"timestim":300,"targets_dim":[100,100],"targets_relative_coord":[0.3,0.7],"size_stim":[880,420],"start_dim":[100,100],"size_start":[300,300],"size_fix":60,"samplingrate":20,"img_types":["equaldotsize","equaldotanddens","randomdotsizeEA"],"ratios":[250,500,750,900],"rep_conds":9,"nTrials":120,"trials_to_rest":500,"Trials_order":[80,96,92,23,6,113,41,55,114,106,83,26,57,34,33,53,74,24,118,14,32,117,93,86,59,109,60,51,44,47,36,69,16,58,103,25,95,20,39,22,72,66,94,35,54,4,21,48,98,45,52,65,73,99,116,67,100,3,17,87,19,64,97,119,68,91,63,102,111,5,105,13,112,115,31,110,101,7,37,107,71,70,75,1,50,42,82,104,9,62,79,12,90,76,88,49,43,0,28,46,40,78,85,89,108,15,29,38,56,11,10,18,2,27,30,81,84,77,61,8],"cond_shown":["randomdotsizeEA","equaldotsize","randomdotsizeEA","randomdotsizeEA","equaldotsize","randomdotsizeEA","randomdotsizeEA","equaldotanddens","equaldotsize","equaldotanddens","randomdotsizeEA","randomdotsizeEA","equaldotsize","equaldotanddens","equaldotsize","randomdotsizeEA","randomdotsizeEA","equaldotsize","equaldotanddens","randomdotsizeEA","randomdotsizeEA","equaldotsize","equaldotsize","randomdotsizeEA","randomdotsizeEA","equaldotanddens","equaldotsize","equaldotsize","randomdotsizeEA","randomdotsizeEA","equaldotsize","equaldotsize","equaldotanddens","equaldotanddens","equaldotanddens","equaldotanddens","randomdotsizeEA","randomdotsizeEA","equaldotsize","equaldotanddens","equaldotsize","equaldotsize","equaldotanddens","randomdotsizeEA","equaldotsize","equaldotanddens","equaldotsize","equaldotsize","randomdotsizeEA","equaldotsize","equaldotanddens","randomdotsizeEA","equaldotanddens","equaldotsize","randomdotsizeEA","equaldotanddens","equaldotanddens","equaldotsize","randomdotsizeEA","equaldotsize","equaldotanddens","equaldotanddens","equaldotanddens","randomdotsizeEA","randomdotsizeEA","equaldotanddens","equaldotsize","equaldotsize","equaldotsize","randomdotsizeEA","equaldotsize","equaldotanddens","equaldotanddens","equaldotanddens","equaldotanddens","randomdotsizeEA","randomdotsizeEA","equaldotanddens","equaldotanddens","randomdotsizeEA","randomdotsizeEA","equaldotanddens","equaldotsize","equaldotanddens","randomdotsizeEA","equaldotsize","equaldotanddens","randomdotsizeEA","equaldotsize","randomdotsizeEA","equaldotanddens","equaldotsize","equaldotsize","equaldotanddens","equaldotanddens","equaldotanddens","equaldotanddens","equaldotsize","equaldotanddens","equaldotanddens","equaldotanddens","equaldotsize","equaldotanddens","randomdotsizeEA","equaldotsize","equaldotsize","randomdotsizeEA","randomdotsizeEA","randomdotsizeEA","randomdotsizeEA","equaldotanddens","equaldotsize","randomdotsizeEA","equaldotsize","equaldotsize","equaldotsize","equaldotsize","randomdotsizeEA","equaldotanddens","randomdotsizeEA"],"ratio_trial":[750,250,750,900,750,500,500,750,750,900,900,250,900,900,900,500,250,250,900,250,750,900,900,250,900,250,250,500,750,900,250,900,500,900,750,250,900,750,500,900,250,750,900,900,750,500,900,250,250,900,500,500,250,500,750,750,500,500,500,500,750,500,250,900,750,750,500,750,500,500,900,250,500,750,750,250,500,750,250,900,900,900,500,250,250,750,900,750,900,250,750,250,750,500,500,250,750,250,500,900,500,750,250,500,250,500,500,250,750,900,900,750,250,500,750,900,250,500,250,750],"smaller_num":["3","6","15","18","3","6","9","18","3","18","9","4","18","9","18","1","4","3","18","2","15","18","18","2","9","3","2","1","3","18","3","18","2","9","15","6","9","6","6","9","2","3","18","18","12","4","18","1","3","18","5","3","2","9","15","3","5","2","6","9","3","10","3","18","9","6","3","3","1","1","18","3","5","6","18","3","9","3","1","18","18","18","3","3","6","15","9","9","18","3","3","1","15","2","10","2","3","3","4","9","3","3","5","2","6","9","1","3","15","9","18","18","1","1","15","18","2","2","2","3"],"larger_num":["4","24","20","20","4","12","18","24","4","20","10","16","20","10","20","2","16","12","20","8","20","20","20","8","10","12","8","2","4","20","12","20","4","10","20","24","10","8","12","10","8","4","20","20","16","8","20","4","12","20","10","6","8","18","20","4","10","4","12","18","4","20","12","20","12","8","6","4","2","2","20","12","10","8","24","12","18","4","4","20","20","20","6","12","24","20","10","12","20","12","4","4","20","4","20","8","4","12","8","10","6","4","20","4","24","18","2","12","20","10","20","24","4","2","20","20","8","4","8","4"],"correct_side":[1,1,2,2,2,1,1,1,1,1,2,2,2,1,1,2,2,2,1,1,2,1,2,2,1,1,1,2,2,1,2,1,1,2,2,1,1,2,1,1,1,1,1,2,2,1,2,2,2,2,1,2,2,1,2,1,1,2,1,1,1,2,2,1,2,1,2,1,2,2,2,1,1,1,1,2,1,1,2,1,1,1,2,2,2,1,2,2,1,2,2,2,2,2,2,2,1,2,1,2,2,2,2,1,1,2,2,2,1,2,1,1,2,2,1,1,1,1,1,1],"img_shown":["img/750/randomdotsizeEA/L/9_Ratio_750_L_4_R_3.png","img/250/equaldotsize/L/5_Ratio_250_L_24_R_6.png","img/750/randomdotsizeEA/R/4_Ratio_750_L_15_R_20.png","img/900/randomdotsizeEA/R/14_Ratio_900_L_18_R_20.png","img/750/equaldotsize/R/7_Ratio_750_L_3_R_4.png","img/500/randomdotsizeEA/L/13_Ratio_500_L_12_R_6.png","img/500/randomdotsizeEA/L/4_Ratio_500_L_18_R_9.png","img/750/equaldotanddens/L/6_Ratio_750_L_24_R_18.png","img/750/equaldotsize/L/8_Ratio_750_L_4_R_3.png","img/900/equaldotanddens/L/2_Ratio_900_L_20_R_18.png","img/900/randomdotsizeEA/R/5_Ratio_900_L_9_R_10.png","img/250/randomdotsizeEA/R/10_Ratio_250_L_4_R_16.png","img/900/equaldotsize/R/14_Ratio_900_L_18_R_20.png","img/900/equaldotanddens/L/1_Ratio_900_L_10_R_9.png","img/900/equaldotsize/L/2_Ratio_900_L_20_R_18.png","img/500/randomdotsizeEA/R/12_Ratio_500_L_1_R_2.png","img/250/randomdotsizeEA/R/10_Ratio_250_L_4_R_16.png","img/250/equaldotsize/R/11_Ratio_250_L_3_R_12.png","img/900/equaldotanddens/L/8_Ratio_900_L_20_R_18.png","img/250/randomdotsizeEA/L/7_Ratio_250_L_8_R_2.png","img/750/randomdotsizeEA/R/4_Ratio_750_L_15_R_20.png","img/900/equaldotsize/L/10_Ratio_900_L_20_R_18.png","img/900/equaldotsize/R/9_Ratio_900_L_18_R_20.png","img/250/randomdotsizeEA/R/13_Ratio_250_L_2_R_8.png","img/900/randomdotsizeEA/L/1_Ratio_900_L_10_R_9.png","img/250/equaldotanddens/L/14_Ratio_250_L_12_R_3.png","img/250/equaldotsize/L/7_Ratio_250_L_8_R_2.png","img/500/equaldotsize/R/15_Ratio_500_L_1_R_2.png","img/750/randomdotsizeEA/R/12_Ratio_750_L_3_R_4.png","img/900/randomdotsizeEA/L/8_Ratio_900_L_20_R_18.png","img/250/equaldotsize/R/11_Ratio_250_L_3_R_12.png","img/900/equaldotsize/L/2_Ratio_900_L_20_R_18.png","img/500/equaldotanddens/L/5_Ratio_500_L_4_R_2.png","img/900/equaldotanddens/R/7_Ratio_900_L_9_R_10.png","img/750/equaldotanddens/R/4_Ratio_750_L_15_R_20.png","img/250/equaldotanddens/L/5_Ratio_250_L_24_R_6.png","img/900/randomdotsizeEA/L/1_Ratio_900_L_10_R_9.png","img/750/randomdotsizeEA/R/2_Ratio_750_L_6_R_8.png","img/500/equaldotsize/L/13_Ratio_500_L_12_R_6.png","img/900/equaldotanddens/L/1_Ratio_900_L_10_R_9.png","img/250/equaldotsize/L/3_Ratio_250_L_8_R_2.png","img/750/equaldotsize/L/9_Ratio_750_L_4_R_3.png","img/900/equaldotanddens/L/2_Ratio_900_L_20_R_18.png","img/900/randomdotsizeEA/R/11_Ratio_900_L_18_R_20.png","img/750/equaldotsize/R/11_Ratio_750_L_12_R_16.png","img/500/equaldotanddens/L/8_Ratio_500_L_8_R_4.png","img/900/equaldotsize/R/13_Ratio_900_L_18_R_20.png","img/250/equaldotsize/R/8_Ratio_250_L_1_R_4.png","img/250/randomdotsizeEA/R/4_Ratio_250_L_3_R_12.png","img/900/equaldotsize/R/11_Ratio_900_L_18_R_20.png","img/500/equaldotanddens/L/7_Ratio_500_L_10_R_5.png","img/500/randomdotsizeEA/R/2_Ratio_500_L_3_R_6.png","img/250/equaldotanddens/R/13_Ratio_250_L_2_R_8.png","img/500/equaldotsize/L/4_Ratio_500_L_18_R_9.png","img/750/randomdotsizeEA/R/5_Ratio_750_L_15_R_20.png","img/750/equaldotanddens/L/8_Ratio_750_L_4_R_3.png","img/500/equaldotanddens/L/7_Ratio_500_L_10_R_5.png","img/500/equaldotsize/R/9_Ratio_500_L_2_R_4.png","img/500/randomdotsizeEA/L/11_Ratio_500_L_12_R_6.png","img/500/equaldotsize/L/4_Ratio_500_L_18_R_9.png","img/750/equaldotanddens/L/8_Ratio_750_L_4_R_3.png","img/500/equaldotanddens/R/3_Ratio_500_L_10_R_20.png","img/250/equaldotanddens/R/9_Ratio_250_L_3_R_12.png","img/900/randomdotsizeEA/L/4_Ratio_900_L_20_R_18.png","img/750/randomdotsizeEA/R/15_Ratio_750_L_9_R_12.png","img/750/equaldotanddens/L/13_Ratio_750_L_8_R_6.png","img/500/equaldotsize/R/2_Ratio_500_L_3_R_6.png","img/750/equaldotsize/L/10_Ratio_750_L_4_R_3.png","img/500/equaldotsize/R/15_Ratio_500_L_1_R_2.png","img/500/randomdotsizeEA/R/12_Ratio_500_L_1_R_2.png","img/900/equaldotsize/R/14_Ratio_900_L_18_R_20.png","img/250/equaldotanddens/L/15_Ratio_250_L_12_R_3.png","img/500/equaldotanddens/L/7_Ratio_500_L_10_R_5.png","img/750/equaldotanddens/L/13_Ratio_750_L_8_R_6.png","img/750/equaldotanddens/L/6_Ratio_750_L_24_R_18.png","img/250/randomdotsizeEA/R/4_Ratio_250_L_3_R_12.png","img/500/randomdotsizeEA/L/4_Ratio_500_L_18_R_9.png","img/750/equaldotanddens/L/9_Ratio_750_L_4_R_3.png","img/250/equaldotanddens/R/8_Ratio_250_L_1_R_4.png","img/900/randomdotsizeEA/L/10_Ratio_900_L_20_R_18.png","img/900/randomdotsizeEA/L/4_Ratio_900_L_20_R_18.png","img/900/equaldotanddens/L/2_Ratio_900_L_20_R_18.png","img/500/equaldotsize/R/2_Ratio_500_L_3_R_6.png","img/250/equaldotanddens/R/11_Ratio_250_L_3_R_12.png","img/250/randomdotsizeEA/R/6_Ratio_250_L_6_R_24.png","img/750/equaldotsize/L/1_Ratio_750_L_20_R_15.png","img/900/equaldotanddens/R/7_Ratio_900_L_9_R_10.png","img/750/randomdotsizeEA/R/15_Ratio_750_L_9_R_12.png","img/900/equaldotsize/L/4_Ratio_900_L_20_R_18.png","img/250/randomdotsizeEA/R/9_Ratio_250_L_3_R_12.png","img/750/equaldotanddens/R/12_Ratio_750_L_3_R_4.png","img/250/equaldotsize/R/8_Ratio_250_L_1_R_4.png","img/750/equaldotsize/R/3_Ratio_750_L_15_R_20.png","img/500/equaldotanddens/R/9_Ratio_500_L_2_R_4.png","img/500/equaldotanddens/R/3_Ratio_500_L_10_R_20.png","img/250/equaldotanddens/R/13_Ratio_250_L_2_R_8.png","img/750/equaldotanddens/L/9_Ratio_750_L_4_R_3.png","img/250/equaldotsize/R/11_Ratio_250_L_3_R_12.png","img/500/equaldotanddens/L/8_Ratio_500_L_8_R_4.png","img/900/equaldotanddens/R/6_Ratio_900_L_9_R_10.png","img/500/equaldotanddens/R/2_Ratio_500_L_3_R_6.png","img/750/equaldotsize/R/7_Ratio_750_L_3_R_4.png","img/250/equaldotanddens/R/12_Ratio_250_L_5_R_20.png","img/500/randomdotsizeEA/L/10_Ratio_500_L_4_R_2.png","img/250/equaldotsize/L/5_Ratio_250_L_24_R_6.png","img/500/equaldotsize/R/6_Ratio_500_L_9_R_18.png","img/500/randomdotsizeEA/R/12_Ratio_500_L_1_R_2.png","img/250/randomdotsizeEA/R/11_Ratio_250_L_3_R_12.png","img/750/randomdotsizeEA/L/1_Ratio_750_L_20_R_15.png","img/900/randomdotsizeEA/R/6_Ratio_900_L_9_R_10.png","img/900/equaldotanddens/L/8_Ratio_900_L_20_R_18.png","img/750/equaldotsize/L/6_Ratio_750_L_24_R_18.png","img/250/randomdotsizeEA/R/8_Ratio_250_L_1_R_4.png","img/500/equaldotsize/R/12_Ratio_500_L_1_R_2.png","img/750/equaldotsize/L/1_Ratio_750_L_20_R_15.png","img/900/equaldotsize/L/10_Ratio_900_L_20_R_18.png","img/250/equaldotsize/L/1_Ratio_250_L_8_R_2.png","img/500/randomdotsizeEA/L/10_Ratio_500_L_4_R_2.png","img/250/equaldotanddens/L/3_Ratio_250_L_8_R_2.png","img/750/randomdotsizeEA/L/8_Ratio_750_L_4_R_3.png"],"Rat0":[["12_Ratio_0_L_9_R_0.png","13_Ratio_0_L_6_R_0.png","5_Ratio_0_L_2_R_0.png","6_Ratio_0_L_4_R_0.png","8_Ratio_0_L_6_R_0.png"],["1_Ratio_0_L_0_R_17.png","10_Ratio_0_L_0_R_22.png","11_Ratio_0_L_0_R_1.png","14_Ratio_0_L_0_R_24.png","15_Ratio_0_L_0_R_4.png","2_Ratio_0_L_0_R_5.png","3_Ratio_0_L_0_R_17.png","4_Ratio_0_L_0_R_7.png","7_Ratio_0_L_0_R_19.png","9_Ratio_0_L_0_R_15.png"]],"Rat250":[["1_Ratio_250_L_8_R_2.png","14_Ratio_250_L_12_R_3.png","15_Ratio_250_L_12_R_3.png","2_Ratio_250_L_16_R_4.png","3_Ratio_250_L_8_R_2.png","5_Ratio_250_L_24_R_6.png","7_Ratio_250_L_8_R_2.png"],["10_Ratio_250_L_4_R_16.png","11_Ratio_250_L_3_R_12.png","12_Ratio_250_L_5_R_20.png","13_Ratio_250_L_2_R_8.png","4_Ratio_250_L_3_R_12.png","6_Ratio_250_L_6_R_24.png","8_Ratio_250_L_1_R_4.png","9_Ratio_250_L_3_R_12.png"]],"Rat500":[["10_Ratio_500_L_4_R_2.png","11_Ratio_500_L_12_R_6.png","13_Ratio_500_L_12_R_6.png","4_Ratio_500_L_18_R_9.png","5_Ratio_500_L_4_R_2.png","7_Ratio_500_L_10_R_5.png","8_Ratio_500_L_8_R_4.png"],["1_Ratio_500_L_9_R_18.png","12_Ratio_500_L_1_R_2.png","14_Ratio_500_L_5_R_10.png","15_Ratio_500_L_1_R_2.png","2_Ratio_500_L_3_R_6.png","3_Ratio_500_L_10_R_20.png","6_Ratio_500_L_9_R_18.png","9_Ratio_500_L_2_R_4.png"]],"Rat750":[["1_Ratio_750_L_20_R_15.png","10_Ratio_750_L_4_R_3.png","13_Ratio_750_L_8_R_6.png","14_Ratio_750_L_8_R_6.png","6_Ratio_750_L_24_R_18.png","8_Ratio_750_L_4_R_3.png","9_Ratio_750_L_4_R_3.png"],["11_Ratio_750_L_12_R_16.png","12_Ratio_750_L_3_R_4.png","15_Ratio_750_L_9_R_12.png","2_Ratio_750_L_6_R_8.png","3_Ratio_750_L_15_R_20.png","4_Ratio_750_L_15_R_20.png","5_Ratio_750_L_15_R_20.png","7_Ratio_750_L_3_R_4.png"]],"Rat900":[["1_Ratio_900_L_10_R_9.png","10_Ratio_900_L_20_R_18.png","2_Ratio_900_L_20_R_18.png","4_Ratio_900_L_20_R_18.png","8_Ratio_900_L_20_R_18.png"],["11_Ratio_900_L_18_R_20.png","12_Ratio_900_L_18_R_20.png","13_Ratio_900_L_18_R_20.png","14_Ratio_900_L_18_R_20.png","15_Ratio_900_L_9_R_10.png","3_Ratio_900_L_9_R_10.png","5_Ratio_900_L_9_R_10.png","6_Ratio_900_L_9_R_10.png","7_Ratio_900_L_9_R_10.png","9_Ratio_900_L_18_R_20.png"]],"Rat1000":[["10_Ratio_1000_L_16_R_16.png","11_Ratio_1000_L_6_R_6.png","12_Ratio_1000_L_14_R_14.png","13_Ratio_1000_L_20_R_20.png","15_Ratio_1000_L_15_R_15.png","2_Ratio_1000_L_17_R_17.png","4_Ratio_1000_L_9_R_9.png","5_Ratio_1000_L_6_R_6.png","6_Ratio_1000_L_19_R_19.png","8_Ratio_1000_L_14_R_14.png","9_Ratio_1000_L_25_R_25.png"],["1_Ratio_1000_L_1_R_1.png","14_Ratio_1000_L_17_R_17.png","3_Ratio_1000_L_17_R_17.png","7_Ratio_1000_L_6_R_6.png"]]}},{"start_time":1551801353702,"click_time":1551801357041,"finger_time":1551801356541,"fix_duration":620.0500836706424,"trial":1,"RT":2839,"MT":500,"sideResp":1,"stimulus":"img/250/equaldotsize/L/5_Ratio_250_L_24_R_6.png","xmouse":[786,786,786,786,786,786,786,786,786,786,786,786,786,786,786,786,786,786,786,786,786,786,786,786,786,786,786,786,786,786,786,786,786,786,786,786,786,786,786,786,786,786,786,786,786,786,786,786,786,786,786,786,786,786,786,786,786,786,786,786,786,786,786,786,786,786,786,786,786,786,786,786,786,786,786,786,786,786,786,786,786,786,786,786,786,786,786,786,786,786,786,786,786,786,786,786,786,786,786,786,786,786,786,786,786,786,786,786,786,786,786,786,786,786,786,786,786,786,786,786,786,786,786,786,786,786,786,786,786,786,786,781,773,770,769,768,768,766,765,764,760,753,735,726,714,704,680,673,671,667,665,656,629,613,601,594,587,583,578,573,567,557,545,540,535,526,518],"ymouse":[498,498,498,498,498,498,498,498,498,498,498,498,498,498,498,498,498,498,498,498,498,498,498,498,498,498,498,498,498,498,498,498,498,498,498,498,498,498,498,498,498,498,498,498,498,498,498,498,498,498,498,498,498,498,498,498,498,498,498,498,498,498,498,498,498,498,498,498,498,498,498,498,498,498,498,498,498,498,498,498,498,498,498,498,498,498,498,498,498,498,498,498,498,498,498,498,498,498,498,498,498,498,498,498,498,498,498,498,498,498,498,498,498,498,498,498,498,498,498,498,498,498,498,498,498,498,498,498,498,498,493,486,476,473,470,470,467,463,460,456,450,432,408,391,374,355,318,306,299,289,285,273,246,232,220,209,190,181,172,162,154,139,122,115,107,95,86],"timestamp_mouse":[21,39,64,79,100,120,139,159,180,199,219,239,260,279,299,319,339,360,380,399,420,440,460,479,499,519,539,559,579,600,619,639,660,679,699,719,740,759,779,800,819,839,860,880,899,919,939,959,979,999,1019,1040,1059,1080,1099,1120,1140,1159,1179,1199,1220,1240,1259,1279,1300,1320,1340,1359,1380,1399,1420,1439,1461,1479,1499,1520,1539,1560,1579,1600,1619,1639,1660,1679,1699,1720,1739,1759,1780,1799,1820,1839,1860,1879,1899,1919,1939,1959,1980,2000,2019,2040,2060,2079,2100,2119,2139,2159,2179,2200,2219,2239,2259,2279,2300,2320,2340,2359,2379,2399,2419,2439,2459,2479,2499,2520,2541,2559,2579,2600,2619,2639,2659,2679,2699,2719,2739,2759,2779,2799,2820,2839,2859,2879,2899,2919,2939,2959,2981,3000,3019,3039,3060,3079,3100,3119,3139,3161,3179,3199,3219,3239,3260,3279,3299,3319,3339],"xSR":741.5,"ySR":449.15000000000003,"xT1":424.9,"yT1":0,"xT2":1058.1,"yT2":0,"toosoon":0,"cond_shown":"equaldotsize","ratio_trial":250,"smaller_num":"6","larger_num":"24","correct_side":1,"subjID":"juandaviuddiazrodriguez29","gender":"No_gender","age":"11","school":"No_school"},{"start_time":1551801358112,"click_time":1551801359901,"finger_time":1551801359322,"fix_duration":250,"trial":2,"RT":1210,"MT":579,"sideResp":2,"stimulus":"img/750/randomdotsizeEA/R/4_Ratio_750_L_15_R_20.png","xmouse":[790,790,790,790,790,790,790,790,790,790,790,790,790,790,790,790,790,790,790,790,790,790,790,790,790,790,790,790,790,790,790,790,790,790,790,790,790,790,790,790,790,790,790,790,790,790,790,790,790,790,790,790,790,790,790,790,790,795,801,817,822,839,859,869,879,887,896,919,932,949,954,971,986,994,1001,1010,1016,1031,1038,1045,1051,1062,1065,1068,1073,1076,1078,1083,1085,1086],"ymouse":[476,476,476,476,476,476,476,476,476,476,476,476,476,476,476,476,476,476,476,476,476,476,476,476,476,476,476,476,476,476,476,476,476,476,476,476,476,476,476,476,476,476,476,476,476,476,476,476,476,476,476,476,476,476,476,476,476,475,465,450,446,434,420,412,403,395,385,364,349,333,327,306,282,269,255,241,227,198,186,174,163,146,140,135,129,121,115,105,101,99],"timestamp_mouse":[9,29,50,69,90,109,130,149,170,189,209,229,250,270,291,309,329,350,370,389,409,430,449,469,489,510,529,550,569,589,609,630,649,669,689,710,729,749,770,789,809,829,850,869,890,910,931,949,969,989,1009,1029,1050,1069,1089,1110,1130,1149,1169,1190,1210,1229,1249,1269,1290,1309,1329,1349,1369,1389,1409,1429,1450,1469,1489,1511,1529,1549,1569,1589,1610,1630,1649,1669,1689,1709,1729,1749,1770,1789],"xSR":741.5,"ySR":449.15000000000003,"xT1":424.9,"yT1":0,"xT2":1058.1,"yT2":0,"toosoon":0,"cond_shown":"randomdotsizeEA","ratio_trial":750,"smaller_num":"15","larger_num":"20","correct_side":2,"subjID":"juandaviuddiazrodriguez29","gender":"No_gender","age":"11","school":"No_school"},{"start_time":1551801361936,"click_time":1551801363861,"finger_time":1551801363242,"fix_duration":1154.6136505505008,"trial":3,"RT":1306,"MT":619,"sideResp":2,"stimulus":"img/900/randomdotsizeEA/R/14_Ratio_900_L_18_R_20.png","xmouse":[793,793,793,793,793,793,793,793,793,793,793,793,793,793,793,793,793,793,793,793,793,793,793,793,793,793,793,793,793,793,793,793,793,793,793,793,793,793,793,793,793,793,793,793,793,793,793,793,793,793,793,793,793,793,793,793,793,793,793,793,793,793,795,797,806,842,863,878,891,902,906,918,925,934,944,965,980,996,1012,1023,1050,1059,1065,1073,1079,1087,1092,1094,1096,1098,1102,1103,1103,1103,1104,1105,1106],"ymouse":[499,499,499,499,499,499,499,499,499,499,499,499,499,499,499,499,499,499,499,499,499,499,499,499,499,499,499,499,499,499,499,499,499,499,499,499,499,499,499,499,499,499,499,499,499,499,499,499,499,499,499,499,499,499,499,499,499,499,499,499,499,499,496,493,481,440,415,394,373,347,335,314,304,294,285,269,256,244,233,225,202,192,183,174,167,153,147,141,135,130,118,113,111,109,107,104,93],"timestamp_mouse":[5,25,45,66,86,105,126,145,165,185,205,226,246,265,285,305,326,345,366,385,405,426,446,466,486,506,525,546,565,585,606,625,645,665,686,705,725,745,767,785,806,825,845,865,885,905,925,945,965,986,1006,1025,1045,1065,1086,1106,1125,1145,1166,1186,1206,1227,1245,1265,1285,1306,1325,1346,1365,1385,1406,1426,1445,1466,1485,1505,1525,1546,1565,1586,1605,1625,1645,1665,1685,1706,1726,1745,1766,1785,1806,1826,1845,1865,1885,1906,1925],"xSR":741.5,"ySR":449.15000000000003,"xT1":424.9,"yT1":0,"xT2":1058.1,"yT2":0,"toosoon":0,"cond_shown":"randomdotsizeEA","ratio_trial":900,"smaller_num":"18","larger_num":"20","correct_side":2,"subjID":"juandaviuddiazrodriguez29","gender":"No_gender","age":"11","school":"No_school"},{"start_time":1551801365778,"click_time":1551801367083,"finger_time":1551801366661,"fix_duration":1216.1903119078834,"trial":4,"RT":883,"MT":422,"sideResp":2,"stimulus":"img/750/equaldotsize/R/7_Ratio_750_L_3_R_4.png","xmouse":[804,804,804,804,804,804,804,804,804,804,804,804,804,804,804,804,804,804,804,804,804,804,804,804,804,804,804,804,804,804,804,804,804,804,804,804,804,804,804,804,804,804,804,806,818,824,830,839,848,875,889,902,914,931,938,946,957,970,989,1010,1022,1031,1042,1052,1072,1080],"ymouse":[477,477,477,477,477,477,477,477,477,477,477,477,477,477,477,477,477,477,477,477,477,477,477,477,477,477,477,477,477,477,477,477,477,477,477,477,477,477,477,477,477,477,474,469,447,436,424,405,392,360,342,326,310,281,269,256,241,229,209,184,171,161,152,144,107,90],"timestamp_mouse":[4,23,44,65,83,104,124,144,163,183,203,224,243,263,283,303,324,343,363,383,403,424,444,463,484,504,525,544,563,584,604,624,643,663,683,704,723,743,763,783,804,823,843,863,883,903,923,943,963,983,1003,1023,1043,1064,1083,1103,1124,1145,1163,1183,1204,1224,1243,1263,1283,1305],"xSR":741.5,"ySR":449.15000000000003,"xT1":424.9,"yT1":0,"xT2":1058.1,"yT2":0,"toosoon":0,"cond_shown":"equaldotsize","ratio_trial":750,"smaller_num":"3","larger_num":"4","correct_side":2,"subjID":"juandaviuddiazrodriguez29","gender":"No_gender","age":"11","school":"No_school"},{"start_time":1551801369264,"click_time":1551801370441,"finger_time":1551801370261,"fix_duration":1341.8179635984718,"trial":5,"RT":997,"MT":180,"sideResp":2,"stimulus":"img/500/randomdotsizeEA/L/13_Ratio_500_L_12_R_6.png","xmouse":[761,761,761,761,761,761,761,761,761,761,761,761,761,761,761,761,761,761,761,761,761,761,761,761,761,761,761,761,761,761,761,761,761,761,761,761,761,761,761,761,761,761,762,762,764,766,770,774,790,802,816,843,856,898,962,990,1019,1046,1069],"ymouse":[498,498,498,498,498,498,498,498,498,498,498,498,498,498,498,498,498,498,498,498,498,498,498,498,498,498,498,498,498,498,498,498,498,498,498,498,498,497,497,496,495,493,493,491,487,483,479,474,454,440,421,384,367,308,215,170,128,90,57],"timestamp_mouse":[17,37,57,78,98,117,137,157,178,197,218,237,257,277,297,317,337,357,377,397,417,437,457,477,497,517,537,557,578,597,618,638,657,677,697,718,737,757,777,797,817,837,858,878,897,917,937,957,978,997,1018,1037,1058,1077,1097,1117,1137,1157,1177],"xSR":741.5,"ySR":449.15000000000003,"xT1":424.9,"yT1":0,"xT2":1058.1,"yT2":0,"toosoon":0,"cond_shown":"randomdotsizeEA","ratio_trial":500,"smaller_num":"6","larger_num":"12","correct_side":1,"subjID":"juandaviuddiazrodriguez29","gender":"No_gender","age":"11","school":"No_school"},{"start_time":1551801373841,"click_time":1551801375162,"finger_time":1551801374761,"fix_duration":957.5729860730568,"trial":6,"RT":920,"MT":401,"sideResp":2,"stimulus":"img/500/randomdotsizeEA/L/4_Ratio_500_L_18_R_9.png","xmouse":[794,794,794,794,794,794,794,794,794,794,794,794,794,794,794,794,794,794,794,794,794,794,794,794,794,794,794,794,794,794,794,794,794,794,794,794,794,794,794,794,794,794,794,797,813,829,866,887,909,930,968,984,990,996,1004,1008,1018,1023,1027,1032,1039,1040,1041,1042,1044,1060,1070],"ymouse":[512,512,512,512,512,512,512,512,512,512,512,512,512,512,512,512,512,512,512,512,512,512,512,512,512,512,512,512,512,510,509,509,509,509,509,509,509,509,509,509,509,509,508,502,487,474,443,424,402,382,342,328,321,311,291,275,245,225,209,188,155,149,144,138,132,106,92],"timestamp_mouse":[3,25,40,61,80,100,120,140,161,181,200,220,240,261,280,300,320,340,360,380,401,420,440,460,480,501,520,541,561,580,601,620,640,660,681,700,720,741,760,780,800,821,841,860,880,900,920,940,960,980,1001,1020,1041,1060,1080,1100,1120,1141,1160,1180,1201,1220,1240,1260,1281,1302,1320],"xSR":741.5,"ySR":449.15000000000003,"xT1":424.9,"yT1":0,"xT2":1058.1,"yT2":0,"toosoon":0,"cond_shown":"randomdotsizeEA","ratio_trial":500,"smaller_num":"9","larger_num":"18","correct_side":1,"subjID":"juandaviuddiazrodriguez29","gender":"No_gender","age":"11","school":"No_school"},{"start_time":1551801376544,"click_time":1551801378141,"finger_time":1551801377621,"fix_duration":582.9639585680465,"trial":7,"RT":1077,"MT":520,"sideResp":1,"stimulus":"img/750/equaldotanddens/L/6_Ratio_750_L_24_R_18.png","xmouse":[775,775,775,775,775,775,775,775,775,775,775,775,775,775,775,775,775,775,775,775,775,775,775,775,775,775,775,775,775,775,775,775,775,775,775,775,775,775,775,775,775,775,775,775,775,775,775,775,775,775,775,775,774,772,759,747,735,725,716,711,699,692,681,664,645,618,608,602,598,591,580,573,564,556,548,542,538,535,528,517],"ymouse":[466,466,466,466,466,466,466,466,466,466,466,466,466,466,466,466,466,466,466,466,466,466,466,466,466,466,466,466,466,466,466,466,466,466,466,466,466,466,466,466,466,466,466,466,466,466,466,466,466,466,466,466,454,449,421,403,383,366,347,337,309,292,273,246,222,190,174,160,148,131,114,107,100,97,95,92,90,89,84,78],"timestamp_mouse":[17,38,57,77,97,117,137,158,177,197,217,238,257,277,298,317,337,357,377,397,417,437,457,477,498,517,538,557,577,596,617,637,657,677,697,717,738,757,777,797,817,837,858,877,898,917,937,958,977,997,1017,1037,1058,1077,1098,1117,1137,1157,1177,1197,1218,1237,1257,1277,1297,1317,1337,1357,1378,1397,1418,1437,1457,1477,1497,1517,1538,1557,1576,1597],"xSR":741.5,"ySR":449.15000000000003,"xT1":424.9,"yT1":0,"xT2":1058.1,"yT2":0,"toosoon":0,"cond_shown":"equaldotanddens","ratio_trial":750,"smaller_num":"18","larger_num":"24","correct_side":1,"subjID":"juandaviuddiazrodriguez29","gender":"No_gender","age":"11","school":"No_school"},{"start_time":1551801379173,"click_time":1551801380461,"finger_time":1551801380120,"fix_duration":250,"trial":8,"RT":947,"MT":341,"sideResp":1,"stimulus":"img/750/equaldotsize/L/8_Ratio_750_L_4_R_3.png","xmouse":[783,783,783,783,783,783,783,783,783,783,783,783,783,783,783,783,783,783,783,783,783,783,783,783,783,783,783,783,783,783,783,783,783,783,783,783,783,783,783,783,783,783,783,783,778,767,753,736,731,720,712,704,697,675,668,660,654,640,627,596,578,563,550,525,515],"ymouse":[515,515,515,515,515,515,515,515,515,515,515,515,515,515,515,515,515,515,515,515,515,515,515,515,515,515,515,515,515,515,515,515,515,515,515,515,515,515,515,515,515,515,515,515,516,516,516,508,498,453,410,383,356,279,255,230,208,180,165,144,133,125,117,96,87],"timestamp_mouse":[9,32,48,69,88,109,128,149,168,188,208,229,248,268,288,307,327,348,369,387,408,428,449,469,488,508,528,548,568,588,607,628,648,669,689,708,728,748,769,788,808,828,848,868,889,909,928,947,968,989,1008,1028,1048,1069,1088,1108,1128,1148,1168,1189,1208,1229,1248,1269,1288],"xSR":741.5,"ySR":449.15000000000003,"xT1":424.9,"yT1":0,"xT2":1058.1,"yT2":0,"toosoon":0,"cond_shown":"equaldotsize","ratio_trial":750,"smaller_num":"3","larger_num":"4","correct_side":1,"subjID":"juandaviuddiazrodriguez29","gender":"No_gender","age":"11","school":"No_school"},{"start_time":1551801381513,"click_time":1551801383281,"finger_time":1551801382902,"fix_duration":250,"trial":9,"RT":1389,"MT":379,"sideResp":1,"stimulus":"img/900/equaldotanddens/L/2_Ratio_900_L_20_R_18.png","xmouse":[789,789,789,789,789,788,788,788,788,788,788,788,788,788,788,788,788,788,788,788,788,788,788,788,788,788,788,788,788,788,788,788,788,788,788,788,788,788,788,788,788,788,788,788,788,788,788,788,788,788,788,788,788,788,788,788,788,788,788,788,788,788,788,788,788,788,785,768,752,733,713,684,675,665,651,637,606,588,569,553,540,525,511,508,507,504,502,501,500],"ymouse":[513,513,513,513,513,512,512,512,512,512,512,512,512,512,512,512,512,512,512,512,512,512,512,512,512,512,512,512,512,512,512,512,512,512,512,512,512,512,512,512,512,512,512,512,512,512,512,512,512,512,512,512,512,512,512,512,512,512,512,512,512,512,512,512,512,512,506,483,460,438,414,368,350,328,308,288,248,222,200,182,166,144,122,115,113,109,104,100,98],"timestamp_mouse":[8,29,50,68,89,108,128,147,169,188,209,228,248,269,288,309,328,348,368,388,408,428,448,469,488,508,528,548,568,589,608,628,648,668,689,709,728,748,768,788,808,829,848,869,889,908,929,948,969,988,1007,1029,1048,1068,1088,1108,1128,1147,1168,1189,1208,1227,1248,1269,1289,1309,1328,1348,1368,1389,1408,1429,1447,1468,1488,1508,1528,1548,1568,1587,1609,1628,1648,1668,1688,1708,1729,1748,1768],"xSR":741.5,"ySR":449.15000000000003,"xT1":424.9,"yT1":0,"xT2":1058.1,"yT2":0,"toosoon":0,"cond_shown":"equaldotanddens","ratio_trial":900,"smaller_num":"18","larger_num":"20","correct_side":1,"subjID":"juandaviuddiazrodriguez29","gender":"No_gender","age":"11","school":"No_school"},{"start_time":1551801384882,"click_time":1551801387061,"finger_time":1551801385741,"fix_duration":679.0216548451278,"trial":10,"RT":859,"MT":1320,"sideResp":2,"stimulus":"img/900/randomdotsizeEA/R/5_Ratio_900_L_9_R_10.png","xmouse":[768,768,768,768,768,768,768,768,768,768,768,768,768,768,768,768,768,768,768,768,768,768,768,768,768,768,768,768,768,768,768,768,768,768,768,768,768,768,768,768,776,783,792,802,828,838,848,852,852,852,852,852,852,852,852,853,853,853,853,846,828,808,777,766,763,763,763,763,758,749,746,744,744,744,744,742,737,726,711,681,670,663,659,659,657,656,656,656,656,656,656,656,656,656,691,721,757,791,832,884,900,909,920,936,960,973,990,1008,1031,1066],"ymouse":[496,496,496,496,496,496,496,496,496,496,496,496,496,496,496,496,496,496,496,496,496,496,496,496,496,496,496,496,496,496,496,496,496,496,496,496,496,496,496,496,483,466,450,435,406,397,390,389,388,388,388,388,388,388,388,388,388,388,388,387,392,400,420,428,431,431,431,431,433,442,444,445,445,445,445,445,442,423,402,361,344,331,319,312,299,296,294,294,294,294,294,294,294,293,306,314,321,322,317,286,270,255,236,206,167,148,130,116,104,92],"timestamp_mouse":[0,20,39,60,79,100,119,140,159,179,199,220,239,259,279,299,319,339,359,380,398,420,439,459,479,499,519,539,559,579,599,619,640,660,679,699,720,738,760,779,800,819,840,859,880,899,919,940,960,979,1000,1019,1039,1060,1079,1100,1119,1139,1160,1180,1199,1219,1239,1259,1279,1300,1320,1338,1360,1379,1399,1420,1439,1460,1479,1499,1519,1539,1560,1579,1600,1619,1639,1660,1678,1700,1719,1739,1759,1779,1800,1819,1839,1859,1879,1899,1920,1940,1958,1979,1999,2019,2038,2059,2080,2099,2120,2139,2160,2179],"xSR":741.5,"ySR":449.15000000000003,"xT1":424.9,"yT1":0,"xT2":1058.1,"yT2":0,"toosoon":0,"cond_shown":"randomdotsizeEA","ratio_trial":900,"smaller_num":"9","larger_num":"10","correct_side":2,"subjID":"juandaviuddiazrodriguez29","gender":"No_gender","age":"11","school":"No_school"},{"start_time":1551801388482,"click_time":1551801389742,"finger_time":1551801389341,"fix_duration":680.8916580469972,"trial":11,"RT":859,"MT":401,"sideResp":2,"stimulus":"img/250/randomdotsizeEA/R/10_Ratio_250_L_4_R_16.png","xmouse":[798,798,798,798,798,798,798,798,798,798,798,798,798,798,798,798,798,798,798,798,798,798,798,798,798,798,798,798,798,798,798,798,798,798,798,798,798,798,798,799,803,815,826,854,870,889,914,965,985,1000,1010,1016,1024,1036,1043,1051,1057,1071,1077,1085,1089,1092,1095],"ymouse":[501,501,501,501,501,501,501,501,501,501,501,501,501,501,501,501,501,501,501,501,501,501,501,501,501,501,501,501,501,501,501,501,501,501,501,501,501,501,501,487,479,452,435,396,377,361,343,314,303,294,287,281,264,237,219,204,188,151,134,118,106,100,96],"timestamp_mouse":[19,40,60,80,99,119,140,159,180,199,220,238,259,279,299,320,339,360,379,399,420,439,459,480,499,519,540,559,579,599,620,639,659,679,699,719,740,760,779,799,819,840,859,879,899,919,939,960,979,999,1019,1039,1059,1078,1099,1120,1139,1159,1180,1200,1219,1239,1260],"xSR":741.5,"ySR":449.15000000000003,"xT1":424.9,"yT1":0,"xT2":1058.1,"yT2":0,"toosoon":0,"cond_shown":"randomdotsizeEA","ratio_trial":250,"smaller_num":"4","larger_num":"16","correct_side":2,"subjID":"juandaviuddiazrodriguez29","gender":"No_gender","age":"11","school":"No_school"},{"start_time":1551801391347,"click_time":1551801392601,"finger_time":1551801392261,"fix_duration":884.3002737790633,"trial":12,"RT":914,"MT":340,"sideResp":2,"stimulus":"img/900/equaldotsize/R/14_Ratio_900_L_18_R_20.png","xmouse":[767,767,767,767,767,767,767,767,767,767,767,767,767,767,767,767,767,767,767,767,767,767,767,767,767,767,767,767,767,767,767,767,767,767,767,767,767,767,767,767,767,767,767,777,791,845,872,901,937,988,1007,1021,1030,1038,1043,1045,1048,1051,1059,1063,1073,1076,1080],"ymouse":[485,485,485,485,485,485,485,485,485,485,485,485,485,485,485,485,485,485,485,485,485,485,485,485,485,485,485,485,485,485,485,485,485,485,485,485,485,485,485,485,485,485,485,478,470,441,424,397,345,257,223,197,179,162,151,145,140,132,123,119,104,101,96],"timestamp_mouse":[15,34,54,74,95,114,135,154,174,194,214,235,254,273,294,314,334,354,374,394,414,434,453,474,495,513,534,554,574,594,614,634,655,674,694,714,734,754,774,794,814,834,854,874,894,914,934,954,975,995,1015,1034,1054,1074,1094,1114,1134,1154,1174,1194,1214,1234,1254],"xSR":741.5,"ySR":449.15000000000003,"xT1":424.9,"yT1":0,"xT2":1058.1,"yT2":0,"toosoon":0,"cond_shown":"equaldotsize","ratio_trial":900,"smaller_num":"18","larger_num":"20","correct_side":2,"subjID":"juandaviuddiazrodriguez29","gender":"No_gender","age":"11","school":"No_school"},{"start_time":1551801394006,"click_time":1551801395661,"finger_time":1551801395361,"fix_duration":564.6707135062579,"trial":13,"RT":1355,"MT":300,"sideResp":1,"stimulus":"img/900/equaldotanddens/L/1_Ratio_900_L_10_R_9.png","xmouse":[794,794,794,794,794,794,794,794,794,794,794,794,794,794,794,794,794,794,794,794,794,794,794,794,794,794,794,794,794,794,794,794,794,794,794,794,794,794,794,794,794,794,794,794,794,794,794,794,794,794,794,794,794,794,794,794,794,794,794,794,794,794,794,794,792,784,767,736,721,711,703,698,682,672,655,624,600,592,584,574,562,547,517],"ymouse":[497,497,497,497,497,497,497,497,497,497,497,497,497,497,497,497,497,497,497,497,497,497,497,497,497,497,497,497,497,497,497,497,497,497,497,497,497,497,497,497,497,497,497,497,497,497,497,497,497,497,497,497,497,497,497,497,497,497,497,497,497,497,497,497,496,486,463,423,403,384,367,354,318,300,271,226,184,166,153,137,121,105,77],"timestamp_mouse":[15,36,55,76,94,115,136,155,175,196,215,235,256,275,296,315,335,355,376,394,415,436,454,475,496,516,535,554,575,595,616,635,655,676,695,715,736,755,775,795,815,836,855,875,896,916,936,956,975,995,1015,1036,1055,1076,1095,1115,1135,1155,1175,1195,1216,1236,1255,1275,1295,1316,1336,1355,1375,1395,1415,1436,1454,1476,1495,1516,1536,1555,1575,1595,1615,1635,1655],"xSR":741.5,"ySR":449.15000000000003,"xT1":424.9,"yT1":0,"xT2":1058.1,"yT2":0,"toosoon":0,"cond_shown":"equaldotanddens","ratio_trial":900,"smaller_num":"9","larger_num":"10","correct_side":1,"subjID":"juandaviuddiazrodriguez29","gender":"No_gender","age":"11","school":"No_school"},{"start_time":1551801396732,"click_time":1551801398061,"finger_time":1551801397721,"fix_duration":250,"trial":14,"RT":989,"MT":340,"sideResp":2,"stimulus":"img/900/equaldotsize/L/2_Ratio_900_L_20_R_18.png","xmouse":[808,808,808,808,808,808,808,808,808,808,808,808,808,808,808,808,808,808,808,808,808,808,808,808,808,808,808,808,808,808,808,808,808,808,808,808,808,808,808,808,808,808,808,808,808,808,807,814,830,844,865,894,912,931,955,980,1017,1025,1029,1036,1039,1042,1044,1046,1049,1058,1063],"ymouse":[510,510,510,510,510,510,510,510,510,510,510,510,510,510,510,510,510,510,510,510,510,510,510,510,510,510,510,510,510,510,510,510,510,510,510,510,510,510,510,510,510,510,510,510,510,510,508,497,474,458,430,394,370,335,302,268,211,191,175,155,147,136,131,127,119,103,93],"timestamp_mouse":[10,32,49,70,90,109,129,149,169,189,209,229,249,270,290,309,330,350,369,389,409,430,449,470,489,509,529,549,569,589,609,630,649,670,689,709,729,749,770,789,810,830,849,869,889,909,929,949,968,989,1009,1030,1048,1069,1089,1109,1129,1149,1169,1190,1209,1229,1249,1269,1289,1309,1329],"xSR":741.5,"ySR":449.15000000000003,"xT1":424.9,"yT1":0,"xT2":1058.1,"yT2":0,"toosoon":0,"cond_shown":"equaldotsize","ratio_trial":900,"smaller_num":"18","larger_num":"20","correct_side":1,"subjID":"juandaviuddiazrodriguez29","gender":"No_gender","age":"11","school":"No_school"},{"start_time":1551801404295,"click_time":1551801405942,"finger_time":1551801405441,"fix_duration":1353.8844292032218,"trial":15,"RT":1146,"MT":501,"sideResp":1,"stimulus":"img/500/randomdotsizeEA/R/12_Ratio_500_L_1_R_2.png","xmouse":[796,796,796,796,796,796,796,796,796,796,796,796,796,796,796,796,796,796,796,796,796,796,796,796,796,796,796,796,796,796,796,796,796,796,796,796,796,796,796,796,796,796,796,796,796,796,796,796,796,796,796,796,796,796,786,779,759,741,712,698,685,679,673,666,662,657,651,645,634,630,628,623,620,604,597,589,583,576,556,549,542,528,517],"ymouse":[506,506,506,506,506,506,506,506,506,506,506,506,506,506,506,506,506,506,506,506,506,506,506,506,506,506,506,506,506,506,506,506,506,506,506,506,506,506,506,506,506,506,506,506,506,506,506,506,506,506,506,506,506,506,502,493,469,448,421,408,392,379,365,342,328,311,297,284,261,249,239,219,209,180,169,157,150,140,115,108,102,89,77],"timestamp_mouse":[6,26,47,67,87,107,127,146,166,186,207,226,246,265,287,307,327,346,367,386,406,427,447,467,486,507,526,547,567,586,607,626,646,667,687,705,726,747,766,786,807,825,847,867,886,907,926,947,965,987,1007,1026,1047,1066,1085,1106,1126,1146,1166,1186,1206,1226,1246,1267,1286,1306,1326,1346,1366,1386,1406,1427,1446,1466,1487,1506,1526,1547,1566,1586,1606,1625,1647],"xSR":741.5,"ySR":449.15000000000003,"xT1":424.9,"yT1":0,"xT2":1058.1,"yT2":0,"toosoon":0,"cond_shown":"randomdotsizeEA","ratio_trial":500,"smaller_num":"1","larger_num":"2","correct_side":2,"subjID":"juandaviuddiazrodriguez29","gender":"No_gender","age":"11","school":"No_school"},{"start_time":1551801407032,"click_time":1551801408881,"finger_time":1551801408321,"fix_duration":250,"trial":16,"RT":1289,"MT":560,"sideResp":2,"stimulus":"img/250/randomdotsizeEA/R/10_Ratio_250_L_4_R_16.png","xmouse":[761,761,761,761,761,761,761,761,761,761,761,761,761,761,761,761,761,761,761,761,761,761,761,761,761,761,761,761,761,761,761,761,761,761,761,761,761,761,761,761,761,761,761,761,761,761,761,761,761,761,761,761,761,761,761,761,761,761,761,761,761,761,761,757,744,741,737,737,737,737,737,737,737,737,740,754,809,833,855,877,906,923,935,956,961,983,1008,1016,1026,1035,1045,1062,1073],"ymouse":[481,481,481,481,481,481,481,481,481,481,481,481,481,481,481,481,481,481,481,481,481,481,481,481,481,481,481,481,481,481,481,481,481,481,481,481,481,481,481,481,481,481,481,481,481,481,481,481,481,481,481,481,481,481,481,481,481,481,481,481,481,481,480,471,449,442,438,438,438,438,438,438,438,438,437,435,419,409,400,386,361,343,321,284,272,231,187,171,157,145,131,111,99],"timestamp_mouse":[10,29,50,69,89,109,129,149,169,189,209,229,249,269,290,308,329,350,369,389,410,429,449,469,488,510,529,549,569,589,609,629,649,669,690,710,729,749,769,789,809,829,849,870,889,909,929,949,969,989,1009,1029,1049,1069,1089,1109,1128,1150,1169,1189,1209,1229,1249,1269,1289,1309,1330,1349,1369,1389,1409,1429,1450,1470,1490,1509,1529,1549,1569,1589,1610,1630,1649,1670,1689,1708,1730,1749,1769,1789,1809,1829,1849],"xSR":741.5,"ySR":449.15000000000003,"xT1":424.9,"yT1":0,"xT2":1058.1,"yT2":0,"toosoon":0,"cond_shown":"randomdotsizeEA","ratio_trial":250,"smaller_num":"4","larger_num":"16","correct_side":2,"subjID":"juandaviuddiazrodriguez29","gender":"No_gender","age":"11","school":"No_school"},{"start_time":1551801410407,"click_time":1551801412082,"finger_time":1551801411581,"fix_duration":706.7856018601544,"trial":17,"RT":1174,"MT":501,"sideResp":2,"stimulus":"img/250/equaldotsize/R/11_Ratio_250_L_3_R_12.png","xmouse":[807,807,807,807,807,807,807,807,807,807,807,807,807,807,807,807,807,807,807,807,807,807,807,807,807,807,807,807,807,807,807,807,807,807,807,807,807,807,807,804,801,798,797,797,797,797,797,797,797,797,797,797,797,797,797,797,798,812,832,859,888,912,950,964,969,971,973,980,985,992,999,1015,1024,1035,1045,1051,1057,1060,1061,1061,1066,1090,1101,1111],"ymouse":[492,492,492,492,492,492,492,492,492,492,492,492,492,492,492,492,492,492,492,492,492,492,492,492,492,492,492,492,492,492,492,492,492,492,492,492,492,492,492,485,475,466,464,464,464,464,464,464,464,464,464,464,464,464,464,464,462,451,434,413,390,367,333,319,312,306,300,277,261,247,235,208,195,182,169,163,157,154,154,152,145,115,104,94],"timestamp_mouse":[14,35,54,74,95,115,135,154,174,194,214,235,255,274,294,314,335,354,374,394,415,435,454,474,494,514,534,554,574,594,614,635,654,674,694,714,734,754,774,795,814,834,854,874,894,915,934,955,974,994,1014,1034,1054,1074,1094,1115,1133,1155,1174,1194,1214,1235,1254,1275,1294,1314,1334,1355,1374,1394,1414,1434,1454,1474,1494,1515,1534,1555,1574,1594,1614,1634,1654,1675],"xSR":741.5,"ySR":449.15000000000003,"xT1":424.9,"yT1":0,"xT2":1058.1,"yT2":0,"toosoon":0,"cond_shown":"equaldotsize","ratio_trial":250,"smaller_num":"3","larger_num":"12","correct_side":2,"subjID":"juandaviuddiazrodriguez29","gender":"No_gender","age":"11","school":"No_school"},{"start_time":1551801413454,"click_time":1551801414821,"finger_time":1551801414400,"fix_duration":513.1438010782622,"trial":18,"RT":946,"MT":421,"sideResp":1,"stimulus":"img/900/equaldotanddens/L/8_Ratio_900_L_20_R_18.png","xmouse":[820,820,820,820,818,814,812,811,809,808,808,808,808,808,808,808,808,808,808,808,808,808,808,808,808,808,808,808,808,808,808,808,808,808,808,808,808,808,808,808,808,808,808,808,806,788,757,727,694,646,629,617,610,598,584,552,533,519,507,501,489,486,483,482,476,470,468,465,465],"ymouse":[503,503,503,503,503,503,503,503,502,502,502,502,502,502,502,502,502,502,502,502,502,502,502,502,502,502,502,502,502,502,502,502,502,502,502,502,502,502,502,502,502,502,502,502,499,482,460,443,424,397,384,371,362,344,328,300,286,276,268,263,243,230,208,200,169,129,113,103,96],"timestamp_mouse":[7,28,47,67,87,107,127,148,167,187,207,227,247,268,288,307,327,347,367,387,408,427,448,467,487,507,527,547,568,587,607,628,647,668,687,707,727,747,767,787,807,828,848,868,887,908,927,946,967,988,1007,1027,1047,1068,1087,1107,1128,1148,1167,1187,1207,1227,1247,1267,1287,1307,1328,1347,1367],"xSR":741.5,"ySR":449.15000000000003,"xT1":424.9,"yT1":0,"xT2":1058.1,"yT2":0,"toosoon":0,"cond_shown":"equaldotanddens","ratio_trial":900,"smaller_num":"18","larger_num":"20","correct_side":1,"subjID":"juandaviuddiazrodriguez29","gender":"No_gender","age":"11","school":"No_school"},{"start_time":1551801416695,"click_time":1551801417802,"finger_time":1551801417522,"fix_duration":1153.9855459650971,"trial":19,"RT":827,"MT":280,"sideResp":1,"stimulus":"img/250/randomdotsizeEA/L/7_Ratio_250_L_8_R_2.png","xmouse":[796,796,796,796,796,796,796,796,796,796,796,796,796,796,796,796,796,796,796,796,796,796,796,796,796,796,796,796,796,796,796,796,796,796,796,796,796,796,795,781,763,728,687,621,600,580,559,543,516,503,488,468,460,453,453,451],"ymouse":[513,513,513,513,513,513,513,513,513,513,513,513,513,513,513,513,513,513,513,513,513,513,513,513,513,513,513,513,513,513,513,513,513,513,513,513,513,513,504,483,467,445,418,359,328,292,257,228,183,162,145,123,115,105,101,96],"timestamp_mouse":[6,27,46,66,86,106,126,147,166,186,207,226,246,267,286,307,326,346,367,387,407,426,446,466,487,506,526,546,566,586,606,626,646,666,686,707,726,746,767,786,806,827,846,867,886,906,926,947,966,987,1006,1026,1046,1066,1086,1107],"xSR":741.5,"ySR":449.15000000000003,"xT1":424.9,"yT1":0,"xT2":1058.1,"yT2":0,"toosoon":0,"cond_shown":"randomdotsizeEA","ratio_trial":250,"smaller_num":"2","larger_num":"8","correct_side":1,"subjID":"juandaviuddiazrodriguez29","gender":"No_gender","age":"11","school":"No_school"},{"start_time":1551801418933,"click_time":1551801420521,"finger_time":1551801420162,"fix_duration":250,"trial":20,"RT":1229,"MT":359,"sideResp":2,"stimulus":"img/750/randomdotsizeEA/R/4_Ratio_750_L_15_R_20.png","xmouse":[809,809,809,809,809,809,809,809,809,809,809,809,809,809,809,809,809,809,809,809,809,809,809,809,809,809,809,809,809,809,809,809,809,809,809,809,809,809,809,809,809,809,809,809,809,809,809,809,809,809,809,809,809,809,809,809,809,809,810,816,831,866,892,915,934,965,980,996,1012,1031,1058,1089,1099,1106,1110,1113,1118,1121,1125,1129],"ymouse":[497,497,497,497,497,497,497,497,497,497,497,497,497,497,497,497,497,497,497,497,497,497,497,497,497,497,497,497,497,497,497,497,497,497,497,497,497,497,497,497,497,497,497,497,497,497,497,497,497,497,497,497,497,497,497,497,497,497,497,493,471,426,399,380,366,342,329,315,298,275,239,200,187,175,162,154,137,125,113,94],"timestamp_mouse":[8,28,49,68,88,108,128,148,168,189,208,229,249,268,289,309,328,348,368,389,409,428,449,469,488,508,529,548,568,588,607,628,648,669,689,708,729,748,768,788,809,828,849,869,888,909,928,948,968,988,1008,1029,1048,1069,1089,1108,1128,1148,1168,1188,1208,1229,1248,1268,1288,1308,1329,1349,1368,1389,1408,1429,1448,1468,1488,1509,1528,1548,1568,1588],"xSR":741.5,"ySR":449.15000000000003,"xT1":424.9,"yT1":0,"xT2":1058.1,"yT2":0,"toosoon":0,"cond_shown":"randomdotsizeEA","ratio_trial":750,"smaller_num":"15","larger_num":"20","correct_side":2,"subjID":"juandaviuddiazrodriguez29","gender":"No_gender","age":"11","school":"No_school"},{"start_time":1551801421782,"click_time":1551801422862,"finger_time":1551801422561,"fix_duration":500.63443685655284,"trial":21,"RT":779,"MT":301,"sideResp":1,"stimulus":"img/900/equaldotsize/L/10_Ratio_900_L_20_R_18.png","xmouse":[775,775,775,775,775,775,775,775,775,775,775,775,775,775,775,775,775,775,775,775,775,775,775,775,775,775,775,775,775,775,775,775,775,775,775,774,773,765,743,730,714,699,671,657,648,640,632,625,608,599,587,575,535,515],"ymouse":[525,525,525,525,525,525,525,525,525,525,525,525,525,525,525,525,525,525,525,525,525,525,525,525,525,525,525,525,525,525,525,525,525,525,525,523,514,488,436,404,378,351,302,279,261,244,220,205,178,165,149,135,103,92],"timestamp_mouse":[19,39,59,80,99,120,138,159,179,199,219,240,259,279,300,320,339,358,380,400,419,439,460,480,500,519,540,559,579,599,620,639,660,679,699,719,739,759,779,798,819,839,860,879,899,919,939,959,980,999,1020,1039,1060,1079],"xSR":741.5,"ySR":449.15000000000003,"xT1":424.9,"yT1":0,"xT2":1058.1,"yT2":0,"toosoon":0,"cond_shown":"equaldotsize","ratio_trial":900,"smaller_num":"18","larger_num":"20","correct_side":1,"subjID":"juandaviuddiazrodriguez29","gender":"No_gender","age":"11","school":"No_school"},{"start_time":1551801424767,"click_time":1551801426261,"finger_time":1551801425962,"fix_duration":1225.6667226634515,"trial":22,"RT":1195,"MT":299,"sideResp":2,"stimulus":"img/900/equaldotsize/R/9_Ratio_900_L_18_R_20.png","xmouse":[799,799,799,799,799,799,799,799,799,799,799,799,799,799,799,799,799,799,799,799,799,799,799,799,799,799,799,799,799,799,799,799,799,799,799,799,799,799,799,799,799,799,799,799,799,799,799,799,799,799,799,799,799,799,799,799,799,799,800,881,931,971,1005,1026,1055,1067,1077,1085,1104,1113,1119,1126,1131,1137,1142],"ymouse":[480,480,480,480,480,480,480,480,480,480,480,480,480,480,480,480,480,480,480,480,480,480,480,480,480,480,480,480,480,480,480,480,480,480,480,480,480,480,480,480,480,480,480,480,480,480,480,480,480,480,480,480,480,480,480,480,480,480,480,419,383,349,320,303,278,266,255,244,217,200,183,160,138,114,76],"timestamp_mouse":[14,34,54,74,95,115,134,155,174,194,214,233,254,275,294,314,335,354,375,394,414,434,454,474,494,514,534,554,574,595,614,635,654,674,694,714,734,754,774,794,814,834,854,875,894,914,934,954,974,994,1014,1034,1054,1074,1095,1114,1134,1155,1174,1195,1214,1235,1254,1274,1294,1315,1333,1355,1375,1394,1414,1434,1454,1474,1494],"xSR":741.5,"ySR":449.15000000000003,"xT1":424.9,"yT1":0,"xT2":1058.1,"yT2":0,"toosoon":0,"cond_shown":"equaldotsize","ratio_trial":900,"smaller_num":"18","larger_num":"20","correct_side":2,"subjID":"juandaviuddiazrodriguez29","gender":"No_gender","age":"11","school":"No_school"},{"start_time":1551801427525,"click_time":1551801428702,"finger_time":1551801428221,"fix_duration":303.6663425304834,"trial":23,"RT":696,"MT":481,"sideResp":2,"stimulus":"img/250/randomdotsizeEA/R/13_Ratio_250_L_2_R_8.png","xmouse":[765,765,765,765,765,765,765,765,765,765,765,765,765,765,765,765,765,765,765,765,765,765,765,765,765,765,765,765,765,765,765,765,773,793,820,848,904,923,936,948,954,966,976,993,1009,1033,1041,1050,1056,1067,1073,1083,1087,1089,1090,1091,1093,1094,1097],"ymouse":[466,466,466,466,466,466,466,466,466,466,466,466,466,466,466,466,466,466,466,466,466,466,466,466,466,466,466,466,466,466,466,466,465,455,443,434,411,400,388,369,352,310,283,254,231,203,194,186,179,163,153,136,129,122,119,115,109,104,97],"timestamp_mouse":[15,36,57,76,96,117,137,156,175,196,217,236,256,276,297,316,336,356,376,397,415,436,457,476,496,516,536,557,577,596,617,637,656,677,696,716,736,756,776,797,815,836,856,876,896,916,936,956,976,996,1016,1036,1056,1077,1096,1116,1136,1156,1176],"xSR":741.5,"ySR":449.15000000000003,"xT1":424.9,"yT1":0,"xT2":1058.1,"yT2":0,"toosoon":0,"cond_shown":"randomdotsizeEA","ratio_trial":250,"smaller_num":"2","larger_num":"8","correct_side":2,"subjID":"juandaviuddiazrodriguez29","gender":"No_gender","age":"11","school":"No_school"},{"start_time":1551801430912,"click_time":1551801432181,"finger_time":1551801431861,"fix_duration":1350.0503929692063,"trial":24,"RT":949,"MT":320,"sideResp":1,"stimulus":"img/900/randomdotsizeEA/L/1_Ratio_900_L_10_R_9.png","xmouse":[787,787,787,787,787,787,787,787,787,787,787,787,787,787,787,787,787,787,787,787,787,787,787,787,787,787,787,787,787,787,787,787,787,787,787,787,787,787,787,787,787,787,787,787,787,787,779,753,740,725,714,700,680,670,659,649,630,620,612,604,587,574,540,520],"ymouse":[512,512,512,512,512,512,512,512,512,512,512,512,512,512,512,512,512,512,512,512,512,512,512,512,512,512,512,512,512,512,512,512,512,512,512,512,512,512,512,512,512,512,512,512,512,506,488,428,407,386,369,348,316,302,286,272,244,229,217,201,175,158,116,92],"timestamp_mouse":[9,30,49,70,89,110,129,149,169,189,210,229,249,270,289,309,330,349,369,389,409,429,449,469,489,509,530,548,569,589,609,630,649,669,689,709,730,750,769,790,810,829,849,869,889,909,928,949,969,989,1009,1029,1050,1069,1089,1109,1129,1149,1169,1189,1209,1229,1249,1269],"xSR":741.5,"ySR":449.15000000000003,"xT1":424.9,"yT1":0,"xT2":1058.1,"yT2":0,"toosoon":0,"cond_shown":"randomdotsizeEA","ratio_trial":900,"smaller_num":"9","larger_num":"10","correct_side":1,"subjID":"juandaviuddiazrodriguez29","gender":"No_gender","age":"11","school":"No_school"},{"start_time":1551801433602,"click_time":1551801434861,"finger_time":1551801434361,"fix_duration":660.057958063957,"trial":25,"RT":759,"MT":500,"sideResp":1,"stimulus":"img/250/equaldotanddens/L/14_Ratio_250_L_12_R_3.png","xmouse":[825,825,825,825,825,825,825,825,825,825,825,825,825,825,825,825,825,825,825,825,825,825,825,825,825,825,825,825,825,825,825,825,825,825,818,809,768,704,678,662,653,647,640,634,627,614,605,592,588,583,579,572,558,549,538,526,502,496,489,480,473,468,463],"ymouse":[479,479,479,479,479,479,479,479,479,479,479,479,479,479,479,479,479,479,479,479,479,479,479,479,479,479,479,479,479,479,479,479,479,479,480,478,471,453,438,422,400,376,323,299,281,255,245,228,223,216,210,202,184,175,166,158,141,135,128,117,107,100,91],"timestamp_mouse":[18,40,59,79,99,118,139,160,179,199,219,240,260,280,299,319,340,359,380,400,419,439,459,480,499,519,540,559,578,600,620,638,660,680,699,719,739,759,780,799,819,839,859,880,899,920,938,960,979,999,1019,1040,1059,1079,1099,1120,1140,1158,1179,1199,1219,1239,1259],"xSR":741.5,"ySR":449.15000000000003,"xT1":424.9,"yT1":0,"xT2":1058.1,"yT2":0,"toosoon":0,"cond_shown":"equaldotanddens","ratio_trial":250,"smaller_num":"3","larger_num":"12","correct_side":1,"subjID":"juandaviuddiazrodriguez29","gender":"No_gender","age":"11","school":"No_school"},{"start_time":1551801435911,"click_time":1551801437301,"finger_time":1551801436942,"fix_duration":250,"trial":26,"RT":1031,"MT":359,"sideResp":1,"stimulus":"img/250/equaldotsize/L/7_Ratio_250_L_8_R_2.png","xmouse":[763,763,763,763,763,763,763,763,763,763,763,763,763,763,763,763,763,763,763,763,763,763,763,763,763,763,763,763,763,763,763,763,763,763,763,763,763,763,763,763,763,763,763,763,763,763,763,763,763,764,758,740,696,679,662,649,624,616,608,602,594,586,571,563,554,545,526,517,508,500],"ymouse":[472,472,472,472,472,472,472,472,472,472,472,472,472,472,472,472,472,472,472,472,472,472,472,472,472,472,472,472,472,472,472,472,472,472,472,472,472,472,472,472,472,472,472,472,472,472,472,472,472,472,451,420,354,333,311,289,248,232,218,207,196,185,166,155,144,134,118,110,103,96],"timestamp_mouse":[11,30,50,70,90,111,130,150,170,190,210,230,251,270,290,310,330,351,371,391,410,430,450,470,490,511,530,550,570,589,611,631,650,671,690,710,731,750,771,790,811,831,850,870,890,910,930,950,970,990,1011,1031,1050,1070,1090,1110,1131,1150,1172,1190,1211,1230,1252,1270,1291,1310,1331,1350,1370,1390],"xSR":741.5,"ySR":449.15000000000003,"xT1":424.9,"yT1":0,"xT2":1058.1,"yT2":0,"toosoon":0,"cond_shown":"equaldotsize","ratio_trial":250,"smaller_num":"2","larger_num":"8","correct_side":1,"subjID":"juandaviuddiazrodriguez29","gender":"No_gender","age":"11","school":"No_school"},{"start_time":1551801439023,"click_time":1551801440322,"finger_time":1551801440062,"fix_duration":959.3791040113898,"trial":27,"RT":1039,"MT":260,"sideResp":2,"stimulus":"img/500/equaldotsize/R/15_Ratio_500_L_1_R_2.png","xmouse":[793,793,793,793,793,793,793,793,793,793,793,793,793,793,793,793,793,793,793,793,793,793,793,793,793,793,793,793,793,793,793,793,793,793,793,793,793,788,776,766,762,761,761,761,761,761,761,761,761,761,761,761,783,805,834,865,911,959,979,998,1015,1046,1065,1085,1099,1118],"ymouse":[502,502,502,502,502,502,502,502,502,502,502,502,502,502,502,502,502,502,502,502,502,502,502,502,502,502,502,502,502,502,502,502,502,502,502,502,502,492,477,467,464,463,463,463,463,463,463,463,463,463,463,461,446,434,415,392,355,318,300,284,265,215,185,153,127,96],"timestamp_mouse":[0,19,39,59,78,99,119,139,159,178,198,218,239,259,279,299,320,339,358,379,398,418,438,458,479,499,518,539,558,578,599,618,639,658,678,698,719,738,758,779,799,818,838,859,880,898,918,939,958,978,998,1019,1039,1058,1078,1098,1118,1138,1158,1179,1198,1219,1238,1259,1279,1299],"xSR":741.5,"ySR":449.15000000000003,"xT1":424.9,"yT1":0,"xT2":1058.1,"yT2":0,"toosoon":0,"cond_shown":"equaldotsize","ratio_trial":500,"smaller_num":"1","larger_num":"2","correct_side":2,"subjID":"juandaviuddiazrodriguez29","gender":"No_gender","age":"11","school":"No_school"},{"start_time":1551801442188,"click_time":1551801444061,"finger_time":1551801443581,"fix_duration":846.3113654911623,"trial":28,"RT":1393,"MT":480,"sideResp":2,"stimulus":"img/750/randomdotsizeEA/R/12_Ratio_750_L_3_R_4.png","xmouse":[799,799,799,799,799,799,799,799,799,799,799,799,799,799,799,799,799,799,799,799,799,799,799,799,799,799,799,799,799,799,799,799,799,799,799,799,799,799,799,799,799,799,799,799,799,799,799,799,799,799,799,799,799,799,799,799,799,799,799,799,799,799,799,799,799,799,799,799,801,839,890,941,983,1034,1042,1047,1051,1056,1063,1065,1068,1070,1071,1076,1080,1082,1085,1088,1092,1093,1093,1094,1094,1094],"ymouse":[485,485,485,485,485,485,485,485,485,485,485,485,485,485,485,485,485,485,485,485,485,485,485,485,485,485,485,485,485,485,485,485,485,485,485,485,485,485,485,485,485,485,485,485,485,485,485,485,485,485,485,485,485,485,485,485,485,485,485,485,485,485,485,485,485,485,485,485,481,449,418,390,366,338,331,319,307,290,257,246,236,225,216,183,167,155,139,123,110,107,105,104,103,99],"timestamp_mouse":[13,33,54,75,93,114,134,154,173,194,214,234,254,274,294,313,333,353,374,393,414,434,453,475,494,514,534,554,573,595,613,634,653,674,695,713,733,753,773,793,813,833,853,873,893,913,933,953,973,993,1015,1033,1053,1073,1094,1113,1135,1155,1173,1194,1213,1241,1254,1273,1293,1314,1333,1353,1375,1393,1413,1433,1453,1473,1493,1513,1533,1553,1573,1593,1613,1633,1653,1673,1693,1713,1734,1753,1773,1793,1814,1833,1854,1873],"xSR":741.5,"ySR":449.15000000000003,"xT1":424.9,"yT1":0,"xT2":1058.1,"yT2":0,"toosoon":0,"cond_shown":"randomdotsizeEA","ratio_trial":750,"smaller_num":"3","larger_num":"4","correct_side":2,"subjID":"juandaviuddiazrodriguez29","gender":"No_gender","age":"11","school":"No_school"},{"start_time":1551801445273,"click_time":1551801447562,"finger_time":1551801446942,"fix_duration":250,"trial":29,"RT":1669,"MT":620,"sideResp":1,"stimulus":"img/900/randomdotsizeEA/L/8_Ratio_900_L_20_R_18.png","xmouse":[789,789,789,789,789,789,789,789,789,789,789,789,789,789,789,789,789,789,789,789,789,789,789,789,789,789,789,789,789,789,789,789,789,789,789,789,789,789,789,789,789,789,789,789,789,789,789,789,789,789,789,789,789,789,789,789,789,789,789,789,789,789,789,789,789,789,789,789,789,789,789,789,789,789,789,789,789,789,789,783,779,770,761,739,707,694,683,670,658,635,624,610,590,578,557,549,541,539,536,532,531,531,530,529,527,526,526,526,525,525,525,525,524,523,519],"ymouse":[519,519,519,519,519,519,519,519,519,519,519,519,519,519,519,519,519,519,519,519,519,519,519,519,519,519,519,519,519,519,519,519,519,519,519,519,519,519,519,519,519,519,519,519,519,519,519,519,519,519,519,519,519,519,519,519,519,519,519,519,519,519,519,519,519,519,519,519,519,519,519,519,519,519,519,519,519,519,519,516,508,499,489,474,456,447,437,425,412,389,375,359,333,317,290,280,271,265,256,235,218,200,181,159,135,128,123,118,111,107,107,105,104,101,96],"timestamp_mouse":[9,28,48,70,89,109,130,148,169,188,208,230,248,269,288,309,328,348,368,388,409,429,448,470,488,509,528,549,568,588,608,628,648,669,689,709,729,749,768,788,808,829,848,868,889,909,929,948,969,988,1008,1029,1049,1069,1088,1109,1129,1148,1169,1189,1208,1228,1248,1268,1288,1308,1329,1349,1369,1388,1409,1429,1449,1469,1488,1508,1529,1548,1568,1589,1609,1628,1649,1669,1689,1708,1728,1748,1768,1789,1808,1828,1849,1868,1888,1908,1928,1948,1968,1988,2008,2028,2049,2068,2088,2109,2129,2148,2169,2188,2209,2229,2248,2268,2289],"xSR":741.5,"ySR":449.15000000000003,"xT1":424.9,"yT1":0,"xT2":1058.1,"yT2":0,"toosoon":0,"cond_shown":"randomdotsizeEA","ratio_trial":900,"smaller_num":"18","larger_num":"20","correct_side":1,"subjID":"juandaviuddiazrodriguez29","gender":"No_gender","age":"11","school":"No_school"},{"start_time":1551801448893,"click_time":1551801450042,"finger_time":1551801449661,"fix_duration":370.3491683516207,"trial":30,"RT":768,"MT":381,"sideResp":2,"stimulus":"img/250/equaldotsize/R/11_Ratio_250_L_3_R_12.png","xmouse":[778,778,778,778,778,778,778,778,778,778,778,778,778,778,778,778,778,778,778,778,778,778,778,778,778,778,778,778,778,778,778,778,778,778,778,778,784,789,809,821,829,836,848,867,880,894,907,919,938,948,961,970,981,1006,1018,1031,1044,1067],"ymouse":[472,472,472,472,472,472,472,472,472,472,472,472,472,472,472,472,472,472,472,472,472,472,472,472,472,472,472,472,472,472,472,472,472,472,472,472,461,452,422,405,393,380,359,319,301,281,262,245,215,200,186,177,167,145,135,123,111,90],"timestamp_mouse":[8,28,49,69,89,108,128,150,168,188,208,229,248,268,288,308,328,349,369,388,408,429,449,469,489,509,528,548,568,588,608,630,648,669,689,708,728,748,768,788,808,828,848,869,888,908,928,948,968,989,1008,1029,1048,1068,1088,1108,1128,1149],"xSR":741.5,"ySR":449.15000000000003,"xT1":424.9,"yT1":0,"xT2":1058.1,"yT2":0,"toosoon":0,"cond_shown":"equaldotsize","ratio_trial":250,"smaller_num":"3","larger_num":"12","correct_side":2,"subjID":"juandaviuddiazrodriguez29","gender":"No_gender","age":"11","school":"No_school"},{"start_time":1551801452369,"click_time":1551801453941,"finger_time":1551801453461,"fix_duration":1445.166313628131,"trial":31,"RT":1092,"MT":480,"sideResp":2,"stimulus":"img/900/equaldotsize/L/2_Ratio_900_L_20_R_18.png","xmouse":[806,806,806,806,806,806,806,806,806,806,806,806,806,806,806,806,806,806,806,806,806,806,806,806,806,806,806,806,806,806,806,806,806,806,806,806,806,806,806,806,806,806,806,806,806,806,806,806,806,806,805,809,820,835,864,875,887,897,905,916,923,932,942,951,968,974,978,983,986,994,1000,1007,1014,1020,1034,1041,1051,1069,1081],"ymouse":[499,499,499,499,499,499,499,499,499,499,499,499,499,499,499,499,499,499,499,499,499,499,499,499,499,499,499,499,499,499,499,499,499,499,499,499,499,499,499,499,499,499,499,499,499,499,499,499,499,499,496,484,471,457,430,418,404,392,379,353,336,316,292,273,235,219,210,199,192,179,173,167,162,156,140,132,121,104,95],"timestamp_mouse":[12,32,53,72,92,113,133,154,173,193,212,232,253,273,293,312,332,354,372,392,412,432,453,472,492,513,533,553,573,592,613,632,652,673,693,712,733,752,772,793,813,832,852,873,892,912,932,953,973,993,1012,1033,1052,1072,1092,1112,1132,1152,1173,1192,1212,1232,1252,1272,1293,1312,1332,1353,1372,1392,1414,1433,1452,1472,1492,1513,1532,1553,1572],"xSR":741.5,"ySR":449.15000000000003,"xT1":424.9,"yT1":0,"xT2":1058.1,"yT2":0,"toosoon":0,"cond_shown":"equaldotsize","ratio_trial":900,"smaller_num":"18","larger_num":"20","correct_side":1,"subjID":"juandaviuddiazrodriguez29","gender":"No_gender","age":"11","school":"No_school"},{"start_time":1551801464411,"click_time":1551801465882,"finger_time":1551801465461,"fix_duration":808.1088516471345,"trial":32,"RT":1050,"MT":421,"sideResp":1,"stimulus":"img/500/equaldotanddens/L/5_Ratio_500_L_4_R_2.png","xmouse":[766,766,766,766,766,766,766,766,766,766,766,766,766,766,766,766,766,766,766,766,766,766,766,766,766,766,766,766,766,766,766,766,766,766,766,766,766,766,766,766,766,766,766,766,766,766,766,766,766,766,761,752,707,667,591,548,516,477,464,458,453,447,445,444,443,445,447,456,460,465,471,480,482,486],"ymouse":[476,476,476,476,476,476,476,476,476,476,476,476,476,476,476,476,476,476,476,476,476,476,476,476,476,476,476,476,476,476,476,476,476,476,476,476,476,476,476,476,476,476,476,476,476,476,476,476,476,476,471,462,425,401,364,346,334,312,300,290,280,256,242,228,216,202,190,169,158,148,136,115,106,97],"timestamp_mouse":[10,31,52,72,92,110,130,152,171,190,212,231,251,271,291,311,330,350,370,390,411,431,450,470,490,511,530,550,570,590,611,630,651,672,690,710,730,752,771,790,811,831,850,870,890,910,930,950,970,992,1010,1030,1050,1070,1091,1110,1132,1150,1170,1190,1210,1232,1250,1270,1290,1311,1330,1351,1370,1390,1410,1431,1451,1471],"xSR":741.5,"ySR":449.15000000000003,"xT1":424.9,"yT1":0,"xT2":1058.1,"yT2":0,"toosoon":0,"cond_shown":"equaldotanddens","ratio_trial":500,"smaller_num":"2","larger_num":"4","correct_side":1,"subjID":"juandaviuddiazrodriguez29","gender":"No_gender","age":"11","school":"No_school"},{"start_time":1551801467173,"click_time":1551801468722,"finger_time":1551801468321,"fix_duration":250,"trial":33,"RT":1148,"MT":401,"sideResp":1,"stimulus":"img/900/equaldotanddens/R/7_Ratio_900_L_9_R_10.png","xmouse":[809,809,809,809,808,808,808,808,808,808,808,808,808,808,808,808,808,808,808,808,808,808,808,808,808,808,808,808,808,808,808,808,808,808,808,808,808,808,808,808,808,808,808,808,808,808,807,804,802,801,801,801,800,798,786,769,761,745,722,681,654,628,591,560,510,492,467,460,445,435,432,431,430,430,432,435,439,445],"ymouse":[483,483,483,483,484,484,484,484,484,484,484,484,484,484,484,484,484,484,484,484,484,484,484,484,484,484,484,484,484,484,484,484,484,484,484,484,484,484,484,484,484,484,484,484,484,484,483,482,480,479,479,479,478,477,470,461,456,446,427,385,354,327,298,273,239,224,203,195,178,163,154,148,142,134,117,109,103,95],"timestamp_mouse":[8,28,48,68,88,109,128,148,169,189,209,230,249,268,289,308,328,348,368,388,408,429,448,469,488,508,528,549,570,588,608,628,648,669,688,709,728,748,769,788,808,830,849,870,888,908,928,949,970,988,1008,1029,1048,1070,1088,1109,1128,1148,1168,1188,1210,1228,1248,1268,1288,1309,1328,1348,1368,1389,1408,1428,1448,1468,1488,1508,1528,1549],"xSR":741.5,"ySR":449.15000000000003,"xT1":424.9,"yT1":0,"xT2":1058.1,"yT2":0,"toosoon":0,"cond_shown":"equaldotanddens","ratio_trial":900,"smaller_num":"9","larger_num":"10","correct_side":2,"subjID":"juandaviuddiazrodriguez29","gender":"No_gender","age":"11","school":"No_school"},{"start_time":1551801470013,"click_time":1551801471181,"finger_time":1551801470761,"fix_duration":250,"trial":34,"RT":748,"MT":420,"sideResp":2,"stimulus":"img/750/equaldotanddens/R/4_Ratio_750_L_15_R_20.png","xmouse":[767,767,767,767,767,767,767,767,767,767,767,767,767,767,767,767,767,767,767,767,767,767,767,767,767,767,767,767,767,767,767,767,767,767,767,773,798,848,873,892,909,932,941,951,960,973,983,1000,1007,1012,1016,1019,1027,1031,1034,1042,1052,1056,1059],"ymouse":[505,505,505,505,505,505,505,505,505,505,505,505,505,505,505,505,505,505,505,505,505,505,505,505,505,505,505,505,505,505,505,505,505,505,505,504,479,441,423,408,391,353,332,310,288,255,233,199,182,170,160,152,136,127,121,108,99,97,93],"timestamp_mouse":[9,30,49,69,90,108,128,148,169,190,208,228,249,269,289,309,329,349,369,389,408,428,449,468,489,508,528,549,568,589,609,628,649,669,688,708,729,748,769,788,808,830,848,869,888,910,929,949,968,989,1009,1028,1048,1068,1088,1108,1130,1149,1168],"xSR":741.5,"ySR":449.15000000000003,"xT1":424.9,"yT1":0,"xT2":1058.1,"yT2":0,"toosoon":0,"cond_shown":"equaldotanddens","ratio_trial":750,"smaller_num":"15","larger_num":"20","correct_side":2,"subjID":"juandaviuddiazrodriguez29","gender":"No_gender","age":"11","school":"No_school"},{"start_time":1551801474700,"click_time":1551801476001,"finger_time":1551801475561,"fix_duration":1197.7169302383631,"trial":35,"RT":861,"MT":440,"sideResp":1,"stimulus":"img/250/equaldotanddens/L/5_Ratio_250_L_24_R_6.png","xmouse":[822,822,822,822,822,822,822,822,822,822,822,822,822,822,822,822,822,822,822,822,822,822,822,822,822,822,822,822,822,822,822,822,822,822,822,822,822,822,822,822,822,821,817,774,761,749,735,706,691,677,663,650,632,620,619,617,614,609,594,578,560,542,521,500,490,482],"ymouse":[525,525,525,525,525,525,525,525,525,525,525,525,525,525,525,525,525,525,525,525,525,525,525,525,525,525,525,525,525,525,525,525,525,525,525,525,525,525,525,525,525,522,511,447,431,412,391,343,319,299,281,267,253,246,245,245,244,242,236,225,212,197,163,125,107,97],"timestamp_mouse":[4,22,41,61,81,102,121,143,161,181,202,222,242,261,281,303,321,341,362,381,401,421,441,461,481,502,522,541,561,582,602,621,641,661,681,701,721,741,762,781,802,821,841,861,881,902,921,942,961,981,1002,1022,1042,1062,1081,1101,1121,1141,1161,1181,1201,1222,1241,1262,1282,1301],"xSR":741.5,"ySR":449.15000000000003,"xT1":424.9,"yT1":0,"xT2":1058.1,"yT2":0,"toosoon":0,"cond_shown":"equaldotanddens","ratio_trial":250,"smaller_num":"6","larger_num":"24","correct_side":1,"subjID":"juandaviuddiazrodriguez29","gender":"No_gender","age":"11","school":"No_school"},{"start_time":1551801477491,"click_time":1551801478861,"finger_time":1551801478202,"fix_duration":709.7241176123493,"trial":36,"RT":711,"MT":659,"sideResp":2,"stimulus":"img/900/randomdotsizeEA/L/1_Ratio_900_L_10_R_9.png","xmouse":[774,774,774,774,774,774,774,774,774,774,774,774,774,774,774,774,774,774,774,774,774,774,774,774,774,774,776,778,784,786,790,792,799,804,805,807,810,813,823,828,834,846,854,870,877,885,890,898,912,920,932,949,974,985,994,1003,1008,1012,1016,1018,1019,1020,1020,1027,1034,1042,1056,1068,1090],"ymouse":[498,498,498,498,498,498,498,498,498,498,498,498,498,498,498,498,498,498,498,498,498,498,498,498,498,498,492,490,483,480,476,474,467,458,453,447,438,427,409,402,393,380,372,357,351,343,337,329,318,312,303,290,267,253,241,229,221,214,207,204,201,200,198,186,174,157,136,115,78],"timestamp_mouse":[11,30,52,71,90,111,131,150,170,192,210,231,252,270,290,310,332,351,370,390,410,430,451,470,491,511,531,550,570,590,610,630,651,670,692,711,730,751,770,790,810,830,850,871,890,910,930,951,970,991,1010,1030,1051,1071,1090,1110,1130,1150,1170,1191,1211,1230,1251,1271,1290,1310,1330,1350,1370],"xSR":741.5,"ySR":449.15000000000003,"xT1":424.9,"yT1":0,"xT2":1058.1,"yT2":0,"toosoon":0,"cond_shown":"randomdotsizeEA","ratio_trial":900,"smaller_num":"9","larger_num":"10","correct_side":1,"subjID":"juandaviuddiazrodriguez29","gender":"No_gender","age":"11","school":"No_school"},{"start_time":1551801480981,"click_time":1551801482462,"finger_time":1551801482042,"fix_duration":1200.7943049425905,"trial":37,"RT":1061,"MT":420,"sideResp":2,"stimulus":"img/750/randomdotsizeEA/R/2_Ratio_750_L_6_R_8.png","xmouse":[783,783,783,783,783,783,783,783,783,783,783,783,783,783,783,783,783,783,783,783,783,783,783,783,783,783,783,783,783,783,783,783,783,783,783,783,783,780,776,775,775,775,775,775,775,775,775,775,775,775,775,775,795,812,835,859,885,909,923,928,935,944,953,983,997,1011,1022,1030,1046,1055,1065,1081,1109,1119],"ymouse":[467,467,467,467,467,467,467,467,467,467,467,467,467,467,467,467,467,467,467,467,467,467,467,467,467,467,467,467,467,467,467,467,467,467,467,467,467,465,461,460,460,460,460,460,460,460,460,460,460,460,459,456,432,417,401,383,365,343,317,305,291,274,245,187,167,148,138,132,124,120,115,111,100,95],"timestamp_mouse":[22,40,60,80,100,120,140,160,180,202,220,240,261,280,300,320,340,360,381,401,421,440,460,482,500,520,541,561,580,601,620,641,660,681,701,721,741,760,780,802,820,840,860,880,900,920,940,960,980,1000,1021,1041,1061,1080,1100,1121,1140,1160,1181,1201,1220,1241,1261,1280,1301,1321,1341,1360,1381,1400,1420,1440,1461,1480],"xSR":741.5,"ySR":449.15000000000003,"xT1":424.9,"yT1":0,"xT2":1058.1,"yT2":0,"toosoon":0,"cond_shown":"randomdotsizeEA","ratio_trial":750,"smaller_num":"6","larger_num":"8","correct_side":2,"subjID":"juandaviuddiazrodriguez29","gender":"No_gender","age":"11","school":"No_school"},{"start_time":1551801484653,"click_time":1551801485842,"finger_time":1551801485361,"fix_duration":1089.9710765500697,"trial":38,"RT":708,"MT":481,"sideResp":1,"stimulus":"img/500/equaldotsize/L/13_Ratio_500_L_12_R_6.png","xmouse":[816,816,815,815,815,815,815,815,815,815,815,815,815,815,815,815,815,815,815,815,815,815,815,815,815,815,815,815,814,813,812,810,807,802,797,784,773,756,723,683,581,531,482,421,397,374,368,366,366,366,366,366,366,366,366,383,395,408,418,428],"ymouse":[490,490,490,490,490,490,490,490,490,490,490,490,490,490,490,490,490,490,490,490,490,490,490,490,490,490,490,490,487,484,482,479,474,467,459,437,418,397,361,329,255,217,171,100,75,45,31,20,11,1,1,1,1,1,1,1,8,15,22,31],"timestamp_mouse":[9,29,48,68,88,108,129,148,169,190,208,228,248,269,289,309,328,348,370,388,408,428,448,468,488,509,529,550,568,589,608,629,648,668,688,708,728,748,768,789,809,828,848,868,889,909,928,948,968,989,1009,1028,1048,1068,1088,1108,1128,1148,1169,1189],"xSR":741.5,"ySR":449.15000000000003,"xT1":424.9,"yT1":0,"xT2":1058.1,"yT2":0,"toosoon":0,"cond_shown":"equaldotsize","ratio_trial":500,"smaller_num":"6","larger_num":"12","correct_side":1,"subjID":"juandaviuddiazrodriguez29","gender":"No_gender","age":"11","school":"No_school"},{"start_time":1551801488440,"click_time":1551801491401,"finger_time":1551801490881,"fix_duration":1416.4217463719813,"trial":39,"RT":2441,"MT":520,"sideResp":2,"stimulus":"img/900/equaldotanddens/L/1_Ratio_900_L_10_R_9.png","xmouse":[816,816,816,816,816,816,816,816,816,816,816,816,816,816,816,816,816,816,816,816,816,816,816,816,816,816,816,816,816,816,816,816,816,816,816,816,816,816,816,816,816,816,816,816,816,816,816,816,816,816,816,816,816,816,816,816,816,816,816,816,816,816,816,816,816,816,816,816,816,816,816,816,816,816,816,816,816,816,816,816,816,816,816,816,816,816,816,816,816,816,816,816,816,816,816,816,816,816,816,816,816,816,816,816,816,816,816,816,816,816,816,816,816,816,816,816,816,816,816,816,816,826,844,860,880,890,902,906,910,916,923,941,947,956,964,976,994,1006,1018,1032,1045,1061,1069,1075,1084,1091,1096,1101,1103],"ymouse":[474,474,474,474,474,474,474,474,474,474,474,474,474,474,474,474,474,474,474,474,474,474,474,474,474,474,474,474,474,474,474,474,474,474,474,474,474,474,474,474,474,474,474,474,474,474,474,474,474,474,474,474,474,474,474,474,474,474,474,474,474,474,474,474,474,474,474,474,474,474,474,474,474,474,474,474,474,474,474,474,474,474,474,474,474,474,474,474,474,474,474,474,474,474,474,474,474,474,474,474,474,474,474,474,474,474,474,474,474,474,474,474,474,474,474,474,474,474,474,474,474,458,433,413,389,380,363,354,344,331,315,279,263,246,233,217,200,192,186,178,169,155,146,138,127,118,108,100,94],"timestamp_mouse":[4,23,41,62,82,103,121,142,162,182,201,222,241,262,283,301,321,342,361,382,402,421,441,463,481,503,521,542,562,581,601,621,641,662,682,701,722,742,763,782,802,822,842,861,881,902,921,941,962,981,1002,1021,1042,1061,1082,1102,1121,1143,1161,1181,1202,1221,1241,1261,1281,1302,1321,1341,1361,1383,1401,1421,1442,1461,1483,1502,1521,1541,1561,1582,1602,1623,1641,1661,1682,1703,1721,1742,1762,1782,1801,1821,1842,1862,1882,1901,1921,1943,1961,1982,2001,2022,2042,2061,2081,2102,2121,2142,2162,2183,2201,2221,2241,2261,2281,2301,2322,2341,2361,2382,2401,2421,2441,2461,2481,2501,2523,2542,2561,2581,2601,2621,2642,2661,2681,2702,2722,2741,2761,2781,2801,2821,2841,2861,2881,2903,2922,2941,2961],"xSR":741.5,"ySR":449.15000000000003,"xT1":424.9,"yT1":0,"xT2":1058.1,"yT2":0,"toosoon":0,"cond_shown":"equaldotanddens","ratio_trial":900,"smaller_num":"9","larger_num":"10","correct_side":1,"subjID":"juandaviuddiazrodriguez29","gender":"No_gender","age":"11","school":"No_school"},{"start_time":1551801495733,"click_time":1551801497101,"finger_time":1551801496561,"fix_duration":250,"trial":40,"RT":828,"MT":540,"sideResp":1,"stimulus":"img/250/equaldotsize/L/3_Ratio_250_L_8_R_2.png","xmouse":[783,783,783,783,783,783,783,783,783,783,783,783,783,783,783,783,783,783,783,783,783,783,783,783,783,783,783,783,783,783,783,783,783,783,783,783,783,783,776,764,747,695,665,646,623,618,579,556,547,526,513,506,503,501,500,498,498,498,498,498,498,498,498,498,495,495,493,492,491],"ymouse":[473,473,473,473,473,473,473,473,473,473,473,473,473,473,473,473,473,473,473,473,473,473,473,473,473,473,473,473,473,473,473,473,473,473,473,473,473,473,473,473,472,455,434,419,392,385,313,281,271,251,240,231,224,215,202,185,175,165,164,158,152,140,132,124,118,114,110,104,98],"timestamp_mouse":[8,28,49,68,89,109,128,149,168,189,208,229,250,268,289,308,328,349,368,388,409,428,449,469,490,508,529,548,568,588,609,629,649,669,689,709,729,748,768,788,809,828,848,868,888,908,928,948,968,988,1008,1028,1048,1069,1089,1109,1129,1148,1168,1188,1208,1228,1250,1268,1288,1308,1328,1348,1368],"xSR":741.5,"ySR":449.15000000000003,"xT1":424.9,"yT1":0,"xT2":1058.1,"yT2":0,"toosoon":0,"cond_shown":"equaldotsize","ratio_trial":250,"smaller_num":"2","larger_num":"8","correct_side":1,"subjID":"juandaviuddiazrodriguez29","gender":"No_gender","age":"11","school":"No_school"},{"start_time":1551801500175,"click_time":1551801501301,"finger_time":1551801501061,"fix_duration":913.9724164491248,"trial":41,"RT":886,"MT":240,"sideResp":1,"stimulus":"img/750/equaldotsize/L/9_Ratio_750_L_4_R_3.png","xmouse":[793,793,793,793,793,793,793,793,793,793,793,793,793,793,793,793,793,793,793,793,793,793,793,793,793,793,793,793,793,793,793,793,793,793,793,793,793,793,793,793,792,790,785,767,720,677,631,567,517,494,485,477,476,475,475,475,478],"ymouse":[513,513,512,511,511,511,511,511,511,511,511,511,511,511,511,511,511,511,511,511,511,511,511,511,511,511,511,511,511,511,511,511,511,511,511,511,511,511,511,511,504,498,489,467,425,390,351,292,240,208,190,167,160,145,125,113,93],"timestamp_mouse":[7,26,46,67,87,107,126,147,167,187,207,226,247,266,287,306,327,347,366,386,406,427,447,466,487,507,526,546,566,586,606,626,647,667,686,707,727,747,766,787,806,826,846,866,886,906,927,947,966,987,1006,1027,1046,1066,1086,1106,1126],"xSR":741.5,"ySR":449.15000000000003,"xT1":424.9,"yT1":0,"xT2":1058.1,"yT2":0,"toosoon":0,"cond_shown":"equaldotsize","ratio_trial":750,"smaller_num":"3","larger_num":"4","correct_side":1,"subjID":"juandaviuddiazrodriguez29","gender":"No_gender","age":"11","school":"No_school"},{"start_time":1551801503289,"click_time":1551801504482,"finger_time":1551801504141,"fix_duration":1148.1996440946036,"trial":42,"RT":852,"MT":341,"sideResp":1,"stimulus":"img/900/equaldotanddens/L/2_Ratio_900_L_20_R_18.png","xmouse":[773,773,773,773,773,773,773,773,773,773,773,773,773,773,773,773,773,773,773,773,773,773,773,773,773,773,773,773,773,773,773,773,773,773,773,773,773,773,773,773,773,770,755,725,702,678,660,635,627,622,616,611,605,597,591,582,571,547,532,519],"ymouse":[463,463,463,463,463,463,463,463,463,463,463,463,463,463,463,463,463,463,463,463,463,463,463,463,463,463,463,463,463,463,463,463,463,463,463,463,463,463,463,463,463,457,437,408,390,370,355,316,294,272,251,217,191,165,148,132,116,87,77,70],"timestamp_mouse":[13,32,52,72,92,113,133,152,172,193,213,232,252,272,292,312,332,352,373,393,412,433,452,472,492,512,532,553,573,593,613,632,652,673,692,713,734,752,772,792,812,832,852,872,893,913,932,952,972,992,1012,1032,1052,1073,1092,1112,1132,1153,1172,1193],"xSR":741.5,"ySR":449.15000000000003,"xT1":424.9,"yT1":0,"xT2":1058.1,"yT2":0,"toosoon":0,"cond_shown":"equaldotanddens","ratio_trial":900,"smaller_num":"18","larger_num":"20","correct_side":1,"subjID":"juandaviuddiazrodriguez29","gender":"No_gender","age":"11","school":"No_school"},{"start_time":1551801505592,"click_time":1551801506801,"finger_time":1551801506421,"fix_duration":250,"trial":43,"RT":829,"MT":380,"sideResp":1,"stimulus":"img/900/randomdotsizeEA/R/11_Ratio_900_L_18_R_20.png","xmouse":[811,811,811,811,811,811,811,811,811,811,811,811,811,811,811,811,811,811,811,811,811,811,811,811,811,811,811,811,811,811,811,811,811,811,811,811,811,811,811,805,791,758,744,705,683,666,654,630,621,608,604,594,580,572,559,553,535,522,500,491,482],"ymouse":[500,500,500,500,500,500,500,500,500,500,500,500,500,500,500,500,500,500,500,500,500,500,500,500,500,500,500,500,500,500,500,500,500,500,500,500,500,500,500,491,475,439,421,368,329,300,277,238,221,197,191,174,155,145,134,130,121,116,104,101,94],"timestamp_mouse":[9,29,50,69,89,110,129,149,169,189,210,229,250,269,289,310,329,350,369,390,409,429,450,469,489,509,529,549,570,589,609,630,649,669,689,709,729,750,770,789,809,829,850,869,889,909,929,949,969,989,1009,1029,1049,1069,1089,1109,1129,1149,1170,1189,1209],"xSR":741.5,"ySR":449.15000000000003,"xT1":424.9,"yT1":0,"xT2":1058.1,"yT2":0,"toosoon":0,"cond_shown":"randomdotsizeEA","ratio_trial":900,"smaller_num":"18","larger_num":"20","correct_side":2,"subjID":"juandaviuddiazrodriguez29","gender":"No_gender","age":"11","school":"No_school"},{"start_time":1551801509010,"click_time":1551801511742,"finger_time":1551801509042,"fix_duration":1367.5847159782077,"trial":44,"RT":32,"MT":2700,"sideResp":2,"stimulus":"img/750/equaldotsize/R/11_Ratio_750_L_12_R_16.png","xmouse":[759,740,713,710,710,710,710,710,710,710,710,710,710,710,710,710,710,710,714,727,755,783,797,803,805,806,806,806,806,806,805,805,803,803,803,803,803,803,803,803,803,803,803,803,803,803,803,803,803,803,803,803,803,803,803,803,803,803,803,803,803,803,803,803,803,803,803,803,803,803,803,803,803,803,803,803,803,803,803,803,803,803,803,803,803,803,803,803,803,803,803,803,803,803,803,803,803,803,803,803,803,803,803,803,803,803,803,803,803,803,803,803,803,803,803,803,803,806,821,844,852,868,874,877,884,893,908,937,952,967,979,1001,1012,1024,1045,1054,1096],"ymouse":[503,501,498,498,498,498,498,498,498,498,498,498,498,498,498,498,498,498,498,498,498,498,498,497,497,496,496,494,491,489,485,484,482,482,482,482,482,482,482,482,482,482,482,482,482,482,482,482,482,482,482,482,482,482,482,482,482,482,482,482,482,482,482,482,482,482,482,482,482,482,482,482,482,482,482,482,482,482,482,482,482,482,482,482,482,482,482,482,482,482,482,482,482,482,482,482,482,482,482,482,482,482,482,482,482,482,482,482,482,482,482,482,482,482,482,482,482,464,440,415,408,390,386,382,366,348,324,277,256,235,219,189,175,161,137,127,78],"timestamp_mouse":[11,32,51,72,91,111,131,152,171,191,211,232,251,271,291,311,331,351,371,391,411,431,451,472,491,511,531,551,571,591,611,631,651,671,691,712,731,751,771,791,812,831,852,871,892,911,931,951,971,992,1011,1031,1051,1071,1091,1112,1131,1151,1172,1191,1211,1232,1251,1272,1292,1312,1331,1352,1371,1392,1411,1431,1451,1471,1492,1511,1531,1551,1571,1591,1612,1631,1651,1672,1691,1711,1731,1751,1771,1791,1811,1832,1851,1872,1891,1912,1931,1952,1971,1991,2011,2031,2051,2072,2092,2111,2131,2151,2171,2191,2211,2232,2252,2272,2291,2311,2331,2351,2371,2391,2411,2432,2451,2472,2491,2512,2531,2552,2571,2592,2611,2631,2651,2672,2692,2712,2731],"xSR":741.5,"ySR":449.15000000000003,"xT1":424.9,"yT1":0,"xT2":1058.1,"yT2":0,"toosoon":0,"cond_shown":"equaldotsize","ratio_trial":750,"smaller_num":"12","larger_num":"16","correct_side":2,"subjID":"juandaviuddiazrodriguez29","gender":"No_gender","age":"11","school":"No_school"},{"start_time":1551801513979,"click_time":1551801515001,"finger_time":1551801514641,"fix_duration":1417.002660980942,"trial":45,"RT":662,"MT":360,"sideResp":1,"stimulus":"img/500/equaldotanddens/L/8_Ratio_500_L_8_R_4.png","xmouse":[766,766,766,766,766,766,766,766,766,766,766,766,766,766,766,766,766,766,766,766,766,766,766,766,766,766,766,766,766,766,766,761,753,734,709,694,675,670,652,634,623,610,605,586,579,572,560,552,546,532,526,517],"ymouse":[490,490,490,490,490,490,490,490,490,490,490,490,490,490,490,490,490,490,490,490,490,490,490,490,490,490,490,490,490,490,490,472,455,408,350,317,285,276,251,227,216,198,191,163,151,138,118,105,97,79,73,64],"timestamp_mouse":[3,22,42,63,83,102,122,143,163,182,202,223,243,263,282,302,322,343,362,382,403,422,442,463,483,502,522,542,562,582,602,622,642,662,682,703,722,742,762,783,802,822,842,863,883,903,922,942,963,982,1002,1022],"xSR":741.5,"ySR":449.15000000000003,"xT1":424.9,"yT1":0,"xT2":1058.1,"yT2":0,"toosoon":0,"cond_shown":"equaldotanddens","ratio_trial":500,"smaller_num":"4","larger_num":"8","correct_side":1,"subjID":"juandaviuddiazrodriguez29","gender":"No_gender","age":"11","school":"No_school"},{"start_time":1551801517125,"click_time":1551801518362,"finger_time":1551801517962,"fix_duration":1303.3572035601273,"trial":46,"RT":837,"MT":400,"sideResp":2,"stimulus":"img/900/equaldotsize/R/13_Ratio_900_L_18_R_20.png","xmouse":[809,809,809,809,809,809,809,809,809,809,809,809,809,809,809,809,809,809,809,809,809,809,809,809,809,809,809,809,809,809,809,809,809,809,809,809,809,809,809,809,824,852,872,895,902,924,932,940,953,956,968,980,986,991,998,1007,1013,1022,1036,1043,1057,1073],"ymouse":[483,483,483,483,483,483,483,483,483,483,483,483,483,483,483,483,483,483,483,483,483,483,483,483,483,483,483,483,483,483,483,483,483,483,483,483,483,483,483,483,469,446,428,405,398,358,340,322,292,284,257,225,212,199,190,178,166,152,134,127,111,91],"timestamp_mouse":[16,37,56,76,97,116,136,157,177,197,216,236,256,276,296,317,336,357,377,396,417,437,456,476,496,516,536,557,577,596,616,636,656,676,696,716,737,757,776,796,816,837,856,877,896,917,936,956,976,996,1016,1036,1056,1076,1096,1117,1137,1157,1176,1196,1216,1236],"xSR":741.5,"ySR":449.15000000000003,"xT1":424.9,"yT1":0,"xT2":1058.1,"yT2":0,"toosoon":0,"cond_shown":"equaldotsize","ratio_trial":900,"smaller_num":"18","larger_num":"20","correct_side":2,"subjID":"juandaviuddiazrodriguez29","gender":"No_gender","age":"11","school":"No_school"},{"start_time":1551801519882,"click_time":1551801522141,"finger_time":1551801521741,"fix_duration":621.0816397929611,"trial":47,"RT":1859,"MT":400,"sideResp":2,"stimulus":"img/250/equaldotsize/R/8_Ratio_250_L_1_R_4.png","xmouse":[774,774,774,774,774,774,774,774,774,774,774,774,774,774,774,774,774,774,774,774,774,774,774,774,774,774,774,774,774,774,774,774,774,774,774,774,774,774,774,774,774,774,774,774,774,774,774,774,774,774,774,774,774,774,774,774,774,774,774,774,774,774,774,774,774,774,774,774,774,774,774,774,774,774,774,774,774,774,774,774,774,774,774,774,774,774,774,777,786,794,809,812,828,852,863,871,884,913,926,939,956,960,975,992,999,1007,1014,1021,1034,1040,1047,1055,1067],"ymouse":[504,504,504,504,504,504,504,504,504,504,504,504,504,504,504,504,504,504,504,504,504,504,504,504,504,504,504,504,504,504,504,504,504,504,504,504,504,504,504,504,504,504,504,504,504,504,504,504,504,504,504,504,504,504,504,504,504,504,504,504,504,504,504,504,504,504,504,504,504,504,504,504,504,504,504,504,504,504,504,504,504,504,504,504,504,504,501,495,482,474,458,454,436,405,388,367,343,301,282,265,239,233,212,188,176,163,151,139,112,102,93,81,67],"timestamp_mouse":[22,40,60,79,99,120,139,160,179,199,219,240,259,280,300,319,339,360,379,399,419,439,459,480,499,519,539,559,580,599,619,640,659,679,699,720,739,761,779,799,819,839,859,879,899,919,939,959,980,999,1019,1039,1059,1079,1099,1119,1139,1159,1179,1199,1219,1240,1260,1279,1299,1319,1339,1360,1379,1399,1419,1439,1459,1479,1500,1519,1539,1559,1579,1599,1620,1639,1660,1679,1699,1719,1739,1759,1779,1800,1819,1839,1859,1879,1899,1919,1939,1959,1979,1999,2019,2039,2059,2079,2099,2120,2139,2160,2179,2199,2219,2239,2259],"xSR":741.5,"ySR":449.15000000000003,"xT1":424.9,"yT1":0,"xT2":1058.1,"yT2":0,"toosoon":0,"cond_shown":"equaldotsize","ratio_trial":250,"smaller_num":"1","larger_num":"4","correct_side":2,"subjID":"juandaviuddiazrodriguez29","gender":"No_gender","age":"11","school":"No_school"},{"start_time":1551801523542,"click_time":1551801524922,"finger_time":1551801524461,"fix_duration":440.0686001753278,"trial":48,"RT":919,"MT":461,"sideResp":2,"stimulus":"img/250/randomdotsizeEA/R/4_Ratio_250_L_3_R_12.png","xmouse":[797,797,797,797,797,797,797,797,797,797,797,797,797,797,797,797,797,797,797,797,797,797,797,797,797,797,797,797,797,797,797,797,797,797,797,797,797,797,797,797,797,797,797,797,800,818,831,852,862,868,878,887,901,904,924,940,949,959,961,971,993,1009,1034,1039,1054,1056,1058,1068,1081],"ymouse":[493,493,493,493,493,493,493,493,493,493,493,493,493,493,493,493,493,493,493,493,493,493,493,493,493,493,493,493,493,493,493,493,493,493,493,493,493,493,493,493,493,493,493,486,478,446,427,402,390,382,362,344,314,307,277,253,238,219,214,198,172,158,141,137,126,125,120,101,80],"timestamp_mouse":[19,39,59,79,100,120,140,159,179,199,220,240,259,280,299,319,340,359,379,400,419,440,459,479,500,519,539,559,581,599,619,639,660,679,700,719,739,760,780,799,819,839,859,879,899,919,939,960,979,999,1019,1039,1059,1079,1099,1119,1139,1159,1180,1199,1220,1239,1259,1279,1300,1320,1339,1359,1379],"xSR":741.5,"ySR":449.15000000000003,"xT1":424.9,"yT1":0,"xT2":1058.1,"yT2":0,"toosoon":0,"cond_shown":"randomdotsizeEA","ratio_trial":250,"smaller_num":"3","larger_num":"12","correct_side":2,"subjID":"juandaviuddiazrodriguez29","gender":"No_gender","age":"11","school":"No_school"},{"start_time":1551801526535,"click_time":1551801527961,"finger_time":1551801527421,"fix_duration":714.0132230076329,"trial":49,"RT":886,"MT":540,"sideResp":1,"stimulus":"img/900/equaldotsize/R/11_Ratio_900_L_18_R_20.png","xmouse":[795,795,795,795,795,795,795,795,795,795,795,795,795,795,795,795,795,795,795,795,795,795,795,795,795,795,795,795,795,795,795,795,795,795,795,795,795,795,795,793,789,776,761,746,736,715,703,695,677,677,661,650,643,634,625,609,587,572,539,531,515,506,504,503,503,503,503,501,496,495,484,472],"ymouse":[504,504,504,504,504,504,504,504,504,504,504,504,504,504,504,504,504,504,504,504,504,504,504,504,504,504,504,504,504,504,504,504,504,504,504,504,504,504,504,503,496,481,468,454,442,406,386,368,330,330,289,265,252,238,225,207,188,175,155,149,141,137,136,135,135,135,135,133,126,123,105,80],"timestamp_mouse":[7,27,46,66,87,106,127,147,166,187,207,227,247,266,286,307,327,346,367,387,407,426,447,467,487,506,527,546,566,586,606,626,646,666,687,707,726,747,766,786,806,826,846,866,886,907,927,947,967,986,1007,1027,1046,1066,1087,1106,1126,1147,1166,1186,1206,1227,1246,1266,1287,1307,1327,1347,1367,1386,1406,1426],"xSR":741.5,"ySR":449.15000000000003,"xT1":424.9,"yT1":0,"xT2":1058.1,"yT2":0,"toosoon":0,"cond_shown":"equaldotsize","ratio_trial":900,"smaller_num":"18","larger_num":"20","correct_side":2,"subjID":"juandaviuddiazrodriguez29","gender":"No_gender","age":"11","school":"No_school"},{"start_time":1551801534548,"click_time":1551801535261,"finger_time":1551801535101,"fix_duration":1046.2418498745178,"trial":50,"RT":553,"MT":160,"sideResp":1,"stimulus":"img/500/equaldotanddens/L/7_Ratio_500_L_10_R_5.png","xmouse":[816,816,816,816,816,816,816,816,816,816,816,816,816,816,816,816,816,816,816,816,816,816,816,816,815,800,768,755,715,683,619,590,562,532,506,446],"ymouse":[508,508,508,508,508,508,508,508,508,508,508,508,508,508,508,508,508,508,508,508,508,508,508,508,508,491,451,436,391,363,303,262,223,179,143,71],"timestamp_mouse":[13,33,53,74,94,113,133,153,174,194,213,233,254,273,294,314,333,353,373,394,413,434,453,474,493,513,532,553,573,593,614,633,655,673,693,713],"xSR":741.5,"ySR":449.15000000000003,"xT1":424.9,"yT1":0,"xT2":1058.1,"yT2":0,"toosoon":0,"cond_shown":"equaldotanddens","ratio_trial":500,"smaller_num":"5","larger_num":"10","correct_side":1,"subjID":"juandaviuddiazrodriguez29","gender":"No_gender","age":"11","school":"No_school"},{"start_time":1551801536633,"click_time":1551801537701,"finger_time":1551801537401,"fix_duration":250,"trial":51,"RT":768,"MT":300,"sideResp":2,"stimulus":"img/500/randomdotsizeEA/R/2_Ratio_500_L_3_R_6.png","xmouse":[810,810,810,810,810,810,810,810,810,810,810,810,810,810,810,810,810,810,810,810,810,810,810,810,810,810,810,810,810,810,810,810,810,810,810,810,810,822,842,885,900,949,965,981,1010,1017,1053,1070,1087,1110,1117,1138,1145,1151],"ymouse":[498,498,498,498,498,498,498,498,498,498,498,498,498,498,498,498,498,498,498,498,498,498,498,498,498,498,498,498,498,498,498,498,498,498,498,498,498,480,457,421,409,359,336,314,270,260,217,199,185,161,154,119,107,94],"timestamp_mouse":[9,28,48,68,89,108,128,149,169,188,208,228,249,268,289,308,329,348,368,388,408,428,448,469,488,508,529,549,568,589,608,628,648,668,688,708,728,748,768,788,808,829,849,868,889,908,928,948,968,991,1008,1028,1048,1068],"xSR":741.5,"ySR":449.15000000000003,"xT1":424.9,"yT1":0,"xT2":1058.1,"yT2":0,"toosoon":0,"cond_shown":"randomdotsizeEA","ratio_trial":500,"smaller_num":"3","larger_num":"6","correct_side":2,"subjID":"juandaviuddiazrodriguez29","gender":"No_gender","age":"11","school":"No_school"},{"start_time":1551801539376,"click_time":1551801540361,"finger_time":1551801540021,"fix_duration":794.7303464450926,"trial":52,"RT":645,"MT":340,"sideResp":2,"stimulus":"img/250/equaldotanddens/R/13_Ratio_250_L_2_R_8.png","xmouse":[806,806,806,806,806,806,806,806,806,806,806,806,806,806,806,806,806,806,806,806,806,806,806,806,806,806,806,806,806,806,813,824,852,890,939,953,957,960,964,977,986,998,1010,1022,1041,1045,1051,1052,1056,1067],"ymouse":[493,493,493,493,493,493,493,493,493,493,493,493,493,493,493,493,493,493,493,493,493,493,493,493,493,493,493,493,493,493,476,462,429,394,351,336,327,314,301,269,249,229,207,187,156,144,127,123,112,94],"timestamp_mouse":[5,26,45,66,87,105,125,145,166,185,206,226,245,265,285,305,325,345,365,386,406,425,446,466,485,506,525,545,565,585,604,625,645,665,685,706,725,745,765,785,806,825,846,865,885,906,925,946,965,985],"xSR":741.5,"ySR":449.15000000000003,"xT1":424.9,"yT1":0,"xT2":1058.1,"yT2":0,"toosoon":0,"cond_shown":"equaldotanddens","ratio_trial":250,"smaller_num":"2","larger_num":"8","correct_side":2,"subjID":"juandaviuddiazrodriguez29","gender":"No_gender","age":"11","school":"No_school"},{"start_time":1551801542550,"click_time":1551801543562,"finger_time":1551801543142,"fix_duration":1328.2673505902385,"trial":53,"RT":592,"MT":420,"sideResp":1,"stimulus":"img/500/equaldotsize/L/4_Ratio_500_L_18_R_9.png","xmouse":[817,817,817,817,817,817,817,817,817,817,817,817,817,817,817,817,817,817,817,817,817,817,817,817,817,817,817,817,805,718,653,595,552,520,501,482,481,478,477,476,472,471,470,470,470,471,471,472,472,472,473],"ymouse":[478,478,478,478,478,478,478,478,478,478,478,478,478,478,478,478,478,478,478,478,478,478,478,478,478,478,478,478,473,423,380,336,299,273,256,234,231,219,210,202,187,179,170,161,156,147,140,131,124,111,98],"timestamp_mouse":[11,31,51,72,91,112,131,151,172,191,212,232,251,272,292,312,332,351,372,391,411,431,451,471,492,511,532,552,571,592,612,631,652,671,691,711,732,751,771,791,811,831,851,871,892,912,931,951,972,991,1012],"xSR":741.5,"ySR":449.15000000000003,"xT1":424.9,"yT1":0,"xT2":1058.1,"yT2":0,"toosoon":0,"cond_shown":"equaldotsize","ratio_trial":500,"smaller_num":"9","larger_num":"18","correct_side":1,"subjID":"juandaviuddiazrodriguez29","gender":"No_gender","age":"11","school":"No_school"},{"start_time":1551801545788,"click_time":1551801547042,"finger_time":1551801546161,"fix_duration":1144.271609157059,"trial":54,"RT":373,"MT":881,"sideResp":1,"stimulus":"img/750/randomdotsizeEA/R/5_Ratio_750_L_15_R_20.png","xmouse":[755,755,755,755,755,755,755,755,755,755,755,755,755,755,755,756,758,774,795,803,808,808,812,815,815,815,816,816,818,820,821,823,827,830,831,835,835,835,825,819,811,803,794,778,771,762,752,741,714,694,676,661,650,631,624,616,598,582,547,529,513,498,470],"ymouse":[482,482,482,482,482,482,482,482,482,482,482,482,482,482,482,482,479,460,446,439,434,433,424,417,413,410,406,405,398,396,393,388,382,377,368,349,342,322,302,299,295,292,288,282,279,273,268,261,244,233,221,213,208,197,192,186,171,159,135,123,112,100,71],"timestamp_mouse":[13,33,53,73,93,114,133,153,173,194,213,233,254,274,294,313,333,353,373,393,414,433,454,473,493,513,534,554,574,593,614,633,654,673,693,714,733,753,773,793,813,833,854,873,894,913,933,953,974,993,1013,1033,1053,1073,1093,1113,1133,1153,1173,1193,1213,1233,1254],"xSR":741.5,"ySR":449.15000000000003,"xT1":424.9,"yT1":0,"xT2":1058.1,"yT2":0,"toosoon":0,"cond_shown":"randomdotsizeEA","ratio_trial":750,"smaller_num":"15","larger_num":"20","correct_side":2,"subjID":"juandaviuddiazrodriguez29","gender":"No_gender","age":"11","school":"No_school"},{"start_time":1551801548955,"click_time":1551801550142,"finger_time":1551801549702,"fix_duration":1154.334228233025,"trial":55,"RT":747,"MT":440,"sideResp":2,"stimulus":"img/750/equaldotanddens/L/8_Ratio_750_L_4_R_3.png","xmouse":[803,803,803,803,803,803,803,803,803,803,803,803,803,803,803,803,803,803,803,803,803,803,803,803,803,803,803,803,803,803,803,803,803,803,805,821,836,858,872,894,904,915,929,943,962,972,976,988,996,999,1008,1014,1022,1026,1043,1048,1052,1058,1058,1060],"ymouse":[504,504,504,504,504,504,504,504,504,504,504,504,504,504,504,504,504,504,504,504,504,504,504,504,504,504,504,504,504,504,504,504,504,503,495,477,462,436,419,385,365,342,318,294,262,246,239,225,215,211,192,177,167,157,132,120,110,98,95,89],"timestamp_mouse":[7,26,46,66,86,106,126,146,166,186,206,227,246,267,287,306,327,346,366,386,407,427,447,466,486,506,527,546,567,586,607,626,646,666,687,707,726,747,766,787,806,826,847,866,887,906,926,946,966,987,1006,1026,1046,1066,1087,1107,1126,1146,1166,1186],"xSR":741.5,"ySR":449.15000000000003,"xT1":424.9,"yT1":0,"xT2":1058.1,"yT2":0,"toosoon":0,"cond_shown":"equaldotanddens","ratio_trial":750,"smaller_num":"3","larger_num":"4","correct_side":1,"subjID":"juandaviuddiazrodriguez29","gender":"No_gender","age":"11","school":"No_school"},{"start_time":1551801551228,"click_time":1551801552642,"finger_time":1551801552141,"fix_duration":326.4828077084296,"trial":56,"RT":913,"MT":501,"sideResp":1,"stimulus":"img/500/equaldotanddens/L/7_Ratio_500_L_10_R_5.png","xmouse":[783,783,783,783,783,783,783,783,783,783,783,783,783,783,783,783,783,783,783,783,783,783,783,783,783,783,783,783,783,783,783,783,783,783,783,783,783,783,783,783,778,768,763,760,752,734,710,696,684,675,661,656,651,646,642,629,625,620,609,606,594,578,568,541,534,517,504,498,491,488,480],"ymouse":[516,516,516,516,516,516,516,516,516,516,516,516,516,516,516,516,516,516,516,516,516,516,516,516,516,516,516,516,516,516,516,516,516,516,516,516,516,516,516,516,516,513,511,509,504,475,433,411,392,380,355,343,324,305,288,253,241,230,211,205,189,172,162,141,136,124,116,112,106,105,99],"timestamp_mouse":[20,33,53,73,93,113,133,153,173,193,214,233,254,274,294,314,334,353,373,394,414,433,453,474,493,513,534,554,574,593,614,633,653,674,693,713,733,753,774,793,813,833,854,873,894,913,934,953,973,993,1013,1033,1053,1073,1093,1114,1133,1154,1173,1193,1214,1233,1253,1273,1293,1313,1333,1354,1373,1393,1414],"xSR":741.5,"ySR":449.15000000000003,"xT1":424.9,"yT1":0,"xT2":1058.1,"yT2":0,"toosoon":0,"cond_shown":"equaldotanddens","ratio_trial":500,"smaller_num":"5","larger_num":"10","correct_side":1,"subjID":"juandaviuddiazrodriguez29","gender":"No_gender","age":"11","school":"No_school"},{"start_time":1551801554121,"click_time":1551801555241,"finger_time":1551801554881,"fix_duration":518.2484985280914,"trial":57,"RT":760,"MT":360,"sideResp":2,"stimulus":"img/500/equaldotsize/R/9_Ratio_500_L_2_R_4.png","xmouse":[827,826,825,825,825,824,824,824,824,824,824,824,824,824,824,824,823,823,823,823,823,822,819,817,817,816,816,816,816,816,816,816,816,816,816,816,816,822,828,837,850,861,896,916,933,948,960,981,992,1003,1020,1039,1041,1046,1052,1058,1066],"ymouse":[482,481,480,480,480,480,480,480,480,480,480,480,480,480,480,480,479,479,479,479,479,479,477,477,477,477,477,477,477,477,477,477,477,477,473,472,465,452,443,430,409,391,343,315,292,268,246,208,187,167,140,110,101,89,77,68,56],"timestamp_mouse":[0,26,41,60,81,100,120,141,160,180,200,220,240,260,281,300,320,340,360,381,401,420,440,461,480,501,521,541,561,580,600,621,640,660,681,700,720,740,760,780,800,820,840,860,880,900,920,940,961,980,1000,1020,1041,1060,1081,1100,1120],"xSR":741.5,"ySR":449.15000000000003,"xT1":424.9,"yT1":0,"xT2":1058.1,"yT2":0,"toosoon":0,"cond_shown":"equaldotsize","ratio_trial":500,"smaller_num":"2","larger_num":"4","correct_side":2,"subjID":"juandaviuddiazrodriguez29","gender":"No_gender","age":"11","school":"No_school"},{"start_time":1551801557031,"click_time":1551801558362,"finger_time":1551801557820,"fix_duration":688.2206984398096,"trial":58,"RT":789,"MT":542,"sideResp":1,"stimulus":"img/500/randomdotsizeEA/L/11_Ratio_500_L_12_R_6.png","xmouse":[802,802,802,802,802,802,802,802,802,802,802,802,802,802,802,802,802,802,802,802,802,802,802,802,802,802,802,802,802,802,802,798,796,791,788,783,768,759,749,730,723,694,671,663,637,614,561,535,510,488,472,447,431,427,414,398,392,389,389,389,389,392,398,406,417,423,429],"ymouse":[514,514,514,514,514,514,514,514,514,514,514,514,514,514,514,514,514,514,514,514,514,514,514,514,514,514,514,514,514,514,514,513,512,508,504,501,484,470,457,436,428,397,374,368,346,328,291,277,267,257,248,230,215,211,193,170,160,153,150,147,145,137,128,119,103,93,80],"timestamp_mouse":[9,29,50,70,90,109,129,150,169,190,209,230,251,271,290,310,330,351,369,389,410,430,449,470,489,510,529,550,570,589,611,629,649,669,689,709,729,750,770,789,809,829,849,869,889,910,930,949,970,989,1009,1029,1050,1069,1090,1111,1130,1149,1171,1190,1210,1229,1249,1269,1289,1309,1331],"xSR":741.5,"ySR":449.15000000000003,"xT1":424.9,"yT1":0,"xT2":1058.1,"yT2":0,"toosoon":0,"cond_shown":"randomdotsizeEA","ratio_trial":500,"smaller_num":"6","larger_num":"12","correct_side":1,"subjID":"juandaviuddiazrodriguez29","ge