[{"start_time":1551800561996,"click_time":1551800563601,"finger_time":1551800563522,"fix_duration":250,"trial":0,"RT":1526,"MT":79,"sideResp":2,"stimulus":[],"xmouse":[797,797,797,797,797,797,797,797,797,797,797,797,797,797,797,797,797,797,797,797,797,797,797,797,797,797,797,797,797,797,797,797,797,797,797,797,797,797,797,797,797,797,797,797,797,797,797,797,797,797,797,797,797,797,797,797,797,797,797,797,797,797,797,797,797,797,797,797,797,797,797,797,797,797,814,864,921,990,1057,1107],"ymouse":[525,525,525,525,525,525,525,525,525,525,525,525,525,525,525,525,525,525,525,525,525,525,525,525,525,525,525,525,525,525,525,525,525,525,525,525,525,525,525,525,525,525,525,525,525,525,525,525,525,525,525,525,525,525,525,525,525,525,525,525,525,525,525,525,525,525,525,525,525,525,525,525,525,517,487,397,311,216,118,25],"timestamp_mouse":[9,49,64,86,105,125,145,165,185,205,224,245,265,285,304,326,345,366,384,406,425,445,466,484,505,524,544,566,584,604,626,646,666,685,705,726,745,766,786,804,825,844,866,885,905,925,944,965,984,1005,1025,1044,1065,1086,1105,1126,1144,1165,1184,1205,1225,1244,1265,1286,1306,1324,1345,1365,1385,1405,1425,1445,1465,1485,1504,1526,1545,1565,1586,1605],"xSR":741.5,"ySR":501.8,"xT1":424.9,"yT1":0,"xT2":1058.1,"yT2":0,"toosoon":0,"cond_shown":"Incongruent","ratio_trial":100,"L_num":3,"L_den":5,"R_num":8,"R_den":16,"correct_side":1,"subjID":"JuanDavidMartinez6d","gender":"macho","age":"11","school":"cafaaaaaaam","test":{"fix_dur":[250,1500],"timestim":1000,"targets_dim":[100,100],"targets_relative_coord":[0.3,0.7],"size_stim":[880,420],"start_dim":[100,100],"size_start":[300,300],"size_fix":60,"samplingrate":20,"img_types":["Congruent","Incongruent"],"ratios":[100,200,300],"rep_conds":19,"nTrials":120,"trials_to_rest":500,"Trials_order":[97,58,83,89,23,94,93,34,19,114,0,76,52,69,107,116,7,108,102,13,67,54,75,41,115,105,22,73,28,59,84,118,87,43,47,104,63,79,48,51,56,98,5,109,103,39,8,106,110,9,66,55,62,26,90,40,42,60,95,3,100,46,85,74,61,70,36,88,12,82,117,4,11,65,10,33,14,53,68,112,77,57,99,27,38,24,1,78,113,49,25,86,31,32,2,6,101,50,71,91,30,119,81,96,21,18,37,111,35,16,80,17,92,45,72,44,29,64,15,20],"cond_shown":["Incongruent","Congruent","Incongruent","Incongruent","Incongruent","Congruent","Incongruent","Congruent","Incongruent","Congruent","Congruent","Congruent","Congruent","Incongruent","Incongruent","Congruent","Incongruent","Congruent","Congruent","Incongruent","Incongruent","Congruent","Incongruent","Incongruent","Incongruent","Incongruent","Congruent","Incongruent","Congruent","Incongruent","Congruent","Congruent","Incongruent","Incongruent","Incongruent","Congruent","Incongruent","Incongruent","Congruent","Incongruent","Congruent","Congruent","Incongruent","Incongruent","Incongruent","Incongruent","Congruent","Congruent","Congruent","Incongruent","Congruent","Incongruent","Congruent","Congruent","Congruent","Congruent","Congruent","Congruent","Incongruent","Incongruent","Congruent","Congruent","Incongruent","Congruent","Incongruent","Congruent","Congruent","Congruent","Congruent","Congruent","Incongruent","Congruent","Incongruent","Incongruent","Congruent","Incongruent","Congruent","Incongruent","Congruent","Congruent","Incongruent","Incongruent","Incongruent","Incongruent","Congruent","Congruent","Incongruent","Congruent","Incongruent","Incongruent","Incongruent","Congruent","Incongruent","Congruent","Congruent","Congruent","Incongruent","Congruent","Incongruent","Incongruent","Congruent","Incongruent","Incongruent","Congruent","Incongruent","Congruent","Incongruent","Incongruent","Incongruent","Congruent","Congruent","Incongruent","Congruent","Incongruent","Congruent","Congruent","Incongruent","Congruent","Incongruent","Congruent"],"ratio_trial":[100,300,300,300,300,300,200,300,100,100,100,300,300,200,300,200,100,100,100,100,100,100,200,300,100,200,300,100,300,300,100,300,200,100,300,200,200,100,100,200,200,200,300,100,100,200,200,300,200,200,100,100,200,200,100,300,100,100,300,200,300,300,100,200,100,300,100,300,100,300,200,300,300,300,300,200,200,300,200,300,300,200,200,200,200,100,100,100,300,100,100,200,100,200,200,100,300,200,300,100,100,300,200,100,200,100,100,200,300,300,200,300,200,200,100,200,300,300,200,200],"left_num":[3,1,4,4,1,5,7,3,11,6,9,3,1,4,8,3,6,15,12,13,9,6,1,7,8,4,12,17,11,3,6,5,4,8,1,13,14,11,15,14,16,8,1,9,6,14,8,9,6,7,4,10,20,5,7,4,6,1,4,1,12,8,11,3,9,2,2,1,12,8,7,20,1,1,1,7,21,4,3,11,4,4,4,14,3,15,1,10,4,9,9,16,13,3,13,6,8,20,8,8,15,13,7,11,4,10,13,4,13,4,1,8,1,7,1,3,4,20,6,8],"right_num":[8,11,2,2,3,7,8,4,9,5,8,11,6,14,14,9,3,13,13,12,14,5,2,8,6,1,2,10,2,4,15,6,1,6,3,14,12,9,13,12,9,7,2,13,11,6,7,3,7,12,6,8,9,14,15,13,15,18,2,3,2,10,9,11,6,12,11,11,13,1,12,14,3,2,3,14,2,2,11,2,2,1,1,12,7,13,8,3,2,20,14,9,12,14,14,15,9,9,9,6,13,12,4,4,1,3,12,1,12,13,21,14,21,14,18,11,6,13,3,2],"left_den":[5,5,20,20,2,25,10,6,22,20,15,12,5,6,10,12,12,25,30,26,15,20,3,10,16,30,24,30,22,6,12,25,30,16,2,26,30,22,25,30,30,15,2,15,10,30,15,10,12,10,8,25,25,10,14,20,12,2,20,2,24,15,22,10,18,10,5,5,30,16,10,25,2,2,5,10,30,20,10,22,20,30,30,30,10,25,2,25,20,10,15,30,26,6,26,12,10,25,10,16,25,26,15,22,30,25,26,30,26,20,2,10,2,10,2,10,5,25,20,15],"right_den":[16,22,4,4,15,14,16,5,15,25,16,20,12,30,28,20,5,26,26,20,28,25,15,20,10,3,10,15,10,20,25,12,3,10,15,20,18,15,26,18,27,21,10,26,22,9,21,5,10,24,10,16,15,20,25,26,25,30,4,10,10,12,15,22,10,24,22,22,26,5,24,28,15,10,6,28,4,4,22,10,4,3,3,18,14,26,20,10,4,25,28,27,20,20,20,25,18,15,18,10,26,15,6,10,3,10,20,3,15,26,30,28,30,28,30,22,12,26,6,6],"correct_side":[1,2,2,2,1,2,1,2,2,1,1,2,2,1,1,2,2,1,2,2,1,1,1,1,2,2,1,2,1,1,2,2,2,2,1,2,2,2,1,2,1,1,1,1,1,2,1,1,2,1,2,2,1,2,2,2,2,2,2,1,1,2,2,2,2,2,2,2,2,1,1,1,1,1,2,1,1,2,2,1,2,2,2,2,2,1,1,1,2,1,1,1,2,2,2,2,1,1,1,2,1,2,2,1,2,1,2,2,2,2,2,1,2,1,2,2,1,1,2,1],"img_shown":["img2/100/Incongruent/L/I_Dist_100_LN_3_LD_5_RN_8_RD_16_0.png","img2/300/Congruent/R/C_Dist_300_LN_1_LD_5_RN_11_RD_22_1.png","img2/300/Incongruent/R/I_Dist_300_LN_4_LD_20_RN_2_RD_4_1.png","img2/300/Incongruent/R/I_Dist_300_LN_4_LD_20_RN_2_RD_4_1.png","img2/300/Incongruent/L/I_Dist_300_LN_1_LD_2_RN_3_RD_15_0.png","img2/300/Congruent/R/C_Dist_300_LN_5_LD_25_RN_7_RD_14_1.png","img2/200/Incongruent/L/I_Dist_200_LN_7_LD_10_RN_8_RD_16_0.png","img2/300/Congruent/R/C_Dist_300_LN_3_LD_6_RN_4_RD_5_1.png","img2/100/Incongruent/R/I_Dist_100_LN_11_LD_22_RN_9_RD_15_1.png","img2/100/Congruent/L/C_Dist_100_LN_6_LD_20_RN_5_RD_25_0.png","img2/100/Congruent/L/C_Dist_100_LN_9_LD_15_RN_8_RD_16_0.png","img2/300/Congruent/R/C_Dist_300_LN_3_LD_12_RN_11_RD_20_1.png","img2/300/Congruent/R/C_Dist_300_LN_1_LD_5_RN_6_RD_12_1.png","img2/200/Incongruent/L/I_Dist_200_LN_4_LD_6_RN_14_RD_30_0.png","img2/300/Incongruent/L/I_Dist_300_LN_8_LD_10_RN_14_RD_28_0.png","img2/200/Congruent/R/C_Dist_200_LN_3_LD_12_RN_9_RD_20_1.png","img2/100/Incongruent/R/I_Dist_100_LN_6_LD_12_RN_3_RD_5_1.png","img2/100/Congruent/L/C_Dist_100_LN_15_LD_25_RN_13_RD_26_0.png","img2/100/Congruent/R/C_Dist_100_LN_12_LD_30_RN_13_RD_26_1.png","img2/100/Incongruent/R/I_Dist_100_LN_13_LD_26_RN_12_RD_20_1.png","img2/100/Incongruent/L/I_Dist_100_LN_9_LD_15_RN_14_RD_28_0.png","img2/100/Congruent/L/C_Dist_100_LN_6_LD_20_RN_5_RD_25_0.png","img2/200/Incongruent/L/I_Dist_200_LN_1_LD_3_RN_2_RD_15_0.png","img2/300/Incongruent/L/I_Dist_300_LN_7_LD_10_RN_8_RD_20_0.png","img2/100/Incongruent/R/I_Dist_100_LN_8_LD_16_RN_6_RD_10_1.png","img2/200/Incongruent/R/I_Dist_200_LN_4_LD_30_RN_1_RD_3_1.png","img2/300/Congruent/L/C_Dist_300_LN_12_LD_24_RN_2_RD_10_0.png","img2/100/Incongruent/R/I_Dist_100_LN_17_LD_30_RN_10_RD_15_1.png","img2/300/Congruent/L/C_Dist_300_LN_11_LD_22_RN_2_RD_10_0.png","img2/300/Incongruent/L/I_Dist_300_LN_3_LD_6_RN_4_RD_20_0.png","img2/100/Congruent/R/C_Dist_100_LN_6_LD_12_RN_15_RD_25_1.png","img2/300/Congruent/R/C_Dist_300_LN_5_LD_25_RN_6_RD_12_1.png","img2/200/Incongruent/R/I_Dist_200_LN_4_LD_30_RN_1_RD_3_1.png","img2/100/Incongruent/R/I_Dist_100_LN_8_LD_16_RN_6_RD_10_1.png","img2/300/Incongruent/L/I_Dist_300_LN_1_LD_2_RN_3_RD_15_0.png","img2/200/Congruent/R/C_Dist_200_LN_13_LD_26_RN_14_RD_20_1.png","img2/200/Incongruent/R/I_Dist_200_LN_14_LD_30_RN_12_RD_18_1.png","img2/100/Incongruent/R/I_Dist_100_LN_11_LD_22_RN_9_RD_15_1.png","img2/100/Congruent/L/C_Dist_100_LN_15_LD_25_RN_13_RD_26_0.png","img2/200/Incongruent/R/I_Dist_200_LN_14_LD_30_RN_12_RD_18_1.png","img2/200/Congruent/L/C_Dist_200_LN_16_LD_30_RN_9_RD_27_0.png","img2/200/Congruent/L/C_Dist_200_LN_8_LD_15_RN_7_RD_21_0.png","img2/300/Incongruent/L/I_Dist_300_LN_1_LD_2_RN_2_RD_10_0.png","img2/100/Incongruent/L/I_Dist_100_LN_9_LD_15_RN_13_RD_26_0.png","img2/100/Incongruent/L/I_Dist_100_LN_6_LD_10_RN_11_RD_22_0.png","img2/200/Incongruent/R/I_Dist_200_LN_14_LD_30_RN_6_RD_9_1.png","img2/200/Congruent/L/C_Dist_200_LN_8_LD_15_RN_7_RD_21_0.png","img2/300/Congruent/L/C_Dist_300_LN_9_LD_10_RN_3_RD_5_0.png","img2/200/Congruent/R/C_Dist_200_LN_6_LD_12_RN_7_RD_10_1.png","img2/200/Incongruent/L/I_Dist_200_LN_7_LD_10_RN_12_RD_24_0.png","img2/100/Congruent/R/C_Dist_100_LN_4_LD_8_RN_6_RD_10_1.png","img2/100/Incongruent/R/I_Dist_100_LN_10_LD_25_RN_8_RD_16_1.png","img2/200/Congruent/L/C_Dist_200_LN_20_LD_25_RN_9_RD_15_0.png","img2/200/Congruent/R/C_Dist_200_LN_5_LD_10_RN_14_RD_20_1.png","img2/100/Congruent/R/C_Dist_100_LN_7_LD_14_RN_15_RD_25_1.png","img2/300/Congruent/R/C_Dist_300_LN_4_LD_20_RN_13_RD_26_1.png","img2/100/Congruent/R/C_Dist_100_LN_6_LD_12_RN_15_RD_25_1.png","img2/100/Congruent/R/C_Dist_100_LN_1_LD_2_RN_18_RD_30_1.png","img2/300/Incongruent/R/I_Dist_300_LN_4_LD_20_RN_2_RD_4_1.png","img2/200/Incongruent/L/I_Dist_200_LN_1_LD_2_RN_3_RD_10_0.png","img2/300/Congruent/L/C_Dist_300_LN_12_LD_24_RN_2_RD_10_0.png","img2/300/Congruent/R/C_Dist_300_LN_8_LD_15_RN_10_RD_12_1.png","img2/100/Incongruent/R/I_Dist_100_LN_11_LD_22_RN_9_RD_15_1.png","img2/200/Congruent/R/C_Dist_200_LN_3_LD_10_RN_11_RD_22_1.png","img2/100/Incongruent/R/I_Dist_100_LN_9_LD_18_RN_6_RD_10_1.png","img2/300/Congruent/R/C_Dist_300_LN_2_LD_10_RN_12_RD_24_1.png","img2/100/Congruent/R/C_Dist_100_LN_2_LD_5_RN_11_RD_22_1.png","img2/300/Congruent/R/C_Dist_300_LN_1_LD_5_RN_11_RD_22_1.png","img2/100/Congruent/R/C_Dist_100_LN_12_LD_30_RN_13_RD_26_1.png","img2/300/Congruent/L/C_Dist_300_LN_8_LD_16_RN_1_RD_5_0.png","img2/200/Incongruent/L/I_Dist_200_LN_7_LD_10_RN_12_RD_24_0.png","img2/300/Congruent/L/C_Dist_300_LN_20_LD_25_RN_14_RD_28_0.png","img2/300/Incongruent/L/I_Dist_300_LN_1_LD_2_RN_3_RD_15_0.png","img2/300/Incongruent/L/I_Dist_300_LN_1_LD_2_RN_2_RD_10_0.png","img2/300/Congruent/R/C_Dist_300_LN_1_LD_5_RN_3_RD_6_1.png","img2/200/Incongruent/L/I_Dist_200_LN_7_LD_10_RN_14_RD_28_0.png","img2/200/Congruent/L/C_Dist_200_LN_21_LD_30_RN_2_RD_4_0.png","img2/300/Incongruent/R/I_Dist_300_LN_4_LD_20_RN_2_RD_4_1.png","img2/200/Congruent/R/C_Dist_200_LN_3_LD_10_RN_11_RD_22_1.png","img2/300/Congruent/L/C_Dist_300_LN_11_LD_22_RN_2_RD_10_0.png","img2/300/Incongruent/R/I_Dist_300_LN_4_LD_20_RN_2_RD_4_1.png","img2/200/Incongruent/R/I_Dist_200_LN_4_LD_30_RN_1_RD_3_1.png","img2/200/Incongruent/R/I_Dist_200_LN_4_LD_30_RN_1_RD_3_1.png","img2/200/Incongruent/R/I_Dist_200_LN_14_LD_30_RN_12_RD_18_1.png","img2/200/Congruent/R/C_Dist_200_LN_3_LD_10_RN_7_RD_14_1.png","img2/100/Congruent/L/C_Dist_100_LN_15_LD_25_RN_13_RD_26_0.png","img2/100/Incongruent/L/I_Dist_100_LN_1_LD_2_RN_8_RD_20_0.png","img2/100/Congruent/L/C_Dist_100_LN_10_LD_25_RN_3_RD_10_0.png","img2/300/Incongruent/R/I_Dist_300_LN_4_LD_20_RN_2_RD_4_1.png","img2/100/Incongruent/L/I_Dist_100_LN_9_LD_10_RN_20_RD_25_0.png","img2/100/Incongruent/L/I_Dist_100_LN_9_LD_15_RN_14_RD_28_0.png","img2/200/Congruent/L/C_Dist_200_LN_16_LD_30_RN_9_RD_27_0.png","img2/100/Incongruent/R/I_Dist_100_LN_13_LD_26_RN_12_RD_20_1.png","img2/200/Congruent/R/C_Dist_200_LN_3_LD_6_RN_14_RD_20_1.png","img2/200/Congruent/R/C_Dist_200_LN_13_LD_26_RN_14_RD_20_1.png","img2/100/Congruent/R/C_Dist_100_LN_6_LD_12_RN_15_RD_25_1.png","img2/300/Incongruent/L/I_Dist_300_LN_8_LD_10_RN_9_RD_18_0.png","img2/200/Congruent/L/C_Dist_200_LN_20_LD_25_RN_9_RD_15_0.png","img2/300/Incongruent/L/I_Dist_300_LN_8_LD_10_RN_9_RD_18_0.png","img2/100/Incongruent/R/I_Dist_100_LN_8_LD_16_RN_6_RD_10_1.png","img2/100/Congruent/L/C_Dist_100_LN_15_LD_25_RN_13_RD_26_0.png","img2/300/Incongruent/R/I_Dist_300_LN_13_LD_26_RN_12_RD_15_1.png","img2/200/Incongruent/R/I_Dist_200_LN_7_LD_15_RN_4_RD_6_1.png","img2/100/Congruent/L/C_Dist_100_LN_11_LD_22_RN_4_RD_10_0.png","img2/200/Incongruent/R/I_Dist_200_LN_4_LD_30_RN_1_RD_3_1.png","img2/100/Congruent/L/C_Dist_100_LN_10_LD_25_RN_3_RD_10_0.png","img2/100/Incongruent/R/I_Dist_100_LN_13_LD_26_RN_12_RD_20_1.png","img2/200/Incongruent/R/I_Dist_200_LN_4_LD_30_RN_1_RD_3_1.png","img2/300/Incongruent/R/I_Dist_300_LN_13_LD_26_RN_12_RD_15_1.png","img2/300/Congruent/R/C_Dist_300_LN_4_LD_20_RN_13_RD_26_1.png","img2/200/Congruent/R/C_Dist_200_LN_1_LD_2_RN_21_RD_30_1.png","img2/300/Incongruent/L/I_Dist_300_LN_8_LD_10_RN_14_RD_28_0.png","img2/200/Congruent/R/C_Dist_200_LN_1_LD_2_RN_21_RD_30_1.png","img2/200/Incongruent/L/I_Dist_200_LN_7_LD_10_RN_14_RD_28_0.png","img2/100/Congruent/R/C_Dist_100_LN_1_LD_2_RN_18_RD_30_1.png","img2/200/Congruent/R/C_Dist_200_LN_3_LD_10_RN_11_RD_22_1.png","img2/300/Incongruent/L/I_Dist_300_LN_4_LD_5_RN_6_RD_12_0.png","img2/300/Congruent/L/C_Dist_300_LN_20_LD_25_RN_13_RD_26_0.png","img2/200/Incongruent/R/I_Dist_200_LN_6_LD_20_RN_3_RD_6_1.png","img2/200/Congruent/L/C_Dist_200_LN_8_LD_15_RN_2_RD_6_0.png"],"dist100_C":[["C_Dist_100_LN_10_LD_25_RN_3_RD_10_0.png","C_Dist_100_LN_11_LD_22_RN_4_RD_10_0.png","C_Dist_100_LN_11_LD_22_RN_6_RD_15_0.png","C_Dist_100_LN_15_LD_25_RN_13_RD_26_0.png","C_Dist_100_LN_3_LD_6_RN_2_RD_5_0.png","C_Dist_100_LN_6_LD_20_RN_5_RD_25_0.png","C_Dist_100_LN_8_LD_16_RN_2_RD_5_0.png","C_Dist_100_LN_9_LD_15_RN_8_RD_16_0.png"],["C_Dist_100_LN_1_LD_2_RN_18_RD_30_1.png","C_Dist_100_LN_1_LD_2_RN_3_RD_5_1.png","C_Dist_100_LN_12_LD_30_RN_13_RD_26_1.png","C_Dist_100_LN_2_LD_5_RN_11_RD_22_1.png","C_Dist_100_LN_2_LD_5_RN_6_RD_12_1.png","C_Dist_100_LN_3_LD_20_RN_4_RD_16_1.png","C_Dist_100_LN_4_LD_10_RN_15_RD_30_1.png","C_Dist_100_LN_4_LD_8_RN_6_RD_10_1.png","C_Dist_100_LN_6_LD_12_RN_15_RD_25_1.png","C_Dist_100_LN_7_LD_14_RN_15_RD_25_1.png","C_Dist_100_LN_7_LD_14_RN_9_RD_15_1.png"]],"dist100_I":[["I_Dist_100_LN_1_LD_2_RN_8_RD_20_0.png","I_Dist_100_LN_2_LD_4_RN_6_RD_15_0.png","I_Dist_100_LN_2_LD_4_RN_8_RD_20_0.png","I_Dist_100_LN_3_LD_5_RN_11_RD_22_0.png","I_Dist_100_LN_3_LD_5_RN_8_RD_16_0.png","I_Dist_100_LN_3_LD_6_RN_4_RD_10_0.png","I_Dist_100_LN_3_LD_9_RN_7_RD_30_0.png","I_Dist_100_LN_4_LD_8_RN_8_RD_20_0.png","I_Dist_100_LN_6_LD_10_RN_11_RD_22_0.png","I_Dist_100_LN_6_LD_10_RN_13_RD_26_0.png","I_Dist_100_LN_6_LD_10_RN_7_RD_14_0.png","I_Dist_100_LN_9_LD_10_RN_20_RD_25_0.png","I_Dist_100_LN_9_LD_15_RN_13_RD_26_0.png","I_Dist_100_LN_9_LD_15_RN_14_RD_28_0.png"],["I_Dist_100_LN_10_LD_25_RN_8_RD_16_1.png","I_Dist_100_LN_10_LD_25_RN_9_RD_18_1.png","I_Dist_100_LN_11_LD_22_RN_9_RD_15_1.png","I_Dist_100_LN_12_LD_24_RN_9_RD_15_1.png","I_Dist_100_LN_12_LD_30_RN_2_RD_4_1.png","I_Dist_100_LN_13_LD_26_RN_12_RD_20_1.png","I_Dist_100_LN_13_LD_26_RN_6_RD_10_1.png","I_Dist_100_LN_17_LD_30_RN_10_RD_15_1.png","I_Dist_100_LN_6_LD_12_RN_3_RD_5_1.png","I_Dist_100_LN_8_LD_16_RN_6_RD_10_1.png","I_Dist_100_LN_8_LD_20_RN_1_RD_2_1.png","I_Dist_100_LN_9_LD_18_RN_6_RD_10_1.png"]],"dist100_S":[["E_Dist_100_LN_2_LD_12_RN_2_RD_30_0.png","E_Dist_100_LN_6_LD_10_RN_6_RD_12_0.png"],["E_Dist_100_LN_6_LD_12_RN_6_RD_10_1.png"]],"dist200_C":[["C_Dist_200_LN_11_LD_22_RN_3_RD_10_0.png","C_Dist_200_LN_12_LD_15_RN_6_RD_10_0.png","C_Dist_200_LN_12_LD_20_RN_6_RD_15_0.png","C_Dist_200_LN_14_LD_28_RN_6_RD_20_0.png","C_Dist_200_LN_15_LD_25_RN_4_RD_10_0.png","C_Dist_200_LN_16_LD_20_RN_12_RD_20_0.png","C_Dist_200_LN_16_LD_30_RN_9_RD_27_0.png","C_Dist_200_LN_20_LD_25_RN_9_RD_15_0.png","C_Dist_200_LN_21_LD_30_RN_2_RD_4_0.png","C_Dist_200_LN_4_LD_10_RN_3_RD_15_0.png","C_Dist_200_LN_4_LD_8_RN_3_RD_10_0.png","C_Dist_200_LN_6_LD_15_RN_3_RD_15_0.png","C_Dist_200_LN_7_LD_21_RN_2_RD_15_0.png","C_Dist_200_LN_8_LD_15_RN_2_RD_6_0.png","C_Dist_200_LN_8_LD_15_RN_3_RD_9_0.png","C_Dist_200_LN_8_LD_15_RN_7_RD_21_0.png","C_Dist_200_LN_9_LD_20_RN_4_RD_16_0.png"],["C_Dist_200_LN_1_LD_2_RN_21_RD_30_1.png","C_Dist_200_LN_13_LD_26_RN_14_RD_20_1.png","C_Dist_200_LN_3_LD_10_RN_11_RD_22_1.png","C_Dist_200_LN_3_LD_10_RN_14_RD_28_1.png","C_Dist_200_LN_3_LD_10_RN_7_RD_14_1.png","C_Dist_200_LN_3_LD_12_RN_9_RD_20_1.png","C_Dist_200_LN_3_LD_6_RN_14_RD_20_1.png","C_Dist_200_LN_5_LD_10_RN_14_RD_20_1.png","C_Dist_200_LN_6_LD_12_RN_7_RD_10_1.png","C_Dist_200_LN_6_LD_20_RN_11_RD_22_1.png","C_Dist_200_LN_7_LD_15_RN_18_RD_27_1.png","C_Dist_200_LN_9_LD_30_RN_13_RD_26_1.png"]],"dist200_I":[["I_Dist_200_LN_1_LD_2_RN_3_RD_10_0.png","I_Dist_200_LN_1_LD_3_RN_2_RD_15_0.png","I_Dist_200_LN_3_LD_4_RN_11_RD_20_0.png","I_Dist_200_LN_4_LD_5_RN_6_RD_10_0.png","I_Dist_200_LN_4_LD_6_RN_14_RD_30_0.png","I_Dist_200_LN_7_LD_10_RN_12_RD_24_0.png","I_Dist_200_LN_7_LD_10_RN_14_RD_28_0.png","I_Dist_200_LN_7_LD_10_RN_8_RD_16_0.png"],["I_Dist_200_LN_11_LD_20_RN_3_RD_4_1.png","I_Dist_200_LN_14_LD_30_RN_12_RD_18_1.png","I_Dist_200_LN_14_LD_30_RN_6_RD_9_1.png","I_Dist_200_LN_3_LD_10_RN_1_RD_2_1.png","I_Dist_200_LN_4_LD_30_RN_1_RD_3_1.png","I_Dist_200_LN_6_LD_20_RN_3_RD_6_1.png","I_Dist_200_LN_7_LD_15_RN_4_RD_6_1.png","I_Dist_200_LN_7_LD_15_RN_6_RD_9_1.png","I_Dist_200_LN_9_LD_15_RN_8_RD_10_1.png"]],"dist200_S":[["E_Dist_200_LN_3_LD_6_RN_3_RD_10_0.png"],["E_Dist_200_LN_3_LD_10_RN_3_RD_6_1.png"]],"dist300_C":[["C_Dist_300_LN_11_LD_22_RN_1_RD_5_0.png","C_Dist_300_LN_11_LD_22_RN_2_RD_10_0.png","C_Dist_300_LN_11_LD_22_RN_4_RD_20_0.png","C_Dist_300_LN_12_LD_24_RN_2_RD_10_0.png","C_Dist_300_LN_18_LD_20_RN_9_RD_15_0.png","C_Dist_300_LN_20_LD_25_RN_13_RD_26_0.png","C_Dist_300_LN_20_LD_25_RN_14_RD_28_0.png","C_Dist_300_LN_20_LD_25_RN_5_RD_10_0.png","C_Dist_300_LN_20_LD_25_RN_8_RD_16_0.png","C_Dist_300_LN_20_LD_25_RN_9_RD_18_0.png","C_Dist_300_LN_24_LD_30_RN_2_RD_4_0.png","C_Dist_300_LN_24_LD_30_RN_8_RD_16_0.png","C_Dist_300_LN_3_LD_6_RN_2_RD_10_0.png","C_Dist_300_LN_4_LD_10_RN_1_RD_10_0.png","C_Dist_300_LN_4_LD_5_RN_2_RD_4_0.png","C_Dist_300_LN_8_LD_16_RN_1_RD_5_0.png","C_Dist_300_LN_9_LD_10_RN_3_RD_5_0.png"],["C_Dist_300_LN_1_LD_20_RN_7_RD_20_1.png","C_Dist_300_LN_1_LD_3_RN_19_RD_30_1.png","C_Dist_300_LN_1_LD_30_RN_8_RD_24_1.png","C_Dist_300_LN_1_LD_5_RN_11_RD_22_1.png","C_Dist_300_LN_1_LD_5_RN_3_RD_6_1.png","C_Dist_300_LN_1_LD_5_RN_6_RD_12_1.png","C_Dist_300_LN_2_LD_10_RN_12_RD_24_1.png","C_Dist_300_LN_2_LD_20_RN_10_RD_25_1.png","C_Dist_300_LN_3_LD_12_RN_11_RD_20_1.png","C_Dist_300_LN_3_LD_6_RN_4_RD_5_1.png","C_Dist_300_LN_4_LD_20_RN_13_RD_26_1.png","C_Dist_300_LN_5_LD_25_RN_6_RD_12_1.png","C_Dist_300_LN_5_LD_25_RN_7_RD_14_1.png","C_Dist_300_LN_7_LD_14_RN_20_RD_25_1.png","C_Dist_300_LN_8_LD_15_RN_10_RD_12_1.png"]],"dist300_I":[["I_Dist_300_LN_1_LD_2_RN_2_RD_10_0.png","I_Dist_300_LN_1_LD_2_RN_3_RD_15_0.png","I_Dist_300_LN_2_LD_4_RN_6_RD_30_0.png","I_Dist_300_LN_3_LD_6_RN_4_RD_20_0.png","I_Dist_300_LN_4_LD_5_RN_6_RD_12_0.png","I_Dist_300_LN_4_LD_5_RN_8_RD_16_0.png","I_Dist_300_LN_7_LD_10_RN_8_RD_20_0.png","I_Dist_300_LN_8_LD_10_RN_14_RD_28_0.png","I_Dist_300_LN_8_LD_10_RN_9_RD_18_0.png"],["I_Dist_300_LN_13_LD_26_RN_12_RD_15_1.png","I_Dist_300_LN_4_LD_20_RN_2_RD_4_1.png"]],"dist300_S":[["E_Dist_300_LN_9_LD_12_RN_9_RD_20_0.png"],["E_Dist_300_LN_18_LD_30_RN_18_RD_20_1.png","E_Dist_300_LN_3_LD_10_RN_3_RD_5_1.png","E_Dist_300_LN_9_LD_20_RN_9_RD_12_1.png"]],"dist500_C":[["C_Dist_500_LN_10_LD_13_RN_7_RD_26_0.png","C_Dist_500_LN_10_LD_15_RN_4_RD_24_0.png","C_Dist_500_LN_12_LD_16_RN_3_RD_12_0.png","C_Dist_500_LN_12_LD_18_RN_4_RD_24_0.png","C_Dist_500_LN_15_LD_18_RN_5_RD_15_0.png","C_Dist_500_LN_15_LD_20_RN_1_RD_4_0.png","C_Dist_500_LN_18_LD_27_RN_1_RD_6_0.png","C_Dist_500_LN_20_LD_24_RN_1_RD_3_0.png","C_Dist_500_LN_20_LD_24_RN_3_RD_9_0.png","C_Dist_500_LN_20_LD_24_RN_7_RD_21_0.png","C_Dist_500_LN_20_LD_28_RN_3_RD_14_0.png","C_Dist_500_LN_21_LD_28_RN_6_RD_24_0.png","C_Dist_500_LN_22_LD_28_RN_2_RD_7_0.png","C_Dist_500_LN_25_LD_30_RN_9_RD_27_0.png","C_Dist_500_LN_4_LD_6_RN_1_RD_6_0.png","C_Dist_500_LN_5_LD_6_RN_2_RD_6_0.png","C_Dist_500_LN_6_LD_9_RN_1_RD_6_0.png","C_Dist_500_LN_7_LD_10_RN_1_RD_5_0.png","C_Dist_500_LN_8_LD_12_RN_1_RD_6_0.png","C_Dist_500_LN_8_LD_12_RN_4_RD_24_0.png"],["C_Dist_500_LN_1_LD_4_RN_12_RD_16_1.png","C_Dist_500_LN_1_LD_4_RN_9_RD_12_1.png","C_Dist_500_LN_1_LD_9_RN_11_RD_18_1.png","C_Dist_500_LN_10_LD_24_RN_22_RD_24_1.png","C_Dist_500_LN_2_LD_12_RN_10_RD_15_1.png","C_Dist_500_LN_2_LD_12_RN_12_RD_18_1.png","C_Dist_500_LN_2_LD_12_RN_4_RD_6_1.png","C_Dist_500_LN_2_LD_24_RN_7_RD_12_1.png","C_Dist_500_LN_2_LD_5_RN_18_RD_20_1.png","C_Dist_500_LN_2_LD_5_RN_9_RD_10_1.png","C_Dist_500_LN_2_LD_8_RN_12_RD_16_1.png","C_Dist_500_LN_2_LD_8_RN_21_RD_28_1.png","C_Dist_500_LN_3_LD_10_RN_4_RD_5_1.png","C_Dist_500_LN_3_LD_12_RN_15_RD_20_1.png","C_Dist_500_LN_3_LD_30_RN_6_RD_10_1.png","C_Dist_500_LN_3_LD_8_RN_14_RD_16_1.png","C_Dist_500_LN_4_LD_16_RN_15_RD_20_1.png","C_Dist_500_LN_4_LD_24_RN_12_RD_18_1.png","C_Dist_500_LN_5_LD_14_RN_6_RD_7_1.png","C_Dist_500_LN_7_LD_21_RN_20_RD_24_1.png","C_Dist_500_LN_7_LD_28_RN_12_RD_16_1.png","C_Dist_500_LN_7_LD_28_RN_9_RD_12_1.png","C_Dist_500_LN_9_LD_27_RN_20_RD_24_1.png"]],"dist500_I":[["I_Dist_500_LN_2_LD_3_RN_4_RD_24_0.png","I_Dist_500_LN_5_LD_6_RN_6_RD_18_0.png","I_Dist_500_LN_7_LD_8_RN_9_RD_24_0.png"],["I_Dist_500_LN_7_LD_21_RN_5_RD_6_1.png"]],"dist500_S":[["E_Dist_500_LN_6_LD_8_RN_6_RD_24_0.png"],["E_Dist_500_LN_2_LD_12_RN_2_RD_3_1.png","E_Dist_500_LN_6_LD_24_RN_6_RD_8_1.png"]]}},{"start_time":1551800565743,"click_time":1551800568002,"finger_time":1551800567241,"fix_duration":800.4362070317056,"trial":1,"RT":1498,"MT":761,"sideResp":2,"stimulus":[],"xmouse":[820,820,820,820,820,820,820,820,820,820,820,820,820,820,820,820,820,820,820,820,820,820,820,820,820,820,820,820,820,820,820,820,820,820,820,820,820,820,820,820,820,820,820,821,821,821,820,820,820,820,820,820,820,820,820,820,820,820,820,820,820,820,820,820,820,820,820,820,820,820,819,818,810,802,794,784,776,760,754,739,731,729,728,728,728,728,728,728,728,728,728,731,764,791,820,849,874,895,898,901,904,908,915,917,918,925,937,984,1016,1027,1037,1042,1065],"ymouse":[508,508,508,508,508,508,508,508,508,508,508,508,508,508,508,508,508,508,508,508,508,508,508,508,508,508,508,508,508,508,508,508,508,508,508,508,508,508,508,508,508,508,508,507,507,507,507,507,507,507,507,507,507,507,507,507,507,507,507,507,507,507,507,507,507,507,507,507,507,507,508,507,495,479,465,441,419,366,356,335,328,325,325,325,325,325,325,325,325,325,323,321,304,285,262,229,189,117,92,61,46,37,30,29,28,27,27,32,37,41,45,47,58],"timestamp_mouse":[18,44,58,78,98,118,137,158,178,198,219,237,259,277,297,318,337,359,379,397,418,437,457,478,499,517,537,559,579,598,619,638,659,678,698,719,737,757,779,797,819,837,857,877,898,917,937,957,978,999,1018,1039,1057,1078,1098,1118,1138,1157,1177,1198,1219,1237,1257,1278,1298,1318,1339,1357,1378,1398,1417,1437,1458,1477,1498,1518,1538,1559,1578,1598,1617,1639,1659,1679,1698,1717,1739,1758,1777,1797,1819,1837,1857,1877,1899,1918,1938,1958,1979,1998,2018,2038,2057,2077,2098,2118,2137,2158,2178,2197,2217,2239,2258],"xSR":741.5,"ySR":469.95,"xT1":424.9,"yT1":0,"xT2":1058.1,"yT2":0,"toosoon":0,"cond_shown":"Congruent","ratio_trial":300,"L_num":1,"L_den":5,"R_num":11,"R_den":22,"correct_side":2,"subjID":"JuanDavidMartinez6d","gender":"macho","school":"cafaaaaaaam","age":"11"},{"start_time":1551800574049,"click_time":1551800575322,"finger_time":1551800575140,"fix_duration":345.43473668792035,"trial":2,"RT":1091,"MT":182,"sideResp":1,"stimulus":[],"xmouse":[792,792,792,792,792,792,792,792,792,792,792,792,792,792,792,792,792,792,792,792,792,792,792,792,792,792,792,792,792,792,792,792,792,792,792,792,792,792,792,792,792,792,792,792,792,792,792,792,792,792,792,791,780,764,739,702,666,606,584,562,542,530,524,522],"ymouse":[520,520,520,520,520,520,520,520,520,520,520,520,520,520,520,520,520,520,520,520,520,520,520,520,520,520,520,520,520,520,520,520,520,520,520,520,520,520,520,520,520,520,520,520,520,520,520,520,520,520,520,521,510,486,448,398,351,266,226,180,141,113,100,96],"timestamp_mouse":[12,36,52,73,91,112,132,151,173,193,213,231,253,272,293,312,333,351,373,391,413,433,451,473,491,511,533,551,573,593,611,633,652,673,692,711,733,752,772,792,813,833,852,871,893,913,931,953,973,992,1012,1032,1052,1072,1091,1113,1132,1151,1172,1191,1211,1232,1252,1273],"xSR":741.5,"ySR":469.95,"xT1":424.9,"yT1":0,"xT2":1058.1,"yT2":0,"toosoon":0,"cond_shown":"Incongruent","ratio_trial":300,"L_num":4,"L_den":20,"R_num":2,"R_den":4,"correct_side":2,"subjID":"JuanDavidMartinez6d","gender":"macho","school":"cafaaaaaaam","age":"11"},{"start_time":1551800579920,"click_time":1551800581741,"finger_time":1551800581420,"fix_duration":856.6616513462743,"trial":3,"RT":1500,"MT":321,"sideResp":2,"stimulus":[],"xmouse":[796,796,796,796,796,796,796,796,796,796,796,796,796,796,796,796,796,796,796,796,796,796,796,796,796,796,796,796,796,796,796,796,796,796,796,796,796,796,796,796,796,796,796,796,796,796,796,796,796,796,796,796,796,796,796,796,796,796,796,796,796,796,796,796,796,796,796,796,796,796,796,796,796,796,802,832,868,907,937,966,970,973,974,975,982,986,988,989,993,998,1034,1072],"ymouse":[537,537,537,537,537,537,537,537,537,537,537,537,537,537,537,537,537,537,537,537,537,537,537,537,537,537,537,537,537,537,537,537,537,537,537,537,537,537,537,537,537,537,537,537,537,537,537,537,537,537,537,537,537,537,537,537,537,537,537,537,537,537,537,537,537,537,537,537,537,537,537,537,537,537,515,460,391,322,264,206,196,186,176,168,146,136,129,124,116,109,70,44],"timestamp_mouse":[10,21,41,62,82,102,121,142,161,181,201,221,240,262,282,301,320,342,360,380,402,422,442,460,482,502,521,542,560,581,602,620,640,662,680,700,722,741,760,782,800,821,841,862,882,900,922,940,961,981,1001,1021,1040,1061,1081,1100,1121,1142,1161,1181,1201,1220,1240,1261,1281,1301,1320,1341,1360,1381,1401,1420,1440,1461,1480,1500,1521,1541,1560,1580,1600,1620,1641,1661,1680,1700,1721,1741,1760,1781,1801,1820],"xSR":741.5,"ySR":469.95,"xT1":424.9,"yT1":0,"xT2":1058.1,"yT2":0,"toosoon":0,"cond_shown":"Incongruent","ratio_trial":300,"L_num":4,"L_den":20,"R_num":2,"R_den":4,"correct_side":2,"subjID":"JuanDavidMartinez6d","gender":"macho","school":"cafaaaaaaam","age":"11"},{"start_time":1551800584176,"click_time":1551800586161,"finger_time":1551800585800,"fix_duration":913.9057815324308,"trial":4,"RT":1624,"MT":361,"sideResp":1,"stimulus":[],"xmouse":[764,764,764,764,764,764,764,764,765,769,771,773,775,780,784,785,785,785,785,785,785,785,785,785,785,785,785,785,785,785,785,785,785,785,785,785,785,785,785,785,785,785,785,785,785,785,785,785,785,785,785,785,785,785,785,785,785,785,785,785,785,785,785,785,785,785,785,785,785,785,785,785,785,785,785,785,785,785,785,784,750,653,624,611,595,588,591,615,623,627,627,627,627,627,620,609,579,551,533,520],"ymouse":[550,550,550,550,550,550,550,550,551,551,550,549,547,544,542,542,542,542,542,542,542,542,542,542,542,542,542,542,542,542,542,542,542,542,542,542,542,542,542,542,542,542,542,542,542,542,542,542,542,542,542,542,542,542,542,542,542,542,542,542,542,542,542,542,542,542,542,542,542,542,542,542,542,542,542,542,542,542,542,535,487,381,352,330,297,256,154,91,69,57,54,54,54,53,49,47,45,45,45,45],"timestamp_mouse":[9,38,44,64,85,106,126,144,164,185,204,224,244,266,286,304,325,346,366,384,405,424,446,465,485,504,525,544,565,584,606,625,645,664,686,704,725,745,766,785,805,824,846,864,884,904,925,945,966,984,1005,1026,1044,1065,1086,1105,1125,1146,1164,1186,1206,1225,1246,1264,1286,1305,1324,1345,1366,1384,1404,1426,1444,1464,1486,1504,1525,1544,1565,1585,1605,1624,1644,1664,1684,1705,1725,1745,1764,1784,1804,1825,1845,1866,1885,1904,1925,1946,1964,1985],"xSR":741.5,"ySR":469.95,"xT1":424.9,"yT1":0,"xT2":1058.1,"yT2":0,"toosoon":0,"cond_shown":"Incongruent","ratio_trial":300,"L_num":1,"L_den":2,"R_num":3,"R_den":15,"correct_side":1,"subjID":"JuanDavidMartinez6d","gender":"macho","school":"cafaaaaaaam","age":"11"},{"start_time":1551800587809,"click_time":1551800589301,"finger_time":1551800588920,"fix_duration":407.8056153351329,"trial":5,"RT":1111,"MT":381,"sideResp":2,"stimulus":[],"xmouse":[779,779,779,779,779,779,779,779,779,779,779,779,779,779,779,779,779,779,779,779,779,779,779,779,779,779,779,779,779,779,779,779,779,779,779,779,779,779,779,779,779,779,779,779,779,779,779,779,779,779,778,778,778,779,779,784,808,839,874,923,938,955,969,993,993,993,993,993,993,993,993,993,993,993,1136],"ymouse":[519,519,519,519,519,519,519,519,519,519,519,519,519,519,519,519,519,519,519,519,519,519,519,519,519,519,519,519,519,519,519,519,519,519,519,519,519,519,519,519,519,519,519,519,519,519,519,519,519,519,519,517,515,513,499,457,398,349,304,226,189,141,87,26,26,26,26,26,26,26,26,26,26,26,21],"timestamp_mouse":[20,42,52,72,91,111,133,151,171,192,211,233,251,273,293,311,331,352,373,391,413,433,451,472,493,512,532,551,573,593,611,633,653,671,691,713,733,752,772,792,811,832,852,871,892,911,931,951,971,992,1011,1033,1051,1071,1091,1111,1131,1153,1172,1192,1211,1232,1252,1271,1293,1312,1332,1353,1372,1391,1411,1431,1452,1471,1492],"xSR":741.5,"ySR":469.95,"xT1":424.9,"yT1":0,"xT2":1058.1,"yT2":0,"toosoon":0,"cond_shown":"Congruent","ratio_trial":300,"L_num":5,"L_den":25,"R_num":7,"R_den":14,"correct_side":2,"subjID":"JuanDavidMartinez6d","gender":"macho","school":"cafaaaaaaam","age":"11"},{"start_time":1551800591763,"click_time":1551800593401,"finger_time":1551800591820,"fix_duration":1220.7654217855843,"trial":6,"RT":57,"MT":1581,"sideResp":2,"stimulus":[],"xmouse":[763,760,753,752,751,750,750,750,750,750,750,750,750,750,750,750,750,750,750,750,750,750,750,750,750,750,750,752,757,766,776,787,788,788,788,788,788,788,788,788,788,788,788,788,788,788,788,788,788,788,788,788,788,788,788,788,789,809,837,881,942,1010,1140,1177,1187,1187,1187,1187,1187,1187,1187,1187,1187,1187,1187,1187,1187,1187,1187,1187,1187,1075],"ymouse":[494,476,453,449,446,443,443,443,443,443,443,443,443,443,443,443,443,443,443,443,443,443,443,443,443,443,443,454,463,477,491,504,506,506,506,506,506,506,506,506,506,506,506,506,506,506,506,506,506,506,506,506,506,506,506,506,507,478,445,394,329,255,100,36,8,8,8,8,8,8,8,8,8,8,8,8,8,8,8,8,8,3],"timestamp_mouse":[18,37,57,77,97,117,138,158,178,198,217,238,259,277,298,318,338,358,379,398,419,439,458,478,498,519,538,558,577,598,618,638,658,678,699,718,738,759,778,798,819,837,858,879,897,918,938,957,979,999,1017,1037,1058,1077,1097,1118,1137,1157,1177,1197,1218,1238,1257,1278,1298,1318,1339,1358,1377,1398,1419,1438,1459,1479,1497,1518,1538,1558,1578,1599,1617,1638],"xSR":741.5,"ySR":469.95,"xT1":424.9,"yT1":0,"xT2":1058.1,"yT2":0,"toosoon":0,"cond_shown":"Incongruent","ratio_trial":200,"L_num":7,"L_den":10,"R_num":8,"R_den":16,"correct_side":1,"subjID":"JuanDavidMartinez6d","gender":"macho","school":"cafaaaaaaam","age":"11"},{"start_time":1551800597289,"click_time":1551800599041,"finger_time":1551800598820,"fix_duration":1047.8644920596885,"trial":7,"RT":1531,"MT":221,"sideResp":2,"stimulus":[],"xmouse":[765,765,765,765,765,765,765,765,765,765,765,765,765,765,765,765,765,765,765,775,790,801,803,803,803,803,803,803,803,803,803,803,803,803,803,803,803,803,803,803,803,803,803,803,803,803,803,803,803,803,803,803,803,803,803,803,803,803,803,803,803,803,803,803,803,803,803,803,803,803,803,803,803,804,808,824,908,957,1001,1037,1070,1081,1084,1087,1087,1091,1093,1097],"ymouse":[499,499,499,499,499,499,499,499,499,499,499,499,499,499,499,499,499,499,498,502,509,516,516,516,516,516,516,516,516,516,516,516,516,516,516,516,516,516,516,516,516,516,516,516,516,516,516,516,516,516,516,516,516,516,516,516,516,516,516,516,516,516,516,516,516,516,516,516,516,516,516,516,516,516,511,479,395,345,285,231,157,131,126,123,122,115,106,96],"timestamp_mouse":[12,45,51,72,91,112,132,152,172,192,211,232,252,271,291,311,331,352,371,392,411,431,452,472,492,512,531,551,572,593,612,632,653,672,691,712,733,753,771,793,812,831,853,872,891,911,931,953,972,993,1012,1031,1051,1073,1092,1112,1133,1152,1172,1192,1211,1231,1251,1272,1292,1313,1332,1351,1372,1392,1412,1432,1453,1471,1491,1511,1531,1551,1571,1593,1611,1631,1651,1673,1692,1712,1731,1752],"xSR":741.5,"ySR":469.95,"xT1":424.9,"yT1":0,"xT2":1058.1,"yT2":0,"toosoon":0,"cond_shown":"Congruent","ratio_trial":300,"L_num":3,"L_den":6,"R_num":4,"R_den":5,"correct_side":2,"subjID":"JuanDavidMartinez6d","gender":"macho","school":"cafaaaaaaam","age":"11"},{"start_time":1551800601943,"click_time":1551800603601,"finger_time":1551800603122,"fix_duration":1081.7582432325676,"trial":8,"RT":1179,"MT":479,"sideResp":2,"stimulus":[],"xmouse":[788,788,788,788,788,788,788,788,788,788,788,788,788,788,788,788,788,788,788,788,788,788,788,788,788,788,788,788,788,788,788,788,788,788,788,788,788,788,788,788,788,788,788,788,788,788,788,788,788,788,788,788,788,788,788,788,798,836,887,978,1036,1093,1189,1225,1225,1225,1225,1225,1225,1225,1225,1225,1225,1225,1225,1225,1225,1225,1225,1225,1225,1225,1156],"ymouse":[553,553,553,553,553,553,553,553,553,553,553,553,553,553,553,553,553,553,553,553,553,553,553,552,548,547,545,545,545,545,545,545,545,545,545,545,545,545,545,545,545,545,545,545,545,545,545,545,545,545,545,545,545,545,545,545,528,473,400,279,209,147,49,9,9,9,9,9,9,9,9,9,9,9,9,9,9,9,9,9,9,9,12],"timestamp_mouse":[18,39,58,79,97,117,138,158,178,198,218,239,258,278,299,318,337,358,378,398,418,438,458,477,499,518,537,557,577,597,619,638,658,678,697,719,737,758,778,797,818,838,858,877,898,917,938,958,977,997,1018,1039,1058,1078,1098,1117,1138,1158,1179,1197,1218,1238,1257,1278,1298,1318,1339,1357,1378,1398,1418,1438,1458,1477,1497,1517,1538,1558,1578,1597,1618,1637,1658],"xSR":741.5,"ySR":469.95,"xT1":424.9,"yT1":0,"xT2":1058.1,"yT2":0,"toosoon":0,"cond_shown":"Incongruent","ratio_trial":100,"L_num":11,"L_den":22,"R_num":9,"R_den":15,"correct_side":2,"subjID":"JuanDavidMartinez6d","gender":"macho","school":"cafaaaaaaam","age":"11"},{"start_time":1551800605207,"click_time":1551800609521,"finger_time":1551800607281,"fix_duration":445.3638686938246,"trial":9,"RT":2074,"MT":2240,"sideResp":2,"stimulus":[],"xmouse":[809,809,809,809,809,809,809,809,809,809,809,809,809,809,809,809,809,809,809,809,809,809,809,809,809,809,809,809,809,809,809,809,809,809,809,809,809,809,809,809,809,809,809,809,809,809,809,809,809,809,809,809,809,809,809,809,809,809,809,809,809,809,809,809,809,809,809,809,809,809,809,809,809,809,809,809,809,809,809,809,809,809,809,809,809,809,809,809,809,809,809,809,809,809,809,809,809,810,810,810,810,810,810,812,814,814,813,812,812,812,812,812,818,842,842,842,842,842,842,842,842,842,842,842,842,842,842,842,842,842,842,842,842,842,842,842,842,842,842,842,842,842,842,842,842,842,842,842,842,842,842,842,842,842,694,725,774,820,853,885,896,902,905,906,907,907,903,898,889,855,833,793,750,717,677,669,667,667,667,673,680,697,719,747,807,832,834,834,834,834,834,834,834,834,834,833,830,829,829,855,880,904,923,937,955,970,986,1008,1028,1048,1053,1054,1055,1058,1087,1123],"ymouse":[515,515,515,515,515,515,515,515,515,515,515,515,515,515,515,515,515,515,515,515,515,515,515,515,515,515,515,515,515,515,515,515,515,515,515,515,515,515,515,515,515,515,515,515,515,515,515,515,515,515,515,515,515,515,515,515,515,515,515,515,515,515,515,515,515,515,515,515,515,515,515,515,515,515,515,515,515,515,515,515,515,515,515,515,515,515,515,515,515,515,515,515,515,515,515,515,515,514,513,508,504,495,484,468,424,400,368,346,325,269,234,192,125,3,3,3,3,3,3,3,3,3,3,3,3,3,3,3,3,3,3,3,3,3,3,3,3,3,3,3,3,3,3,3,3,3,3,3,3,3,3,3,3,3,48,125,201,268,313,367,385,397,404,407,410,410,410,410,410,415,428,452,480,502,537,548,551,551,552,553,552,551,551,551,551,551,551,551,551,551,551,551,551,551,551,548,537,521,493,407,369,336,312,291,258,236,219,194,171,138,126,123,121,118,104,88],"timestamp_mouse":[17,44,54,74,95,113,135,155,175,193,214,233,254,273,294,315,335,354,374,394,415,434,453,474,494,514,534,555,574,594,614,634,654,673,695,713,735,755,774,794,814,833,855,873,894,914,933,955,973,994,1014,1033,1055,1073,1093,1114,1133,1155,1174,1193,1215,1235,1254,1274,1294,1313,1333,1354,1375,1394,1413,1434,1454,1473,1494,1513,1533,1553,1575,1594,1613,1635,1655,1673,1693,1715,1735,1755,1773,1794,1813,1833,1854,1873,1893,1915,1934,1954,1973,1994,2013,2034,2054,2074,2095,2114,2133,2153,2174,2194,2213,2234,2253,2275,2294,2314,2335,2355,2373,2394,2413,2433,2453,2473,2494,2513,2535,2555,2574,2593,2614,2634,2653,2674,2693,2714,2734,2754,2775,2794,2815,2834,2854,2875,2893,2914,2933,2954,2973,2994,3014,3035,3055,3075,3094,3113,3134,3154,3174,3194,3213,3233,3254,3274,3294,3315,3333,3354,3375,3394,3413,3434,3455,3475,3493,3514,3534,3554,3574,3593,3613,3633,3654,3674,3693,3715,3734,3755,3775,3794,3815,3834,3855,3875,3894,3913,3933,3954,3973,3994,4013,4034,4054,4073,4094,4114,4134,4153,4174,4193,4213,4234,4253,4273,4294,4314],"xSR":741.5,"ySR":469.95,"xT1":424.9,"yT1":0,"xT2":1058.1,"yT2":0,"toosoon":0,"cond_shown":"Congruent","ratio_trial":100,"L_num":6,"L_den":20,"R_num":5,"R_den":25,"correct_side":1,"subjID":"JuanDavidMartinez6d","gender":"macho","school":"cafaaaaaaam","age":"11"},{"start_time":1551800610951,"click_time":1551800612901,"finger_time":1551800612120,"fix_duration":250,"trial":10,"RT":1169,"MT":781,"sideResp":1,"stimulus":[],"xmouse":[804,804,804,804,804,804,804,804,804,804,804,804,804,804,804,804,804,804,804,804,804,804,804,804,804,804,804,804,804,804,804,804,804,804,804,804,804,804,804,804,804,804,804,804,804,804,804,804,804,804,804,804,804,804,804,804,804,787,759,729,710,703,699,699,693,684,665,665,665,665,665,665,665,665,665,665,665,665,665,665,412,393,380,373,373,373,373,373,373,374,375,378,391,401,408,414,424,440],"ymouse":[523,523,523,523,523,523,523,523,523,523,523,523,523,523,523,523,523,523,523,523,523,523,523,523,523,523,523,523,523,523,523,523,523,523,523,523,523,523,523,523,523,523,523,523,523,523,523,523,523,523,523,523,523,523,523,523,523,498,457,402,354,315,212,171,133,85,17,17,17,17,17,17,17,17,17,17,17,17,17,17,19,28,35,42,42,42,42,43,45,47,48,50,56,58,59,59,61,63],"timestamp_mouse":[10,36,50,69,89,111,129,151,169,189,211,229,249,271,289,309,330,350,371,390,411,430,451,469,489,510,529,549,571,591,609,630,650,670,691,710,729,750,770,789,809,830,850,870,889,909,929,949,969,989,1011,1029,1049,1069,1089,1109,1129,1150,1169,1190,1209,1229,1250,1269,1289,1309,1329,1349,1369,1390,1409,1429,1450,1469,1489,1510,1530,1550,1570,1590,1610,1630,1649,1669,1689,1710,1730,1750,1770,1789,1811,1830,1849,1869,1889,1909,1930,1949],"xSR":741.5,"ySR":469.95,"xT1":424.9,"yT1":0,"xT2":1058.1,"yT2":0,"toosoon":0,"cond_shown":"Congruent","ratio_trial":100,"L_num":9,"L_den":15,"R_num":8,"R_den":16,"correct_side":1,"subjID":"JuanDavidMartinez6d","gender":"macho","school":"cafaaaaaaam","age":"11"},{"start_time":1551800615826,"click_time":1551800617001,"finger_time":1551800616642,"fix_duration":604.0258455258439,"trial":11,"RT":816,"MT":359,"sideResp":2,"stimulus":[],"xmouse":[775,775,775,775,775,775,778,782,788,789,789,789,789,789,789,789,789,789,789,789,789,789,789,789,789,789,789,789,789,789,789,789,789,789,789,789,789,789,791,794,798,809,832,916,1007,1051,1094,1129,1172,1177,1178,1179,1179,1179,1179,1174,1166,1158,1151],"ymouse":[489,489,489,489,489,489,493,496,504,505,505,505,505,505,505,505,505,505,505,505,505,505,505,505,505,505,505,505,505,505,505,505,505,505,505,505,505,505,497,486,469,449,417,327,253,215,178,148,114,110,109,108,108,108,108,106,104,100,98],"timestamp_mouse":[14,41,54,75,95,114,134,155,175,194,215,235,254,276,294,314,334,354,374,394,414,434,454,474,494,514,534,554,574,594,614,634,654,674,694,714,735,756,774,794,816,835,856,874,894,914,935,954,975,994,1015,1035,1055,1074,1094,1115,1134,1156,1175],"xSR":741.5,"ySR":469.95,"xT1":424.9,"yT1":0,"xT2":1058.1,"yT2":0,"toosoon":0,"cond_shown":"Congruent","ratio_trial":300,"L_num":3,"L_den":12,"R_num":11,"R_den":20,"correct_side":2,"subjID":"JuanDavidMartinez6d","gender":"macho","school":"cafaaaaaaam","age":"11"},{"start_time":1551800620708,"click_time":1551800622122,"finger_time":1551800621600,"fix_duration":545.3487045705382,"trial":12,"RT":892,"MT":522,"sideResp":2,"stimulus":[],"xmouse":[796,796,796,796,796,796,796,796,796,796,796,796,796,796,796,796,796,796,796,796,796,796,796,796,796,796,796,796,796,796,796,796,796,796,796,796,796,796,796,796,796,796,796,799,834,865,877,881,884,894,898,908,916,922,928,929,931,933,934,943,948,956,965,975,1005,1019,1029,1039,1044,1051,1059],"ymouse":[505,505,505,505,505,505,505,505,505,505,505,505,505,505,505,505,505,505,505,505,505,505,505,505,505,505,505,505,505,505,505,505,505,505,505,505,505,505,505,505,505,505,505,497,409,336,300,286,280,268,262,255,245,234,222,219,214,211,208,190,182,172,160,149,120,107,99,92,88,82,75],"timestamp_mouse":[12,40,52,73,92,113,132,152,172,193,213,232,252,272,292,312,333,352,372,393,413,432,453,473,492,512,532,553,573,593,612,633,652,673,693,712,733,754,772,792,813,834,853,872,892,912,932,953,972,993,1012,1032,1052,1072,1092,1112,1132,1152,1172,1193,1213,1232,1254,1273,1292,1312,1333,1353,1373,1393,1413],"xSR":741.5,"ySR":469.95,"xT1":424.9,"yT1":0,"xT2":1058.1,"yT2":0,"toosoon":0,"cond_shown":"Congruent","ratio_trial":300,"L_num":1,"L_den":5,"R_num":6,"R_den":12,"correct_side":2,"subjID":"JuanDavidMartinez6d","gender":"macho","school":"cafaaaaaaam","age":"11"},{"start_time":1551800625816,"click_time":1551800627641,"finger_time":1551800627160,"fix_duration":1194.3805376812613,"trial":13,"RT":1344,"MT":481,"sideResp":1,"stimulus":[],"xmouse":[803,803,803,803,803,803,803,803,803,803,803,803,803,803,803,803,803,803,803,803,803,803,803,803,803,803,803,803,803,803,803,803,803,803,803,803,803,803,803,803,803,803,803,803,803,803,803,803,803,803,803,803,803,803,803,803,803,803,803,803,803,810,813,813,813,817,823,830,844,874,901,923,933,932,885,841,804,768,735,667,633,610,600,599,596,585,571,561,553,541,532,510],"ymouse":[516,516,516,516,516,516,516,516,516,516,516,516,516,516,516,516,516,516,516,516,516,516,516,516,516,516,516,516,516,516,516,516,516,516,516,516,516,516,516,516,516,516,516,516,516,516,516,516,516,516,516,516,516,516,516,516,516,516,516,516,516,511,509,509,509,499,477,447,401,272,205,154,114,84,40,26,16,13,13,13,13,16,19,20,21,26,31,35,36,38,41,45],"timestamp_mouse":[9,36,44,65,84,104,124,145,164,185,204,225,245,265,285,305,324,344,365,384,404,424,445,464,485,505,525,544,564,586,604,625,644,665,685,706,725,746,765,785,804,825,845,864,885,904,925,944,964,985,1005,1025,1045,1064,1084,1105,1124,1144,1164,1186,1204,1224,1244,1264,1284,1305,1324,1344,1365,1384,1404,1424,1445,1464,1485,1505,1524,1544,1564,1584,1604,1625,1644,1665,1684,1705,1724,1746,1764,1785,1804,1825],"xSR":741.5,"ySR":469.95,"xT1":424.9,"yT1":0,"xT2":1058.1,"yT2":0,"toosoon":0,"cond_shown":"Incongruent","ratio_trial":200,"L_num":4,"L_den":6,"R_num":14,"R_den":30,"correct_side":1,"subjID":"JuanDavidMartinez6d","gender":"macho","school":"cafaaaaaaam","age":"11"},{"start_time":1551800633489,"click_time":1551800634940,"finger_time":1551800634601,"fix_duration":707.0843433672894,"trial":14,"RT":1112,"MT":339,"sideResp":1,"stimulus":[],"xmouse":[806,806,806,806,806,806,806,806,806,806,806,806,806,806,806,806,806,806,806,806,806,806,806,806,806,806,806,806,806,806,806,806,806,806,806,806,806,806,806,806,806,806,806,806,806,806,806,806,806,806,806,806,806,805,798,771,759,743,722,705,676,652,636,617,599,577,574,574,574,574,571,541,523],"ymouse":[515,515,515,515,515,514,514,514,514,514,514,514,514,514,514,514,514,514,514,514,514,514,514,514,514,514,514,514,514,514,514,514,514,514,514,514,514,514,514,514,514,514,514,514,514,514,514,514,514,514,514,514,514,511,498,459,439,414,382,351,274,180,117,69,38,9,7,7,7,7,7,5,5],"timestamp_mouse":[13,43,52,72,91,111,131,152,171,191,211,231,253,271,292,311,331,352,371,391,412,432,452,471,491,511,532,551,571,592,612,631,652,671,691,713,732,752,772,791,811,831,851,872,892,912,932,951,972,992,1011,1031,1051,1071,1091,1112,1132,1151,1172,1191,1211,1232,1251,1273,1292,1311,1331,1351,1371,1391,1411,1432,1451],"xSR":741.5,"ySR":469.95,"xT1":424.9,"yT1":0,"xT2":1058.1,"yT2":0,"toosoon":0,"cond_shown":"Incongruent","ratio_trial":300,"L_num":8,"L_den":10,"R_num":14,"R_den":28,"correct_side":1,"subjID":"JuanDavidMartinez6d","gender":"macho","school":"cafaaaaaaam","age":"11"},{"start_time":1551800636827,"click_time":1551800638282,"finger_time":1551800637940,"fix_duration":605.7492184123366,"trial":15,"RT":1113,"MT":342,"sideResp":1,"stimulus":[],"xmouse":[811,811,811,811,811,811,811,811,811,811,811,811,811,811,811,811,811,811,811,811,811,811,811,811,811,811,811,811,811,811,811,811,811,811,811,811,811,811,811,811,811,811,811,811,811,811,811,811,811,810,809,805,799,773,753,723,684,645,578,558,551,551,551,551,551,551,551,551,551,551,551,551,517],"ymouse":[553,553,553,553,553,553,553,553,553,553,553,553,553,553,553,553,553,553,553,553,553,553,553,553,553,553,553,553,553,553,553,553,553,553,553,553,553,553,553,553,553,553,553,553,553,552,552,552,552,551,549,546,543,522,500,452,380,289,105,34,10,10,10,10,10,10,10,10,10,10,10,10,4],"timestamp_mouse":[14,39,55,73,94,114,133,153,173,194,214,233,254,274,293,315,333,355,374,394,413,433,453,473,494,513,533,553,573,594,614,635,653,674,694,714,733,753,773,794,813,834,853,873,894,915,933,953,973,993,1013,1033,1053,1073,1093,1113,1135,1154,1173,1193,1214,1233,1254,1274,1293,1313,1333,1353,1373,1394,1413,1433,1454],"xSR":741.5,"ySR":469.95,"xT1":424.9,"yT1":0,"xT2":1058.1,"yT2":0,"toosoon":0,"cond_shown":"Congruent","ratio_trial":200,"L_num":3,"L_den":12,"R_num":9,"R_den":20,"correct_side":2,"subjID":"JuanDavidMartinez6d","gender":"macho","school":"cafaaaaaaam","age":"11"},{"start_time":1551800641022,"click_time":1551800642580,"finger_time":1551800642161,"fix_duration":1360.9081447783503,"trial":16,"RT":1139,"MT":419,"sideResp":2,"stimulus":[],"xmouse":[798,798,798,798,798,798,798,798,798,798,798,798,798,798,798,798,798,798,798,798,798,798,798,798,798,798,798,798,798,798,798,798,798,798,798,798,798,798,798,798,798,798,798,798,798,798,798,798,798,798,798,798,798,798,817,828,854,868,891,903,916,930,945,991,1031,1052,1065,1072,1077,1077,1077,1077,1075,1072,1072,1072,1072,1071],"ymouse":[549,549,549,549,549,549,549,549,549,549,549,549,549,549,549,549,549,549,549,549,549,549,549,549,549,549,549,549,549,549,549,549,549,549,549,549,549,549,549,549,549,549,549,549,549,549,549,549,549,549,549,549,549,549,531,521,487,467,442,430,415,395,374,308,253,215,189,172,160,159,159,157,154,142,133,114,100,89],"timestamp_mouse":[24,42,58,78,98,119,140,158,178,198,219,239,259,278,299,319,340,359,378,400,419,438,458,478,498,518,539,559,578,598,618,638,658,679,698,719,738,759,778,798,818,839,859,878,898,919,939,958,978,998,1018,1038,1059,1078,1098,1119,1139,1159,1178,1198,1220,1239,1258,1278,1299,1318,1340,1358,1378,1398,1418,1438,1460,1478,1498,1518,1539,1558],"xSR":741.5,"ySR":469.95,"xT1":424.9,"yT1":0,"xT2":1058.1,"yT2":0,"toosoon":0,"cond_shown":"Incongruent","ratio_trial":100,"L_num":6,"L_den":12,"R_num":3,"R_den":5,"correct_side":2,"subjID":"JuanDavidMartinez6d","gender":"macho","school":"cafaaaaaaam","age":"11"},{"start_time":1551800645332,"click_time":1551800646400,"finger_time":1551800645401,"fix_duration":250,"trial":17,"RT":69,"MT":999,"sideResp":2,"stimulus":[],"xmouse":[813,828,828,842,842,842,842,842,842,842,842,842,842,821,803,788,776,770,769,769,769,769,769,769,769,769,769,769,769,769,769,769,769,769,769,769,769,769,769,769,769,769,769,769,769,769,769,769,767,774,797,848,924,1111],"ymouse":[550,551,551,551,551,551,551,551,551,551,551,551,551,542,537,533,531,530,530,530,530,530,530,530,530,530,530,530,530,530,530,530,530,530,530,530,530,530,530,530,530,530,530,530,530,530,530,530,529,499,442,357,258,33],"timestamp_mouse":[10,37,49,69,88,108,128,148,168,188,208,229,249,268,288,309,328,348,369,389,409,428,448,468,490,508,529,549,568,588,608,629,648,669,689,708,728,748,768,788,808,828,849,869,888,908,928,950,968,989,1008,1028,1049,1068],"xSR":741.5,"ySR":469.95,"xT1":424.9,"yT1":0,"xT2":1058.1,"yT2":0,"toosoon":0,"cond_shown":"Congruent","ratio_trial":100,"L_num":15,"L_den":25,"R_num":13,"R_den":26,"correct_side":1,"subjID":"JuanDavidMartinez6d","gender":"macho","school":"cafaaaaaaam","age":"11"},{"start_time":1551800650217,"click_time":1551800651801,"finger_time":1551800651520,"fix_duration":1134.3990485010206,"trial":18,"RT":1303,"MT":281,"sideResp":1,"stimulus":[],"xmouse":[798,797,797,797,797,797,797,797,797,797,797,797,797,797,797,797,797,797,797,797,797,797,797,797,797,797,797,797,795,791,791,791,791,791,791,791,791,791,791,791,791,791,791,791,791,791,791,791,791,791,791,791,791,791,791,791,791,791,791,791,791,791,791,791,777,728,673,619,579,546,539,534,531,530,529,528,526,522,513,480],"ymouse":[510,511,511,511,511,511,511,511,511,511,511,511,511,511,511,511,511,511,511,511,511,511,511,511,511,511,511,511,496,491,491,491,491,492,495,495,495,495,495,495,495,495,495,495,497,500,500,500,500,500,500,500,500,500,500,500,500,500,500,500,500,500,500,500,478,409,338,268,211,147,130,121,115,113,112,112,111,108,100,80],"timestamp_mouse":[9,23,48,64,83,105,123,144,163,184,205,223,244,264,283,303,323,343,363,383,405,423,443,463,483,505,523,543,563,583,603,623,644,663,683,703,724,745,765,784,804,824,844,864,883,904,924,943,963,984,1005,1023,1044,1063,1083,1103,1123,1143,1165,1183,1203,1223,1244,1263,1283,1303,1323,1344,1364,1383,1403,1423,1444,1464,1485,1504,1523,1543,1563,1583],"xSR":741.5,"ySR":469.95,"xT1":424.9,"yT1":0,"xT2":1058.1,"yT2":0,"toosoon":0,"cond_shown":"Congruent","ratio_trial":100,"L_num":12,"L_den":30,"R_num":13,"R_den":26,"correct_side":2,"subjID":"JuanDavidMartinez6d","gender":"macho","school":"cafaaaaaaam","age":"11"},{"start_time":1551800655296,"click_time":1551800656642,"finger_time":1551800655960,"fix_duration":833.697852447057,"trial":19,"RT":664,"MT":682,"sideResp":2,"stimulus":[],"xmouse":[819,819,819,819,819,819,819,819,819,819,819,819,819,819,819,819,819,819,819,819,819,819,819,820,820,820,820,820,820,820,820,820,822,826,828,831,831,831,831,831,831,832,832,832,832,832,832,835,837,842,869,902,917,940,940,940,940,940,940,940,940,940,940,940,940,940,940,1093],"ymouse":[498,498,498,498,498,498,498,498,498,498,498,498,498,498,498,498,498,498,498,498,498,498,498,498,498,498,498,498,498,498,498,498,491,467,451,440,439,439,439,439,439,438,432,426,422,420,419,415,407,389,288,161,74,11,11,11,11,11,11,11,11,11,11,11,11,11,11,11],"timestamp_mouse":[14,42,45,64,85,105,124,144,165,186,204,226,244,264,285,305,324,345,364,385,404,424,445,464,485,504,524,544,564,584,605,624,644,664,684,705,724,745,765,784,804,826,844,864,886,905,926,945,964,984,1005,1025,1044,1065,1085,1105,1125,1145,1164,1184,1204,1224,1244,1264,1285,1304,1324,1345],"xSR":741.5,"ySR":469.95,"xT1":424.9,"yT1":0,"xT2":1058.1,"yT2":0,"toosoon":0,"cond_shown":"Incongruent","ratio_trial":100,"L_num":13,"L_den":26,"R_num":12,"R_den":20,"correct_side":2,"subjID":"JuanDavidMartinez6d","gender":"macho","school":"cafaaaaaaam","age":"11"},{"start_time":1551800658232,"click_time":1551800659901,"finger_time":1551800659520,"fix_duration":250,"trial":20,"RT":1288,"MT":381,"sideResp":2,"stimulus":[],"xmouse":[776,776,776,776,776,776,776,776,776,776,776,776,776,777,777,778,778,778,778,779,779,779,779,779,779,779,779,779,779,779,781,782,785,791,793,793,793,793,793,793,793,793,793,793,794,794,793,793,793,793,793,793,793,793,793,793,793,793,793,793,793,795,798,811,824,839,859,885,980,1018,1043,1053,1055,1055,1055,1055,1055,1055,1055,1055,1055,1055,1055,1102],"ymouse":[532,532,530,527,522,521,521,521,521,521,521,520,520,520,520,521,521,521,521,521,521,521,521,521,521,521,521,521,521,521,521,521,523,529,531,531,531,531,531,531,531,531,531,531,529,525,522,522,522,522,522,522,522,522,522,522,520,518,515,514,512,510,506,485,456,421,375,316,170,104,50,14,0,0,0,0,0,0,0,0,0,0,0,10],"timestamp_mouse":[9,32,49,68,89,109,128,148,168,188,209,229,248,269,288,308,328,349,368,388,408,428,448,468,489,509,528,550,568,588,609,629,648,669,688,709,728,749,768,788,808,829,848,868,888,908,928,948,969,988,1009,1029,1049,1068,1089,1109,1129,1150,1168,1189,1208,1228,1250,1268,1288,1308,1328,1348,1368,1388,1408,1428,1448,1468,1488,1508,1530,1549,1568,1589,1609,1629,1648,1669],"xSR":741.5,"ySR":469.95,"xT1":424.9,"yT1":0,"xT2":1058.1,"yT2":0,"toosoon":0,"cond_shown":"Incongruent","ratio_trial":100,"L_num":9,"L_den":15,"R_num":14,"R_den":28,"correct_side":1,"subjID":"JuanDavidMartinez6d","gender":"macho","school":"cafaaaaaaam","age":"11"},{"start_time":1551800665963,"click_time":1551800666781,"finger_time":1551800666681,"fix_duration":1061.8039037761926,"trial":21,"RT":718,"MT":100,"sideResp":2,"stimulus":[],"xmouse":[810,810,810,810,810,810,810,810,810,810,810,810,810,810,810,810,810,810,810,810,810,810,810,810,810,810,810,810,810,810,809,809,811,819,842,924,996,1045,1089,1124],"ymouse":[535,535,535,535,535,535,535,535,535,535,535,535,535,535,535,535,535,535,535,535,535,535,535,535,535,535,535,535,535,535,532,524,511,492,453,338,251,185,125,64],"timestamp_mouse":[40,58,78,97,118,138,157,178,198,217,238,258,278,297,318,339,357,378,398,418,437,459,478,497,517,537,559,578,597,617,637,657,679,697,718,738,757,777,798,818],"xSR":741.5,"ySR":469.95,"xT1":424.9,"yT1":0,"xT2":1058.1,"yT2":0,"toosoon":0,"cond_shown":"Congruent","ratio_trial":100,"L_num":6,"L_den":20,"R_num":5,"R_den":25,"correct_side":1,"subjID":"JuanDavidMartinez6d","gender":"macho","school":"cafaaaaaaam","age":"11"},{"start_time":1551800668190,"click_time":1551800669962,"finger_time":1551800669520,"fix_duration":368.6179408607104,"trial":22,"RT":1330,"MT":442,"sideResp":2,"stimulus":[],"xmouse":[781,781,781,781,781,781,781,781,781,781,781,781,781,781,781,781,781,781,781,781,781,781,781,781,781,781,781,781,781,781,781,781,781,781,781,781,781,781,781,781,781,781,781,781,781,781,781,781,781,781,781,781,781,781,781,781,781,781,781,781,781,781,780,779,779,782,807,844,885,929,984,999,1008,1012,1014,1016,1017,1019,1023,1026,1028,1029,1029,1030,1032,1039,1052,1057,1060],"ymouse":[496,496,496,496,496,496,496,496,496,496,496,496,496,496,496,496,496,496,496,496,496,496,496,496,496,496,496,496,496,496,496,496,496,496,496,496,496,496,496,496,496,496,496,496,496,496,496,496,496,496,496,496,496,496,496,496,496,496,496,496,496,496,495,494,492,482,453,421,385,343,276,254,234,219,208,189,168,150,130,112,85,80,80,79,78,76,72,71,70],"timestamp_mouse":[11,40,50,72,91,110,130,151,170,191,210,231,252,270,291,311,330,350,370,391,410,430,450,470,490,510,531,551,570,591,610,630,650,671,690,710,731,750,771,790,810,830,851,870,890,910,930,951,971,991,1011,1031,1051,1070,1090,1110,1131,1150,1170,1190,1211,1230,1251,1270,1291,1310,1330,1350,1372,1391,1410,1431,1450,1470,1492,1510,1530,1550,1570,1591,1610,1630,1650,1670,1690,1710,1730,1750,1772],"xSR":741.5,"ySR":469.95,"xT1":424.9,"yT1":0,"xT2":1058.1,"yT2":0,"toosoon":0,"cond_shown":"Incongruent","ratio_trial":200,"L_num":1,"L_den":3,"R_num":2,"R_den":15,"correct_side":1,"subjID":"JuanDavidMartinez6d","gender":"macho","school":"cafaaaaaaam","age":"11"},{"start_time":1551800674033,"click_time":1551800675622,"finger_time":1551800675100,"fix_duration":531.4412387720254,"trial":23,"RT":1067,"MT":522,"sideResp":1,"stimulus":[],"xmouse":[800,800,800,800,800,800,800,800,800,800,800,800,800,800,800,800,800,800,800,800,800,800,800,800,800,800,800,800,800,800,800,800,800,800,800,800,800,800,800,800,800,800,800,800,800,800,800,800,800,798,791,778,760,716,669,630,601,583,559,552,549,546,543,535,530,530,529,527,524,522,520,519,517,507,500,495,489,484,476,475],"ymouse":[509,509,509,509,509,509,509,509,509,509,509,509,509,509,509,509,509,509,509,509,509,509,509,509,509,509,509,509,509,509,509,509,509,509,508,508,508,508,508,508,508,508,508,508,508,508,508,508,508,508,506,503,500,484,464,442,419,401,364,350,341,336,328,306,292,285,277,269,250,241,234,228,219,188,163,149,135,121,100,91],"timestamp_mouse":[9,36,47,68,87,108,129,148,167,187,207,228,248,268,287,308,327,347,367,388,407,428,448,468,487,508,527,549,567,588,609,629,647,672,688,707,727,747,768,789,808,827,847,868,887,908,927,948,967,987,1008,1028,1047,1067,1087,1107,1128,1147,1167,1187,1207,1227,1247,1267,1288,1307,1328,1348,1367,1387,1407,1427,1447,1467,1488,1507,1527,1547,1567,1589],"xSR":741.5,"ySR":469.95,"xT1":424.9,"yT1":0,"xT2":1058.1,"yT2":0,"toosoon":0,"cond_shown":"Incongruent","ratio_trial":300,"L_num":7,"L_den":10,"R_num":8,"R_den":20,"correct_side":1,"subjID":"JuanDavidMartinez6d","gender":"macho","school":"cafaaaaaaam","age":"11"},{"start_time":1551800679552,"click_time":1551800681080,"finger_time":1551800680481,"fix_duration":250,"trial":24,"RT":929,"MT":599,"sideResp":2,"stimulus":[],"xmouse":[767,767,767,767,767,767,767,767,767,767,767,767,767,767,767,767,767,767,767,767,767,767,767,767,767,767,767,767,767,767,767,767,767,767,767,767,767,767,767,767,767,767,767,767,765,758,749,738,737,737,737,737,737,737,737,737,739,752,775,799,824,857,925,952,970,985,985,985,985,985,985,985,985,985,985,985,1096],"ymouse":[484,484,484,484,484,484,484,484,484,484,484,484,484,484,484,484,484,484,484,484,484,484,484,484,484,484,484,484,484,484,484,484,484,484,484,484,484,484,484,484,484,484,484,484,483,475,467,460,459,459,459,459,459,459,459,457,452,435,405,373,335,286,155,90,37,0,0,0,0,0,0,0,0,0,0,0,2],"timestamp_mouse":[10,33,49,68,89,109,128,149,169,190,209,229,249,269,290,308,328,348,368,389,410,428,449,470,489,508,528,549,570,588,608,630,649,668,689,708,728,748,768,790,809,829,850,868,890,908,929,948,969,989,1008,1030,1048,1069,1088,1108,1128,1149,1169,1188,1208,1230,1249,1268,1289,1308,1328,1349,1369,1388,1409,1428,1449,1470,1489,1508,1528],"xSR":741.5,"ySR":469.95,"xT1":424.9,"yT1":0,"xT2":1058.1,"yT2":0,"toosoon":0,"cond_shown":"Incongruent","ratio_trial":100,"L_num":8,"L_den":16,"R_num":6,"R_den":10,"correct_side":2,"subjID":"JuanDavidMartinez6d","gender":"macho","school":"cafaaaaaaam","age":"11"},{"start_time":1551800682513,"click_time":1551800684302,"finger_time":1551800683962,"fix_duration":429.610148294131,"trial":25,"RT":1449,"MT":340,"sideResp":1,"stimulus":[],"xmouse":[751,751,751,751,751,751,751,751,751,751,751,751,751,751,751,751,751,751,751,751,751,751,751,751,751,751,751,751,751,751,751,751,751,751,750,750,750,750,750,750,750,750,750,750,750,750,750,750,750,750,750,750,750,750,750,750,750,750,750,750,750,750,750,750,750,750,750,750,750,750,750,744,726,692,629,612,600,594,592,586,582,571,560,548,517,508,500,493,486,468],"ymouse":[512,512,512,512,512,512,512,512,512,512,512,512,512,512,512,512,512,512,512,512,512,512,512,512,512,512,512,512,512,512,512,512,512,511,505,504,504,504,504,504,504,504,504,504,504,504,504,504,504,504,504,504,504,504,504,504,504,504,504,504,504,504,504,504,504,504,504,504,504,504,504,500,471,422,347,326,316,313,311,304,299,283,267,242,188,171,154,136,123,93],"timestamp_mouse":[16,42,48,67,87,108,128,147,167,188,207,227,247,267,288,308,328,347,369,388,407,429,447,469,488,509,527,547,568,588,608,627,647,667,687,708,727,747,767,788,808,827,847,867,887,907,929,948,968,987,1008,1028,1047,1067,1087,1107,1127,1147,1169,1187,1208,1229,1248,1269,1287,1307,1327,1349,1367,1387,1407,1427,1449,1468,1487,1507,1528,1547,1569,1588,1608,1627,1648,1667,1688,1708,1728,1747,1767,1788],"xSR":741.5,"ySR":469.95,"xT1":424.9,"yT1":0,"xT2":1058.1,"yT2":0,"toosoon":0,"cond_shown":"Incongruent","ratio_trial":200,"L_num":4,"L_den":30,"R_num":1,"R_den":3,"correct_side":2,"subjID":"JuanDavidMartinez6d","gender":"macho","school":"cafaaaaaaam","age":"11"},{"start_time":1551800692641,"click_time":1551800694101,"finger_time":1551800693620,"fix_duration":459.2707283857096,"trial":26,"RT":979,"MT":481,"sideResp":2,"stimulus":[],"xmouse":[777,777,777,777,777,777,777,777,777,777,777,777,777,777,777,777,777,777,777,777,777,777,777,777,777,777,777,777,777,777,777,777,777,777,777,777,777,777,777,777,777,777,777,777,777,777,777,775,774,774,775,782,818,868,909,950,999,1110,1152,1171,1180,1184,1185,1185,1185,1185,1184,1180,1178,1175,1172,1169,1152],"ymouse":[519,519,519,519,519,519,519,519,519,519,519,519,519,519,519,519,519,519,519,519,519,519,519,519,519,519,519,519,519,519,519,519,519,519,519,519,519,519,519,519,518,515,508,504,499,496,492,473,460,448,436,423,391,356,327,300,268,192,161,142,130,120,106,94,86,78,72,63,60,59,59,58,57],"timestamp_mouse":[20,40,60,80,99,121,140,160,181,199,219,239,259,280,299,319,339,360,381,399,420,440,459,481,500,520,540,560,580,600,620,640,659,679,700,721,740,760,779,800,819,840,859,879,899,920,940,960,979,999,1020,1039,1060,1080,1100,1120,1140,1159,1179,1200,1219,1240,1260,1280,1299,1320,1339,1359,1380,1399,1419,1439,1460],"xSR":741.5,"ySR":469.95,"xT1":424.9,"yT1":0,"xT2":1058.1,"yT2":0,"toosoon":0,"cond_shown":"Congruent","ratio_trial":300,"L_num":12,"L_den":24,"R_num":2,"R_den":10,"correct_side":1,"subjID":"JuanDavidMartinez6d","gender":"macho","school":"cafaaaaaaam","age":"11"},{"start_time":1551800695699,"click_time":1551800696822,"finger_time":1551800695861,"fix_duration":775.7131203088956,"trial":27,"RT":162,"MT":961,"sideResp":1,"stimulus":[],"xmouse":[817,817,817,817,817,817,817,809,789,764,738,729,727,726,726,725,725,726,729,731,740,746,757,764,770,779,783,788,791,792,795,795,795,795,795,795,795,795,795,795,795,795,795,795,795,795,795,795,794,781,732,662,619,583,553,520,516],"ymouse":[557,557,557,557,557,557,556,562,575,595,628,639,640,641,641,640,633,629,622,614,599,588,567,555,547,537,533,528,525,524,521,520,520,520,520,520,520,520,520,520,520,520,520,520,520,520,520,518,513,502,447,346,266,197,144,100,94],"timestamp_mouse":[9,36,41,61,82,102,121,142,162,181,202,221,242,262,282,301,321,341,362,382,401,421,441,461,482,502,521,541,561,583,602,621,641,662,681,701,723,741,763,781,802,823,841,862,881,902,923,941,962,981,1002,1023,1041,1061,1081,1102,1122],"xSR":741.5,"ySR":469.95,"xT1":424.9,"yT1":0,"xT2":1058.1,"yT2":0,"toosoon":0,"cond_shown":"Incongruent","ratio_trial":100,"L_num":17,"L_den":30,"R_num":10,"R_den":15,"correct_side":2,"subjID":"JuanDavidMartinez6d","gender":"macho","school":"cafaaaaaaam","age":"11"},{"start_time":1551800700400,"click_time":1551800709101,"finger_time":1551800708161,"fix_duration":1137.6814230218567,"trial":28,"RT":7761,"MT":940,"sideResp":2,"stimulus":[],"xmouse":[796,796,796,796,796,796,796,796,796,796,796,796,796,796,796,796,796,796,796,796,796,796,796,796,796,796,796,796,796,796,796,796,796,796,796,796,796,796,796,796,796,796,796,796,796,796,796,796,796,796,796,796,796,796,796,796,796,796,796,796,796,796,796,796,796,796,796,796,796,796,796,796,796,796,796,796,796,796,796,796,796,796,796,796,796,796,796,796,796,796,796,796,796,796,796,796,796,796,796,796,796,796,796,796,796,796,796,796,796,796,796,796,796,796,796,796,796,796,796,796,796,796,796,796,796,796,796,796,796,796,796,796,796,796,796,796,796,796,796,796,796,796,796,796,796,796,796,796,796,796,796,796,796,796,796,796,796,796,796,796,796,796,796,796,796,796,796,796,796,796,796,796,796,796,796,796,796,796,796,796,796,796,796,796,796,796,796,796,796,796,796,796,796,796,796,796,796,796,796,796,796,796,796,796,796,796,796,796,796,796,796,796,796,796,796,796,796,796,796,796,796,796,796,796,796,796,796,796,796,796,796,796,796,796,796,796,796,796,796,796,796,796,796,796,796,796,796,796,796,796,796,796,796,796,796,796,796,796,796,796,796,796,796,796,796,796,796,796,796,796,796,796,796,796,796,796,796,796,796,796,796,796,796,796,796,796,796,796,796,796,796,796,796,796,796,796,796,796,796,796,796,796,796,796,796,796,796,796,796,796,796,796,796,796,796,796,796,796,796,796,796,796,796,796,796,796,796,796,796,796,796,796,796,796,796,796,796,796,796,796,796,796,796,796,796,796,796,796,796,796,796,796,796,796,796,796,796,796,796,796,796,796,796,796,796,796,796,796,796,796,796,796,796,796,796,796,796,796,796,796,796,796,797,798,799,808,814,817,819,821,823,823,824,824,824,824,824,824,824,824,824,824,824,824,824,824,824,824,824,824,824,824,824,824,824,824,825,827,828,830,834,839,844,853,861,882,898,906,914,923,950,972,1005,1034,1056,1083],"ymouse":[505,505,505,505,505,505,505,505,505,505,505,505,505,505,505,505,505,505,505,505,505,505,505,505,505,505,505,505,505,505,505,505,505,505,505,505,505,505,505,505,505,505,505,505,505,505,505,505,505,505,505,505,505,505,505,505,505,505,505,505,505,505,505,505,505,505,505,505,505,505,505,505,505,505,505,505,505,505,505,505,505,505,505,505,505,505,505,505,505,505,505,505,505,505,505,505,505,505,505,505,505,505,505,505,505,505,505,505,505,505,505,505,505,505,505,505,505,505,505,505,505,505,505,505,505,505,505,505,505,505,505,505,505,505,505,505,505,505,505,505,505,505,505,505,505,505,505,505,505,505,505,505,505,505,505,505,505,505,505,505,505,505,505,505,505,505,505,505,505,505,505,505,505,505,505,505,505,505,505,505,505,505,505,505,505,505,505,505,505,505,505,505,505,505,505,505,505,505,505,505,505,505,505,505,505,505,505,505,505,505,505,505,505,505,505,505,505,505,505,505,505,505,505,505,505,505,505,505,505,505,505,505,505,505,505,505,505,505,505,505,505,505,505,505,505,505,505,505,505,505,505,505,505,505,505,505,505,505,505,505,505,505,505,505,505,505,505,505,505,505,505,505,505,505,505,505,505,505,505,505,505,505,505,505,505,505,505,505,505,505,505,505,505,505,505,505,505,505,505,505,505,505,505,505,505,505,505,505,505,505,505,505,505,505,505,505,505,505,505,505,505,505,505,505,505,505,505,505,505,505,505,505,505,505,505,505,505,505,505,505,505,505,505,505,505,505,505,505,505,505,505,505,505,505,505,505,505,505,505,505,505,505,505,505,505,505,505,505,505,505,505,505,505,505,505,505,505,505,505,505,505,505,504,499,493,481,474,471,469,467,465,465,463,463,463,463,462,462,462,462,462,462,462,462,462,462,462,462,462,462,462,462,462,462,462,462,462,460,456,451,440,430,418,400,379,332,303,288,274,259,224,200,164,133,105,58],"timestamp_mouse":[9,32,40,60,81,100,120,142,160,181,200,221,241,262,280,300,321,340,362,380,400,421,440,462,480,500,521,540,561,582,600,620,641,662,680,700,721,740,762,780,800,821,841,860,880,901,921,940,960,982,1000,1020,1041,1060,1080,1101,1120,1140,1161,1182,1201,1221,1241,1260,1280,1300,1320,1342,1360,1380,1400,1421,1441,1460,1482,1500,1521,1540,1560,1581,1600,1621,1640,1662,1681,1700,1721,1740,1760,1780,1800,1821,1840,1861,1882,1901,1920,1941,1962,1980,2001,2021,2040,2061,2080,2100,2120,2140,2161,2182,2200,2221,2240,2261,2280,2301,2321,2340,2360,2381,2400,2422,2440,2461,2482,2500,2521,2542,2560,2581,2601,2621,2640,2662,2680,2702,2721,2741,2761,2781,2800,2820,2842,2861,2880,2901,2921,2940,2960,2982,3001,3021,3040,3061,3080,3101,3120,3140,3161,3180,3201,3221,3240,3262,3281,3301,3321,3342,3361,3381,3400,3420,3440,3461,3482,3501,3521,3540,3560,3582,3600,3620,3642,3662,3682,3701,3720,3741,3762,3782,3801,3821,3840,3861,3880,3901,3921,3940,3962,3982,4000,4022,4040,4060,4081,4101,4121,4142,4160,4181,4201,4221,4242,4262,4281,4300,4322,4341,4361,4381,4401,4421,4441,4461,4482,4501,4521,4540,4561,4581,4601,4620,4642,4660,4680,4701,4720,4741,4760,4781,4802,4820,4841,4862,4881,4901,4922,4940,4960,4981,5001,5020,5040,5061,5080,5102,5121,5141,5160,5180,5200,5221,5242,5263,5280,5302,5320,5340,5361,5380,5402,5421,5440,5461,5480,5502,5520,5540,5560,5580,5600,5621,5640,5660,5682,5700,5721,5740,5762,5780,5800,5821,5840,5862,5882,5900,5921,5940,5960,5980,6001,6021,6040,6060,6082,6101,6120,6140,6161,6180,6201,6220,6240,6261,6280,6300,6320,6340,6360,6382,6401,6420,6440,6460,6482,6501,6521,6541,6561,6580,6600,6620,6640,6662,6680,6700,6720,6740,6760,6781,6800,6820,6840,6860,6882,6901,6921,6941,6961,6982,7000,7021,7040,7060,7082,7100,7120,7141,7161,7181,7201,7220,7241,7260,7281,7300,7320,7342,7361,7380,7400,7421,7440,7460,7481,7501,7522,7540,7560,7580,7601,7620,7642,7661,7680,7700,7720,7740,7761,7780,7801,7822,7841,7860,7881,7901,7921,7941,7961,7981,8001,8021,8040,8060,8082,8101,8122,8141,8160,8181,8202,8222,8240,8260,8281,8301,8320,8340,8361,8380,8401,8420,8441,8461,8480,8500,8520,8540,8560,8581,8600,8620,8641,8660,8680,8700],"xSR":741.5,"ySR":469.95,"xT1":424.9,"yT1":0,"xT2":1058.1,"yT2":0,"toosoon":0,"cond_shown":"Congruent","ratio_trial":300,"L_num":11,"L_den":22,"R_num":2,"R_den":10,"correct_side":1,"subjID":"JuanDavidMartinez6d","gender":"macho","school":"cafaaaaaaam","age":"11"},{"start_time":1551800711208,"click_time":1551800712501,"finger_time":1551800712120,"fix_duration":1145.7769159714203,"trial":29,"RT":912,"MT":381,"sideResp":1,"stimulus":[],"xmouse":[776,776,776,776,776,776,776,776,776,776,776,776,776,776,776,776,776,776,776,776,776,776,776,776,776,776,776,776,776,776,776,776,776,776,776,776,776,776,776,776,776,776,776,773,760,745,714,687,665,629,618,612,605,600,582,580,571,570,568,564,560,555,546,535,507],"ymouse":[505,505,505,505,505,505,505,505,505,505,505,505,505,505,505,505,505,505,505,505,505,505,505,505,505,505,505,505,505,505,505,505,505,505,505,505,505,505,505,505,505,505,505,497,475,449,400,364,331,275,254,233,214,197,159,154,146,144,143,139,135,132,127,119,96],"timestamp_mouse":[12,41,52,72,92,112,133,154,172,192,214,233,253,272,292,314,332,353,374,392,413,432,453,473,492,513,532,553,572,593,612,633,652,674,692,712,732,754,773,793,812,833,852,872,892,912,932,953,973,992,1012,1032,1053,1072,1093,1113,1132,1152,1173,1193,1213,1233,1253,1272,1293],"xSR":741.5,"ySR":469.95,"xT1":424.9,"yT1":0,"xT2":1058.1,"yT2":0,"toosoon":0,"cond_shown":"Incongruent","ratio_trial":300,"L_num":3,"L_den":6,"R_num":4,"R_den":20,"correct_side":1,"subjID":"JuanDavidMartinez6d","gender":"macho","school":"cafaaaaaaam","age":"11"},{"start_time":1551800715222,"click_time":1551800716520,"finger_time":1551800716081,"fix_duration":899.9550809706137,"trial":30,"RT":859,"MT":439,"sideResp":1,"stimulus":[],"xmouse":[817,817,815,810,809,809,809,809,809,809,809,809,809,809,809,809,809,808,807,805,804,804,804,804,804,804,804,804,804,804,804,804,804,804,804,804,804,804,804,804,803,799,783,707,598,526,455,398,322,322,322,322,322,322,322,322,322,322,322,322,322,322,322,322,457],"ymouse":[500,500,496,491,490,490,490,490,490,490,490,490,490,490,490,490,490,489,487,485,484,484,484,484,484,484,484,484,484,484,484,484,484,484,484,484,484,484,484,484,483,476,461,398,300,224,148,84,7,7,7,7,7,7,7,7,7,7,7,7,7,7,7,7,4],"timestamp_mouse":[20,42,60,78,98,119,139,158,179,198,219,238,258,278,299,319,340,358,379,398,419,438,458,479,499,519,540,558,579,599,619,638,658,678,698,720,739,759,779,799,819,838,859,878,898,918,939,959,978,999,1018,1039,1060,1078,1099,1119,1138,1158,1179,1199,1219,1240,1259,1279,1298],"xSR":741.5,"ySR":469.95,"xT1":424.9,"yT1":0,"xT2":1058.1,"yT2":0,"toosoon":0,"cond_shown":"Congruent","ratio_trial":100,"L_num":6,"L_den":12,"R_num":15,"R_den":25,"correct_side":2,"subjID":"JuanDavidMartinez6d","gender":"macho","school":"cafaaaaaaam","age":"11"},{"start_time":1551800718691,"click_time":1551800720461,"finger_time":1551800720100,"fix_duration":1089.601616312777,"trial":31,"RT":1409,"MT":361,"sideResp":2,"stimulus":[],"xmouse":[774,774,774,774,774,774,774,774,774,774,774,774,774,774,774,774,774,774,774,774,774,774,774,774,774,774,774,774,774,774,774,774,774,773,773,774,774,774,774,774,774,774,774,774,774,774,774,774,774,774,774,774,774,774,774,774,774,774,774,774,774,774,774,774,774,774,774,774,774,777,794,835,867,905,941,982,998,1007,1012,1013,1021,1025,1028,1031,1032,1036,1041,1051,1064],"ymouse":[510,510,510,510,510,510,510,510,510,510,510,510,510,510,510,510,510,510,510,510,510,510,510,510,510,510,510,510,510,510,510,510,510,508,506,502,501,500,500,500,500,500,500,500,500,500,500,500,500,500,500,500,500,500,500,500,500,500,500,500,500,500,500,500,500,500,500,500,500,489,454,373,305,236,179,129,115,107,101,96,82,78,72,69,67,63,61,56,49],"timestamp_mouse":[9,29,52,70,90,109,130,149,169,191,210,230,249,269,289,310,329,349,369,389,410,430,450,469,489,510,530,550,569,591,609,629,649,669,689,710,729,750,770,789,810,830,850,869,890,909,929,949,969,990,1009,1031,1050,1069,1091,1110,1129,1149,1169,1191,1210,1230,1249,1269,1289,1310,1330,1349,1369,1389,1409,1430,1450,1471,1490,1510,1529,1550,1570,1589,1610,1629,1650,1671,1689,1711,1730,1749,1769],"xSR":741.5,"ySR":469.95,"xT1":424.9,"yT1":0,"xT2":1058.1,"yT2":0,"toosoon":0,"cond_shown":"Congruent","ratio_trial":300,"L_num":5,"L_den":25,"R_num":6,"R_den":12,"correct_side":2,"subjID":"JuanDavidMartinez6d","gender":"macho","school":"cafaaaaaaam","age":"11"},{"start_time":1551800723113,"click_time":1551800725522,"finger_time":1551800724800,"fix_duration":250,"trial":32,"RT":1687,"MT":722,"sideResp":1,"stimulus":[],"xmouse":[747,747,747,747,747,747,747,747,747,747,747,747,747,747,747,747,747,747,747,747,747,747,747,747,747,747,747,747,747,747,747,747,747,747,747,747,747,747,747,747,747,747,747,747,747,747,747,747,747,747,747,747,747,747,747,747,747,747,747,747,747,747,747,747,747,747,747,747,753,756,766,767,767,767,767,767,767,767,767,767,767,767,763,753,714,687,655,620,577,490,434,408,390,379,364,358,351,347,343,341,344,350,350,350,350,350,350,350,350,350,350,350,620,619,616,612,604,596,583,551,519],"ymouse":[534,534,534,534,534,534,534,534,534,534,534,534,534,534,534,534,534,534,534,534,534,534,534,534,534,534,534,534,534,534,534,534,534,534,534,534,534,534,534,534,534,534,534,534,534,534,534,534,534,534,534,534,534,534,534,534,534,534,534,534,534,534,534,534,534,534,534,534,526,523,515,514,514,514,514,514,514,514,514,514,514,512,502,491,453,430,403,373,336,257,208,186,170,156,132,118,101,83,65,34,12,4,4,4,4,4,4,4,4,4,4,4,1,3,9,13,18,25,32,45,53],"timestamp_mouse":[11,35,47,67,88,108,128,147,168,187,209,227,247,267,287,307,327,347,368,388,408,428,449,467,487,508,529,548,569,588,607,628,647,667,687,709,727,748,767,787,807,827,847,867,887,909,928,948,968,987,1007,1028,1047,1067,1089,1107,1128,1148,1168,1188,1208,1228,1249,1268,1288,1308,1329,1347,1367,1387,1408,1428,1448,1469,1487,1509,1532,1549,1568,1588,1607,1627,1647,1667,1687,1707,1727,1748,1767,1787,1807,1827,1849,1868,1887,1908,1928,1948,1967,1987,2008,2027,2047,2068,2088,2107,2127,2147,2169,2188,2207,2227,2247,2267,2287,2308,2327,2348,2367,2387,2409],"xSR":741.5,"ySR":469.95,"xT1":424.9,"yT1":0,"xT2":1058.1,"yT2":0,"toosoon":0,"cond_shown":"Incongruent","ratio_trial":200,"L_num":4,"L_den":30,"R_num":1,"R_den":3,"correct_side":2,"subjID":"JuanDavidMartinez6d","gender":"macho","school":"cafaaaaaaam","age":"11"},{"start_time":1551800728150,"click_time":1551800729301,"finger_time":1551800728921,"fix_duration":1347.5226266443985,"trial":33,"RT":771,"MT":380,"sideResp":2,"stimulus":[],"xmouse":[833,833,833,833,833,833,833,834,826,819,817,815,815,815,815,815,815,815,815,815,815,815,815,815,815,815,815,815,815,815,815,815,815,815,815,815,814,814,822,866,911,965,1043,1049,1052,1050,1050,1050,1050,1050,1050,1050,1050,1050,1050,1050,1050,1065],"ymouse":[522,522,522,522,522,522,522,520,515,512,511,510,510,510,510,510,510,510,510,510,510,510,510,510,510,510,510,510,510,510,510,510,510,510,510,510,508,490,463,379,301,220,92,56,33,23,23,23,23,23,23,23,23,23,23,25,25,39],"timestamp_mouse":[12,35,50,71,91,110,131,150,171,191,211,230,251,272,291,311,331,350,370,392,410,430,450,470,490,510,531,550,570,590,610,631,651,670,690,710,732,750,771,790,811,830,850,870,891,911,932,951,970,991,1010,1031,1051,1072,1090,1110,1131,1151],"xSR":741.5,"ySR":469.95,"xT1":424.9,"yT1":0,"xT2":1058.1,"yT2":0,"toosoon":0,"cond_shown":"Incongruent","ratio_trial":100,"L_num":8,"L_den":16,"R_num":6,"R_den":10,"correct_side":2,"subjID":"JuanDavidMartinez6d","gender":"macho","school":"cafaaaaaaam","age":"11"},{"start_time":1551800733511,"click_time":1551800734701,"finger_time":1551800734381,"fix_duration":250,"trial":34,"RT":870,"MT":320,"sideResp":1,"stimulus":[],"xmouse":[799,799,799,799,799,799,799,799,799,799,799,799,799,799,799,799,799,799,799,799,799,799,799,799,799,799,799,799,799,799,799,799,799,799,799,799,799,799,799,799,799,797,762,710,552,467,399,399,399,399,399,399,399,399,399,399,399,399,399,446],"ymouse":[521,521,521,521,521,521,521,521,521,521,521,521,521,521,521,521,521,521,521,521,521,521,521,521,521,521,521,521,521,521,521,521,521,521,521,521,521,521,521,521,521,518,477,417,235,138,35,35,35,35,35,35,35,35,35,35,35,35,35,9],"timestamp_mouse":[23,39,50,69,90,110,130,149,169,190,211,230,249,270,290,309,330,351,370,389,409,430,449,469,489,510,531,551,571,589,610,629,650,671,690,709,731,749,769,789,809,830,851,870,889,909,930,949,970,989,1010,1029,1049,1069,1089,1110,1129,1150,1171,1190],"xSR":741.5,"ySR":469.95,"xT1":424.9,"yT1":0,"xT2":1058.1,"yT2":0,"toosoon":0,"cond_shown":"Incongruent","ratio_trial":300,"L_num":1,"L_den":2,"R_num":3,"R_den":15,"correct_side":1,"subjID":"JuanDavidMartinez6d","gender":"macho","school":"cafaaaaaaam","age":"11"},{"start_time":1551800740418,"click_time":1551800741761,"finger_time":1551800741340,"fix_duration":1376.3217577651626,"trial":35,"RT":922,"MT":421,"sideResp":2,"stimulus":[],"xmouse":[808,805,805,805,805,805,805,805,805,805,805,805,805,805,805,805,805,805,805,805,805,805,805,805,805,805,805,805,805,805,805,805,805,805,805,805,805,805,805,805,805,805,805,804,805,816,833,852,877,894,894,895,897,897,897,900,908,919,930,953,960,965,969,974,980,995,1018,1062],"ymouse":[520,522,522,522,522,522,522,522,522,522,522,522,522,522,522,522,522,522,522,522,522,522,522,522,522,522,522,522,522,522,522,522,522,522,522,522,522,522,522,522,522,522,522,522,512,479,438,401,356,293,273,260,253,246,229,208,190,169,148,107,94,85,80,77,73,64,51,28],"timestamp_mouse":[9,21,49,62,82,102,122,142,163,181,202,222,243,261,281,301,321,341,361,382,401,421,442,461,481,502,521,543,562,582,602,623,642,662,682,702,722,742,763,781,802,822,842,862,881,902,922,941,961,983,1002,1022,1041,1061,1082,1103,1123,1142,1161,1182,1203,1230,1242,1263,1282,1302,1321,1343],"xSR":741.5,"ySR":469.95,"xT1":424.9,"yT1":0,"xT2":1058.1,"yT2":0,"toosoon":0,"cond_shown":"Congruent","ratio_trial":200,"L_num":13,"L_den":26,"R_num":14,"R_den":20,"correct_side":2,"subjID":"JuanDavidMartinez6d","gender":"macho","school":"cafaaaaaaam","age":"11"},{"start_time":1551800745210,"click_time":1551800746399,"finger_time":1551800745940,"fix_duration":250,"trial":36,"RT":730,"MT":459,"sideResp":1,"stimulus":[],"xmouse":[793,793,793,793,793,794,794,794,794,794,794,794,794,794,794,794,794,794,794,794,794,794,794,794,794,794,794,794,794,794,794,794,794,794,785,772,756,753,751,693,643,592,539,494,447,420,413,411,411,410,409,407,406,406,406,406,408,413,423,445],"ymouse":[503,503,503,504,504,505,505,505,505,505,505,505,505,505,505,505,505,505,505,505,505,505,505,505,505,505,505,505,505,505,505,505,505,505,496,478,450,431,416,331,284,237,194,161,132,123,121,120,120,119,116,111,107,106,103,102,100,96,86,66],"timestamp_mouse":[10,39,50,71,91,110,129,150,171,189,209,230,249,269,290,310,330,350,370,390,409,429,449,470,490,510,531,550,569,589,610,629,650,669,690,709,730,751,770,789,811,830,850,869,889,911,929,950,970,990,1010,1030,1050,1071,1089,1109,1130,1150,1171,1189],"xSR":741.5,"ySR":469.95,"xT1":424.9,"yT1":0,"xT2":1058.1,"yT2":0,"toosoon":0,"cond_shown":"Incongruent","ratio_trial":200,"L_num":14,"L_den":30,"R_num":12,"R_den":18,"correct_side":2,"subjID":"JuanDavidMartinez6d","gender":"macho","school":"cafaaaaaaam","age":"11"},{"start_time":1551800748077,"click_time":1551800748900,"finger_time":1551800748499,"fix_duration":276.4107140257728,"trial":37,"RT":422,"MT":401,"sideResp":2,"stimulus":[],"xmouse":[765,765,765,765,765,765,765,765,765,765,765,765,765,765,765,765,767,770,775,783,791,810,822,830,833,838,847,856,868,886,902,944,977,996,1014,1031,1045,1069,1083,1098,1109,1133],"ymouse":[503,503,503,503,503,503,503,503,503,503,503,503,503,503,503,503,503,500,494,488,481,468,460,456,453,450,441,433,417,394,370,300,257,239,223,209,193,161,145,131,120,99],"timestamp_mouse":[11,39,43,63,83,102,122,142,163,183,204,224,242,262,283,303,323,343,364,383,404,422,443,462,484,503,522,543,562,582,604,622,642,662,683,703,722,742,763,783,804,823],"xSR":741.5,"ySR":469.95,"xT1":424.9,"yT1":0,"xT2":1058.1,"yT2":0,"toosoon":0,"cond_shown":"Incongruent","ratio_trial":100,"L_num":11,"L_den":22,"R_num":9,"R_den":15,"correct_side":2,"subjID":"JuanDavidMartinez6d","gender":"macho","school":"cafaaaaaaam","age":"11"},{"start_time":1551800753183,"click_time":1551800754240,"finger_time":1551800753999,"fix_duration":1261.4613003930183,"trial":38,"RT":816,"MT":241,"sideResp":2,"stimulus":[],"xmouse":[785,785,787,788,788,788,788,788,788,788,788,788,788,788,788,788,788,788,788,788,788,788,788,788,788,788,788,788,788,788,788,788,788,788,788,788,788,788,788,789,841,892,955,1012,1071,1134,1156,1162,1165,1167,1168,1163,1153],"ymouse":[510,510,520,524,525,525,525,525,525,526,526,526,526,526,526,526,526,526,526,526,526,526,526,526,526,526,526,526,526,526,526,526,526,526,526,526,526,526,526,523,466,413,357,315,267,192,162,151,144,137,120,102,79],"timestamp_mouse":[34,37,58,77,97,117,136,157,177,196,217,237,257,276,297,317,336,357,378,397,417,438,458,477,498,518,537,557,578,598,617,637,658,677,697,716,737,756,778,797,816,838,857,877,897,917,937,956,977,997,1018,1037,1057],"xSR":741.5,"ySR":469.95,"xT1":424.9,"yT1":0,"xT2":1058.1,"yT2":0,"toosoon":0,"cond_shown":"Congruent","ratio_trial":100,"L_num":15,"L_den":25,"R_num":13,"R_den":26,"correct_side":1,"subjID":"JuanDavidMartinez6d","gender":"macho","school":"cafaaaaaaam","age":"11"},{"start_time":1551800756732,"click_time":1551800758500,"finger_time":1551800758040,"fix_duration":1131.4703886897098,"trial":39,"RT":1308,"MT":460,"sideResp":2,"stimulus":[],"xmouse":[774,774,774,774,774,774,774,774,774,774,774,774,774,774,774,774,774,774,774,774,774,774,774,774,774,774,774,774,774,774,774,774,774,774,774,774,774,774,773,773,773,773,773,773,773,773,773,773,773,773,773,773,773,773,773,773,773,773,773,773,773,773,773,773,778,798,828,866,965,965,965,965,965,965,965,965,965,965,965,965,965,965,965,965,965,1039,1048,1057,1066],"ymouse":[531,531,531,531,531,531,531,531,531,531,531,531,531,531,531,531,531,531,531,531,531,531,531,531,531,531,531,531,531,531,531,531,531,531,531,531,531,531,531,531,531,531,531,531,531,531,531,531,531,531,531,531,531,531,531,531,531,531,531,531,531,531,531,531,500,419,319,213,5,5,5,5,5,5,5,5,5,5,5,5,5,5,5,5,5,4,16,28,40],"timestamp_mouse":[11,36,49,68,88,107,128,149,169,189,209,227,249,268,288,308,327,348,369,388,408,429,447,467,488,507,528,548,568,587,609,629,647,668,688,709,728,748,768,789,809,828,848,868,887,909,928,948,968,987,1008,1028,1049,1068,1088,1107,1129,1148,1168,1189,1208,1228,1248,1268,1288,1308,1328,1348,1369,1388,1408,1429,1447,1468,1488,1508,1528,1549,1568,1595,1608,1629,1649,1668,1688,1709,1728,1749,1767],"xSR":741.5,"ySR":469.95,"xT1":424.9,"yT1":0,"xT2":1058.1,"yT2":0,"toosoon":0,"cond_shown":"Incongruent","ratio_trial":200,"L_num":14,"L_den":30,"R_num":12,"R_den":18,"correct_side":2,"subjID":"JuanDavidMartinez6d","gender":"macho","school":"cafaaaaaaam","age":"11"},{"start_time":1551800760772,"click_time":1551800762299,"finger_time":1551800761680,"fix_duration":250,"trial":40,"RT":908,"MT":619,"sideResp":1,"stimulus":[],"xmouse":[799,799,799,799,799,799,799,799,799,799,799,799,799,799,799,799,799,799,799,799,799,799,799,799,799,799,799,799,799,799,799,799,799,799,799,799,799,799,799,799,799,799,799,800,804,810,819,821,821,821,821,821,821,821,822,823,824,815,802,785,767,723,705,686,664,639,591,566,560,560,560,560,558,550,541,526,484],"ymouse":[531,531,531,531,531,531,531,531,531,531,531,531,531,531,531,531,531,531,531,531,531,531,531,531,531,531,531,531,531,531,531,531,531,531,531,531,531,531,531,531,529,517,507,496,484,469,448,445,445,445,445,445,443,440,435,428,407,387,368,351,333,293,274,253,224,186,108,73,64,62,62,62,61,56,51,43,30],"timestamp_mouse":[9,29,56,69,87,108,129,147,167,189,208,229,248,269,289,309,327,347,368,389,409,428,447,468,487,507,528,548,568,588,607,628,648,667,688,708,728,747,767,788,808,828,848,869,888,908,928,948,968,989,1007,1029,1048,1068,1088,1108,1127,1149,1169,1188,1207,1228,1248,1268,1288,1308,1327,1348,1368,1387,1408,1428,1449,1468,1488,1508,1527],"xSR":741.5,"ySR":469.95,"xT1":424.9,"yT1":0,"xT2":1058.1,"yT2":0,"toosoon":0,"cond_shown":"Congruent","ratio_trial":200,"L_num":16,"L_den":30,"R_num":9,"R_den":27,"correct_side":1,"subjID":"JuanDavidMartinez6d","gender":"macho","school":"cafaaaaaaam","age":"11"},{"start_time":1551800767785,"click_time":1551800768680,"finger_time":1551800768580,"fix_duration":404.68035783070667,"trial":41,"RT":795,"MT":100,"sideResp":2,"stimulus":[],"xmouse":[813,813,813,813,813,813,813,813,813,813,813,813,813,813,813,813,813,813,813,813,813,813,813,813,813,813,813,813,813,813,813,813,813,813,813,813,813,816,823,846,957,1015,1050,1062,1067],"ymouse":[515,515,515,515,515,515,515,515,515,515,515,515,515,515,515,515,515,515,515,515,515,515,515,515,515,515,515,515,515,515,515,515,515,515,515,515,515,515,499,445,292,213,152,111,72],"timestamp_mouse":[14,36,56,75,95,114,135,156,176,195,215,236,255,274,296,315,335,356,375,395,415,436,456,474,496,515,535,554,576,596,615,635,656,674,695,716,736,755,776,795,815,834,855,875,895],"xSR":741.5,"ySR":469.95,"xT1":424.9,"yT1":0,"xT2":1058.1,"yT2":0,"toosoon":0,"cond_shown":"Congruent","ratio_trial":200,"L_num":8,"L_den":15,"R_num":7,"R_den":21,"correct_side":1,"subjID":"JuanDavidMartinez6d","gender":"macho","school":"cafaaaaaaam","age":"11"},{"start_time":1551800817915,"click_time":1551800820901,"finger_time":1551800818720,"fix_duration":374.634184231776,"trial":42,"RT":805,"MT":2181,"sideResp":2,"stimulus":[],"xmouse":[809,809,809,809,809,809,809,809,809,809,809,809,809,809,809,809,809,809,809,809,809,809,809,809,809,809,809,809,809,809,809,809,809,809,810,812,814,816,818,821,823,824,824,824,824,824,824,824,824,824,824,824,824,824,824,824,824,824,824,824,824,824,824,824,825,829,834,840,850,873,886,892,893,893,893,893,893,894,895,899,901,902,903,904,905,905,906,906,908,916,925,936,948,958,972,977,979,980,980,980,980,980,980,980,980,980,980,980,980,980,980,980,980,980,980,980,980,980,980,980,980,980,980,980,982,984,986,989,993,996,1002,1006,1010,1014,1019,1021,1022,1024,1026,1030,1033,1035,1036,1037,1042,1044,1047,1051,1055,1063],"ymouse":[544,544,544,544,544,544,544,544,544,544,544,544,544,544,544,544,544,544,544,544,544,544,544,544,544,544,544,544,544,544,544,544,544,542,531,526,519,512,504,486,469,462,458,457,457,457,457,457,457,457,457,457,457,457,457,457,457,457,457,457,457,457,457,457,455,447,438,425,401,349,304,283,271,266,264,264,264,264,262,256,253,251,250,249,249,248,248,247,245,236,227,215,202,190,170,163,159,158,158,158,158,158,158,158,158,158,158,158,158,158,158,158,158,158,158,158,158,158,158,158,158,158,158,158,153,151,148,145,143,139,130,126,120,115,108,107,105,104,102,99,96,95,94,92,88,87,83,80,76,69],"timestamp_mouse":[10,33,46,66,85,106,125,145,165,185,206,225,246,267,285,305,326,346,367,386,405,426,445,467,486,505,527,545,565,586,605,626,645,665,685,705,727,745,766,785,805,825,846,865,885,905,926,946,965,985,1006,1025,1046,1065,1086,1105,1125,1145,1165,1186,1205,1226,1245,1265,1285,1305,1326,1346,1366,1385,1406,1425,1446,1465,1487,1507,1526,1545,1565,1585,1607,1626,1645,1665,1685,1705,1725,1745,1766,1785,1806,1825,1845,1865,1885,1906,1927,1946,1966,1985,2006,2026,2045,2065,2086,2105,2125,2145,2167,2186,2205,2225,2245,2266,2286,2305,2326,2347,2365,2385,2406,2426,2446,2465,2485,2506,2525,2545,2567,2585,2605,2625,2646,2665,2685,2706,2726,2746,2766,2785,2806,2826,2846,2865,2885,2905,2925,2946,2966,2986],"xSR":741.5,"ySR":469.95,"xT1":424.9,"yT1":0,"xT2":1058.1,"yT2":0,"toosoon":0,"cond_shown":"Incongruent","ratio_trial":300,"L_num":1,"L_den":2,"R_num":2,"R_den":10,"correct_side":1,"subjID":"JuanDavidMartinez6d","gender":"macho","school":"cafaaaaaaam","age":"11"},{"start_time":1551800822290,"click_time":1551800826500,"finger_time":1551800825862,"fix_duration":268.76026958528655,"trial":43,"RT":3572,"MT":638,"sideResp":1,"stimulus":[],"xmouse":[815,815,815,815,815,815,815,815,815,815,815,815,815,815,815,815,815,815,815,815,815,815,815,815,815,815,815,815,815,815,815,815,815,815,815,815,815,815,815,815,815,815,815,815,815,815,815,815,815,815,815,815,815,815,815,815,815,815,815,815,815,815,815,815,815,815,815,815,815,815,815,815,815,815,815,815,815,815,815,815,815,815,815,815,815,815,815,815,815,815,815,815,815,815,815,815,815,815,815,815,815,815,815,815,815,815,815,815,815,815,815,815,815,815,815,815,815,815,815,815,815,815,815,815,815,815,815,815,815,815,815,815,815,815,815,815,815,815,815,815,815,815,815,815,815,815,815,815,815,815,815,815,815,815,815,815,815,815,815,815,815,815,815,815,815,815,815,815,815,811,806,803,802,801,799,794,789,786,783,781,780,770,761,747,731,717,713,707,702,698,688,670,652,632,610,572,568,567,567,567,567,567,566,565,565,560,552,543,535,528,523],"ymouse":[531,531,531,531,531,531,531,531,531,531,531,531,531,531,531,531,531,531,531,531,531,531,531,531,531,531,531,531,531,531,531,531,531,531,531,531,531,531,531,531,531,531,531,531,531,531,531,531,531,531,531,531,531,531,531,531,531,531,531,531,531,531,531,531,531,531,531,531,531,531,531,531,531,531,531,531,531,531,531,531,531,531,531,531,531,531,531,531,531,531,531,531,531,531,531,531,531,531,531,531,531,531,531,531,531,531,531,531,531,531,531,531,531,531,531,531,531,531,531,531,531,531,531,531,531,531,531,531,531,531,531,531,531,531,531,531,531,531,531,531,531,531,531,531,531,531,531,531,531,531,531,531,531,531,531,531,531,531,531,531,531,531,531,531,531,531,531,531,531,530,521,517,514,510,506,494,482,472,462,452,439,403,386,362,336,297,280,266,256,250,240,234,227,222,215,200,196,193,186,177,150,133,118,107,99,87,78,75,73,73,73],"timestamp_mouse":[10,43,51,72,90,111,132,151,171,190,211,231,250,270,290,310,331,350,371,390,411,431,450,470,492,511,530,550,570,590,611,630,651,671,691,711,731,751,771,792,810,831,851,872,891,910,930,950,970,990,1010,1032,1052,1071,1090,1112,1131,1151,1171,1190,1210,1231,1251,1271,1290,1311,1330,1350,1370,1390,1411,1431,1452,1472,1491,1511,1531,1551,1571,1590,1610,1631,1650,1672,1690,1711,1730,1750,1771,1791,1810,1830,1850,1871,1891,1910,1930,1950,1971,1991,2010,2030,2051,2070,2090,2110,2130,2150,2170,2191,2210,2230,2250,2270,2291,2310,2332,2350,2370,2391,2410,2432,2450,2470,2491,2510,2530,2551,2571,2591,2610,2630,2652,2670,2691,2711,2732,2750,2770,2792,2811,2830,2851,2870,2891,2912,2931,2951,2970,2990,3011,3032,3050,3071,3091,3110,3131,3150,3170,3191,3210,3230,3250,3271,3290,3310,3330,3352,3370,3391,3410,3430,3450,3471,3490,3510,3530,3551,3572,3590,3610,3631,3650,3671,3690,3710,3731,3750,3771,3792,3810,3830,3850,3871,3890,3910,3930,3951,3971,3992,4010,4030,4050,4071,4091,4111,4131,4150,4170,4190,4210],"xSR":741.5,"ySR":469.95,"xT1":424.9,"yT1":0,"xT2":1058.1,"yT2":0,"toosoon":0,"cond_shown":"Incongruent","ratio_trial":100,"L_num":9,"L_den":15,"R_num":13,"R_den":26,"correct_side":1,"subjID":"JuanDavidMartinez6d","gender":"macho","school":"cafaaaaaaam","age":"11"},{"start_time":1551800828752,"click_time":1551800831340,"finger_time":1551800830740,"fix_duration":350.7049376771675,"trial":44,"RT":1988,"MT":600,"sideResp":2,"stimulus":[],"xmouse":[786,786,786,786,786,786,786,786,786,786,786,786,786,786,786,786,786,786,786,786,786,786,786,786,786,786,786,786,786,786,786,786,786,786,786,786,786,786,786,786,786,786,786,786,786,786,786,786,786,786,786,786,786,786,786,786,786,786,786,786,786,786,786,786,786,786,786,786,786,786,786,786,786,786,786,786,786,786,786,786,786,786,786,786,786,786,786,786,786,786,786,786,786,786,786,786,786,785,781,778,776,774,764,760,755,752,752,752,763,774,791,814,854,870,881,888,896,910,957,974,984,990,997,1003,1008,1013,1019,1033,1048,1062],"ymouse":[511,511,511,511,511,511,511,511,511,511,511,511,511,511,511,511,511,511,511,511,511,511,511,511,511,511,511,511,511,511,511,511,511,511,511,511,511,511,511,511,511,511,511,511,511,511,511,511,511,511,511,511,511,511,511,511,511,511,511,511,511,511,511,511,511,511,511,511,511,511,511,511,511,511,511,511,511,511,511,511,511,511,511,511,511,511,511,511,511,511,511,511,511,511,511,511,505,496,477,457,439,420,389,379,367,361,354,342,326,315,303,291,274,268,259,253,242,226,190,177,167,161,154,149,143,135,128,109,91,79],"timestamp_mouse":[18,28,48,68,88,110,129,149,168,188,208,229,248,269,288,308,328,348,370,388,408,429,448,470,488,508,530,548,569,588,608,628,650,668,689,708,728,749,768,790,808,828,848,868,888,909,928,950,969,988,1008,1029,1048,1070,1089,1108,1129,1149,1169,1188,1209,1229,1249,1269,1288,1308,1330,1349,1368,1388,1409,1428,1448,1469,1488,1509,1529,1548,1569,1589,1610,1629,1649,1669,1689,1709,1729,1748,1769,1790,1808,1830,1849,1869,1889,1908,1929,1948,1968,1988,2008,2029,2048,2069,2088,2109,2129,2148,2168,2188,2209,2229,2248,2269,2288,2309,2329,2348,2369,2388,2409,2430,2448,2469,2488,2509,2529,2548,2569,2588],"xSR":741.5,"ySR":469.95,"xT1":424.9,"yT1":0,"xT2":1058.1,"yT2":0,"toosoon":0,"cond_shown":"Incongruent","ratio_trial":100,"L_num":6,"L_den":10,"R_num":11,"R_den":22,"correct_side":1,"subjID":"JuanDavidMartinez6d","gender":"macho","school":"cafaaaaaaam","age":"11"},{"start_time":1551800832847,"click_time":1551800835100,"finger_time":1551800834482,"fix_duration":385.238231904203,"trial":45,"RT":1635,"MT":618,"sideResp":1,"stimulus":[],"xmouse":[815,815,815,815,815,815,815,815,815,815,815,815,815,815,815,815,815,815,815,815,815,815,815,815,815,815,815,815,815,815,815,815,815,815,815,815,815,815,815,815,815,815,815,815,815,815,815,815,815,815,815,815,815,815,815,815,815,815,815,815,815,815,815,815,815,815,815,815,815,815,815,815,815,815,815,815,810,795,785,779,773,766,721,677,627,588,570,557,555,552,550,548,542,536,533,530,529,527,527,527,526,525,523,518,512,506,500,490,486,482,480,479,479],"ymouse":[504,504,504,504,504,504,504,504,504,504,504,504,504,504,504,504,504,504,504,504,504,504,504,504,504,504,504,504,504,504,504,504,504,504,504,504,504,504,504,504,504,504,504,504,504,504,504,504,504,504,504,504,504,504,504,504,504,504,504,504,504,504,504,504,504,504,504,504,504,504,504,504,504,504,504,504,501,492,485,480,472,461,419,389,360,333,318,307,303,300,298,294,282,271,264,259,255,248,246,246,244,242,237,229,220,211,198,166,146,131,119,109,97],"timestamp_mouse":[14,37,54,74,93,114,133,154,173,194,215,234,255,273,294,314,334,354,373,394,414,434,454,474,494,514,533,554,573,594,614,635,654,673,694,715,733,753,774,794,813,834,854,874,894,914,935,954,974,994,1014,1035,1054,1074,1094,1115,1134,1154,1173,1195,1214,1235,1254,1274,1295,1315,1333,1353,1374,1393,1414,1434,1454,1474,1494,1514,1534,1553,1573,1595,1613,1635,1654,1674,1693,1713,1733,1753,1774,1794,1813,1835,1853,1873,1893,1913,1934,1954,1974,1994,2014,2034,2053,2073,2093,2113,2133,2154,2174,2194,2213,2233,2253],"xSR":741.5,"ySR":469.95,"xT1":424.9,"yT1":0,"xT2":1058.1,"yT2":0,"toosoon":0,"cond_shown":"Incongruent","ratio_trial":200,"L_num":14,"L_den":30,"R_num":6,"R_den":9,"correct_side":2,"subjID":"JuanDavidMartinez6d","gender":"macho","school":"cafaaaaaaam","age":"11"},{"start_time":1551800838778,"click_time":1551800843100,"finger_time":1551800841540,"fix_duration":975.9179633468325,"trial":46,"RT":2762,"MT":1560,"sideResp":2,"stimulus":[],"xmouse":[780,780,780,780,780,780,780,780,780,780,780,780,780,780,780,780,780,780,780,780,780,780,780,780,780,780,780,780,780,780,780,780,780,780,780,780,780,780,780,780,780,780,780,780,780,780,780,780,780,780,780,780,780,780,780,780,780,780,780,780,780,780,780,780,780,780,780,780,780,780,780,780,780,780,780,780,780,780,780,780,780,780,780,780,780,780,780,780,780,780,780,780,780,780,780,780,780,780,780,780,780,780,780,780,780,780,780,780,780,780,780,780,780,780,780,780,780,780,780,780,780,780,780,780,780,780,780,780,780,780,780,780,780,780,780,781,786,795,804,813,825,843,847,850,852,855,856,857,857,857,858,861,864,868,876,882,888,902,908,916,924,941,953,962,971,975,985,987,989,990,991,994,996,997,997,999,1001,1002,1003,1004,1004,1007,1010,1011,1012,1012,1014,1017,1017,1018,1019,1024,1026,1029,1031,1032,1035,1035,1036,1036,1036,1036,1038,1038,1039,1039,1040,1041,1042,1045,1048,1052,1057,1059,1061,1064,1066],"ymouse":[525,525,525,525,525,525,525,525,525,525,525,525,525,525,525,525,525,525,525,525,525,525,525,525,525,525,525,525,525,525,525,525,525,525,525,525,525,525,525,525,525,525,525,525,525,525,525,525,525,525,525,525,525,525,525,525,525,525,525,525,525,525,525,525,525,525,525,525,525,525,525,525,525,525,525,525,525,525,525,525,525,525,525,525,525,525,525,525,525,525,525,525,525,525,525,525,525,525,525,525,525,525,525,525,525,525,525,525,525,525,525,525,525,525,525,525,525,525,525,525,525,525,525,525,525,525,525,525,525,525,525,525,525,525,521,518,504,482,466,452,436,410,403,397,393,388,385,384,384,383,379,368,357,347,335,327,319,300,293,284,276,261,253,246,239,236,225,223,220,217,215,208,205,202,199,195,188,187,185,183,182,180,179,178,177,177,176,175,174,173,172,165,159,152,147,142,135,132,131,131,131,131,130,129,129,129,127,127,126,124,121,118,112,109,106,103,99],"timestamp_mouse":[2,35,42,64,82,103,122,142,163,183,202,222,242,264,283,303,322,342,363,383,402,422,442,462,483,502,522,543,563,583,602,622,642,664,682,704,722,742,763,782,803,822,842,862,883,904,922,942,964,983,1003,1023,1043,1063,1082,1103,1123,1142,1163,1183,1203,1222,1244,1262,1282,1302,1323,1342,1363,1383,1402,1423,1443,1464,1483,1503,1522,1542,1562,1583,1602,1623,1642,1662,1683,1702,1722,1742,1764,1784,1803,1822,1843,1863,1884,1902,1923,1942,1962,1982,2002,2022,2043,2062,2082,2103,2124,2142,2162,2182,2202,2222,2242,2263,2282,2303,2323,2342,2362,2382,2402,2422,2443,2463,2484,2503,2522,2542,2563,2583,2602,2622,2642,2663,2683,2702,2722,2743,2762,2782,2803,2823,2842,2862,2882,2902,2922,2943,2964,2982,3002,3023,3042,3062,3082,3102,3122,3142,3162,3182,3202,3222,3244,3262,3282,3303,3323,3343,3362,3382,3402,3423,3442,3463,3482,3503,3523,3543,3563,3582,3602,3622,3643,3662,3682,3703,3722,3743,3763,3782,3802,3822,3842,3863,3882,3902,3922,3943,3963,3983,4002,4023,4042,4062,4083,4103,4122,4142,4162,4183,4203,4222,4242,4262,4282,4302,4322],"xSR":741.5,"ySR":469.95,"xT1":424.9,"yT1":0,"xT2":1058.1,"yT2":0,"toosoon":0,"cond_shown":"Congruent","ratio_trial":200,"L_num":8,"L_den":15,"R_num":7,"R_den":21,"correct_side":1,"subjID":"JuanDavidMartinez6d","gender":"macho","school":"cafaaaaaaam","age":"11"},{"start_time":1551800844586,"click_time":1551800848502,"finger_time":1551800846100,"fix_duration":463.2766592046148,"trial":47,"RT":1514,"MT":2402,"sideResp":1,"stimulus":[],"xmouse":[788,788,788,788,788,788,788,788,788,788,788,788,788,788,788,788,788,788,788,788,788,788,788,788,788,788,788,788,788,788,788,788,788,788,788,788,788,788,788,788,788,788,788,788,788,788,788,788,788,788,788,788,788,788,788,788,788,788,788,788,788,788,788,788,788,788,788,788,788,786,784,779,771,761,751,737,729,727,722,714,697,687,676,667,657,635,624,611,604,599,593,591,588,586,583,575,570,567,564,560,554,552,550,548,546,539,533,531,530,530,530,530,528,527,525,521,519,516,515,514,513,513,512,512,511,510,509,508,508,508,507,507,506,506,505,503,503,503,502,502,501,501,501,501,501,501,499,499,499,499,499,499,499,499,500,504,508,509,510,510,511,511,512,512,512,512,512,512,512,512,512,512,512,512,512,512,512,512,512,512,512,512,512,512,512,512,512,513,513,514,514,514,516,516,517,519],"ymouse":[547,547,547,547,547,547,547,547,547,547,547,547,547,547,547,547,547,547,547,547,547,547,547,547,547,547,547,547,547,547,547,547,547,547,547,547,547,547,547,547,547,547,547,547,547,547,547,547,547,547,547,547,547,547,547,547,547,547,547,547,547,547,547,547,547,547,547,547,547,545,539,530,518,505,496,481,471,463,454,443,419,407,393,380,366,337,322,302,291,284,277,276,274,272,268,258,250,244,238,233,221,213,204,192,181,161,152,150,149,149,148,147,146,144,143,140,138,136,135,134,134,134,133,133,132,131,130,128,128,128,128,127,126,126,126,125,124,124,124,124,124,124,124,123,123,123,122,122,122,122,122,122,122,121,120,120,120,120,119,119,118,118,118,118,117,116,116,116,116,116,116,115,115,115,114,112,110,108,107,105,105,105,105,105,105,105,104,103,103,102,102,102,101,101,100,98],"timestamp_mouse":[16,34,54,74,94,115,134,154,175,195,214,234,254,275,294,314,335,354,376,394,414,434,455,474,496,515,535,555,574,594,616,635,654,676,694,715,735,755,775,796,814,835,855,874,894,915,935,955,975,995,1016,1035,1055,1076,1094,1114,1136,1155,1175,1195,1214,1234,1254,1274,1295,1314,1334,1355,1375,1395,1414,1434,1456,1476,1494,1514,1534,1555,1574,1594,1615,1635,1655,1674,1694,1714,1736,1754,1775,179