[{"start_time":1551801375850,"click_time":1551801377000,"finger_time":1551801376641,"fix_duration":685.3747052117924,"trial":0,"RT":791,"MT":359,"sideResp":2,"stimulus":"img/750/randomdotsizeEA/L/13_Ratio_750_L_8_R_6.png","xmouse":[806,805,805,796,794,790,787,787,787,787,787,787,787,787,787,787,787,787,787,787,787,787,787,787,787,787,787,787,787,787,787,787,787,787,787,787,787,787,805,851,918,1002,1176,1176,1176,1176,1176,1176,1176,1176,1176,1176,1176,1176,1176,1176,1162,1147],"ymouse":[507,508,508,507,506,505,505,505,505,505,505,505,505,505,505,505,505,505,505,505,505,505,505,505,505,505,505,505,505,505,505,505,505,505,505,505,505,505,476,417,335,238,20,20,20,20,20,20,20,20,20,20,20,20,20,20,4,32],"timestamp_mouse":[9,37,51,70,91,110,131,149,170,189,211,229,249,270,289,309,330,351,369,389,411,429,451,469,491,509,530,549,570,590,609,629,651,669,689,709,730,749,770,791,810,829,849,870,890,911,930,949,970,989,1009,1029,1050,1070,1091,1110,1130,1150],"xSR":741.5,"ySR":469.95,"xT1":424.9,"yT1":0,"xT2":1058.1,"yT2":0,"toosoon":0,"cond_shown":"randomdotsizeEA","ratio_trial":750,"smaller_num":"6","larger_num":"8","correct_side":1,"subjID":"juandavidmartinez","gender":"macho.","age":"11","school":"cafaaaaaaaaaam","test":{"fix_dur":[250,1500],"timestim":300,"targets_dim":[100,100],"targets_relative_coord":[0.3,0.7],"size_stim":[880,420],"start_dim":[100,100],"size_start":[300,300],"size_fix":60,"samplingrate":20,"img_types":["equaldotsize","equaldotanddens","randomdotsizeEA"],"ratios":[250,500,750,900],"rep_conds":9,"nTrials":120,"trials_to_rest":500,"Trials_order":[20,88,46,111,38,55,98,58,84,17,5,45,93,61,44,59,27,30,42,8,91,110,71,4,116,10,67,11,77,2,69,22,35,97,94,76,23,60,16,47,108,19,103,31,115,112,26,92,53,1,68,117,66,109,119,3,41,87,101,39,14,70,102,7,118,89,86,15,9,40,81,75,24,114,6,29,80,37,100,57,105,33,51,28,113,79,78,82,96,21,25,83,62,56,49,52,95,106,12,13,72,104,36,32,99,64,85,65,54,48,50,34,73,43,90,107,18,63,0,74],"cond_shown":["randomdotsizeEA","equaldotanddens","equaldotanddens","equaldotsize","randomdotsizeEA","equaldotanddens","randomdotsizeEA","equaldotanddens","equaldotsize","randomdotsizeEA","randomdotsizeEA","equaldotsize","equaldotsize","equaldotanddens","randomdotsizeEA","randomdotsizeEA","equaldotsize","equaldotsize","equaldotsize","randomdotsizeEA","equaldotanddens","randomdotsizeEA","randomdotsizeEA","equaldotanddens","randomdotsizeEA","equaldotanddens","equaldotanddens","randomdotsizeEA","randomdotsizeEA","randomdotsizeEA","equaldotsize","equaldotanddens","randomdotsizeEA","equaldotanddens","equaldotanddens","equaldotanddens","randomdotsizeEA","equaldotsize","equaldotanddens","randomdotsizeEA","equaldotsize","equaldotanddens","equaldotanddens","equaldotanddens","equaldotanddens","equaldotanddens","randomdotsizeEA","randomdotsizeEA","randomdotsizeEA","equaldotanddens","randomdotsizeEA","equaldotsize","equaldotsize","equaldotanddens","randomdotsizeEA","equaldotsize","randomdotsizeEA","equaldotsize","randomdotsizeEA","equaldotsize","randomdotsizeEA","equaldotanddens","equaldotsize","equaldotanddens","equaldotanddens","randomdotsizeEA","randomdotsizeEA","equaldotsize","equaldotsize","equaldotanddens","equaldotsize","equaldotsize","equaldotsize","equaldotsize","equaldotsize","randomdotsizeEA","randomdotsizeEA","equaldotanddens","equaldotanddens","equaldotsize","equaldotsize","equaldotsize","equaldotsize","equaldotanddens","randomdotsizeEA","equaldotanddens","equaldotsize","equaldotanddens","equaldotsize","equaldotsize","equaldotanddens","randomdotsizeEA","randomdotsizeEA","randomdotsizeEA","equaldotanddens","equaldotanddens","randomdotsizeEA","equaldotanddens","equaldotsize","equaldotanddens","equaldotsize","randomdotsizeEA","equaldotsize","randomdotsizeEA","equaldotsize","equaldotanddens","equaldotanddens","randomdotsizeEA","equaldotsize","equaldotsize","randomdotsizeEA","equaldotanddens","equaldotanddens","equaldotanddens","equaldotsize","randomdotsizeEA","equaldotsize","equaldotsize","equaldotsize","randomdotsizeEA"],"ratio_trial":[750,500,900,500,250,750,250,900,250,500,500,900,900,250,750,900,500,750,750,750,750,250,900,500,750,900,750,900,500,250,900,900,900,250,900,500,900,250,500,900,250,750,750,750,750,500,250,750,500,250,750,900,750,250,900,500,500,500,500,500,250,900,750,750,900,500,250,500,900,500,900,500,250,750,750,500,750,250,500,900,900,900,500,500,500,750,750,900,250,900,250,900,250,750,250,500,900,900,250,250,250,750,250,750,500,500,250,500,750,250,250,900,250,750,750,900,750,500,250,250],"smaller_num":["6","5","18","10","3","3","2","9","2","5","2","18","18","6","3","18","4","15","3","3","3","5","18","1","15","18","3","9","6","1","18","9","18","5","18","1","18","5","10","18","3","3","15","9","3","1","6","3","3","3","15","18","3","2","18","5","10","10","9","2","6","18","6","18","9","1","3","10","9","9","9","4","5","3","15","9","15","3","6","9","9","18","5","5","9","3","15","18","1","18","3","18","6","3","3","9","18","9","3","3","2","15","6","18","2","2","6","6","6","6","3","9","3","6","9","9","3","4","3","3"],"larger_num":["8","10","20","20","12","4","8","10","8","10","4","20","20","24","4","20","8","20","4","4","4","20","20","2","20","20","4","10","12","4","20","10","20","20","20","2","20","20","20","20","12","4","20","12","4","2","24","4","6","12","20","20","4","8","20","10","20","20","18","4","24","20","8","24","10","2","12","20","10","18","10","8","20","4","20","18","20","12","12","10","10","20","10","10","18","4","20","20","4","20","12","20","24","4","12","18","20","10","12","12","8","20","24","24","4","4","24","12","8","24","12","10","12","8","12","10","4","8","12","12"],"correct_side":[1,1,1,2,1,2,1,1,1,1,1,2,2,2,1,1,1,2,2,2,2,2,1,2,2,1,2,1,1,2,1,2,1,2,2,2,1,2,2,2,2,2,2,2,1,2,1,1,2,1,2,2,1,1,2,1,2,2,1,1,1,1,1,1,2,2,2,2,2,2,2,1,2,2,2,1,2,1,1,2,1,1,2,2,1,2,2,2,2,2,2,1,2,1,2,2,1,1,2,2,1,1,1,1,1,2,1,1,2,1,1,1,2,1,2,2,2,1,1,1],"img_shown":["img/750/randomdotsizeEA/L/13_Ratio_750_L_8_R_6.png","img/500/equaldotanddens/L/7_Ratio_500_L_10_R_5.png","img/900/equaldotanddens/L/10_Ratio_900_L_20_R_18.png","img/500/equaldotsize/R/3_Ratio_500_L_10_R_20.png","img/250/randomdotsizeEA/L/14_Ratio_250_L_12_R_3.png","img/750/equaldotanddens/R/7_Ratio_750_L_3_R_4.png","img/250/randomdotsizeEA/L/7_Ratio_250_L_8_R_2.png","img/900/equaldotanddens/L/1_Ratio_900_L_10_R_9.png","img/250/equaldotsize/L/1_Ratio_250_L_8_R_2.png","img/500/randomdotsizeEA/L/7_Ratio_500_L_10_R_5.png","img/500/randomdotsizeEA/L/10_Ratio_500_L_4_R_2.png","img/900/equaldotsize/R/9_Ratio_900_L_18_R_20.png","img/900/equaldotsize/R/12_Ratio_900_L_18_R_20.png","img/250/equaldotanddens/R/6_Ratio_250_L_6_R_24.png","img/750/randomdotsizeEA/L/10_Ratio_750_L_4_R_3.png","img/900/randomdotsizeEA/L/4_Ratio_900_L_20_R_18.png","img/500/equaldotsize/L/8_Ratio_500_L_8_R_4.png","img/750/equaldotsize/R/5_Ratio_750_L_15_R_20.png","img/750/equaldotsize/R/12_Ratio_750_L_3_R_4.png","img/750/randomdotsizeEA/R/12_Ratio_750_L_3_R_4.png","img/750/equaldotanddens/R/7_Ratio_750_L_3_R_4.png","img/250/randomdotsizeEA/R/12_Ratio_250_L_5_R_20.png","img/900/randomdotsizeEA/L/2_Ratio_900_L_20_R_18.png","img/500/equaldotanddens/R/12_Ratio_500_L_1_R_2.png","img/750/randomdotsizeEA/R/4_Ratio_750_L_15_R_20.png","img/900/equaldotanddens/L/2_Ratio_900_L_20_R_18.png","img/750/equaldotanddens/R/12_Ratio_750_L_3_R_4.png","img/900/randomdotsizeEA/L/1_Ratio_900_L_10_R_9.png","img/500/randomdotsizeEA/L/13_Ratio_500_L_12_R_6.png","img/250/randomdotsizeEA/R/8_Ratio_250_L_1_R_4.png","img/900/equaldotsize/L/2_Ratio_900_L_20_R_18.png","img/900/equaldotanddens/R/5_Ratio_900_L_9_R_10.png","img/900/randomdotsizeEA/L/8_Ratio_900_L_20_R_18.png","img/250/equaldotanddens/R/12_Ratio_250_L_5_R_20.png","img/900/equaldotanddens/R/14_Ratio_900_L_18_R_20.png","img/500/equaldotanddens/R/15_Ratio_500_L_1_R_2.png","img/900/randomdotsizeEA/L/2_Ratio_900_L_20_R_18.png","img/250/equaldotsize/R/12_Ratio_250_L_5_R_20.png","img/500/equaldotanddens/R/3_Ratio_500_L_10_R_20.png","img/900/randomdotsizeEA/R/14_Ratio_900_L_18_R_20.png","img/250/equaldotsize/R/11_Ratio_250_L_3_R_12.png","img/750/equaldotanddens/R/12_Ratio_750_L_3_R_4.png","img/750/equaldotanddens/R/4_Ratio_750_L_15_R_20.png","img/750/equaldotanddens/R/15_Ratio_750_L_9_R_12.png","img/750/equaldotanddens/L/10_Ratio_750_L_4_R_3.png","img/500/equaldotanddens/R/15_Ratio_500_L_1_R_2.png","img/250/randomdotsizeEA/L/5_Ratio_250_L_24_R_6.png","img/750/randomdotsizeEA/L/9_Ratio_750_L_4_R_3.png","img/500/randomdotsizeEA/R/2_Ratio_500_L_3_R_6.png","img/250/equaldotanddens/L/15_Ratio_250_L_12_R_3.png","img/750/randomdotsizeEA/R/5_Ratio_750_L_15_R_20.png","img/900/equaldotsize/R/12_Ratio_900_L_18_R_20.png","img/750/equaldotsize/L/10_Ratio_750_L_4_R_3.png","img/250/equaldotanddens/L/7_Ratio_250_L_8_R_2.png","img/900/randomdotsizeEA/R/11_Ratio_900_L_18_R_20.png","img/500/equaldotsize/L/7_Ratio_500_L_10_R_5.png","img/500/randomdotsizeEA/R/3_Ratio_500_L_10_R_20.png","img/500/equaldotsize/R/3_Ratio_500_L_10_R_20.png","img/500/randomdotsizeEA/L/4_Ratio_500_L_18_R_9.png","img/500/equaldotsize/L/5_Ratio_500_L_4_R_2.png","img/250/randomdotsizeEA/L/5_Ratio_250_L_24_R_6.png","img/900/equaldotanddens/L/10_Ratio_900_L_20_R_18.png","img/750/equaldotsize/L/13_Ratio_750_L_8_R_6.png","img/750/equaldotanddens/L/6_Ratio_750_L_24_R_18.png","img/900/equaldotanddens/R/7_Ratio_900_L_9_R_10.png","img/500/randomdotsizeEA/R/15_Ratio_500_L_1_R_2.png","img/250/randomdotsizeEA/R/9_Ratio_250_L_3_R_12.png","img/500/equaldotsize/R/3_Ratio_500_L_10_R_20.png","img/900/equaldotsize/R/15_Ratio_900_L_9_R_10.png","img/500/equaldotanddens/R/6_Ratio_500_L_9_R_18.png","img/900/equaldotsize/R/15_Ratio_900_L_9_R_10.png","img/500/equaldotsize/L/8_Ratio_500_L_8_R_4.png","img/250/equaldotsize/R/12_Ratio_250_L_5_R_20.png","img/750/equaldotsize/R/12_Ratio_750_L_3_R_4.png","img/750/equaldotsize/R/3_Ratio_750_L_15_R_20.png","img/500/randomdotsizeEA/L/4_Ratio_500_L_18_R_9.png","img/750/randomdotsizeEA/R/4_Ratio_750_L_15_R_20.png","img/250/equaldotanddens/L/15_Ratio_250_L_12_R_3.png","img/500/equaldotanddens/L/13_Ratio_500_L_12_R_6.png","img/900/equaldotsize/R/3_Ratio_900_L_9_R_10.png","img/900/equaldotsize/L/1_Ratio_900_L_10_R_9.png","img/900/equaldotsize/L/10_Ratio_900_L_20_R_18.png","img/500/equaldotsize/R/14_Ratio_500_L_5_R_10.png","img/500/equaldotanddens/R/14_Ratio_500_L_5_R_10.png","img/500/randomdotsizeEA/L/4_Ratio_500_L_18_R_9.png","img/750/equaldotanddens/R/7_Ratio_750_L_3_R_4.png","img/750/equaldotsize/R/4_Ratio_750_L_15_R_20.png","img/900/equaldotanddens/R/12_Ratio_900_L_18_R_20.png","img/250/equaldotsize/R/8_Ratio_250_L_1_R_4.png","img/900/equaldotsize/R/13_Ratio_900_L_18_R_20.png","img/250/equaldotanddens/R/4_Ratio_250_L_3_R_12.png","img/900/randomdotsizeEA/L/4_Ratio_900_L_20_R_18.png","img/250/randomdotsizeEA/R/6_Ratio_250_L_6_R_24.png","img/750/randomdotsizeEA/L/9_Ratio_750_L_4_R_3.png","img/250/equaldotanddens/R/4_Ratio_250_L_3_R_12.png","img/500/equaldotanddens/R/1_Ratio_500_L_9_R_18.png","img/900/randomdotsizeEA/L/2_Ratio_900_L_20_R_18.png","img/900/equaldotanddens/L/1_Ratio_900_L_10_R_9.png","img/250/equaldotsize/R/4_Ratio_250_L_3_R_12.png","img/250/equaldotanddens/R/11_Ratio_250_L_3_R_12.png","img/250/equaldotsize/L/7_Ratio_250_L_8_R_2.png","img/750/randomdotsizeEA/L/1_Ratio_750_L_20_R_15.png","img/250/equaldotsize/L/5_Ratio_250_L_24_R_6.png","img/750/randomdotsizeEA/L/6_Ratio_750_L_24_R_18.png","img/500/equaldotsize/L/5_Ratio_500_L_4_R_2.png","img/500/equaldotanddens/R/9_Ratio_500_L_2_R_4.png","img/250/equaldotanddens/L/5_Ratio_250_L_24_R_6.png","img/500/randomdotsizeEA/L/11_Ratio_500_L_12_R_6.png","img/750/equaldotsize/R/2_Ratio_750_L_6_R_8.png","img/250/equaldotsize/L/5_Ratio_250_L_24_R_6.png","img/250/randomdotsizeEA/L/15_Ratio_250_L_12_R_3.png","img/900/equaldotanddens/L/1_Ratio_900_L_10_R_9.png","img/250/equaldotanddens/R/11_Ratio_250_L_3_R_12.png","img/750/equaldotanddens/L/13_Ratio_750_L_8_R_6.png","img/750/equaldotsize/R/15_Ratio_750_L_9_R_12.png","img/900/randomdotsizeEA/R/5_Ratio_900_L_9_R_10.png","img/750/equaldotsize/R/7_Ratio_750_L_3_R_4.png","img/500/equaldotsize/L/8_Ratio_500_L_8_R_4.png","img/250/equaldotsize/L/15_Ratio_250_L_12_R_3.png","img/250/randomdotsizeEA/L/15_Ratio_250_L_12_R_3.png"],"Rat0":[["12_Ratio_0_L_9_R_0.png","13_Ratio_0_L_6_R_0.png","5_Ratio_0_L_2_R_0.png","6_Ratio_0_L_4_R_0.png","8_Ratio_0_L_6_R_0.png"],["1_Ratio_0_L_0_R_17.png","10_Ratio_0_L_0_R_22.png","11_Ratio_0_L_0_R_1.png","14_Ratio_0_L_0_R_24.png","15_Ratio_0_L_0_R_4.png","2_Ratio_0_L_0_R_5.png","3_Ratio_0_L_0_R_17.png","4_Ratio_0_L_0_R_7.png","7_Ratio_0_L_0_R_19.png","9_Ratio_0_L_0_R_15.png"]],"Rat250":[["1_Ratio_250_L_8_R_2.png","14_Ratio_250_L_12_R_3.png","15_Ratio_250_L_12_R_3.png","2_Ratio_250_L_16_R_4.png","3_Ratio_250_L_8_R_2.png","5_Ratio_250_L_24_R_6.png","7_Ratio_250_L_8_R_2.png"],["10_Ratio_250_L_4_R_16.png","11_Ratio_250_L_3_R_12.png","12_Ratio_250_L_5_R_20.png","13_Ratio_250_L_2_R_8.png","4_Ratio_250_L_3_R_12.png","6_Ratio_250_L_6_R_24.png","8_Ratio_250_L_1_R_4.png","9_Ratio_250_L_3_R_12.png"]],"Rat500":[["10_Ratio_500_L_4_R_2.png","11_Ratio_500_L_12_R_6.png","13_Ratio_500_L_12_R_6.png","4_Ratio_500_L_18_R_9.png","5_Ratio_500_L_4_R_2.png","7_Ratio_500_L_10_R_5.png","8_Ratio_500_L_8_R_4.png"],["1_Ratio_500_L_9_R_18.png","12_Ratio_500_L_1_R_2.png","14_Ratio_500_L_5_R_10.png","15_Ratio_500_L_1_R_2.png","2_Ratio_500_L_3_R_6.png","3_Ratio_500_L_10_R_20.png","6_Ratio_500_L_9_R_18.png","9_Ratio_500_L_2_R_4.png"]],"Rat750":[["1_Ratio_750_L_20_R_15.png","10_Ratio_750_L_4_R_3.png","13_Ratio_750_L_8_R_6.png","14_Ratio_750_L_8_R_6.png","6_Ratio_750_L_24_R_18.png","8_Ratio_750_L_4_R_3.png","9_Ratio_750_L_4_R_3.png"],["11_Ratio_750_L_12_R_16.png","12_Ratio_750_L_3_R_4.png","15_Ratio_750_L_9_R_12.png","2_Ratio_750_L_6_R_8.png","3_Ratio_750_L_15_R_20.png","4_Ratio_750_L_15_R_20.png","5_Ratio_750_L_15_R_20.png","7_Ratio_750_L_3_R_4.png"]],"Rat900":[["1_Ratio_900_L_10_R_9.png","10_Ratio_900_L_20_R_18.png","2_Ratio_900_L_20_R_18.png","4_Ratio_900_L_20_R_18.png","8_Ratio_900_L_20_R_18.png"],["11_Ratio_900_L_18_R_20.png","12_Ratio_900_L_18_R_20.png","13_Ratio_900_L_18_R_20.png","14_Ratio_900_L_18_R_20.png","15_Ratio_900_L_9_R_10.png","3_Ratio_900_L_9_R_10.png","5_Ratio_900_L_9_R_10.png","6_Ratio_900_L_9_R_10.png","7_Ratio_900_L_9_R_10.png","9_Ratio_900_L_18_R_20.png"]],"Rat1000":[["10_Ratio_1000_L_16_R_16.png","11_Ratio_1000_L_6_R_6.png","12_Ratio_1000_L_14_R_14.png","13_Ratio_1000_L_20_R_20.png","15_Ratio_1000_L_15_R_15.png","2_Ratio_1000_L_17_R_17.png","4_Ratio_1000_L_9_R_9.png","5_Ratio_1000_L_6_R_6.png","6_Ratio_1000_L_19_R_19.png","8_Ratio_1000_L_14_R_14.png","9_Ratio_1000_L_25_R_25.png"],["1_Ratio_1000_L_1_R_1.png","14_Ratio_1000_L_17_R_17.png","3_Ratio_1000_L_17_R_17.png","7_Ratio_1000_L_6_R_6.png"]]}},{"start_time":1551801378633,"click_time":1551801380121,"finger_time":1551801379299,"fix_duration":250,"trial":1,"RT":666,"MT":822,"sideResp":1,"stimulus":"img/500/equaldotanddens/L/7_Ratio_500_L_10_R_5.png","xmouse":[805,805,805,805,805,805,805,805,805,805,805,805,805,805,805,805,805,805,805,805,805,805,805,805,805,805,805,805,805,805,805,805,805,805,805,805,798,787,770,770,770,770,770,770,770,770,770,770,770,770,770,770,770,770,770,770,770,770,770,770,770,770,326,360,364,365,365,365,365,365,365,373,378,407,433],"ymouse":[546,546,546,546,546,546,546,546,546,546,546,546,546,546,546,546,546,546,546,546,546,546,546,546,546,546,546,546,546,546,546,546,545,437,361,272,184,97,27,27,27,27,27,27,27,27,27,27,27,27,27,27,27,27,27,27,27,27,27,27,27,27,5,12,12,12,12,12,12,12,12,13,14,18,23],"timestamp_mouse":[8,33,48,66,86,106,128,146,167,186,206,228,246,268,286,307,328,347,366,388,406,426,448,466,488,507,527,548,567,586,607,627,646,666,686,706,727,747,766,787,807,826,846,867,887,906,928,948,966,986,1006,1026,1046,1067,1086,1108,1128,1147,1167,1187,1206,1226,1247,1266,1287,1307,1327,1347,1367,1386,1406,1427,1446,1467,1487],"xSR":741.5,"ySR":469.95,"xT1":424.9,"yT1":0,"xT2":1058.1,"yT2":0,"toosoon":0,"cond_shown":"equaldotanddens","ratio_trial":500,"smaller_num":"5","larger_num":"10","correct_side":1,"subjID":"juandavidmartinez","gender":"macho.","age":"11","school":"cafaaaaaaaaaam"},{"start_time":1551801382711,"click_time":1551801384440,"finger_time":1551801383460,"fix_duration":250,"trial":2,"RT":749,"MT":980,"sideResp":2,"stimulus":"img/900/equaldotanddens/L/10_Ratio_900_L_20_R_18.png","xmouse":[797,797,797,797,797,797,797,797,797,797,797,797,797,797,797,797,797,797,797,797,797,797,797,797,797,797,797,797,797,797,797,797,797,797,797,807,818,842,872,893,906,911,912,912,912,912,912,916,921,932,942,947,947,947,947,946,946,946,947,964,971,978,981,981,981,981,981,981,981,981,981,981,981,981,981,983,989,1005,1031,1050,1056,1057,1057,1057,1057,1057,1060],"ymouse":[520,520,520,520,520,520,520,520,520,520,520,520,520,520,520,520,520,520,520,520,520,520,520,520,520,520,520,520,520,520,520,520,520,520,520,503,480,447,407,375,357,349,348,346,346,346,340,329,309,270,234,220,216,215,210,199,186,170,151,115,106,97,94,93,93,93,93,93,93,93,93,93,93,93,93,92,90,84,74,65,62,61,61,61,61,61,59],"timestamp_mouse":[10,38,48,70,88,109,129,148,169,190,208,229,249,268,289,309,329,348,368,388,409,429,449,469,490,508,529,549,570,588,609,628,650,670,689,709,730,749,768,788,809,829,849,868,888,909,929,949,968,988,1009,1029,1050,1069,1088,1109,1128,1150,1168,1189,1208,1228,1249,1269,1289,1310,1329,1348,1368,1388,1408,1428,1448,1469,1490,1509,1528,1549,1568,1590,1609,1630,1650,1669,1689,1708,1728],"xSR":741.5,"ySR":469.95,"xT1":424.9,"yT1":0,"xT2":1058.1,"yT2":0,"toosoon":0,"cond_shown":"equaldotanddens","ratio_trial":900,"smaller_num":"18","larger_num":"20","correct_side":1,"subjID":"juandavidmartinez","gender":"macho.","age":"11","school":"cafaaaaaaaaaam"},{"start_time":1551801386378,"click_time":1551801387360,"finger_time":1551801387080,"fix_duration":877.5604214800269,"trial":3,"RT":702,"MT":280,"sideResp":2,"stimulus":"img/500/equaldotsize/R/3_Ratio_500_L_10_R_20.png","xmouse":[804,799,797,796,796,796,796,796,796,796,796,796,796,796,796,796,796,796,796,796,796,796,796,796,796,796,796,796,796,796,796,796,796,796,810,845,934,998,1023,1037,1043,1049,1051,1052,1053,1053,1053,1055,1057,1060],"ymouse":[521,523,523,524,524,524,524,524,524,524,524,524,524,524,524,524,524,524,524,524,524,524,524,524,524,524,524,524,524,524,524,524,524,515,485,421,300,240,220,206,196,182,177,174,170,163,129,108,87,68],"timestamp_mouse":[1,32,43,62,81,103,121,141,163,181,202,221,241,262,281,301,322,342,361,381,402,422,441,463,481,501,522,542,562,581,603,621,642,662,682,702,721,742,762,782,802,822,843,861,881,901,921,942,961,982],"xSR":741.5,"ySR":469.95,"xT1":424.9,"yT1":0,"xT2":1058.1,"yT2":0,"toosoon":0,"cond_shown":"equaldotsize","ratio_trial":500,"smaller_num":"10","larger_num":"20","correct_side":2,"subjID":"juandavidmartinez","gender":"macho.","age":"11","school":"cafaaaaaaaaaam"},{"start_time":1551801389915,"click_time":1551801390999,"finger_time":1551801390440,"fix_duration":1213.034118895576,"trial":4,"RT":525,"MT":559,"sideResp":1,"stimulus":"img/250/randomdotsizeEA/L/14_Ratio_250_L_12_R_3.png","xmouse":[781,781,781,781,781,781,781,781,781,781,781,781,781,781,781,781,781,781,781,781,781,781,781,780,773,767,763,761,760,758,755,752,747,736,682,639,586,546,511,489,489,489,489,489,489,489,489,489,489,489,489,489,489,488,488],"ymouse":[530,530,530,530,530,530,530,530,530,530,530,530,530,530,530,530,530,530,530,530,530,527,524,517,488,474,464,456,449,440,433,425,409,387,296,243,188,149,118,101,101,101,101,101,101,101,101,101,101,101,101,101,101,100,93],"timestamp_mouse":[8,33,45,64,84,106,124,146,164,184,206,224,245,264,284,304,326,345,364,386,404,425,446,465,484,505,525,545,564,584,604,624,646,664,684,705,724,744,764,785,804,824,844,865,884,905,927,944,965,984,1004,1025,1046,1066,1084],"xSR":741.5,"ySR":469.95,"xT1":424.9,"yT1":0,"xT2":1058.1,"yT2":0,"toosoon":0,"cond_shown":"randomdotsizeEA","ratio_trial":250,"smaller_num":"3","larger_num":"12","correct_side":1,"subjID":"juandavidmartinez","gender":"macho.","age":"11","school":"cafaaaaaaaaaam"},{"start_time":1551801393380,"click_time":1551801394259,"finger_time":1551801393960,"fix_duration":1217.0747966454232,"trial":5,"RT":580,"MT":299,"sideResp":2,"stimulus":"img/750/equaldotanddens/R/7_Ratio_750_L_3_R_4.png","xmouse":[790,790,790,790,790,790,790,790,790,790,790,790,790,790,790,790,790,790,790,790,790,790,790,790,790,790,790,790,793,800,811,861,893,925,956,983,1017,1020,1022,1024,1028,1037,1041,1050,1064],"ymouse":[515,515,515,515,515,515,515,515,515,515,515,515,515,515,515,515,515,515,515,515,515,515,515,515,515,515,515,515,476,448,419,306,250,192,145,109,69,65,63,61,59,57,57,57,57],"timestamp_mouse":[1,32,40,59,80,99,119,141,160,180,200,219,239,260,279,299,320,339,359,381,400,419,441,459,481,501,519,540,561,580,601,620,639,659,681,701,720,739,759,779,800,820,840,861,879],"xSR":741.5,"ySR":469.95,"xT1":424.9,"yT1":0,"xT2":1058.1,"yT2":0,"toosoon":0,"cond_shown":"equaldotanddens","ratio_trial":750,"smaller_num":"3","larger_num":"4","correct_side":2,"subjID":"juandavidmartinez","gender":"macho.","age":"11","school":"cafaaaaaaaaaam"},{"start_time":1551801400453,"click_time":1551801401600,"finger_time":1551801401201,"fix_duration":371.78209213115485,"trial":6,"RT":748,"MT":399,"sideResp":2,"stimulus":"img/250/randomdotsizeEA/L/7_Ratio_250_L_8_R_2.png","xmouse":[805,805,805,805,805,805,805,805,805,805,805,805,805,805,805,805,805,805,805,805,805,805,805,805,805,805,805,805,805,805,805,805,805,805,805,811,823,903,960,1001,1025,1039,1068,1079,1093,1109,1133,1135,1135,1135,1127,1118,1107,1107,1107,1107,1107,1109],"ymouse":[517,517,517,517,517,517,517,517,517,517,517,517,517,517,517,517,517,517,517,517,517,517,517,517,517,517,517,517,517,517,517,517,517,517,517,497,475,392,356,320,299,281,230,213,193,174,143,139,138,138,138,138,137,137,131,124,104,93],"timestamp_mouse":[11,27,47,68,88,106,126,148,166,187,206,227,248,266,286,307,327,346,366,386,406,426,446,467,487,507,527,547,566,586,607,628,646,666,687,708,726,748,766,788,806,827,847,866,887,907,927,946,968,986,1007,1026,1047,1067,1088,1107,1128,1147],"xSR":741.5,"ySR":469.95,"xT1":424.9,"yT1":0,"xT2":1058.1,"yT2":0,"toosoon":0,"cond_shown":"randomdotsizeEA","ratio_trial":250,"smaller_num":"2","larger_num":"8","correct_side":1,"subjID":"juandavidmartinez","gender":"macho.","age":"11","school":"cafaaaaaaaaaam"},{"start_time":1551801402962,"click_time":1551801403899,"finger_time":1551801403600,"fix_duration":641.4241478812315,"trial":7,"RT":638,"MT":299,"sideResp":2,"stimulus":"img/900/equaldotanddens/L/1_Ratio_900_L_10_R_9.png","xmouse":[788,788,788,788,788,788,788,788,788,788,788,788,788,788,788,788,788,788,788,788,788,788,788,788,788,788,788,788,788,788,788,803,831,865,907,950,996,1007,1009,1011,1012,1017,1020,1026,1034,1051,1086],"ymouse":[510,509,509,509,509,509,509,508,508,508,508,508,508,508,508,508,508,508,508,508,508,508,508,508,508,508,508,508,508,508,507,450,390,319,243,185,131,120,118,117,115,108,104,99,92,82,61],"timestamp_mouse":[17,38,57,77,98,117,138,158,177,199,219,239,258,278,298,318,339,358,377,398,417,437,458,479,498,517,537,557,577,597,617,638,658,677,698,718,737,758,778,798,818,838,857,879,898,918,937],"xSR":741.5,"ySR":469.95,"xT1":424.9,"yT1":0,"xT2":1058.1,"yT2":0,"toosoon":0,"cond_shown":"equaldotanddens","ratio_trial":900,"smaller_num":"9","larger_num":"10","correct_side":1,"subjID":"juandavidmartinez","gender":"macho.","age":"11","school":"cafaaaaaaaaaam"},{"start_time":1551801405904,"click_time":1551801406761,"finger_time":1551801406299,"fix_duration":1222.821684597718,"trial":8,"RT":395,"MT":462,"sideResp":1,"stimulus":"img/250/equaldotsize/L/1_Ratio_250_L_8_R_2.png","xmouse":[772,772,772,772,772,772,772,772,772,772,772,772,772,772,772,772,772,772,767,737,710,673,641,560,539,529,528,527,527,527,527,527,527,525,515,511,509,507,505,495,493,493,493],"ymouse":[531,531,531,531,531,531,531,531,531,531,531,531,531,531,531,531,531,527,509,413,365,313,280,210,195,189,187,187,187,187,187,187,187,184,153,143,137,135,132,120,113,106,99],"timestamp_mouse":[16,43,56,75,96,115,135,156,176,195,215,235,255,275,296,316,335,356,375,395,416,437,457,477,495,515,535,556,576,596,615,636,655,676,695,717,735,757,775,795,816,835,857],"xSR":741.5,"ySR":469.95,"xT1":424.9,"yT1":0,"xT2":1058.1,"yT2":0,"toosoon":0,"cond_shown":"equaldotsize","ratio_trial":250,"smaller_num":"2","larger_num":"8","correct_side":1,"subjID":"juandavidmartinez","gender":"macho.","age":"11","school":"cafaaaaaaaaaam"},{"start_time":1551801408998,"click_time":1551801410000,"finger_time":1551801409681,"fix_duration":1336.685362675305,"trial":9,"RT":683,"MT":319,"sideResp":1,"stimulus":"img/500/randomdotsizeEA/L/7_Ratio_500_L_10_R_5.png","xmouse":[760,762,765,765,782,801,806,808,808,808,808,808,808,808,808,808,808,808,808,808,808,808,808,808,808,808,808,808,808,808,808,808,808,807,768,718,666,607,553,516,466,454,450,449,449,454,456,459,462,469,490],"ymouse":[555,555,554,554,535,514,509,506,506,506,506,506,506,506,506,506,506,506,506,506,506,506,506,506,506,506,506,506,506,506,506,506,506,489,440,386,340,286,243,211,163,145,136,130,126,118,117,114,111,105,85],"timestamp_mouse":[9,21,48,61,82,101,122,142,161,181,202,222,242,261,281,301,321,342,362,382,401,422,441,462,481,501,522,542,561,583,602,623,641,662,683,702,721,741,761,781,802,823,841,861,882,901,922,942,962,981,1001],"xSR":741.5,"ySR":469.95,"xT1":424.9,"yT1":0,"xT2":1058.1,"yT2":0,"toosoon":0,"cond_shown":"randomdotsizeEA","ratio_trial":500,"smaller_num":"5","larger_num":"10","correct_side":1,"subjID":"juandavidmartinez","gender":"macho.","age":"11","school":"cafaaaaaaaaaam"},{"start_time":1551801411617,"click_time":1551801412720,"finger_time":1551801412081,"fix_duration":595.865663928429,"trial":10,"RT":464,"MT":639,"sideResp":1,"stimulus":"img/500/randomdotsizeEA/L/10_Ratio_500_L_4_R_2.png","xmouse":[812,812,812,812,812,812,812,812,812,812,812,812,812,812,812,812,812,812,812,812,812,813,816,824,830,832,834,834,834,834,835,836,838,845,867,883,905,930,1002,1030,1056,1066,1068,1068,1068,1062,1029,970,889,711,638,577,542,522,500,491],"ymouse":[550,550,550,550,550,550,550,550,550,550,550,550,550,550,550,550,550,550,550,550,550,542,521,468,432,413,400,392,388,382,380,376,372,362,339,324,307,292,239,214,194,185,183,183,183,183,187,195,204,198,187,169,155,139,106,92],"timestamp_mouse":[9,34,42,63,82,104,122,144,162,183,202,224,242,262,282,302,323,342,363,384,403,423,443,464,482,502,522,542,563,584,603,624,642,663,682,703,724,744,764,782,804,822,843,862,882,902,922,944,962,984,1004,1022,1043,1062,1082,1103],"xSR":741.5,"ySR":469.95,"xT1":424.9,"yT1":0,"xT2":1058.1,"yT2":0,"toosoon":0,"cond_shown":"randomdotsizeEA","ratio_trial":500,"smaller_num":"2","larger_num":"4","correct_side":1,"subjID":"juandavidmartinez","gender":"macho.","age":"11","school":"cafaaaaaaaaaam"},{"start_time":1551801414682,"click_time":1551801415581,"finger_time":1551801415220,"fix_duration":681.0750889209397,"trial":11,"RT":538,"MT":361,"sideResp":2,"stimulus":"img/900/equaldotsize/R/9_Ratio_900_L_18_R_20.png","xmouse":[790,790,790,790,790,790,790,790,790,790,790,790,790,790,790,790,790,790,790,790,790,790,790,790,790,802,818,845,879,959,1003,1050,1068,1082,1086,1086,1086,1086,1086,1086,1086,1086,1086,1088,1095],"ymouse":[507,507,507,507,507,507,507,507,507,507,507,507,507,507,507,507,507,507,507,507,507,507,507,498,493,472,452,415,361,255,195,135,117,104,101,101,101,101,101,101,101,101,101,100,73],"timestamp_mouse":[36,37,58,77,97,119,138,158,177,198,218,238,257,278,297,317,339,357,378,398,417,437,457,478,497,517,538,557,578,599,617,637,658,678,698,718,737,758,778,797,817,838,857,878,899],"xSR":741.5,"ySR":469.95,"xT1":424.9,"yT1":0,"xT2":1058.1,"yT2":0,"toosoon":0,"cond_shown":"equaldotsize","ratio_trial":900,"smaller_num":"18","larger_num":"20","correct_side":2,"subjID":"juandavidmartinez","gender":"macho.","age":"11","school":"cafaaaaaaaaaam"},{"start_time":1551801418371,"click_time":1551801419620,"finger_time":1551801419299,"fix_duration":329.9668021330385,"trial":12,"RT":928,"MT":321,"sideResp":2,"stimulus":"img/900/equaldotsize/R/12_Ratio_900_L_18_R_20.png","xmouse":[807,807,807,807,807,807,807,807,807,807,807,807,807,807,807,807,807,807,807,807,807,807,807,807,807,807,807,807,807,807,807,807,807,807,807,807,807,807,807,807,807,807,807,807,808,821,870,878,884,890,898,920,931,944,952,957,979,991,1010,1044,1071,1127,1149],"ymouse":[495,495,495,495,495,495,495,495,495,495,495,495,495,495,495,495,495,495,495,495,495,495,495,495,495,495,495,495,495,495,495,495,495,495,495,495,495,495,495,495,495,495,495,495,495,476,378,368,362,356,350,339,338,334,332,329,307,291,267,227,197,117,88],"timestamp_mouse":[8,47,49,69,89,110,129,149,168,188,210,228,248,270,289,309,329,349,369,390,409,429,449,469,489,510,530,549,570,589,608,629,648,670,690,708,729,750,770,789,809,829,849,870,889,909,928,949,970,990,1010,1029,1048,1070,1089,1109,1128,1149,1169,1188,1209,1228,1248],"xSR":741.5,"ySR":469.95,"xT1":424.9,"yT1":0,"xT2":1058.1,"yT2":0,"toosoon":0,"cond_shown":"equaldotsize","ratio_trial":900,"smaller_num":"18","larger_num":"20","correct_side":2,"subjID":"juandavidmartinez","gender":"macho.","age":"11","school":"cafaaaaaaaaaam"},{"start_time":1551801421773,"click_time":1551801422720,"finger_time":1551801422299,"fix_duration":1071.0782727678522,"trial":13,"RT":526,"MT":421,"sideResp":2,"stimulus":"img/250/equaldotanddens/R/6_Ratio_250_L_6_R_24.png","xmouse":[780,780,780,780,780,780,780,780,780,780,780,780,780,780,780,780,780,780,780,780,780,780,780,787,792,808,833,848,872,904,941,1029,1070,1112,1137,1162,1163,1164,1164,1164,1164,1164,1164,1164,1164,1164,1150,1137],"ymouse":[534,534,534,534,534,534,534,534,534,534,534,534,534,534,534,534,534,534,534,534,534,534,534,518,509,487,456,435,405,358,315,217,177,148,130,117,117,116,116,116,116,116,116,116,116,115,103,93],"timestamp_mouse":[6,26,47,66,86,106,127,147,168,186,206,226,246,266,286,306,327,348,368,386,406,426,447,466,487,506,526,547,567,586,606,627,647,666,687,707,727,747,766,786,807,827,847,867,887,906,927,947],"xSR":741.5,"ySR":469.95,"xT1":424.9,"yT1":0,"xT2":1058.1,"yT2":0,"toosoon":0,"cond_shown":"equaldotanddens","ratio_trial":250,"smaller_num":"6","larger_num":"24","correct_side":2,"subjID":"juandavidmartinez","gender":"macho.","age":"11","school":"cafaaaaaaaaaam"},{"start_time":1551801425360,"click_time":1551801426320,"finger_time":1551801425979,"fix_duration":1440.919604708896,"trial":14,"RT":619,"MT":341,"sideResp":2,"stimulus":"img/750/randomdotsizeEA/L/10_Ratio_750_L_4_R_3.png","xmouse":[772,774,780,781,781,781,781,781,781,781,781,781,781,781,781,781,781,781,781,781,781,781,781,781,781,781,781,781,786,798,810,922,980,1019,1040,1050,1050,1050,1050,1050,1050,1050,1050,1050,1050,1050,1053,1061],"ymouse":[509,504,497,495,495,495,495,495,495,495,495,495,495,495,495,495,495,495,495,495,495,495,495,495,495,495,495,494,490,476,460,342,291,245,216,203,200,200,200,200,200,196,182,167,148,121,105,81],"timestamp_mouse":[19,39,60,79,101,120,139,160,181,199,221,239,260,280,299,321,340,360,379,400,419,439,461,479,499,520,539,559,580,600,619,641,661,681,700,719,739,761,779,800,820,840,860,879,900,921,939,960],"xSR":741.5,"ySR":469.95,"xT1":424.9,"yT1":0,"xT2":1058.1,"yT2":0,"toosoon":0,"cond_shown":"randomdotsizeEA","ratio_trial":750,"smaller_num":"3","larger_num":"4","correct_side":1,"subjID":"juandavidmartinez","gender":"macho.","age":"11","school":"cafaaaaaaaaaam"},{"start_time":1551801428486,"click_time":1551801429780,"finger_time":1551801429340,"fix_duration":1284.7744694794924,"trial":15,"RT":854,"MT":440,"sideResp":1,"stimulus":"img/900/randomdotsizeEA/L/4_Ratio_900_L_20_R_18.png","xmouse":[785,785,785,785,785,785,785,785,785,785,785,785,785,785,785,785,785,785,785,785,785,785,785,785,785,785,785,785,785,785,785,785,785,785,785,785,785,785,785,776,766,752,736,715,679,655,627,612,602,571,556,542,531,527,527,527,527,527,527,527,527,527,527,522],"ymouse":[512,512,512,512,512,512,512,512,512,512,512,512,512,512,512,512,512,512,512,512,512,512,512,512,512,512,512,512,512,512,512,512,512,512,512,512,512,512,512,501,484,460,431,401,322,273,220,194,173,100,74,57,43,37,37,37,37,37,37,37,37,37,37,37],"timestamp_mouse":[33,54,74,94,113,133,153,175,193,214,234,253,273,294,314,334,354,374,394,413,433,453,473,494,515,534,554,575,594,614,633,653,675,695,714,734,754,775,793,813,834,854,875,894,915,934,954,974,994,1014,1034,1054,1074,1094,1113,1134,1153,1174,1194,1214,1234,1253,1274,1293],"xSR":741.5,"ySR":469.95,"xT1":424.9,"yT1":0,"xT2":1058.1,"yT2":0,"toosoon":0,"cond_shown":"randomdotsizeEA","ratio_trial":900,"smaller_num":"18","larger_num":"20","correct_side":1,"subjID":"juandavidmartinez","gender":"macho.","age":"11","school":"cafaaaaaaaaaam"},{"start_time":1551801431052,"click_time":1551801431960,"finger_time":1551801431661,"fix_duration":250,"trial":16,"RT":609,"MT":299,"sideResp":1,"stimulus":"img/500/equaldotsize/L/8_Ratio_500_L_8_R_4.png","xmouse":[789,789,789,789,789,789,789,789,789,789,789,789,789,789,789,789,789,789,789,789,789,789,789,789,789,789,789,789,787,780,766,747,691,673,663,654,647,644,644,644,643,639,597,571,538,505],"ymouse":[495,495,495,495,495,495,495,495,495,495,495,495,495,495,495,495,495,495,495,495,495,495,495,495,495,495,495,495,495,475,426,361,166,108,79,57,45,41,41,41,40,39,38,38,39,48],"timestamp_mouse":[9,35,47,68,89,108,129,148,167,189,209,228,247,268,287,309,327,348,367,388,407,427,448,468,488,507,528,548,567,588,609,627,647,668,687,709,728,747,769,789,808,827,847,867,887,907],"xSR":741.5,"ySR":469.95,"xT1":424.9,"yT1":0,"xT2":1058.1,"yT2":0,"toosoon":0,"cond_shown":"equaldotsize","ratio_trial":500,"smaller_num":"4","larger_num":"8","correct_side":1,"subjID":"juandavidmartinez","gender":"macho.","age":"11","school":"cafaaaaaaaaaam"},{"start_time":1551801433914,"click_time":1551801434792,"finger_time":1551801434439,"fix_duration":813.2953523596877,"trial":17,"RT":525,"MT":353,"sideResp":2,"stimulus":"img/750/equaldotsize/R/5_Ratio_750_L_15_R_20.png","xmouse":[797,797,797,797,797,797,797,797,797,797,797,797,797,797,797,797,797,797,797,797,797,797,802,803,814,824,843,873,910,996,1018,1036,1045,1049,1051,1051,1051,1051,1051,1055,1056,1057,1057,1062],"ymouse":[517,517,517,517,517,517,517,517,517,517,517,517,517,517,517,517,517,517,517,517,517,517,515,514,492,474,444,398,346,213,171,142,125,115,107,106,101,91,79,57,53,53,52,50],"timestamp_mouse":[9,33,46,66,85,105,126,145,165,185,205,225,245,266,284,306,326,345,365,385,404,424,445,464,485,506,525,544,566,585,606,626,645,664,684,705,726,744,765,785,805,824,845,878],"xSR":741.5,"ySR":469.95,"xT1":424.9,"yT1":0,"xT2":1058.1,"yT2":0,"toosoon":0,"cond_shown":"equaldotsize","ratio_trial":750,"smaller_num":"15","larger_num":"20","correct_side":2,"subjID":"juandavidmartinez","gender":"macho.","age":"11","school":"cafaaaaaaaaaam"},{"start_time":1551801436695,"click_time":1551801437799,"finger_time":1551801437339,"fix_duration":935.9030133673738,"trial":18,"RT":644,"MT":460,"sideResp":1,"stimulus":"img/750/equaldotsize/R/12_Ratio_750_L_3_R_4.png","xmouse":[806,806,806,806,806,806,806,806,806,806,806,806,806,806,806,806,806,806,806,806,806,806,806,806,806,806,806,806,806,806,806,787,759,726,690,641,631,631,631,631,631,631,631,631,631,631,631,631,631,631,631,631,631,631,481,481],"ymouse":[525,525,525,525,525,525,525,525,525,525,525,525,525,525,525,525,525,525,525,525,525,525,525,525,525,525,525,525,525,525,523,472,405,332,251,81,10,10,10,10,10,10,10,10,10,10,10,10,10,10,10,10,10,10,0,10],"timestamp_mouse":[12,40,44,64,83,104,124,143,164,185,204,224,243,265,284,304,323,344,364,384,403,424,444,464,485,505,523,544,564,584,605,624,644,665,684,703,724,743,764,784,804,825,843,865,884,904,925,943,965,984,1004,1024,1044,1065,1084,1104],"xSR":741.5,"ySR":469.95,"xT1":424.9,"yT1":0,"xT2":1058.1,"yT2":0,"toosoon":0,"cond_shown":"equaldotsize","ratio_trial":750,"smaller_num":"3","larger_num":"4","correct_side":2,"subjID":"juandavidmartinez","gender":"macho.","age":"11","school":"cafaaaaaaaaaam"},{"start_time":1551801440181,"click_time":1551801440740,"finger_time":1551801440619,"fix_duration":1321.1215055052035,"trial":19,"RT":438,"MT":121,"sideResp":2,"stimulus":"img/750/randomdotsizeEA/R/12_Ratio_750_L_3_R_4.png","xmouse":[816,816,816,816,816,816,816,816,816,816,816,816,816,816,816,816,816,816,816,816,823,853,874,900,962,1012,1060,1105],"ymouse":[523,523,523,523,523,523,523,523,523,523,523,523,523,523,523,523,523,523,523,523,494,441,404,351,240,173,112,49],"timestamp_mouse":[18,38,58,77,98,118,137,158,177,197,218,239,257,278,297,318,338,359,379,399,418,438,457,478,499,517,538,559],"xSR":741.5,"ySR":469.95,"xT1":424.9,"yT1":0,"xT2":1058.1,"yT2":0,"toosoon":0,"cond_shown":"randomdotsizeEA","ratio_trial":750,"smaller_num":"3","larger_num":"4","correct_side":2,"subjID":"juandavidmartinez","gender":"macho.","age":"11","school":"cafaaaaaaaaaam"},{"start_time":1551801442943,"click_time":1551801443599,"finger_time":1551801443499,"fix_duration":1242.6575976552963,"trial":20,"RT":556,"MT":100,"sideResp":1,"stimulus":"img/750/equaldotanddens/R/7_Ratio_750_L_3_R_4.png","xmouse":[785,783,783,784,784,784,784,784,784,784,784,784,784,784,784,784,784,784,784,784,784,784,784,784,784,782,777,730,680,641,595,503,456],"ymouse":[534,532,521,519,518,517,517,517,517,517,517,517,517,517,517,517,517,517,517,517,517,517,517,517,517,495,478,375,299,253,208,130,98],"timestamp_mouse":[15,37,55,76,96,117,136,155,175,197,217,235,255,275,295,316,336,356,376,397,416,436,455,477,496,516,535,556,576,596,615,637,656],"xSR":741.5,"ySR":469.95,"xT1":424.9,"yT1":0,"xT2":1058.1,"yT2":0,"toosoon":0,"cond_shown":"equaldotanddens","ratio_trial":750,"smaller_num":"3","larger_num":"4","correct_side":2,"subjID":"juandavidmartinez","gender":"macho.","age":"11","school":"cafaaaaaaaaaam"},{"start_time":1551801445578,"click_time":1551801446259,"finger_time":1551801445881,"fix_duration":1037.505473826433,"trial":21,"RT":303,"MT":378,"sideResp":2,"stimulus":"img/250/randomdotsizeEA/R/12_Ratio_250_L_5_R_20.png","xmouse":[796,796,796,796,796,796,796,796,796,796,796,796,796,797,807,913,1050,1143,1207,1273,1318,1346,1346,1346,1346,1346,1343,1324,1297,1271,1249,1212,1193,1170,1133],"ymouse":[543,543,543,543,543,543,543,543,543,543,543,543,543,543,531,448,343,277,228,179,142,119,118,118,118,118,117,117,114,112,110,108,105,100,92],"timestamp_mouse":[9,33,41,61,81,101,121,140,161,181,201,220,242,262,280,303,321,340,361,382,401,421,441,460,481,501,521,541,560,581,602,620,641,662,681],"xSR":741.5,"ySR":469.95,"xT1":424.9,"yT1":0,"xT2":1058.1,"yT2":0,"toosoon":0,"cond_shown":"randomdotsizeEA","ratio_trial":250,"smaller_num":"5","larger_num":"20","correct_side":2,"subjID":"juandavidmartinez","gender":"macho.","age":"11","school":"cafaaaaaaaaaam"},{"start_time":1551801449938,"click_time":1551801450919,"finger_time":1551801450620,"fix_duration":778.2652658375949,"trial":22,"RT":682,"MT":299,"sideResp":2,"stimulus":"img/900/randomdotsizeEA/L/2_Ratio_900_L_20_R_18.png","xmouse":[775,775,775,775,775,775,775,775,775,775,775,775,775,775,775,775,775,775,775,775,775,775,775,775,775,775,775,775,775,775,775,775,775,791,823,864,895,940,1023,1045,1064,1077,1082,1082,1082,1082,1084,1093,1109,1117],"ymouse":[526,526,526,526,526,526,526,526,526,526,526,526,526,526,526,526,526,526,526,526,526,526,526,526,526,526,526,526,526,526,526,526,526,502,462,416,378,334,240,221,207,197,193,193,193,193,182,156,111,89],"timestamp_mouse":[2,21,41,61,82,101,121,140,162,180,200,221,240,261,280,302,322,341,362,381,401,421,440,461,481,501,521,542,560,581,601,621,640,661,682,701,721,740,761,781,802,821,842,860,882,901,921,941,960,981],"xSR":741.5,"ySR":469.95,"xT1":424.9,"yT1":0,"xT2":1058.1,"yT2":0,"toosoon":0,"cond_shown":"randomdotsizeEA","ratio_trial":900,"smaller_num":"18","larger_num":"20","correct_side":1,"subjID":"juandavidmartinez","gender":"macho.","age":"11","school":"cafaaaaaaaaaam"},{"start_time":1551801453870,"click_time":1551801455039,"finger_time":1551801454560,"fix_duration":250,"trial":23,"RT":690,"MT":479,"sideResp":2,"stimulus":"img/500/equaldotanddens/R/12_Ratio_500_L_1_R_2.png","xmouse":[811,811,811,811,811,811,811,811,811,811,811,811,811,811,811,811,811,811,811,811,811,811,811,811,811,811,811,811,811,811,812,812,812,813,821,842,905,952,1005,1051,1103,1195,1208,1216,1217,1218,1218,1218,1218,1218,1218,1218,1218,1218,1217,1217,1192,1176,1157],"ymouse":[499,499,499,499,499,499,499,499,499,499,499,499,499,499,499,499,499,499,499,499,499,499,499,499,499,499,499,499,499,499,499,499,499,498,467,425,337,274,215,161,115,39,25,19,15,9,4,3,3,3,3,2,2,2,2,2,18,28,38],"timestamp_mouse":[9,40,49,69,89,108,130,150,168,190,210,228,250,270,288,310,329,348,369,388,410,429,449,470,490,509,529,549,570,589,608,630,650,669,690,708,730,750,769,790,809,829,849,870,890,910,928,950,968,989,1009,1029,1050,1069,1089,1109,1129,1149,1168],"xSR":741.5,"ySR":469.95,"xT1":424.9,"yT1":0,"xT2":1058.1,"yT2":0,"toosoon":0,"cond_shown":"equaldotanddens","ratio_trial":500,"smaller_num":"1","larger_num":"2","correct_side":2,"subjID":"juandavidmartinez","gender":"macho.","age":"11","school":"cafaaaaaaaaaam"},{"start_time":1551801457258,"click_time":1551801458099,"finger_time":1551801457959,"fix_duration":1176.3155877306356,"trial":24,"RT":701,"MT":140,"sideResp":2,"stimulus":"img/750/randomdotsizeEA/R/4_Ratio_750_L_15_R_20.png","xmouse":[788,788,788,789,790,790,790,791,792,793,793,796,798,798,799,799,799,799,799,799,799,799,799,799,799,799,799,799,799,799,799,799,799,799,804,840,883,959,996,1023,1047,1068,1101],"ymouse":[519,519,520,520,520,520,520,520,521,521,522,523,524,524,525,525,525,525,525,525,525,525,525,525,525,525,525,525,525,525,525,525,525,525,518,451,389,275,222,182,148,118,63],"timestamp_mouse":[1,21,41,61,81,102,120,141,162,181,201,222,241,261,282,300,322,340,362,381,400,421,442,461,482,501,520,541,560,582,602,621,642,661,681,701,722,742,761,780,801,822,841],"xSR":741.5,"ySR":469.95,"xT1":424.9,"yT1":0,"xT2":1058.1,"yT2":0,"toosoon":0,"cond_shown":"randomdotsizeEA","ratio_trial":750,"smaller_num":"15","larger_num":"20","correct_side":2,"subjID":"juandavidmartinez","gender":"macho.","age":"11","school":"cafaaaaaaaaaam"},{"start_time":1551801459069,"click_time":1551801459898,"finger_time":1551801459780,"fix_duration":250,"trial":25,"RT":711,"MT":118,"sideResp":2,"stimulus":"img/900/equaldotanddens/L/2_Ratio_900_L_20_R_18.png","xmouse":[788,788,788,788,788,788,788,788,788,788,788,788,788,788,788,788,788,788,788,788,788,788,788,788,788,788,788,788,788,788,788,788,788,788,792,828,854,887,919,957,1048,1086],"ymouse":[538,538,538,538,538,538,538,538,538,538,538,538,538,538,538,538,538,538,538,538,538,538,538,538,538,538,538,538,538,538,538,538,538,538,530,451,387,311,236,164,56,25],"timestamp_mouse":[11,29,50,70,89,109,130,150,171,190,210,231,250,269,290,311,330,350,369,389,410,430,450,470,489,511,531,551,570,590,610,629,650,671,690,711,729,751,771,789,811,829],"xSR":741.5,"ySR":469.95,"xT1":424.9,"yT1":0,"xT2":1058.1,"yT2":0,"toosoon":0,"cond_shown":"equaldotanddens","ratio_trial":900,"smaller_num":"18","larger_num":"20","correct_side":1,"subjID":"juandavidmartinez","gender":"macho.","age":"11","school":"cafaaaaaaaaaam"},{"start_time":1551801461993,"click_time":1551801462779,"finger_time":1551801462700,"fix_duration":1270.9200720520228,"trial":26,"RT":707,"MT":79,"sideResp":2,"stimulus":"img/750/equaldotanddens/R/12_Ratio_750_L_3_R_4.png","xmouse":[781,781,781,781,781,781,781,781,781,781,781,781,781,781,781,781,781,781,781,781,781,781,781,781,781,781,781,781,781,781,781,781,781,781,781,823,859,916,975,1068],"ymouse":[522,522,522,522,522,522,522,522,522,522,522,522,522,522,522,522,522,522,522,522,522,522,522,522,522,522,522,522,522,522,522,522,522,522,498,395,304,205,118,16],"timestamp_mouse":[8,40,45,65,86,106,125,147,166,185,205,225,246,267,286,306,325,346,367,386,406,425,445,466,486,506,525,545,566,586,605,627,646,666,687,707,726,746,765,786],"xSR":741.5,"ySR":469.95,"xT1":424.9,"yT1":0,"xT2":1058.1,"yT2":0,"toosoon":0,"cond_shown":"equaldotanddens","ratio_trial":750,"smaller_num":"3","larger_num":"4","correct_side":2,"subjID":"juandavidmartinez","gender":"macho.","age":"11","school":"cafaaaaaaaaaam"},{"start_time":1551801466572,"click_time":1551801467500,"finger_time":1551801467000,"fix_duration":410.53117723333145,"trial":27,"RT":428,"MT":500,"sideResp":2,"stimulus":"img/900/randomdotsizeEA/L/1_Ratio_900_L_10_R_9.png","xmouse":[748,748,748,748,748,748,748,748,748,748,748,748,748,748,750,766,782,791,801,809,818,838,851,872,890,936,1066,1115,1156,1178,1194,1195,1195,1194,1194,1194,1194,1194,1194,1194,1194,1194,1194,1183,1173,1160,1139],"ymouse":[563,563,563,563,563,563,563,563,563,563,563,563,563,561,556,535,514,502,491,481,470,443,422,392,366,310,187,143,108,85,46,27,10,3,3,3,3,3,3,3,3,3,3,10,26,45,73],"timestamp_mouse":[10,40,46,67,88,107,126,148,167,186,208,228,247,267,286,309,327,347,368,388,407,428,448,466,486,508,527,547,568,587,608,626,648,668,687,708,728,746,767,788,808,827,846,868,888,907,928],"xSR":741.5,"ySR":469.95,"xT1":424.9,"yT1":0,"xT2":1058.1,"yT2":0,"toosoon":0,"cond_shown":"randomdotsizeEA","ratio_trial":900,"smaller_num":"9","larger_num":"10","correct_side":1,"subjID":"juandavidmartinez","gender":"macho.","age":"11","school":"cafaaaaaaaaaam"},{"start_time":1551801471185,"click_time":1551801472120,"finger_time":1551801471880,"fix_duration":1344.202433061804,"trial":28,"RT":695,"MT":240,"sideResp":1,"stimulus":"img/500/randomdotsizeEA/L/13_Ratio_500_L_12_R_6.png","xmouse":[798,798,798,798,798,798,798,798,798,798,798,798,798,798,798,798,798,798,798,798,798,798,798,798,798,798,798,798,798,798,798,798,798,783,715,595,502,435,396,376,375,373,373,373,401,434],"ymouse":[503,503,503,503,503,503,503,503,503,503,503,503,503,503,503,503,503,503,503,503,503,503,503,503,503,503,503,503,503,503,503,503,491,458,374,268,198,142,99,59,51,46,46,45,44,44],"timestamp_mouse":[34,55,74,93,113,135,154,175,195,214,234,254,275,295,314,335,355,374,395,415,433,455,474,495,515,534,555,575,593,615,634,654,674,695,714,734,753,775,794,814,835,853,873,895,914,935],"xSR":741.5,"ySR":469.95,"xT1":424.9,"yT1":0,"xT2":1058.1,"yT2":0,"toosoon":0,"cond_shown":"randomdotsizeEA","ratio_trial":500,"smaller_num":"6","larger_num":"12","correct_side":1,"subjID":"juandavidmartinez","gender":"macho.","age":"11","school":"cafaaaaaaaaaam"},{"start_time":1551801474556,"click_time":1551801475499,"finger_time":1551801475218,"fix_duration":1435.709310712604,"trial":29,"RT":662,"MT":281,"sideResp":2,"stimulus":"img/250/randomdotsizeEA/R/8_Ratio_250_L_1_R_4.png","xmouse":[791,791,791,791,791,791,791,791,791,791,791,791,791,791,791,791,791,791,791,791,791,791,791,791,791,791,791,791,791,791,791,791,792,796,802,808,833,860,883,907,933,982,996,1009,1025,1039,1055,1076],"ymouse":[495,495,495,495,495,495,495,495,495,495,495,495,495,495,495,495,495,495,495,495,495,495,495,495,495,495,495,495,495,495,495,494,476,457,437,417,359,297,253,210,170,100,78,63,46,33,22,6],"timestamp_mouse":[15,23,43,63,82,103,124,143,164,184,203,224,243,263,284,303,324,343,362,383,403,423,444,462,482,502,523,543,563,584,604,622,644,662,683,703,724,743,764,782,803,824,843,863,884,902,922,943],"xSR":741.5,"ySR":469.95,"xT1":424.9,"yT1":0,"xT2":1058.1,"yT2":0,"toosoon":0,"cond_shown":"randomdotsizeEA","ratio_trial":250,"smaller_num":"1","larger_num":"4","correct_side":2,"subjID":"juandavidmartinez","gender":"macho.","age":"11","school":"cafaaaaaaaaaam"},{"start_time":1551801479198,"click_time":1551801480298,"finger_time":1551801479979,"fix_duration":256.98215773044785,"trial":30,"RT":781,"MT":319,"sideResp":1,"stimulus":"img/900/equaldotsize/L/2_Ratio_900_L_20_R_18.png","xmouse":[778,778,778,778,778,775,773,773,772,772,772,772,772,772,772,772,772,772,772,772,772,772,772,772,772,772,772,772,772,772,772,772,772,772,772,766,762,758,752,733,724,713,701,685,664,615,602,590,581,578,576,574,565,548,529,504],"ymouse":[500,500,500,500,500,503,504,506,506,506,506,506,506,506,506,506,506,506,506,506,506,506,506,506,506,506,506,506,506,506,506,506,506,506,506,499,490,481,472,442,428,408,386,352,301,160,118,86,68,60,57,54,50,45,37,30],"timestamp_mouse":[8,32,41,61,81,101,121,141,160,182,200,221,242,262,281,301,320,341,361,382,401,422,442,461,481,502,520,542,560,580,600,621,641,661,682,713,722,741,763,781,802,821,842,862,881,901,921,942,960,981,1002,1021,1041,1062,1081,1100],"xSR":741.5,"ySR":469.95,"xT1":424.9,"yT1":0,"xT2":1058.1,"yT2":0,"toosoon":0,"cond_shown":"equaldotsize","ratio_trial":900,"smaller_num":"18","larger_num":"20","correct_side":1,"subjID":"juandavidmartinez","gender":"macho.","age":"11","school":"cafaaaaaaaaaam"},{"start_time":1551801481785,"click_time":1551801482740,"finger_time":1551801482318,"fix_duration":684.251168593033,"trial":31,"RT":533,"MT":422,"sideResp":2,"stimulus":"img/900/equaldotanddens/R/5_Ratio_900_L_9_R_10.png","xmouse":[779,779,779,779,779,779,779,779,779,779,779,779,779,779,779,779,779,779,779,779,779,779,779,779,782,799,810,824,837,865,878,886,901,919,938,981,995,1007,1017,1025,1039,1044,1049,1053,1058,1065,1068,1071],"ymouse":[504,504,504,504,504,504,504,504,504,504,504,504,504,504,504,504,504,504,504,504,504,504,504,504,500,478,461,441,421,381,359,348,329,309,290,250,238,225,217,210,195,187,177,168,154,127,112,96],"timestamp_mouse":[15,41,54,73,93,113,134,154,174,193,213,235,254,273,294,314,334,354,374,393,415,434,453,475,495,513,533,553,575,595,613,633,654,675,694,714,734,753,774,794,814,835,854,874,893,914,934,955],"xSR":741.5,"ySR":469.95,"xT1":424.9,"yT1":0,"xT2":1058.1,"yT2":0,"toosoon":0,"cond_shown":"equaldotanddens","ratio_trial":900,"smaller_num":"9","larger_num":"10","correct_side":2,"subjID":"juandavidmartinez","gender":"macho.","age":"11","school":"cafaaaaaaaaaam"},{"start_time":1551801484931,"click_time":1551801485998,"finger_time":1551801485600,"fix_duration":250,"trial":32,"RT":669,"MT":398,"sideResp":1,"stimulus":"img/900/randomdotsizeEA/L/8_Ratio_900_L_20_R_18.png","xmouse":[789,789,789,789,789,789,789,789,789,789,789,789,789,789,789,789,789,789,789,789,789,789,789,789,789,789,789,789,789,789,789,788,788,782,778,776,773,771,762,755,744,734,724,708,700,694,688,678,670,662,652,634,574,522],"ymouse":[523,523,523,523,523,523,523,523,523,523,523,523,523,523,523,523,523,523,523,523,523,523,523,523,523,523,523,523,523,523,523,513,502,455,432,416,401,391,357,334,309,285,261,224,204,184,167,137,121,112,105,97,84,77],"timestamp_mouse":[8,31,47,68,88,109,129,147,168,187,207,227,248,268,288,307,328,347,369,387,407,428,448,469,487,507,529,549,567,589,607,629,649,669,688,707,729,748,768,788,807,828,848,868,888,909,928,949,968,989,1007,1028,1049,1067],"xSR":741.5,"ySR":469.95,"xT1":424.9,"yT1":0,"xT2":1058.1,"yT2":0,"toosoon":0,"cond_shown":"randomdotsizeEA","ratio_trial":900,"smaller_num":"18","larger_num":"20","correct_side":1,"subjID":"juandavidmartinez","gender":"macho.","age":"11","school":"cafaaaaaaaaaam"},{"start_time":1551801489329,"click_time":1551801490380,"finger_time":1551801490058,"fix_duration":586.6858914135212,"trial":33,"RT":729,"MT":322,"sideResp":2,"stimulus":"img/250/equaldotanddens/R/12_Ratio_250_L_5_R_20.png","xmouse":[801,801,800,800,800,800,800,800,799,798,798,798,797,796,796,796,796,796,796,796,796,796,796,796,796,796,796,796,796,796,796,796,796,796,803,817,833,849,878,887,895,902,905,908,910,911,915,933,959,988,1021,1057,1091],"ymouse":[493,493,494,494,494,494,494,494,495,497,498,499,499,501,502,502,502,502,502,502,502,502,502,502,502,502,502,502,502,502,502,502,502,503,496,475,449,423,373,356,340,328,321,314,309,304,293,255,207,162,110,61,16],"timestamp_mouse":[13,36,50,70,90,111,131,151,169,190,211,230,249,271,291,309,329,350,371,389,411,430,450,469,491,511,529,551,570,590,611,630,651,670,690,710,729,750,770,791,810,830,850,871,889,910,930,951,969,989,1009,1030,1051],"xSR":741.5,"ySR":469.95,"xT1":424.9,"yT1":0,"xT2":1058.1,"yT2":0,"toosoon":0,"cond_shown":"equaldotanddens","ratio_trial":250,"smaller_num":"5","larger_num":"20","correct_side":2,"subjID":"juandavidmartinez","gender":"macho.","age":"11","school":"cafaaaaaaaaaam"},{"start_time":1551801498924,"click_time":1551801499819,"finger_time":1551801499500,"fix_duration":983.0347085989043,"trial":34,"RT":576,"MT":319,"sideResp":2,"stimulus":"img/900/equaldotanddens/R/14_Ratio_900_L_18_R_20.png","xmouse":[792,792,792,792,792,792,792,792,792,792,792,792,792,792,792,792,792,792,792,792,792,792,792,792,792,794,797,801,815,824,834,849,861,891,900,907,913,921,946,961,980,992,1006,1039,1068],"ymouse":[493,493,493,493,493,493,493,493,493,493,493,493,493,493,493,493,493,493,493,493,493,493,493,493,493,493,491,483,460,446,432,410,388,330,308,285,262,241,196,174,142,113,73,28,1],"timestamp_mouse":[15,44,56,76,97,116,136,157,175,196,216,236,255,275,296,315,336,355,375,395,415,435,456,475,495,516,537,555,576,595,616,635,655,676,696,716,736,757,776,795,816,837,855,875,895],"xSR":741.5,"ySR":469.95,"xT1":424.9,"yT1":0,"xT2":1058.1,"yT2":0,"toosoon":0,"cond_shown":"equaldotanddens","ratio_trial":900,"smaller_num":"18","larger_num":"20","correct_side":2,"subjID":"juandavidmartinez","gender":"macho.","age":"11","school":"cafaaaaaaaaaam"},{"start_time":1551801505114,"click_time":1551801506060,"finger_time":1551801505700,"fix_duration":313.1946192565144,"trial":35,"RT":586,"MT":360,"sideResp":2,"stimulus":"img/500/equaldotanddens/R/15_Ratio_500_L_1_R_2.png","xmouse":[788,788,788,788,788,788,788,788,788,788,788,788,788,788,788,788,788,788,788,788,788,788,788,794,800,807,814,819,830,839,855,874,901,931,992,1018,1018,1018,1018,1018,1018,1018,1018,1018,1018,1018,1054,1062],"ymouse":[558,558,558,558,558,558,558,558,558,558,558,558,558,558,558,558,558,558,558,558,558,558,557,544,534,523,512,502,476,459,410,362,293,220,67,6,6,6,6,6,6,6,6,6,6,6,17,28],"timestamp_mouse":[12,33,46,66,85,105,125,146,165,186,206,227,245,265,286,306,326,346,367,385,407,426,445,466,486,506,525,545,567,586,606,627,645,666,685,705,726,746,767,786,805,825,846,867,887,906,926,946],"xSR":741.5,"ySR":469.95,"xT1":424.9,"yT1":0,"xT2":1058.1,"yT2":0,"toosoon":0,"cond_shown":"equaldotanddens","ratio_trial":500,"smaller_num":"1","larger_num":"2","correct_side":2,"subjID":"juandavidmartinez","gender":"macho.","age":"11","school":"cafaaaaaaaaaam"},{"start_time":1551801508229,"click_time":1551801509100,"finger_time":1551801508641,"fix_duration":868.7331725080734,"trial":36,"RT":412,"MT":459,"sideResp":2,"stimulus":"img/900/randomdotsizeEA/L/2_Ratio_900_L_20_R_18.png","xmouse":[809,809,809,809,809,809,809,809,809,809,809,809,809,809,809,809,809,809,810,823,845,858,871,888,903,914,923,945,959,977,995,1009,1024,1033,1034,1037,1039,1039,1045,1050,1054,1057,1058,1060],"ymouse":[520,520,520,520,520,520,520,520,520,520,520,520,520,520,520,520,520,520,520,497,462,436,393,356,330,308,287,245,217,188,158,136,112,99,97,93,92,92,90,88,87,86,85,84],"timestamp_mouse":[14,38,51,71,91,111,130,152,170,190,211,232,250,271,291,311,331,351,372,390,412,431,451,470,491,510,531,552,571,590,611,631,650,671,692,712,730,750,770,791,811,830,851,871],"xSR":741.5,"ySR":469.95,"xT1":424.9,"yT1":0,"xT2":1058.1,"yT2":0,"toosoon":0,"cond_shown":"randomdotsizeEA","ratio_trial":900,"smaller_num":"18","larger_num":"20","correct_side":1,"subjID":"juandavidmartinez","gender":"macho.","age":"11","school":"cafaaaaaaaaaam"},{"start_time":1551801512508,"click_time":1551801513520,"finger_time":1551801513159,"fix_duration":808.5061596694314,"trial":37,"RT":651,"MT":361,"sideResp":2,"stimulus":"img/250/equaldotsize/R/12_Ratio_250_L_5_R_20.png","xmouse":[818,818,818,818,818,818,818,818,818,818,817,812,809,802,800,799,799,799,799,799,799,799,799,799,799,799,799,799,799,799,802,814,832,856,914,940,957,970,980,988,990,991,993,998,1005,1010,1017,1026,1043,1055,1063],"ymouse":[509,509,509,509,509,509,509,509,509,509,510,512,514,518,519,519,519,519,519,519,519,519,519,519,519,519,519,519,519,519,505,484,458,422,335,293,263,247,234,215,210,203,193,177,152,138,121,104,67,46,34],"timestamp_mouse":[12,37,52,71,91,111,131,151,171,191,212,232,251,273,291,311,333,351,371,393,413,431,451,471,492,511,531,552,571,591,612,631,651,671,691,711,731,751,771,791,812,832,851,872,891,912,931,951,973,991,1011],"xSR":741.5,"ySR":469.95,"xT1":424.9,"yT1":0,"xT2":1058.1,"yT2":0,"toosoon":0,"cond_shown":"equaldotsize","ratio_trial":250,"smaller_num":"5","larger_num":"20","correct_side":2,"subjID":"juandavidmartinez","gender":"macho.","age":"11","school":"cafaaaaaaaaaam"},{"start_time":1551801517125,"click_time":1551801518200,"finger_time":1551801517800,"fix_duration":1104.4386939032454,"trial":38,"RT":675,"MT":400,"sideResp":2,"stimulus":"img/500/equaldotanddens/R/3_Ratio_500_L_10_R_20.png","xmouse":[787,789,794,795,795,795,795,795,795,795,795,795,795,795,795,795,795,795,795,795,795,795,795,795,795,795,795,795,796,799,806,814,830,865,878,885,888,889,899,906,913,917,921,924,926,931,938,942,965,977,989,1005,1019,1060],"ymouse":[498,498,500,501,502,502,502,502,502,502,502,502,502,502,502,502,502,502,502,502,502,502,502,502,502,502,502,502,503,503,499,489,473,443,429,411,398,381,328,305,283,265,249,225,214,202,190,182,157,145,134,122,110,81],"timestamp_mouse":[14,40,55,75,94,114,134,155,174,196,214,235,254,275,295,315,334,355,375,395,414,434,454,476,494,514,534,554,575,595,615,635,654,675,695,714,734,755,775,795,814,834,854,875,894,915,934,954,974,994,1014,1035,1054,1075],"xSR":741.5,"ySR":469.95,"xT1":424.9,"yT1":0,"xT2":1058.1,"yT2":0,"toosoon":0,"cond_shown":"equaldotanddens","ratio_trial":500,"smaller_num":"10","larger_num":"20","correct_side":2,"subjID":"juandavidmartinez","gender":"macho.","age":"11","school":"cafaaaaaaaaaam"},{"start_time":1551801520092,"click_time":1551801521119,"finger_time":1551801520800,"fix_duration":471.79914563227476,"trial":39,"RT":708,"MT":319,"sideResp":1,"stimulus":"img/900/randomdotsizeEA/R/14_Ratio_900_L_18_R_20.png","xmouse":[816,816,816,816,816,816,816,816,816,816,816,816,816,816,816,816,816,816,816,816,816,816,816,816,816,816,816,816,816,816,814,813,813,813,813,812,811,809,807,801,782,763,747,729,714,676,658,639,621,591,530,501],"ymouse":[514,514,514,514,514,514,514,514,514,514,514,514,514,514,514,514,514,514,514,514,514,514,514,514,514,514,514,514,513,512,503,497,490,480,472,452,445,437,426,409,373,341,317,290,270,226,203,179,159,123,45,3],"timestamp_mouse":[8,38,49,67,87,109,128,147,168,187,207,228,248,267,288,307,327,347,367,387,408,428,448,468,487,508,527,548,569,587,608,629,648,668,687,708,728,749,768,788,807,829,849,867,887,907,927,949,968,987,1007,1027],"xSR":741.5,"ySR":469.95,"xT1":424.9,"yT1":0,"xT2":1058.1,"yT2":0,"toosoon":0,"cond_shown":"randomdotsizeEA","ratio_trial":900,"smaller_num":"18","larger_num":"20","correct_side":2,"subjID":"juandavidmartinez","gender":"macho.","age":"11","school":"cafaaaaaaaaaam"},{"start_time":1551801526285,"click_time":1551801527020,"finger_time":1551801526741,"fix_duration":944.5689453397891,"trial":40,"RT":456,"MT":279,"sideResp":2,"stimulus":"img/250/equaldotsize/R/11_Ratio_250_L_3_R_12.png","xmouse":[819,819,819,819,819,819,819,819,819,819,819,819,819,819,819,819,819,819,820,821,831,841,856,880,949,984,1007,1021,1031,1038,1044,1049,1053,1060,1086,1100,1116],"ymouse":[529,529,530,531,531,531,531,531,531,531,531,531,531,531,531,531,531,531,531,531,522,512,498,476,411,382,356,337,322,307,282,259,237,210,141,104,75],"timestamp_mouse":[14,34,55,74,95,114,135,155,175,195,215,234,255,275,295,315,334,355,374,395,416,435,456,474,495,514,535,556,575,595,614,636,654,674,695,714,735],"xSR":741.5,"ySR":469.95,"xT1":424.9,"yT1":0,"xT2":1058.1,"yT2":0,"toosoon":0,"cond_shown":"equaldotsize","ratio_trial":250,"smaller_num":"3","larger_num":"12","correct_side":2,"subjID":"juandavidmartinez","gender":"macho.","age":"11","school":"cafaaaaaaaaaam"},{"start_time":1551801529431,"click_time":1551801531040,"finger_time":1551801529921,"fix_duration":1290.5126620707642,"trial":41,"RT":490,"MT":1119,"sideResp":2,"stimulus":"img/750/equaldotanddens/R/12_Ratio_750_L_3_R_4.png","xmouse":[791,788,788,786,786,782,779,773,761,757,755,754,754,754,754,754,754,754,754,754,754,753,758,783,797,811,822,832,840,844,847,851,857,878,892,909,920,928,938,942,948,957,973,984,989,990,990,990,990,990,991,992,994,1009,1014,1018,1022,1028,1044,1050,1055,1057,1057,1057,1057,1060,1064,1067,1070,1070,1070,1070,1070,1070,1070,1070,1070,1073,1075,1079,1083],"ymouse":[498,499,499,500,500,502,504,507,511,512,512,512,512,512,512,512,512,512,512,512,512,510,502,471,452,434,415,398,362,345,324,300,276,213,187,161,142,128,112,108,105,103,95,88,85,84,84,84,84,84,84,83,83,83,83,84,86,90,97,98,100,100,100,100,100,100,100,100,100,100,100,100,100,100,100,100,100,100,100,100,99],"timestamp_mouse":[11,33,49,69,89,108,129,148,168,188,210,228,249,269,288,309,329,348,368,389,409,428,448,468,490,508,528,548,569,589,609,628,648,668,690,715,728,748,768,788,809,828,849,868,889,908,928,948,969,989,1009,1028,1048,1069,1088,1109,1129,1149,1168,1189,1209,1228,1249,1270,1289,1308,1331,1348,1369,1388,1409,1428,1448,1470,1489,1509,1529,1549,1568,1588,1609],"xSR":741.5,"ySR":469.95,"xT1":424.9,"yT1":0,"xT2":1058.1,"yT2":0,"toosoon":0,"cond_shown":"equaldotanddens","ratio_trial":750,"smaller_num":"3","larger_num":"4","correct_side":2,"subjID":"juandavidmartinez","gender":"macho.","age":"11","school":"cafaaaaaaaaaam"},{"start_time":1551801537516,"click_time":1551801538620,"finger_time":1551801538399,"fix_duration":275.1828567199178,"trial":42,"RT":883,"MT":221,"sideResp":2,"stimulus":"img/750/equaldotanddens/R/4_Ratio_750_L_15_R_20.png","xmouse":[818,818,818,818,818,818,818,818,818,818,818,818,818,818,818,818,817,816,816,816,816,816,816,816,816,816,816,816,816,816,816,816,816,816,816,816,816,816,816,816,816,816,818,831,846,879,913,944,969,1013,1023,1032,1041,1046,1056,1060],"ymouse":[554,554,554,554,554,554,554,554,554,554,554,554,554,554,554,554,553,551,550,550,549,549,549,548,548,548,546,545,545,545,544,544,544,544,544,544,544,544,544,544,544,542,535,509,484,445,408,377,346,259,218,190,169,149,110,91],"timestamp_mouse":[8,33,43,64,84,104,123,144,163,183,203,223,244,263,284,303,324,344,364,385,403,424,443,463,483,503,523,544,563,583,603,625,644,663,683,704,723,743,764,783,803,824,844,865,883,904,925,943,963,983,1003,1023,1044,1064,1084,1104],"xSR":741.5,"ySR":469.95,"xT1":424.9,"yT1":0,"xT2":1058.1,"yT2":0,"toosoon":0,"cond_shown":"equaldotanddens","ratio_trial":750,"smaller_num":"15","larger_num":"20","correct_side":2,"subjID":"juandavidmartinez","gender":"macho.","age":"11","school":"cafaaaaaaaaaam"},{"start_time":1551801541173,"click_time":1551801542120,"finger_time":1551801541839,"fix_duration":1492.682610862297,"trial":43,"RT":666,"MT":281,"sideResp":2,"stimulus":"img/750/equaldotanddens/R/15_Ratio_750_L_9_R_12.png","xmouse":[805,805,805,805,805,805,805,805,805,805,805,805,805,805,805,805,805,805,805,805,808,813,816,817,817,818,818,818,818,818,818,818,820,825,832,867,891,913,921,929,950,961,975,994,1021,1054,1070,1076],"ymouse":[527,527,527,527,527,527,527,527,527,527,527,527,527,527,527,527,527,527,526,523,516,503,497,493,492,492,492,492,492,492,492,485,474,460,439,368,329,292,278,263,235,220,204,182,157,124,101,89],"timestamp_mouse":[19,39,47,67,86,108,127,147,166,187,206,226,248,268,286,306,327,346,366,386,406,427,446,468,486,507,526,546,567,588,606,627,646,666,687,708,726,747,766,787,807,826,846,866,886,908,926,947],"xSR":741.5,"ySR":469.95,"xT1":424.9,"yT1":0,"xT2":1058.1,"yT2":0,"toosoon":0,"cond_shown":"equaldotanddens","ratio_trial":750,"smaller_num":"9","larger_num":"12","correct_side":2,"subjID":"juandavidmartinez","gender":"macho.","age":"11","school":"cafaaaaaaaaaam"},{"start_time":1551801543934,"click_time":1551801545200,"finger_time":1551801544640,"fix_duration":732.8616994072862,"trial":44,"RT":706,"MT":560,"sideResp":1,"stimulus":"img/750/equaldotanddens/L/10_Ratio_750_L_4_R_3.png","xmouse":[754,754,754,754,754,754,754,754,754,754,754,754,754,754,754,754,754,754,754,754,754,754,754,754,754,754,754,754,754,754,754,754,754,753,750,744,735,723,689,656,637,615,596,555,534,512,491,456,446,444,444,444,444,444,444,444,444,444,444,444,444,444,444,451],"ymouse":[519,519,519,519,519,519,519,519,519,519,519,519,519,519,519,519,519,519,519,519,519,519,519,519,519,519,519,519,519,519,519,519,510,491,475,459,437,412,331,273,239,206,183,151,141,133,125,108,103,101,101,101,101,101,101,101,101,101,101,101,101,101,101,98],"timestamp_mouse":[9,34,47,65,85,107,125,145,167,185,207,226,246,266,285,307,325,345,367,385,406,425,447,466,486,506,526,547,565,586,606,627,646,665,685,706,727,746,765,785,806,825,846,866,886,905,926,946,965,986,1005,1026,1046,1066,1085,1105,1126,1147,1165,1185,1206,1226,1246,1266],"xSR":741.5,"ySR":469.95,"xT1":424.9,"yT1":0,"xT2":1058.1,"yT2":0,"toosoon":0,"cond_shown":"equaldotanddens","ratio_trial":750,"smaller_num":"3","larger_num":"4","correct_side":1,"subjID":"juandavidmartinez","gender":"macho.","age":"11","school":"cafaaaaaaaaaam"},{"start_time":1551801548246,"click_time":1551801549139,"finger_time":1551801548900,"fix_duration":725.4788114457692,"trial":45,"RT":654,"MT":239,"sideResp":2,"stimulus":"img/500/equaldotanddens/R/15_Ratio_500_L_1_R_2.png","xmouse":[792,792,792,793,795,795,795,795,795,795,795,795,795,795,795,795,795,795,795,795,795,795,795,795,795,795,795,795,795,797,799,802,821,835,853,871,895,946,972,995,1015,1043,1081,1090,1094],"ymouse":[514,514,514,514,514,514,514,514,514,514,514,514,514,514,514,514,514,514,514,514,514,514,514,514,514,514,514,514,514,514,513,500,447,425,393,368,342,286,261,234,210,177,121,102,89],"timestamp_mouse":[21,37,53,73,94,115,133,154,174,194,213,234,253,273,293,313,335,354,373,395,413,434,454,473,493,513,535,555,573,594,614,633,654,674,693,714,733,753,774,795,814,834,853,874,893],"xSR":741.5,"ySR":469.95,"xT1":424.9,"yT1":0,"xT2":1058.1,"yT2":0,"toosoon":0,"cond_shown":"equaldotanddens","ratio_trial":500,"smaller_num":"1","larger_num":"2","correct_side":2,"subjID":"juandavidmartinez","gender":"macho.","age":"11","school":"cafaaaaaaaaaam"},{"start_time":1551801551285,"click_time":1551801552240,"finger_time":1551801551919,"fix_duration":1202.589178795183,"trial":46,"RT":634,"MT":321,"sideResp":1,"stimulus":"img/250/randomdotsizeEA/L/5_Ratio_250_L_24_R_6.png","xmouse":[827,827,826,822,814,791,789,789,789,789,789,789,789,789,789,789,789,789,789,789,789,789,789,789,789,789,789,789,789,789,786,782,775,761,737,728,717,709,699,685,642,628,615,602,591,551,525,500],"ymouse":[517,517,517,517,518,520,520,520,520,520,520,520,520,520,520,520,520,520,520,520,520,520,520,520,520,520,520,517,515,509,482,464,441,409,352,324,291,260,226,189,116,98,86,80,77,77,77,77],"timestamp_mouse":[15,34,54,75,95,115,136,154,175,194,214,234,255,275,296,315,334,356,375,394,415,435,455,475,496,514,536,556,574,595,616,634,654,674,695,714,735,754,775,795,814,834,855,875,894,915,934,955],"xSR":741.5,"ySR":469.95,"xT1":424.9,"yT1":0,"xT2":1058.1,"yT2":0,"toosoon":0,"cond_shown":"randomdotsizeEA","ratio_trial":250,"smaller_num":"6","larger_num":"24","correct_side":1,"subjID":"juandavidmartinez","gender":"macho.","age":"11","school":"cafaaaaaaaaaam"},{"start_time":1551801554528,"click_time":1551801555619,"finger_time":1551801555159,"fix_duration":1407.6172608220288,"trial":47,"RT":631,"MT":460,"sideResp":2,"stimulus":"img/750/randomdotsizeEA/L/9_Ratio_750_L_4_R_3.png","xmouse":[788,788,788,788,788,788,788,788,788,788,788,788,788,788,788,788,788,788,788,788,788,788,788,788,788,788,789,789,790,791,791,791,794,797,800,804,810,819,855,876,897,922,959,975,990,1000,1010,1016,1033,1039,1042,1045,1049,1057,1060],"ymouse":[524,524,524,524,524,524,524,524,524,524,524,524,524,524,524,524,521,519,516,514,513,512,511,510,510,509,508,505,496,489,480,468,430,411,391,370,346,314,218,185,155,128,91,78,67,58,48,40,18,13,11,9,7,7,7],"timestamp_mouse":[11,37,51,72,91,111,132,152,172,192,212,231,252,271,293,313,331,352,373,391,412,432,453,472,492,512,531,552,573,592,612,631,653,671,691,712,733,751,771,791,812,833,852,871,892,912,932,952,972,991,1011,1031,1052,1072,1091],"xSR":741.5,"ySR":469.95,"xT1":424.9,"yT1":0,"xT2":1058.1,"yT2":0,"toosoon":0,"cond_shown":"randomdotsizeEA","ratio_trial":750,"smaller_num":"3","larger_num":"4","correct_side":1,"subjID":"juandavidmartinez","gender":"macho.","age":"11","school":"cafaaaaaaaaaam"},{"start_time":1551801557025,"click_time":1551801557940,"finger_time":1551801557600,"fix_duration":263.7924067759021,"trial":48,"RT":575,"MT":340,"sideResp":1,"stimulus":"img/500/randomdotsizeEA/R/2_Ratio_500_L_3_R_6.png","xmouse":[791,791,791,791,791,791,791,791,791,791,791,791,791,791,791,791,791,791,791,791,791,791,791,791,791,791,791,789,770,753,732,708,661,643,624,614,608,603,597,594,591,583,566,549,533,517],"ymouse":[486,487,487,487,487,487,487,487,487,487,487,487,487,487,487,487,487,487,487,487,487,487,487,487,487,486,482,475,429,390,344,297,228,205,177,161,149,138,127,124,121,117,111,106,102,98],"timestamp_mouse":[16,39,55,75,95,114,135,154,174,195,215,234,255,275,294,316,335,354,375,395,415,435,454,475,494,516,535,554,575,595,614,634,656,674,695,716,734,754,774,795,814,834,855,874,896,915],"xSR":741.5,"ySR":469.95,"xT1":424.9,"yT1":0,"xT2":1058.1,"yT2":0,"toosoon":0,"cond_shown":"randomdotsizeEA","ratio_trial":500,"smaller_num":"3","larger_num":"6","correct_side":2,"subjID":"juandavidmartinez","gender":"macho.","age":"11","school":"cafaaaaaaaaaam"},{"start_time":1551801560082,"click_time":1551801560999,"finger_time":1551801560680,"fix_duration":1181.821897076589,"trial":49,"RT":598,"MT":319,"sideResp":1,"stimulus":"img/250/equaldotanddens/L/15_Ratio_250_L_12_R_3.png","xmouse":[777,777,777,777,777,777,777,777,777,777,777,777,777,777,777,776,778,780,782,785,786,787,788,788,789,790,790,790,787,773,752,737,718,700,674,668,664,658,654,639,617,597,576,555,533,496],"ymouse":[527,527,527,527,527,527,527,527,527,527,527,527,527,527,527,527,524,521,518,513,511,509,507,506,504,502,501,498,492,461,416,359,303,243,136,105,81,62,51,34,28,26,24,24,24,26],"timestamp_mouse":[17,38,57,77,97,118,139,158,178,199,218,237,257,279,297,317,338,359,377,399,417,438,458,477,497,518,538,557,577,598,617,638,657,678,698,718,738,757,778,799,817,838,857,877,898,917],"xSR":741.5,"ySR":469.95,"xT1":424.9,"yT1":0,"xT2":1058.1,"yT2":0,"toosoon":0,"cond_shown":"equaldotanddens","ratio_trial":250,"smaller_num":"3","larger_num":"12","correct_side":1,"subjID":"juandavidmartinez","gender":"macho.","age":"11","school":"cafaaaaaaaaaam"},{"start_time":1551801563232,"click_time":1551801564379,"finger_time":1551801563959,"fix_duration":750.6609666177226,"trial":50,"RT":727,"MT":420,"sideResp":2,"stimulus":"img/750/randomdotsizeEA/R/5_Ratio_750_L_15_R_20.png","xmouse":[797,797,797,797,797,797,797,797,797,797,797,797,797,797,797,797,797,797,797,797,797,797,797,797,797,797,797,797,797,797,797,797,798,802,809,819,831,848,880,894,914,934,950,977,986,990,994,1023,1047,1047,1047,1047,1047,1047,1047,1047,1047,1106],"ymouse":[513,513,513,513,513,513,513,513,513,513,513,513,513,513,513,513,513,513,513,513,513,513,513,513,513,513,513,513,513,513,513,513,513,506,493,471,442,406,328,274,228,180,144,104,92,82,71,25,2,2,2,2,2,2,2,2,2,1],"timestamp_mouse":[23,41,48,67,87,108,127,149,167,187,208,227,248,269,287,308,327,348,367,387,408,427,448,467,488,508,527,547,567,587,608,627,647,667,688,707,727,747,768,788,807,827,847,867,888,907,929,949,968,987,1007,1027,1048,1067,1087,1107,1127,1147],"xSR":741.5,"ySR":469.95,"xT1":424.9,"yT1":0,"xT2":1058.1,"yT2":0,"toosoon":0,"cond_shown":"randomdotsizeEA","ratio_trial":750,"smaller_num":"15","larger_num":"20","correct_side":2,"subjID":"juandavidmartinez","gender":"macho.","age":"11","school":"cafaaaaaaaaaam"},{"start_time":1551801569650,"click_time":1551801570540,"finger_time":1551801570121,"fix_duration":269.9917519001874,"trial":51,"RT":471,"MT":419,"sideResp":2,"stimulus":"img/900/equaldotsize/R/12_Ratio_900_L_18_R_20.png","xmouse":[763,763,763,763,763,763,763,763,763,763,763,764,764,764,764,764,764,764,764,764,764,764,767,772,783,796,815,861,885,907,931,984,997,997,997,997,997,997,997,997,997,997,997,997,1123],"ymouse":[486,486,486,486,486,486,486,486,486,486,488,488,488,489,489,489,489,489,489,489,489,489,471,452,427,400,354,246,197,150,106,24,5,5,5,5,5,5,5,5,5,5,5,5,3],"timestamp_mouse":[10,29,49,70,89,109,131,149,170,189,209,231,249,270,289,309,330,350,371,390,410,429,449,471,489,509,529,549,570,590,611,631,649,669,690,709,730,749,769,791,810,830,849,870,890],"xSR":741.5,"ySR":469.95,"xT1":424.9,"yT1":0,"xT2":1058.1,"yT2":0,"toosoon":0,"cond_shown":"equaldotsize","ratio_trial":900,"smaller_num":"18","larger_num":"20","correct_side":2,"subjID":"juandavidmartinez","gender":"macho.","age":"11","school":"cafaaaaaaaaaam"},{"start_time":1551801573139,"click_time":1551801573881,"finger_time":1551801573740,"fix_duration":338.11677336412805,"trial":52,"RT":601,"MT":141,"sideResp":1,"stimulus":"img/750/equaldotsize/L/10_Ratio_750_L_4_R_3.png","xmouse":[756,756,756,756,756,756,756,756,756,756,756,756,756,756,756,756,756,756,756,756,756,756,756,756,756,756,756,756,757,747,736,714,641,599,561,527,503,478],"ymouse":[532,532,532,532,532,532,532,532,532,532,532,532,532,532,532,532,532,532,532,532,532,532,532,532,532,532,532,532,527,505,480,440,327,270,210,163,130,88],"timestamp_mouse":[8,20,41,60,81,100,120,142,161,180,201,220,241,260,282,301,321,340,360,380,401,422,440,462,481,501,520,540,560,580,601,622,642,661,680,700,720,741],"xSR":741.5,"ySR":469.95,"xT1":424.9,"yT1":0,"xT2":1058.1,"yT2":0,"toosoon":0,"cond_shown":"equaldotsize","ratio_trial":750,"smaller_num":"3","larger_num":"4","correct_side":1,"subjID":"juandavidmartinez","gender":"macho.","age":"11","school":"cafaaaaaaaaaam"},{"start_time":1551801578519,"click_time":1551801579520,"finger_time":1551801579160,"fix_duration":459.6718039239064,"trial":53,"RT":641,"MT":360,"sideResp":1,"stimulus":"img/250/equaldotanddens/L/7_Ratio_250_L_8_R_2.png","xmouse":[781,781,781,781,781,781,781,781,781,781,781,781,781,781,781,781,781,781,781,781,781,781,781,781,781,781,781,781,781,781,781,781,768,754,719,702,685,671,647,632,623,615,605,593,572,557,545,531,516,484,474],"ymouse":[495,495,495,495,495,495,495,495,495,495,495,495,495,495,495,495,495,495,495,495,495,495,495,495,495,495,495,495,495,495,495,489,467,444,396,374,354,339,316,306,300,296,289,282,264,246,226,204,177,116,94],"timestamp_mouse":[12,24,40,60,80,100,120,140,160,181,201,221,240,260,281,300,320,340,360,380,400,421,440,462,480,502,520,540,561,580,602,620,641,661,680,702,720,740,761,781,801,822,841,860,881,900,922,941,961,980,1001],"xSR":741.5,"ySR":469.95,"xT1":424.9,"yT1":0,"xT2":1058.1,"yT2":0,"toosoon":0,"cond_shown":"equaldotanddens","ratio_trial":250,"smaller_num":"2","larger_num":"8","correct_side":1,"subjID":"juandavidmartinez","gender":"macho.","age":"11","school":"cafaaaaaaaaaam"},{"start_time":1551801582370,"click_time":1551801583241,"finger_time":1551801582919,"fix_duration":789.6579893775175,"trial":54,"RT":549,"MT":322,"sideResp":1,"stimulus":"img/900/randomdotsizeEA/R/11_Ratio_900_L_18_R_20.png","xmouse":[804,804,804,804,804,804,804,804,804,804,804,804,804,804,804,804,804,804,804,804,804,804,804,804,803,803,797,785,771,758,731,716,694,664,632,603,577,574,573,573,572,554,533,503],"ymouse":[507,507,507,507,507,507,507,507,507,507,507,507,507,507,507,507,507,507,507,507,507,507,507,499,495,491,482,468,454,442,405,378,341,295,249,207,151,142,140,138,137,124,111,94],"timestamp_mouse":[10,46,50,69,89,111,129,149,169,189,209,229,250,269,289,310,329,349,369,391,409,429,449,470,490,509,529,549,570,590,611,629,649,670,690,710,730,749,769,790,809,829,849,871],"xSR":741.5,"ySR":469.95,"xT1":424.9,"yT1":0,"xT2":1058.1,"yT2":0,"toosoon":0,"cond_shown":"randomdotsizeEA","ratio_trial":900,"smaller_num":"18","larger_num":"20","correct_side":2,"subjID":"juandavidmartinez","gender":"macho.","age":"11","school":"cafaaaaaaaaaam"},{"start_time":1551801584615,"click_time":1551801585400,"finger_time":1551801584981,"fix_duration":432.85927274833614,"trial":55,"RT":366,"MT":419,"sideResp":2,"stimulus":"img/500/equaldotsize/L/7_Ratio_500_L_10_R_5.png","xmouse":[805,805,805,805,805,805,805,805,805,805,805,805,805,805,809,815,827,838,879,908,937,961,983,1001,1013,1017,1020,1020,1020,1020,1021,1026,1029,1038,1045,1047,1049,1051,1054,1061],"ymouse":[551,551,551,551,551,551,551,551,551,551,551,551,551,551,545,535,521,506,459,420,379,334,297,252,209,195,183,176,171,161,153,144,136,119,109,105,103,99,97,91],"timestamp_mouse":[10,31,45,66,84,105,125,145,166,184,204,225,244,266,285,304,325,344,366,385,405,424,444,464,485,505,525,545,564,584,604,625,644,666,684,705,725,744,764,785],"xSR":741.5,"ySR":469.95,"xT1":424.9,"yT1":0,"xT2":1058.1,"yT2":0,"toosoon":0,"cond_shown":"equaldotsize","ratio_trial":500,"smaller_num":"5","larger_num":"10","correct_side":1,"subjID":"juandavidmartinez","gender":"macho.","age":"11","school":"cafaaaaaaaaaam"},{"start_time":1551801586666,"click_time":1551801587580,"finger_time":1551801587159,"fix_duration":405.75645082451814,"trial":56,"RT":493,"MT":421,"sideResp":2,"stimulus":"img/500/randomdotsizeEA/R/3_Ratio_500_L_10_R_20.png","xmouse":[809,809,809,809,809,809,809,809,809,809,809,809,809,809,809,809,809,809,809,809,809,808,808,808,814,825,873,909,944,987,1019,1044,1044,1044,1044,1044,1044,1044,1044,1044,1044,1044,1044,1044,1044,1093],"ymouse":[525,525,525,525,525,525,525,525,525,525,525,525,525,525,525,525,525,525,524,516,496,485,479,470,456,434,348,282,206,129,63,4,4,4,4,4,4,4,4,4,4,4,4,4,4,13],"timestamp_mouse":[14,35,53,73,93,113,135,154,173,194,213,233,253,273,295,315,333,354,374,393,414,433,453,474,493,513,533,553,575,595,614,633,654,674,694,714,733,754,773,793,813,834,853,875,894,914],"xSR":741.5,"ySR":469.95,"xT1":424.9,"yT1":0,"xT2":1058.1,"yT2":0,"toosoon":0,"cond_shown":"randomdotsizeEA","ratio_trial":500,"smaller_num":"10","larger_num":"20","correct_side":2,"subjID":"juandavidmartinez","gender":"macho.","age":"11","school":"cafaaaaaaaaaam"},{"start_time":1551801590952,"click_time":1551801591840,"finger_time":1551801591501,"fix_duration":890.1669179780797,"trial":57,"RT":549,"MT":339,"sideResp":2,"stimulus":"img/500/equaldotsize/R/3_Ratio_500_L_10_R_20.png","xmouse":[809,806,800,798,797,797,797,797,797,797,797,797,797,797,797,797,797,797,797,797,797,797,797,797,799,803,817,833,850,876,910,938,992,1008,1019,1024,1026,1026,1028,1035,1046,1068,1075,1080,1086],"ymouse":[527,526,515,512,512,512,512,512,512,512,512,512,512,512,512,512,512,512,512,512,512,512,511,507,505,500,485,465,443,406,357,325,258,233,218,208,205,202,195,183,167,138,126,112,92],"timestamp_mouse":[10,32,48,69,88,107,128,147,168,188,208,228,249,268,287,307,329,347,368,389,408,429,448,468,489,508,528,549,567,587,607,627,647,667,687,707,729,747,767,788,809,829,847,867,887],"xSR":741.5,"ySR":469.95,"xT1":424.9,"yT1":0,"xT2":1058.1,"yT2":0,"toosoon":0,"cond_shown":"equaldotsize","ratio_trial":500,"smaller_num":"10","larger_num":"20","correct_side":2,"subjID":"juandavidmartinez","gender":"macho.","age":"11","school":"cafaaaaaaaaaam"},{"start_time":1551801593011,"click_time":1551801594000,"finger_time":1551801593679,"fix_duration":250,"trial":58,"RT":668,"MT":321,"sideResp":2,"stimulus":"img/500/randomdotsizeEA/L/4_Ratio_500_L_18_R_9.png","xmouse":[778,778,778,778,778,778,778,778,781,781,781,781,781,781,781,781,783,783,783,783,783,783,783,783,783,783,783,783,783,788,794,803,815,832,866,887,907,927,961,974,982,988,994,1003,1006,1011,1021,1032,1045,1068],"ymouse":[542,542,542,542,542,542,542,544,547,547,547,547,547,547,547,547,547,547,547,547,547,547,547,547,547,547,547,547,547,537,524,507,485,453,391,356,328,301,261,246,233,220,207,175,151,137,127,117,108,92],"timestamp_mouse":[9,37,49,68,88,108,128,149,170,188,208,229,248,270,290,308,329,348,369,390,409,428,448,468,489,509,528,549,568,589,608,629,649,668,688,709,728,748,769,788,809,830,848,869,888,909,930,948,969,989],"xSR":741.5,"ySR":469.95,"xT1":424.9,"yT1":0,"xT2":1058.1,"yT2":0,"toosoon":0,"cond_shown":"randomdotsizeEA","ratio_trial":500,"smaller_num":"9","larger_num":"18","correct_side":1,"subjID":"juandavidmartinez","gender":"macho.","age":"11","school":"cafaaaaaaaaaam"},{"start_time":1551801596651,"click_time":1551801597281,"finger_time":1551801597179,"fix_duration":250,"trial":59,"RT":528,"MT":102,"sideResp":1,"stimulus":"img/500/equaldotsize/L/5_Ratio_500_L_4_R_2.png","xmouse":[768,768,768,768,768,768,768,768,768,768,768,768,768,768,768,768,768,768,768,768,768,768,768,768,766,753,727,664,626,589,551,472],"ymouse":[523,523,523,523,523,523,523,523,523,523,523,523,523,523,523,523,523,523,523,523,523,523,523,523,508,483,437,323,257,195,129,5],"timestamp_mouse":[8,32,49,68,88,108,128,148,168,188,208,228,248,268,288,309,330,350,369,390,410,429,449,469,488,508,528,549,569,589,608,630],"xSR":741.5,"ySR":469.95,"xT1":424.9,"yT1":0,"xT2":1058.1,"yT2":0,"toosoon":0,"cond_shown":"equaldotsize","ratio_trial":500,"smaller_num":"2","larger_num":"4","correct_side":1,"subjID":"juandavidmartinez","gender":"macho.","age":"11","school":"cafaaaaaaaaaam"},{"start_time":1551801599195,"click_time":1551801600080,"finger_time":1551801599781,"fix_duration":595.9673653418151,"trial":60,"RT":586,"MT":299,"sideResp":1,"stimulus":"img/250/randomdotsizeEA/L/5_Ratio_250_L_24_R_6.png","xmouse":[787,787,787,787,787,787,787,787,787,787,787,787,787,787,787,787,787,793,795,801,802,803,803,803,804,804,806,808,809,825,835,851,872,884,893,899,897,887,871,839,733,659,592,533,494],"ymouse":[503,503,503,503,503,503,503,503,503,503,503,503,503,503,503,503,503,497,495,486,485,484,484,484,483,482,480,476,472,445,427,401,370,349,331,299,289,276,261,241,194,171,142,117,97],"timestamp_mouse":[10,34,44,66,85,104,125,144,165,186,205,224,246,264,284,304,325,344,365,385,405,425,444,466,485,504,525,544,565,586,605,625,645,665,685,705,725,744,765,784,805,824,844,864,885],"xSR":741.5,"ySR":469.95,"xT1":424.9,"yT1":0,"xT2":1058.1,"yT2":0,"toosoon":0,"cond_shown":"randomdotsizeEA","ratio_trial":250,"smaller_num":"6","larger_num":"24","correct_side":1,"subjID":"juandavidmartinez","gender":"macho.","age":"11","school":"cafaaaaaaaaaam"},{"start_time":1551801603124,"click_time":1551801604059,"finger_time":1551801603700,"fix_duration":403.672224294345,"trial":61,"RT":576,"MT":359,"sideResp":2,"stimulus":"img/900/equaldotanddens/L/10_Ratio_900_L_20_R_18.png","xmouse":[779,779,779,779,779,779,779,779,779,779,779,780,780,780,780,780,780,780,780,781,783,785,790,793,796,798,802,820,832,841,855,873,891,929,944,957,968,986,990,991,995,1003,1035,1052,1068,1082,1090],"ymouse":[524,524,524,524,524,524,524,524,524,524,524,523,523,523,523,523,523,523,523,521,519,515,510,507,504,501,493,472,457,437,416,387,355,285,264,249,238,225,223,222,219,212,179,156,132,109,90],"timestamp_mouse":[15,38,55,77,95,117,135,156,176,196,216,236,255,277,295,316,335,356,375,396,416,435,456,476,495,516,536,556,576,595,615,636,657,676,696,715,735,756,776,795,815,836,856,876,895,915,935],"xSR":741.5,"ySR":469.95,"xT1":424.9,"yT1":0,"xT2":1058.1,"yT2":0,"toosoon":0,"cond_shown":"equaldotanddens","ratio_trial":900,"smaller_num":"18","larger_num":"20","correct_side":1,"subjID":"juandavidmartinez","gender":"macho.","age":"11","school":"cafaaaaaaaaaam"},{"start_time":1551801608491,"click_time":1551801609660,"finger_time":1551801609299,"fix_duration":250,"trial":62,"RT":808,"MT":361,"sideResp":1,"stimulus":"img/750/equaldotsize/L/13_Ratio_750_L_8_R_6.png","xmouse":[787,787,787,787,787,787,787,787,787,787,787,787,787,787,787,787,787,787,787,787,787,787,787,787,787,787,787,787,787,787,787,787,787,787,787,787,787,786,785,773,752,731,704,675,641,592,572,558,548,543,541,541,541,541,537,527,522,514,505],"ymouse":[505,505,505,505,505,505,505,505,505,505,505,505,505,505,505,505,505,505,505,505,505,505,505,505,505,505,505,505,505,505,505,505,505,505,505,505,505,505,505,482,448,407,366,324,284,230,215,205,199,194,193,193,193,191,182,155,133,107,77],"timestamp_mouse":[9,40,49,69,88,109,129,148,168,188,210,228,248,269,289,308,328,348,370,388,409,430,449,468,489,510,528,550,568,589,609,629,649,668,688,710,728,748,770,790,808,828,848,868,889,909,928,949,970,990,1009,1028,1048,1068,1089,1109,1128,1149,1168],"xSR":741.5,"ySR":469.95,"xT1":424.9,"yT1":0,"xT2":1058.1,"yT2":0,"toosoon":0,"cond_shown":"equaldotsize","ratio_trial":750,"smaller_num":"6","larger_num":"8","correct_side":1,"subjID":"juandavidmartinez","gender":"macho.","age":"11","school":"cafaaaaaaaaaam"},{"start_time":1551801611153,"click_time":1551801611881,"finger_time":1551801611560,"fix_duration":552.0687300370565,"trial":63,"RT":407,"MT":321,"sideResp":2,"stimulus":"img/750/equaldotanddens/L/6_Ratio_750_L_24_R_18.png","xmouse":[771,771,771,771,771,771,771,771,771,771,771,771,771,771,771,771,771,771,771,782,797,816,864,886,902,916,929,956,965,975,986,995,1018,1030,1040,1051,1071],"ymouse":[507,507,507,507,507,507,507,507,507,507,507,507,507,507,507,507,507,507,507,491,467,442,386,361,340,317,295,247,230,215,199,186,155,139,125,111,89],"timestamp_mouse":[14,28,48,67,87,107,128,147,167,187,207,227,247,266,286,306,326,346,366,386,407,428,446,467,486,507,526,548,566,586,606,627,646,666,688,706,728],"xSR":741.5,"ySR":469.95,"xT1":424.9,"yT1":0,"xT2":1058.1,"yT2":0,"toosoon":0,"cond_shown":"equaldotanddens","ratio_trial":750,"smaller_num":"18","larger_num":"24","correct_side":1,"subjID":"juandavidmartinez","gender":"macho.","age":"11","school":"cafaaaaaaaaaam"},{"start_time":1551801613012,"click_time":1551801614000,"finger_time":1551801613600,"fix_duration":250,"trial":64,"RT":588,"MT":400,"sideResp":1,"stimulus":"img/900/equaldotanddens/R/7_Ratio_900_L_9_R_10.png","xmouse":[790,790,790,790,790,790,790,790,790,790,790,790,790,790,790,790,790,790,790,790,790,790,790,790,790,790,789,780,770,736,715,696,678,663,634,622,606,591,579,567,566,565,565,565,565,565,561,549,531,486],"ymouse":[527,527,527,527,527,527,527,527,527,527,527,527,527,527,527,527,527,527,527,527,527,527,527,527,527,527,518,502,485,439,414,389,360,331,267,235,201,173,155,129,123,118,115,113,113,112,112,109,101,81],"timestamp_mouse":[7,36,47,67,87,107,127,148,167,187,207,228,248,268,288,308,328,348,369,388,409,427,447,468,487,508,528,547,567,588,607,628,648,668,688,708,728,748,768,788,809,829,847,868,888,908,928,947,968,988],"xSR":741.5,"ySR":469.95,"xT1":424.9,"yT1":0,"xT2":1058.1,"yT2":0,"toosoon":0,"cond_shown":"equaldotanddens","ratio_trial":900,"smaller_num":"9","larger_num":"10","correct_side":2,"subjID":"juandavidmartinez","gender":"macho.","age":"11","school":"cafaaaaaaaaaam"},{"start_time":1551801616588,"click_time":1551801617579,"finger_time":1551801617319,"fix_duration":1008.4747492165923,"trial":65,"RT":731,"MT":260,"sideResp":2,"stimulus":"img/500/randomdotsizeEA/R/15_Ratio_500_L_1_R_2.png","xmouse":[793,793,793,793,793,793,793,793,793,793,793,793,793,793,793,793,793,793,793,793,793,793,793,793,793,793,793,793,793,793,793,793,793,793,793,811,826,850,883,921,986,1010,1023,1027,1029,1038,1049,1067,1089,1112],"ymouse":[492,492,492,492,492,492,492,492,492,492,492,492,492,492,492,492,492,492,492,492,492,492,492,492,492,492,492,492,492,492,492,492,492,492,492,477,460,429,393,346,261,228,211,203,199,184,166,144,115,88],"timestamp_mouse":[11,38,52,71,90,111,131,151,171,190,210,230,251,270,290,310,332,352,370,390,412,430,450,471,490,510,531,550,570,592,611,630,652,670,691,711,731,751,770,790,810,830,851,872,890,911,930,951,971,991],"xSR":741.5,"ySR":469.95,"xT1":424.9,"yT1":0,"xT2":1058.1,"yT2":0,"toosoon":0,"cond_shown":"randomdotsizeEA","ratio_trial":500,"smaller_num":"1","larger_num":"2","correct_side":2,"subjID":"juandavidmartinez","gender":"macho.","age":"11","school":"cafaaaaaaaaaam"},{"start_time":1551801619114,"click_time":1551801620118,"finger_time":1551801619700,"fix_duration":494.0183692476066,"trial":66,"RT":586,"MT":418,"sideResp":2,"stimulus":"img/250/randomdotsizeEA/R/9_Ratio_250_L_3_R_12.png","xmouse":[811,810,810,810,810,810,810,810,810,810,810,810,810,810,810,810,810,810,810,809,809,810,810,810,810,811,811,812,814,831,839,850,861,881,889,896,904,914,936,952,964,977,988,997,1014,1025,1035,1049,1063,1081,1081],"ymouse":[521,522,522,522,522,522,522,522,522,522,522,522,522,522,522,522,522,522,522,521,520,519,518,517,516,514,512,510,502,466,447,426,405,370,351,332,313,293,243,211,192,176,164,155,144,139,134,126,116,100,97],"timestamp_mouse":[8,26,48,64,86,104,125,145,165,185,204,225,246,265,285,304,326,344,365,386,405,425,444,465,485,505,525,546,565,585,605,625,645,666,685,704,725,745,766,784,805,825,845,864,884,905,925,946,964,984,1004],"xSR":741.5,"ySR":469.95,"xT1":424.9,"yT1":0,"xT2":1058.1,"yT2":0,"toosoon":0,"cond_shown":"randomdotsizeEA","ratio_trial":250,"smaller_num":"3","larger_num":"12","correct_side":2,"subjID":"juandavidmartinez","gender":"macho.","age":"11","school":"cafaaaaaaaaaam"},{"start_time":1551801621354,"click_time":1551801622298,"finger_time":1551801621958,"fix_duration":373.2626046316213,"trial":67,"RT":604,"MT":340,"sideResp":2,"stimulus":"img/500/equaldotsize/R/3_Ratio_500_L_10_R_20.png","xmouse":[795,795,795,795,795,795,795,795,795,795,795,795,795,795,795,795,795,795,795,795,795,795,795,795,795,795,795,800,813,831,847,865,892,901,909,916,927,937,946,953,961,971,993,1003,1015,1027,1053,1073],"ymouse":[547,547,547,547,547,547,547,547,547,547,547,547,547,547,547,547,547,547,547,547,547,547,547,547,547,547,547,540,522,499,476,446,403,385,365,348,311,277,254,230,206,185,156,144,132,121,99,85],"timestamp_mouse":[9,24,44,65,85,105,124,144,165,186,204,224,244,265,284,305,325,346,365,385,406,424,444,464,485,505,525,545,565,585,604,625,645,664,686,705,726,744,765,784,804,824,845,864,885,905,926,944],"xSR":741.5,"ySR":469.95,"xT1":424.9,"yT1":0,"xT2":1058.1,"yT2":0,"toosoon":0,"cond_shown":"equaldotsize","ratio_trial":500,"smaller_num":"10","larger_num":"20","correct_side":2,"subjID":"juandavidmartinez","gender":"macho.","age":"11","school":"cafaaaaaaaaaam"},{"start_time":1551801624248,"click_time":1551801625118,"finger_time":1551801624899,"fix_duration":1148.8394177858452,"trial":68,"RT":651,"MT":219,"sideResp":2,"stimulus":"img/900/equaldotsize/R/15_Ratio_900_L_9_R_10.png","xmouse":[773,772,772,772,772,772,772,772,772,772,772,772,772,772,772,772,772,772,772,772,772,772,772,772,772,772,772,772,772,772,774,785,810,870,913,951,975,998,1007,1015,1023,1032,1056,1064],"ymouse":[498,497,495,495,495,495,495,495,495,495,495,495,495,495,495,495,495,495,495,495,495,495,495,495,495,495,495,495,495,495,494,481,450,383,330,275,224,153,128,106,88,68,40,35],"timestamp_mouse":[14,38,50,71,90,110,130,151,170,192,210,231,250,271,291,310,332,352,370,390,410,431,450,470,492,511,531,551,571,590,611,632,651,670,691,712,731,750,770,792,811,830,850,870],"xSR":741.5,"ySR":469.95,"xT1":424.9,"yT1":0,"xT2":1058.1,"yT2":0,"toosoon":0,"cond_shown":"equaldotsize","ratio_trial":900,"smaller_num":"9","larger_num":"10","correct_side":2,"subjID":"juandavidmartinez","gender":"macho.","age":"11","school":"cafaaaaaaaaaam"},{"start_time":1551801632011,"click_time":1551801633519,"finger_time":1551801632959,"fix_duration":750.0623100026729,"trial":69,"RT":948,"MT":560,"sideResp":2,"stimulus":"img/500/equaldotanddens/R/6_Ratio_500_L_9_R_18.png","xmouse":[788,788,788,788,788,788,788,788,788,788,788,788,788,788,788,788,788,788,788,788,788,788,788,788,788,788,788,788,788,788,788,788,788,788,786,785,784,784,784,784,784,784,784,784,784,784,785,789,812,826,833,836,837,837,837,837,837,837,837,837,837,837,837,840,858,878,924,985,1035,1089,1100,1105,1105,1103,1102,1105],"ymouse":[482,479,478,478,478,478,478,478,478,478,478,478,478,478,478,478,478,478,478,478,478,478,478,478,478,478,478,478,478,478,478,478,478,478,480,480,482,482,482,482,482,482,482,482,482,482,475,469,435,415,402,394,390,387,387,387,387,387,387,387,387,387,386,380,361,340,310,273,239,189,171,153,139,119,106,90],"timestamp_mouse":[7,33,48,68,87,109,128,148,167,188,208,227,249,267,288,307,327,349,367,389,408,427,448,469,487,507,528,548,569,587,608,629,648,667,688,708,728,747,768,788,807,829,847,867,889,907,927,948,973,988,1007,1028,1047,1069,1088,1107,1128,1148,1169,1189,1207,1227,1248,1267,1287,1308,1327,1347,1367,1388,1407,1428,1448,1469,1487,1507],"xSR":741.5,"ySR":469.95,"xT1":424.9,"yT1":0,"xT2":1058.1,"yT2":0,"toosoon":0,"cond_shown":"equaldotanddens","ratio_trial":500,"smaller_num":"9","larger_num":"18","correct_side":2,"subjID":"juandavidmartinez","gender":"macho.","age":"11","school":"cafaaaaaaaaaam"},{"start_time":1551801636381,"click_time":1551801637378,"finger_time":1551801637058,"fix_duration":561.0175311838225,"trial":70,"RT":677,"MT":320,"sideResp":2,"stimulus":"img/900/equaldotsize/R/15_Ratio_900_L_9_R_10.png","xmouse":[763,763,763,763,763,768,778,783,786,787,787,787,787,787,787,787,787,787,787,787,787,787,787,788,788,788,788,788,788,789,794,802,816,833,859,925,949,970,987,1004,1037,1052,1068,1081,1093,1097,1101,1104,1108,1113],"ymouse":[522,522,522,522,522,520,517,516,516,516,516,516,516,516,516,516,516,516,516,516,516,516,516,515,515,515,515,515,515,513,504,492,473,451,421,335,309,287,270,255,226,212,198,186,168,155,141,132,115,96],"timestamp_mouse":[34,39,58,77,98,119,137,157,178,198,218,237,257,278,297,317,338,358,379,398,417,438,459,478,498,519,538,557,577,597,618,638,657,677,698,717,737,757,778,798,818,837,858,877,899,918,937,957,977,997],"xSR":741.5,"ySR":469.95,"xT1":424.9,"yT1":0,"xT2":1058.1,"yT2":0,"toosoon":0,"cond_shown":"equaldotsize","ratio_trial":900,"smaller_num":"9","larger_num":"10","correct_side":2,"subjID":"juandavidmartinez","gender":"macho.","age":"11","school":"cafaaaaaaaaaam"},{"start_time":1551801639558,"click_time":1551801640438,"finger_time":1551801640119,"fix_duration":1279.71199849687,"trial":71,"RT":561,"MT":319,"sideResp":1,"stimulus":"img/500/equaldotsize/L/8_Ratio_500_L_8_R_4.png","xmouse":[800,800,800,800,800,800,800,800,800,800,800,800,800,800,800,800,800,800,800,800,800,800,800,800,800,800,799,780,758,737,706,677,648,640,635,630,618,610,606,602,596,580,566,544,519],"ymouse":[517,517,517,517,517,517,517,517,517,517,517,517,517,517,517,517,517,517,517,517,517,517,517,517,517,517,517,487,459,437,408,378,329,303,273,247,207,185,171,158,145,119,107,97,86],"timestamp_mouse":[10,21,42,62,81,100,120,140,162,181,201,220,240,260,281,301,320,340,361,380,402,420,442,460,482,502,521,541,561,581,601,620,641,660,682,701,721,741,761,781,801,821,840,860,880],"xSR":741.5,"ySR":469.95,"xT1":424.9,"yT1":0,"xT2":1058.1,"yT2":0,"toosoon":0,"cond_shown":"equaldotsize","ratio_trial":500,"smaller_num":"4","larger_num":"8","correct_side":1,"subjID":"juandavidmartinez","gender":"macho.","age":"11","school":"cafaaaaaaaaaam"},{"start_time":1551801641739,"click_time":1551801642380,"finger_time":1551801642199,"fix_duration":459.6887461414806,"trial":72,"RT":460,"MT":181,"sideResp":2,"stimulus":"img/250/equaldotsize/R/12_Ratio_250_L_5_R_20.png","xmouse":[788,788,788,788,788,788,788,788,788,788,788,788,788,788,788,788,788,788,788,789,792,798,835,871,915,954,989,1050,1061,1067,1072,1080],"ymouse":[511,511,511,511,511,511,511,511,511,511,511,511,511,511,511,511,511,511,511,511,508,501,451,411,370,324,275,186,165,146,124,81],"timestamp_mouse":[20,40,60,81,99,119,140,159,180,201,219,239,259,279,301,320,339,361,379,399,420,439,460,480,501,521,540,559,580,599,621,641],"xSR":741.5,"ySR":469.95,"xT1":424.9,"yT1":0,"xT2":1058.1,"yT2":0,"toosoon":0,"cond_shown":"equaldotsize","ratio_trial":250,"smaller_num":"5","larger_num":"20","correct_side":2,"subjID":"juandavidmartinez","gender":"macho.","age":"11","school":"cafaaaaaaaaaam"},{"start_time":1551801643770,"click_time":1551801644559,"finger_time":1551801644319,"fix_duration":390.00979155264605,"trial":73,"RT":549,"MT":240,"sideResp":2,"stimulus":"img/750/equaldotsize/R/12_Ratio_750_L_3_R_4.png","xmouse":[790,790,790,790,790,790,790,790,790,790,790,790,790,790,790,790,790,790,790,789,788,787,786,785,785,786,804,836,871,919,958,1003,1012,1020,1024,1043,1053,1067,1080,1093],"ymouse":[556,556,556,556,556,556,556,556,556,556,556,556,556,556,556,556,556,556,556,557,556,556,554,554,551,524,473,408,349,291,245,191,176,168,161,138,131,119,110,97],"timestamp_mouse":[10,40,49,69,89,109,129,149,170,189,209,228,250,270,289,308,329,349,369,390,408,429,450,469,488,509,529,549,568,588,608,629,648,668,689,710,729,749,768,789],"xSR":741.5,"ySR":469.95,"xT1":424.9,"yT1":0,"xT2":1058.1,"yT2":0,"toosoon":0,"cond_shown":"equaldotsize","ratio_trial":750,"smaller_num":"3","larger_num":"4","correct_side":2,"subjID":"juandavidmartinez","gender":"macho.","age":"11","school":"cafaaaaaaaaaam"},{"start_time":1551801646214,"click_time":1551801646918,"finger_time":1551801646680,"fix_duration":753.4220603511338,"trial":74,"RT":466,"MT":238,"sideResp":2,"stimulus":"img/750/equaldotsize/R/3_Ratio_750_L_15_R_20.png","xmouse":[798,797,797,797,797,797,797,797,797,797,797,797,797,797,797,796,796,798,803,812,812,814,816,833,859,880,922,972,1011,1063,1081,1092,1100,1103,1112,1116],"ymouse":[525,525,525,525,525,525,525,525,525,525,525,525,525,525,525,524,520,512,503,487,485,481,473,448,419,398,356,297,244,176,151,132,120,115,100,96],"timestamp_mouse":[9,24,50,66,85,104,124,145,164,186,205,225,245,265,286,305,325,345,364,385,405,424,444,466,485,504,525,546,565,584,604,624,645,665,684,704],"xSR":741.5,"ySR":469.95,"xT1":424.9,"yT1":0,"xT2":1058.1,"yT2":0,"toosoon":0,"cond_shown":"equaldotsize","ratio_trial":750,"smaller_num":"15","larger_num":"20","correct_side":2,"subjID":"juandavidmartinez","gender":"macho.","age":"11","school":"cafaaaaaaaaaam"},{"start_time":1551801648713,"click_time":1551801649398,"finger_time":1551801649119,"fix_duration":973.1664760376046,"trial":75,"RT":406,"MT":279,"sideResp":2,"stimulus":"img/500/randomdotsizeEA/L/4_Ratio_500_L_18_R_9.png","xmouse":[779,778,778,778,778,778,778,778,778,778,778,778,778,778,778,778,778,778,780,810,847,886,922,950,981,990,995,998,999,1006,1019,1032,1044,1056,1078],"ymouse":[504,503,503,503,503,503,503,503,503,503,503,503,503,503,503,503,503,503,502,479,458,429,402,375,322,298,275,255,215,184,161,139,116,99,73],"timestamp_mouse":[10,32,46,65,87,105,125,145,166,186,205,226,245,266,287,306,325,345,366,385,406,425,446,465,486,505,527,545,566,585,606,626,646,665,685],"xSR":741.5,"ySR":469.95,"xT1":424.9,"yT1":0,"xT2":1058.1,"yT2":0,"toosoon":0,"cond_shown":"randomdotsizeEA","ratio_trial":500,"smaller_num":"9","larger_num":"18","correct_side":1,"subjID":"juandavidmartinez","gender":"macho.","age":"11","school":"cafaaaaaaaaaam"},{"start_time":1551801651378,"click_time":1551801652279,"finger_time":1551801651858,"fix_duration":1197.430715108525,"trial":76,"RT":480,"MT":421,"sideResp":2,"stimulus":"img/750/randomdotsizeEA/R/4_Ratio_750_L_15_R_20.png","xmouse":[782,782,782,782,782,782,782,782,782,782,782,782,782,782,782,782,782,784,785,785,789,798,813,826,850,945,1009,1055,1098,1120,1140,1181,1195,1209,1214,1216,1215,1213,1210,1208,1206,1201,1195,1185,1172,1157],"ymouse":[511,511,511,511,510,510,510,510,510,510,510,510,510,510,510,510,510,507,507,506,502,497,490,482,468,424,386,354,318,296,274,197,153,119,98,83,65,62,60,58,56,53,51,48,45,43],"timestamp_mouse":[10,38,40,60,80,102,120,140,161,182,200,221,242,260,280,300,320,341,362,381,401,421,440,461,480,501,520,541,562,580,600,621,641,661,680,701,721,741,760,780,800,820,840,862,880,901],"xSR":741.5,"ySR":469.95,"xT1":424.9,"yT1":0,"xT2":1058.1,"yT2":0,"toosoon":0,"cond_shown":"randomdotsizeEA","ratio_trial":750,"smaller_num":"15","larger_num":"20","correct_side":2,"subjID":"juandavidmartinez","gender":"macho.","age":"11","school":"cafaaaaaaaaaam"},{"start_time":1551801654363,"click_time":1551801655339,"finger_time":1551801654899,"fix_duration":1063.1983051238587,"trial":77,"RT":536,"MT":440,"sideResp":1,"stimulus":"img/250/equaldotanddens/L/15_Ratio_250_L_12_R_3.png","xmouse":[763,763,763,763,763,763,765,768,769,770,771,771,771,771,771,771,771,771,771,771,772,774,775,777,778,780,785,787,789,790,791,778,762,745,725,689,674,670,667,665,664,649,635,614,591,565,507,493,484],"ymouse":[506,506,506,506,506,506,505,502,501,500,500,500,500,500,500,500,500,500,500,500,499,497,493,488,480,472,440,425,410,396,374,330,311,294,280,259,248,245,243,241,239,227,219,207,193,172,121,106,95],"timestamp_mouse":[32,37,55,76,96,115,136,156,176,196,216,237,255,275,295,317,336,356,377,396,415,435,455,475,496,515,536,555,575,595,6