[{"start_time":1551891074832,"click_time":1551891078365,"finger_time":1551891077843,"fix_duration":565.8880963926272,"trial":0,"RT":3011,"MT":522,"sideResp":2,"stimulus":[],"xmouse":[789,789,789,789,789,789,789,789,789,789,789,789,789,789,789,789,789,789,789,789,789,789,789,789,789,789,789,789,789,789,789,789,789,789,789,789,789,789,789,789,789,789,789,789,789,789,789,789,789,789,789,789,789,789,789,789,789,789,789,789,789,789,789,789,788,773,767,765,764,764,764,764,764,764,764,764,764,764,764,764,764,764,764,764,764,764,764,764,764,764,764,764,764,764,764,764,764,764,764,764,764,764,764,764,764,764,764,764,764,764,764,764,764,764,764,764,764,764,764,764,764,764,764,764,764,764,764,764,764,764,764,764,764,764,764,765,765,765,765,765,765,765,769,773,777,784,790,799,815,840,924,972,1016,1060,1126,1203,1227,1238,1240,1240,1222,1205,1200,1185,1172,1159,1142,1135,1130,1127,1125,1125,1125,1124,1119,1115,1100],"ymouse":[555,555,555,555,555,555,555,555,555,555,555,555,555,555,555,555,555,555,555,555,555,555,555,555,555,555,555,555,555,555,555,555,555,555,555,555,555,555,555,555,555,555,555,555,555,555,555,555,555,555,555,555,555,555,555,555,555,555,555,555,555,555,555,555,554,548,545,544,544,544,544,544,544,544,544,544,544,544,544,544,544,544,544,544,544,544,544,544,544,543,543,543,543,543,543,543,543,543,543,543,543,543,543,543,543,543,543,543,543,543,543,543,543,543,543,543,543,543,543,543,543,543,543,543,543,543,543,543,543,543,543,543,543,543,537,510,501,498,496,496,496,496,496,497,498,504,509,514,522,531,548,551,551,537,501,430,399,375,352,333,302,280,274,261,252,244,232,226,222,217,204,194,178,163,141,126,95],"timestamp_mouse":[11,35,52,71,92,111,131,151,171,191,211,232,252,272,291,312,332,351,372,392,411,431,452,471,492,511,531,551,572,592,612,631,651,672,692,712,732,753,771,792,812,831,852,871,892,911,931,951,971,991,1011,1031,1052,1072,1091,1111,1131,1151,1171,1192,1211,1233,1251,1271,1292,1311,1331,1352,1371,1391,1413,1432,1452,1472,1492,1511,1531,1552,1572,1591,1612,1631,1651,1671,1691,1711,1731,1752,1772,1793,1811,1831,1852,1871,1892,1911,1931,1951,1972,1992,2012,2031,2051,2072,2092,2111,2132,2151,2172,2191,2212,2231,2251,2272,2292,2311,2332,2353,2373,2392,2412,2431,2453,2471,2492,2511,2532,2552,2573,2591,2612,2632,2652,2672,2692,2711,2732,2751,2772,2793,2811,2831,2851,2871,2891,2911,2932,2951,2972,2992,3011,3031,3051,3072,3091,3112,3131,3151,3171,3192,3211,3231,3251,3272,3291,3311,3331,3351,3371,3392,3412,3431,3452,3472,3491,3511,3532],"xSR":741.5,"ySR":481,"xT1":424.9,"yT1":0,"xT2":1058.1,"yT2":0,"toosoon":0,"cond_shown":"Incongruent","ratio_trial":300,"L_num":1,"L_den":2,"R_num":3,"R_den":15,"correct_side":1,"subjID":"juandavidmonroycuevas5","gender":"0","age":"12","school":"6","test":{"fix_dur":[250,1500],"timestim":1000,"targets_dim":[100,100],"targets_relative_coord":[0.3,0.7],"size_stim":[880,420],"start_dim":[100,100],"size_start":[300,300],"size_fix":60,"samplingrate":20,"img_types":["Congruent","Incongruent"],"ratios":[100,200,300],"rep_conds":19,"nTrials":120,"trials_to_rest":500,"Trials_order":[35,23,86,11,3,104,53,118,22,76,47,16,90,2,25,74,88,65,14,30,46,48,66,19,60,50,108,82,40,21,117,17,29,98,84,36,91,92,97,24,110,61,13,109,51,80,58,94,96,26,5,112,31,52,95,62,28,105,87,4,7,106,73,83,68,9,6,85,42,64,8,72,81,12,0,57,33,38,111,43,69,116,18,102,37,114,34,63,67,101,10,54,56,77,113,75,55,79,70,15,32,89,59,107,115,44,93,119,49,71,45,1,100,39,99,20,78,27,103,41],"cond_shown":["Incongruent","Incongruent","Congruent","Incongruent","Incongruent","Congruent","Incongruent","Congruent","Congruent","Congruent","Incongruent","Congruent","Congruent","Congruent","Incongruent","Congruent","Congruent","Incongruent","Congruent","Congruent","Congruent","Congruent","Congruent","Incongruent","Congruent","Congruent","Congruent","Congruent","Congruent","Incongruent","Incongruent","Incongruent","Incongruent","Congruent","Congruent","Congruent","Incongruent","Congruent","Incongruent","Congruent","Congruent","Incongruent","Incongruent","Incongruent","Incongruent","Congruent","Congruent","Congruent","Congruent","Congruent","Incongruent","Congruent","Incongruent","Congruent","Incongruent","Congruent","Congruent","Incongruent","Incongruent","Congruent","Incongruent","Congruent","Incongruent","Incongruent","Congruent","Incongruent","Congruent","Incongruent","Congruent","Congruent","Congruent","Congruent","Incongruent","Congruent","Congruent","Incongruent","Incongruent","Congruent","Incongruent","Incongruent","Incongruent","Congruent","Congruent","Congruent","Incongruent","Congruent","Congruent","Incongruent","Incongruent","Incongruent","Congruent","Congruent","Congruent","Incongruent","Incongruent","Incongruent","Incongruent","Incongruent","Congruent","Incongruent","Congruent","Incongruent","Incongruent","Incongruent","Incongruent","Congruent","Incongruent","Incongruent","Incongruent","Incongruent","Incongruent","Incongruent","Congruent","Incongruent","Incongruent","Congruent","Congruent","Incongruent","Incongruent","Incongruent"],"ratio_trial":[300,300,200,300,200,200,300,300,300,300,300,300,100,200,100,200,300,300,200,100,300,100,100,100,100,200,100,300,300,200,200,300,300,200,100,100,100,200,100,100,200,100,100,100,200,200,300,300,100,200,300,300,100,300,300,200,300,200,200,300,100,300,100,300,200,200,100,100,100,300,200,100,200,100,100,200,200,200,200,100,200,200,100,100,100,100,300,200,100,300,300,100,200,300,300,200,100,100,300,200,200,300,300,300,100,200,200,300,100,300,200,100,300,200,200,200,100,200,100,300],"left_num":[1,7,7,4,4,21,13,20,1,1,8,20,6,4,9,6,11,8,21,7,1,11,1,9,6,3,7,20,24,1,4,1,4,1,9,7,8,4,3,6,13,3,4,4,7,6,4,11,9,5,8,3,3,1,8,12,1,4,3,3,17,4,3,4,5,7,2,9,10,5,3,7,7,15,6,7,7,4,1,4,7,6,8,2,8,9,20,1,3,4,11,8,16,4,13,7,6,11,1,4,3,4,13,2,1,4,6,13,6,3,6,12,24,4,3,9,1,3,3,1],"right_num":[3,8,18,2,6,2,12,14,11,3,9,8,5,3,13,7,1,9,2,15,8,6,18,20,5,9,9,9,2,2,1,2,2,21,8,9,1,3,4,5,14,7,8,8,4,7,2,2,8,14,14,4,4,8,14,6,3,14,1,11,10,1,4,2,14,6,11,20,3,7,14,15,6,13,5,8,6,3,2,8,12,11,2,11,6,8,5,3,4,2,4,2,12,6,12,4,11,9,19,6,9,2,12,6,8,3,3,12,11,4,3,2,8,14,11,13,18,1,4,2],"left_den":[2,10,15,20,5,30,26,25,5,5,10,25,20,8,15,12,22,10,30,14,30,22,2,10,20,12,14,25,30,3,30,2,20,2,15,14,20,10,6,20,26,9,8,8,15,12,5,22,15,10,10,6,6,30,10,20,5,6,10,12,30,10,6,20,10,15,5,10,25,25,6,14,15,25,20,10,15,8,3,8,10,20,16,5,16,15,25,2,6,20,22,16,20,5,26,15,10,22,3,5,12,20,26,4,2,8,20,26,10,6,20,30,30,6,4,30,2,10,6,2],"right_den":[15,20,27,4,10,4,15,28,22,6,18,16,25,10,26,10,5,18,4,25,24,15,30,25,25,20,15,18,4,15,3,10,4,30,16,15,2,15,10,25,20,30,20,20,6,10,4,10,16,20,28,5,10,24,28,15,6,30,2,20,15,10,10,4,20,9,22,25,10,14,20,25,9,26,25,16,9,10,15,20,24,22,5,22,10,16,10,10,10,4,20,5,20,12,15,6,22,15,30,10,20,4,15,30,20,10,6,15,22,20,6,4,16,30,20,26,30,2,10,10],"correct_side":[1,1,2,2,1,1,2,1,2,2,1,1,1,1,1,2,1,1,1,2,2,1,2,1,1,2,2,1,1,1,2,1,2,2,1,2,2,1,1,1,2,1,1,1,2,2,1,1,1,2,1,2,1,2,1,1,2,1,2,2,2,1,1,2,2,2,2,1,1,2,2,2,2,1,1,1,2,1,1,1,1,2,1,2,2,1,1,1,1,2,1,1,1,1,2,2,1,2,2,1,2,2,2,1,1,1,2,2,1,1,2,2,1,1,1,2,2,2,1,1],"img_shown":["img2/300/Incongruent/L/I_Dist_300_LN_1_LD_2_RN_3_RD_15_0.png","img2/300/Incongruent/L/I_Dist_300_LN_7_LD_10_RN_8_RD_20_0.png","img2/200/Congruent/R/C_Dist_200_LN_7_LD_15_RN_18_RD_27_1.png","img2/300/Incongruent/R/I_Dist_300_LN_4_LD_20_RN_2_RD_4_1.png","img2/200/Incongruent/L/I_Dist_200_LN_4_LD_5_RN_6_RD_10_0.png","img2/200/Congruent/L/C_Dist_200_LN_21_LD_30_RN_2_RD_4_0.png","img2/300/Incongruent/R/I_Dist_300_LN_13_LD_26_RN_12_RD_15_1.png","img2/300/Congruent/L/C_Dist_300_LN_20_LD_25_RN_14_RD_28_0.png","img2/300/Congruent/R/C_Dist_300_LN_1_LD_5_RN_11_RD_22_1.png","img2/300/Congruent/R/C_Dist_300_LN_1_LD_5_RN_3_RD_6_1.png","img2/300/Incongruent/L/I_Dist_300_LN_8_LD_10_RN_9_RD_18_0.png","img2/300/Congruent/L/C_Dist_300_LN_20_LD_25_RN_8_RD_16_0.png","img2/100/Congruent/L/C_Dist_100_LN_6_LD_20_RN_5_RD_25_0.png","img2/200/Congruent/L/C_Dist_200_LN_4_LD_8_RN_3_RD_10_0.png","img2/100/Incongruent/L/I_Dist_100_LN_9_LD_15_RN_13_RD_26_0.png","img2/200/Congruent/R/C_Dist_200_LN_6_LD_12_RN_7_RD_10_1.png","img2/300/Congruent/L/C_Dist_300_LN_11_LD_22_RN_1_RD_5_0.png","img2/300/Incongruent/L/I_Dist_300_LN_8_LD_10_RN_9_RD_18_0.png","img2/200/Congruent/L/C_Dist_200_LN_21_LD_30_RN_2_RD_4_0.png","img2/100/Congruent/R/C_Dist_100_LN_7_LD_14_RN_15_RD_25_1.png","img2/300/Congruent/R/C_Dist_300_LN_1_LD_30_RN_8_RD_24_1.png","img2/100/Congruent/L/C_Dist_100_LN_11_LD_22_RN_6_RD_15_0.png","img2/100/Congruent/R/C_Dist_100_LN_1_LD_2_RN_18_RD_30_1.png","img2/100/Incongruent/L/I_Dist_100_LN_9_LD_10_RN_20_RD_25_0.png","img2/100/Congruent/L/C_Dist_100_LN_6_LD_20_RN_5_RD_25_0.png","img2/200/Congruent/R/C_Dist_200_LN_3_LD_12_RN_9_RD_20_1.png","img2/100/Congruent/R/C_Dist_100_LN_7_LD_14_RN_9_RD_15_1.png","img2/300/Congruent/L/C_Dist_300_LN_20_LD_25_RN_9_RD_18_0.png","img2/300/Congruent/L/C_Dist_300_LN_24_LD_30_RN_2_RD_4_0.png","img2/200/Incongruent/L/I_Dist_200_LN_1_LD_3_RN_2_RD_15_0.png","img2/200/Incongruent/R/I_Dist_200_LN_4_LD_30_RN_1_RD_3_1.png","img2/300/Incongruent/L/I_Dist_300_LN_1_LD_2_RN_2_RD_10_0.png","img2/300/Incongruent/R/I_Dist_300_LN_4_LD_20_RN_2_RD_4_1.png","img2/200/Congruent/R/C_Dist_200_LN_1_LD_2_RN_21_RD_30_1.png","img2/100/Congruent/L/C_Dist_100_LN_9_LD_15_RN_8_RD_16_0.png","img2/100/Congruent/R/C_Dist_100_LN_7_LD_14_RN_9_RD_15_1.png","img2/100/Incongruent/R/I_Dist_100_LN_8_LD_20_RN_1_RD_2_1.png","img2/200/Congruent/L/C_Dist_200_LN_4_LD_10_RN_3_RD_15_0.png","img2/100/Incongruent/L/I_Dist_100_LN_3_LD_6_RN_4_RD_10_0.png","img2/100/Congruent/L/C_Dist_100_LN_6_LD_20_RN_5_RD_25_0.png","img2/200/Congruent/R/C_Dist_200_LN_13_LD_26_RN_14_RD_20_1.png","img2/100/Incongruent/L/I_Dist_100_LN_3_LD_9_RN_7_RD_30_0.png","img2/100/Incongruent/L/I_Dist_100_LN_4_LD_8_RN_8_RD_20_0.png","img2/100/Incongruent/L/I_Dist_100_LN_4_LD_8_RN_8_RD_20_0.png","img2/200/Incongruent/R/I_Dist_200_LN_7_LD_15_RN_4_RD_6_1.png","img2/200/Congruent/R/C_Dist_200_LN_6_LD_12_RN_7_RD_10_1.png","img2/300/Congruent/L/C_Dist_300_LN_4_LD_5_RN_2_RD_4_0.png","img2/300/Congruent/L/C_Dist_300_LN_11_LD_22_RN_2_RD_10_0.png","img2/100/Congruent/L/C_Dist_100_LN_9_LD_15_RN_8_RD_16_0.png","img2/200/Congruent/R/C_Dist_200_LN_5_LD_10_RN_14_RD_20_1.png","img2/300/Incongruent/L/I_Dist_300_LN_8_LD_10_RN_14_RD_28_0.png","img2/300/Congruent/R/C_Dist_300_LN_3_LD_6_RN_4_RD_5_1.png","img2/100/Incongruent/L/I_Dist_100_LN_3_LD_6_RN_4_RD_10_0.png","img2/300/Congruent/R/C_Dist_300_LN_1_LD_30_RN_8_RD_24_1.png","img2/300/Incongruent/L/I_Dist_300_LN_8_LD_10_RN_14_RD_28_0.png","img2/200/Congruent/L/C_Dist_200_LN_12_LD_20_RN_6_RD_15_0.png","img2/300/Congruent/R/C_Dist_300_LN_1_LD_5_RN_3_RD_6_1.png","img2/200/Incongruent/L/I_Dist_200_LN_4_LD_6_RN_14_RD_30_0.png","img2/200/Incongruent/R/I_Dist_200_LN_3_LD_10_RN_1_RD_2_1.png","img2/300/Congruent/R/C_Dist_300_LN_3_LD_12_RN_11_RD_20_1.png","img2/100/Incongruent/R/I_Dist_100_LN_17_LD_30_RN_10_RD_15_1.png","img2/300/Congruent/L/C_Dist_300_LN_4_LD_10_RN_1_RD_10_0.png","img2/100/Incongruent/L/I_Dist_100_LN_3_LD_6_RN_4_RD_10_0.png","img2/300/Incongruent/R/I_Dist_300_LN_4_LD_20_RN_2_RD_4_1.png","img2/200/Congruent/R/C_Dist_200_LN_5_LD_10_RN_14_RD_20_1.png","img2/200/Incongruent/R/I_Dist_200_LN_7_LD_15_RN_6_RD_9_1.png","img2/100/Congruent/R/C_Dist_100_LN_2_LD_5_RN_11_RD_22_1.png","img2/100/Incongruent/L/I_Dist_100_LN_9_LD_10_RN_20_RD_25_0.png","img2/100/Congruent/L/C_Dist_100_LN_10_LD_25_RN_3_RD_10_0.png","img2/300/Congruent/R/C_Dist_300_LN_5_LD_25_RN_7_RD_14_1.png","img2/200/Congruent/R/C_Dist_200_LN_3_LD_6_RN_14_RD_20_1.png","img2/100/Congruent/R/C_Dist_100_LN_7_LD_14_RN_15_RD_25_1.png","img2/200/Incongruent/R/I_Dist_200_LN_7_LD_15_RN_6_RD_9_1.png","img2/100/Congruent/L/C_Dist_100_LN_15_LD_25_RN_13_RD_26_0.png","img2/100/Congruent/L/C_Dist_100_LN_6_LD_20_RN_5_RD_25_0.png","img2/200/Incongruent/L/I_Dist_200_LN_7_LD_10_RN_8_RD_16_0.png","img2/200/Incongruent/R/I_Dist_200_LN_7_LD_15_RN_6_RD_9_1.png","img2/200/Congruent/L/C_Dist_200_LN_4_LD_8_RN_3_RD_10_0.png","img2/200/Incongruent/L/I_Dist_200_LN_1_LD_3_RN_2_RD_15_0.png","img2/100/Incongruent/L/I_Dist_100_LN_4_LD_8_RN_8_RD_20_0.png","img2/200/Incongruent/L/I_Dist_200_LN_7_LD_10_RN_12_RD_24_0.png","img2/200/Congruent/R/C_Dist_200_LN_6_LD_20_RN_11_RD_22_1.png","img2/100/Congruent/L/C_Dist_100_LN_8_LD_16_RN_2_RD_5_0.png","img2/100/Congruent/R/C_Dist_100_LN_2_LD_5_RN_11_RD_22_1.png","img2/100/Incongruent/R/I_Dist_100_LN_8_LD_16_RN_6_RD_10_1.png","img2/100/Congruent/L/C_Dist_100_LN_9_LD_15_RN_8_RD_16_0.png","img2/300/Congruent/L/C_Dist_300_LN_20_LD_25_RN_5_RD_10_0.png","img2/200/Incongruent/L/I_Dist_200_LN_1_LD_2_RN_3_RD_10_0.png","img2/100/Incongruent/L/I_Dist_100_LN_3_LD_6_RN_4_RD_10_0.png","img2/300/Incongruent/R/I_Dist_300_LN_4_LD_20_RN_2_RD_4_1.png","img2/300/Congruent/L/C_Dist_300_LN_11_LD_22_RN_4_RD_20_0.png","img2/100/Congruent/L/C_Dist_100_LN_8_LD_16_RN_2_RD_5_0.png","img2/200/Congruent/L/C_Dist_200_LN_16_LD_20_RN_12_RD_20_0.png","img2/300/Incongruent/L/I_Dist_300_LN_4_LD_5_RN_6_RD_12_0.png","img2/300/Incongruent/R/I_Dist_300_LN_13_LD_26_RN_12_RD_15_1.png","img2/200/Incongruent/R/I_Dist_200_LN_7_LD_15_RN_4_RD_6_1.png","img2/100/Incongruent/L/I_Dist_100_LN_6_LD_10_RN_11_RD_22_0.png","img2/100/Incongruent/R/I_Dist_100_LN_11_LD_22_RN_9_RD_15_1.png","img2/300/Congruent/R/C_Dist_300_LN_1_LD_3_RN_19_RD_30_1.png","img2/200/Incongruent/L/I_Dist_200_LN_4_LD_5_RN_6_RD_10_0.png","img2/200/Congruent/R/C_Dist_200_LN_3_LD_12_RN_9_RD_20_1.png","img2/300/Incongruent/R/I_Dist_300_LN_4_LD_20_RN_2_RD_4_1.png","img2/300/Incongruent/R/I_Dist_300_LN_13_LD_26_RN_12_RD_15_1.png","img2/300/Incongruent/L/I_Dist_300_LN_2_LD_4_RN_6_RD_30_0.png","img2/100/Incongruent/L/I_Dist_100_LN_1_LD_2_RN_8_RD_20_0.png","img2/200/Congruent/L/C_Dist_200_LN_4_LD_8_RN_3_RD_10_0.png","img2/200/Incongruent/R/I_Dist_200_LN_6_LD_20_RN_3_RD_6_1.png","img2/300/Incongruent/R/I_Dist_300_LN_13_LD_26_RN_12_RD_15_1.png","img2/100/Incongruent/L/I_Dist_100_LN_6_LD_10_RN_11_RD_22_0.png","img2/300/Incongruent/L/I_Dist_300_LN_3_LD_6_RN_4_RD_20_0.png","img2/200/Incongruent/R/I_Dist_200_LN_6_LD_20_RN_3_RD_6_1.png","img2/100/Incongruent/R/I_Dist_100_LN_12_LD_30_RN_2_RD_4_1.png","img2/300/Congruent/L/C_Dist_300_LN_24_LD_30_RN_8_RD_16_0.png","img2/200/Incongruent/L/I_Dist_200_LN_4_LD_6_RN_14_RD_30_0.png","img2/200/Incongruent/L/I_Dist_200_LN_3_LD_4_RN_11_RD_20_0.png","img2/200/Congruent/R/C_Dist_200_LN_9_LD_30_RN_13_RD_26_1.png","img2/100/Congruent/R/C_Dist_100_LN_1_LD_2_RN_18_RD_30_1.png","img2/200/Incongruent/R/I_Dist_200_LN_3_LD_10_RN_1_RD_2_1.png","img2/100/Incongruent/L/I_Dist_100_LN_3_LD_6_RN_4_RD_10_0.png","img2/300/Incongruent/L/I_Dist_300_LN_1_LD_2_RN_2_RD_10_0.png"],"dist100_C":[["C_Dist_100_LN_10_LD_25_RN_3_RD_10_0.png","C_Dist_100_LN_11_LD_22_RN_4_RD_10_0.png","C_Dist_100_LN_11_LD_22_RN_6_RD_15_0.png","C_Dist_100_LN_15_LD_25_RN_13_RD_26_0.png","C_Dist_100_LN_3_LD_6_RN_2_RD_5_0.png","C_Dist_100_LN_6_LD_20_RN_5_RD_25_0.png","C_Dist_100_LN_8_LD_16_RN_2_RD_5_0.png","C_Dist_100_LN_9_LD_15_RN_8_RD_16_0.png"],["C_Dist_100_LN_1_LD_2_RN_18_RD_30_1.png","C_Dist_100_LN_1_LD_2_RN_3_RD_5_1.png","C_Dist_100_LN_12_LD_30_RN_13_RD_26_1.png","C_Dist_100_LN_2_LD_5_RN_11_RD_22_1.png","C_Dist_100_LN_2_LD_5_RN_6_RD_12_1.png","C_Dist_100_LN_3_LD_20_RN_4_RD_16_1.png","C_Dist_100_LN_4_LD_10_RN_15_RD_30_1.png","C_Dist_100_LN_4_LD_8_RN_6_RD_10_1.png","C_Dist_100_LN_6_LD_12_RN_15_RD_25_1.png","C_Dist_100_LN_7_LD_14_RN_15_RD_25_1.png","C_Dist_100_LN_7_LD_14_RN_9_RD_15_1.png"]],"dist100_I":[["I_Dist_100_LN_1_LD_2_RN_8_RD_20_0.png","I_Dist_100_LN_2_LD_4_RN_6_RD_15_0.png","I_Dist_100_LN_2_LD_4_RN_8_RD_20_0.png","I_Dist_100_LN_3_LD_5_RN_11_RD_22_0.png","I_Dist_100_LN_3_LD_5_RN_8_RD_16_0.png","I_Dist_100_LN_3_LD_6_RN_4_RD_10_0.png","I_Dist_100_LN_3_LD_9_RN_7_RD_30_0.png","I_Dist_100_LN_4_LD_8_RN_8_RD_20_0.png","I_Dist_100_LN_6_LD_10_RN_11_RD_22_0.png","I_Dist_100_LN_6_LD_10_RN_13_RD_26_0.png","I_Dist_100_LN_6_LD_10_RN_7_RD_14_0.png","I_Dist_100_LN_9_LD_10_RN_20_RD_25_0.png","I_Dist_100_LN_9_LD_15_RN_13_RD_26_0.png","I_Dist_100_LN_9_LD_15_RN_14_RD_28_0.png"],["I_Dist_100_LN_10_LD_25_RN_8_RD_16_1.png","I_Dist_100_LN_10_LD_25_RN_9_RD_18_1.png","I_Dist_100_LN_11_LD_22_RN_9_RD_15_1.png","I_Dist_100_LN_12_LD_24_RN_9_RD_15_1.png","I_Dist_100_LN_12_LD_30_RN_2_RD_4_1.png","I_Dist_100_LN_13_LD_26_RN_12_RD_20_1.png","I_Dist_100_LN_13_LD_26_RN_6_RD_10_1.png","I_Dist_100_LN_17_LD_30_RN_10_RD_15_1.png","I_Dist_100_LN_6_LD_12_RN_3_RD_5_1.png","I_Dist_100_LN_8_LD_16_RN_6_RD_10_1.png","I_Dist_100_LN_8_LD_20_RN_1_RD_2_1.png","I_Dist_100_LN_9_LD_18_RN_6_RD_10_1.png"]],"dist100_S":[["E_Dist_100_LN_2_LD_12_RN_2_RD_30_0.png","E_Dist_100_LN_6_LD_10_RN_6_RD_12_0.png"],["E_Dist_100_LN_6_LD_12_RN_6_RD_10_1.png"]],"dist200_C":[["C_Dist_200_LN_11_LD_22_RN_3_RD_10_0.png","C_Dist_200_LN_12_LD_15_RN_6_RD_10_0.png","C_Dist_200_LN_12_LD_20_RN_6_RD_15_0.png","C_Dist_200_LN_14_LD_28_RN_6_RD_20_0.png","C_Dist_200_LN_15_LD_25_RN_4_RD_10_0.png","C_Dist_200_LN_16_LD_20_RN_12_RD_20_0.png","C_Dist_200_LN_16_LD_30_RN_9_RD_27_0.png","C_Dist_200_LN_20_LD_25_RN_9_RD_15_0.png","C_Dist_200_LN_21_LD_30_RN_2_RD_4_0.png","C_Dist_200_LN_4_LD_10_RN_3_RD_15_0.png","C_Dist_200_LN_4_LD_8_RN_3_RD_10_0.png","C_Dist_200_LN_6_LD_15_RN_3_RD_15_0.png","C_Dist_200_LN_7_LD_21_RN_2_RD_15_0.png","C_Dist_200_LN_8_LD_15_RN_2_RD_6_0.png","C_Dist_200_LN_8_LD_15_RN_3_RD_9_0.png","C_Dist_200_LN_8_LD_15_RN_7_RD_21_0.png","C_Dist_200_LN_9_LD_20_RN_4_RD_16_0.png"],["C_Dist_200_LN_1_LD_2_RN_21_RD_30_1.png","C_Dist_200_LN_13_LD_26_RN_14_RD_20_1.png","C_Dist_200_LN_3_LD_10_RN_11_RD_22_1.png","C_Dist_200_LN_3_LD_10_RN_14_RD_28_1.png","C_Dist_200_LN_3_LD_10_RN_7_RD_14_1.png","C_Dist_200_LN_3_LD_12_RN_9_RD_20_1.png","C_Dist_200_LN_3_LD_6_RN_14_RD_20_1.png","C_Dist_200_LN_5_LD_10_RN_14_RD_20_1.png","C_Dist_200_LN_6_LD_12_RN_7_RD_10_1.png","C_Dist_200_LN_6_LD_20_RN_11_RD_22_1.png","C_Dist_200_LN_7_LD_15_RN_18_RD_27_1.png","C_Dist_200_LN_9_LD_30_RN_13_RD_26_1.png"]],"dist200_I":[["I_Dist_200_LN_1_LD_2_RN_3_RD_10_0.png","I_Dist_200_LN_1_LD_3_RN_2_RD_15_0.png","I_Dist_200_LN_3_LD_4_RN_11_RD_20_0.png","I_Dist_200_LN_4_LD_5_RN_6_RD_10_0.png","I_Dist_200_LN_4_LD_6_RN_14_RD_30_0.png","I_Dist_200_LN_7_LD_10_RN_12_RD_24_0.png","I_Dist_200_LN_7_LD_10_RN_14_RD_28_0.png","I_Dist_200_LN_7_LD_10_RN_8_RD_16_0.png"],["I_Dist_200_LN_11_LD_20_RN_3_RD_4_1.png","I_Dist_200_LN_14_LD_30_RN_12_RD_18_1.png","I_Dist_200_LN_14_LD_30_RN_6_RD_9_1.png","I_Dist_200_LN_3_LD_10_RN_1_RD_2_1.png","I_Dist_200_LN_4_LD_30_RN_1_RD_3_1.png","I_Dist_200_LN_6_LD_20_RN_3_RD_6_1.png","I_Dist_200_LN_7_LD_15_RN_4_RD_6_1.png","I_Dist_200_LN_7_LD_15_RN_6_RD_9_1.png","I_Dist_200_LN_9_LD_15_RN_8_RD_10_1.png"]],"dist200_S":[["E_Dist_200_LN_3_LD_6_RN_3_RD_10_0.png"],["E_Dist_200_LN_3_LD_10_RN_3_RD_6_1.png"]],"dist300_C":[["C_Dist_300_LN_11_LD_22_RN_1_RD_5_0.png","C_Dist_300_LN_11_LD_22_RN_2_RD_10_0.png","C_Dist_300_LN_11_LD_22_RN_4_RD_20_0.png","C_Dist_300_LN_12_LD_24_RN_2_RD_10_0.png","C_Dist_300_LN_18_LD_20_RN_9_RD_15_0.png","C_Dist_300_LN_20_LD_25_RN_13_RD_26_0.png","C_Dist_300_LN_20_LD_25_RN_14_RD_28_0.png","C_Dist_300_LN_20_LD_25_RN_5_RD_10_0.png","C_Dist_300_LN_20_LD_25_RN_8_RD_16_0.png","C_Dist_300_LN_20_LD_25_RN_9_RD_18_0.png","C_Dist_300_LN_24_LD_30_RN_2_RD_4_0.png","C_Dist_300_LN_24_LD_30_RN_8_RD_16_0.png","C_Dist_300_LN_3_LD_6_RN_2_RD_10_0.png","C_Dist_300_LN_4_LD_10_RN_1_RD_10_0.png","C_Dist_300_LN_4_LD_5_RN_2_RD_4_0.png","C_Dist_300_LN_8_LD_16_RN_1_RD_5_0.png","C_Dist_300_LN_9_LD_10_RN_3_RD_5_0.png"],["C_Dist_300_LN_1_LD_20_RN_7_RD_20_1.png","C_Dist_300_LN_1_LD_3_RN_19_RD_30_1.png","C_Dist_300_LN_1_LD_30_RN_8_RD_24_1.png","C_Dist_300_LN_1_LD_5_RN_11_RD_22_1.png","C_Dist_300_LN_1_LD_5_RN_3_RD_6_1.png","C_Dist_300_LN_1_LD_5_RN_6_RD_12_1.png","C_Dist_300_LN_2_LD_10_RN_12_RD_24_1.png","C_Dist_300_LN_2_LD_20_RN_10_RD_25_1.png","C_Dist_300_LN_3_LD_12_RN_11_RD_20_1.png","C_Dist_300_LN_3_LD_6_RN_4_RD_5_1.png","C_Dist_300_LN_4_LD_20_RN_13_RD_26_1.png","C_Dist_300_LN_5_LD_25_RN_6_RD_12_1.png","C_Dist_300_LN_5_LD_25_RN_7_RD_14_1.png","C_Dist_300_LN_7_LD_14_RN_20_RD_25_1.png","C_Dist_300_LN_8_LD_15_RN_10_RD_12_1.png"]],"dist300_I":[["I_Dist_300_LN_1_LD_2_RN_2_RD_10_0.png","I_Dist_300_LN_1_LD_2_RN_3_RD_15_0.png","I_Dist_300_LN_2_LD_4_RN_6_RD_30_0.png","I_Dist_300_LN_3_LD_6_RN_4_RD_20_0.png","I_Dist_300_LN_4_LD_5_RN_6_RD_12_0.png","I_Dist_300_LN_4_LD_5_RN_8_RD_16_0.png","I_Dist_300_LN_7_LD_10_RN_8_RD_20_0.png","I_Dist_300_LN_8_LD_10_RN_14_RD_28_0.png","I_Dist_300_LN_8_LD_10_RN_9_RD_18_0.png"],["I_Dist_300_LN_13_LD_26_RN_12_RD_15_1.png","I_Dist_300_LN_4_LD_20_RN_2_RD_4_1.png"]],"dist300_S":[["E_Dist_300_LN_9_LD_12_RN_9_RD_20_0.png"],["E_Dist_300_LN_18_LD_30_RN_18_RD_20_1.png","E_Dist_300_LN_3_LD_10_RN_3_RD_5_1.png","E_Dist_300_LN_9_LD_20_RN_9_RD_12_1.png"]],"dist500_C":[["C_Dist_500_LN_10_LD_13_RN_7_RD_26_0.png","C_Dist_500_LN_10_LD_15_RN_4_RD_24_0.png","C_Dist_500_LN_12_LD_16_RN_3_RD_12_0.png","C_Dist_500_LN_12_LD_18_RN_4_RD_24_0.png","C_Dist_500_LN_15_LD_18_RN_5_RD_15_0.png","C_Dist_500_LN_15_LD_20_RN_1_RD_4_0.png","C_Dist_500_LN_18_LD_27_RN_1_RD_6_0.png","C_Dist_500_LN_20_LD_24_RN_1_RD_3_0.png","C_Dist_500_LN_20_LD_24_RN_3_RD_9_0.png","C_Dist_500_LN_20_LD_24_RN_7_RD_21_0.png","C_Dist_500_LN_20_LD_28_RN_3_RD_14_0.png","C_Dist_500_LN_21_LD_28_RN_6_RD_24_0.png","C_Dist_500_LN_22_LD_28_RN_2_RD_7_0.png","C_Dist_500_LN_25_LD_30_RN_9_RD_27_0.png","C_Dist_500_LN_4_LD_6_RN_1_RD_6_0.png","C_Dist_500_LN_5_LD_6_RN_2_RD_6_0.png","C_Dist_500_LN_6_LD_9_RN_1_RD_6_0.png","C_Dist_500_LN_7_LD_10_RN_1_RD_5_0.png","C_Dist_500_LN_8_LD_12_RN_1_RD_6_0.png","C_Dist_500_LN_8_LD_12_RN_4_RD_24_0.png"],["C_Dist_500_LN_1_LD_4_RN_12_RD_16_1.png","C_Dist_500_LN_1_LD_4_RN_9_RD_12_1.png","C_Dist_500_LN_1_LD_9_RN_11_RD_18_1.png","C_Dist_500_LN_10_LD_24_RN_22_RD_24_1.png","C_Dist_500_LN_2_LD_12_RN_10_RD_15_1.png","C_Dist_500_LN_2_LD_12_RN_12_RD_18_1.png","C_Dist_500_LN_2_LD_12_RN_4_RD_6_1.png","C_Dist_500_LN_2_LD_24_RN_7_RD_12_1.png","C_Dist_500_LN_2_LD_5_RN_18_RD_20_1.png","C_Dist_500_LN_2_LD_5_RN_9_RD_10_1.png","C_Dist_500_LN_2_LD_8_RN_12_RD_16_1.png","C_Dist_500_LN_2_LD_8_RN_21_RD_28_1.png","C_Dist_500_LN_3_LD_10_RN_4_RD_5_1.png","C_Dist_500_LN_3_LD_12_RN_15_RD_20_1.png","C_Dist_500_LN_3_LD_30_RN_6_RD_10_1.png","C_Dist_500_LN_3_LD_8_RN_14_RD_16_1.png","C_Dist_500_LN_4_LD_16_RN_15_RD_20_1.png","C_Dist_500_LN_4_LD_24_RN_12_RD_18_1.png","C_Dist_500_LN_5_LD_14_RN_6_RD_7_1.png","C_Dist_500_LN_7_LD_21_RN_20_RD_24_1.png","C_Dist_500_LN_7_LD_28_RN_12_RD_16_1.png","C_Dist_500_LN_7_LD_28_RN_9_RD_12_1.png","C_Dist_500_LN_9_LD_27_RN_20_RD_24_1.png"]],"dist500_I":[["I_Dist_500_LN_2_LD_3_RN_4_RD_24_0.png","I_Dist_500_LN_5_LD_6_RN_6_RD_18_0.png","I_Dist_500_LN_7_LD_8_RN_9_RD_24_0.png"],["I_Dist_500_LN_7_LD_21_RN_5_RD_6_1.png"]],"dist500_S":[["E_Dist_500_LN_6_LD_8_RN_6_RD_24_0.png"],["E_Dist_500_LN_2_LD_12_RN_2_RD_3_1.png","E_Dist_500_LN_6_LD_24_RN_6_RD_8_1.png"]]}},{"start_time":1551891080525,"click_time":1551891082244,"finger_time":1551891081964,"fix_duration":538.6601877031648,"trial":1,"RT":1439,"MT":280,"sideResp":1,"stimulus":[],"xmouse":[812,812,812,812,812,812,812,812,812,812,812,812,812,812,812,812,812,812,812,812,812,812,812,812,812,812,812,812,812,812,812,812,812,812,812,812,812,812,812,812,812,812,812,812,812,812,812,812,812,812,812,812,812,812,812,812,812,812,812,812,812,812,812,812,812,812,812,812,812,812,812,802,740,654,577,532,501,496,490,477,449,423,421,421,421,424,432],"ymouse":[526,526,526,526,526,526,526,526,526,526,526,526,526,526,526,526,526,526,526,526,526,526,526,526,526,526,526,526,526,526,526,526,526,526,526,526,526,526,526,526,526,526,526,526,526,526,526,526,526,526,526,526,526,526,526,526,526,526,526,526,526,526,526,526,526,526,526,526,526,526,526,525,487,417,360,333,317,314,301,263,153,67,55,50,44,35,18],"timestamp_mouse":[1,19,38,58,79,98,118,139,159,179,198,219,238,258,279,300,318,338,359,378,398,418,438,458,478,499,518,538,558,579,599,618,638,658,679,699,719,738,760,779,799,818,838,859,879,898,919,940,959,979,998,1018,1038,1059,1078,1098,1118,1140,1159,1178,1198,1219,1238,1258,1278,1298,1319,1338,1358,1379,1400,1419,1439,1458,1478,1498,1519,1539,1559,1578,1598,1618,1638,1658,1678,1698,1718],"xSR":741.5,"ySR":481,"xT1":424.9,"yT1":0,"xT2":1058.1,"yT2":0,"toosoon":0,"cond_shown":"Incongruent","ratio_trial":300,"L_num":7,"L_den":10,"R_num":8,"R_den":20,"correct_side":1,"subjID":"juandavidmonroycuevas5","gender":"0","school":"6","age":"12"},{"start_time":1551891084423,"click_time":1551891085943,"finger_time":1551891085304,"fix_duration":1038.4276879011024,"trial":2,"RT":881,"MT":639,"sideResp":2,"stimulus":[],"xmouse":[808,808,808,808,808,808,808,808,808,808,808,808,808,808,808,808,808,808,808,808,808,808,808,808,808,808,808,808,808,808,808,808,808,808,808,808,808,808,808,808,808,808,812,816,842,932,1098,1184,1248,1279,1305,1350,1373,1390,1409,1440,1461,1461,1456,1444,1425,1387,1368,1346,1327,1303,1282,1270,1260,1242,1223,1184,1169,1155,1152,1142,1127],"ymouse":[526,526,526,526,526,526,526,526,526,526,526,526,526,526,526,526,526,526,526,526,526,526,526,526,526,526,526,526,526,526,526,526,526,526,526,526,526,526,526,526,526,526,528,529,536,554,576,587,590,590,590,580,569,556,537,487,425,404,379,353,318,267,245,228,214,201,188,184,181,176,170,156,149,135,132,113,83],"timestamp_mouse":[3,20,43,60,80,101,120,141,162,180,201,221,240,260,281,300,320,340,361,381,400,420,440,462,480,501,521,542,562,580,600,620,640,660,682,700,720,741,760,781,800,822,840,861,881,901,921,940,960,981,1000,1020,1042,1061,1081,1101,1121,1141,1160,1181,1200,1220,1240,1261,1280,1300,1320,1341,1361,1380,1402,1421,1440,1460,1480,1500,1520],"xSR":741.5,"ySR":481,"xT1":424.9,"yT1":0,"xT2":1058.1,"yT2":0,"toosoon":0,"cond_shown":"Congruent","ratio_trial":200,"L_num":7,"L_den":15,"R_num":18,"R_den":27,"correct_side":2,"subjID":"juandavidmonroycuevas5","gender":"0","school":"6","age":"12"},{"start_time":1551891087608,"click_time":1551891089303,"finger_time":1551891089044,"fix_duration":683.1297787772997,"trial":3,"RT":1436,"MT":259,"sideResp":2,"stimulus":[],"xmouse":[778,778,778,778,778,778,778,778,778,778,778,778,778,778,778,778,778,778,778,778,778,778,778,778,778,778,778,778,778,778,778,778,778,778,778,778,778,778,778,778,778,778,779,781,782,783,787,788,791,794,799,806,810,818,820,825,829,829,829,829,829,829,829,829,829,829,829,829,829,834,838,867,881,899,948,1003,1089,1115,1136,1147,1148,1143,1134,1123,1115],"ymouse":[557,557,557,557,557,557,557,557,557,557,557,557,557,557,557,557,557,557,557,557,557,557,557,557,557,557,557,557,557,557,557,557,557,557,557,557,557,557,557,557,557,557,557,557,556,556,556,556,556,557,557,559,561,563,564,565,566,566,566,566,566,566,566,566,566,566,566,566,566,566,564,554,549,541,512,472,394,349,298,250,211,151,128,107,93],"timestamp_mouse":[16,35,56,75,95,115,135,155,175,196,215,236,255,275,296,315,336,355,375,395,415,436,455,475,495,515,536,555,575,597,616,636,655,676,697,716,736,756,775,795,815,835,855,875,895,915,936,956,976,995,1015,1035,1055,1076,1095,1115,1135,1156,1175,1196,1215,1236,1255,1275,1295,1315,1335,1356,1375,1396,1416,1436,1456,1476,1495,1515,1536,1556,1575,1596,1616,1635,1655,1675,1695],"xSR":741.5,"ySR":481,"xT1":424.9,"yT1":0,"xT2":1058.1,"yT2":0,"toosoon":0,"cond_shown":"Incongruent","ratio_trial":300,"L_num":4,"L_den":20,"R_num":2,"R_den":4,"correct_side":2,"subjID":"juandavidmonroycuevas5","gender":"0","school":"6","age":"12"},{"start_time":1551891092642,"click_time":1551891094203,"finger_time":1551891093764,"fix_duration":1178.1492322272588,"trial":4,"RT":1122,"MT":439,"sideResp":1,"stimulus":[],"xmouse":[798,798,798,798,798,798,798,798,798,798,798,798,798,798,798,798,798,798,798,798,798,798,798,798,798,798,798,798,798,798,798,798,798,798,798,798,798,798,798,798,798,798,798,798,798,798,798,799,801,804,809,806,788,752,747,747,741,716,660,606,545,522,505,492,485,489,496,504,507,511,517,519,520,520,518,498,485,466,449],"ymouse":[532,532,532,532,532,532,532,532,532,532,532,532,532,532,532,532,532,532,532,532,532,532,532,532,532,532,532,532,532,532,532,532,532,532,532,532,532,532,532,532,532,532,532,532,532,532,532,534,535,537,539,539,540,540,540,540,536,508,462,425,392,378,363,341,295,251,238,224,217,208,187,178,173,169,159,132,119,102,87],"timestamp_mouse":[9,29,42,61,81,101,121,141,162,182,202,222,242,261,282,301,321,342,361,382,401,422,443,461,481,502,522,541,562,582,601,621,642,661,681,702,722,742,763,782,801,821,841,861,881,902,921,941,962,982,1001,1022,1041,1062,1081,1102,1122,1141,1161,1181,1201,1223,1242,1261,1282,1302,1322,1342,1363,1381,1401,1421,1442,1461,1481,1501,1521,1542,1561],"xSR":741.5,"ySR":481,"xT1":424.9,"yT1":0,"xT2":1058.1,"yT2":0,"toosoon":0,"cond_shown":"Incongruent","ratio_trial":200,"L_num":4,"L_den":5,"R_num":6,"R_den":10,"correct_side":1,"subjID":"juandavidmonroycuevas5","gender":"0","school":"6","age":"12"},{"start_time":1551891095335,"click_time":1551891096963,"finger_time":1551891096743,"fix_duration":291.36524459477306,"trial":5,"RT":1408,"MT":220,"sideResp":1,"stimulus":[],"xmouse":[784,784,784,784,784,784,784,784,784,784,784,784,784,784,784,784,784,784,784,784,784,784,784,784,784,784,784,784,784,784,784,784,784,784,784,784,784,784,784,784,784,784,784,784,784,784,784,784,784,784,784,784,784,784,784,784,784,784,784,784,784,784,784,784,784,784,784,784,774,754,696,658,626,591,559,491,460,443,440,440,440,440],"ymouse":[526,526,526,526,526,526,526,526,526,526,526,526,526,526,526,526,526,526,526,526,526,526,526,526,526,526,526,526,526,526,526,526,526,526,526,526,526,526,526,526,526,526,526,526,526,526,526,526,526,526,526,526,526,526,526,526,526,526,526,526,526,526,526,526,526,526,526,526,522,511,464,432,406,375,349,280,238,203,184,160,135,99],"timestamp_mouse":[8,29,48,68,88,108,129,148,168,188,216,228,248,268,288,309,329,348,368,389,408,428,449,468,489,509,528,548,568,588,608,629,649,669,689,708,728,748,768,788,808,828,849,869,889,908,929,948,968,988,1008,1028,1048,1069,1088,1108,1128,1149,1169,1189,1208,1228,1248,1268,1288,1309,1329,1348,1368,1389,1408,1428,1448,1468,1488,1508,1528,1549,1568,1588,1608,1628],"xSR":741.5,"ySR":481,"xT1":424.9,"yT1":0,"xT2":1058.1,"yT2":0,"toosoon":0,"cond_shown":"Congruent","ratio_trial":200,"L_num":21,"L_den":30,"R_num":2,"R_den":4,"correct_side":1,"subjID":"juandavidmonroycuevas5","gender":"0","school":"6","age":"12"},{"start_time":1551891098374,"click_time":1551891100083,"finger_time":1551891099543,"fix_duration":429.58415065591515,"trial":6,"RT":1169,"MT":540,"sideResp":2,"stimulus":[],"xmouse":[801,801,801,801,801,801,801,801,801,801,801,801,801,801,801,801,801,801,801,801,801,801,801,801,801,801,801,801,801,801,801,801,801,801,801,801,801,801,801,801,801,801,801,801,801,801,801,801,802,802,803,804,804,805,808,812,820,829,893,939,996,1059,1105,1147,1153,1154,1142,1125,1103,1098,1096,1095,1094,1092,1091,1091,1091,1091,1091,1091,1092,1092,1092,1092,1092,1092],"ymouse":[513,513,513,513,513,513,513,513,513,513,513,513,513,513,513,513,513,513,513,513,513,513,513,513,513,513,513,513,513,513,513,513,513,513,513,513,513,513,513,513,513,513,513,513,513,513,513,514,515,515,516,517,518,518,521,526,533,540,567,581,588,588,584,547,517,436,370,308,233,211,196,186,177,158,152,149,149,149,149,147,138,127,117,104,100,94],"timestamp_mouse":[9,30,49,70,90,109,129,150,169,189,209,230,250,269,289,309,329,349,369,389,409,429,451,470,490,509,529,549,570,589,609,629,649,669,689,710,729,750,769,789,809,829,850,869,889,910,930,949,969,989,1009,1029,1049,1069,1090,1109,1129,1149,1169,1189,1209,1229,1249,1269,1290,1310,1329,1350,1370,1389,1409,1430,1449,1470,1489,1511,1531,1549,1569,1589,1609,1630,1650,1669,1689,1709],"xSR":741.5,"ySR":481,"xT1":424.9,"yT1":0,"xT2":1058.1,"yT2":0,"toosoon":0,"cond_shown":"Incongruent","ratio_trial":300,"L_num":13,"L_den":26,"R_num":12,"R_den":15,"correct_side":2,"subjID":"juandavidmonroycuevas5","gender":"0","school":"6","age":"12"},{"start_time":1551891102088,"click_time":1551891103862,"finger_time":1551891103484,"fix_duration":1042.1754931129592,"trial":7,"RT":1396,"MT":378,"sideResp":1,"stimulus":[],"xmouse":[820,820,820,820,820,820,820,820,820,820,820,820,820,820,820,820,820,820,820,820,820,820,820,820,820,820,820,820,820,820,820,820,820,820,820,820,820,820,820,820,820,820,820,820,820,820,820,820,820,820,820,820,820,820,820,820,820,820,820,820,820,820,820,820,820,819,812,772,750,720,709,665,585,549,515,485,474,469,469,472,483,490,499,500,500,500,500,494,489],"ymouse":[550,550,550,550,550,550,550,550,550,550,550,550,550,550,550,550,550,550,550,550,550,550,550,550,550,550,550,550,550,550,550,550,550,550,550,550,550,550,550,550,550,550,550,550,550,550,550,550,550,550,550,550,550,550,550,550,550,550,550,550,550,550,550,550,550,548,550,553,553,542,534,498,415,374,334,297,270,230,216,203,181,169,148,141,134,127,120,104,95],"timestamp_mouse":[15,35,55,75,95,115,136,156,175,195,215,235,256,275,295,315,335,355,375,395,416,435,455,476,496,514,534,554,575,595,615,635,654,675,694,715,735,756,775,796,816,836,856,875,896,914,934,955,974,994,1014,1035,1055,1074,1094,1115,1134,1156,1175,1195,1216,1235,1255,1274,1295,1315,1335,1354,1375,1396,1415,1434,1455,1475,1496,1514,1535,1554,1575,1596,1615,1635,1654,1674,1695,1714,1734,1754,1774],"xSR":741.5,"ySR":481,"xT1":424.9,"yT1":0,"xT2":1058.1,"yT2":0,"toosoon":0,"cond_shown":"Congruent","ratio_trial":300,"L_num":20,"L_den":25,"R_num":14,"R_den":28,"correct_side":1,"subjID":"juandavidmonroycuevas5","gender":"0","school":"6","age":"12"},{"start_time":1551891105547,"click_time":1551891107543,"finger_time":1551891106183,"fix_duration":683.1437135851477,"trial":8,"RT":636,"MT":1360,"sideResp":2,"stimulus":[],"xmouse":[776,776,776,776,776,776,776,776,776,776,776,776,776,776,776,776,776,776,776,776,776,776,776,776,776,776,777,778,781,800,814,823,830,834,842,848,860,914,971,1079,1123,1149,1162,1165,1165,1164,1164,1164,1164,1161,1161,1161,1161,1163,1166,1168,1168,1169,1169,1170,1170,1170,1170,1170,1170,1170,1170,1170,1170,1171,1171,1171,1168,1159,1138,1128,1117,1112,1108,1106,1105,1105,1105,1105,1105,1105,1105,1105,1105,1105,1105,1106,1108,1108,1108,1108,1108,1108,1108,1108],"ymouse":[527,527,527,527,527,527,527,527,527,527,527,527,527,527,527,527,527,527,527,527,527,527,527,527,527,527,527,527,529,552,575,588,597,601,604,606,609,614,614,597,575,554,531,507,457,437,422,409,402,389,383,379,374,371,366,365,364,363,363,363,363,362,362,361,359,351,345,338,333,315,306,295,278,259,222,209,191,180,172,164,162,162,162,161,161,161,161,161,161,161,161,159,155,150,137,130,121,112,100,86],"timestamp_mouse":[15,36,55,76,95,115,135,156,175,197,215,235,256,276,296,315,335,355,375,396,417,436,456,476,496,517,537,555,576,596,616,636,656,675,696,716,736,755,775,795,816,835,856,875,895,915,936,956,977,997,1017,1036,1056,1076,1096,1116,1136,1157,1176,1195,1215,1235,1256,1275,1296,1316,1336,1356,1376,1396,1416,1436,1455,1477,1496,1516,1535,1555,1576,1595,1615,1636,1655,1676,1696,1715,1736,1756,1775,1795,1815,1837,1857,1876,1896,1916,1936,1956,1975,1995],"xSR":741.5,"ySR":481,"xT1":424.9,"yT1":0,"xT2":1058.1,"yT2":0,"toosoon":0,"cond_shown":"Congruent","ratio_trial":300,"L_num":1,"L_den":5,"R_num":11,"R_den":22,"correct_side":2,"subjID":"juandavidmonroycuevas5","gender":"0","school":"6","age":"12"},{"start_time":1551891109320,"click_time":1551891111443,"finger_time":1551891109583,"fix_duration":794.681357392925,"trial":9,"RT":263,"MT":1860,"sideResp":2,"stimulus":[],"xmouse":[822,822,823,824,824,824,824,824,824,824,823,823,823,823,831,839,839,839,839,839,839,839,839,839,839,839,839,839,839,839,839,839,839,839,839,839,831,818,807,798,793,786,784,784,787,790,796,802,808,815,818,819,819,816,813,809,803,794,791,784,781,773,770,769,767,767,767,767,767,767,767,767,769,771,773,774,774,774,774,777,778,787,797,816,842,867,931,953,962,977,988,1006,1011,1023,1043,1070,1106,1114,1117,1117,1117,1117,1113,1107,1100,1093,1084],"ymouse":[522,528,531,532,532,532,532,533,536,537,540,554,577,614,669,726,726,726,726,726,726,726,726,726,726,726,726,726,726,726,726,726,726,726,726,726,726,717,708,695,682,661,652,646,640,635,626,621,617,610,604,596,592,587,583,578,573,564,561,553,546,527,518,513,509,507,503,502,501,500,500,500,500,500,501,501,501,501,501,505,507,519,522,524,524,523,486,468,456,418,389,362,357,346,330,311,287,277,261,225,197,152,140,128,118,107,90],"timestamp_mouse":[8,31,42,62,83,102,124,143,163,183,202,222,242,263,284,303,323,344,363,384,403,422,444,463,482,502,523,543,562,583,603,624,642,662,682,703,723,742,763,783,803,822,843,864,884,904,922,943,962,983,1004,1022,1043,1064,1083,1103,1123,1143,1164,1184,1203,1222,1243,1264,1283,1302,1323,1343,1363,1383,1402,1422,1444,1462,1482,1504,1523,1543,1563,1584,1604,1623,1642,1663,1683,1704,1722,1742,1762,1783,1804,1823,1843,1862,1883,1902,1922,1943,1962,1983,2003,2023,2043,2063,2082,2103,2122],"xSR":741.5,"ySR":481,"xT1":424.9,"yT1":0,"xT2":1058.1,"yT2":0,"toosoon":0,"cond_shown":"Congruent","ratio_trial":300,"L_num":1,"L_den":5,"R_num":3,"R_den":6,"correct_side":2,"subjID":"juandavidmonroycuevas5","gender":"0","school":"6","age":"12"},{"start_time":1551891112696,"click_time":1551891114124,"finger_time":1551891113802,"fix_duration":250,"trial":10,"RT":1106,"MT":322,"sideResp":1,"stimulus":[],"xmouse":[803,803,803,803,803,803,803,803,803,803,803,803,803,803,803,803,803,802,802,802,802,802,802,802,802,802,802,802,802,802,802,802,802,802,799,798,796,794,794,794,793,792,792,791,790,790,790,788,785,783,778,772,765,758,752,738,723,706,668,647,630,617,598,590,574,562,551,531,525,522,522,522],"ymouse":[517,517,517,517,517,517,517,517,517,517,517,517,517,517,517,517,519,520,520,520,520,520,520,520,520,520,520,520,520,520,520,520,520,521,523,523,525,526,526,526,526,526,526,526,527,527,527,527,528,529,530,533,536,541,546,560,576,593,618,629,634,634,611,580,525,459,388,257,211,171,108,78],"timestamp_mouse":[7,36,46,66,88,108,127,146,167,186,206,227,246,267,286,307,326,348,366,387,406,426,447,466,488,506,527,547,567,586,607,627,647,668,686,706,728,747,766,786,806,827,846,867,886,907,928,947,966,987,1008,1027,1047,1067,1088,1106,1127,1147,1168,1186,1207,1226,1247,1267,1286,1306,1327,1347,1366,1386,1407,1428],"xSR":741.5,"ySR":481,"xT1":424.9,"yT1":0,"xT2":1058.1,"yT2":0,"toosoon":0,"cond_shown":"Incongruent","ratio_trial":300,"L_num":8,"L_den":10,"R_num":9,"R_den":18,"correct_side":1,"subjID":"juandavidmonroycuevas5","gender":"0","school":"6","age":"12"},{"start_time":1551891120179,"click_time":1551891121542,"finger_time":1551891121004,"fix_duration":853.4263850524871,"trial":11,"RT":825,"MT":538,"sideResp":1,"stimulus":[],"xmouse":[812,812,812,812,812,812,812,812,812,812,812,812,812,812,812,812,812,812,812,812,812,812,812,812,812,812,812,812,812,812,812,812,812,812,811,810,802,798,784,767,746,718,680,612,587,559,551,530,515,510,506,502,498,494,490,489,488,488,488,488,488,488,488,488,488,488,488,488,483],"ymouse":[544,544,544,544,544,544,544,544,544,544,544,544,544,544,544,544,544,544,544,544,544,544,544,544,544,544,544,544,544,544,544,544,544,544,544,546,552,554,558,559,559,551,530,474,436,381,366,329,294,278,264,251,238,219,207,204,197,193,187,185,180,175,170,159,147,142,120,103,66],"timestamp_mouse":[7,23,44,63,83,105,124,144,164,183,203,223,244,263,283,304,323,343,364,383,404,424,444,463,483,505,523,543,563,585,605,624,644,664,683,704,724,744,763,784,804,825,843,865,884,903,924,943,963,983,1004,1024,1044,1063,1083,1104,1124,1145,1164,1183,1203,1223,1243,1264,1283,1303,1324,1344,1363],"xSR":741.5,"ySR":481,"xT1":424.9,"yT1":0,"xT2":1058.1,"yT2":0,"toosoon":0,"cond_shown":"Congruent","ratio_trial":300,"L_num":20,"L_den":25,"R_num":8,"R_den":16,"correct_side":1,"subjID":"juandavidmonroycuevas5","gender":"0","school":"6","age":"12"},{"start_time":1551891123721,"click_time":1551891126143,"finger_time":1551891125563,"fix_duration":1496.0626253584928,"trial":12,"RT":1842,"MT":580,"sideResp":2,"stimulus":[],"xmouse":[793,793,793,793,793,793,793,793,793,793,793,793,793,793,793,793,793,793,793,793,793,793,793,793,793,793,793,793,793,793,793,793,793,793,793,793,793,793,793,793,793,793,793,793,793,793,793,793,793,793,793,793,793,793,793,793,793,793,793,793,793,793,793,793,793,793,793,793,793,793,793,793,793,793,793,793,793,793,793,793,793,793,793,793,793,793,793,793,793,793,800,824,838,859,891,939,1001,1001,1001,1361,1422,1463,1461,1445,1425,1408,1373,1358,1344,1326,1317,1311,1304,1301,1297,1292,1261,1241,1209,1188,1173,1155],"ymouse":[523,523,523,523,523,523,523,523,523,523,523,523,523,523,523,523,523,523,523,523,523,523,523,523,523,523,523,523,523,523,523,523,523,523,523,523,523,523,523,523,523,523,523,523,523,523,523,523,523,523,523,523,523,523,523,523,523,523,523,523,523,523,523,523,523,523,523,523,523,523,523,523,523,523,523,523,523,523,523,523,523,523,523,523,523,523,523,523,523,524,537,572,592,617,653,692,729,729,729,706,633,483,433,383,337,297,227,206,187,166,154,145,129,122,118,115,106,100,92,83,76,65],"timestamp_mouse":[8,22,44,63,81,102,121,141,163,181,202,222,241,262,282,303,322,342,363,381,402,422,441,463,481,503,521,543,561,582,601,621,643,661,682,703,722,742,762,782,802,822,843,862,881,901,923,942,963,983,1002,1022,1042,1063,1083,1102,1121,1142,1163,1183,1202,1222,1241,1262,1281,1303,1322,1341,1363,1382,1403,1422,1442,1462,1482,1501,1521,1542,1562,1583,1601,1621,1643,1661,1683,1703,1722,1742,1762,1781,1802,1822,1841,1863,1883,1903,1923,1941,1962,1982,2001,2022,2041,2061,2082,2101,2121,2142,2162,2182,2202,2222,2242,2261,2281,2302,2321,2343,2362,2381,2402,2421],"xSR":741.5,"ySR":481,"xT1":424.9,"yT1":0,"xT2":1058.1,"yT2":0,"toosoon":0,"cond_shown":"Congruent","ratio_trial":100,"L_num":6,"L_den":20,"R_num":5,"R_den":25,"correct_side":1,"subjID":"juandavidmonroycuevas5","gender":"0","school":"6","age":"12"},{"start_time":1551891128642,"click_time":1551891131003,"finger_time":1551891130242,"fix_duration":937.9591598727193,"trial":13,"RT":1600,"MT":761,"sideResp":1,"stimulus":[],"xmouse":[800,800,800,800,800,800,800,800,800,800,800,800,800,800,800,800,800,800,800,800,800,800,800,800,800,800,800,800,800,800,800,800,800,800,800,800,800,800,800,800,800,800,800,800,800,800,800,800,800,800,800,800,800,800,800,800,800,800,800,800,800,800,800,800,800,800,800,800,800,800,800,800,800,800,800,800,800,795,784,760,720,711,707,698,676,658,616,597,580,572,561,551,540,518,507,492,488,485,484,481,477,477,477,477,480,484,486,487,487,487,487,483,481,481,481,481,480,480,479],"ymouse":[524,524,524,524,524,524,524,524,524,524,524,524,524,524,524,524,524,524,524,524,524,524,524,524,524,524,524,524,524,524,524,524,524,524,524,524,524,524,524,524,524,524,524,524,524,524,524,524,524,524,524,524,524,524,524,524,524,524,524,524,524,524,524,524,524,524,524,524,524,524,524,524,524,524,524,524,524,531,540,551,569,573,575,577,580,580,558,543,524,511,476,452,428,381,360,325,312,301,290,280,258,246,233,221,202,185,177,168,158,145,133,113,106,105,104,102,101,100,99],"timestamp_mouse":[8,29,42,60,80,100,120,141,161,182,202,220,241,260,280,301,322,341,360,380,400,420,442,461,482,501,521,542,560,581,601,621,642,660,682,700,722,740,760,781,800,822,840,860,882,901,921,940,960,981,1000,1021,1041,1060,1081,1101,1121,1141,1161,1181,1200,1220,1241,1260,1280,1302,1321,1340,1361,1381,1400,1422,1442,1460,1480,1501,1520,1541,1561,1581,1600,1621,1642,1660,1680,1701,1721,1741,1760,1782,1801,1821,1841,1861,1880,1900,1920,1941,1961,1981,2001,2022,2041,2061,2082,2100,2121,2141,2160,2182,2201,2222,2240,2261,2281,2301,2322,2341,2360],"xSR":741.5,"ySR":481,"xT1":424.9,"yT1":0,"xT2":1058.1,"yT2":0,"toosoon":0,"cond_shown":"Congruent","ratio_trial":200,"L_num":4,"L_den":8,"R_num":3,"R_den":10,"correct_side":1,"subjID":"juandavidmonroycuevas5","gender":"0","school":"6","age":"12"},{"start_time":1551891132661,"click_time":1551891135863,"finger_time":1551891135242,"fix_duration":817.5029452620051,"trial":14,"RT":2581,"MT":621,"sideResp":2,"stimulus":[],"xmouse":[828,828,828,828,828,828,828,828,828,828,828,828,828,828,828,828,828,828,828,828,828,828,828,828,828,828,828,828,828,828,828,828,828,828,828,828,828,828,828,828,828,828,828,828,828,828,828,828,828,828,828,828,828,828,828,828,828,828,828,828,828,828,828,828,828,828,828,828,828,828,828,828,828,828,828,828,828,828,828,828,828,828,828,828,828,828,828,828,828,828,828,828,828,828,828,828,828,828,828,828,827,826,825,824,823,822,822,822,822,822,822,822,822,822,822,822,822,822,823,826,828,828,828,828,828,829,831,832,834,843,847,851,866,878,905,921,951,984,1012,1046,1053,1054,1054,1050,1049,1049,1049,1049,1049,1049,1049,1049,1049,1049,1049,1049,1049,1049,1049,1049,1136],"ymouse":[512,512,512,512,512,512,512,512,512,512,512,512,512,512,512,512,512,512,512,512,512,512,512,512,512,512,512,512,512,512,512,512,512,512,512,512,512,512,512,512,512,512,512,512,512,512,512,512,512,512,512,512,512,512,512,512,512,512,512,512,512,512,512,512,512,512,512,512,512,512,512,512,512,512,512,512,512,512,512,512,512,512,512,512,512,512,512,512,512,512,512,512,512,512,512,512,512,512,512,512,514,514,514,514,515,516,516,516,516,516,516,516,516,516,516,516,516,516,516,516,516,516,516,516,516,516,516,515,514,509,507,504,493,482,449,428,389,337,287,187,151,114,60,24,10,10,10,10,10,10,10,10,10,10,10,10,10,10,10,10,1],"timestamp_mouse":[10,23,42,62,81,103,121,142,162,182,202,222,243,262,281,301,323,341,362,382,402,421,442,461,481,502,523,543,563,581,601,622,641,663,681,701,721,742,762,781,801,821,842,862,881,902,922,942,961,982,1001,1023,1042,1061,1082,1101,1121,1141,1162,1182,1202,1223,1241,1261,1281,1302,1321,1342,1361,1382,1402,1422,1443,1461,1481,1503,1522,1542,1561,1581,1601,1621,1641,1661,1681,1702,1721,1742,1761,1783,1801,1822,1843,1861,1882,1902,1921,1942,1963,1983,2001,2022,2041,2062,2083,2102,2121,2142,2162,2182,2202,2222,2242,2263,2282,2303,2322,2342,2362,2381,2402,2423,2442,2462,2482,2502,2522,2543,2562,2581,2602,2622,2643,2662,2682,2701,2723,2741,2761,2781,2801,2821,2843,2862,2882,2902,2921,2942,2961,2982,3001,3021,3041,3063,3083,3102,3122,3143,3162,3182,3202],"xSR":741.5,"ySR":481,"xT1":424.9,"yT1":0,"xT2":1058.1,"yT2":0,"toosoon":0,"cond_shown":"Incongruent","ratio_trial":100,"L_num":9,"L_den":15,"R_num":13,"R_den":26,"correct_side":1,"subjID":"juandavidmonroycuevas5","gender":"0","school":"6","age":"12"},{"start_time":1551891137094,"click_time":1551891138662,"finger_time":1551891138524,"fix_duration":250,"trial":15,"RT":1430,"MT":138,"sideResp":2,"stimulus":[],"xmouse":[813,813,813,813,813,813,813,813,813,813,813,813,813,813,813,813,813,813,813,813,813,813,813,813,813,813,813,813,813,813,813,813,813,813,813,813,813,813,813,813,813,813,813,813,813,813,813,813,813,813,813,813,813,813,813,813,813,813,813,813,813,813,813,813,813,813,813,813,813,819,824,849,873,930,980,1035,1076,1103,1101],"ymouse":[550,550,550,550,550,550,550,550,550,550,550,550,550,550,550,550,550,550,550,550,550,550,550,550,550,550,550,550,550,550,550,550,550,550,550,550,550,550,550,550,550,550,550,550,550,550,550,550,550,550,550,550,550,550,550,550,550,550,550,550,550,550,550,550,550,550,550,550,550,549,548,539,524,450,352,248,174,105,78],"timestamp_mouse":[9,29,50,68,88,108,129,149,170,188,210,228,250,270,289,310,329,348,368,390,408,429,449,468,488,510,529,549,569,588,608,630,649,669,688,708,728,750,769,789,810,829,849,870,888,909,930,948,970,988,1008,1029,1048,1070,1089,1109,1129,1148,1169,1188,1208,1228,1248,1268,1289,1310,1329,1349,1369,1389,1409,1430,1449,1468,1488,1508,1529,1548,1568],"xSR":741.5,"ySR":481,"xT1":424.9,"yT1":0,"xT2":1058.1,"yT2":0,"toosoon":0,"cond_shown":"Congruent","ratio_trial":200,"L_num":6,"L_den":12,"R_num":7,"R_den":10,"correct_side":2,"subjID":"juandavidmonroycuevas5","gender":"0","school":"6","age":"12"},{"start_time":1551891140744,"click_time":1551891143062,"finger_time":1551891142363,"fix_duration":1100.9933792998852,"trial":16,"RT":1619,"MT":699,"sideResp":1,"stimulus":[],"xmouse":[828,828,828,828,828,828,828,828,828,828,828,828,828,828,828,828,828,828,828,828,828,828,828,828,828,828,828,828,828,828,828,828,828,828,828,828,828,828,828,828,828,828,828,828,828,828,828,828,828,828,828,828,828,828,828,828,828,828,828,828,828,828,828,828,828,828,828,828,828,828,828,828,828,824,812,806,799,790,772,758,711,687,667,650,617,603,586,565,555,548,539,539,539,539,539,539,539,535,531,527,519,516,513,511,505,504,504,503,503,503,503,503,503,503,503,503],"ymouse":[519,519,519,519,519,519,519,519,519,519,519,519,519,519,519,519,519,519,519,519,519,519,519,519,519,519,519,519,519,519,519,519,519,519,519,519,519,519,519,519,519,519,519,519,519,519,519,519,519,519,519,519,519,519,519,519,519,519,519,519,519,519,519,519,519,519,519,519,519,519,519,519,519,522,526,528,529,530,530,530,529,522,512,499,452,430,403,372,356,340,308,290,274,260,238,230,228,220,212,205,194,190,186,184,176,174,173,172,170,169,169,167,163,155,140,94],"timestamp_mouse":[18,40,58,79,100,118,140,159,179,198,218,238,259,278,298,319,338,358,378,399,418,439,458,480,499,520,538,558,578,599,620,638,658,679,698,718,739,758,779,798,820,839,859,878,898,920,938,958,978,999,1019,1040,1060,1079,1100,1119,1139,1158,1179,1199,1218,1238,1259,1279,1298,1320,1340,1358,1378,1399,1418,1440,1460,1479,1498,1519,1539,1558,1578,1599,1619,1638,1660,1679,1699,1719,1738,1759,1779,1798,1818,1839,1859,1879,1898,1918,1939,1959,1979,1999,2018,2038,2058,2079,2098,2120,2138,2158,2179,2199,2218,2238,2259,2280,2299,2318],"xSR":741.5,"ySR":481,"xT1":424.9,"yT1":0,"xT2":1058.1,"yT2":0,"toosoon":0,"cond_shown":"Congruent","ratio_trial":300,"L_num":11,"L_den":22,"R_num":1,"R_den":5,"correct_side":1,"subjID":"juandavidmonroycuevas5","gender":"0","school":"6","age":"12"},{"start_time":1551891145083,"click_time":1551891146903,"finger_time":1551891146482,"fix_duration":1379.102177768689,"trial":17,"RT":1399,"MT":421,"sideResp":1,"stimulus":[],"xmouse":[785,785,785,785,785,785,785,785,785,785,785,785,785,785,785,785,785,785,785,785,785,785,785,785,785,785,785,785,785,785,785,785,785,785,785,785,785,785,785,785,785,785,785,785,785,785,785,785,785,785,785,785,785,785,785,785,785,785,785,785,785,785,785,785,785,782,778,772,767,759,739,726,681,643,634,623,606,583,521,503,490,482,482,482,481,478,475,475,475,480,485,487],"ymouse":[501,501,501,501,501,501,501,501,501,501,501,501,501,501,501,501,501,501,501,501,501,501,501,501,501,501,501,501,501,501,501,501,501,501,501,501,501,501,501,501,501,501,501,501,501,501,501,501,501,501,501,501,501,501,501,501,501,501,501,501,501,501,501,501,501,503,505,507,508,510,510,510,506,477,455,431,401,364,284,263,248,229,215,186,171,157,147,140,122,112,100,94],"timestamp_mouse":[1,20,40,59,80,101,119,141,159,180,199,219,241,259,279,300,320,339,361,379,399,421,439,459,480,500,520,541,559,581,601,620,640,660,681,700,720,740,760,780,801,821,840,860,880,901,920,939,959,980,1001,1021,1040,1059,1080,1101,1120,1140,1159,1180,1200,1220,1240,1260,1280,1300,1320,1340,1359,1380,1399,1421,1441,1460,1479,1500,1521,1540,1560,1581,1600,1620,1640,1660,1679,1700,1719,1741,1760,1780,1799,1820],"xSR":741.5,"ySR":481,"xT1":424.9,"yT1":0,"xT2":1058.1,"yT2":0,"toosoon":0,"cond_shown":"Incongruent","ratio_trial":300,"L_num":8,"L_den":10,"R_num":9,"R_den":18,"correct_side":1,"subjID":"juandavidmonroycuevas5","gender":"0","school":"6","age":"12"},{"start_time":1551891147996,"click_time":1551891149963,"finger_time":1551891149243,"fix_duration":250,"trial":18,"RT":1247,"MT":720,"sideResp":1,"stimulus":[],"xmouse":[763,763,763,763,763,763,763,763,763,763,763,763,763,763,763,763,763,763,763,763,763,763,763,763,763,763,763,763,763,763,763,763,763,763,763,763,763,763,763,763,763,763,763,763,763,763,763,763,763,763,763,763,763,763,763,763,763,763,763,763,760,754,725,699,657,589,439,326,149,111,102,103,130,140,148,152,152,152,152,152,152,152,152,152,152,324,335,344,349,352,358,365,378,387,393,400,408,424,427],"ymouse":[507,507,508,508,508,508,508,508,508,508,508,508,508,508,508,508,508,508,508,508,508,508,508,508,508,508,508,508,508,508,508,508,508,508,508,508,508,508,508,508,508,508,508,508,508,508,508,508,508,508,508,508,508,508,508,508,508,508,508,511,514,517,522,522,508,476,391,313,158,101,76,56,23,13,6,2,2,2,2,2,2,2,2,2,2,1,6,10,12,12,14,15,20,21,22,23,23,23,23],"timestamp_mouse":[9,28,47,68,87,107,127,146,167,188,206,227,246,267,287,307,328,346,367,387,407,426,448,466,487,506,528,547,566,588,607,627,646,666,687,706,726,748,767,787,808,826,846,866,888,907,926,948,967,986,1006,1027,1047,1067,1086,1107,1126,1146,1166,1187,1207,1227,1247,1268,1286,1306,1326,1347,1367,1387,1407,1426,1447,1466,1486,1508,1528,1547,1567,1588,1608,1627,1648,1667,1687,1708,1728,1747,1768,1787,1808,1827,1847,1866,1886,1906,1928,1947,1967],"xSR":741.5,"ySR":481,"xT1":424.9,"yT1":0,"xT2":1058.1,"yT2":0,"toosoon":0,"cond_shown":"Congruent","ratio_trial":200,"L_num":21,"L_den":30,"R_num":2,"R_den":4,"correct_side":1,"subjID":"juandavidmonroycuevas5","gender":"0","school":"6","age":"12"},{"start_time":1551891151256,"click_time":1551891152924,"finger_time":1551891152542,"fix_duration":391.7672231857614,"trial":19,"RT":1286,"MT":382,"sideResp":2,"stimulus":[],"xmouse":[811,811,811,811,811,811,811,811,811,811,811,811,811,811,811,811,811,811,811,811,811,811,811,811,811,811,811,811,811,811,811,811,811,811,811,811,811,811,811,811,811,812,814,817,818,818,818,818,818,818,818,818,818,818,818,818,818,818,818,818,820,821,828,837,870,900,943,994,1037,1105,1130,1143,1155,1165,1169,1170,1171,1171,1171,1171,1170,1168,1159,1154],"ymouse":[554,554,554,554,554,554,554,554,554,554,554,554,554,554,554,554,554,554,554,554,554,554,554,554,554,554,554,554,554,554,554,554,554,554,554,554,554,554,554,554,557,560,563,567,569,569,569,569,569,569,569,569,569,569,569,569,569,569,569,569,569,570,570,570,567,554,535,504,467,342,273,227,193,154,119,108,97,91,84,67,56,51,38,32],"timestamp_mouse":[8,39,47,67,87,107,126,147,167,188,206,228,246,267,286,307,327,346,367,386,407,427,446,468,486,506,528,547,567,586,607,626,647,668,688,707,726,747,767,787,808,826,847,868,886,907,927,948,966,987,1007,1026,1046,1067,1086,1106,1126,1148,1166,1186,1207,1227,1248,1266,1286,1307,1327,1347,1367,1387,1406,1426,1447,1467,1486,1506,1526,1546,1567,1587,1606,1627,1648,1668],"xSR":741.5,"ySR":481,"xT1":424.9,"yT1":0,"xT2":1058.1,"yT2":0,"toosoon":0,"cond_shown":"Congruent","ratio_trial":100,"L_num":7,"L_den":14,"R_num":15,"R_den":25,"correct_side":2,"subjID":"juandavidmonroycuevas5","gender":"0","school":"6","age":"12"},{"start_time":1551891155395,"click_time":1551891157903,"finger_time":1551891157323,"fix_duration":1370.3572729666082,"trial":20,"RT":1928,"MT":580,"sideResp":2,"stimulus":[],"xmouse":[817,817,817,817,817,817,817,817,817,817,817,817,817,817,817,817,817,817,817,817,817,817,817,817,817,817,817,817,817,817,817,817,817,817,817,817,817,817,817,817,817,817,817,817,817,817,817,817,817,817,817,817,817,817,817,817,817,817,817,817,817,817,817,817,817,817,817,817,817,817,817,817,817,817,817,817,817,817,817,817,817,817,817,817,817,817,817,817,817,817,817,817,817,817,821,825,853,921,1125,1206,1254,1276,1287,1287,1287,1287,1287,1287,1278,1265,1254,1237,1211,1202,1193,1179,1173,1173,1173,1173,1173,1173,1173,1173,1173,1138],"ymouse":[542,542,542,542,542,542,542,542,542,542,542,542,542,542,542,542,542,542,542,542,542,542,542,542,542,542,542,542,542,542,542,542,542,542,542,542,542,542,542,542,542,542,542,542,542,542,542,542,542,542,542,542,542,542,542,542,542,542,542,542,542,542,542,542,542,542,542,542,542,542,542,542,542,542,542,542,542,542,542,542,542,542,542,542,542,542,542,542,542,542,542,542,542,542,542,543,545,544,495,458,420,381,309,279,251,210,191,169,122,95,75,55,27,20,13,4,0,0,0,0,0,0,0,0,0,8],"timestamp_mouse":[7,28,62,68,87,108,128,147,169,188,207,229,248,269,287,308,328,349,369,388,409,427,447,468,487,507,529,547,568,589,608,627,647,668,689,708,729,748,769,787,808,828,848,868,888,909,929,947,968,989,1008,1027,1047,1067,1088,1108,1127,1147,1168,1187,1208,1229,1247,1269,1287,1308,1328,1349,1367,1387,1408,1427,1447,1469,1489,1507,1529,1548,1569,1588,1608,1627,1648,1667,1687,1707,1728,1748,1767,1787,1809,1829,1847,1868,1889,1908,1928,1948,1968,1988,2008,2028,2047,2067,2088,2108,2128,2147,2168,2188,2207,2229,2248,2267,2288,2308,2328,2349,2369,2388,2409,2427,2448,2467,2489,2508],"xSR":741.5,"ySR":481,"xT1":424.9,"yT1":0,"xT2":1058.1,"yT2":0,"toosoon":0,"cond_shown":"Congruent","ratio_trial":300,"L_num":1,"L_den":30,"R_num":8,"R_den":24,"correct_side":2,"subjID":"juandavidmonroycuevas5","gender":"0","school":"6","age":"12"},{"start_time":1551891160167,"click_time":1551891161642,"finger_time":1551891161483,"fix_duration":1063.68901478626,"trial":21,"RT":1316,"MT":159,"sideResp":1,"stimulus":[],"xmouse":[786,786,786,786,786,786,786,786,786,786,786,786,786,786,786,786,786,786,786,786,786,786,786,786,786,786,786,786,786,786,786,786,786,786,786,786,786,786,786,786,786,786,786,786,786,786,786,786,786,786,786,786,786,786,786,786,786,786,786,786,787,787,784,770,752,727,666,612,509,476,460,460,460,460],"ymouse":[548,548,548,548,548,548,548,548,548,548,548,548,548,548,548,548,548,548,548,548,548,548,548,548,548,548,548,548,548,548,548,548,548,548,548,548,548,548,548,548,548,548,548,548,548,548,548,548,548,548,548,548,548,548,548,548,548,548,548,548,548,548,549,552,554,554,552,538,451,371,273,213,166,78],"timestamp_mouse":[15,37,56,77,95,115,136,155,175,196,216,235,255,275,296,316,336,356,376,396,415,436,455,475,496,516,535,555,575,595,616,636,655,675,695,715,735,755,776,796,816,836,856,876,896,915,936,955,976,995,1015,1037,1056,1076,1095,1115,1136,1156,1180,1197,1215,1235,1255,1276,1295,1316,1336,1357,1375,1395,1415,1436,1456,1475],"xSR":741.5,"ySR":481,"xT1":424.9,"yT1":0,"xT2":1058.1,"yT2":0,"toosoon":0,"cond_shown":"Congruent","ratio_trial":100,"L_num":11,"L_den":22,"R_num":6,"R_den":15,"correct_side":1,"subjID":"juandavidmonroycuevas5","gender":"0","school":"6","age":"12"},{"start_time":1551891163180,"click_time":1551891164742,"finger_time":1551891164281,"fix_duration":496.36710310048784,"trial":22,"RT":1101,"MT":461,"sideResp":2,"stimulus":[],"xmouse":[794,793,793,793,793,793,793,792,792,792,792,792,791,791,791,791,791,791,790,790,790,790,790,790,790,790,790,790,790,790,790,790,790,790,790,790,790,790,790,790,790,790,790,790,790,790,790,790,790,791,792,795,798,821,838,879,976,1206,1369,1383,1375,1340,1315,1300,1299,1296,1287,1274,1265,1253,1250,1244,1235,1223,1202,1191,1182,1174,1145],"ymouse":[518,518,518,518,518,518,518,519,519,519,519,519,520,520,520,520,520,520,521,521,522,522,522,522,522,522,522,522,522,522,522,522,522,522,522,522,522,522,522,522,522,522,522,522,522,522,522,523,525,526,528,530,534,544,549,549,526,446,324,276,226,179,145,117,106,93,76,51,40,30,29,27,26,25,26,28,28,28,21],"timestamp_mouse":[8,22,41,63,81,101,123,143,162,181,202,222,242,263,282,302,322,341,362,382,402,421,442,462,482,502,522,542,562,581,602,622,642,661,682,702,722,742,761,782,802,822,841,863,881,903,922,942,962,982,1001,1021,1043,1062,1082,1101,1121,1141,1161,1181,1201,1221,1243,1262,1281,1301,1323,1342,1362,1382,1402,1421,1441,1462,1482,1502,1523,1541,1561],"xSR":741.5,"ySR":481,"xT1":424.9,"yT1":0,"xT2":1058.1,"yT2":0,"toosoon":0,"cond_shown":"Congruent","ratio_trial":100,"L_num":1,"L_den":2,"R_num":18,"R_den":30,"correct_side":2,"subjID":"juandavidmonroycuevas5","gender":"0","school":"6","age":"12"},{"start_time":1551891166610,"click_time":1551891168003,"finger_time":1551891167782,"fix_duration":726.0456570697282,"trial":23,"RT":1172,"MT":221,"sideResp":2,"stimulus":[],"xmouse":[820,820,820,820,820,820,820,820,820,820,820,820,820,820,820,820,820,820,820,820,820,820,820,819,819,819,819,819,819,819,819,819,819,819,819,819,819,819,819,819,819,819,819,819,819,819,819,819,819,819,818,818,818,819,820,822,827,834,850,884,943,1083,1133,1174,1190,1194,1193,1172,1160,1147],"ymouse":[515,515,515,515,515,515,515,515,515,515,515,515,515,515,515,515,515,515,515,515,515,515,515,515,515,515,515,515,515,515,515,515,515,515,515,515,515,515,515,515,515,515,515,515,515,515,515,515,515,515,516,517,517,519,519,520,522,522,522,510,475,371,332,296,270,231,202,130,107,89],"timestamp_mouse":[11,38,53,72,92,112,131,151,172,191,212,231,251,272,291,313,332,351,371,392,412,432,452,472,491,512,533,551,573,591,612,632,652,673,693,712,732,753,773,791,812,833,853,873,893,911,932,952,971,992,1011,1032,1052,1071,1093,1112,1132,1152,1172,1192,1212,1231,1252,1272,1291,1312,1332,1352,1371,1393],"xSR":741.5,"ySR":481,"xT1":424.9,"yT1":0,"xT2":1058.1,"yT2":0,"toosoon":0,"cond_shown":"Incongruent","ratio_trial":100,"L_num":9,"L_den":10,"R_num":20,"R_den":25,"correct_side":1,"subjID":"juandavidmonroycuevas5","gender":"0","school":"6","age":"12"},{"start_time":1551891171497,"click_time":1551891173202,"finger_time":1551891171723,"fix_duration":1432.9962477625506,"trial":24,"RT":226,"MT":1479,"sideResp":1,"stimulus":[],"xmouse":[790,790,790,790,789,787,786,785,785,785,785,785,785,785,785,784,784,784,784,784,784,784,781,781,779,775,768,753,744,737,726,718,710,710,710,713,717,723,725,728,731,738,747,750,753,754,756,758,760,760,760,760,760,760,762,762,764,764,765,765,765,765,765,765,765,765,765,762,737,705,637,610,562,537,511,487,462,439,439,448,462,467,472,480,485,490],"ymouse":[528,528,528,528,530,534,537,543,553,562,579,593,609,635,641,643,643,643,643,643,644,644,644,644,644,644,644,638,626,609,588,572,541,529,520,511,503,494,492,490,490,490,490,490,490,490,490,490,490,490,490,490,490,490,490,490,492,497,500,503,505,506,506,506,506,506,508,509,519,528,545,553,555,553,545,534,516,454,396,329,245,209,180,130,109,83],"timestamp_mouse":[9,29,45,66,84,104,125,144,165,186,205,226,245,264,284,304,326,346,365,384,404,424,445,465,485,504,525,545,564,585,605,624,645,665,685,705,725,744,765,785,805,825,845,865,885,904,925,945,965,986,1004,1025,1044,1065,1086,1105,1124,1144,1165,1186,1204,1224,1246,1266,1284,1305,1325,1344,1365,1385,1405,1425,1444,1465,1485,1505,1525,1545,1564,1585,1605,1625,1645,1665,1684,1705],"xSR":741.5,"ySR":481,"xT1":424.9,"yT1":0,"xT2":1058.1,"yT2":0,"toosoon":0,"cond_shown":"Congruent","ratio_trial":100,"L_num":6,"L_den":20,"R_num":5,"R_den":25,"correct_side":1,"subjID":"juandavidmonroycuevas5","gender":"0","school":"6","age":"12"},{"start_time":1551891175534,"click_time":1551891177803,"finger_time":1551891177102,"fix_duration":1250.9896794614017,"trial":25,"RT":1568,"MT":701,"sideResp":2,"stimulus":[],"xmouse":[761,761,761,761,761,761,761,761,761,761,761,761,761,761,761,761,761,761,761,761,761,761,761,761,761,761,761,761,761,761,761,761,761,761,761,761,761,761,761,761,761,761,761,761,761,761,761,761,761,761,761,761,761,761,761,761,761,761,761,761,761,761,761,761,761,761,761,761,761,761,761,761,765,771,779,790,823,835,853,886,1011,1089,1164,1213,1250,1271,1269,1267,1259,1250,1228,1218,1213,1210,1208,1202,1198,1195,1191,1189,1188,1186,1185,1185,1185,1183,1183,1182,1180,1178,1172,1168,1162,1157],"ymouse":[511,511,511,511,511,511,511,511,511,511,511,511,511,511,511,511,511,511,511,511,511,511,511,511,511,511,511,511,511,511,511,511,511,511,511,511,511,511,511,511,511,511,511,511,511,511,511,511,511,511,511,511,511,511,511,511,511,511,511,511,511,511,511,511,511,511,511,511,511,511,511,511,511,517,527,536,548,550,550,547,508,475,430,382,323,215,153,141,100,76,39,29,25,24,24,27,31,36,41,44,44,45,45,45,45,45,44,44,42,42,42,42,42,42],"timestamp_mouse":[8,37,48,69,88,109,127,149,168,188,208,229,248,269,288,308,327,348,368,389,407,427,449,469,487,507,529,547,568,588,607,628,647,668,688,707,728,747,769,787,808,829,847,867,888,907,929,947,967,988,1009,1028,1047,1067,1087,1108,1128,1149,1167,1189,1208,1227,1247,1268,1287,1307,1329,1349,1368,1388,1407,1429,1448,1468,1488,1507,1527,1547,1568,1587,1608,1627,1648,1668,1687,1708,1727,1748,1768,1787,1808,1828,1847,1867,1887,1908,1928,1947,1967,1988,2009,2029,2047,2067,2088,2108,2129,2148,2167,2188,2208,2228,2247,2269],"xSR":741.5,"ySR":481,"xT1":424.9,"yT1":0,"xT2":1058.1,"yT2":0,"toosoon":0,"cond_shown":"Congruent","ratio_trial":200,"L_num":3,"L_den":12,"R_num":9,"R_den":20,"correct_side":2,"subjID":"juandavidmonroycuevas5","gender":"0","school":"6","age":"12"},{"start_time":1551891179725,"click_time":1551891181721,"finger_time":1551891181422,"fix_duration":743.5039356027211,"trial":26,"RT":1697,"MT":299,"sideResp":2,"stimulus":[],"xmouse":[795,795,795,795,795,795,795,795,795,795,795,795,795,795,795,795,795,795,795,795,795,795,795,795,795,795,795,795,795,795,795,795,795,795,795,795,795,795,795,795,795,795,795,795,795,795,795,795,795,795,795,795,795,795,795,795,795,795,795,795,795,795,795,795,795,795,795,795,795,795,795,785,781,780,780,780,780,780,783,785,790,796,808,824,845,922,981,1033,1111,1155,1196,1200,1200,1200,1200,1200,1197,1185,1171,1157],"ymouse":[524,524,524,524,524,524,524,524,524,524,524,524,524,524,524,524,524,524,524,524,524,524,524,524,524,524,524,524,524,524,524,524,524,524,524,524,524,524,524,524,524,524,524,524,524,524,524,524,524,524,524,524,524,524,524,524,524,524,524,524,524,524,524,524,524,524,524,524,524,524,519,507,499,497,497,497,497,496,496,496,496,496,499,501,502,500,487,463,411,372,292,258,224,192,163,104,82,63,53,50],"timestamp_mouse":[30,36,58,78,97,116,137,156,177,197,217,237,257,278,297,317,337,356,376,398,417,436,457,477,498,516,536,557,576,598,617,638,657,678,696,717,736,757,776,797,818,836,856,878,897,917,937,957,976,996,1017,1037,1058,1077,1096,1116,1137,1158,1176,1196,1218,1237,1258,1278,1297,1316,1338,1356,1376,1396,1417,1437,1456,1476,1497,1516,1537,1557,1577,1596,1618,1637,1657,1676,1697,1718,1736,1757,1777,1796,1816,1836,1856,1878,1898,1918,1936,1956,1977,1996],"xSR":741.5,"ySR":481,"xT1":424.9,"yT1":0,"xT2":1058.1,"yT2":0,"toosoon":0,"cond_shown":"Congruent","ratio_trial":100,"L_num":7,"L_den":14,"R_num":9,"R_den":15,"correct_side":2,"subjID":"juandavidmonroycuevas5","gender":"0","school":"6","age":"12"},{"start_time":1551891183003,"click_time":1551891184042,"finger_time":1551891183742,"fix_duration":298.2179402654157,"trial":27,"RT":739,"MT":300,"sideResp":1,"stimulus":[],"xmouse":[776,776,776,776,776,776,776,776,776,776,776,776,776,776,776,776,776,776,776,776,776,776,776,776,776,776,776,776,776,776,776,776,776,776,776,772,758,720,697,673,647,612,514,473,439,422,419,419,422,427,433,438,452],"ymouse":[570,570,570,570,570,570,570,570,570,570,570,570,570,570,570,570,570,570,570,570,570,570,570,570,570,570,570,570,570,570,570,570,570,570,570,569,564,550,540,530,514,486,392,346,299,246,222,202,171,155,136,119,94],"timestamp_mouse":[2,20,38,67,79,99,118,139,160,178,198,219,238,259,278,300,318,338,360,378,399,418,438,459,479,499,519,539,560,579,598,619,639,658,678,700,719,739,758,778,799,820,839,859,879,899,918,939,959,978,999,1019,1039],"xSR":741.5,"ySR":481,"xT1":424.9,"yT1":0,"xT2":1058.1,"yT2":0,"toosoon":0,"cond_shown":"Congruent","ratio_trial":300,"L_num":20,"L_den":25,"R_num":9,"R_den":18,"correct_side":1,"subjID":"juandavidmonroycuevas5","gender":"0","school":"6","age":"12"},{"start_time":1551891185155,"click_time":1551891186401,"finger_time":1551891186041,"fix_duration":251.2443784226187,"trial":28,"RT":886,"MT":360,"sideResp":1,"stimulus":[],"xmouse":[812,812,812,812,812,812,811,811,811,811,811,811,811,811,811,811,811,811,811,811,811,811,811,811,811,811,811,811,811,811,811,811,811,811,811,811,811,811,811,802,789,778,762,743,672,609,533,428,391,353,350,353,363,376,390,406,410,412,414,415,418,423,431],"ymouse":[538,538,538,539,539,539,539,539,540,541,541,541,541,541,541,541,541,541,542,543,543,543,543,543,543,543,543,543,543,543,543,543,543,543,543,543,543,543,543,544,538,534,531,528,510,480,427,344,299,210,168,133,97,68,44,19,12,8,6,6,6,9,15],"timestamp_mouse":[8,37,48,66,88,106,128,146,166,187,206,228,248,266,287,308,326,348,366,388,407,426,447,466,487,506,526,548,568,586,606,627,646,667,688,706,728,747,766,786,808,826,847,866,886,908,928,947,966,986,1007,1027,1048,1068,1086,1107,1128,1147,1168,1187,1207,1228,1246],"xSR":741.5,"ySR":481,"xT1":424.9,"yT1":0,"xT2":1058.1,"yT2":0,"toosoon":0,"cond_shown":"Congruent","ratio_trial":300,"L_num":24,"L_den":30,"R_num":2,"R_den":4,"correct_side":1,"subjID":"juandavidmonroycuevas5","gender":"0","school":"6","age":"12"},{"start_time":1551891187513,"click_time":1551891189342,"finger_time":1551891189002,"fix_duration":429.40294460834116,"trial":29,"RT":1489,"MT":340,"sideResp":1,"stimulus":[],"xmouse":[793,793,793,793,793,793,793,793,793,793,793,793,793,793,793,793,793,793,793,793,793,793,793,793,793,793,793,793,793,793,793,793,793,793,793,793,793,793,793,794,795,798,799,800,800,800,800,800,800,800,800,800,801,803,804,804,804,806,806,806,806,806,806,806,806,806,806,806,804,801,788,783,766,750,731,710,657,628,602,575,569,566,566,566,566,566,564,558,549,542,535,521],"ymouse":[521,521,521,521,521,521,521,521,521,521,521,521,521,521,521,521,521,521,521,521,521,521,521,521,521,521,521,521,521,521,521,521,521,521,521,521,521,521,521,521,522,526,526,527,527,527,527,527,527,527,527,527,527,528,528,528,528,529,529,529,529,529,529,529,529,529,529,529,529,529,530,530,524,507,474,437,354,315,279,239,222,187,167,151,139,130,122,103,88,81,74,67],"timestamp_mouse":[9,29,56,68,89,108,130,149,169,188,209,230,248,268,289,308,330,349,370,390,408,430,449,469,488,509,530,548,568,589,608,629,650,668,690,709,728,750,768,789,809,828,850,870,889,910,928,948,968,990,1009,1028,1049,1068,1089,1108,1130,1149,1168,1189,1208,1229,1249,1268,1290,1308,1330,1348,1368,1389,1410,1429,1449,1468,1489,1508,1530,1548,1569,1589,1609,1629,1649,1668,1689,1709,1729,1749,1769,1789,1808,1828],"xSR":741.5,"ySR":481,"xT1":424.9,"yT1":0,"xT2":1058.1,"yT2":0,"toosoon":0,"cond_shown":"Incongruent","ratio_trial":200,"L_num":1,"L_den":3,"R_num":2,"R_den":15,"correct_side":1,"subjID":"juandavidmonroycuevas5","gender":"0","school":"6","age":"12"},{"start_time":1551891191631,"click_time":1551891193403,"finger_time":1551891193163,"fix_duration":1388.953248956334,"trial":30,"RT":1532,"MT":240,"sideResp":2,"stimulus":[],"xmouse":[811,811,811,811,811,811,811,811,811,811,811,811,811,811,811,811,811,811,811,811,811,811,811,811,811,811,811,811,811,811,811,811,811,811,811,811,811,811,811,811,811,811,811,811,811,811,811,811,811,811,811,811,811,811,811,811,811,811,811,811,811,811,811,811,811,811,811,811,811,811,811,811,811,812,815,837,857,876,909,936,1003,1043,1114,1163,1203,1220,1201,1178,1157],"ymouse":[544,544,544,544,544,544,544,544,544,544,544,544,544,544,544,544,544,544,544,544,544,544,544,544,544,544,544,544,544,544,544,544,544,544,544,544,544,544,544,544,544,544,544,544,544,544,544,544,544,544,544,544,544,544,544,544,544,544,544,544,544,544,544,544,544,544,544,544,544,544,544,544,544,544,543,507,481,462,439,420,371,341,279,223,156,99,53,38,26],"timestamp_mouse":[10,30,57,71,90,110,132,150,171,190,211,232,251,271,292,310,330,352,370,392,410,430,451,470,492,510,530,551,571,591,610,631,651,672,690,711,730,750,770,791,811,831,851,871,890,912,930,951,972,991,1011,1030,1052,1071,1092,1110,1131,1152,1170,1190,1212,1230,1250,1272,1291,1310,1332,1350,1372,1392,1412,1431,1451,1470,1490,1510,1532,1551,1571,1590,1610,1630,1651,1672,1691,1711,1731,1751,1771],"xSR":741.5,"ySR":481,"xT1":424.9,"yT1":0,"xT2":1058.1,"yT2":0,"toosoon":0,"cond_shown":"Incongruent","ratio_trial":200,"L_num":4,"L_den":30,"R_num":1,"R_den":3,"correct_side":2,"subjID":"juandavidmonroycuevas5","gender":"0","school":"6","age":"12"},{"start_time":1551891195559,"click_time":1551891197823,"finger_time":1551891197121,"fix_duration":1377.0788865554225,"trial":31,"RT":1562,"MT":702,"sideResp":1,"stimulus":[],"xmouse":[815,815,815,815,815,815,815,815,815,815,815,815,815,815,815,815,815,815,815,815,815,815,815,815,815,815,815,815,815,815,815,815,815,815,815,815,815,815,815,815,815,815,815,815,815,815,815,815,815,815,815,815,815,815,815,815,815,815,815,815,815,815,815,815,815,815,815,815,815,815,815,815,815,815,819,822,826,836,844,871,895,922,949,969,977,977,977,977,975,963,949,931,904,879,831,790,772,718,664,607,491,445,418,399,370,366,362,362,366,396,411,426,438,447],"ymouse":[501,501,501,501,501,501,501,501,501,501,501,501,501,501,501,501,501,501,501,501,501,501,501,501,501,501,501,501,501,501,501,501,501,501,501,501,501,501,501,501,501,501,501,501,501,501,501,501,501,501,501,501,501,501,501,501,501,501,502,503,503,503,503,503,503,503,503,503,503,503,503,504,504,506,512,517,520,527,530,533,533,533,533,529,526,525,525,525,525,525,525,525,525,525,533,542,544,539,515,475,365,324,299,281,249,240,224,208,185,137,122,112,105,99],"timestamp_mouse":[8,34,43,63,83,103,123,143,163,184,202,224,243,264,282,302,323,342,362,384,402,422,443,464,483,503,524,542,562,582,603,622,643,664,682,704,724,742,764,782,803,823,844,862,882,902,924,944,963,983,1002,1024,1043,1063,1082,1102,1122,1144,1163,1184,1203,1223,1242,1263,1284,1303,1323,1344,1362,1384,1404,1422,1442,1462,1482,1503,1522,1542,1562,1583,1603,1623,1643,1664,1682,1703,1722,1743,1763,1783,1802,1822,1843,1864,1883,1902,1923,1943,1963,1983,2002,2023,2043,2063,2083,2102,2122,2143,2164,2183,2202,2223,2242,2264],"xSR":741.5,"ySR":481,"xT1":424.9,"yT1":0,"xT2":1058.1,"yT2":0,"toosoon":0,"cond_shown":"Incongruent","ratio_trial":300,"L_num":1,"L_den":2,"R_num":2,"R_den":10,"correct_side":1,"subjID":"juandavidmonroycuevas5","gender":"0","school":"6","age":"12"},{"start_time":1551891199919,"click_time":1551891201602,"finger_time":1551891201181,"fix_duration":1154.5747092598037,"trial":32,"RT":1262,"MT":421,"sideResp":2,"stimulus":[],"xmouse":[771,771,771,771,771,771,771,771,771,771,771,771,771,771,771,771,771,771,771,771,771,771,771,771,771,771,771,771,771,771,771,771,771,771,771,771,771,771,771,771,771,771,771,771,771,771,771,771,771,771,771,771,771,771,771,771,771,771,771,775,780,803,820,843,872,926,1088,1173,1248,1298,1304,1285,1270,1252,1237,1211,1211,1211,1211,1211,1211,1211,1211,1211,1105],"ymouse":[543,543,543,543,543,543,543,543,543,543,543,543,543,543,543,543,543,543,543,543,543,543,543,543,543,543,543,543,543,543,543,543,543,543,543,543,543,543,543,543,543,543,543,543,543,543,543,543,543,543,543,543,543,543,543,543,543,543,543,544,550,564,570,575,575,553,448,363,270,158,117,71,55,37,21,3,3,3,3,3,3,3,3,3,13],"timestamp_mouse":[8,23,43,64,84,103,123,143,164,182,203,223,244,262,282,302,323,342,364,382,403,423,443,463,483,503,524,543,563,582,602,623,642,664,683,703,723,742,764,783,802,823,843,863,883,903,922,943,963,983,1004,1024,1042,1064,1082,1102,1124,1142,1162,1184,1203,1222,1242,1262,1283,1302,1322,1342,1362,1383,1403,1422,1443,1462,1482,1504,1523,1543,1562,1583,1604,1624,1644,1663,1683],"xSR":741.5,"ySR":481,"xT1":424.9,"yT1":0,"xT2":1058.1,"yT2":0,"toosoon":0,"cond_shown":"Incongruent","ratio_trial":300,"L_num":4,"L_den":20,"R_num":2,"R_den":4,"correct_side":2,"subjID":"juandavidmonroycuevas5","gender":"0","school":"6","age":"12"},{"start_time":1551891203355,"click_time":1551891205702,"finger_time":1551891205063,"fix_duration":1012.2600515326833,"trial":33,"RT":1708,"MT":639,"sideResp":2,"stimulus":[],"xmouse":[810,810,810,810,810,810,810,810,810,810,810,810,810,810,810,810,810,810,810,810,810,810,810,810,810,810,810,810,810,810,810,810,810,810,810,810,810,810,810,810,810,810,810,810,810,810,810,810,810,810,810,810,810,810,810,810,809,806,804,801,799,799,798,797,796,790,785,783,781,776,774,774,774,774,774,774,774,774,774,774,775,779,784,792,826,855,904,996,1091,1281,1351,1397,1423,1430,1430,1430,1430,1430,1430,1430,1430,1430,1430,1430,1249,1234,1218,1206,1194,1187,1185,1183,1183,1182,1180,1171,1159,1153],"ymouse":[512,512,512,512,512,512,512,512,512,512,512,512,512,512,512,512,512,512,512,512,512,512,512,512,512,512,512,512,512,512,512,512,512,512,512,512,512,512,512,512,512,512,512,512,512,512,512,512,512,512,512,512,512,512,512,512,513,519,523,529,531,532,533,534,535,540,542,543,544,544,544,544,544,544,544,544,544,544,544,544,544,544,544,544,540,526,491,429,362,205,133,75,32,2,2,2,2,2,2,2,2,2,2,2,2,13,27,37,47,52,54,55,55,55,55,55,55,55],"timestamp_mouse":[7,27,47,66,88,106,132,146,166,186,206,226,247,266,287,307,328,346,367,388,407,427,446,467,487,507,526,548,566,587,608,626,648,667,686,708,727,747,767,787,808,828,846,867,886,908,927,947,967,986,1006,1028,1046,1067,1087,1108,1127,1147,1167,1186,1207,1226,1248,1267,1286,1307,1327,1346,1367,1386,1406,1427,1448,1466,1488,1507,1526,1547,1567,1586,1607,1626,1647,1667,1686,1708,1727,1748,1767,1786,1806,1827,1847,1868,1888,1907,1927,1947,1967,1988,2007,2027,2047,2066,2087,2107,2126,2147,2167,2187,2207,2228,2248,2268,2287,2307,2326,2346],"xSR":741.5,"ySR":481,"xT1":424.9,"yT1":0,"xT2":1058.1,"yT2":0,"toosoon":0,"cond_shown":"Congruent","ratio_trial":200,"L_num":1,"L_den":2,"R_num":21,"R_den":30,"correct_side":2,"subjID":"juandavidmonroycuevas5","gender":"0","school":"6","age":"12"},{"start_time":1551891207757,"click_time":1551891209901,"finger_time":1551891209201,"fix_duration":973.1499216464081,"trial":34,"RT":1444,"MT":700,"sideResp":1,"stimulus":[],"xmouse":[777,777,777,777,777,777,777,777,777,777,777,777,777,777,777,777,777,777,777,777,777,777,777,777,777,777,777,777,777,777,777,777,777,777,777,777,777,777,777,777,777,777,777,777,777,777,777,777,777,777,777,777,777,777,777,777,777,777,777,777,777,777,777,777,777,777,777,777,777,793,817,841,864,887,916,927,939,950,964,982,985,985,985,985,985,981,973,905,819,718,627,618,608,593,540,518,504,492,488,486,482,478,475,475,475,475,475,475],"ymouse":[521,521,521,521,521,521,521,521,521,521,521,521,521,521,521,521,521,521,521,521,521,521,521,521,521,521,521,521,521,521,521,521,521,521,521,521,521,521,521,521,521,521,521,521,521,521,521,521,521,521,521,521,521,521,521,521,521,521,521,521,521,521,521,521,521,521,521,522,522,522,516,510,503,496,487,482,479,474,467,456,454,454,454,454,454,454,455,466,466,466,458,451,438,412,331,296,272,244,232,221,192,170,150,133,119,114,110,99],"timestamp_mouse":[10,35,46,65,84,104,125,145,166,184,205,224,246,266,284,306,325,346,366,385,405,425,446,465,484,505,525,546,565,585,604,625,644,664,686,704,725,746,765,784,806,826,846,864,884,905,926,944,964,985,1005,1024,1046,1065,1086,1106,1126,1145,1165,1184,1205,1225,1245,1266,1285,1306,1326,1344,1365,1384,1405,1424,1444,1464,1486,1504,1524,1545,1565,1584,1605,1625,1645,1664,1685,1704,1724,1744,1766,1785,1804,1824,1844,1864,1885,1904,1925,1944,1964,1985,2005,2025,2045,2065,2086,2104,2125,2144],"xSR":741.5,"ySR":481,"xT1":424.9,"yT1":0,"xT2":1058.1,"yT2":0,"toosoon":0,"cond_shown":"Congruent","ratio_trial":100,"L_num":9,"L_den":15,"R_num":8,"R_den":16,"correct_side":1,"subjID":"juandavidmonroycuevas5","gender":"0","school":"6","age":"12"},{"start_time":1551891211720,"click_time":1551891213161,"finger_time":1551891212841,"fix_duration":818.4139440857995,"trial":35,"RT":1121,"MT":320,"sideResp":2,"stimulus":[],"xmouse":[809,809,809,809,809,809,809,809,809,809,809,809,809,809,809,809,809,809,809,809,809,809,809,809,809,809,809,809,809,809,809,809,809,809,809,809,809,809,809,809,809,809,809,809,809,809,809,809,809,809,809,809,809,811,817,828,848,918,941,972,995,1061,1110,1141,1157,1164,1154,1136,1114,1108,1095,1074,1059],"ymouse":[536,536,536,536,536,536,536,536,536,536,536,536,536,536,536,536,536,536,536,536,536,536,536,536,536,536,536,536,536,536,536,536,536,536,536,536,536,536,536,536,536,536,536,536,536,536,536,536,536,536,536,536,536,538,542,549,559,587,593,594,585,539,495,458,425,383,305,250,195,183,155,117,99],"timestamp_mouse":[8,33,43,62,82,103,123,141,162,181,203,223,242,262,283,303,322,342,362,381,401,422,442,461,483,503,521,542,561,582,602,622,641,662,683,702,722,741,763,781,802,821,842,861,883,902,921,941,963,981,1003,1022,1042,1061,1081,1103,1121,1142,1162,1181,1201,1223,1242,1262,1281,1301,1323,1341,1362,1382,1402,1422,1441],"xSR":741.5,"ySR":481,"xT1":424.9,"yT1":0,"xT2":1058.1,"yT2":0,"toosoon":0,"cond_shown":"Congruent","ratio_trial":100,"L_num":7,"L_den":14,"R_num":9,"R_den":15,"correct_side":2,"subjID":"juandavidmonroycuevas5","gender":"0","school":"6","age":"12"},{"start_time":1551891214450,"click_time":1551891216482,"finger_time":1551891216182,"fix_duration":308.6625512800756,"trial":36,"RT":1732,"MT":300,"sideResp":2,"stimulus":[],"xmouse":[781,781,781,781,781,781,781,782,782,783,783,783,783,783,783,784,784,784,784,784,784,784,784,784,784,784,784,784,784,784,784,784,784,784,784,784,784,784,784,784,784,784,784,784,784,784,786,786,786,786,786,786,786,786,787,787,787,787,787,788,788,788,788,788,788,788,788,788,788,788,788,788,789,789,790,791,793,794,800,805,814,816,818,819,825,833,850,874,906,945,1011,1033,1059,1073,1087,1092,1093,1093,1093,1090,1088,1086],"ymouse":[535,535,535,535,535,535,535,535,535,536,536,536,536,536,536,536,536,536,536,536,536,536,536,536,536,536,536,536,536,536,536,536,536,536,536,536,536,536,536,536,536,536,536,536,536,536,537,537,537,537,537,537,537,537,537,537,537,537,537,537,537,537,537,537,537,537,537,537,537,537,537,538,538,538,538,538,539,540,544,548,553,554,555,556,558,558,557,546,526,494,415,369,284,230,173,154,141,132,126,111,103,99],"timestamp_mouse":[12,39,52,71,92,113,131,152,172,192,211,233,251,273,292,311,333,351,373,392,411,432,451,473,491,511,533,552,572,592,611,633,652,671,692,711,733,751,772,792,813,831,853,871,893,912,933,951,973,992,1013,1033,1052,1073,1092,1112,1133,1153,1171,1192,1213,1231,1251,1273,1291,1313,1333,1351,1372,1393,1411,1434,1451,1472,1491,1512,1532,1552,1573,1592,1612,1633,1652,1672,1692,1711,1732,1752,1772,1791,1812,1832,1852,1871,1891,1913,1932,1952,1971,1992,2011,2032],"xSR":741.5,"ySR":481,"xT1":424.9,"yT1":0,"xT2":1058.1,"yT2":0,"toosoon":0,"cond_shown":"Incongruent","ratio_trial":100,"L_num":8,"L_den":20,"R_num":1,"R_den":2,"correct_side":2,"subjID":"juandavidmonroycuevas5","gender":"0","school":"6","age":"12"},{"start_time":1551891218777,"click_time":1551891220521,"finger_time":1551891220202,"fix_duration":1254.6453614214572,"trial":37,"RT":1425,"MT":319,"sideResp":1,"stimulus":[],"xmouse":[806,806,806,806,806,806,806,806,806,806,806,806,806,806,806,806,806,806,806,806,806,806,806,806,806,806,806,806,806,806,806,806,806,806,806,806,806,806,806,806,806,806,806,806,806,806,806,806,806,806,806,806,806,806,806,806,806,806,806,806,806,806,806,806,806,806,806,805,800,794,783,741,686,620,610,606,605,605,604,590,583,581,578,572,563,552,538,522],"ymouse":[545,545,545,545,545,545,545,545,545,545,545,545,545,545,545,545,545,545,545,545,545,545,545,545,545,545,545,545,545,545,545,545,545,545,545,545,545,545,545,545,545,545,545,545,545,545,545,545,545,545,545,545,545,545,545,545,545,545,545,545,545,545,545,545,545,545,546,548,550,550,525,448,369,302,289,284,274,248,221,160,138,129,125,114,100,86,66,41],"timestamp_mouse":[5,24,46,65,85,104,126,146,164,186,204,224,245,264,286,305,324,346,365,385,404,424,446,464,484,506,524,546,565,585,606,624,646,665,684,706,724,745,765,784,804,826,845,864,886,904,926,944,965,984,1005,1026,1045,1065,1084,1106,1124,1144,1165,1184,1205,1226,1244,1264,1286,1304,1325,1346,1364,1384,1405,1425,1445,1466,1484,1506,1525,1545,1565,1584,1605,1626,1645,1665,1684,1704,1725,1744],"xSR":741.5,"ySR":481,"xT1":424.9,"yT1":0,"xT2":1058.1,"yT2":0,"toosoon":0,"cond_shown":"Congruent","ratio_trial":200,"L_num":4,"L_den":10,"R_num":3,"R_den":15,"correct_side":1,"subjID":"juandavidmonroycuevas5","gender":"0","school":"6","age":"12"},{"start_time":1551891224000,"click_time":1551891225664,"finger_time":1551891225483,"fix_duration":1477.3957943525565,"trial":38,"RT":1483,"MT":181,"sideResp":1,"stimulus":[],"xmouse":[789,789,790,790,790,790,790,790,790,790,790,790,791,791,792,792,793,794,794,794,794,794,794,794,794,794,794,794,794,794,794,794,794,794,794,794,794,794,794,794,794,794,794,794,794,794,794,794,794,794,794,794,794,795,795,796,796,796,796,796,796,796,796,797,797,797,797,797,797,797,797,798,782,765,750,728,710,642,595,556,524,495,473,469],"ymouse":[513,513,513,513,513,513,512,512,512,512,512,512,512,512,511,510,510,509,509,509,509,509,509,509,509,509,508,508,508,508,508,508,508,508,508,508,508,508,508,508,508,508,508,508,508,508,508,508,508,508,508,508,508,508,508,508,508,508,508,508,508,508,508,508,508,508,508,508,508,508,508,508,501,489,480,460,442,365,311,263,212,161,101,80],"timestamp_mouse":[2,22,42,63,82,102,122,142,163,182,203,223,243,262,283,302,322,342,362,382,402,423,442,463,483,503,522,542,562,583,602,622,643,663,682,702,723,742,762,782,802,823,842,862,882,903,923,943,963,982,1003,1022,1042,1062,1083,1104,1123,1142,1162,1182,1202,1223,1242,1262,1282,1302,1323,1342,1362,1383,1403,1423,1442,1462,1483,1502,1522,1542,1563,1583,1602,1622,1643,1663],"xSR":741.5,"ySR":481,"xT1":424.9,"yT1":0,"xT2":1058.1,"yT2":0,"toosoon":0,"cond_shown":"Incongruent","ratio_trial":100,"L_num":3,"L_den":6,"R_num":4,"R_den":10,"correct_side":1,"subjID":"juandavidmonroycuevas5","gender":"0","school":"6","age":"12"},{"start_time":1551891227875,"click_time":1551891229943,"finger_time":1551891229363,"fix_duration":1312.620661691052,"trial":39,"RT":1488,"MT":580,"sideResp":2,"stimulus":[],"xmouse":[803,803,803,803,803,803,803,803,803,803,803,803,803,803,803,803,803,803,803,803,803,803,803,803,803,803,803,803,803,803,803,803,803,803,803,803,803,803,803,803,803,803,803,803,803,803,803,803,803,803,803,803,803,803,803,803,803,803,803,803,803,803,803,803,803,803,803,803,803,803,803,807,815,831,864,887,908,931,956,1016,1061,1141,1188,1222,1234,1222,1207,1194,1184,1174,1172,1170,1169,1167,1165,1164,1164,1164,1164,1164,1164,1164,1164,1158],"ymouse":[538,538,538,538,538,538,538,538,538,538,538,538,538,538,538,538,538,538,538,538,538,538,538,538,538,538,538,538,538,538,538,538,538,538,538,538,538,538,538,538,538,538,538,538,538,538,538,538,538,538,538,538,538,538,538,538,538,538,538,538,538,538,538,538,538,538,538,538,538,538,537,537,539,542,542,540,531,520,508,468,431,347,281,225,152,117,86,65,54,42,40,38,38,38,41,47,53,58,60,60,60,61,61,62],"timestamp_mouse":[13,32,47,67,87,108,128,149,167,187,207,227,248,267,287,307,328,347,367,387,407,428,447,467,487,507,528,548,567,588,607,627,647,667,687,707,727,747,767,787,807,827,847,867,888,908,927,947,967,988,1008,1028,1047,1068,1088,1107,1127,1147,1168,1188,1207,1227,1248,1267,1288,1307,1327,1348,1369,1388,1408,1427,1448,1467,1488,1508,1528,1547,1567,1588,1608,1628,1647,1667,1687,1708,1727,1747,1767,1787,1808,1827,1848,1867,1887,1908,1928,1947,1968,1987,2007,2028,2047,2068],"xSR":741.5,"ySR":481,"xT1":424.9,"yT1":0,"xT2":1058.1,"yT2":0,"toosoon":0,"cond_shown":"Congruent","ratio_trial":100,"L_num":6,"L_den":20,"R_num":5,"R_den":25,"correct_side":1,"subjID":"juandavidmonroycuevas5","gender":"0","school":"6","age":"12"},{"start_time":1551891231573,"click_time":1551891233283,"finger_time":1551891233023,"fix_duration":430.9479000583546,"trial":40,"RT":1450,"MT":260,"sideResp":2,"stimulus":[],"xmouse":[788,788,788,788,788,788,788,788,788,788,788,788,788,788,788,788,788,788,788,788,788,788,788,788,788,788,788,788,788,788,788,788,788,788,788,788,788,788,788,788,788,788,788,788,788,788,788,788,788,788,788,788,788,788,788,788,788,788,788,788,788,788,788,788,788,788,788,789,795,799,808,828,852,890,1020,1107,1154,1189,1207,1205,1197,1185,1175,1166,1144,1130],"ymouse":[517,517,517,517,517,517,517,517,517,517,517,517,517,517,517,517,517,517,517,517,517,517,517,517,517,517,517,517,517,517,517,517,517,517,517,517,517,517,517,517,517,517,517,517,517,517,517,517,517,517,517,517,517,517,517,517,517,517,517,517,517,517,517,517,517,517,518,519,522,523,526,530,531,531,525,479,422,364,287,257,228,197,170,147,107,90],"timestamp_mouse":[9,41,49,69,90,109,131,150,169,189,210,229,249,270,290,309,331,350,369,389,410,429,449,470,489,509,530,551,569,590,609,630,650,670,689,710,730,751,769,789,809,829,849,869,890,909,929,949,970,989,1009,1031,1049,1069,1090,1109,1130,1150,1170,1190,1209,1230,1251,1271,1290,1309,1329,1350,1370,1389,1410,1429,1450,1469,1489,1509,1531,1550,1570,1590,1609,1630,1649,1669,1690,1709],"xSR":741.5,"ySR":481,"xT1":424.9,"yT1":0,"xT2":1058.1,"yT2":0,"toosoon":0,"cond_shown":"Congruent","ratio_trial":200,"L_num":13,"L_den":26,"R_num":14,"R_den":20,"correct_side":2,"subjID":"juandavidmonroycuevas5","gender":"0","school":"6","age":"12"},{"start_time":1551891235284,"click_time":1551891237082,"finger_time":1551891236742,"fix_duration":1040.7763292276027,"trial":41,"RT":1458,"MT":340,"sideResp":2,"stimulus":[],"xmouse":[800,800,800,800,800,800,800,800,800,800,800,800,800,800,800,800,800,800,800,800,800,800,800,800,800,800,800,800,800,800,800,800,800,800,800,800,800,800,800,800,800,800,800,800,800,800,800,800,800,800,800,800,800,800,800,800,800,800,800,800,800,800,800,800,800,800,800,800,800,805,813,837,871,890,913,938,978,1093,1160,1174,1199,1197,1148,1115,1095,1084,1080,1078,1078,1078],"ymouse":[520,520,520,520,520,520,520,520,520,520,520,520,520,520,520,520,520,520,520,520,520,520,520,520,520,520,520,520,520,520,520,520,520,520,520,520,520,520,520,520,520,520,520,520,520,520,520,520,520,520,520,520,520,520,520,520,520,520,520,520,520,520,520,520,520,520,520,520,520,530,539,562,579,584,588,588,583,534,474,452,383,338,246,204,180,163,148,115,101,90],"timestamp_mouse":[18,47,58,78,99,119,138,158,178,199,218,238,259,278,298,319,340,359,379,398,418,438,458,478,499,519,538,559,579,598,618,639,658,679,699,721,739,758,779,798,818,838,858,879,899,918,939,959,978,998,1019,1038,1058,1078,1098,1119,1139,1158,1178,1199,1218,1239,1259,1279,1299,1318,1339,1359,1378,1398,1418,1438,1458,1478,1499,1518,1538,1558,1578,1598,1618,1639,1659,1678,1698,1718,1738,1759,1778,1798],"xSR":741.5,"ySR":481,"xT1":424.9,"yT1":0,"xT2":1058.1,"yT2":0,"toosoon":0,"cond_shown":"Incongruent","ratio_trial":100,"L_num":3,"L_den":9,"R_num":7,"R_den":30,"correct_side":1,"subjID":"juandavidmonroycuevas5","gender":"0","school":"6","age":"12"},{"start_time":1551891238963,"click_time":1551891240282,"finger_time":1551891240062,"fix_duration":919.8309291245978,"trial":42,"RT":1099,"MT":220,"sideResp":2,"stimulus":[],"xmouse":[818,818,818,818,818,818,818,818,818,818,818,818,818,818,818,818,818,818,818,818,818,818,818,818,818,818,818,818,818,818,818,818,818,818,818,818,818,818,818,818,818,818,818,818,818,818,818,818,818,818,818,819,824,830,841,844,844,844,847,872,898,938,998,1051,1125,1130,1123],"ymouse":[552,552,552,552,552,552,552,552,552,552,552,552,552,552,552,552,552,552,552,552,552,552,552,552,552,552,552,552,552,552,552,552,552,552,552,552,552,552,552,552,552,552,552,552,552,552,552,552,552,552,552,553,558,566,579,583,583,584,585,582,562,511,434,355,178,101,33],"timestamp_mouse":[1,19,40,60,79,99,120,139,160,179,199,219,239,259,279,299,319,340,360,379,400,419,441,459,479,500,520,539,559,580,599,621,639,659,680,699,719,740,761,779,800,819,839,859,879,900,919,939,959,980,1000,1019,1040,1059,1080,1099,1119,1139,1159,1179,1199,1219,1239,1259,1280,1299,1319],"xSR":741.5,"ySR":481,"xT1":424.9,"yT1":0,"xT2":1058.1,"yT2":0,"toosoon":0,"cond_shown":"Incongruent","ratio_trial":100,"L_num":4,"L_den":8,"R_num":8,"R_den":20,"correct_side":1,"subjID":"juandavidmonroycuevas5","gender":"0","school":"6","age":"12"},{"start_time":1551891242258,"click_time":1551891243304,"finger_time":1551891243263,"fix_duration":1095.487223705412,"trial":43,"RT":1005,"MT":41,"sideResp":1,"stimulus":[],"xmouse":[801,801,801,801,801,801,801,801,801,801,801,801,801,801,801,801,801,801,801,801,801,801,801,801,801,801,801,801,801,801,801,801,801,801,801,801,801,801,801,801,801,801,801,801,801,801,801,801,784,752,564,487,462],"ymouse":[540,540,540,540,540,540,540,540,540,540,540,540,540,540,540,540,540,540,540,540,540,540,540,540,540,540,540,540,540,540,540,540,540,540,540,540,540,540,540,540,540,540,540,540,540,540,540,540,527,495,254,103,37],"timestamp_mouse":[7,24,45,66,84,105,125,144,164,184,204,224,244,265,284,304,324,345,365,384,405,425,444,465,484,505,524,544,564,585,604,625,645,665,684,705,724,744,765,785,805,825,844,865,885,904,925,944,965,984,1005,1024,1046],"xSR":741.5,"ySR":481,"xT1":424.9,"yT1":0,"xT2":1058.1,"yT2":0,"toosoon":0,"cond_shown":"Incongruent","ratio_trial":100,"L_num":4,"L_den":8,"R_num":8,"R_den":20,"correct_side":1,"subjID":"juandavidmonroycuevas5","gender":"0","school":"6","age":"12"},{"start_time":1551891245077,"click_time":1551891247223,"finger_time":1551891246503,"fix_duration":612.567241192625,"trial":44,"RT":1426,"MT":720,"sideResp":2,"stimulus":[],"xmouse":[798,798,798,798,798,798,798,798,798,798,798,798,798,798,798,798,798,798,798,798,798,798,798,798,798,798,798,798,798,798,798,798,798,798,798,798,798,798,798,798,798,798,798,798,798,798,798,798,798,798,798,798,798,798,798,798,798,798,798,798,798,798,798,798,798,798,798,801,805,825,841,857,870,885,902,928,955,979,997,997,994,987,980,969,969,969,969,969,986,1010,1044,1092,1115,1147,1164,1178,1189,1193,1195,1195,1195,1195,1195,1195,1195,1190,1172,1143],"ymouse":[522,522,522,522,522,522,522,522,522,522,522,522,522,522,522,522,522,522,522,522,522,522,522,522,522,522,522,522,522,522,522,522,522,522,522,522,522,522,522,522,522,522,522,522,522,522,522,522,522,522,522,522,522,522,522,522,522,522,522,522,522,522,522,522,522,522,522,523,523,523,523,523,520,498,457,393,333,293,230,201,151,122,98,59,55,55,55,55,64,77,95,112,118,126,132,135,137,137,137,137,137,137,137,137,137,127,102,71],"timestamp_mouse":[7,33,45,65,85,106,125,145,165,185,206,226,246,266,286,305,326,345,366,385,406,426,445,465,485,505,526,546,565,585,606,627,646,665,687,705,726,745,765,786,806,826,845,866,886,905,926,945,965,986,1005,1026,1045,1065,1086,1105,1125,1146,1165,1186,1206,1225,1245,1265,1285,1306,1326,1345,1366,1386,1407,1426,1445,1466,1485,1505,1526,1545,1565,1586,1605,1625,1646,1665,1685,1705,1726,1745,1766,1785,1805,1825,1846,1866,1886,1905,1925,1945,1966,1985,2005,2025,2046,2065,2085,2105,2126,2146],"xSR":741.5,"ySR":481,"xT1":424.9,"yT1":0,"xT2":1058.1,"yT2":0,"toosoon":0,"cond_shown":"Incongruent","ratio_trial":200,"L_num":7,"L_den":15,"R_num":4,"R_den":6,"correct_side":2,"subjID":"juandavidmonroycuevas5","gender":"0","school":"6","age":"12"},{"start_time":1551891291823,"click_time":1551891293902,"finger_time":1551891291843,"fix_duration":1219.0774035651737,"trial":45,"RT":20,"MT":2059,"sideResp":2,"stimulus":[],"xmouse":[787,787,787,787,787,787,787,787,787,787,787,787,787,787,787,787,787,787,787,787,787,787,787,787,787,787,787,787,787,787,787,787,787,787,787,787,787,787,790,799,806,812,818,819,819,819,819,819,819,819,819,819,818,813,810,806,806,806,806,806,806,806,806,806,806,806,806,806,806,806,806,806,806,806,806,806,805,805,805,805,805,809,813,818,829,861,890,925,947,965,983,993,1001,1017,1023,1036,1041,1045,1045,1046,1053,1058,1065,1071],"ymouse":[550,550,550,550,550,550,550,550,550,550,550,550,550,550,550,550,550,550,550,550,550,550,550,550,550,550,550,550,550,550,550,550,550,550,550,550,550,550,555,573,581,586,591,593,593,593,593,593,593,593,593,593,594,595,596,596,596,596,596,596,596,596,596,596,596,596,596,596,596,596,596,596,596,596,596,596,597,604,609,610,612,619,621,623,623,600,564,493,429,374,320,298,275,235,212,175,162,150,143,137,122,114,104,92],"timestamp_mouse":[20,39,59,80,98,120,139,159,179,199,218,239,259,280,299,320,339,359,379,400,419,440,459,479,500,520,540,560,579,600,620,639,659,680,700,719,739,759,778,800,819,840,860,880,898,919,939,960,978,1000,1020,1040,1060,1080,1100,1119,1139,1159,1180,1199,1218,1239,1260,1279,1300,1320,1339,1360,1380,1400,1419,1439,1459,1480,1500,1519,1539,1559,1579,1599,1619,1640,1660,1679,1699,1719,1738,1760,1779,1799,1819,1838,1859,1879,1899,1919,1939,1960,1979,1999,2020,2038,2059,2079],"xSR":741.5,"ySR":481,"xT1":424.9,"yT1":0,"xT2":1058.1,"yT2":0,"toosoon":0,"cond_shown":"Congruent","ratio_trial":200,"L_num":6,"L_den":12,"R_num":7,"R_den":10,"correct_side":2,"subjID":"juandavidmonroycuevas5","gender":"0","school":"6","age":"12"},{"start_time":1551891295334,"click_time":1551891297022,"finger_time":1551891296622,"fix_duration":550.6585474999741,"trial":46,"RT":1288,"MT":400,"sideResp":1,"stimulus":[],"xmouse":[788,788,788,788,788,788,788,788,788,788,788,788,788,788,788,788,788,788,788,788,788,788,788,788,788,788,788,788,788,788,788,788,788,788,788,788,788,788,788,788,788,788,788,788,788,788,788,788,788,788,788,788,788,788,788,788,788,788,788,788,788,788,784,771,737,707,658,637,613,604,593,590,589,589,589,586,585,580,571,564,545,535,524,515,511],"ymouse":[634,634,634,634,634,634,634,634,634,634,634,634,634,634,634,634,634,634,634,634,634,634,634,634,634,634,634,634,634,634,634,634,634,634,634,634,634,634,634,634,634,634,634,634,634,634,634,634,634,634,634,634,634,634,634,634,634,634,634,634,634,634,635,628,601,557,448,398,330,298,245,223,210,198,191,180,175,168,157,151,136,127,114,101,91],"timestamp_mouse":[8,39,48,67,88,108,129,148,168,189,209,228,248,268,288,309,328,348,368,388,408,428,449,468,489,508,528,547,569,588,608,628,648,668,689,707,728,748,768,788,808,828,848,869,889,908,928,949,969,989,1009,1028,1048,1069,1087,1107,1128,1149,1169,1187,1209,1228,1247,1269,1288,1308,1329,1349,1369,1388,1408,1428,1448,1468,1489,1508,1527,1548,1569,1589,1608,1628,1648,1669,1688],"xSR":741.5,"ySR":573.95,"xT1":424.9,"yT1":0,"xT2":1058.1,"yT2":0,"toosoon":0,"cond_shown":"Congruent","ratio_trial":300,"L_num":4,"L_den":5,"R_num":2,"R_den":4,"correct_side":1,"subjID":"juandavidmonroycuevas5","gender":"0","school":"6","age":"12"},{"start_time":1551891301153,"click_time":1551891303043,"finger_time":1551891302583,"fix_duration":1369.6278412660026,"trial":47,"RT":1430,"MT":460,"sideResp":1,"stimulus":[],"xmouse":[807,807,807,807,807,807,807,807,807,807,807,807,807,807,807,807,807,807,807,807,807,807,807,807,807,807,807,807,807,807,807,807,807,807,807,807,807,807,807,807,807,807,807,807,807,807,807,807,807,807,807,807,807,807,807,807,807,807,807,807,807,807,807,807,807,807,807,807,805,776,749,732,720,715,641,543,440,420,407,404,405,405,405,405,404,404,404,404,404,404,404,405,408,411,427],"ymouse":[641,641,641,641,641,641,641,641,641,641,641,641,641,641,641,641,641,641,641,641,641,641,641,641,641,641,641,641,641,641,641,641,641,641,641,641,641,641,641,641,641,641,641,641,641,641,641,641,641,641,641,641,641,641,641,641,641,641,641,641,641,641,641,641,641,641,641,641,638,613,588,563,536,515,415,315,205,169,130,102,64,49,36,23,6,3,1,0,0,0,0,0,0,2,13],"timestamp_mouse":[9,40,49,69,88,110,129,149,169,189,209,229,250,269,289,309,329,350,369,390,409,430,450,469,489,509,530,548,569,588,610,630,649,670,689,709,730,750,768,790,810,829,849,870,889,909,929,950,969,989,1010,1030,1049,1068,1089,1108,1129,1149,1169,1189,1208,1229,1249,1270,1290,1309,1329,1350,1369,1389,1408,1430,1449,1470,1490,1509,1530,1550,1570,1589,1609,1630,1649,1670,1690,1709,1730,1749,1770,1790,1809,1829,1849,1870,1890],"xSR":741.5,"ySR":573.95,"xT1":424.9,"yT1":0,"xT2":1058.1,"yT2":0,"toosoon":0,"cond_shown":"Congruent","ratio_trial":300,"L_num":11,"L_den":22,"R_num":2,"R_den":10,"correct_side":1,"subjID":"juandavidmonroycuevas5","gender":"0","school":"6","age":"12"},{"start_time":1551891305164,"click_time":1551891307102,"finger_time":1551891306763,"fix_duration":1200.3637438723315,"trial":48,"RT":1599,"MT":339,"sideResp":1,"stimulus":[],"xmouse":[787,787,787,787,787,787,787,787,787,787,787,787,787,787,787,787,787,787,787,787,787,787,787,787,787,787,787,787,787,787,787,787,787,787,787,787,787,787,787,787,787,787,787,787,787,787,787,787,787,787,787,787,787,787,787,787,787,787,787,787,787,787,787,787,787,787,787,787,787,787,787,787,787,787,787,787,787,787,768,715,622,533,483,454,428,399,392,381,358,358,361,370,374,380,387,401,438],"ymouse":[643,643,643,643,643,643,643,643,643,643,643,643,643,643,643,643,643,643,643,643,643,643,643,643,643,643,643,643,643,643,643,643,643,643,643,643,643,643,643,643,643,643,643,643,643,643,643,643,643,643,643,643,643,643,643,643,643,643,643,643,643,643,643,643,643,643,643,643,643,643,643,643,643,643,643,643,643,643,644,633,606,581,555,465,403,333,296,246,139,117,97,79,67,59,59,59,62],"timestamp_mouse":[29,38,58,78,98,119,139,159,178,199,217,238,259,277,299,318,339,358,378,399,419,439,458,478,498,518,538,557,580,599,618,639,658,679,698,718,737,759,777,798,819,838,859,878,898,918,939,959,979,998,1019,1039,1057,1079,1098,1118,1138,1158,1178,1198,1218,1239,1258,1278,1298,1318,1338,1358,1378,1398,1417,1437,1459,1478,1498,1519,1538,1559,1579,1599,1618,1639,1658,1678,1698,1718,1739,1758,1778,1799,1818,1838,1859,1879,1898,1919,1937],"xSR":741.5,"ySR":573.95,"xT1":424.9,"yT1":0,"xT2":1058.1,"yT2":0,"toosoon":0,"cond_shown":"Congruent","ratio_trial":100,"L_num":9,"L_den":15,"R_num":8,"R_den":16,"correct_side":1,"subjID":"juandavidmonroycuevas5","gender":"0","school":"6","age":"12"},{"start_time":1551891309025,"click_time":1551891310362,"finger_time":1551891309942,"fix_duration":1042.725666835976,"trial":49,"RT":917,"MT":420,"sideResp":2