[{"start_time":1551892585097,"click_time":1551892585997,"finger_time":1551892585105,"fix_duration":417.6430915280811,"trial":0,"RT":8,"MT":892,"sideResp":2,"stimulus":"img/750/equaldotanddens/R/15_Ratio_750_L_9_R_12.png","xmouse":[824,824,824,824,824,824,824,824,824,824,824,824,824,824,824,824,824,824,824,824,824,824,824,824,824,824,824,824,824,824,824,824,824,824,855,869,880,892,904,955,993,1024,1047,1060,1068,1069],"ymouse":[553,553,553,553,553,553,553,553,553,553,553,553,553,553,553,553,553,553,553,553,553,553,553,553,553,553,553,553,553,553,553,553,552,548,525,516,507,497,485,418,351,276,210,161,104,90],"timestamp_mouse":[8,37,41,59,79,100,121,141,160,180,200,221,240,259,281,301,321,340,360,380,400,421,439,460,480,501,520,540,561,581,600,621,639,660,679,699,720,741,761,780,799,820,840,859,880,899],"xSR":741.5,"ySR":481,"xT1":424.9,"yT1":0,"xT2":1058.1,"yT2":0,"toosoon":0,"cond_shown":"equaldotanddens","ratio_trial":750,"smaller_num":"9","larger_num":"12","correct_side":2,"subjID":"juandavidmonroycuevas5","gender":"0","age":"12","school":"6","test":{"fix_dur":[250,1500],"timestim":300,"targets_dim":[100,100],"targets_relative_coord":[0.3,0.7],"size_stim":[880,420],"start_dim":[100,100],"size_start":[300,300],"size_fix":60,"samplingrate":20,"img_types":["equaldotsize","equaldotanddens","randomdotsizeEA"],"ratios":[250,500,750,900],"rep_conds":9,"nTrials":120,"trials_to_rest":500,"Trials_order":[31,3,63,113,79,117,78,93,92,82,103,55,56,50,104,89,0,76,69,25,102,51,32,29,71,59,12,65,118,46,41,6,27,68,35,60,80,86,40,87,119,45,111,39,1,105,83,49,108,115,5,67,66,43,84,26,7,100,10,48,95,38,81,70,33,30,53,116,22,57,62,64,101,11,52,61,74,4,107,18,106,99,75,94,23,73,77,110,88,58,42,20,36,13,90,9,8,96,17,97,112,28,98,54,44,24,16,34,91,72,19,114,21,109,85,47,15,14,37,2],"cond_shown":["equaldotanddens","equaldotsize","equaldotsize","randomdotsizeEA","equaldotanddens","equaldotsize","equaldotsize","equaldotsize","randomdotsizeEA","equaldotanddens","equaldotanddens","equaldotanddens","randomdotsizeEA","randomdotsizeEA","randomdotsizeEA","randomdotsizeEA","equaldotsize","equaldotanddens","equaldotsize","equaldotanddens","equaldotsize","equaldotsize","randomdotsizeEA","randomdotsizeEA","randomdotsizeEA","randomdotsizeEA","equaldotsize","randomdotsizeEA","equaldotanddens","equaldotanddens","randomdotsizeEA","equaldotsize","equaldotsize","randomdotsizeEA","randomdotsizeEA","equaldotsize","randomdotsizeEA","randomdotsizeEA","equaldotanddens","equaldotsize","randomdotsizeEA","equaldotsize","equaldotsize","equaldotsize","equaldotanddens","equaldotsize","randomdotsizeEA","equaldotanddens","equaldotsize","equaldotanddens","randomdotsizeEA","equaldotanddens","equaldotsize","equaldotanddens","equaldotsize","randomdotsizeEA","equaldotanddens","equaldotanddens","equaldotanddens","equaldotsize","randomdotsizeEA","randomdotsizeEA","equaldotsize","equaldotanddens","equaldotsize","equaldotsize","randomdotsizeEA","randomdotsizeEA","equaldotanddens","equaldotsize","randomdotsizeEA","equaldotanddens","randomdotsizeEA","randomdotsizeEA","equaldotanddens","equaldotanddens","randomdotsizeEA","equaldotanddens","randomdotsizeEA","equaldotsize","equaldotanddens","equaldotsize","equaldotsize","equaldotanddens","randomdotsizeEA","equaldotanddens","randomdotsizeEA","randomdotsizeEA","equaldotanddens","equaldotanddens","equaldotsize","randomdotsizeEA","equaldotsize","equaldotanddens","equaldotsize","equaldotsize","randomdotsizeEA","equaldotsize","randomdotsizeEA","equaldotanddens","equaldotanddens","equaldotanddens","randomdotsizeEA","equaldotsize","randomdotsizeEA","equaldotsize","equaldotanddens","equaldotanddens","equaldotanddens","equaldotsize","equaldotanddens","equaldotsize","equaldotsize","equaldotanddens","equaldotanddens","randomdotsizeEA","equaldotsize","randomdotsizeEA","equaldotanddens","randomdotsizeEA"],"ratio_trial":[750,500,500,500,750,900,750,900,750,900,750,750,750,250,750,500,250,500,900,250,750,500,750,500,900,900,250,500,900,900,500,750,500,750,900,250,750,250,500,500,900,900,500,500,250,900,900,250,250,750,500,750,750,750,250,250,750,500,900,250,900,250,900,900,900,750,500,750,900,900,250,500,500,900,500,250,250,500,900,750,900,500,500,900,900,250,500,250,500,900,750,750,250,250,750,900,750,250,500,250,500,500,250,750,750,250,500,900,750,250,750,750,900,250,250,900,500,250,250,250],"smaller_num":["9","9","10","9","3","18","18","18","12","18","18","15","12","5","12","4","3","10","9","5","15","4","12","1","18","9","2","9","9","18","1","15","10","6","18","4","3","3","2","10","18","9","4","6","2","18","18","2","4","6","2","15","12","15","2","2","15","9","18","4","18","4","9","18","18","3","6","3","18","18","3","5","10","18","6","3","4","2","18","15","18","5","2","18","18","6","2","2","1","18","15","6","4","3","6","9","9","2","2","3","9","1","6","18","6","4","5","9","15","2","3","18","18","2","3","9","5","1","6","3"],"larger_num":["12","18","20","18","4","20","24","20","16","20","24","20","16","20","16","8","12","20","10","20","20","8","16","2","20","10","8","18","10","20","2","20","20","8","20","16","4","12","4","20","20","10","8","12","8","20","20","8","16","8","4","20","16","20","8","8","20","18","20","16","20","16","10","20","20","4","12","4","20","20","12","10","20","20","12","12","16","4","20","20","20","10","4","20","20","24","4","8","2","20","20","8","16","12","8","10","12","8","4","12","18","2","24","24","8","16","10","10","20","8","4","24","20","8","12","10","10","4","24","12"],"correct_side":[2,2,2,2,2,2,1,2,2,1,1,2,2,2,2,1,2,2,1,2,1,1,2,2,1,2,1,1,2,1,2,2,2,1,2,1,2,2,1,2,1,2,1,1,1,1,1,1,2,2,1,1,2,1,2,1,2,2,1,2,2,2,1,2,2,2,1,2,1,2,2,2,2,1,1,2,2,1,1,2,1,1,2,1,2,1,2,2,2,1,2,1,2,1,2,2,2,1,1,2,2,2,2,1,1,2,2,1,1,1,1,1,1,2,2,2,1,2,2,1],"img_shown":["img/750/equaldotanddens/R/15_Ratio_750_L_9_R_12.png","img/500/equaldotsize/R/1_Ratio_500_L_9_R_18.png","img/500/equaldotsize/R/3_Ratio_500_L_10_R_20.png","img/500/randomdotsizeEA/R/1_Ratio_500_L_9_R_18.png","img/750/equaldotanddens/R/7_Ratio_750_L_3_R_4.png","img/900/equaldotsize/R/12_Ratio_900_L_18_R_20.png","img/750/equaldotsize/L/6_Ratio_750_L_24_R_18.png","img/900/equaldotsize/R/9_Ratio_900_L_18_R_20.png","img/750/randomdotsizeEA/R/11_Ratio_750_L_12_R_16.png","img/900/equaldotanddens/L/8_Ratio_900_L_20_R_18.png","img/750/equaldotanddens/L/6_Ratio_750_L_24_R_18.png","img/750/equaldotanddens/R/4_Ratio_750_L_15_R_20.png","img/750/randomdotsizeEA/R/11_Ratio_750_L_12_R_16.png","img/250/randomdotsizeEA/R/12_Ratio_250_L_5_R_20.png","img/750/randomdotsizeEA/R/11_Ratio_750_L_12_R_16.png","img/500/randomdotsizeEA/L/8_Ratio_500_L_8_R_4.png","img/250/equaldotsize/R/11_Ratio_250_L_3_R_12.png","img/500/equaldotanddens/R/3_Ratio_500_L_10_R_20.png","img/900/equaldotsize/L/1_Ratio_900_L_10_R_9.png","img/250/equaldotanddens/R/12_Ratio_250_L_5_R_20.png","img/750/equaldotsize/L/1_Ratio_750_L_20_R_15.png","img/500/equaldotsize/L/8_Ratio_500_L_8_R_4.png","img/750/randomdotsizeEA/R/11_Ratio_750_L_12_R_16.png","img/500/randomdotsizeEA/R/15_Ratio_500_L_1_R_2.png","img/900/randomdotsizeEA/L/2_Ratio_900_L_20_R_18.png","img/900/randomdotsizeEA/R/6_Ratio_900_L_9_R_10.png","img/250/equaldotsize/L/1_Ratio_250_L_8_R_2.png","img/500/randomdotsizeEA/L/4_Ratio_500_L_18_R_9.png","img/900/equaldotanddens/R/5_Ratio_900_L_9_R_10.png","img/900/equaldotanddens/L/10_Ratio_900_L_20_R_18.png","img/500/randomdotsizeEA/R/15_Ratio_500_L_1_R_2.png","img/750/equaldotsize/R/3_Ratio_750_L_15_R_20.png","img/500/equaldotsize/R/3_Ratio_500_L_10_R_20.png","img/750/randomdotsizeEA/L/14_Ratio_750_L_8_R_6.png","img/900/randomdotsizeEA/R/14_Ratio_900_L_18_R_20.png","img/250/equaldotsize/L/2_Ratio_250_L_16_R_4.png","img/750/randomdotsizeEA/R/7_Ratio_750_L_3_R_4.png","img/250/randomdotsizeEA/R/11_Ratio_250_L_3_R_12.png","img/500/equaldotanddens/L/5_Ratio_500_L_4_R_2.png","img/500/equaldotsize/R/3_Ratio_500_L_10_R_20.png","img/900/randomdotsizeEA/L/2_Ratio_900_L_20_R_18.png","img/900/equaldotsize/R/3_Ratio_900_L_9_R_10.png","img/500/equaldotsize/L/8_Ratio_500_L_8_R_4.png","img/500/equaldotsize/L/13_Ratio_500_L_12_R_6.png","img/250/equaldotanddens/L/3_Ratio_250_L_8_R_2.png","img/900/equaldotsize/L/8_Ratio_900_L_20_R_18.png","img/900/randomdotsizeEA/L/8_Ratio_900_L_20_R_18.png","img/250/equaldotanddens/L/3_Ratio_250_L_8_R_2.png","img/250/equaldotsize/R/10_Ratio_250_L_4_R_16.png","img/750/equaldotanddens/R/2_Ratio_750_L_6_R_8.png","img/500/randomdotsizeEA/L/10_Ratio_500_L_4_R_2.png","img/750/equaldotanddens/L/1_Ratio_750_L_20_R_15.png","img/750/equaldotsize/R/11_Ratio_750_L_12_R_16.png","img/750/equaldotanddens/L/1_Ratio_750_L_20_R_15.png","img/250/equaldotsize/R/13_Ratio_250_L_2_R_8.png","img/250/randomdotsizeEA/L/3_Ratio_250_L_8_R_2.png","img/750/equaldotanddens/R/3_Ratio_750_L_15_R_20.png","img/500/equaldotanddens/R/1_Ratio_500_L_9_R_18.png","img/900/equaldotanddens/L/4_Ratio_900_L_20_R_18.png","img/250/equaldotsize/R/10_Ratio_250_L_4_R_16.png","img/900/randomdotsizeEA/R/9_Ratio_900_L_18_R_20.png","img/250/randomdotsizeEA/R/10_Ratio_250_L_4_R_16.png","img/900/equaldotsize/L/1_Ratio_900_L_10_R_9.png","img/900/equaldotanddens/R/11_Ratio_900_L_18_R_20.png","img/900/equaldotsize/R/14_Ratio_900_L_18_R_20.png","img/750/equaldotsize/R/7_Ratio_750_L_3_R_4.png","img/500/randomdotsizeEA/L/13_Ratio_500_L_12_R_6.png","img/750/randomdotsizeEA/R/7_Ratio_750_L_3_R_4.png","img/900/equaldotanddens/L/2_Ratio_900_L_20_R_18.png","img/900/equaldotsize/R/13_Ratio_900_L_18_R_20.png","img/250/randomdotsizeEA/R/11_Ratio_250_L_3_R_12.png","img/500/equaldotanddens/R/14_Ratio_500_L_5_R_10.png","img/500/randomdotsizeEA/R/3_Ratio_500_L_10_R_20.png","img/900/randomdotsizeEA/L/10_Ratio_900_L_20_R_18.png","img/500/equaldotanddens/L/11_Ratio_500_L_12_R_6.png","img/250/equaldotanddens/R/4_Ratio_250_L_3_R_12.png","img/250/randomdotsizeEA/R/10_Ratio_250_L_4_R_16.png","img/500/equaldotanddens/L/10_Ratio_500_L_4_R_2.png","img/900/randomdotsizeEA/L/8_Ratio_900_L_20_R_18.png","img/750/equaldotsize/R/3_Ratio_750_L_15_R_20.png","img/900/equaldotanddens/L/2_Ratio_900_L_20_R_18.png","img/500/equaldotsize/L/7_Ratio_500_L_10_R_5.png","img/500/equaldotsize/R/9_Ratio_500_L_2_R_4.png","img/900/equaldotanddens/L/8_Ratio_900_L_20_R_18.png","img/900/randomdotsizeEA/R/14_Ratio_900_L_18_R_20.png","img/250/equaldotanddens/L/5_Ratio_250_L_24_R_6.png","img/500/randomdotsizeEA/R/9_Ratio_500_L_2_R_4.png","img/250/randomdotsizeEA/R/13_Ratio_250_L_2_R_8.png","img/500/equaldotanddens/R/15_Ratio_500_L_1_R_2.png","img/900/equaldotanddens/L/8_Ratio_900_L_20_R_18.png","img/750/equaldotsize/R/5_Ratio_750_L_15_R_20.png","img/750/randomdotsizeEA/L/14_Ratio_750_L_8_R_6.png","img/250/equaldotsize/R/10_Ratio_250_L_4_R_16.png","img/250/equaldotanddens/L/15_Ratio_250_L_12_R_3.png","img/750/equaldotsize/R/2_Ratio_750_L_6_R_8.png","img/900/equaldotsize/R/3_Ratio_900_L_9_R_10.png","img/750/randomdotsizeEA/R/15_Ratio_750_L_9_R_12.png","img/250/equaldotsize/L/7_Ratio_250_L_8_R_2.png","img/500/randomdotsizeEA/L/10_Ratio_500_L_4_R_2.png","img/250/equaldotanddens/R/9_Ratio_250_L_3_R_12.png","img/500/equaldotanddens/R/6_Ratio_500_L_9_R_18.png","img/500/equaldotanddens/R/15_Ratio_500_L_1_R_2.png","img/250/randomdotsizeEA/R/6_Ratio_250_L_6_R_24.png","img/750/equaldotsize/L/6_Ratio_750_L_24_R_18.png","img/750/randomdotsizeEA/L/13_Ratio_750_L_8_R_6.png","img/250/equaldotsize/R/10_Ratio_250_L_4_R_16.png","img/500/equaldotanddens/R/14_Ratio_500_L_5_R_10.png","img/900/equaldotanddens/L/1_Ratio_900_L_10_R_9.png","img/750/equaldotanddens/L/1_Ratio_750_L_20_R_15.png","img/250/equaldotsize/L/7_Ratio_250_L_8_R_2.png","img/750/equaldotanddens/L/9_Ratio_750_L_4_R_3.png","img/750/equaldotsize/L/6_Ratio_750_L_24_R_18.png","img/900/equaldotsize/L/2_Ratio_900_L_20_R_18.png","img/250/equaldotanddens/R/13_Ratio_250_L_2_R_8.png","img/250/equaldotanddens/R/11_Ratio_250_L_3_R_12.png","img/900/randomdotsizeEA/R/3_Ratio_900_L_9_R_10.png","img/500/equaldotsize/L/7_Ratio_500_L_10_R_5.png","img/250/randomdotsizeEA/R/8_Ratio_250_L_1_R_4.png","img/250/equaldotanddens/R/6_Ratio_250_L_6_R_24.png","img/250/randomdotsizeEA/L/15_Ratio_250_L_12_R_3.png"],"Rat0":[["12_Ratio_0_L_9_R_0.png","13_Ratio_0_L_6_R_0.png","5_Ratio_0_L_2_R_0.png","6_Ratio_0_L_4_R_0.png","8_Ratio_0_L_6_R_0.png"],["1_Ratio_0_L_0_R_17.png","10_Ratio_0_L_0_R_22.png","11_Ratio_0_L_0_R_1.png","14_Ratio_0_L_0_R_24.png","15_Ratio_0_L_0_R_4.png","2_Ratio_0_L_0_R_5.png","3_Ratio_0_L_0_R_17.png","4_Ratio_0_L_0_R_7.png","7_Ratio_0_L_0_R_19.png","9_Ratio_0_L_0_R_15.png"]],"Rat250":[["1_Ratio_250_L_8_R_2.png","14_Ratio_250_L_12_R_3.png","15_Ratio_250_L_12_R_3.png","2_Ratio_250_L_16_R_4.png","3_Ratio_250_L_8_R_2.png","5_Ratio_250_L_24_R_6.png","7_Ratio_250_L_8_R_2.png"],["10_Ratio_250_L_4_R_16.png","11_Ratio_250_L_3_R_12.png","12_Ratio_250_L_5_R_20.png","13_Ratio_250_L_2_R_8.png","4_Ratio_250_L_3_R_12.png","6_Ratio_250_L_6_R_24.png","8_Ratio_250_L_1_R_4.png","9_Ratio_250_L_3_R_12.png"]],"Rat500":[["10_Ratio_500_L_4_R_2.png","11_Ratio_500_L_12_R_6.png","13_Ratio_500_L_12_R_6.png","4_Ratio_500_L_18_R_9.png","5_Ratio_500_L_4_R_2.png","7_Ratio_500_L_10_R_5.png","8_Ratio_500_L_8_R_4.png"],["1_Ratio_500_L_9_R_18.png","12_Ratio_500_L_1_R_2.png","14_Ratio_500_L_5_R_10.png","15_Ratio_500_L_1_R_2.png","2_Ratio_500_L_3_R_6.png","3_Ratio_500_L_10_R_20.png","6_Ratio_500_L_9_R_18.png","9_Ratio_500_L_2_R_4.png"]],"Rat750":[["1_Ratio_750_L_20_R_15.png","10_Ratio_750_L_4_R_3.png","13_Ratio_750_L_8_R_6.png","14_Ratio_750_L_8_R_6.png","6_Ratio_750_L_24_R_18.png","8_Ratio_750_L_4_R_3.png","9_Ratio_750_L_4_R_3.png"],["11_Ratio_750_L_12_R_16.png","12_Ratio_750_L_3_R_4.png","15_Ratio_750_L_9_R_12.png","2_Ratio_750_L_6_R_8.png","3_Ratio_750_L_15_R_20.png","4_Ratio_750_L_15_R_20.png","5_Ratio_750_L_15_R_20.png","7_Ratio_750_L_3_R_4.png"]],"Rat900":[["1_Ratio_900_L_10_R_9.png","10_Ratio_900_L_20_R_18.png","2_Ratio_900_L_20_R_18.png","4_Ratio_900_L_20_R_18.png","8_Ratio_900_L_20_R_18.png"],["11_Ratio_900_L_18_R_20.png","12_Ratio_900_L_18_R_20.png","13_Ratio_900_L_18_R_20.png","14_Ratio_900_L_18_R_20.png","15_Ratio_900_L_9_R_10.png","3_Ratio_900_L_9_R_10.png","5_Ratio_900_L_9_R_10.png","6_Ratio_900_L_9_R_10.png","7_Ratio_900_L_9_R_10.png","9_Ratio_900_L_18_R_20.png"]],"Rat1000":[["10_Ratio_1000_L_16_R_16.png","11_Ratio_1000_L_6_R_6.png","12_Ratio_1000_L_14_R_14.png","13_Ratio_1000_L_20_R_20.png","15_Ratio_1000_L_15_R_15.png","2_Ratio_1000_L_17_R_17.png","4_Ratio_1000_L_9_R_9.png","5_Ratio_1000_L_6_R_6.png","6_Ratio_1000_L_19_R_19.png","8_Ratio_1000_L_14_R_14.png","9_Ratio_1000_L_25_R_25.png"],["1_Ratio_1000_L_1_R_1.png","14_Ratio_1000_L_17_R_17.png","3_Ratio_1000_L_17_R_17.png","7_Ratio_1000_L_6_R_6.png"]]}},{"start_time":1551892587842,"click_time":1551892588878,"finger_time":1551892588498,"fix_duration":782.6422368974866,"trial":1,"RT":656,"MT":380,"sideResp":2,"stimulus":"img/500/equaldotsize/R/1_Ratio_500_L_9_R_18.png","xmouse":[828,828,828,828,828,828,828,828,828,828,828,828,828,828,828,828,828,828,828,828,828,828,828,828,828,828,828,828,828,828,828,829,842,855,871,893,943,965,987,1009,1024,1058,1076,1093,1109,1121,1131,1131,1131,1131,1131,1128],"ymouse":[600,600,600,600,600,600,600,600,600,600,600,600,600,600,600,600,600,600,600,600,600,600,600,600,600,600,600,600,600,600,600,602,602,602,602,601,576,561,540,509,485,403,360,322,283,244,186,162,140,121,104,75],"timestamp_mouse":[14,34,63,75,95,116,136,155,175,195,214,235,254,275,295,315,334,354,375,396,415,435,455,475,495,514,535,555,576,595,614,635,656,674,695,715,735,755,775,795,815,835,854,876,896,914,934,954,975,996,1015,1035],"xSR":741.5,"ySR":573.95,"xT1":424.9,"yT1":0,"xT2":1058.1,"yT2":0,"toosoon":0,"cond_shown":"equaldotsize","ratio_trial":500,"smaller_num":"9","larger_num":"18","correct_side":2,"subjID":"juandavidmonroycuevas5","gender":"0","age":"12","school":"6"},{"start_time":1551892590030,"click_time":1551892591036,"finger_time":1551892590716,"fix_duration":250,"trial":2,"RT":686,"MT":320,"sideResp":2,"stimulus":"img/500/equaldotsize/R/3_Ratio_500_L_10_R_20.png","xmouse":[794,794,794,794,794,794,794,794,794,794,794,794,794,794,794,794,794,794,794,794,794,794,794,794,794,794,794,794,794,794,794,794,794,817,914,1009,1086,1181,1194,1195,1191,1178,1165,1159,1157,1152,1147,1138,1136,1134,1131],"ymouse":[624,624,624,624,624,624,624,624,624,624,624,624,624,624,624,624,624,624,624,624,624,624,624,624,624,624,624,624,624,624,624,624,624,611,546,457,344,164,108,74,46,25,6,0,0,0,0,0,0,0,4],"timestamp_mouse":[7,28,46,67,86,108,128,148,168,187,207,226,248,268,288,307,327,346,368,386,408,428,447,467,486,507,527,546,567,588,608,626,648,668,686,708,727,747,766,787,806,827,846,866,886,908,927,948,967,988,1006],"xSR":741.5,"ySR":573.95,"xT1":424.9,"yT1":0,"xT2":1058.1,"yT2":0,"toosoon":0,"cond_shown":"equaldotsize","ratio_trial":500,"smaller_num":"10","larger_num":"20","correct_side":2,"subjID":"juandavidmonroycuevas5","gender":"0","age":"12","school":"6"},{"start_time":1551892592628,"click_time":1551892594118,"finger_time":1551892593957,"fix_duration":828.9143596706222,"trial":3,"RT":1329,"MT":161,"sideResp":1,"stimulus":"img/500/randomdotsizeEA/R/1_Ratio_500_L_9_R_18.png","xmouse":[789,789,789,789,789,789,789,789,789,789,789,789,789,789,789,789,789,789,789,789,789,789,789,789,789,789,789,789,789,789,789,789,789,789,789,789,789,789,789,789,789,789,789,789,784,780,776,772,772,772,772,772,772,772,772,772,772,772,772,772,772,772,771,765,759,744,721,654,616,586,555,518,486,479,474],"ymouse":[610,610,610,610,610,610,610,610,610,610,610,610,610,610,610,610,610,610,610,610,610,610,610,610,610,610,610,610,610,610,610,610,610,610,610,610,610,610,610,610,610,610,610,610,610,610,610,609,609,609,609,609,609,609,609,609,609,609,609,609,609,609,609,610,610,606,587,467,400,342,285,207,129,110,92],"timestamp_mouse":[8,37,48,69,89,109,130,150,170,190,209,229,248,268,290,309,329,348,370,388,410,429,450,468,489,510,530,548,570,589,610,629,650,670,689,709,729,749,770,790,810,830,850,870,889,908,929,948,969,989,1010,1028,1050,1069,1090,1109,1128,1148,1170,1188,1209,1230,1249,1269,1288,1309,1329,1348,1368,1388,1408,1428,1448,1468,1489],"xSR":741.5,"ySR":573.95,"xT1":424.9,"yT1":0,"xT2":1058.1,"yT2":0,"toosoon":0,"cond_shown":"randomdotsizeEA","ratio_trial":500,"smaller_num":"9","larger_num":"18","correct_side":2,"subjID":"juandavidmonroycuevas5","gender":"0","age":"12","school":"6"},{"start_time":1551892613540,"click_time":1551892614498,"finger_time":1551892614177,"fix_duration":762.4540456877145,"trial":4,"RT":637,"MT":321,"sideResp":2,"stimulus":"img/750/equaldotanddens/R/7_Ratio_750_L_3_R_4.png","xmouse":[814,814,814,814,814,814,814,814,814,814,814,814,814,814,814,814,814,814,814,814,814,814,814,814,814,814,814,814,814,814,818,836,857,892,937,991,1073,1087,1093,1096,1097,1096,1094,1094,1094,1094,1105,1107],"ymouse":[579,579,579,579,579,579,579,579,579,579,579,579,579,579,579,579,579,579,579,579,579,579,579,579,579,579,579,579,579,579,579,573,560,536,501,454,332,299,273,249,227,190,176,169,163,147,101,49],"timestamp_mouse":[17,41,57,78,97,117,138,158,178,196,217,237,258,278,298,317,337,358,378,397,417,438,456,477,497,516,537,558,578,597,617,637,656,677,696,716,736,756,776,797,817,837,857,877,896,917,937,958],"xSR":741.5,"ySR":573.95,"xT1":424.9,"yT1":0,"xT2":1058.1,"yT2":0,"toosoon":0,"cond_shown":"equaldotanddens","ratio_trial":750,"smaller_num":"3","larger_num":"4","correct_side":2,"subjID":"juandavidmonroycuevas5","gender":"0","age":"12","school":"6"},{"start_time":1551892619573,"click_time":1551892620577,"finger_time":1551892620238,"fix_duration":1373.1048514605136,"trial":5,"RT":665,"MT":339,"sideResp":1,"stimulus":"img/900/equaldotsize/R/12_Ratio_900_L_18_R_20.png","xmouse":[776,776,776,776,776,776,776,776,776,776,776,776,776,776,776,776,776,776,776,776,776,776,776,776,776,776,776,776,776,776,775,772,767,752,734,667,646,627,613,606,591,582,572,563,557,549,546,544,542,539,523],"ymouse":[599,599,599,599,599,599,599,599,599,599,599,599,599,599,599,599,599,599,599,599,599,599,599,599,599,599,599,599,599,599,597,592,583,563,538,450,422,394,368,349,300,268,232,202,176,121,99,84,72,57,29],"timestamp_mouse":[8,35,44,65,85,104,124,145,163,184,204,224,244,264,285,304,323,345,364,383,403,424,443,465,483,505,525,544,564,584,603,625,643,664,684,704,725,744,764,783,803,823,844,864,884,904,923,944,964,983,1003],"xSR":741.5,"ySR":573.95,"xT1":424.9,"yT1":0,"xT2":1058.1,"yT2":0,"toosoon":0,"cond_shown":"equaldotsize","ratio_trial":900,"smaller_num":"18","larger_num":"20","correct_side":2,"subjID":"juandavidmonroycuevas5","gender":"0","age":"12","school":"6"},{"start_time":1551892623721,"click_time":1551892624596,"finger_time":1551892624436,"fix_duration":444.3996797922657,"trial":6,"RT":715,"MT":160,"sideResp":1,"stimulus":"img/750/equaldotsize/L/6_Ratio_750_L_24_R_18.png","xmouse":[783,783,783,783,783,783,783,783,783,783,783,783,783,783,783,783,783,783,783,783,783,783,783,783,783,783,783,783,783,783,783,783,780,774,766,741,662,550,534,531,531,529,520,508],"ymouse":[616,616,616,616,616,616,616,616,616,616,616,616,616,616,616,616,616,616,616,616,616,616,616,616,616,616,616,616,616,616,616,617,616,608,594,561,429,237,206,191,177,159,114,83],"timestamp_mouse":[15,43,56,75,95,116,135,155,176,194,216,234,255,275,295,315,336,356,376,395,415,435,456,475,495,516,534,556,575,595,615,635,655,675,695,715,736,755,776,794,815,835,855,874],"xSR":741.5,"ySR":573.95,"xT1":424.9,"yT1":0,"xT2":1058.1,"yT2":0,"toosoon":0,"cond_shown":"equaldotsize","ratio_trial":750,"smaller_num":"18","larger_num":"24","correct_side":1,"subjID":"juandavidmonroycuevas5","gender":"0","age":"12","school":"6"},{"start_time":1551892625927,"click_time":1551892627056,"finger_time":1551892626637,"fix_duration":250,"trial":7,"RT":710,"MT":419,"sideResp":2,"stimulus":"img/900/equaldotsize/R/9_Ratio_900_L_18_R_20.png","xmouse":[835,835,835,835,835,835,835,835,835,835,835,835,834,834,833,833,833,833,833,833,833,833,833,833,833,833,833,833,833,833,833,833,833,833,837,850,863,928,960,988,1011,1023,1030,1034,1034,1034,1034,1034,1034,1034,1035,1038,1045,1048,1051,1056,1061],"ymouse":[648,648,648,648,648,648,648,647,646,646,645,643,641,639,637,636,635,635,635,635,635,635,635,635,635,635,635,635,635,635,635,635,635,633,628,614,599,533,498,461,407,361,336,299,284,264,228,178,155,130,107,88,64,58,53,46,42],"timestamp_mouse":[9,36,50,70,89,109,130,150,169,188,209,229,249,268,290,309,329,349,368,389,409,429,449,469,489,510,530,550,569,589,609,629,649,669,689,710,729,749,770,788,809,829,849,869,889,909,929,950,969,989,1008,1029,1050,1069,1089,1109,1129],"xSR":741.5,"ySR":573.95,"xT1":424.9,"yT1":0,"xT2":1058.1,"yT2":0,"toosoon":0,"cond_shown":"equaldotsize","ratio_trial":900,"smaller_num":"18","larger_num":"20","correct_side":2,"subjID":"juandavidmonroycuevas5","gender":"0","age":"12","school":"6"},{"start_time":1551892629413,"click_time":1551892630596,"finger_time":1551892630216,"fix_duration":1316.296710119086,"trial":8,"RT":803,"MT":380,"sideResp":2,"stimulus":"img/750/randomdotsizeEA/R/11_Ratio_750_L_12_R_16.png","xmouse":[811,811,811,811,811,811,811,811,811,811,811,811,811,811,811,811,811,811,811,811,811,811,811,811,811,811,811,811,811,811,811,811,811,811,811,811,811,812,817,828,845,864,898,930,944,952,956,963,976,978,980,982,985,997,1007,1014,1020,1027,1055,1074],"ymouse":[630,630,630,630,630,630,630,630,630,630,630,630,630,630,630,630,630,630,630,630,630,630,630,630,630,630,630,630,630,630,630,630,630,630,630,630,630,627,611,578,540,501,429,319,248,188,159,141,110,101,92,88,82,74,69,68,66,64,57,54],"timestamp_mouse":[8,23,43,63,83,103,123,143,163,183,203,223,243,263,284,303,323,343,363,384,403,423,444,464,484,503,524,543,563,583,602,624,643,663,682,704,722,743,763,783,803,823,843,863,883,903,923,944,963,983,1003,1023,1043,1062,1082,1103,1124,1143,1163,1183],"xSR":741.5,"ySR":573.95,"xT1":424.9,"yT1":0,"xT2":1058.1,"yT2":0,"toosoon":0,"cond_shown":"randomdotsizeEA","ratio_trial":750,"smaller_num":"12","larger_num":"16","correct_side":2,"subjID":"juandavidmonroycuevas5","gender":"0","age":"12","school":"6"},{"start_time":1551892632640,"click_time":1551892633676,"finger_time":1551892633257,"fix_duration":1143.5065640508599,"trial":9,"RT":617,"MT":419,"sideResp":1,"stimulus":"img/900/equaldotanddens/L/8_Ratio_900_L_20_R_18.png","xmouse":[802,802,802,802,802,802,802,802,802,802,802,802,802,802,802,802,802,802,802,802,802,802,809,813,813,814,814,807,793,777,755,725,712,697,682,668,630,600,574,557,546,543,546,547,548,548,542,539,535,532,527,516],"ymouse":[611,611,611,611,611,611,611,611,611,611,611,611,611,611,611,611,611,611,611,611,611,608,596,592,591,591,590,586,582,576,565,543,516,471,404,335,197,132,70,32,4,0,0,0,0,0,0,0,0,0,0,10],"timestamp_mouse":[17,36,57,76,95,116,136,155,177,197,216,237,257,276,297,317,337,356,377,397,417,436,457,477,496,516,536,557,577,596,617,636,655,675,696,715,736,755,776,796,816,836,855,876,896,916,936,955,976,997,1015,1035],"xSR":741.5,"ySR":573.95,"xT1":424.9,"yT1":0,"xT2":1058.1,"yT2":0,"toosoon":0,"cond_shown":"equaldotanddens","ratio_trial":900,"smaller_num":"18","larger_num":"20","correct_side":1,"subjID":"juandavidmonroycuevas5","gender":"0","age":"12","school":"6"},{"start_time":1551892635048,"click_time":1551892636076,"finger_time":1551892635776,"fix_duration":670.9514230438484,"trial":10,"RT":728,"MT":300,"sideResp":1,"stimulus":"img/750/equaldotanddens/L/6_Ratio_750_L_24_R_18.png","xmouse":[810,810,810,810,810,810,810,810,810,810,810,810,810,810,810,810,810,810,810,810,810,810,810,810,810,810,810,810,810,810,810,810,810,810,801,784,749,733,707,666,626,593,588,578,567,559,554,546,542,536,530,521],"ymouse":[641,641,641,641,641,641,641,641,641,641,641,641,641,641,641,641,641,641,641,641,641,641,641,641,641,641,641,641,641,641,641,641,641,640,631,603,462,338,178,30,0,0,0,0,0,0,0,0,0,3,8,19],"timestamp_mouse":[8,33,49,68,88,107,128,147,168,188,209,228,247,269,289,308,328,349,368,389,408,429,449,468,488,508,528,549,568,589,608,628,649,668,688,708,728,748,768,788,809,828,848,867,888,908,928,947,968,988,1008,1027],"xSR":741.5,"ySR":573.95,"xT1":424.9,"yT1":0,"xT2":1058.1,"yT2":0,"toosoon":0,"cond_shown":"equaldotanddens","ratio_trial":750,"smaller_num":"18","larger_num":"24","correct_side":1,"subjID":"juandavidmonroycuevas5","gender":"0","age":"12","school":"6"},{"start_time":1551892637067,"click_time":1551892637877,"finger_time":1551892637576,"fix_duration":250,"trial":11,"RT":509,"MT":301,"sideResp":2,"stimulus":"img/750/equaldotanddens/R/4_Ratio_750_L_15_R_20.png","xmouse":[789,789,789,789,789,789,789,789,789,789,789,789,789,789,789,789,789,789,789,789,789,789,789,789,796,850,927,1025,1103,1154,1173,1158,1145,1140,1139,1139,1139,1139,1139,1138,1112],"ymouse":[607,607,607,607,607,607,607,607,607,607,607,607,607,607,607,607,607,607,607,607,607,607,607,607,604,567,507,413,329,221,5,0,0,0,0,0,0,0,0,0,16],"timestamp_mouse":[9,31,50,69,89,108,130,149,169,189,210,230,249,270,290,309,329,350,369,390,409,429,450,469,489,509,530,548,568,588,609,629,649,670,690,710,729,750,770,790,810],"xSR":741.5,"ySR":573.95,"xT1":424.9,"yT1":0,"xT2":1058.1,"yT2":0,"toosoon":0,"cond_shown":"equaldotanddens","ratio_trial":750,"smaller_num":"15","larger_num":"20","correct_side":2,"subjID":"juandavidmonroycuevas5","gender":"0","age":"12","school":"6"},{"start_time":1551892638928,"click_time":1551892639676,"finger_time":1551892639376,"fix_duration":250,"trial":12,"RT":448,"MT":300,"sideResp":1,"stimulus":"img/750/randomdotsizeEA/R/11_Ratio_750_L_12_R_16.png","xmouse":[773,773,773,773,773,773,773,773,773,773,773,773,773,773,773,773,773,773,770,760,753,742,718,700,688,682,678,676,670,661,648,635,620,580,553,538,525,523],"ymouse":[638,638,638,638,638,638,638,638,638,638,638,638,638,638,638,638,638,638,632,623,613,596,513,456,426,410,405,401,391,377,363,345,324,248,181,134,90,19],"timestamp_mouse":[9,29,48,68,89,108,128,148,169,189,209,229,248,269,288,308,329,348,367,388,408,428,448,469,488,508,527,547,569,588,608,628,648,668,689,708,728,748],"xSR":741.5,"ySR":573.95,"xT1":424.9,"yT1":0,"xT2":1058.1,"yT2":0,"toosoon":0,"cond_shown":"randomdotsizeEA","ratio_trial":750,"smaller_num":"12","larger_num":"16","correct_side":2,"subjID":"juandavidmonroycuevas5","gender":"0","age":"12","school":"6"},{"start_time":1551892641281,"click_time":1551892642116,"finger_time":1551892642016,"fix_duration":884.5733260002232,"trial":13,"RT":735,"MT":100,"sideResp":2,"stimulus":"img/250/randomdotsizeEA/R/12_Ratio_250_L_5_R_20.png","xmouse":[786,786,786,786,786,786,786,786,786,786,786,786,786,786,786,786,786,786,786,786,786,786,786,786,786,786,786,786,786,786,786,786,786,786,790,805,822,867,948,1104,1130,1148],"ymouse":[625,625,625,625,625,625,625,625,625,625,625,625,625,625,625,625,625,625,625,625,625,625,625,625,625,625,625,625,625,625,625,625,625,625,621,585,552,498,406,179,129,86],"timestamp_mouse":[16,35,55,76,94,115,135,156,175,194,216,236,256,276,295,315,336,355,375,395,416,435,456,474,495,515,535,555,574,595,616,635,655,676,695,715,735,755,775,795,815,834],"xSR":741.5,"ySR":573.95,"xT1":424.9,"yT1":0,"xT2":1058.1,"yT2":0,"toosoon":0,"cond_shown":"randomdotsizeEA","ratio_trial":250,"smaller_num":"5","larger_num":"20","correct_side":2,"subjID":"juandavidmonroycuevas5","gender":"0","age":"12","school":"6"},{"start_time":1551892643494,"click_time":1551892644816,"finger_time":1551892644416,"fix_duration":297.50859755694125,"trial":14,"RT":922,"MT":400,"sideResp":2,"stimulus":"img/750/randomdotsizeEA/R/11_Ratio_750_L_12_R_16.png","xmouse":[815,815,815,815,815,815,815,815,815,815,815,815,815,815,815,815,815,815,815,815,815,815,815,816,816,816,816,816,816,816,816,816,816,816,816,816,816,816,815,815,815,815,815,815,815,827,867,938,1008,1081,1165,1169,1169,1162,1136,1125,1117,1112,1109,1099,1096,1094,1094,1094,1106,1113,1119],"ymouse":[649,649,649,649,649,649,649,649,649,649,649,649,649,649,649,649,649,649,649,649,649,649,649,649,649,649,649,649,649,649,649,649,649,649,649,649,649,649,648,648,648,648,648,648,648,642,617,567,504,428,298,268,250,232,195,182,174,171,169,160,156,151,145,137,115,106,98],"timestamp_mouse":[9,28,43,62,82,101,122,143,163,182,202,223,242,263,283,301,322,343,363,382,402,422,442,463,482,502,523,543,563,582,602,623,643,661,682,703,723,741,763,783,802,823,842,862,883,902,922,942,962,982,1002,1022,1042,1062,1083,1101,1122,1142,1162,1182,1201,1221,1242,1262,1282,1301,1322],"xSR":741.5,"ySR":573.95,"xT1":424.9,"yT1":0,"xT2":1058.1,"yT2":0,"toosoon":0,"cond_shown":"randomdotsizeEA","ratio_trial":750,"smaller_num":"12","larger_num":"16","correct_side":2,"subjID":"juandavidmonroycuevas5","gender":"0","age":"12","school":"6"},{"start_time":1551892647103,"click_time":1551892648176,"finger_time":1551892647776,"fix_duration":765.7476336505496,"trial":15,"RT":673,"MT":400,"sideResp":2,"stimulus":"img/500/randomdotsizeEA/L/8_Ratio_500_L_8_R_4.png","xmouse":[808,808,808,808,808,808,808,808,808,808,808,808,808,808,808,808,808,808,808,808,807,805,803,802,802,802,802,802,802,802,806,811,824,868,907,950,985,1032,1093,1116,1128,1128,1124,1107,1104,1104,1104,1104,1104,1103,1103,1103,1103,1104],"ymouse":[633,633,633,633,633,633,633,633,633,633,633,633,633,633,633,633,633,633,633,633,633,633,632,630,630,630,630,630,630,630,626,624,616,590,572,552,537,507,411,345,297,272,251,207,187,175,168,161,149,145,139,128,116,90],"timestamp_mouse":[13,44,53,74,94,114,133,153,173,193,213,234,253,272,294,314,333,353,373,394,413,433,453,473,494,513,534,553,573,594,612,633,652,673,692,713,733,753,773,792,814,833,853,873,892,912,933,953,973,993,1013,1034,1053,1073],"xSR":741.5,"ySR":573.95,"xT1":424.9,"yT1":0,"xT2":1058.1,"yT2":0,"toosoon":0,"cond_shown":"randomdotsizeEA","ratio_trial":500,"smaller_num":"4","larger_num":"8","correct_side":1,"subjID":"juandavidmonroycuevas5","gender":"0","age":"12","school":"6"},{"start_time":1551892649629,"click_time":1551892650756,"finger_time":1551892650456,"fix_duration":732.7746396006623,"trial":16,"RT":827,"MT":300,"sideResp":2,"stimulus":"img/250/equaldotsize/R/11_Ratio_250_L_3_R_12.png","xmouse":[803,803,803,803,803,803,803,803,803,803,803,803,803,803,803,803,803,803,803,803,803,803,803,803,803,803,803,803,803,803,803,803,803,803,803,803,807,815,820,829,839,853,939,985,1020,1037,1043,1043,1043,1043,1045,1051,1056,1057,1057,1058,1061],"ymouse":[626,626,626,626,626,626,626,626,626,626,626,626,626,626,626,626,626,626,626,626,626,626,626,626,626,626,626,626,626,626,626,626,626,626,626,626,624,618,614,608,601,590,503,445,386,336,287,175,140,110,83,63,47,46,45,44,42],"timestamp_mouse":[7,27,48,67,87,107,127,147,167,188,207,227,248,267,287,307,327,347,367,387,407,427,446,468,487,506,528,547,566,587,607,627,647,667,687,708,727,747,767,787,807,827,846,867,888,907,927,947,968,987,1007,1027,1047,1067,1088,1108,1127],"xSR":741.5,"ySR":573.95,"xT1":424.9,"yT1":0,"xT2":1058.1,"yT2":0,"toosoon":0,"cond_shown":"equaldotsize","ratio_trial":250,"smaller_num":"3","larger_num":"12","correct_side":2,"subjID":"juandavidmonroycuevas5","gender":"0","age":"12","school":"6"},{"start_time":1551892653034,"click_time":1551892654016,"finger_time":1551892653695,"fix_duration":1256.0178930088694,"trial":17,"RT":661,"MT":321,"sideResp":2,"stimulus":"img/500/equaldotanddens/R/3_Ratio_500_L_10_R_20.png","xmouse":[812,812,812,812,812,812,812,812,812,812,812,812,812,812,812,812,812,812,812,812,812,812,812,812,812,812,812,812,812,812,812,812,820,844,883,935,990,1075,1079,1079,1079,1079,1079,1079,1079,1079,1079,1079,1079,1080],"ymouse":[605,605,605,605,605,605,605,605,605,605,605,605,605,605,605,605,605,605,605,605,605,605,605,605,605,605,605,605,605,605,605,605,596,559,480,366,227,0,0,0,0,0,0,0,0,0,0,0,0,3],"timestamp_mouse":[8,22,42,62,82,103,122,142,163,182,202,222,243,263,283,302,322,342,362,383,403,422,442,463,481,503,523,543,562,583,603,623,642,661,683,702,722,742,762,782,802,823,843,862,882,903,923,942,962,982],"xSR":741.5,"ySR":573.95,"xT1":424.9,"yT1":0,"xT2":1058.1,"yT2":0,"toosoon":0,"cond_shown":"equaldotanddens","ratio_trial":500,"smaller_num":"10","larger_num":"20","correct_side":2,"subjID":"juandavidmonroycuevas5","gender":"0","age":"12","school":"6"},{"start_time":1551892658766,"click_time":1551892660056,"finger_time":1551892659576,"fix_duration":787.7369331943363,"trial":18,"RT":810,"MT":480,"sideResp":2,"stimulus":"img/900/equaldotsize/L/1_Ratio_900_L_10_R_9.png","xmouse":[787,787,787,787,787,787,787,787,787,787,787,787,787,787,787,787,787,787,787,787,787,787,787,787,787,787,787,787,787,787,787,787,787,787,787,787,787,787,787,788,878,1006,1135,1217,1266,1317,1317,1313,1306,1296,1279,1276,1271,1264,1256,1246,1204,1188,1176,1171,1166,1164,1161,1160,1158],"ymouse":[598,598,598,598,598,598,598,598,598,598,598,598,598,598,598,598,598,598,598,598,598,598,598,598,598,598,598,598,598,598,598,598,598,598,598,598,598,598,598,597,563,493,416,353,292,116,83,57,35,19,2,2,0,0,0,0,5,11,14,15,16,16,17,17,18],"timestamp_mouse":[10,39,50,70,90,111,130,151,171,190,210,231,250,270,290,310,330,350,370,391,409,431,450,470,490,510,531,551,570,591,609,630,649,670,690,710,730,750,770,790,810,830,850,870,890,910,929,951,971,990,1010,1030,1050,1070,1091,1110,1131,1150,1171,1190,1210,1230,1251,1271,1290],"xSR":741.5,"ySR":573.95,"xT1":424.9,"yT1":0,"xT2":1058.1,"yT2":0,"toosoon":0,"cond_shown":"equaldotsize","ratio_trial":900,"smaller_num":"9","larger_num":"10","correct_side":1,"subjID":"juandavidmonroycuevas5","gender":"0","age":"12","school":"6"},{"start_time":1551892663849,"click_time":1551892664896,"finger_time":1551892664536,"fix_duration":250,"trial":19,"RT":687,"MT":360,"sideResp":2,"stimulus":"img/250/equaldotanddens/R/12_Ratio_250_L_5_R_20.png","xmouse":[789,789,789,789,789,789,789,789,789,789,789,789,789,789,789,789,789,789,789,789,789,789,789,789,789,789,789,789,789,789,789,789,792,809,842,888,991,1029,1047,1056,1061,1063,1063,1063,1063,1063,1062,1055,1047,1042,1042,1056,1066],"ymouse":[605,605,605,605,605,605,605,605,605,605,605,605,605,605,605,605,605,605,605,605,605,605,605,605,605,605,605,605,605,605,605,605,604,591,565,524,419,352,292,247,214,176,173,172,172,172,170,163,152,136,112,86,77],"timestamp_mouse":[7,34,47,68,88,107,127,148,167,187,208,227,246,268,287,307,327,347,367,388,408,428,448,467,488,508,527,547,567,588,606,627,648,667,687,707,727,748,767,787,807,826,846,868,888,907,927,947,967,987,1007,1027,1047],"xSR":741.5,"ySR":573.95,"xT1":424.9,"yT1":0,"xT2":1058.1,"yT2":0,"toosoon":0,"cond_shown":"equaldotanddens","ratio_trial":250,"smaller_num":"5","larger_num":"20","correct_side":2,"subjID":"juandavidmonroycuevas5","gender":"0","age":"12","school":"6"},{"start_time":1551892669149,"click_time":1551892670096,"finger_time":1551892669716,"fix_duration":1311.8911231269315,"trial":20,"RT":567,"MT":380,"sideResp":1,"stimulus":"img/750/equaldotsize/L/1_Ratio_750_L_20_R_15.png","xmouse":[797,797,797,797,797,797,797,797,797,797,797,797,797,797,797,797,797,797,797,797,798,798,798,798,797,788,761,751,742,735,726,716,716,706,686,666,661,660,659,651,645,612,591,575,561,550,527,520],"ymouse":[629,629,629,629,629,629,629,629,629,629,629,629,629,629,629,629,629,629,627,626,625,625,623,620,614,605,587,580,567,549,517,384,294,216,163,130,125,124,124,120,116,98,89,81,73,66,56,52],"timestamp_mouse":[8,39,47,67,88,107,127,147,168,187,208,227,247,267,287,313,327,347,367,387,407,427,447,467,487,506,527,546,567,587,607,627,647,667,687,707,727,748,768,787,807,827,847,867,887,908,927,947],"xSR":741.5,"ySR":573.95,"xT1":424.9,"yT1":0,"xT2":1058.1,"yT2":0,"toosoon":0,"cond_shown":"equaldotsize","ratio_trial":750,"smaller_num":"15","larger_num":"20","correct_side":1,"subjID":"juandavidmonroycuevas5","gender":"0","age":"12","school":"6"},{"start_time":1551892676872,"click_time":1551892677856,"finger_time":1551892677496,"fix_duration":914.9874817262765,"trial":21,"RT":624,"MT":360,"sideResp":1,"stimulus":"img/500/equaldotsize/L/8_Ratio_500_L_8_R_4.png","xmouse":[813,813,813,813,813,813,813,813,813,813,813,813,813,813,813,813,813,813,813,813,813,813,813,813,813,813,813,813,813,813,805,747,698,655,631,613,610,604,597,588,576,573,571,569,567,561,555,547,535,522],"ymouse":[605,605,605,605,605,605,605,605,605,605,605,605,605,605,605,605,605,605,605,605,605,605,605,605,605,605,605,605,605,604,583,482,406,334,280,230,207,179,153,121,93,86,81,79,76,71,68,63,58,54],"timestamp_mouse":[8,32,43,64,84,104,125,144,163,185,204,224,245,265,284,305,324,345,364,384,405,423,445,465,484,504,525,543,565,585,604,624,644,664,684,704,724,743,764,784,803,823,844,865,884,904,924,944,964,984],"xSR":741.5,"ySR":573.95,"xT1":424.9,"yT1":0,"xT2":1058.1,"yT2":0,"toosoon":0,"cond_shown":"equaldotsize","ratio_trial":500,"smaller_num":"4","larger_num":"8","correct_side":1,"subjID":"juandavidmonroycuevas5","gender":"0","age":"12","school":"6"},{"start_time":1551892679297,"click_time":1551892680616,"finger_time":1551892680176,"fix_duration":558.5042907914573,"trial":22,"RT":879,"MT":440,"sideResp":2,"stimulus":"img/750/randomdotsizeEA/R/11_Ratio_750_L_12_R_16.png","xmouse":[790,790,790,790,790,790,790,790,790,790,790,790,790,790,790,790,790,790,790,790,790,790,790,790,790,790,790,790,790,790,790,790,790,790,790,790,790,790,790,790,790,794,804,819,871,892,913,934,958,990,1012,1029,1043,1053,1068,1073,1076,1079,1080,1082,1082,1082,1082,1082,1082,1087,1092],"ymouse":[612,612,612,612,612,612,612,612,612,612,612,612,612,612,612,612,612,612,612,612,612,612,612,612,612,612,612,612,612,612,612,612,612,612,612,612,612,612,612,612,612,612,607,600,570,554,536,515,484,431,392,354,319,284,216,186,163,145,133,124,124,124,124,123,119,105,96],"timestamp_mouse":[1,28,39,58,78,100,119,139,159,178,199,219,240,260,279,299,320,339,360,378,400,419,439,460,479,499,519,539,560,579,599,620,640,660,679,699,720,739,759,779,799,819,840,858,879,900,919,939,960,978,1000,1020,1039,1059,1079,1098,1119,1139,1159,1179,1199,1219,1239,1259,1279,1300,1318],"xSR":741.5,"ySR":573.95,"xT1":424.9,"yT1":0,"xT2":1058.1,"yT2":0,"toosoon":0,"cond_shown":"randomdotsizeEA","ratio_trial":750,"smaller_num":"12","larger_num":"16","correct_side":2,"subjID":"juandavidmonroycuevas5","gender":"0","age":"12","school":"6"},{"start_time":1551892682780,"click_time":1551892684797,"finger_time":1551892683997,"fix_duration":522.2406869373187,"trial":23,"RT":1217,"MT":800,"sideResp":2,"stimulus":"img/500/randomdotsizeEA/R/15_Ratio_500_L_1_R_2.png","xmouse":[810,810,810,810,810,810,810,810,810,810,810,810,810,810,810,810,810,810,810,810,810,810,810,810,810,810,810,810,810,810,810,810,810,810,810,810,810,810,810,810,810,810,810,810,810,810,810,810,810,810,810,810,810,810,810,810,808,804,790,764,751,738,724,712,688,683,683,683,683,683,686,694,702,711,736,751,773,798,817,846,862,884,913,978,1081,1129,1168,1184,1191,1195,1195,1195,1191,1185,1177,1167,1167,1166,1165,1162,1153],"ymouse":[631,631,631,631,631,631,631,631,631,631,631,631,631,631,631,631,631,631,631,631,631,631,631,631,631,631,631,631,631,631,631,631,631,631,631,631,631,631,631,631,631,631,631,631,631,631,631,631,631,631,631,631,631,631,631,631,629,626,617,590,573,551,523,493,430,415,410,409,409,408,407,407,407,407,409,414,419,426,430,431,431,426,414,380,287,219,157,119,91,50,31,15,1,0,0,0,0,0,0,1,12],"timestamp_mouse":[16,36,57,76,96,116,137,156,177,196,217,236,257,277,298,317,336,358,376,396,418,437,457,478,497,517,537,557,576,596,618,636,656,676,696,716,737,756,777,797,818,836,857,877,896,916,937,957,977,997,1016,1037,1056,1078,1096,1117,1137,1158,1176,1196,1216,1237,1256,1278,1296,1316,1337,1358,1376,1396,1416,1437,1456,1477,1496,1516,1538,1558,1578,1597,1616,1637,1657,1678,1696,1716,1738,1757,1776,1797,1816,1837,1858,1877,1897,1916,1937,1957,1978,1996,2017],"xSR":741.5,"ySR":573.95,"xT1":424.9,"yT1":0,"xT2":1058.1,"yT2":0,"toosoon":0,"cond_shown":"randomdotsizeEA","ratio_trial":500,"smaller_num":"1","larger_num":"2","correct_side":2,"subjID":"juandavidmonroycuevas5","gender":"0","age":"12","school":"6"},{"start_time":1551892696674,"click_time":1551892699256,"finger_time":1551892697517,"fix_duration":497.4228720516578,"trial":24,"RT":843,"MT":1739,"sideResp":1,"stimulus":"img/900/randomdotsizeEA/L/2_Ratio_900_L_20_R_18.png","xmouse":[787,787,787,787,787,787,787,787,787,787,787,787,787,787,787,787,787,787,787,787,787,787,787,787,787,787,787,787,787,787,787,787,787,787,787,787,787,787,787,787,781,764,729,689,654,608,601,599,599,599,599,599,599,599,599,599,599,600,622,658,764,942,1017,1072,1106,1159,1187,1223,1252,1267,1272,1262,1246,1224,1201,1168,1161,1157,1157,1157,1157,1157,1157,1157,1157,1157,1157,1157,1157,1156,1156,1156,1156,1156,1156,1156,1156,1156,1156,1156,1156,1156,1155,1133,1089,911,777,660,571,503,341,284,231,195,179,171,171,171,171,174,215,230,247,265,282,315,331,352,402,487],"ymouse":[616,616,616,616,616,616,616,616,616,616,616,616,616,616,616,616,616,616,616,616,616,616,616,616,616,616,616,616,616,616,616,616,616,616,616,615,615,615,615,615,604,575,513,447,383,305,288,283,282,282,282,282,282,282,282,282,282,282,292,310,354,421,439,447,447,436,419,384,349,328,304,243,217,191,169,147,144,142,142,142,142,142,142,142,142,142,142,142,142,141,138,137,136,136,136,136,136,136,136,136,136,145,167,203,261,392,441,461,461,439,297,222,146,101,79,70,70,70,70,63,42,32,24,18,14,12,12,19,36,64],"timestamp_mouse":[8,22,44,65,83,103,124,143,163,183,203,223,243,263,283,303,322,342,363,383,402,423,442,462,484,502,523,543,562,583,603,623,642,663,684,703,724,742,762,784,802,824,843,864,883,903,922,944,963,983,1003,1023,1042,1062,1084,1103,1123,1142,1162,1183,1202,1222,1242,1263,1282,1303,1322,1342,1362,1384,1402,1422,1442,1463,1483,1503,1522,1543,1563,1582,1603,1623,1643,1663,1682,1703,1723,1742,1763,1783,1803,1823,1842,1862,1883,1903,1923,1942,1962,1983,2003,2023,2042,2063,2082,2103,2122,2143,2162,2183,2203,2222,2243,2263,2283,2303,2322,2342,2363,2383,2403,2423,2442,2464,2483,2502,2522,2543,2562,2582],"xSR":741.5,"ySR":573.95,"xT1":424.9,"yT1":0,"xT2":1058.1,"yT2":0,"toosoon":0,"cond_shown":"randomdotsizeEA","ratio_trial":900,"smaller_num":"18","larger_num":"20","correct_side":1,"subjID":"juandavidmonroycuevas5","gender":"0","age":"12","school":"6"},{"start_time":1551892701182,"click_time":1551892703058,"finger_time":1551892702017,"fix_duration":684.1743837623421,"trial":25,"RT":835,"MT":1041,"sideResp":2,"stimulus":"img/900/randomdotsizeEA/R/6_Ratio_900_L_9_R_10.png","xmouse":[804,804,804,804,804,804,804,804,804,804,804,804,804,804,804,804,804,804,804,804,804,804,804,804,804,804,804,804,804,804,804,804,804,804,804,804,804,804,804,805,814,825,838,849,867,869,873,878,880,882,882,882,882,882,885,888,890,890,890,874,860,843,825,804,695,633,578,545,527,511,488,472,460,448,446,450,463,506,620,964,1126,1240,1320,1373,1417,1417,1417,1417,1418,1404,1382,1325,1227,1079],"ymouse":[584,584,584,584,584,584,584,584,584,584,584,584,584,584,584,584,584,584,584,584,584,584,584,584,584,584,584,584,584,584,584,584,584,584,584,584,584,584,584,584,574,561,546,531,502,494,482,468,455,438,434,433,433,433,427,420,411,402,394,378,373,369,365,362,346,329,313,303,298,294,282,270,260,249,235,228,216,205,200,232,258,274,279,282,283,283,283,283,283,260,233,186,134,75],"timestamp_mouse":[15,38,56,75,95,114,136,154,176,195,215,235,255,274,295,315,335,354,376,396,415,435,455,474,496,514,535,554,574,595,614,635,654,675,695,714,734,755,775,796,815,835,855,876,894,916,935,955,975,994,1014,1035,1056,1075,1094,1114,1135,1154,1174,1194,1214,1235,1254,1274,1295,1314,1335,1355,1375,1395,1414,1434,1454,1474,1494,1514,1535,1555,1575,1595,1616,1635,1656,1674,1694,1715,1734,1756,1774,1794,1814,1835,1854,1876],"xSR":741.5,"ySR":573.95,"xT1":424.9,"yT1":0,"xT2":1058.1,"yT2":0,"toosoon":0,"cond_shown":"randomdotsizeEA","ratio_trial":900,"smaller_num":"9","larger_num":"10","correct_side":2,"subjID":"juandavidmonroycuevas5","gender":"0","age":"12","school":"6"},{"start_time":1551892709885,"click_time":1551892710677,"finger_time":1551892710477,"fix_duration":966.2659744542779,"trial":26,"RT":592,"MT":200,"sideResp":1,"stimulus":"img/250/equaldotsize/L/1_Ratio_250_L_8_R_2.png","xmouse":[812,812,812,812,812,812,812,812,812,812,812,812,812,812,812,812,812,812,812,812,812,812,812,812,812,812,803,793,766,638,578,528,500,481,462,458,458,458,459,468],"ymouse":[603,603,603,603,603,603,603,603,603,603,603,603,603,603,603,603,603,603,603,603,603,603,603,603,603,603,602,594,575,483,428,372,333,294,234,208,182,154,123,63],"timestamp_mouse":[11,31,51,71,93,112,132,151,171,191,212,232,252,273,292,311,332,351,371,391,413,431,452,473,491,512,531,551,573,592,611,631,652,672,691,711,732,751,773,791],"xSR":741.5,"ySR":573.95,"xT1":424.9,"yT1":0,"xT2":1058.1,"yT2":0,"toosoon":0,"cond_shown":"equaldotsize","ratio_trial":250,"smaller_num":"2","larger_num":"8","correct_side":1,"subjID":"juandavidmonroycuevas5","gender":"0","age":"12","school":"6"},{"start_time":1551892711890,"click_time":1551892713077,"finger_time":1551892712376,"fix_duration":253.58244919722694,"trial":27,"RT":486,"MT":701,"sideResp":1,"stimulus":"img/500/randomdotsizeEA/L/4_Ratio_500_L_18_R_9.png","xmouse":[818,818,818,818,818,818,818,818,818,818,818,818,818,818,818,818,818,818,818,818,822,826,831,835,844,851,860,870,872,878,879,879,879,879,879,872,857,830,786,684,507,430,388,374,366,364,364,364,360,353,352,352,355,361,379,392,410,431,451,487],"ymouse":[647,647,647,647,647,647,647,647,647,647,647,647,647,647,647,647,647,647,647,648,648,647,646,644,641,638,634,631,630,627,627,627,627,627,627,620,614,606,592,579,535,510,488,474,435,411,390,370,350,295,276,261,250,237,204,181,154,123,102,73],"timestamp_mouse":[7,27,47,67,87,107,127,147,168,199,208,227,246,267,286,306,327,347,368,386,407,427,446,466,486,506,527,546,567,586,606,627,647,668,687,706,726,746,766,787,807,828,846,866,887,906,926,946,967,986,1007,1027,1047,1066,1088,1106,1126,1146,1167,1186],"xSR":741.5,"ySR":573.95,"xT1":424.9,"yT1":0,"xT2":1058.1,"yT2":0,"toosoon":0,"cond_shown":"randomdotsizeEA","ratio_trial":500,"smaller_num":"9","larger_num":"18","correct_side":1,"subjID":"juandavidmonroycuevas5","gender":"0","age":"12","school":"6"},{"start_time":1551892714128,"click_time":1551892715057,"finger_time":1551892714777,"fix_duration":250,"trial":28,"RT":649,"MT":280,"sideResp":2,"stimulus":"img/900/equaldotanddens/R/5_Ratio_900_L_9_R_10.png","xmouse":[824,824,824,824,824,824,824,824,824,824,824,824,824,824,824,824,824,824,824,824,824,824,824,824,824,824,824,824,824,824,824,824,845,896,981,1090,1220,1279,1279,1277,1267,1259,1237,1224,1204,1175,1133],"ymouse":[600,600,600,600,600,600,600,600,600,600,600,600,600,600,600,600,600,600,600,600,600,600,600,600,600,600,600,600,600,600,600,600,600,593,575,536,450,359,310,255,207,181,146,134,123,111,95],"timestamp_mouse":[8,28,49,70,89,109,128,148,168,189,208,228,250,269,290,310,328,350,369,390,408,430,449,468,489,508,528,548,570,589,608,629,649,668,688,708,729,749,769,789,810,828,848,868,889,909,929],"xSR":741.5,"ySR":573.95,"xT1":424.9,"yT1":0,"xT2":1058.1,"yT2":0,"toosoon":0,"cond_shown":"equaldotanddens","ratio_trial":900,"smaller_num":"9","larger_num":"10","correct_side":2,"subjID":"juandavidmonroycuevas5","gender":"0","age":"12","school":"6"},{"start_time":1551892716947,"click_time":1551892717976,"finger_time":1551892717717,"fix_duration":749.2086193032852,"trial":29,"RT":770,"MT":259,"sideResp":1,"stimulus":"img/900/equaldotanddens/L/10_Ratio_900_L_20_R_18.png","xmouse":[799,799,799,799,799,799,799,799,799,799,799,799,799,799,799,799,799,799,799,799,799,799,800,800,800,800,809,811,813,815,818,823,825,825,823,811,791,749,729,710,684,601,546,499,474,461,455,461,472,482,494,515],"ymouse":[606,606,606,606,606,606,606,606,606,606,606,606,606,606,606,606,606,606,606,606,606,606,609,611,615,623,641,643,644,644,644,642,641,641,636,627,614,594,585,576,562,509,468,425,387,355,269,232,201,176,147,98],"timestamp_mouse":[9,35,51,71,90,110,130,150,170,190,209,230,251,270,290,310,330,351,370,390,410,430,449,469,489,510,530,550,569,589,609,629,650,671,691,711,729,749,770,791,810,830,849,870,890,909,929,949,969,990,1009,1029],"xSR":741.5,"ySR":573.95,"xT1":424.9,"yT1":0,"xT2":1058.1,"yT2":0,"toosoon":0,"cond_shown":"equaldotanddens","ratio_trial":900,"smaller_num":"18","larger_num":"20","correct_side":1,"subjID":"juandavidmonroycuevas5","gender":"0","age":"12","school":"6"},{"start_time":1551892719372,"click_time":1551892720617,"finger_time":1551892720276,"fix_duration":695.8674975505544,"trial":30,"RT":904,"MT":341,"sideResp":2,"stimulus":"img/500/randomdotsizeEA/R/15_Ratio_500_L_1_R_2.png","xmouse":[765,765,765,765,765,765,765,765,765,765,765,765,765,765,765,765,765,768,770,771,775,778,783,785,786,786,786,786,786,786,786,786,786,786,786,786,786,786,786,786,786,789,796,810,833,942,986,1029,1059,1080,1082,1072,1063,1055,1051,1050,1050,1051,1052,1052,1052,1052,1064],"ymouse":[592,592,592,592,592,592,592,592,592,592,592,592,592,592,592,592,592,593,596,597,600,603,605,607,607,607,607,607,607,607,607,607,607,607,607,607,607,607,607,607,607,607,607,607,601,561,530,485,427,364,250,207,169,147,132,84,70,63,60,59,59,58,58],"timestamp_mouse":[9,36,45,65,85,105,124,144,164,185,204,226,244,266,284,304,325,344,366,385,405,424,444,466,485,505,526,546,564,584,606,625,645,665,684,704,724,744,765,786,805,824,844,865,885,904,924,945,965,985,1004,1024,1045,1064,1085,1104,1124,1145,1166,1185,1205,1224,1245],"xSR":741.5,"ySR":573.95,"xT1":424.9,"yT1":0,"xT2":1058.1,"yT2":0,"toosoon":0,"cond_shown":"randomdotsizeEA","ratio_trial":500,"smaller_num":"1","larger_num":"2","correct_side":2,"subjID":"juandavidmonroycuevas5","gender":"0","age":"12","school":"6"},{"start_time":1551892722116,"click_time":1551892722996,"finger_time":1551892722777,"fix_duration":697.4826143749995,"trial":31,"RT":661,"MT":219,"sideResp":2,"stimulus":"img/750/equaldotsize/R/3_Ratio_750_L_15_R_20.png","xmouse":[798,798,798,798,798,798,798,798,798,798,798,798,798,798,798,798,798,798,798,798,798,798,798,798,798,798,798,798,798,798,798,809,819,915,975,1025,1060,1089,1126,1129,1114,1103,1093,1084,1069],"ymouse":[644,644,644,644,644,644,644,644,644,644,644,644,644,644,644,644,644,644,644,644,644,644,644,644,644,644,644,644,644,644,644,635,630,569,526,486,455,421,327,247,190,154,129,108,75],"timestamp_mouse":[8,21,40,60,81,101,122,141,160,182,200,221,240,260,281,300,321,341,360,382,400,420,442,461,480,502,520,541,561,581,601,620,641,661,680,701,720,741,760,780,801,820,841,860,880],"xSR":741.5,"ySR":573.95,"xT1":424.9,"yT1":0,"xT2":1058.1,"yT2":0,"toosoon":0,"cond_shown":"equaldotsize","ratio_trial":750,"smaller_num":"15","larger_num":"20","correct_side":2,"subjID":"juandavidmonroycuevas5","gender":"0","age":"12","school":"6"},{"start_time":1551892724228,"click_time":1551892725296,"finger_time":1551892724898,"fix_duration":250,"trial":32,"RT":670,"MT":398,"sideResp":2,"stimulus":"img/500/equaldotsize/R/3_Ratio_500_L_10_R_20.png","xmouse":[807,807,807,807,807,807,807,807,807,807,807,807,807,807,807,807,807,807,807,807,807,807,807,807,807,807,807,808,812,814,819,821,835,887,937,1001,1050,1098,1107,1108,1108,1108,1144,1166,1173,1173,1170,1156,1153,1151,1151,1149,1135,1125],"ymouse":[621,621,621,621,621,621,621,621,621,621,621,621,621,621,621,621,621,621,621,621,621,621,621,621,621,621,623,623,623,623,623,623,620,588,550,497,447,353,313,277,248,207,102,50,14,0,0,0,0,0,0,0,0,9],"timestamp_mouse":[9,29,50,69,88,110,128,149,168,189,210,228,248,269,290,309,329,349,368,389,409,428,448,470,488,509,529,549,569,588,608,628,648,670,689,710,728,748,768,789,809,829,849,868,889,909,928,948,968,989,1009,1029,1048,1068],"xSR":741.5,"ySR":573.95,"xT1":424.9,"yT1":0,"xT2":1058.1,"yT2":0,"toosoon":0,"cond_shown":"equaldotsize","ratio_trial":500,"smaller_num":"10","larger_num":"20","correct_side":2,"subjID":"juandavidmonroycuevas5","gender":"0","age":"12","school":"6"},{"start_time":1551892727150,"click_time":1551892728396,"finger_time":1551892727937,"fix_duration":912.5144704188879,"trial":33,"RT":787,"MT":459,"sideResp":1,"stimulus":"img/750/randomdotsizeEA/L/14_Ratio_750_L_8_R_6.png","xmouse":[816,816,816,816,816,816,816,816,816,816,816,816,816,816,816,816,816,816,816,816,816,816,816,816,816,816,817,818,818,818,818,818,818,818,815,812,797,783,767,751,731,688,674,669,667,665,663,650,639,627,615,604,588,584,578,576,569,566,563,561,556,538,523],"ymouse":[630,630,630,630,630,630,630,630,630,630,630,630,630,630,630,630,630,630,630,630,630,630,630,630,630,630,630,630,630,630,630,630,630,629,628,626,617,605,586,559,513,420,397,386,380,373,369,345,332,320,309,299,275,262,241,232,188,169,152,133,117,79,61],"timestamp_mouse":[8,27,48,66,87,108,126,147,168,187,207,228,248,266,287,307,327,347,366,387,406,428,447,466,487,506,526,547,566,586,608,628,646,666,686,706,726,746,767,787,807,827,847,866,887,906,926,946,966,986,1007,1027,1047,1066,1086,1106,1126,1146,1166,1186,1207,1227,1246],"xSR":741.5,"ySR":573.95,"xT1":424.9,"yT1":0,"xT2":1058.1,"yT2":0,"toosoon":0,"cond_shown":"randomdotsizeEA","ratio_trial":750,"smaller_num":"6","larger_num":"8","correct_side":1,"subjID":"juandavidmonroycuevas5","gender":"0","age":"12","school":"6"},{"start_time":1551892729918,"click_time":1551892730938,"finger_time":1551892730776,"fix_duration":621.6416076729831,"trial":34,"RT":858,"MT":162,"sideResp":1,"stimulus":"img/900/randomdotsizeEA/R/14_Ratio_900_L_18_R_20.png","xmouse":[783,783,783,783,783,783,783,783,783,783,783,783,783,783,783,783,783,783,783,783,783,783,783,783,783,783,783,783,783,783,783,783,783,783,783,783,783,783,783,777,768,749,676,638,600,568,522,479,472,469,467],"ymouse":[620,620,620,620,620,620,620,620,620,620,620,620,620,620,620,620,620,620,620,620,620,620,620,620,620,620,620,620,620,620,620,620,620,620,620,620,620,620,620,619,613,595,490,421,357,299,214,137,119,104,88],"timestamp_mouse":[19,39,59,79,100,120,138,158,180,199,219,238,259,280,298,318,339,358,379,399,419,438,458,478,499,520,539,560,579,599,620,639,659,680,699,718,739,759,778,798,818,838,858,878,898,918,938,958,978,998,1020],"xSR":741.5,"ySR":573.95,"xT1":424.9,"yT1":0,"xT2":1058.1,"yT2":0,"toosoon":0,"cond_shown":"randomdotsizeEA","ratio_trial":900,"smaller_num":"18","larger_num":"20","correct_side":2,"subjID":"juandavidmonroycuevas5","gender":"0","age":"12","school":"6"},{"start_time":1551892732085,"click_time":1551892732476,"finger_time":1551892732117,"fix_duration":428.9568760104121,"trial":35,"RT":32,"MT":359,"sideResp":2,"stimulus":"img/250/equaldotsize/L/2_Ratio_250_L_16_R_4.png","xmouse":[838,850,861,867,874,875,876,876,876,879,885,893,902,916,953,974,992,1005,1018,1063],"ymouse":[635,618,600,589,576,573,573,573,573,564,548,529,503,463,377,329,274,230,183,82],"timestamp_mouse":[15,32,52,71,93,111,132,152,173,191,211,232,252,271,292,311,331,351,372,391],"xSR":741.5,"ySR":573.95,"xT1":424.9,"yT1":0,"xT2":1058.1,"yT2":0,"toosoon":0,"cond_shown":"equaldotsize","ratio_trial":250,"smaller_num":"4","larger_num":"16","correct_side":1,"subjID":"juandavidmonroycuevas5","gender":"0","age":"12","school":"6"},{"start_time":1551892733680,"click_time":1551892734538,"finger_time":1551892734317,"fix_duration":302.3089287303634,"trial":36,"RT":637,"MT":221,"sideResp":1,"stimulus":"img/750/randomdotsizeEA/R/7_Ratio_750_L_3_R_4.png","xmouse":[793,793,793,793,793,793,793,793,793,793,793,793,793,793,793,793,793,793,793,793,792,792,791,788,784,783,783,782,780,776,759,745,729,710,676,655,627,592,563,526,508,505,504],"ymouse":[632,632,632,632,632,632,632,632,632,632,632,632,632,632,632,632,631,630,628,623,621,619,617,611,607,605,605,604,603,600,585,568,543,509,440,392,336,278,225,161,120,109,99],"timestamp_mouse":[16,36,57,76,96,116,137,157,177,196,217,236,258,278,296,316,337,356,376,396,417,436,457,477,496,518,536,557,577,596,616,637,657,677,697,716,737,756,776,796,816,837,857],"xSR":741.5,"ySR":573.95,"xT1":424.9,"yT1":0,"xT2":1058.1,"yT2":0,"toosoon":0,"cond_shown":"randomdotsizeEA","ratio_trial":750,"smaller_num":"3","larger_num":"4","correct_side":2,"subjID":"juandavidmonroycuevas5","gender":"0","age":"12","school":"6"},{"start_time":1551892735629,"click_time":1551892736776,"finger_time":1551892736336,"fix_duration":250,"trial":37,"RT":707,"MT":440,"sideResp":2,"stimulus":"img/250/randomdotsizeEA/R/11_Ratio_250_L_3_R_12.png","xmouse":[768,768,768,768,768,768,768,768,768,768,768,768,768,768,770,770,772,781,785,787,788,788,788,788,788,788,788,788,788,788,788,790,807,820,836,850,862,877,881,891,903,916,954,979,994,1000,1003,1009,1010,1011,1011,1011,1011,1013,1018,1024,1036,1067],"ymouse":[613,613,613,613,613,613,613,613,613,613,613,613,613,613,613,613,613,613,612,612,612,612,612,612,612,612,612,612,612,612,612,612,608,603,594,581,564,519,490,450,407,360,235,178,141,117,104,86,83,82,82,82,82,81,81,80,77,71],"timestamp_mouse":[9,30,49,68,88,107,127,149,167,188,208,227,247,267,287,308,327,348,367,388,407,428,447,468,487,508,527,548,569,589,608,627,647,668,688,707,728,748,767,788,807,828,848,868,888,908,927,948,968,987,1008,1028,1048,1069,1087,1108,1128,1147],"xSR":741.5,"ySR":573.95,"xT1":424.9,"yT1":0,"xT2":1058.1,"yT2":0,"toosoon":0,"cond_shown":"randomdotsizeEA","ratio_trial":250,"smaller_num":"3","larger_num":"12","correct_side":2,"subjID":"juandavidmonroycuevas5","gender":"0","age":"12","school":"6"},{"start_time":1551892739233,"click_time":1551892740277,"finger_time":1551892739876,"fix_duration":1275.96722505736,"trial":38,"RT":643,"MT":401,"sideResp":1,"stimulus":"img/500/equaldotanddens/L/5_Ratio_500_L_4_R_2.png","xmouse":[805,805,805,805,805,805,805,805,805,805,805,805,805,805,805,805,805,805,805,805,805,805,805,805,805,805,804,798,795,792,788,777,771,699,668,645,634,619,613,611,611,611,610,608,608,608,607,595,584,570,558,547,521],"ymouse":[603,603,603,603,603,603,603,603,603,603,603,603,603,603,603,603,603,603,603,603,603,603,603,603,603,603,603,601,599,597,593,579,572,481,433,391,361,308,276,254,234,212,207,196,196,194,193,175,160,140,121,100,53],"timestamp_mouse":[8,30,45,65,84,104,125,144,163,184,203,224,243,265,283,303,324,344,365,384,405,423,443,464,483,503,524,544,563,584,604,625,643,664,683,705,723,745,763,784,804,823,844,864,884,905,923,945,963,984,1005,1023,1044],"xSR":741.5,"ySR":573.95,"xT1":424.9,"yT1":0,"xT2":1058.1,"yT2":0,"toosoon":0,"cond_shown":"equaldotanddens","ratio_trial":500,"smaller_num":"2","larger_num":"4","correct_side":1,"subjID":"juandavidmonroycuevas5","gender":"0","age":"12","school":"6"},{"start_time":1551892742455,"click_time":1551892743596,"finger_time":1551892743196,"fix_duration":1315.6364363541086,"trial":39,"RT":741,"MT":400,"sideResp":2,"stimulus":"img/500/equaldotsize/R/3_Ratio_500_L_10_R_20.png","xmouse":[779,779,779,779,779,779,779,779,779,779,779,779,779,779,779,779,779,779,779,779,779,779,779,779,779,779,779,779,780,781,781,782,784,789,797,810,840,1001,1081,1147,1197,1237,1238,1232,1227,1226,1223,1221,1219,1215,1212,1211,1210,1200,1184,1170,1164,1153],"ymouse":[607,607,607,607,607,607,607,607,607,607,607,607,607,607,607,607,607,607,607,607,607,608,608,608,608,608,608,608,608,609,609,610,610,611,611,610,592,490,424,334,238,111,49,28,11,0,0,0,0,0,0,0,0,1,8,14,17,21],"timestamp_mouse":[8,35,43,62,81,101,121,141,162,182,201,221,242,262,283,301,322,341,362,381,403,423,443,462,483,501,522,541,563,582,601,622,641,661,682,701,721,741,762,781,801,821,841,861,882,902,922,941,961,981,1001,1022,1041,1061,1083,1102,1121,1141],"xSR":741.5,"ySR":573.95,"xT1":424.9,"yT1":0,"xT2":1058.1,"yT2":0,"toosoon":0,"cond_shown":"equaldotsize","ratio_trial":500,"smaller_num":"10","larger_num":"20","correct_side":2,"subjID":"juandavidmonroycuevas5","gender":"0","age":"12","school":"6"},{"start_time":1551892745797,"click_time":1551892747116,"finger_time":1551892746597,"fix_duration":1379.4602431497217,"trial":40,"RT":800,"MT":519,"sideResp":1,"stimulus":"img/900/randomdotsizeEA/L/2_Ratio_900_L_20_R_18.png","xmouse":[791,791,791,791,791,791,791,791,791,791,791,791,791,791,791,791,791,791,791,791,791,791,791,791,791,791,791,791,791,791,791,791,791,791,791,791,788,783,774,761,693,626,569,516,460,466,483,508,527,542,546,546,546,546,546,546,546,546,546,546,546,544,543,542,536,527,524],"ymouse":[649,649,649,649,649,649,649,649,649,649,649,649,649,649,649,649,649,649,649,649,649,649,649,649,649,649,649,649,649,649,649,649,649,649,649,649,647,644,636,619,544,474,399,323,202,175,145,118,99,81,73,69,65,61,59,59,59,59,59,59,57,56,55,55,55,55,56],"timestamp_mouse":[1,27,39,61,79,100,121,141,159,179,199,220,240,260,281,299,320,339,359,379,401,420,439,460,480,501,521,541,559,580,601,620,639,660,680,700,719,740,759,779,800,819,839,860,879,899,920,939,959,979,999,1019,1040,1059,1079,1099,1119,1141,1160,1180,1199,1219,1239,1259,1279,1300,1319],"xSR":741.5,"ySR":573.95,"xT1":424.9,"yT1":0,"xT2":1058.1,"yT2":0,"toosoon":0,"cond_shown":"randomdotsizeEA","ratio_trial":900,"smaller_num":"18","larger_num":"20","correct_side":1,"subjID":"juandavidmonroycuevas5","gender":"0","age":"12","school":"6"},{"start_time":1551892749442,"click_time":1551892750696,"finger_time":1551892750298,"fix_duration":1284.2942146540365,"trial":41,"RT":856,"MT":398,"sideResp":2,"stimulus":"img/900/equaldotsize/R/3_Ratio_900_L_9_R_10.png","xmouse":[778,778,778,778,778,778,778,778,778,778,778,778,778,778,778,778,778,778,778,778,778,778,778,779,780,781,781,782,783,785,786,786,786,786,786,786,786,786,786,789,795,806,853,889,932,975,1064,1102,1133,1152,1166,1170,1167,1166,1166,1166,1166,1166,1164,1160,1155,1147,1139],"ymouse":[610,610,610,610,610,610,610,610,610,610,610,610,610,610,610,610,610,610,610,610,610,610,610,611,612,613,613,613,614,615,616,616,616,616,616,616,616,616,616,616,616,616,605,595,583,563,509,472,432,398,368,349,319,311,304,292,257,239,218,198,167,115,85],"timestamp_mouse":[15,35,55,75,95,115,134,154,175,194,216,235,254,275,294,315,334,355,375,394,414,435,454,475,494,515,535,556,575,594,615,634,654,674,694,714,735,755,774,795,814,834,856,874,896,914,935,954,975,994,1016,1034,1055,1074,1094,1114,1134,1154,1175,1194,1215,1234,1254],"xSR":741.5,"ySR":573.95,"xT1":424.9,"yT1":0,"xT2":1058.1,"yT2":0,"toosoon":0,"cond_shown":"equaldotsize","ratio_trial":900,"smaller_num":"9","larger_num":"10","correct_side":2,"subjID":"juandavidmonroycuevas5","gender":"0","age":"12","school":"6"},{"start_time":1551892752802,"click_time":1551892753856,"finger_time":1551892753436,"fix_duration":484.0881918974362,"trial":42,"RT":634,"MT":420,"sideResp":1,"stimulus":"img/500/equaldotsize/L/8_Ratio_500_L_8_R_4.png","xmouse":[819,819,819,819,819,819,819,819,819,819,819,819,819,819,819,819,819,819,819,819,819,819,819,819,819,819,819,819,819,808,801,783,778,749,743,736,728,723,721,711,704,699,695,683,673,661,646,636,607,563,541,504,495],"ymouse":[622,622,622,622,622,622,622,622,622,622,622,622,622,622,622,622,622,622,622,622,622,622,622,622,622,622,622,622,622,610,600,569,555,464,427,386,336,290,257,188,156,125,100,56,38,22,9,4,0,0,0,0,2],"timestamp_mouse":[14,36,54,74,96,115,134,155,174,194,215,235,254,275,295,315,334,354,376,394,415,435,454,474,495,515,535,554,574,594,614,634,655,676,694,714,734,754,775,794,815,834,855,874,894,914,934,954,974,994,1015,1034,1054],"xSR":741.5,"ySR":573.95,"xT1":424.9,"yT1":0,"xT2":1058.1,"yT2":0,"toosoon":0,"cond_shown":"equaldotsize","ratio_trial":500,"smaller_num":"4","larger_num":"8","correct_side":1,"subjID":"juandavidmonroycuevas5","gender":"0","age":"12","school":"6"},{"start_time":1551892770148,"click_time":1551892771316,"finger_time":1551892770796,"fix_duration":1208.2894441059968,"trial":43,"RT":648,"MT":520,"sideResp":1,"stimulus":"img/500/equaldotsize/L/13_Ratio_500_L_12_R_6.png","xmouse":[765,765,765,765,765,765,765,765,765,765,765,765,765,765,765,765,765,765,765,765,765,765,765,765,765,765,765,765,764,763,760,749,731,687,613,529,439,439,438,438,438,437,433,429,423,417,412,409,408,407,407,407,407,407,410,414,418,420,425],"ymouse":[609,609,609,609,609,609,609,609,609,609,609,609,609,609,609,609,609,609,609,609,609,609,609,609,609,609,609,609,609,609,609,604,588,547,475,381,253,242,227,212,197,171,161,154,147,137,116,102,88,85,85,85,84,84,80,79,77,77,75],"timestamp_mouse":[8,28,58,68,89,108,128,149,170,189,208,228,248,269,289,309,329,349,368,389,409,430,449,469,489,510,529,550,568,589,608,629,648,670,688,708,728,748,768,790,808,829,848,869,888,908,928,948,968,989,1009,1029,1048,1069,1089,1108,1128,1148,1168],"xSR":741.5,"ySR":573.95,"xT1":424.9,"yT1":0,"xT2":1058.1,"yT2":0,"toosoon":0,"cond_shown":"equaldotsize","ratio_trial":500,"smaller_num":"6","larger_num":"12","correct_side":1,"subjID":"juandavidmonroycuevas5","gender":"0","age":"12","school":"6"},{"start_time":1551892838069,"click_time":1551892838736,"finger_time":1551892838577,"fix_duration":250,"trial":44,"RT":508,"MT":159,"sideResp":1,"stimulus":"img/250/equaldotanddens/L/3_Ratio_250_L_8_R_2.png","xmouse":[802,802,802,802,802,802,802,802,802,802,802,802,802,802,802,802,802,802,802,802,802,802,799,796,786,731,695,671,641,614,573,502,484,476],"ymouse":[595,595,595,595,595,595,595,595,595,595,595,595,595,595,595,595,595,595,595,595,595,595,595,594,589,557,522,489,436,393,328,166,124,97],"timestamp_mouse":[8,36,48,68,88,107,128,147,167,187,207,227,247,267,287,308,327,348,367,387,407,427,447,468,487,508,527,547,567,587,607,627,647,667],"xSR":741.5,"ySR":573.95,"xT1":424.9,"yT1":0,"xT2":1058.1,"yT2":0,"toosoon":0,"cond_shown":"equaldotanddens","ratio_trial":250,"smaller_num":"2","larger_num":"8","correct_side":1,"subjID":"juandavidmonroycuevas5","gender":"0","age":"12","school":"6"},{"start_time":1551892839988,"click_time":1551892841996,"finger_time":1551892841816,"fix_duration":250,"trial":45,"RT":1828,"MT":180,"sideResp":1,"stimulus":"img/900/equaldotsize/L/8_Ratio_900_L_20_R_18.png","xmouse":[805,805,804,804,804,804,804,804,804,804,804,804,804,804,804,804,804,804,804,804,804,804,804,804,804,804,804,804,804,804,804,804,804,804,804,804,804,804,804,804,804,804,804,804,804,804,804,804,804,804,804,804,804,804,804,804,804,804,804,804,804,804,804,804,804,804,804,804,804,804,804,804,804,804,804,804,804,804,804,804,804,804,804,804,804,804,804,804,795,778,761,741,724,705,655,615,577,551,530,514,508],"ymouse":[620,620,620,620,620,620,620,620,620,620,620,620,620,620,620,620,620,620,620,620,620,620,620,620,620,620,620,620,620,620,620,620,620,620,620,620,620,620,620,620,620,620,620,620,620,620,620,620,620,620,620,620,620,620,620,620,620,620,620,620,620,620,620,620,620,620,620,620,620,620,620,620,620,620,620,620,620,620,620,620,620,620,620,620,620,620,620,620,618,610,597,573,552,519,410,338,269,210,166,111,94],"timestamp_mouse":[8,36,48,68,89,108,128,148,168,188,209,228,249,268,289,309,329,348,369,388,408,429,448,468,489,509,529,548,569,588,608,629,649,668,688,708,728,748,769,788,809,828,849,869,889,908,928,948,968,989,1008,1028,1049,1069,1089,1108,1128,1148,1168,1188,1209,1229,1248,1268,1288,1310,1329,1349,1370,1389,1408,1429,1448,1468,1489,1508,1528,1548,1568,1588,1608,1629,1648,1668,1688,1708,1728,1748,1768,1788,1808,1828,1849,1868,1889,1908,1929,1948,1968,1988,2007],"xSR":741.5,"ySR":573.95,"xT1":424.9,"yT1":0,"xT2":1058.1,"yT2":0,"toosoon":0,"cond_shown":"equaldotsize","ratio_trial":900,"smaller_num":"18","larger_num":"20","correct_side":1,"subjID":"juandavidmonroycuevas5","gender":"0","age":"12","school":"6"},{"start_time":1551892849028,"click_time":1551892850216,"finger_time":1551892849776,"fix_duration":250,"trial":46,"RT":748,"MT":440,"sideResp":1,"stimulus":"img/900/randomdotsizeEA/L/8_Ratio_900_L_20_R_18.png","xmouse":[831,831,831,831,829,828,828,828,828,828,828,828,828,828,828,828,828,828,828,828,828,828,828,828,828,828,828,828,828,828,828,828,828,829,830,832,832,833,833,833,833,833,833,833,833,833,833,833,833,830,820,812,763,726,687,654,626,574,544,520],"ymouse":[593,593,593,594,598,599,600,600,600,600,600,600,600,600,600,600,600,600,600,600,600,600,600,600,600,600,600,600,600,600,600,600,600,588,580,576,575,573,573,573,573,573,573,573,573,573,573,573,573,572,567,563,509,454,380,302,225,82,35,6],"timestamp_mouse":[8,35,49,69,88,108,128,148,169,188,209,229,248,269,289,308,328,349,368,388,408,428,449,469,488,509,528,549,569,589,608,629,649,668,688,708,728,748,768,788,809,828,848,869,888,910,928,948,969,988,1010,1028,1048,1068,1093,1109,1128,1149,1168,1187],"xSR":741.5,"ySR":573.95,"xT1":424.9,"yT1":0,"xT2":1058.1,"yT2":0,"toosoon":0,"cond_shown":"randomdotsizeEA","ratio_trial":900,"smaller_num":"18","larger_num":"20","correct_side":1,"subjID":"juandavidmonroycuevas5","gender":"0","age":"12","school":"6"},{"start_time":1551892855518,"click_time":1551892856476,"finger_time":1551892856256,"fix_duration":640.1691647167017,"trial":47,"RT":738,"MT":220,"sideResp":1,"stimulus":"img/250/equaldotanddens/L/3_Ratio_250_L_8_R_2.png","xmouse":[776,776,776,776,776,776,776,776,776,776,776,776,776,776,776,776,776,776,776,776,776,776,776,776,776,776,776,776,776,776,776,774,773,772,770,765,754,735,670,639,602,579,554,549,544,538,532,524],"ymouse":[598,598,598,598,598,598,598,598,598,598,598,598,598,598,598,598,598,598,598,598,598,598,598,598,598,598,598,597,597,596,594,591,589,588,586,582,571,552,460,400,338,284,211,172,139,113,89,52],"timestamp_mouse":[19,39,59,79,98,118,138,158,178,198,218,238,258,278,298,318,338,358,378,398,418,438,459,478,499,518,538,559,579,598,618,638,659,678,698,718,738,758,778,798,819,838,859,878,898,918,938,958],"xSR":741.5,"ySR":573.95,"xT1":424.9,"yT1":0,"xT2":1058.1,"yT2":0,"toosoon":0,"cond_shown":"equaldotanddens","ratio_trial":250,"smaller_num":"2","larger_num":"8","correct_side":1,"subjID":"juandavidmonroycuevas5","gender":"0","age":"12","school":"6"},{"start_time":1551892859439,"click_time":1551892860496,"finger_time":1551892860096,"fix_duration":301.288671047515,"trial":48,"RT":657,"MT":400,"sideResp":2,"stimulus":"img/250/equaldotsize/R/10_Ratio_250_L_4_R_16.png","xmouse":[806,806,806,806,806,806,806,806,806,806,806,806,806,806,806,806,806,806,806,806,806,806,806,806,806,806,806,807,808,809,812,818,846,869,894,934,1002,1004,1004,999,997,996,996,996,996,997,1003,1016,1021,1028,1037,1053,1083],"ymouse":[630,630,630,630,630,630,630,630,630,630,630,630,630,630,630,630,630,630,630,630,630,630,630,630,630,630,630,630,630,629,627,621,587,553,518,460,329,302,276,241,229,182,165,145,125,106,87,67,64,64,64,64,72],"timestamp_mouse":[17,37,57,77,97,117,138,157,177,197,217,237,257,277,297,318,337,357,378,398,417,437,457,477,498,518,538,557,577,597,617,637,657,677,697,717,737,757,777,797,817,837,857,877,897,917,938,957,977,997,1017,1037,1057],"xSR":741.5,"ySR":573.95,"xT1":424.9,"yT1":0,"xT2":1058.1,"yT2":0,"toosoon":0,"cond_shown":"equaldotsize","ratio_trial":250,"smaller_num":"4","larger_num":"16","correct_side":2,"subjID":"juandavidmonroycuevas5","gender":"0","age":"12","school":"6"},{"start_time":1551892861887,"click_time":1551892862736,"finger_time":1551892862636,"fix_duration":250,"trial":49,"RT":749,"MT":100,"sideResp":2,"stimulus":"img/750/equaldotanddens/R/2_Ratio_750_L_6_R_8.png","xmouse":[756,756,757,757,757,757,759,759,759,760,760,761,761,761,761,761,762,762,762,763,763,763,764,764,764,764,764,765,766,767,768,770,771,774,781,807,825,847,877,1030,1087,1128,1158],"ymouse":[642,642,642,642,642,642,642,642,642,642,642,642,642,642,642,642,642,642,642,642,643,643,643,643,643,643,643,644,644,644,644,644,644,644,644,627,605,569,518,308,222,145,82],"timestamp_mouse":[9,37,49,70,89,109,129,149,169,189,209,229,249,269,290,310,330,350,369,389,410,430,449,470,490,509,529,549,570,590,609,629,649,670,689,709,730,749,769,789,809,829,849],"xSR":741.5,"ySR":573.95,"xT1":424.9,"yT1":0,"xT2":1058.1,"yT2":0,"toosoon":0,"cond_shown":"equaldotanddens","ratio_trial":750,"smaller_num":"6","larger_num":"8","correct_side":2,"subjID":"juandavidmonroycuevas5","gender":"0","age":"12","school":"6"},{"start_time":1551892869992,"click_time":1551892871296,"finger_time":1551892870076,"fix_duration":595.972498836709,"trial":50,"RT":84,"MT":1220,"sideResp":1,"stimulus":"img/500/randomdotsizeEA/L/10_Ratio_500_L_4_R_2.png","xmouse":[816,816,816,822,942,1001,1051,1090,1111,1120,1120,1116,1112,1107,1079,973,901,837,805,801,801,801,800,815,870,915,976,1031,1078,1163,1188,1208,1220,1227,1229,1227,1214,1194,1161,1003,872,686,644,606,602,588,550,491,425,348,327,318,317,317,323,363,396,453,521,593,683,694,697,689,567,477],"ymouse":[620,620,620,620,529,467,396,331,271,164,137,119,113,108,102,85,67,54,46,45,45,45,47,69,120,155,192,219,242,268,274,275,275,272,234,205,164,121,76,0,0,0,0,0,11,42,87,135,174,210,222,231,234,236,236,235,230,222,212,198,158,143,129,111,44,11],"timestamp_mouse":[7,25,45,64,84,104,124,144,164,184,204,224,244,264,284,304,324,344,364,385,404,425,444,464,485,505,524,544,565,584,605,624,644,664,684,704,724,744,765,784,805,825,844,864,884,904,924,946,965,984,1004,1024,1045,1064,1084,1104,1124,1144,1164,1185,1204,1224,1244,1264,1284,1304],"xSR":741.5,"ySR":573.95,"xT1":424.9,"yT1":0,"xT2":1058.1,"yT2":0,"toosoon":0,"cond_shown":"randomdotsizeEA","ratio_trial":500,"smaller_num":"2","larger_num":"4","correct_side":1,"subjID":"juandavidmonroycuevas5","gender":"0","age":"12","school":"6"},{"start_time":1551892872809,"click_time":1551892873836,"finger_time":1551892873416,"fix_duration":311.44446788757386,"trial":51,"RT":607,"MT":420,"sideResp":1,"stimulus":"img/750/equaldotanddens/L/1_Ratio_750_L_20_R_15.png","xmouse":[823,823,823,823,823,823,823,823,823,823,823,823,823,823,823,823,823,823,823,818,810,802,796,794,794,794,794,793,791,788,782,770,753,666,627,590,564,544,530,526,521,518,514,506,499,497,497,495,494,487,481,477],"ymouse":[642,642,642,642,642,642,642,642,642,642,642,642,642,642,642,642,642,642,640,620,602,587,580,578,578,578,578,577,577,574,571,563,550,470,422,372,334,300,261,247,229,220,212,203,191,185,173,161,149,119,106,94],"timestamp_mouse":[10,28,47,67,87,108,127,147,168,187,207,228,247,269,287,307,327,347,368,387,408,427,448,467,488,508,528,548,568,587,607,627,647,668,687,708,727,747,768,787,808,827,847,867,888,907,927,947,967,987,1007,1027],"xSR":741.5,"ySR":573.95,"xT1":424.9,"yT1":0,"xT2":1058.1,"yT2":0,"toosoon":0,"cond_shown":"equaldotanddens","ratio_trial":750,"smaller_num":"15","larger_num":"20","correct_side":1,"subjID":"juandavidmonroycuevas5","gender":"0","age":"12","school":"6"},{"start_time":1551892875854,"click_time":1551892876658,"finger_time":1551892876276,"fix_duration":1156.739935733102,"trial":52,"RT":422,"MT":382,"sideResp":2,"stimulus":"img/750/equaldotsize/R/11_Ratio_750_L_12_R_16.png","xmouse":[801,801,801,801,801,801,801,801,801,801,801,801,801,801,801,801,801,801,801,801,801,818,840,866,896,920,951,956,959,959,959,960,967,970,975,981,1003,1020,1035,1049,1059],"ymouse":[606,606,606,606,606,606,606,606,606,606,606,606,606,606,606,606,606,606,606,606,603,561,521,468,406,347,270,244,222,200,179,147,118,111,104,99,87,82,78,74,72],"timestamp_mouse":[8,34,43,62,82,102,122,142,162,183,202,222,242,263,282,302,322,342,362,383,403,422,442,462,482,502,522,542,562,582,602,622,643,662,683,702,724,742,763,782,803],"xSR":741.5,"ySR":573.95,"xT1":424.9,"yT1":0,"xT2":1058.1,"yT2":0,"toosoon":0,"cond_shown":"equaldotsize","ratio_trial":750,"smaller_num":"12","larger_num":"16","correct_side":2,"subjID":"juandavidmonroycuevas5","gender":"0","age":"12","school":"6"},{"start_time":1551892877729,"click_time":1551892878356,"finger_time":1551892878216,"fix_duration":250,"trial":53,"RT":487,"MT":140,"sideResp":1,"stimulus":"img/750/equaldotanddens/L/1_Ratio_750_L_20_R_15.png","xmouse":[788,788,788,788,788,788,788,788,788,788,788,788,788,788,788,789,790,792,795,796,798,799,800,786,751,698,634,519,496,486,483,484],"ymouse":[639,639,638,638,638,638,638,638,638,638,638,638,638,638,638,638,638,637,635,634,631,627,608,581,532,470,402,246,189,149,118,99],"timestamp_mouse":[8,27,47,67,87,108,127,148,167,187,208,227,247,267,288,307,327,347,367,387,407,427,447,467,487,507,527,548,567,587,608,627],"xSR":741.5,"ySR":573.95,"xT1":424.9,"yT1":0,"xT2":1058.1,"yT2":0,"toosoon":0,"cond_shown":"equaldotanddens","ratio_trial":750,"smaller_num":"15","larger_num":"20","correct_side":1,"subjID":"juandavidmonroycuevas5","gender":"0","age":"12","school":"6"},{"start_time":1551892880009,"click_time":1551892880977,"finger_time":1551892880456,"fix_duration":772.5804902376349,"trial":54,"RT":447,"MT":521,"sideResp":2,"stimulus":"img/250/equaldotsize/R/13_Ratio_250_L_2_R_8.png","xmouse":[805,805,805,805,805,805,805,805,805,805,805,805,805,805,805,805,805,805,811,818,836,872,932,973,982,988,991,997,1000,1004,1010,1017,1020,1023,1025,1029,1034,1039,1048,1051,1054,1056,1061,1071,1077,1081,1086,1092],"ymouse":[647,647,647,647,646,646,646,646,646,646,646,646,646,646,646,646,646,646,638,631,604,555,453,366,340,316,292,256,239,225,213,197,189,177,171,165,158,150,137,133,130,126,121,112,108,104,100,92],"timestamp_mouse":[8,51,68,88,108,127,147,167,188,208,227,248,268,288,308,328,347,368,387,407,427,447,467,487,508,527,547,568,587,607,627,647,667,687,707,728,747,767,786,808,827,848,867,887,907,929,948,968],"xSR":741.5,"ySR":573.95,"xT1":424.9,"yT1":0,"xT2":1058.1,"yT2":0,"toosoon":0,"cond_shown":"equaldotsize","ratio_trial":250,"smaller_num":"2","larger_num":"8","correct_side":2,"subjID":"juandavidmonroycuevas5","gender":"0","age":"12","school":"6"},{"start_time":1551892882107,"click_time":1551892882936,"finger_time":1551892882656,"fix_duration":250,"trial":55,"RT":549,"MT":280,"sideResp":1,"stimulus":"img/250/randomdotsizeEA/L/3_Ratio_250_L_8_R_2.png","xmouse":[811,811,811,810,810,810,810,810,810,810,810,810,810,810,810,810,810,810,810,810,810,810,810,810,804,792,778,762,737,697,674,660,649,644,629,615,585,575,527,517,510,506],"ymouse":[651,648,648,646,645,644,644,644,644,644,644,644,644,644,644,644,644,644,644,640,636,633,631,628,618,604,588,567,523,426,372,323,290,257,209,188,156,149,118,110,103,97],"timestamp_mouse":[11,29,49,70,89,109,129,149,169,190,209,230,250,269,290,309,329,349,368,390,409,429,449,470,489,509,529,549,569,589,609,629,649,669,690,710,729,749,769,788,809,829],"xSR":741.5,"ySR":573.95,"xT1":424.9,"yT1":0,"xT2":1058.1,"yT2":0,"toosoon":0,"cond_shown":"randomdotsizeEA","ratio_trial":250,"smaller_num":"2","larger_num":"8","correct_side":1,"subjID":"juandavidmonroycuevas5","gender":"0","age":"12","school":"6"},{"start_time":1551892884963,"click_time":1551892885696,"finger_time":1551892885396,"fix_duration":1105.3521330114222,"trial":56,"RT":433,"MT":300,"sideResp":2,"stimulus":"img/750/equaldotanddens/R/3_Ratio_750_L_15_R_20.png","xmouse":[795,795,795,796,796,796,796,796,796,796,796,796,796,796,796,796,802,807,812,817,835,849,862,887,894,921,955,970,980,985,993,998,1003,1012,1023,1054,1098],"ymouse":[603,603,603,604,604,604,604,604,604,604,604,604,604,604,604,604,604,601,597,593,579,564,542,482,460,394,316,287,268,255,229,215,201,183,159,102,26],"timestamp_mouse":[13,37,53,74,94,113,133,154,173,194,214,233,253,273,294,312,333,353,373,393,413,433,454,473,493,513,533,553,573,593,614,633,653,673,693,713,733],"xSR":741.5,"ySR":573.95,"xT1":424.9,"yT1":0,"xT2":1058.1,"yT2":0,"toosoon":0,"cond_shown":"equaldotanddens","ratio_trial":750,"smaller_num":"15","larger_num":"20","correct_side":2,"subjID":"juandavidmonroycuevas5","gender":"0","age":"12","school":"6"},{"start_time":1551892887242,"click_time":1551892887916,"finger_time":1551892887696,"fix_duration":863.1561799437529,"trial":57,"RT":454,"MT":220,"sideResp":2,"stimulus":"img/500/equaldotanddens/R/1_Ratio_500_L_9_R_18.png","xmouse":[813,813,813,813,813,813,813,813,813,813,813,813,813,813,813,813,813,813,813,813,815,833,848,859,879,898,927,987,1011,1037,1058,1073,1089,1094],"ymouse":[615,615,615,615,615,615,615,615,615,615,615,615,615,615,615,615,615,615,615,615,615,604,596,587,571,551,516,424,365,301,213,158,106,93],"timestamp_mouse":[17,39,54,74,96,114,134,155,174,194,214,234,256,274,294,314,334,354,374,394,415,434,454,474,494,514,535,554,574,594,614,633,654,674],"xSR":741.5,"ySR":573.95,"xT1":424.9,"yT1":0,"xT2":1058.1,"yT2":0,"toosoon":0,"cond_shown":"equaldotanddens","ratio_trial":500,"smaller_num":"9","larger_num":"18","correct_side":2,"subjID":"juandavidmonroycuevas5","gender":"0","age":"12","school":"6"},{"start_time":1551892889633,"click_time":1551892890257,"finger_time":1551892890116,"fix_duration":895.5019204275693,"trial":58,"RT":483,"MT":141,"sideResp":1,"stimulus":"img/900/equaldotanddens/L/4_Ratio_900_L_20_R_18.png","xmouse":[804,804,804,804,804,804,804,804,804,804,804,804,804,804,804,804,804,804,804,804,804,804,804,798,788,768,726,679,566,533,509,500],"ymouse":[611,611,611,611,611,611,611,611,611,611,611,611,611,611,611,611,611,611,611,611,611,611,611,586,558,512,435,357,206,155,113,92],"timestamp_mouse":[8,31,44,63,83,104,124,144,163,184,204,223,243,264,283,304,324,343,363,383,403,424,442,463,483,503,523,543,563,585,604,624],"xSR":741.5,"ySR":573.95,"xT1":424.9,"yT1":0,"xT2":1058.1,"yT2":0,"toosoon":0,"cond_shown":"equaldotanddens","ratio_trial":900,"smaller_num":"18","larger_num":"20","correct_side":1,"subjID":"juandavidmonroycuevas5","gender":"0","age":"12","school":"6"},{"start_time":1551892892671,"click_time":1551892893617,"finger_time":1551892893116,"fix_duration":1372.297325414449,"trial":59,"RT":445,"MT":501,"sideResp":2,"stimulus":"img/250/equaldotsize/R/10_Ratio_250_L_4_R_16.png","xmouse":[786,786,786,786,786,786,786,786,786,786,786,786,786,786,786,786,786,786,786,786,799,817,850,886,920,951,1004,1031,1058,1082,1107,1111,1114,1115,1116,1116,1116,1116,1116,1116,1114,1112,1111,1111,1111,1111,1111,1111],"ymouse":[612,612,612,612,612,612,612,612,612,612,612,612,612,612,612,612,612,612,612,613,605,589,556,509,462,411,302,252,209,179,156,152,147,144,142,141,130,124,120,116,106,101,100,100,100,100,100,99],"timestamp_mouse":[12,34,46,66,86,105,125,145,165,186,206,225,245,265,285,305,325,345,365,386,405,425,445,465,485,505,525,545,565,586,606,625,645,665,684,705,726,746,765,785,805,825,845,866,885,906,926,946],"xSR":741.5,"ySR":573.95,"xT1":424.9,"yT1":0,"xT2":1058.1,"yT2":0,"toosoon":0,"cond_shown":"equaldotsize","ratio_trial":250,"smaller_num":"4","larger_num":"16","correct_side":2,"subjID":"juandavidmonroycuevas5","gender":"0","age":"12","school":"6"},{"start_time":1551892895866,"click_time":1551892896816,"finger_time":1551892896456,"fix_duration":1350.431546054993,"trial":60,"RT":590,"MT":360,"sideResp":1,"stimulus":"img/900/randomdotsizeEA/R/9_Ratio_900_L_18_R_20.png","xmouse":[806,806,806,806,806,806,806,806,806,806,806,806,806,806,806,806,806,806,806,806,806,806,806,806,806,809,814,824,836,849,883,893,897,897,891,824,751,653,563,468,455,437,437,437,437,437,437,438],"ymouse":[616,616,616,616,616,616,616,616,616,616,616,616,616,616,616,616,616,616,616,616,616,616,616,616,616,616,615,610,602,591,542,520,506,490,471,421,386,340,291,229,216,166,154,141,130,122,107,97],"timestamp_mouse":[10,30,58,71,91,110,131,150,170,191,210,230,250,270,291,311,331,351,371,390,410,431,450,470,490,511,529,550,570,590,610,629,650,671,690,710,730,750,770,790,810,830,850,870,890,910,930,950],"xSR":741.5,"ySR":573.95,"xT1":424.9,"yT1":0,"xT2":1058.1,"yT2":0,"toosoon":0,"cond_shown":"randomdotsizeEA","ratio_trial":900,"smaller_num":"18","larger_num":"20","correct_side":2,"subjID":"juandavidmonroycuevas5","gender":"0","age":"12","school":"6"},{"start_time":1551892898040,"click_time":1551892898995,"finger_time":1551892898696,"fix_duration":342.0671603006574,"trial":61,"RT":656,"MT":299,"sideResp":2,"stimulus":"img/250/randomdotsizeEA/R/10_Ratio_250_L_4_R_16.png","xmouse":[795,795,795,795,795,795,795,795,795,795,795,795,795,795,795,795,795,795,795,795,795,795,795,795,795,795,795,795,795,795,800,809,870,913,943,974,1006,1041,1045,1047,1048,1052,1053,1053,1053,1053,1058,1061],"ymouse":[638,638,638,638,638,638,638,638,638,638,638,638,638,638,638,638,638,638,638,638,638,638,638,638,638,638,638,638,638,638,638,636,593,549,501,445,387,285,244,215,191,151,138,127,119,112,92,85],"timestamp_mouse":[19,39,55,76,95,116,137,156,176,197,215,235,255,276,295,316,336,355,376,395,415,436,456,476,496,515,536,555,575,596,615,635,656,675,695,715,735,755,776,796,815,836,855,877,896,915,936,955],"xSR":741.5,"ySR":573.95,"xT1":424.9,"yT1":0,"xT2":1058.1,"yT2":0,"toosoon":0,"cond_shown":"randomdotsizeEA","ratio_trial":250,"smaller_num":"4","larger_num":"16","correct_side":2,"subjID":"juandavidmonroycuevas5","gender":"0","age":"12","school":"6"},{"start_time":1551892901299,"click_time":1551892902276,"finger_time":1551892901895,"fix_duration":1383.3952881436437,"trial":62,"RT":596,"MT":381,"sideResp":2,"stimulus":"img/900/equaldotsize/L/1_Ratio_900_L_10_R_9.png","xmouse":[818,818,818,818,818,818,818,818,818,818,818,818,818,818,818,818,818,818,818,818,818,818,817,817,817,817,816,816,821,846,871,899,928,953,976,980,984,989,998,1002,1002,1002,1002,1004,1010,1019,1025,1034,1068],"ymouse":[654,654,654,654,654,654,654,654,654,654,654,654,654,654,654,654,654,654,654,654,654,654,654,654,654,654,645,639,609,536,477,412,345,288,201,170,139,108,80,69,69,69,69,69,65,60,58,53,41],"timestamp_mouse":[16,40,57,76,96,116,136,156,176,196,216,236,256,277,298,316,336,356,376,396,417,436,457,476,496,517,536,556,577,596,616,637,656,676,696,717,736,757,776,797,816,836,856,877,896,917,937,956,977],"xSR":741.5,"ySR":573.95,"xT1":424.9,"yT1":0,"xT2":1058.1,"yT2":0,"toosoon":0,"cond_shown":"equaldotsize","ratio_trial":900,"smaller_num":"9","larger_num":"10","correct_side":1,"subjID":"juandavidmonroycuevas5","gender":"0","age":"12","school":"6"},{"start_time":1551892903885,"click_time":1551892904676,"finger_time":1551892904555,"fix_duration":766.0073037934256,"trial":63,"RT":670,"MT":121,"sideResp":1,"stimulus":"img/900/equaldotanddens/R/11_Ratio_900_L_18_R_20.png","xmouse":[793,793,793,793,793,793,793,793,793,793,793,793,793,793,793,793,793,793,793,793,793,793,793,793,793,793,793,793,793,793,793,778,756,709,585,541,510,484,472,463],"ymouse":[631,631,631,631,631,631,631,631,631,631,631,631,631,631,631,631,631,631,631,631,631,631,631,631,631,631,631,631,631,631,631,621,595,532,360,273,200,141,109,85],"timestamp_mouse":[11,37,50,70,92,110,131,150,170,190,211,230,250,271,290,310,330,350,371,391,410,430,451,471,490,511,530,551,570,591,610,630,650,670,692,710,730,750,770,791],"xSR":741.5,"ySR":573.95,"xT1":424.9,"yT1":0,"xT2":1058.1,"yT2":0,"toosoon":0,"cond_shown":"equaldotanddens","ratio_trial":900,"smaller_num":"18","larger_num":"20","correct_side":2,"subjID":"juandavidmonroycuevas5","gender":"0","age":"12","school":"6"},{"start_time":1551892905946,"click_time":1551892907195,"finger_time":1551892906995,"fix_duration":250,"trial":64,"RT":1049,"MT":200,"sideResp":2,"stimulus":"img/900/equaldotsize/R/14_Ratio_900_L_18_R_20.png","xmouse":[797,797,797,797,797,797,797,797,797,797,797,797,797,797,797,797,797,797,797,797,797,797,797,797,797,797,797,797,797,797,797,797,797,797,797,797,797,799,801,802,804,807,809,810,810,810,810,810,810,810,811,827,855,890,924,960,999,1047,1055,1058,1058,1058,1059],"ymouse":[587,587,587,587,587,587,587,587,587,587,587,587,587,587,587,587,587,587,588,588,588,588,588,588,588,588,588,588,588,588,588,588,588,588,588,588,590,598,605,609,614,623,627,630,632,633,633,633,633,633,634,621,588,546,506,458,401,223,160,125,108,91,80],"timestamp_mouse":[10,34,49,70,91,110,130,150,169,190,209,230,249,269,291,310,330,350,371,391,409,430,451,469,490,510,529,549,569,590,609,630,649,669,690,710,729,749,770,790,809,830,849,870,890,909,929,950,970,990,1009,1030,1049,1070,1089,1109,1129,1150,1169,1190,1209,1230,1249],"xSR":741.5,"ySR":573.95,"xT1":424.9,"yT1":0,"xT2":1058.1,"yT2":0,"toosoon":0,"cond_shown":"equaldotsize","ratio_trial":900,"smaller_num":"18","larger_num":"20","correct_side":2,"subjID":"juandavidmonroycuevas5","gender":"0","age":"12","school":"6"},{"start_time":1551892909175,"click_time":1551892909995,"finger_time":1551892909876,"fix_duration":1218.2363257314682,"trial":65,"RT":701,"MT":119,"sideResp":2,"stimulus":"img/750/equaldotsize/R/7_Ratio_750_L_3_R_4.png","xmouse":[818,818,818,818,818,818,818,818,818,818,818,818,818,818,818,818,818,818,818,818,818,818,818,818,818,818,818,818,818,818,818,818,818,820,829,878,927,972,1010,1040,1067,1112],"ymouse":[606,606,606,606,606,606,606,606,606,606,606,606,606,606,606,606,606,606,606,606,606,606,606,606,606,606,606,606,606,606,606,606,606,607,604,581,551,513,463,396,301,67],"timestamp_mouse":[10,31,41,62,82,100,121,140,160,181,202,221,240,261,281,301,321,340,361,380,401,421,440,461,481,500,520,541,561,580,600,620,640,661,682,701,720,740,761,780,800,820],"xSR":741.5,"ySR":573.95,"xT1":424.9,"yT1":0,"xT2":1058.1,"yT2":0,"toosoon":0,"cond_shown":"equaldotsize","ratio_trial":750,"smaller_num":"3","larger_num":"4","correct_side":2,"subjID":"juandavidmonroycuevas5","gender":"0","age":"12","school":"6"},{"start_time":1551892912493,"click_time":1551892913675,"finger_time":1551892913255,"fix_duration":1315.165435109267,"trial":66,"RT":762,"MT":420,"sideResp":1,"stimulus":"img/500/randomdotsizeEA/L/13_Ratio_500_L_12_R_6.png","xmouse":[832,832,832,832,832,832,832,832,832,832,832,832,832,832,832,832,832,832,832,832,832,832,832,832,832,832,831,829,829,829,829,829,829,829,826,821,814,807,800,788,763,736,706,675,650,644,640,638,638,638,636,627,619,609,593,587,578,564,548,519],"ymouse":[610,610,610,610,610,610,610,610,610,610,610,610,610,610,610,610,610,610,610,610,610,610,610,610,610,610,610,610,610,610,610,610,610,610,609,605,599,588,571,510,357,267,177,105,39,24,16,14,14,14,13,11,11,11,11,13,15,19,22,29],"timestamp_mouse":[8,23,42,62,82,103,122,142,163,182,202,223,243,262,282,302,323,342,363,383,403,422,442,462,483,502,522,542,562,584,602,623,642,662,683,703,724,742,762,782,802,822,842,862,883,902,924,942,962,983,1002,1022,1042,1062,1083,1102,1123,1143,1162,1182],"xSR":741.5,"ySR":573.95,"xT1":424.9,"yT1":0,"xT2":1058.1,"yT2":0,"toosoon":0,"cond_shown":"randomdotsizeEA","ratio_trial":500,"smaller_num":"6","larger_num":"12","correct_side":1,"subjID":"juandavidmonroycuevas5","gender":"0","age":"12","school":"6"},{"start_time":1551892915460,"click_time":1551892916715,"finger_time":1551892916496,"fix_duration":1063.073445310387,"trial":67,"RT":1036,"MT":219,"sideResp":2,"stimulus":"img/750/randomdotsizeEA/R/7_Ratio_750_L_3_R_4.png","xmouse":[802,802,802,802,802,802,802,802,802,802,802,802,802,802,802,802,802,802,802,802,802,802,802,802,802,802,802,802,802,802,802,802,802,804,805,806,808,810,810,810,810,810,810,810,810,810,810,814,817,823,840,873,896,911,928,942,961,965,973,982,1021,1039,1059],"ymouse":[617,617,617,617,617,617,617,617,617,617,617,617,617,617,617,617,617,617,617,617,617,617,617,619,621,621,621,621,621,621,621,621,622,622,622,622,622,622,622,622,622,622,622,622,622,622,622,622,620,616,602,560,513,469,412,358,265,236,214,195,138,113,85],"timestamp_mouse":[30,36,55,75,95,116,135,156,176,196,216,236,257,275,296,315,335,356,375,396,416,435,455,475,496,515,535,556,576,595,616,636,656,676,695,715,735,756,777,795,815,835,855,875,895,916,935,956,976,995,1015,1036,1055,1075,1095,1115,1135,1156,1175,1195,1217,1235,1255],"xSR":741.5,"ySR":573.95,"xT1":424.9,"yT1":0,"xT2":1058.1,"yT2":0,"toosoon":0,"cond_shown":"randomdotsizeEA","ratio_trial":750,"smaller_num":"3","larger_num":"4","correct_side":2,"subjID":"juandavidmonroycuevas5","gender":"0","age":"12","school":"6"},{"start_time":1551892917751,"click_time":1551892918895,"finger_time":1551892918456,"fix_duration":354.5680783684282,"trial":68,"RT":705,"MT":439,"sideResp":1,"stimulus":"img/900/equaldotanddens/L/2_Ratio_900_L_20_R_18.png","xmouse":[808,808,808,808,808,808,808,808,808,808,808,808,808,808,808,808,808,808,808,808,808,808,808,808,808,808,808,808,808,808,808,805,797,781,758,734,707,688,685,685,683,649,630,617,610,607,602,589,578,565,554,547,547,547,547,543,530,523],"ymouse":[614,614,614,614,614,614,614,614,614,614,614,614,614,614,614,615,615,615,615,615,615,615,615,615,615,615,615,615,615,615,615,615,615,615,608,598,581,550,529,491,425,290,249,217,193,170,136,95,80,65,55,48,48,48,48,47,47,49],"timestamp_mouse":[8,26,46,65,85,104,124,145,164,185,204,224,244,265,284,306,325,345,365,385,405,424,446,465,485,505,524,544,565,585,604,625,644,665,684,705,725,745,764,786,804,825,844,865,884,904,925,944,964,984,1005,1025,1044,1064,1084,1104,1124,1144],"xSR":741.5,"ySR":573.95,"xT1":424.9,"yT1":0,"xT2":1058.1,"yT2":0,"toosoon":0,"cond_shown":"equaldotanddens","ratio_trial":900,"smaller_num":"18","larger_num":"20","correct_side":1,"subjID":"juandavidmonroycuevas5","gender":"0","age":"12","school":"6"},{"start_time":1551892920511,"click_time":1551892921697,"finger_time":1551892921455,"fix_duration":674.5886170291893,"trial":69,"RT":944,"MT":242,"sideResp":2,"stimulus":"img/900/equaldotsize/R/13_Ratio_900_L_18_R_20.png","xmouse":[790,790,791,793,796,798,799,799,799,799,799,799,799,799,799,799,799,799,799,799,799,799,799,799,799,799,799,799,799,799,799,799,799,799,799,799,799,799,799,799,799,799,799,799,801,814,838,872,1014,1058,1086,1101,1111,1119,1122,1124,1129,1134,1141,1154],"ymouse":[602,602,603,604,605,606,606,606,606,606,606,606,606,606,606,606,606,606,606,606,606,606,606,606,606,606,606,606,606,606,606,606,606,606,606,606,606,606,606,606,606,606,606,606,606,606,604,588,475,417,364,317,282,222,192,170,149,131,108,77],"timestamp_mouse":[9,24,44,64,84,105,125,146,165,185,205,226,248,265,285,305,325,345,366,385,404,424,445,465,484,504,524,545,564,585,604,625,645,666,684,705,724,745,765,785,804,825,845,864,884,905,924,944,965,984,1004,1025,1045,1065,1084,1105,1124,1145,1164,1186],"xSR":741.5,"ySR":573.95,"xT1":424.9,"yT1":0,"xT2":1058.1,"yT2":0,"toosoon":0,"cond_shown":"equaldotsize","ratio_trial":900,"smaller_num":"18","larger_num":"20","correct_side":2,"subjID":"juandavidmonroycuevas5","gender":"0","age":"12","school":"6"},{"start_time":1551892922966,"click_time":1551892924035,"finger_time":1551892923815,"fix_duration":250,"trial":70,"RT":849,"MT":220,"sideResp":2,"stimulus":"img/250/randomdotsizeEA/R/11_Ratio_250_L_3_R_12.png","xmouse":[794,794,794,794,794,794,794,794,794,794,794,794,794,794,794,794,794,794,794,794,794,794,794,794,794,794,794,794,794,794,794,794,794,794,794,794,794,794,795,798,816,840,876,914,947,1005,1027,1048,1057,1064,1071,1074,1078,1083],"ymouse":[603,603,603,603,603,603,603,603,603,603,603,603,603,603,603,603,603,603,603,603,603,603,603,603,603,603,603,603,603,603,603,603,603,603,603,603,603,603,604,604,596,579,553,520,475,344,283,232,201,179,145,126,106,89],"timestamp_mouse":[10,41,49,70,90,109,129,149,169,189,210,229,249,270,290,310,330,350,369,391,410,429,449,469,490,509,529,551,569,590,610,629,650,670,690,710,730,750,769,789,811,829,849,869,889,910,929,949,969,990,1010,1029,1049,1069],"xSR":741.5,"ySR":573.95,"xT1":424.9,"yT1":0,"xT2":1058.1,"yT2":0,"toosoon":0,"cond_shown":"randomdotsizeEA","ratio_trial":250,"smaller_num":"3","larger_num":"12","correct_side":2,"subjID":"juandavidmonroycuevas5","gender":"0","age":"12","school":"6"},{"start_time":1551892925706,"click_time":1551892926496,"finger_time":1551892926336,"fix_duration":808.1318404891692,"trial":71,"RT":630,"MT":160,"sideResp":2,"stimulus":"img/500/equaldotanddens/R/14_Ratio_500_L_5_R_10.png","xmouse":[809,809,809,809,809,809,809,809,809,809,809,809,809,809,809,809,809,809,809,809,809,809,809,809,809,809,809,809,809,813,823,843,873,930,956,989,1019,1067,1092,1113],"ymouse":[589,589,589,589,589,589,589,589,589,589,589,589,589,589,589,589,589,589,589,589,589,589,589,589,589,589,589,589,589,588,582,566,540,479,436,375,310,206,149,78],"timestamp_mouse":[12,29,50,69,90,109,129,149,170,190,210,231,249,270,289,311,330,350,370,389,410,429,450,470,489,509,529,550,570,589,609,630,649,671,689,709,729,749,769,790],"xSR":741.5,"ySR":573.95,"xT1":424.9,"yT1":0,"xT2":1058.1,"yT2":0,"toosoon":0,"cond_shown":"equaldotanddens","ratio_trial":500,"smaller_num":"5","larger_num":"10","correct_side":2,"subjID":"juandavidmonroycuevas5","gender":"0","age":"12","school":"6"},{"start_time":1551892928401,"click_time":1551892930315,"finger_time":1551892928976,"fix_duration":1005.3266343816088,"trial":72,"RT":575,"MT":1339,"sideResp":2,"stimulus":"img/500/randomdotsizeEA/R/3_Ratio_500_L_10_R_20.png","xmouse":[823,822,821,821,821,821,821,821,821,821,821,821,821,821,821,821,821,821,821,821,821,821,821,821,823,827,832,840,873,896,917,936,950,963,965,965,964,963,961,960,960,959,959,959,959,959,959,959,966,971,975,977,977,977,977,977,977,971,954,948,948,948,948,951,976,993,1012,1031,1047,1064,1065,1065,1065,1065,1065,1065,1064,1064,1064,1064,1064,1067,1073,1082,1094,1099,1104,1108,1111,1111,1111,1111,1111,1117,1122,1131],"ymouse":[586,587,587,587,587,587,587,587,587,587,587,587,587,587,587,587,587,587,587,587,587,587,587,587,587,587,587,583,558,537,511,481,453,413,376,368,363,360,359,358,358,358,358,358,358,358,354,350,342,336,331,328,328,328,328,328,332,346,386,400,401,401,401,399,365,343,322,300,276,233,221,217,217,217,217,225,233,234,234,234,234,226,212,189,161,150,141,133,128,127,127,127,127,121,111,97],"timestamp_mouse":[15,34,56,74,94,115,135,154,175,194,214,235,254,276,295,315,334,356,374,394,414,434,455,475,495,514,535,554,575,594,614,634,654,674,694,714,735,754,774,794,814,834,856,875,894,914,935,955,975,994,1014,1035,1055,1075,1095,1114,1134,1154,1176,1194,1214,1234,1255,1274,1295,1314,1334,1354,1374,1394,1414,1435,1454,1475,1495,1514,1536,1554,1575,1594,1614,1634,1654,1674,1694,1714,1734,1755,1775,1794,1814,1834,1855,1875,1894,1914],"xSR":741.5,"ySR":573.95,"xT1":424.9,"yT1":0,"xT2":1058.1,"yT2":0,"toosoon":0,"cond_shown":"randomdotsizeEA","ratio_trial":500,"smaller_num":"10","larger_num":"20","correct_side":2,"subjID":"juandavidmonroycuevas5","gender":"0","age":"12","school":"6"},{"start_time":1551892932289,"click_time":1551892935076,"finger_time":1551892933435,"fix_duration":931.3660984971134,"trial":73,"RT":1146,"MT":1641,"sideResp":1,"stimulus":"img/900/randomdotsizeEA/L/10_Ratio_900_L_20_R_18.png","xmouse":[828,828,828,828,828,828,828,828,828,828,828,828,828,828,828,828,828,828,828,828,828,828,828,828,828,828,828,828,828,828,828,828,828,828,828,828,828,828,828,828,828,828,828,828,828,826,824,824,824,824,824,824,824,824,824,829,837,852,878,935,997,1019,1037,1051,1063,1080,1091,1100,1108,1129,1138,1146,1153,1157,1159,1159,1159,1159,1159,1159,1159,1159,1159,1159,1159,1159,1159,1159,1159,1159,1159,1157,1147,1133,1113,1065,1041,1013,996,984,971,966,964,960,953,936,928,920,917,910,906,897,885,867,826,808,791,766,759,728,674,652,642,637,635,633,632,629,626,621,609,604,598,591,577,569,561,549,540,519],"ymouse":[611,611,611,611,611,611,611,611,611,611,611,611,611,611,611,611,611,611,611,611,611,611,611,611,611,611,611,611,611,611,611,611,611,611,611,611,611,611,611,611,611,612,612,612,612,613,61