[{"start_time":1551791013031,"click_time":1551791015055,"finger_time":1551791014414,"fix_duration":1472.4843579351166,"trial":0,"RT":1383,"MT":641,"sideResp":1,"stimulus":"img/750/equaldotsize/L/1_Ratio_750_L_20_R_15.png","xmouse":[779,779,779,779,779,779,779,779,779,779,779,779,779,779,779,779,779,779,779,779,779,779,779,779,779,779,779,779,779,779,779,779,779,779,779,779,779,779,779,779,779,779,779,779,779,779,779,779,779,779,779,779,779,779,779,779,779,779,779,779,779,779,779,779,779,779,776,771,765,747,739,737,735,734,732,723,716,709,701,693,677,666,639,619,585,569,556,542,529,511,502,498,495,494,494,493,492,492,492,492,492,491],"ymouse":[546,546,546,546,546,546,546,546,546,546,546,546,546,546,546,546,546,546,546,546,546,546,546,546,546,546,546,546,546,546,546,546,546,546,546,546,546,546,546,546,546,546,546,546,546,546,546,546,546,546,546,546,546,546,546,546,546,546,546,546,546,546,546,546,540,534,525,513,499,470,457,456,449,444,438,420,410,398,387,374,348,331,302,282,246,228,211,192,174,146,134,125,118,115,113,110,108,107,106,104,102,98],"timestamp_mouse":[9,39,44,63,83,103,123,143,162,183,203,223,243,262,284,304,322,343,364,383,403,423,442,464,483,503,524,543,563,582,603,623,642,662,683,703,724,742,763,782,802,823,844,863,882,903,923,942,962,983,1004,1022,1042,1063,1083,1102,1123,1144,1162,1184,1203,1223,1244,1262,1283,1304,1322,1342,1363,1383,1402,1423,1443,1462,1484,1503,1523,1542,1562,1583,1602,1623,1643,1663,1684,1703,1722,1743,1763,1783,1802,1824,1843,1863,1883,1902,1922,1942,1963,1982,2002,2023],"xSR":741.5,"ySR":500.5,"xT1":424.9,"yT1":0,"xT2":1058.1,"yT2":0,"toosoon":0,"cond_shown":"equaldotsize","ratio_trial":750,"smaller_num":"15","larger_num":"20","correct_side":1,"subjID":"AnaIsabelaOrtizLeón26","gender":"1","age":"11","school":"6","test":{"fix_dur":[250,1500],"timestim":300,"targets_dim":[100,100],"targets_relative_coord":[0.3,0.7],"size_stim":[880,420],"start_dim":[100,100],"size_start":[300,300],"size_fix":60,"samplingrate":20,"img_types":["equaldotsize","equaldotanddens","randomdotsizeEA"],"ratios":[250,500,750,900],"rep_conds":9,"nTrials":120,"trials_to_rest":500,"Trials_order":[66,107,17,98,67,40,102,33,44,104,69,84,110,59,46,80,117,97,6,30,21,87,108,19,93,52,72,51,7,53,89,14,90,13,56,36,64,55,86,58,77,8,92,15,45,99,81,42,79,116,115,28,48,50,75,38,65,35,32,47,68,76,62,114,41,31,88,10,5,101,24,16,109,39,2,57,105,111,27,95,9,70,18,112,20,11,85,100,94,49,83,106,78,119,1,91,25,118,73,74,23,43,113,54,63,61,4,26,0,60,37,3,12,34,71,29,22,82,103,96],"cond_shown":["equaldotsize","randomdotsizeEA","randomdotsizeEA","randomdotsizeEA","equaldotanddens","equaldotanddens","equaldotsize","equaldotsize","randomdotsizeEA","randomdotsizeEA","equaldotsize","equaldotsize","randomdotsizeEA","randomdotsizeEA","equaldotanddens","randomdotsizeEA","equaldotsize","equaldotanddens","equaldotsize","equaldotsize","equaldotsize","equaldotsize","equaldotsize","equaldotanddens","equaldotsize","equaldotanddens","equaldotsize","equaldotsize","equaldotanddens","randomdotsizeEA","randomdotsizeEA","randomdotsizeEA","equaldotsize","equaldotanddens","randomdotsizeEA","equaldotsize","equaldotanddens","equaldotanddens","randomdotsizeEA","equaldotanddens","randomdotsizeEA","randomdotsizeEA","randomdotsizeEA","equaldotsize","equaldotsize","equaldotsize","equaldotsize","equaldotsize","equaldotanddens","randomdotsizeEA","equaldotanddens","equaldotanddens","equaldotsize","randomdotsizeEA","equaldotsize","randomdotsizeEA","randomdotsizeEA","randomdotsizeEA","randomdotsizeEA","randomdotsizeEA","randomdotsizeEA","equaldotanddens","randomdotsizeEA","equaldotsize","randomdotsizeEA","equaldotanddens","equaldotanddens","equaldotanddens","randomdotsizeEA","randomdotsizeEA","equaldotsize","equaldotanddens","equaldotanddens","equaldotsize","randomdotsizeEA","equaldotsize","equaldotsize","equaldotsize","equaldotsize","randomdotsizeEA","equaldotsize","equaldotanddens","equaldotsize","equaldotanddens","randomdotsizeEA","randomdotsizeEA","equaldotanddens","equaldotanddens","equaldotanddens","equaldotanddens","randomdotsizeEA","equaldotanddens","equaldotsize","randomdotsizeEA","equaldotanddens","equaldotanddens","equaldotanddens","equaldotanddens","equaldotanddens","randomdotsizeEA","randomdotsizeEA","equaldotanddens","randomdotsizeEA","equaldotsize","equaldotsize","equaldotanddens","equaldotanddens","randomdotsizeEA","equaldotsize","equaldotsize","equaldotanddens","equaldotsize","equaldotsize","equaldotanddens","randomdotsizeEA","randomdotsizeEA","equaldotanddens","equaldotanddens","equaldotanddens","equaldotsize"],"ratio_trial":[750,900,500,250,750,500,750,900,750,750,900,250,250,900,900,750,900,250,750,750,900,500,250,750,900,500,250,500,750,500,500,250,750,250,750,250,500,750,250,900,500,750,750,500,900,500,900,750,750,750,750,500,250,250,500,250,500,900,750,900,750,500,250,750,500,750,500,900,500,500,250,500,250,500,250,900,900,500,500,900,900,900,750,500,750,900,250,500,900,250,900,900,750,900,250,750,250,900,250,250,900,750,500,750,500,250,500,250,250,250,250,500,250,900,900,500,900,900,750,250],"smaller_num":["15","18","9","3","15","6","15","18","3","3","9","3","2","9","9","15","9","6","9","3","18","3","6","15","18","5","3","6","9","5","2","3","6","4","3","6","2","3","5","18","6","15","18","2","18","2","18","15","15","3","6","9","3","2","3","6","9","9","15","18","15","9","4","12","9","3","10","9","5","1","2","9","2","2","5","18","18","9","6","18","9","9","15","10","6","18","2","5","9","2","18","18","15","18","2","3","5","9","1","2","18","15","9","12","4","2","9","6","3","2","3","9","4","18","18","6","9","18","3","4"],"larger_num":["20","20","18","12","20","12","20","20","4","4","10","12","8","10","10","20","10","24","12","4","20","6","24","20","20","10","12","12","12","10","4","12","8","16","4","24","4","4","20","20","12","20","24","4","20","4","20","20","20","4","8","18","12","8","6","24","18","10","20","20","20","18","16","16","18","4","20","10","10","2","8","18","8","4","20","20","20","18","12","20","10","10","20","20","8","20","8","10","10","8","20","20","20","20","8","4","20","10","4","8","20","20","18","16","8","8","18","24","12","8","12","18","16","20","20","12","10","20","4","16"],"correct_side":[1,2,1,2,2,1,1,2,1,1,2,2,1,2,1,2,2,1,2,2,2,2,2,1,2,2,2,1,2,2,1,2,1,2,2,2,2,1,2,2,1,2,1,1,1,2,1,1,2,2,1,2,2,1,2,1,2,1,2,1,1,1,2,2,2,1,2,2,1,2,2,2,1,1,2,1,2,2,1,2,1,1,2,2,1,2,1,2,2,1,2,2,1,1,2,2,2,2,2,1,1,2,1,2,1,1,1,1,2,2,2,2,1,1,1,1,1,1,1,2],"img_shown":["img/750/equaldotsize/L/1_Ratio_750_L_20_R_15.png","img/900/randomdotsizeEA/R/13_Ratio_900_L_18_R_20.png","img/500/randomdotsizeEA/L/4_Ratio_500_L_18_R_9.png","img/250/randomdotsizeEA/R/9_Ratio_250_L_3_R_12.png","img/750/equaldotanddens/R/4_Ratio_750_L_15_R_20.png","img/500/equaldotanddens/L/13_Ratio_500_L_12_R_6.png","img/750/equaldotsize/L/1_Ratio_750_L_20_R_15.png","img/900/equaldotsize/R/9_Ratio_900_L_18_R_20.png","img/750/randomdotsizeEA/L/10_Ratio_750_L_4_R_3.png","img/750/randomdotsizeEA/L/10_Ratio_750_L_4_R_3.png","img/900/equaldotsize/R/6_Ratio_900_L_9_R_10.png","img/250/equaldotsize/R/11_Ratio_250_L_3_R_12.png","img/250/randomdotsizeEA/L/1_Ratio_250_L_8_R_2.png","img/900/randomdotsizeEA/R/6_Ratio_900_L_9_R_10.png","img/900/equaldotanddens/L/1_Ratio_900_L_10_R_9.png","img/750/randomdotsizeEA/R/4_Ratio_750_L_15_R_20.png","img/900/equaldotsize/R/15_Ratio_900_L_9_R_10.png","img/250/equaldotanddens/L/5_Ratio_250_L_24_R_6.png","img/750/equaldotsize/R/15_Ratio_750_L_9_R_12.png","img/750/equaldotsize/R/7_Ratio_750_L_3_R_4.png","img/900/equaldotsize/R/9_Ratio_900_L_18_R_20.png","img/500/equaldotsize/R/2_Ratio_500_L_3_R_6.png","img/250/equaldotsize/R/6_Ratio_250_L_6_R_24.png","img/750/equaldotanddens/L/1_Ratio_750_L_20_R_15.png","img/900/equaldotsize/R/9_Ratio_900_L_18_R_20.png","img/500/equaldotanddens/R/14_Ratio_500_L_5_R_10.png","img/250/equaldotsize/R/9_Ratio_250_L_3_R_12.png","img/500/equaldotsize/L/11_Ratio_500_L_12_R_6.png","img/750/equaldotanddens/R/15_Ratio_750_L_9_R_12.png","img/500/randomdotsizeEA/R/14_Ratio_500_L_5_R_10.png","img/500/randomdotsizeEA/L/5_Ratio_500_L_4_R_2.png","img/250/randomdotsizeEA/R/4_Ratio_250_L_3_R_12.png","img/750/equaldotsize/L/13_Ratio_750_L_8_R_6.png","img/250/equaldotanddens/R/10_Ratio_250_L_4_R_16.png","img/750/randomdotsizeEA/R/12_Ratio_750_L_3_R_4.png","img/250/equaldotsize/R/6_Ratio_250_L_6_R_24.png","img/500/equaldotanddens/R/9_Ratio_500_L_2_R_4.png","img/750/equaldotanddens/L/10_Ratio_750_L_4_R_3.png","img/250/randomdotsizeEA/R/12_Ratio_250_L_5_R_20.png","img/900/equaldotanddens/R/11_Ratio_900_L_18_R_20.png","img/500/randomdotsizeEA/L/11_Ratio_500_L_12_R_6.png","img/750/randomdotsizeEA/R/3_Ratio_750_L_15_R_20.png","img/750/randomdotsizeEA/L/6_Ratio_750_L_24_R_18.png","img/500/equaldotsize/L/5_Ratio_500_L_4_R_2.png","img/900/equaldotsize/L/10_Ratio_900_L_20_R_18.png","img/500/equaldotsize/R/9_Ratio_500_L_2_R_4.png","img/900/equaldotsize/L/2_Ratio_900_L_20_R_18.png","img/750/equaldotsize/L/1_Ratio_750_L_20_R_15.png","img/750/equaldotanddens/R/3_Ratio_750_L_15_R_20.png","img/750/randomdotsizeEA/R/12_Ratio_750_L_3_R_4.png","img/750/equaldotanddens/L/13_Ratio_750_L_8_R_6.png","img/500/equaldotanddens/R/6_Ratio_500_L_9_R_18.png","img/250/equaldotsize/R/11_Ratio_250_L_3_R_12.png","img/250/randomdotsizeEA/L/3_Ratio_250_L_8_R_2.png","img/500/equaldotsize/R/2_Ratio_500_L_3_R_6.png","img/250/randomdotsizeEA/L/5_Ratio_250_L_24_R_6.png","img/500/randomdotsizeEA/R/1_Ratio_500_L_9_R_18.png","img/900/randomdotsizeEA/L/1_Ratio_900_L_10_R_9.png","img/750/randomdotsizeEA/R/5_Ratio_750_L_15_R_20.png","img/900/randomdotsizeEA/L/10_Ratio_900_L_20_R_18.png","img/750/randomdotsizeEA/L/1_Ratio_750_L_20_R_15.png","img/500/equaldotanddens/L/4_Ratio_500_L_18_R_9.png","img/250/randomdotsizeEA/R/10_Ratio_250_L_4_R_16.png","img/750/equaldotsize/R/11_Ratio_750_L_12_R_16.png","img/500/randomdotsizeEA/R/1_Ratio_500_L_9_R_18.png","img/750/equaldotanddens/L/9_Ratio_750_L_4_R_3.png","img/500/equaldotanddens/R/3_Ratio_500_L_10_R_20.png","img/900/equaldotanddens/R/3_Ratio_900_L_9_R_10.png","img/500/randomdotsizeEA/L/7_Ratio_500_L_10_R_5.png","img/500/randomdotsizeEA/R/15_Ratio_500_L_1_R_2.png","img/250/equaldotsize/R/13_Ratio_250_L_2_R_8.png","img/500/equaldotanddens/R/6_Ratio_500_L_9_R_18.png","img/250/equaldotanddens/L/7_Ratio_250_L_8_R_2.png","img/500/equaldotsize/L/10_Ratio_500_L_4_R_2.png","img/250/randomdotsizeEA/R/12_Ratio_250_L_5_R_20.png","img/900/equaldotsize/L/4_Ratio_900_L_20_R_18.png","img/900/equaldotsize/R/9_Ratio_900_L_18_R_20.png","img/500/equaldotsize/R/1_Ratio_500_L_9_R_18.png","img/500/equaldotsize/L/11_Ratio_500_L_12_R_6.png","img/900/randomdotsizeEA/R/9_Ratio_900_L_18_R_20.png","img/900/equaldotsize/L/1_Ratio_900_L_10_R_9.png","img/900/equaldotanddens/L/1_Ratio_900_L_10_R_9.png","img/750/equaldotsize/R/3_Ratio_750_L_15_R_20.png","img/500/equaldotanddens/R/3_Ratio_500_L_10_R_20.png","img/750/randomdotsizeEA/L/14_Ratio_750_L_8_R_6.png","img/900/randomdotsizeEA/R/13_Ratio_900_L_18_R_20.png","img/250/equaldotanddens/L/3_Ratio_250_L_8_R_2.png","img/500/equaldotanddens/R/14_Ratio_500_L_5_R_10.png","img/900/equaldotanddens/R/3_Ratio_900_L_9_R_10.png","img/250/equaldotanddens/L/1_Ratio_250_L_8_R_2.png","img/900/randomdotsizeEA/R/9_Ratio_900_L_18_R_20.png","img/900/equaldotanddens/R/13_Ratio_900_L_18_R_20.png","img/750/equaldotsize/L/1_Ratio_750_L_20_R_15.png","img/900/randomdotsizeEA/L/10_Ratio_900_L_20_R_18.png","img/250/equaldotanddens/R/13_Ratio_250_L_2_R_8.png","img/750/equaldotanddens/R/7_Ratio_750_L_3_R_4.png","img/250/equaldotanddens/R/12_Ratio_250_L_5_R_20.png","img/900/equaldotanddens/R/5_Ratio_900_L_9_R_10.png","img/250/equaldotanddens/R/8_Ratio_250_L_1_R_4.png","img/250/randomdotsizeEA/L/7_Ratio_250_L_8_R_2.png","img/900/randomdotsizeEA/L/2_Ratio_900_L_20_R_18.png","img/750/equaldotanddens/R/4_Ratio_750_L_15_R_20.png","img/500/randomdotsizeEA/L/4_Ratio_500_L_18_R_9.png","img/750/equaldotsize/R/11_Ratio_750_L_12_R_16.png","img/500/equaldotsize/L/8_Ratio_500_L_8_R_4.png","img/250/equaldotanddens/L/1_Ratio_250_L_8_R_2.png","img/500/equaldotanddens/L/4_Ratio_500_L_18_R_9.png","img/250/randomdotsizeEA/L/5_Ratio_250_L_24_R_6.png","img/250/equaldotsize/R/9_Ratio_250_L_3_R_12.png","img/250/equaldotsize/R/13_Ratio_250_L_2_R_8.png","img/250/equaldotanddens/R/11_Ratio_250_L_3_R_12.png","img/500/equaldotsize/R/1_Ratio_500_L_9_R_18.png","img/250/equaldotsize/L/2_Ratio_250_L_16_R_4.png","img/900/equaldotanddens/L/2_Ratio_900_L_20_R_18.png","img/900/randomdotsizeEA/L/8_Ratio_900_L_20_R_18.png","img/500/randomdotsizeEA/L/13_Ratio_500_L_12_R_6.png","img/900/equaldotanddens/L/1_Ratio_900_L_10_R_9.png","img/900/equaldotanddens/L/2_Ratio_900_L_20_R_18.png","img/750/equaldotanddens/L/10_Ratio_750_L_4_R_3.png","img/250/equaldotsize/R/10_Ratio_250_L_4_R_16.png"],"Rat0":[["12_Ratio_0_L_9_R_0.png","13_Ratio_0_L_6_R_0.png","5_Ratio_0_L_2_R_0.png","6_Ratio_0_L_4_R_0.png","8_Ratio_0_L_6_R_0.png"],["1_Ratio_0_L_0_R_17.png","10_Ratio_0_L_0_R_22.png","11_Ratio_0_L_0_R_1.png","14_Ratio_0_L_0_R_24.png","15_Ratio_0_L_0_R_4.png","2_Ratio_0_L_0_R_5.png","3_Ratio_0_L_0_R_17.png","4_Ratio_0_L_0_R_7.png","7_Ratio_0_L_0_R_19.png","9_Ratio_0_L_0_R_15.png"]],"Rat250":[["1_Ratio_250_L_8_R_2.png","14_Ratio_250_L_12_R_3.png","15_Ratio_250_L_12_R_3.png","2_Ratio_250_L_16_R_4.png","3_Ratio_250_L_8_R_2.png","5_Ratio_250_L_24_R_6.png","7_Ratio_250_L_8_R_2.png"],["10_Ratio_250_L_4_R_16.png","11_Ratio_250_L_3_R_12.png","12_Ratio_250_L_5_R_20.png","13_Ratio_250_L_2_R_8.png","4_Ratio_250_L_3_R_12.png","6_Ratio_250_L_6_R_24.png","8_Ratio_250_L_1_R_4.png","9_Ratio_250_L_3_R_12.png"]],"Rat500":[["10_Ratio_500_L_4_R_2.png","11_Ratio_500_L_12_R_6.png","13_Ratio_500_L_12_R_6.png","4_Ratio_500_L_18_R_9.png","5_Ratio_500_L_4_R_2.png","7_Ratio_500_L_10_R_5.png","8_Ratio_500_L_8_R_4.png"],["1_Ratio_500_L_9_R_18.png","12_Ratio_500_L_1_R_2.png","14_Ratio_500_L_5_R_10.png","15_Ratio_500_L_1_R_2.png","2_Ratio_500_L_3_R_6.png","3_Ratio_500_L_10_R_20.png","6_Ratio_500_L_9_R_18.png","9_Ratio_500_L_2_R_4.png"]],"Rat750":[["1_Ratio_750_L_20_R_15.png","10_Ratio_750_L_4_R_3.png","13_Ratio_750_L_8_R_6.png","14_Ratio_750_L_8_R_6.png","6_Ratio_750_L_24_R_18.png","8_Ratio_750_L_4_R_3.png","9_Ratio_750_L_4_R_3.png"],["11_Ratio_750_L_12_R_16.png","12_Ratio_750_L_3_R_4.png","15_Ratio_750_L_9_R_12.png","2_Ratio_750_L_6_R_8.png","3_Ratio_750_L_15_R_20.png","4_Ratio_750_L_15_R_20.png","5_Ratio_750_L_15_R_20.png","7_Ratio_750_L_3_R_4.png"]],"Rat900":[["1_Ratio_900_L_10_R_9.png","10_Ratio_900_L_20_R_18.png","2_Ratio_900_L_20_R_18.png","4_Ratio_900_L_20_R_18.png","8_Ratio_900_L_20_R_18.png"],["11_Ratio_900_L_18_R_20.png","12_Ratio_900_L_18_R_20.png","13_Ratio_900_L_18_R_20.png","14_Ratio_900_L_18_R_20.png","15_Ratio_900_L_9_R_10.png","3_Ratio_900_L_9_R_10.png","5_Ratio_900_L_9_R_10.png","6_Ratio_900_L_9_R_10.png","7_Ratio_900_L_9_R_10.png","9_Ratio_900_L_18_R_20.png"]],"Rat1000":[["10_Ratio_1000_L_16_R_16.png","11_Ratio_1000_L_6_R_6.png","12_Ratio_1000_L_14_R_14.png","13_Ratio_1000_L_20_R_20.png","15_Ratio_1000_L_15_R_15.png","2_Ratio_1000_L_17_R_17.png","4_Ratio_1000_L_9_R_9.png","5_Ratio_1000_L_6_R_6.png","6_Ratio_1000_L_19_R_19.png","8_Ratio_1000_L_14_R_14.png","9_Ratio_1000_L_25_R_25.png"],["1_Ratio_1000_L_1_R_1.png","14_Ratio_1000_L_17_R_17.png","3_Ratio_1000_L_17_R_17.png","7_Ratio_1000_L_6_R_6.png"]]}},{"start_time":1551791017106,"click_time":1551791019553,"finger_time":1551791018993,"fix_duration":250,"trial":1,"RT":1887,"MT":560,"sideResp":2,"stimulus":"img/900/randomdotsizeEA/R/13_Ratio_900_L_18_R_20.png","xmouse":[763,763,763,763,763,763,763,763,763,763,763,763,763,763,763,763,763,763,763,763,763,763,763,763,763,763,763,763,763,763,763,763,763,763,763,763,763,763,763,763,763,763,763,763,763,763,763,763,763,763,763,765,766,766,766,766,766,766,767,768,770,774,776,777,777,777,777,777,777,777,777,777,777,777,777,777,777,777,777,777,777,777,777,777,777,777,777,777,777,777,779,792,808,826,852,860,890,900,909,919,931,957,969,982,993,1003,1025,1032,1039,1044,1049,1058,1062,1065,1068,1071,1078,1080,1080,1080,1079,1078,1078],"ymouse":[489,489,489,489,489,489,489,489,489,489,489,489,489,489,489,489,489,489,489,489,489,489,489,489,489,489,489,489,489,489,489,489,489,489,489,489,489,489,489,489,489,489,489,489,489,489,489,489,489,489,489,490,490,490,490,490,490,490,490,490,490,490,490,490,490,490,490,490,490,490,490,490,490,490,490,490,490,490,490,490,490,490,490,490,490,490,490,490,490,490,490,490,490,487,480,475,453,444,435,422,409,372,356,338,321,306,275,264,255,247,239,220,210,200,183,173,149,137,125,114,108,101,99],"timestamp_mouse":[9,37,47,68,88,108,127,148,169,187,208,227,247,268,288,309,327,347,368,387,408,429,447,467,488,508,527,549,567,588,607,628,647,668,688,707,728,749,768,787,808,828,847,868,889,908,929,948,967,988,1009,1028,1048,1068,1089,1107,1127,1147,1168,1187,1208,1228,1248,1267,1288,1307,1327,1347,1368,1388,1408,1428,1447,1468,1488,1507,1528,1547,1568,1589,1608,1628,1648,1667,1687,1708,1727,1749,1767,1789,1808,1828,1848,1867,1887,1909,1928,1947,1968,1987,2007,2028,2048,2068,2088,2108,2128,2149,2168,2187,2208,2227,2249,2267,2287,2307,2328,2348,2367,2388,2407,2428,2447],"xSR":741.5,"ySR":470.6,"xT1":424.9,"yT1":0,"xT2":1058.1,"yT2":0,"toosoon":0,"cond_shown":"randomdotsizeEA","ratio_trial":900,"smaller_num":"18","larger_num":"20","correct_side":2,"subjID":"AnaIsabelaOrtizLeón26","gender":"1","age":"11","school":"6"},{"start_time":1551791021827,"click_time":1551791023813,"finger_time":1551791023194,"fix_duration":250,"trial":2,"RT":1367,"MT":619,"sideResp":2,"stimulus":"img/500/randomdotsizeEA/L/4_Ratio_500_L_18_R_9.png","xmouse":[795,795,795,792,791,791,790,790,790,790,790,790,790,790,790,790,790,790,790,790,790,790,790,790,790,790,790,790,790,790,790,790,790,790,790,790,790,790,790,790,790,790,790,790,790,790,790,790,790,790,790,790,792,792,793,793,793,793,793,793,793,794,796,797,798,803,816,829,842,852,867,870,875,880,885,896,922,940,950,958,966,980,986,995,1003,1008,1017,1021,1023,1025,1028,1036,1040,1044,1049,1057,1063,1072,1078,1084],"ymouse":[526,526,526,526,526,526,526,526,526,526,526,526,526,526,526,526,526,526,526,526,526,526,526,526,526,526,526,526,526,526,526,526,526,526,526,526,526,526,526,526,526,526,526,526,526,526,526,526,526,526,526,526,526,526,526,526,526,526,526,526,526,526,527,527,527,527,527,527,525,522,514,511,507,503,498,492,473,457,448,437,423,394,380,364,349,338,310,289,276,266,254,227,213,198,181,153,137,116,102,88],"timestamp_mouse":[9,40,47,66,86,107,127,146,166,187,208,227,247,267,288,307,326,347,367,387,408,427,446,466,487,507,526,546,567,586,607,627,646,666,687,706,727,747,767,787,807,827,848,866,886,907,927,947,967,986,1007,1028,1046,1067,1087,1106,1127,1147,1167,1187,1208,1228,1248,1266,1287,1307,1327,1347,1367,1387,1407,1426,1447,1467,1487,1506,1526,1546,1567,1587,1606,1626,1647,1667,1687,1706,1726,1746,1766,1786,1806,1826,1846,1866,1887,1907,1926,1948,1968,1986],"xSR":741.5,"ySR":470.6,"xT1":424.9,"yT1":0,"xT2":1058.1,"yT2":0,"toosoon":0,"cond_shown":"randomdotsizeEA","ratio_trial":500,"smaller_num":"9","larger_num":"18","correct_side":1,"subjID":"AnaIsabelaOrtizLeón26","gender":"1","age":"11","school":"6"},{"start_time":1551791026476,"click_time":1551791028395,"finger_time":1551791027753,"fix_duration":781.5662951492062,"trial":3,"RT":1277,"MT":642,"sideResp":2,"stimulus":"img/250/randomdotsizeEA/R/9_Ratio_250_L_3_R_12.png","xmouse":[799,799,799,799,799,799,799,799,799,799,799,799,799,799,799,799,799,799,799,799,799,799,799,799,799,799,799,799,799,799,799,799,799,799,799,799,799,799,799,799,799,799,799,799,799,799,799,800,800,800,800,800,800,800,800,800,800,802,806,810,815,824,835,864,875,885,894,903,921,933,941,949,965,990,1001,1012,1020,1029,1048,1057,1067,1076,1090,1099,1101,1101,1101,1101,1101,1101,1102,1102,1102,1102,1102,1102],"ymouse":[524,524,524,524,524,524,524,524,524,524,524,524,524,524,524,524,524,524,524,524,524,524,524,524,524,524,524,524,524,524,524,524,524,524,524,524,524,524,524,524,524,524,524,524,524,524,523,523,523,523,523,523,523,523,523,523,523,523,523,521,517,512,505,484,476,469,459,448,419,403,388,374,349,316,300,280,265,249,216,200,183,167,145,123,118,117,117,117,117,117,116,116,116,108,100,92],"timestamp_mouse":[17,40,57,78,98,118,137,158,177,197,219,238,258,278,298,317,338,359,378,398,419,438,459,478,498,519,538,557,577,599,617,638,659,679,697,718,737,757,778,799,818,838,857,878,898,919,937,957,978,997,1019,1039,1058,1078,1097,1117,1137,1157,1177,1202,1218,1237,1257,1277,1299,1318,1338,1358,1377,1398,1417,1437,1458,1479,1499,1518,1538,1558,1578,1598,1617,1638,1658,1678,1698,1717,1737,1759,1778,1797,1817,1837,1857,1877,1898,1918],"xSR":741.5,"ySR":470.6,"xT1":424.9,"yT1":0,"xT2":1058.1,"yT2":0,"toosoon":0,"cond_shown":"randomdotsizeEA","ratio_trial":250,"smaller_num":"3","larger_num":"12","correct_side":2,"subjID":"AnaIsabelaOrtizLeón26","gender":"1","age":"11","school":"6"},{"start_time":1551791030831,"click_time":1551791032493,"finger_time":1551791031835,"fix_duration":956.6413482267237,"trial":4,"RT":1004,"MT":658,"sideResp":2,"stimulus":"img/750/equaldotanddens/R/4_Ratio_750_L_15_R_20.png","xmouse":[808,808,808,808,808,808,808,808,808,808,808,808,808,808,808,808,808,808,808,808,808,808,808,808,808,808,808,808,808,808,808,808,808,808,808,808,808,808,808,808,808,808,808,808,809,811,815,823,828,835,843,850,868,879,887,892,901,905,910,915,921,928,944,955,960,965,973,980,988,995,1004,1015,1019,1024,1030,1035,1039,1047,1050,1053,1057,1061,1069,1074],"ymouse":[522,522,522,522,522,522,522,522,522,522,522,522,522,522,522,522,522,522,522,522,522,522,522,522,522,522,522,522,522,522,522,522,522,522,522,522,522,522,522,522,522,522,522,522,521,520,518,512,507,501,494,487,468,453,444,436,425,419,413,408,401,391,371,357,349,341,325,316,308,299,288,269,260,250,234,223,214,190,180,167,153,139,111,94],"timestamp_mouse":[8,40,43,62,82,102,123,143,162,182,203,223,243,262,283,302,324,343,363,384,403,423,442,463,484,502,524,542,562,584,602,622,642,662,684,702,724,742,762,782,803,823,843,863,883,902,923,944,962,982,1004,1024,1043,1063,1083,1103,1124,1143,1162,1182,1202,1222,1242,1262,1282,1303,1323,1342,1363,1382,1402,1423,1442,1463,1483,1502,1523,1542,1562,1582,1602,1623,1642,1662],"xSR":741.5,"ySR":470.6,"xT1":424.9,"yT1":0,"xT2":1058.1,"yT2":0,"toosoon":0,"cond_shown":"equaldotanddens","ratio_trial":750,"smaller_num":"15","larger_num":"20","correct_side":2,"subjID":"AnaIsabelaOrtizLeón26","gender":"1","age":"11","school":"6"},{"start_time":1551791035334,"click_time":1551791036654,"finger_time":1551791036313,"fix_duration":1438.2796571447661,"trial":5,"RT":979,"MT":341,"sideResp":1,"stimulus":"img/500/equaldotanddens/L/13_Ratio_500_L_12_R_6.png","xmouse":[798,798,798,798,798,798,798,798,798,798,798,798,798,798,798,798,798,798,798,798,798,798,798,798,798,798,798,798,798,798,798,798,798,798,798,798,798,798,798,798,798,798,798,798,793,788,781,759,744,731,717,701,671,658,646,632,621,599,591,581,570,559,539,527,521,512,511],"ymouse":[549,549,549,549,549,549,549,549,549,549,549,549,549,549,549,549,549,549,549,549,549,549,549,549,549,549,549,549,549,549,549,549,549,549,549,549,549,549,549,549,549,549,549,546,538,531,523,490,472,454,436,417,379,361,340,313,294,256,239,222,205,187,149,129,116,101,98],"timestamp_mouse":[1,19,40,59,80,99,119,140,160,180,201,219,241,259,281,299,319,340,361,379,400,419,441,459,481,499,519,539,559,579,601,619,639,661,679,699,721,740,760,780,799,820,841,860,880,900,919,940,961,979,999,1019,1039,1060,1080,1099,1119,1140,1161,1180,1200,1220,1239,1259,1279,1299,1320],"xSR":741.5,"ySR":470.6,"xT1":424.9,"yT1":0,"xT2":1058.1,"yT2":0,"toosoon":0,"cond_shown":"equaldotanddens","ratio_trial":500,"smaller_num":"6","larger_num":"12","correct_side":1,"subjID":"AnaIsabelaOrtizLeón26","gender":"1","age":"11","school":"6"},{"start_time":1551791038805,"click_time":1551791039993,"finger_time":1551791039694,"fix_duration":530.1477398866234,"trial":6,"RT":889,"MT":299,"sideResp":1,"stimulus":"img/750/equaldotsize/L/1_Ratio_750_L_20_R_15.png","xmouse":[797,797,797,797,797,797,797,797,797,797,797,797,797,797,797,797,797,797,797,797,797,797,797,797,797,797,797,797,797,797,797,797,797,797,797,797,797,797,797,797,797,797,797,763,735,706,671,650,611,590,571,546,533,505,492,482,475,470,460,457],"ymouse":[515,515,515,515,515,515,515,515,515,515,515,515,515,515,515,515,515,515,515,515,515,515,515,515,515,515,515,515,515,515,515,515,515,515,515,515,515,515,515,515,515,515,514,486,469,451,430,416,380,358,336,305,287,235,207,184,165,144,102,80],"timestamp_mouse":[11,35,49,69,88,108,130,148,169,188,208,230,250,268,289,308,329,348,368,389,408,429,448,469,488,508,529,549,569,588,610,628,648,669,689,709,729,749,770,788,809,830,848,869,889,909,929,948,970,988,1009,1029,1049,1068,1088,1108,1128,1148,1170,1188],"xSR":741.5,"ySR":470.6,"xT1":424.9,"yT1":0,"xT2":1058.1,"yT2":0,"toosoon":0,"cond_shown":"equaldotsize","ratio_trial":750,"smaller_num":"15","larger_num":"20","correct_side":1,"subjID":"AnaIsabelaOrtizLeón26","gender":"1","age":"11","school":"6"},{"start_time":1551791042541,"click_time":1551791045753,"finger_time":1551791045293,"fix_duration":1224.2080270473978,"trial":7,"RT":2752,"MT":460,"sideResp":2,"stimulus":"img/900/equaldotsize/R/9_Ratio_900_L_18_R_20.png","xmouse":[785,785,785,785,785,785,785,785,785,785,785,785,785,785,785,785,785,785,785,785,785,785,785,785,785,785,785,785,785,785,786,786,786,786,786,786,786,786,786,786,786,786,786,786,786,786,786,786,786,786,787,787,787,787,787,787,787,787,787,787,787,787,787,787,787,787,787,787,787,787,787,787,787,787,787,787,787,787,787,787,787,787,787,787,787,787,787,787,787,787,787,787,787,787,787,787,787,787,787,787,787,787,787,787,787,787,787,787,787,787,787,787,787,787,787,787,787,787,787,787,787,787,787,787,787,787,787,787,787,787,787,787,792,802,814,825,834,843,858,867,874,885,888,895,902,909,916,935,945,955,966,977,1011,1023,1033,1042,1048,1058,1063,1067,1073],"ymouse":[526,526,526,526,526,526,526,526,526,526,526,526,526,526,526,526,526,526,526,526,526,526,526,526,526,526,526,526,526,526,526,526,526,526,526,526,526,526,526,526,526,526,526,526,526,526,526,526,526,526,524,524,524,524,524,524,524,524,524,524,524,524,524,524,524,524,524,524,524,524,524,524,524,524,524,524,524,524,524,524,524,524,524,524,524,524,524,524,524,524,524,524,524,524,524,524,524,524,524,524,524,524,524,524,524,524,524,524,524,524,524,524,524,524,524,524,524,524,524,524,524,524,524,524,524,524,524,524,524,524,524,523,514,506,495,485,474,465,447,437,426,407,394,371,359,348,334,306,289,273,259,244,208,195,179,165,151,125,114,103,91],"timestamp_mouse":[13,47,52,73,94,113,133,154,172,192,214,234,252,274,293,313,332,354,373,393,414,434,452,473,494,513,533,554,573,593,612,633,652,674,693,712,732,753,774,792,813,832,853,873,892,912,932,952,972,993,1013,1034,1052,1073,1094,1112,1133,1153,1172,1194,1212,1233,1254,1274,1292,1314,1332,1353,1372,1392,1413,1434,1453,1474,1492,1512,1533,1553,1573,1593,1614,1633,1652,1674,1694,1712,1734,1754,1772,1792,1812,1833,1852,1874,1892,1913,1934,1952,1973,1993,2013,2034,2052,2072,2092,2113,2132,2152,2174,2194,2212,2232,2254,2272,2294,2313,2333,2353,2373,2392,2414,2433,2452,2472,2492,2513,2532,2553,2573,2593,2614,2633,2652,2673,2693,2712,2732,2752,2772,2793,2813,2833,2852,2873,2893,2913,2934,2952,2972,2993,3013,3033,3053,3073,3092,3113,3132,3152,3172,3193,3212],"xSR":741.5,"ySR":470.6,"xT1":424.9,"yT1":0,"xT2":1058.1,"yT2":0,"toosoon":0,"cond_shown":"equaldotsize","ratio_trial":900,"smaller_num":"18","larger_num":"20","correct_side":2,"subjID":"AnaIsabelaOrtizLeón26","gender":"1","age":"11","school":"6"},{"start_time":1551791052146,"click_time":1551791054954,"finger_time":1551791054574,"fix_duration":250,"trial":8,"RT":2428,"MT":380,"sideResp":1,"stimulus":"img/750/randomdotsizeEA/L/10_Ratio_750_L_4_R_3.png","xmouse":[782,782,782,782,782,782,782,782,782,782,782,782,782,782,782,782,782,782,782,782,782,782,782,782,782,782,782,782,783,784,786,787,787,787,787,787,787,787,787,787,787,787,787,787,787,787,787,787,788,788,788,788,788,788,788,788,788,788,788,788,788,788,788,788,788,788,788,788,788,788,788,788,788,788,788,788,790,791,794,795,795,796,797,797,797,797,797,797,797,797,797,797,797,797,797,797,797,797,797,797,797,797,797,797,797,797,796,795,794,794,793,793,793,793,793,793,793,793,790,785,776,762,746,714,701,695,692,688,684,681,674,664,650,636,612,602,596,588,575,526,500],"ymouse":[519,519,519,519,519,519,519,519,519,519,519,519,519,519,519,519,519,519,519,519,519,519,519,519,519,519,519,519,519,518,516,515,515,514,514,514,514,514,514,514,514,514,514,514,514,514,514,514,514,514,514,514,514,514,514,514,514,514,514,514,514,514,514,514,514,514,514,514,514,514,514,514,514,514,514,514,512,512,509,508,507,506,505,505,505,505,505,505,505,505,505,505,505,505,505,505,505,505,505,505,505,505,505,505,505,505,507,508,510,510,511,511,511,511,511,511,511,511,511,504,488,465,439,386,365,348,331,303,261,238,212,186,160,136,100,89,84,81,80,79,74],"timestamp_mouse":[8,39,49,67,89,109,127,147,168,187,208,227,248,267,287,308,327,348,368,389,408,428,449,468,489,508,529,548,567,589,607,628,648,667,687,709,727,748,768,787,808,828,847,869,888,908,927,947,967,989,1007,1028,1049,1068,1088,1107,1127,1148,1167,1188,1208,1228,1249,1267,1288,1307,1328,1348,1368,1388,1409,1429,1447,1467,1488,1507,1527,1547,1568,1587,1607,1627,1647,1668,1689,1708,1728,1748,1769,1787,1809,1829,1847,1868,1889,1909,1928,1949,1967,1987,2009,2029,2047,2067,2087,2107,2128,2148,2167,2188,2208,2229,2247,2269,2288,2309,2327,2348,2368,2387,2407,2428,2448,2467,2487,2507,2527,2547,2567,2587,2607,2628,2648,2668,2689,2708,2728,2747,2767,2787,2807],"xSR":741.5,"ySR":470.6,"xT1":424.9,"yT1":0,"xT2":1058.1,"yT2":0,"toosoon":0,"cond_shown":"randomdotsizeEA","ratio_trial":750,"smaller_num":"3","larger_num":"4","correct_side":1,"subjID":"AnaIsabelaOrtizLeón26","gender":"1","age":"11","school":"6"},{"start_time":1551791057762,"click_time":1551791060915,"finger_time":1551791060533,"fix_duration":926.6124287885009,"trial":9,"RT":2771,"MT":382,"sideResp":2,"stimulus":"img/750/randomdotsizeEA/L/10_Ratio_750_L_4_R_3.png","xmouse":[771,771,771,771,771,771,771,771,771,771,771,771,771,771,771,771,771,771,771,771,771,771,771,771,771,771,771,771,771,771,771,771,771,771,771,771,771,771,771,771,771,771,771,771,771,771,771,771,771,771,771,771,771,771,771,771,771,771,771,771,771,771,771,771,771,771,771,771,771,771,771,771,771,771,771,771,771,771,771,771,771,771,771,771,771,771,771,771,771,771,771,771,771,771,771,771,771,771,771,771,771,771,771,771,771,771,771,771,771,771,771,771,771,771,771,771,771,771,771,771,771,771,771,771,771,771,771,771,771,771,771,771,772,791,805,817,828,836,858,871,887,904,923,966,979,989,999,1007,1028,1039,1047,1058,1063,1076,1084,1091,1098,1103],"ymouse":[517,517,517,517,517,517,517,517,517,517,517,517,517,517,517,517,517,517,517,517,517,517,517,517,517,517,517,517,517,517,517,517,517,517,517,517,517,517,517,517,517,517,517,517,517,517,517,517,517,517,517,517,517,517,517,517,517,517,517,517,517,517,517,517,517,517,517,517,517,517,517,517,517,517,517,517,517,517,517,517,517,517,517,517,517,517,517,517,517,517,517,517,517,517,517,517,517,517,517,517,517,517,517,517,517,517,517,517,517,517,517,517,517,517,517,517,517,517,517,517,517,517,517,517,517,517,517,517,517,517,517,517,517,515,511,505,497,490,469,453,433,410,385,326,306,285,267,250,226,215,209,201,195,166,149,129,110,91],"timestamp_mouse":[12,33,52,73,92,112,133,151,172,191,212,232,252,273,292,312,333,352,373,392,412,433,451,472,491,511,533,551,571,592,611,632,651,673,691,711,731,752,773,791,812,831,852,872,891,912,931,951,971,993,1011,1031,1053,1072,1091,1112,1132,1151,1172,1192,1212,1231,1252,1272,1292,1312,1332,1351,1372,1392,1411,1432,1452,1472,1492,1512,1533,1552,1573,1593,1611,1632,1651,1673,1692,1711,1732,1752,1772,1791,1812,1832,1851,1871,1892,1913,1931,1952,1972,1993,2012,2031,2053,2073,2091,2112,2132,2152,2171,2192,2211,2231,2252,2272,2293,2311,2331,2352,2371,2393,2413,2432,2452,2473,2491,2513,2532,2551,2573,2592,2612,2632,2651,2672,2691,2712,2731,2752,2771,2792,2811,2831,2852,2872,2891,2911,2932,2952,2971,2992,3012,3032,3051,3071,3092,3111,3133,3153],"xSR":741.5,"ySR":470.6,"xT1":424.9,"yT1":0,"xT2":1058.1,"yT2":0,"toosoon":0,"cond_shown":"randomdotsizeEA","ratio_trial":750,"smaller_num":"3","larger_num":"4","correct_side":1,"subjID":"AnaIsabelaOrtizLeón26","gender":"1","age":"11","school":"6"},{"start_time":1551791063227,"click_time":1551791065554,"finger_time":1551791065075,"fix_duration":691.2746296402148,"trial":10,"RT":1848,"MT":479,"sideResp":1,"stimulus":"img/900/equaldotsize/R/6_Ratio_900_L_9_R_10.png","xmouse":[800,800,800,800,800,800,800,800,800,800,800,800,800,800,800,800,800,800,800,800,799,798,797,796,796,795,795,795,795,795,795,795,795,795,795,795,795,795,795,795,795,795,795,795,795,795,795,795,795,795,795,795,795,795,795,795,795,795,795,795,796,796,796,796,796,797,797,797,797,797,797,797,797,797,797,797,797,797,797,797,797,797,797,796,795,794,794,794,792,791,771,751,730,706,680,655,610,588,565,552,530,524,520,516,513,507,504,502,500,499,499,499,499,499,498,497,488],"ymouse":[519,519,519,519,519,519,519,519,519,519,519,519,519,519,519,519,519,519,519,518,516,510,504,496,492,488,488,488,488,488,488,488,488,488,488,488,488,488,488,488,488,488,488,488,488,488,488,488,488,488,488,488,488,488,488,488,490,492,492,492,493,494,494,494,495,496,496,496,497,498,499,500,501,501,501,501,501,501,501,501,501,501,502,502,502,502,502,502,502,502,499,490,482,469,454,436,401,380,355,336,292,272,255,237,221,175,155,137,117,112,109,109,109,109,108,107,99],"timestamp_mouse":[8,37,47,67,87,107,127,147,166,186,207,227,265,268,287,307,328,347,366,386,406,427,447,466,486,506,526,547,566,588,607,628,647,667,687,706,726,746,767,786,807,827,846,868,888,906,927,948,966,987,1007,1027,1048,1066,1086,1107,1127,1147,1167,1188,1207,1226,1247,1266,1288,1307,1326,1347,1366,1388,1407,1426,1447,1468,1486,1506,1526,1547,1567,1587,1607,1627,1647,1667,1687,1708,1726,1747,1766,1786,1806,1827,1848,1867,1886,1906,1926,1946,1967,1987,2007,2026,2046,2066,2087,2108,2127,2147,2166,2186,2207,2228,2246,2266,2287,2308,2327],"xSR":741.5,"ySR":470.6,"xT1":424.9,"yT1":0,"xT2":1058.1,"yT2":0,"toosoon":0,"cond_shown":"equaldotsize","ratio_trial":900,"smaller_num":"9","larger_num":"10","correct_side":2,"subjID":"AnaIsabelaOrtizLeón26","gender":"1","age":"11","school":"6"},{"start_time":1551791068513,"click_time":1551791070173,"finger_time":1551791069414,"fix_duration":678.1623235818536,"trial":11,"RT":901,"MT":759,"sideResp":2,"stimulus":"img/250/equaldotsize/R/11_Ratio_250_L_3_R_12.png","xmouse":[810,810,810,810,810,810,810,810,810,810,810,810,810,810,810,810,810,810,810,810,810,810,810,810,810,810,810,810,810,810,810,810,810,810,810,810,810,810,810,810,810,810,810,815,819,822,826,839,848,857,864,872,886,891,895,903,914,951,958,968,978,984,996,1003,1010,1017,1024,1032,1036,1039,1041,1042,1045,1047,1048,1050,1050,1051,1053,1054,1054,1054,1058,1061],"ymouse":[504,504,504,504,504,504,504,504,504,504,504,504,504,504,504,504,504,504,504,504,504,504,504,504,504,504,504,504,504,504,504,504,504,504,504,504,504,504,504,504,504,503,495,483,475,464,448,402,377,357,338,326,304,298,294,285,277,250,244,233,219,206,176,162,145,128,110,79,68,61,56,53,47,44,42,40,39,38,38,38,38,38,38,38],"timestamp_mouse":[9,22,52,61,80,100,120,141,161,182,200,221,241,260,281,302,322,341,361,381,401,421,440,461,480,500,520,541,561,581,600,620,641,661,681,700,721,742,761,781,801,820,840,861,880,901,921,941,960,980,1001,1021,1040,1062,1081,1101,1121,1143,1161,1180,1202,1220,1241,1260,1280,1301,1321,1341,1360,1380,1401,1421,1440,1460,1481,1500,1521,1540,1561,1580,1601,1620,1640,1660],"xSR":741.5,"ySR":470.6,"xT1":424.9,"yT1":0,"xT2":1058.1,"yT2":0,"toosoon":0,"cond_shown":"equaldotsize","ratio_trial":250,"smaller_num":"3","larger_num":"12","correct_side":2,"subjID":"AnaIsabelaOrtizLeón26","gender":"1","age":"11","school":"6"},{"start_time":1551791072745,"click_time":1551791074573,"finger_time":1551791073614,"fix_duration":451.0463998246328,"trial":12,"RT":869,"MT":959,"sideResp":1,"stimulus":"img/250/randomdotsizeEA/L/1_Ratio_250_L_8_R_2.png","xmouse":[795,795,795,795,795,795,795,795,795,795,795,795,795,795,795,795,795,795,795,795,795,795,795,795,795,795,795,795,795,795,795,795,795,795,795,795,795,795,795,795,796,805,813,818,822,822,823,823,823,823,823,823,823,823,823,823,823,823,821,818,815,813,813,813,813,813,813,806,803,801,800,799,799,797,796,776,757,734,699,682,661,622,597,576,559,537,533,529,525,523,521,517],"ymouse":[508,508,508,508,508,508,508,508,508,508,508,508,508,508,508,508,508,508,508,508,508,508,508,508,508,508,508,508,508,508,508,508,508,508,508,508,508,508,508,507,502,487,476,469,464,463,462,462,462,462,462,462,462,462,462,462,462,462,464,469,476,479,479,479,479,480,485,493,498,501,503,503,503,503,503,487,470,452,419,397,372,320,282,240,200,148,137,128,116,109,102,89],"timestamp_mouse":[9,39,49,68,88,108,128,149,168,189,209,229,249,269,288,310,328,350,368,388,408,428,449,470,489,509,528,550,569,588,608,629,649,668,688,710,728,749,768,788,808,828,849,869,888,909,929,949,969,988,1009,1028,1049,1068,1088,1108,1129,1149,1168,1190,1209,1228,1250,1269,1288,1308,1329,1348,1369,1388,1409,1429,1450,1468,1488,1509,1528,1549,1570,1588,1610,1630,1649,1668,1689,1709,1728,1749,1769,1788,1809,1828],"xSR":741.5,"ySR":470.6,"xT1":424.9,"yT1":0,"xT2":1058.1,"yT2":0,"toosoon":0,"cond_shown":"randomdotsizeEA","ratio_trial":250,"smaller_num":"2","larger_num":"8","correct_side":1,"subjID":"AnaIsabelaOrtizLeón26","gender":"1","age":"11","school":"6"},{"start_time":1551791077838,"click_time":1551791080054,"finger_time":1551791079573,"fix_duration":1063.1490719128074,"trial":13,"RT":1735,"MT":481,"sideResp":2,"stimulus":"img/900/randomdotsizeEA/R/6_Ratio_900_L_9_R_10.png","xmouse":[783,783,783,783,783,783,783,783,783,783,783,783,783,783,783,783,783,783,783,783,783,783,783,783,783,783,783,783,783,783,783,783,783,783,783,783,783,783,783,783,783,783,783,783,783,783,783,783,783,783,783,783,783,783,783,783,783,783,783,783,783,783,783,783,783,783,783,783,783,783,783,783,783,783,783,783,783,783,783,783,783,786,792,798,803,809,822,829,836,845,860,876,883,887,893,900,917,926,938,949,962,978,988,998,1009,1020,1045,1054,1063,1069,1077],"ymouse":[518,518,518,518,518,518,518,518,518,518,518,518,518,518,518,518,518,518,518,518,518,518,518,518,518,518,518,518,518,518,518,518,518,518,518,518,518,518,518,518,518,518,518,518,518,518,518,518,518,518,518,518,518,518,518,518,518,518,518,518,518,518,518,518,518,518,518,518,518,518,518,518,518,518,518,518,518,518,518,518,518,513,506,499,494,485,464,450,434,416,389,357,346,338,328,316,293,280,266,254,238,220,210,200,190,180,153,137,120,105,80],"timestamp_mouse":[16,40,57,75,95,117,136,155,176,195,216,237,256,276,297,316,335,355,375,396,416,435,456,476,495,515,537,555,575,597,616,635,655,676,696,715,735,757,776,796,815,835,857,876,895,916,936,957,976,996,1016,1035,1057,1076,1096,1115,1135,1156,1176,1196,1215,1236,1255,1275,1296,1316,1335,1355,1375,1396,1417,1435,1455,1477,1496,1516,1536,1556,1577,1596,1616,1636,1655,1676,1695,1716,1735,1756,1776,1795,1816,1836,1855,1875,1895,1915,1936,1956,1975,1995,2016,2035,2057,2075,2095,2115,2135,2156,2176,2196,2216],"xSR":741.5,"ySR":470.6,"xT1":424.9,"yT1":0,"xT2":1058.1,"yT2":0,"toosoon":0,"cond_shown":"randomdotsizeEA","ratio_trial":900,"smaller_num":"9","larger_num":"10","correct_side":2,"subjID":"AnaIsabelaOrtizLeón26","gender":"1","age":"11","school":"6"},{"start_time":1551791082095,"click_time":1551791083994,"finger_time":1551791083574,"fix_duration":379.4280988792959,"trial":14,"RT":1479,"MT":420,"sideResp":2,"stimulus":"img/900/equaldotanddens/L/1_Ratio_900_L_10_R_9.png","xmouse":[798,798,798,798,798,798,798,798,798,798,798,798,798,798,798,798,798,798,798,798,798,798,798,798,798,798,798,798,798,798,798,798,798,798,798,798,798,798,798,798,798,798,798,798,798,798,798,798,798,798,798,798,798,798,798,798,798,798,798,798,798,798,798,798,798,798,798,798,798,799,800,802,806,813,819,830,837,844,865,876,889,898,907,914,931,938,952,963,977,1000,1013,1023,1035,1046,1071],"ymouse":[539,539,539,539,537,536,534,533,530,530,529,529,529,529,529,529,529,529,526,524,521,520,520,520,520,519,519,519,519,519,519,519,519,519,519,519,519,519,519,519,519,519,519,519,519,519,519,519,519,519,519,519,519,519,519,519,519,519,519,519,519,519,519,518,517,515,512,511,508,501,496,489,480,459,446,418,399,378,336,318,299,287,276,267,249,241,229,220,208,186,173,160,142,122,77],"timestamp_mouse":[18,39,60,79,98,118,139,158,179,199,219,238,258,279,299,318,340,359,379,398,418,439,458,478,499,520,538,560,578,598,618,638,659,678,698,719,739,758,778,800,819,839,859,880,898,918,939,959,979,998,1018,1038,1058,1079,1098,1119,1139,1158,1179,1198,1218,1238,1259,1278,1298,1318,1339,1358,1378,1400,1419,1439,1459,1479,1498,1519,1538,1558,1579,1598,1618,1638,1658,1678,1698,1719,1738,1759,1778,1798,1819,1839,1859,1878,1898],"xSR":741.5,"ySR":470.6,"xT1":424.9,"yT1":0,"xT2":1058.1,"yT2":0,"toosoon":0,"cond_shown":"equaldotanddens","ratio_trial":900,"smaller_num":"9","larger_num":"10","correct_side":1,"subjID":"AnaIsabelaOrtizLeón26","gender":"1","age":"11","school":"6"},{"start_time":1551791088605,"click_time":1551791090254,"finger_time":1551791089933,"fix_duration":809.9313673159434,"trial":15,"RT":1328,"MT":321,"sideResp":1,"stimulus":"img/750/randomdotsizeEA/R/4_Ratio_750_L_15_R_20.png","xmouse":[773,773,773,773,773,773,773,773,773,773,773,773,773,773,773,773,773,773,773,773,773,773,773,773,773,773,773,773,773,773,773,773,773,773,773,773,773,773,773,773,773,773,773,773,773,773,773,773,773,773,773,773,773,773,773,773,773,773,773,773,773,773,773,773,773,771,752,732,708,685,647,634,622,615,603,598,591,581,563,548,541,531,520],"ymouse":[503,503,503,503,503,503,503,503,503,503,503,503,503,503,503,503,503,503,503,503,503,503,503,503,503,503,503,503,503,503,503,503,503,503,503,503,503,503,503,503,503,503,503,503,503,503,503,503,503,503,503,503,503,503,503,503,503,503,503,503,503,503,503,503,501,491,463,435,410,387,355,342,331,325,307,297,281,260,226,179,155,122,83],"timestamp_mouse":[9,39,49,68,89,108,129,148,168,188,209,228,249,269,288,310,329,349,368,388,408,430,448,469,488,508,528,549,569,589,610,628,648,668,688,708,728,748,768,790,809,828,848,869,889,910,928,949,968,988,1008,1028,1049,1068,1088,1109,1128,1149,1168,1188,1208,1230,1248,1268,1289,1308,1328,1349,1369,1388,1408,1428,1449,1470,1489,1508,1528,1549,1569,1588,1608,1628,1649],"xSR":741.5,"ySR":470.6,"xT1":424.9,"yT1":0,"xT2":1058.1,"yT2":0,"toosoon":0,"cond_shown":"randomdotsizeEA","ratio_trial":750,"smaller_num":"15","larger_num":"20","correct_side":2,"subjID":"AnaIsabelaOrtizLeón26","gender":"1","age":"11","school":"6"},{"start_time":1551791093521,"click_time":1551791094654,"finger_time":1551791094393,"fix_duration":1306.1694642966404,"trial":16,"RT":872,"MT":261,"sideResp":2,"stimulus":"img/900/equaldotsize/R/15_Ratio_900_L_9_R_10.png","xmouse":[794,794,794,794,794,794,794,794,794,794,794,794,794,794,794,794,794,794,794,794,794,794,794,794,794,794,794,794,794,794,794,794,794,794,794,794,794,794,794,796,800,811,827,848,873,883,887,892,895,915,933,958,986,1007,1039,1051,1066],"ymouse":[540,540,540,540,540,540,540,540,540,539,538,538,538,538,538,538,538,538,538,538,538,538,538,538,538,538,538,538,538,538,538,538,538,538,538,538,538,538,538,535,526,508,480,443,396,380,370,363,359,329,304,270,226,189,123,100,78],"timestamp_mouse":[13,43,53,72,92,112,133,153,172,193,214,233,252,273,292,312,332,353,372,393,414,432,452,473,493,514,532,552,572,592,612,632,653,673,693,713,734,753,772,792,812,833,852,872,892,913,932,953,972,992,1013,1032,1053,1072,1093,1112,1133],"xSR":741.5,"ySR":470.6,"xT1":424.9,"yT1":0,"xT2":1058.1,"yT2":0,"toosoon":0,"cond_shown":"equaldotsize","ratio_trial":900,"smaller_num":"9","larger_num":"10","correct_side":2,"subjID":"AnaIsabelaOrtizLeón26","gender":"1","age":"11","school":"6"},{"start_time":1551791098457,"click_time":1551791099994,"finger_time":1551791099434,"fix_duration":1343.0095365487336,"trial":17,"RT":977,"MT":560,"sideResp":1,"stimulus":"img/250/equaldotanddens/L/5_Ratio_250_L_24_R_6.png","xmouse":[812,812,812,812,812,812,812,812,812,812,812,812,812,812,812,812,812,812,812,812,812,812,812,812,812,812,812,812,812,812,812,812,812,812,812,812,812,812,812,812,812,812,812,812,812,812,812,799,765,733,674,638,591,582,577,571,567,559,536,531,526,525,525,525,525,525,524,522,522,520,516,512,510,504,500,496,491],"ymouse":[500,500,498,498,496,495,494,492,491,489,488,487,486,486,486,486,486,486,486,486,486,486,486,486,486,486,486,486,486,486,486,486,486,486,486,486,486,486,486,486,486,486,486,486,486,485,483,475,447,423,381,355,318,307,296,278,262,240,184,175,160,158,158,157,157,157,157,155,154,153,148,145,143,131,118,103,91],"timestamp_mouse":[16,46,57,77,98,116,137,156,178,196,216,237,256,276,297,317,336,358,376,396,418,437,456,477,496,516,537,558,576,596,616,636,656,676,697,717,737,756,778,796,816,836,857,876,898,917,936,956,977,996,1016,1036,1057,1076,1096,1116,1136,1157,1176,1196,1216,1237,1256,1276,1297,1316,1336,1358,1376,1397,1416,1436,1456,1477,1497,1517,1537],"xSR":741.5,"ySR":470.6,"xT1":424.9,"yT1":0,"xT2":1058.1,"yT2":0,"toosoon":0,"cond_shown":"equaldotanddens","ratio_trial":250,"smaller_num":"6","larger_num":"24","correct_side":1,"subjID":"AnaIsabelaOrtizLeón26","gender":"1","age":"11","school":"6"},{"start_time":1551791103054,"click_time":1551791104733,"finger_time":1551791104254,"fix_duration":1358.9393842507368,"trial":18,"RT":1200,"MT":479,"sideResp":2,"stimulus":"img/750/equaldotsize/R/15_Ratio_750_L_9_R_12.png","xmouse":[781,781,781,781,781,781,781,781,781,781,781,781,781,781,781,781,781,781,781,781,781,781,781,781,781,781,781,781,781,781,781,781,781,781,781,781,781,781,781,781,781,781,781,781,781,781,781,781,781,781,781,781,781,781,781,782,786,791,799,824,834,846,856,866,884,892,902,912,928,950,962,974,985,999,1027,1038,1046,1058,1068,1092,1100,1106,1107,1108,1108],"ymouse":[535,535,535,535,535,535,535,535,535,535,535,535,535,535,535,535,535,535,535,535,535,535,535,535,535,535,535,535,535,535,535,535,535,535,535,535,535,535,535,535,535,535,535,535,535,535,535,535,535,535,535,535,535,535,535,531,525,517,507,479,467,452,438,425,400,386,373,359,338,313,300,285,274,258,235,225,217,202,187,149,136,123,113,105,98],"timestamp_mouse":[1,33,39,59,79,100,119,140,159,179,200,221,240,259,279,299,320,339,360,379,399,419,439,461,480,499,520,539,559,579,600,619,640,660,679,699,720,741,759,779,801,819,840,859,879,900,920,940,960,980,999,1020,1041,1059,1079,1099,1120,1139,1159,1179,1200,1219,1239,1259,1279,1300,1319,1340,1360,1379,1400,1419,1440,1459,1479,1499,1520,1539,1559,1579,1600,1620,1639,1660,1679],"xSR":741.5,"ySR":470.6,"xT1":424.9,"yT1":0,"xT2":1058.1,"yT2":0,"toosoon":0,"cond_shown":"equaldotsize","ratio_trial":750,"smaller_num":"9","larger_num":"12","correct_side":2,"subjID":"AnaIsabelaOrtizLeón26","gender":"1","age":"11","school":"6"},{"start_time":1551791106947,"click_time":1551791110453,"finger_time":1551791109853,"fix_duration":250,"trial":19,"RT":2906,"MT":600,"sideResp":2,"stimulus":"img/750/equaldotsize/R/7_Ratio_750_L_3_R_4.png","xmouse":[796,796,796,796,796,796,796,796,796,796,796,796,796,796,796,796,796,796,796,796,796,796,796,796,796,796,796,796,796,796,796,796,796,796,796,796,796,796,796,796,796,796,796,796,796,796,796,796,796,796,796,796,796,796,796,796,796,796,796,796,796,796,796,796,796,796,796,796,796,796,796,796,796,796,796,796,796,796,796,796,796,796,796,796,796,796,796,796,796,796,796,796,796,796,796,796,796,796,796,796,796,796,796,796,796,796,796,796,796,796,796,796,796,796,796,796,796,796,796,796,796,796,796,796,796,796,796,796,796,796,796,796,796,796,796,796,796,796,796,796,796,797,805,814,837,851,862,873,885,907,915,930,940,951,962,985,995,1004,1012,1019,1034,1043,1048,1052,1059,1060,1061,1065,1069,1075,1082,1086,1089,1093,1097,1103],"ymouse":[536,536,536,536,536,536,536,536,536,536,536,536,536,536,536,536,536,536,536,536,536,536,536,536,536,536,536,536,536,536,536,536,536,536,536,536,536,536,536,536,536,536,536,536,536,536,536,536,536,536,536,536,536,536,536,536,536,536,536,536,536,536,536,536,536,536,536,536,536,536,536,536,536,536,536,536,536,536,536,536,536,536,536,536,536,536,536,536,536,536,536,536,536,536,536,536,536,536,536,536,536,536,536,536,536,536,536,536,536,536,536,536,536,536,536,536,536,536,536,536,536,536,536,536,536,536,536,536,536,536,536,536,536,536,536,536,536,536,536,536,533,531,524,517,502,496,489,482,474,458,450,436,425,409,393,360,346,330,315,300,266,244,231,219,197,188,181,173,167,158,146,138,129,117,105,82],"timestamp_mouse":[9,39,47,66,86,108,126,146,166,186,207,227,246,267,287,306,326,348,367,387,407,428,447,466,487,507,526,547,567,586,608,626,648,667,686,706,726,748,766,786,806,826,847,867,886,906,927,947,966,986,1007,1026,1047,1066,1086,1106,1126,1146,1166,1188,1208,1227,1246,1268,1287,1306,1326,1347,1367,1387,1407,1426,1446,1467,1487,1508,1526,1547,1567,1587,1607,1628,1647,1668,1687,1706,1727,1747,1767,1790,1807,1828,1846,1867,1886,1906,1926,1946,1968,1987,2006,2026,2047,2066,2086,2106,2127,2146,2166,2187,2207,2227,2247,2266,2287,2308,2327,2347,2367,2386,2407,2428,2447,2466,2488,2507,2526,2547,2567,2587,2608,2627,2647,2666,2686,2707,2726,2746,2768,2787,2806,2826,2847,2866,2887,2906,2927,2947,2968,2988,3006,3027,3046,3067,3086,3106,3126,3147,3166,3187,3207,3227,3246,3268,3288,3306,3327,3346,3377,3386,3406,3427,3447,3466,3487,3506],"xSR":741.5,"ySR":470.6,"xT1":424.9,"yT1":0,"xT2":1058.1,"yT2":0,"toosoon":0,"cond_shown":"equaldotsize","ratio_trial":750,"smaller_num":"3","larger_num":"4","correct_side":2,"subjID":"AnaIsabelaOrtizLeón26","gender":"1","age":"11","school":"6"},{"start_time":1551791113618,"click_time":1551791116973,"finger_time":1551791116473,"fix_duration":1384.44902233565,"trial":20,"RT":2855,"MT":500,"sideResp":2,"stimulus":"img/900/equaldotsize/R/9_Ratio_900_L_18_R_20.png","xmouse":[788,788,788,788,788,788,788,788,788,788,788,788,788,788,788,788,788,788,788,788,788,788,788,788,788,788,788,788,788,788,788,788,788,788,788,788,788,788,788,788,788,788,788,788,788,788,788,788,788,788,788,788,788,788,788,788,788,788,788,788,788,788,788,788,788,788,788,788,788,788,788,788,787,787,787,787,786,786,786,786,786,786,786,786,786,786,786,786,786,786,786,786,786,786,786,786,786,786,786,786,786,786,786,786,786,786,786,786,786,786,786,786,786,786,786,786,786,786,786,786,786,786,786,786,786,786,786,786,786,786,786,786,788,792,793,798,803,808,813,819,824,830,847,863,870,889,900,917,927,933,938,943,947,948,948,949,953,960,965,975,985,995,1012,1021,1023,1035,1045,1065],"ymouse":[517,517,517,517,517,517,517,517,517,517,517,517,517,517,517,517,517,517,517,517,517,517,517,517,517,517,517,517,517,517,517,517,517,517,517,517,517,517,517,517,517,517,517,517,517,517,517,517,517,517,517,517,517,517,517,517,517,517,517,517,517,517,517,517,517,517,517,517,517,517,517,517,519,520,521,521,523,523,523,523,523,523,523,523,523,523,523,523,523,523,523,523,523,523,523,523,523,523,523,523,523,523,523,523,523,523,523,523,523,523,523,523,523,523,523,523,523,523,523,523,523,523,523,523,523,523,523,523,523,523,523,524,522,518,517,512,504,497,491,485,481,472,446,416,405,373,352,309,287,269,254,242,231,231,230,229,225,220,216,207,196,182,151,134,129,112,98,61],"timestamp_mouse":[16,36,56,76,96,116,135,155,175,195,216,235,257,275,295,315,336,355,377,397,415,437,456,475,495,516,537,557,576,595,617,635,657,676,695,716,737,755,776,797,817,835,857,876,896,916,936,956,976,995,1015,1035,1055,1076,1096,1115,1135,1156,1175,1196,1216,1236,1255,1276,1295,1315,1336,1355,1376,1396,1416,1436,1457,1475,1496,1515,1536,1556,1576,1595,1616,1635,1655,1675,1695,1716,1736,1755,1776,1796,1816,1836,1855,1875,1896,1915,1936,1956,1976,1996,2016,2036,2056,2075,2096,2115,2136,2156,2176,2195,2215,2235,2257,2275,2295,2316,2335,2355,2375,2395,2416,2435,2455,2475,2495,2515,2535,2556,2576,2595,2615,2636,2655,2676,2696,2715,2735,2755,2776,2796,2816,2835,2855,2875,2897,2916,2935,2955,2975,2995,3016,3036,3055,3075,3095,3115,3136,3155,3176,3196,3215,3236,3255,3276,3296,3316,3335,3355],"xSR":741.5,"ySR":470.6,"xT1":424.9,"yT1":0,"xT2":1058.1,"yT2":0,"toosoon":0,"cond_shown":"equaldotsize","ratio_trial":900,"smaller_num":"18","larger_num":"20","correct_side":2,"subjID":"AnaIsabelaOrtizLeón26","gender":"1","age":"11","school":"6"},{"start_time":1551791121255,"click_time":1551791122953,"finger_time":1551791122435,"fix_duration":1140.407724724795,"trial":21,"RT":1180,"MT":518,"sideResp":2,"stimulus":"img/500/equaldotsize/R/2_Ratio_500_L_3_R_6.png","xmouse":[775,775,775,775,775,775,775,775,775,775,775,775,775,775,775,775,775,775,775,775,775,775,775,775,775,775,775,775,775,775,775,775,775,775,775,775,775,775,775,775,775,775,775,775,775,775,775,775,775,775,775,775,775,775,776,799,816,834,854,878,899,903,909,915,922,938,948,955,963,973,983,995,1000,1006,1013,1031,1036,1045,1050,1060,1071,1076,1078,1082,1087],"ymouse":[536,536,536,536,536,536,536,536,536,536,536,536,536,536,536,536,536,536,536,536,536,536,536,536,536,536,536,536,536,536,536,536,536,536,536,536,536,536,536,536,536,536,536,536,536,536,536,536,536,536,536,536,536,535,532,521,512,503,493,481,460,452,440,428,415,380,361,342,321,300,270,240,229,216,204,178,170,157,148,133,117,110,107,100,91],"timestamp_mouse":[18,42,59,79,99,120,138,158,179,198,218,238,258,279,298,319,338,358,379,400,418,439,459,479,499,519,539,558,579,599,618,638,658,680,699,719,738,758,778,798,818,839,859,879,898,919,938,959,979,998,1018,1039,1058,1078,1100,1118,1138,1159,1180,1199,1218,1238,1258,1280,1299,1318,1339,1359,1379,1398,1418,1439,1459,1479,1498,1518,1539,1558,1578,1598,1618,1638,1659,1678,1698],"xSR":741.5,"ySR":470.6,"xT1":424.9,"yT1":0,"xT2":1058.1,"yT2":0,"toosoon":0,"cond_shown":"equaldotsize","ratio_trial":500,"smaller_num":"3","larger_num":"6","correct_side":2,"subjID":"AnaIsabelaOrtizLeón26","gender":"1","age":"11","school":"6"},{"start_time":1551791129492,"click_time":1551791131114,"finger_time":1551791130533,"fix_duration":496.82834337493597,"trial":22,"RT":1041,"MT":581,"sideResp":2,"stimulus":"img/250/equaldotsize/R/6_Ratio_250_L_6_R_24.png","xmouse":[788,788,788,788,788,788,788,788,788,786,786,785,785,785,784,783,783,782,782,782,781,780,779,779,778,777,777,777,777,777,777,777,777,777,777,777,777,777,777,777,777,777,777,777,777,780,783,783,784,785,786,788,790,795,802,822,835,847,862,877,890,907,916,922,928,935,941,951,966,983,1016,1029,1039,1047,1053,1069,1079,1088,1098,1107,1122,1127],"ymouse":[514,514,514,514,514,514,514,514,514,514,514,514,514,515,515,516,516,517,518,518,520,521,522,523,524,526,526,526,526,526,526,526,526,526,526,526,526,526,526,526,526,526,526,526,524,509,500,493,487,482,479,474,469,461,453,427,411,396,383,370,357,342,336,332,328,326,323,315,306,296,274,262,252,243,233,211,197,180,163,145,114,98],"timestamp_mouse":[9,21,47,61,81,101,121,142,161,181,201,222,242,262,282,302,321,342,362,382,401,421,441,463,482,501,521,541,561,582,603,622,641,661,682,701,722,742,761,782,801,822,841,861,882,901,921,941,962,982,1001,1021,1041,1062,1082,1101,1123,1142,1161,1182,1201,1222,1241,1263,1283,1302,1322,1341,1362,1381,1401,1422,1441,1463,1481,1502,1521,1542,1562,1582,1601,1622],"xSR":741.5,"ySR":470.6,"xT1":424.9,"yT1":0,"xT2":1058.1,"yT2":0,"toosoon":0,"cond_shown":"equaldotsize","ratio_trial":250,"smaller_num":"6","larger_num":"24","correct_side":2,"subjID":"AnaIsabelaOrtizLeón26","gender":"1","age":"11","school":"6"},{"start_time":1551791146805,"click_time":1551791148334,"finger_time":1551791147833,"fix_duration":250,"trial":23,"RT":1028,"MT":501,"sideResp":1,"stimulus":"img/750/equaldotanddens/L/1_Ratio_750_L_20_R_15.png","xmouse":[817,816,816,811,809,808,807,805,804,803,802,802,802,802,802,802,802,802,802,802,802,802,802,802,802,802,801,799,799,799,799,798,798,798,798,798,798,798,798,798,798,798,798,798,798,796,793,788,782,776,769,750,744,738,732,725,715,713,710,705,702,692,667,650,629,609,588,531,504,479,470,459,456,452,448,444,441],"ymouse":[538,538,538,537,536,536,536,535,535,535,535,535,535,535,535,535,535,535,535,535,535,535,535,535,535,535,534,534,533,533,533,533,533,533,533,533,533,533,533,533,533,533,533,533,533,531,522,514,502,492,477,440,422,406,391,377,358,354,347,340,335,321,304,295,283,272,263,247,239,228,221,203,194,180,165,143,90],"timestamp_mouse":[9,46,50,69,88,109,129,148,169,189,209,229,250,268,289,309,328,349,368,389,409,429,448,469,488,510,530,548,568,590,608,628,648,669,688,708,729,749,769,790,809,829,849,868,889,909,928,948,968,988,1010,1028,1049,1068,1089,1109,1129,1149,1168,1188,1208,1228,1248,1268,1290,1308,1328,1349,1370,1390,1408,1428,1449,1468,1489,1510,1529],"xSR":741.5,"ySR":470.6,"xT1":424.9,"yT1":0,"xT2":1058.1,"yT2":0,"toosoon":0,"cond_shown":"equaldotanddens","ratio_trial":750,"smaller_num":"15","larger_num":"20","correct_side":1,"subjID":"AnaIsabelaOrtizLeón26","gender":"1","age":"11","school":"6"},{"start_time":1551791150585,"click_time":1551791152554,"finger_time":1551791151393,"fix_duration":250,"trial":24,"RT":808,"MT":1161,"sideResp":1,"stimulus":"img/900/equaldotsize/R/9_Ratio_900_L_18_R_20.png","xmouse":[772,772,773,773,773,773,773,773,773,773,773,773,773,773,773,773,773,773,773,773,773,773,773,773,773,773,773,773,773,773,773,773,773,773,773,775,778,786,793,816,842,879,953,986,1011,1030,1043,1060,1064,1064,1064,1064,1064,1064,1064,1064,1064,1064,1060,1052,1032,1013,993,954,936,924,914,911,904,900,897,892,855,831,799,765,733,704,656,631,610,594,579,556,543,530,519,511,501,499,499,499,499,499,498,498,498,498,497],"ymouse":[515,515,515,515,515,515,515,515,515,515,515,515,515,515,515,515,515,515,515,515,515,515,515,515,515,515,515,515,515,515,515,515,515,515,515,515,514,509,502,488,472,453,408,386,365,348,330,306,298,297,297,297,297,297,297,297,297,299,305,314,336,352,369,402,415,423,428,429,431,431,430,427,405,391,373,354,335,319,297,288,278,268,255,221,197,173,153,140,120,117,117,117,117,116,114,110,108,104,98],"timestamp_mouse":[11,34,49,70,88,108,128,148,168,188,209,228,248,269,288,308,328,348,369,388,408,428,448,469,488,510,528,548,569,589,610,628,648,670,688,709,728,749,769,788,808,829,849,868,888,908,928,949,968,988,1008,1029,1050,1068,1089,1109,1128,1149,1170,1188,1208,1229,1248,1268,1288,1310,1328,1349,1368,1389,1409,1428,1449,1468,1489,1509,1528,1549,1569,1589,1608,1628,1648,1669,1689,1709,1729,1748,1769,1789,1809,1828,1849,1869,1888,1908,1929,1948,1969],"xSR":741.5,"ySR":470.6,"xT1":424.9,"yT1":0,"xT2":1058.1,"yT2":0,"toosoon":0,"cond_shown":"equaldotsize","ratio_trial":900,"smaller_num":"18","larger_num":"20","correct_side":2,"subjID":"AnaIsabelaOrtizLeón26","gender":"1","age":"11","school":"6"},{"start_time":1551791154771,"click_time":1551791156333,"finger_time":1551791155573,"fix_duration":756.297773273746,"trial":25,"RT":802,"MT":760,"sideResp":2,"stimulus":"img/500/equaldotanddens/R/14_Ratio_500_L_5_R_10.png","xmouse":[804,804,804,804,803,802,801,800,800,800,800,800,800,800,800,800,800,800,800,800,800,798,797,796,796,796,796,796,796,796,796,796,796,796,796,796,796,796,796,796,797,799,800,802,802,803,804,807,812,844,864,888,909,928,950,959,965,971,977,996,1003,1007,1012,1016,1023,1025,1026,1026,1026,1028,1034,1041,1050,1056,1071,1077,1081,1085,1088],"ymouse":[520,520,520,520,520,520,519,518,517,517,517,517,517,517,517,517,517,517,517,517,516,513,511,510,510,510,510,510,510,510,510,510,510,510,510,510,510,508,505,482,464,449,437,431,429,427,424,419,410,376,358,336,315,296,264,249,236,220,206,168,157,147,140,134,124,122,121,121,121,121,120,120,118,116,109,106,103,100,95],"timestamp_mouse":[12,38,43,63,82,103,123,143,163,182,203,222,243,262,282,302,324,344,362,382,402,422,442,462,482,502,524,542,563,582,602,623,643,663,683,702,722,742,764,782,802,822,842,863,882,902,923,943,963,982,1002,1022,1042,1063,1083,1102,1123,1142,1163,1182,1202,1223,1242,1263,1282,1302,1322,1344,1362,1383,1403,1423,1442,1463,1482,1502,1523,1542,1562],"xSR":741.5,"ySR":470.6,"xT1":424.9,"yT1":0,"xT2":1058.1,"yT2":0,"toosoon":0,"cond_shown":"equaldotanddens","ratio_trial":500,"smaller_num":"5","larger_num":"10","correct_side":2,"subjID":"AnaIsabelaOrtizLeón26","gender":"1","age":"11","school":"6"},{"start_time":1551791163109,"click_time":1551791164674,"finger_time":1551791163893,"fix_duration":453.8815930654444,"trial":26,"RT":784,"MT":781,"sideResp":2,"stimulus":"img/250/equaldotsize/R/9_Ratio_250_L_3_R_12.png","xmouse":[806,806,806,806,806,806,806,806,805,805,805,805,805,805,805,805,805,805,805,805,805,805,805,805,805,805,805,805,805,805,805,805,805,805,805,806,806,809,826,851,872,892,910,954,975,997,1017,1028,1045,1047,1049,1050,1052,1054,1054,1057,1060,1066,1079,1082,1083,1083,1083,1082,1081,1081,1081,1081,1080,1079,1079,1077,1077,1072,1070,1069,1069,1069,1069],"ymouse":[532,530,528,527,526,526,526,525,524,523,522,522,521,521,521,521,520,520,518,518,518,518,518,518,518,518,518,518,517,517,517,517,517,517,516,515,514,510,498,487,478,468,458,430,412,394,376,361,341,338,336,334,331,328,327,321,312,298,253,232,208,199,191,184,183,180,178,176,168,162,155,139,135,114,106,104,103,101,98],"timestamp_mouse":[8,26,44,64,85,105,124,144,165,185,204,224,244,264,284,305,325,344,364,385,405,425,444,464,485,504,524,544,564,585,606,624,644,666,684,704,724,745,764,784,805,824,845,864,884,904,924,945,964,985,1004,1024,1044,1064,1085,1104,1124,1145,1166,1185,1204,1224,1244,1264,1285,1305,1324,1344,1364,1384,1405,1426,1445,1464,1486,1505,1526,1545,1564],"xSR":741.5,"ySR":470.6,"xT1":424.9,"yT1":0,"xT2":1058.1,"yT2":0,"toosoon":0,"cond_shown":"equaldotsize","ratio_trial":250,"smaller_num":"3","larger_num":"12","correct_side":2,"subjID":"AnaIsabelaOrtizLeón26","gender":"1","age":"11","school":"6"},{"start_time":1551791168701,"click_time":1551791170294,"finger_time":1551791169593,"fix_duration":1425.772591862837,"trial":27,"RT":892,"MT":701,"sideResp":1,"stimulus":"img/500/equaldotsize/L/11_Ratio_500_L_12_R_6.png","xmouse":[784,784,784,784,784,784,784,784,784,784,783,783,782,782,782,782,782,782,782,782,782,782,782,782,782,782,782,782,782,782,782,782,782,782,782,781,780,779,776,775,774,772,771,770,747,737,724,715,706,697,694,690,687,682,679,673,666,660,646,640,635,627,620,610,601,595,590,584,578,576,574,574,574,571,567,557,550,541,526,518],"ymouse":[519,519,519,519,519,519,519,519,519,519,519,519,519,518,518,518,518,518,518,518,518,518,518,518,518,518,518,518,518,518,518,518,518,518,518,517,514,511,504,500,496,487,479,473,442,429,413,401,391,378,374,369,365,358,353,345,331,317,285,268,251,233,211,166,135,116,96,81,65,62,60,60,60,60,60,58,57,56,54,54],"timestamp_mouse":[14,39,53,72,93,112,133,153,172,192,213,232,252,272,292,312,333,352,372,393,413,433,453,474,493,513,532,553,573,593,612,633,652,674,693,713,732,753,773,792,813,832,853,873,892,913,933,953,972,992,1012,1033,1052,1073,1092,1112,1132,1153,1174,1192,1213,1233,1252,1273,1292,1313,1332,1352,1374,1393,1412,1433,1452,1474,1492,1512,1532,1552,1573,1593],"xSR":741.5,"ySR":470.6,"xT1":424.9,"yT1":0,"xT2":1058.1,"yT2":0,"toosoon":0,"cond_shown":"equaldotsize","ratio_trial":500,"smaller_num":"6","larger_num":"12","correct_side":1,"subjID":"AnaIsabelaOrtizLeón26","gender":"1","age":"11","school":"6"},{"start_time":1551791173588,"click_time":1551791175173,"finger_time":1551791174394,"fix_duration":492.22986363129263,"trial":28,"RT":806,"MT":779,"sideResp":2,"stimulus":"img/750/equaldotanddens/R/15_Ratio_750_L_9_R_12.png","xmouse":[791,791,791,791,791,791,791,791,791,791,791,791,791,791,791,791,791,791,791,791,791,791,791,791,791,791,791,791,791,791,791,791,791,791,791,791,791,792,799,810,847,862,874,889,900,923,937,951,962,972,992,999,1007,1012,1016,1030,1038,1046,1054,1062,1076,1080,1084,1087,1088,1089,1089,1089,1090,1090,1091,1092,1092,1092,1093,1094,1096,1097,1098,1099],"ymouse":[519,519,519,519,519,519,519,519,519,519,519,519,519,519,519,519,519,519,519,519,519,519,519,519,519,519,519,519,519,519,519,519,519,519,519,519,518,517,514,509,489,477,465,448,431,398,382,367,355,343,317,305,291,282,273,250,238,223,206,189,155,145,136,129,125,121,121,121,120,120,117,116,115,114,113,109,106,104,101,98],"timestamp_mouse":[9,34,46,66,85,105,127,145,165,185,207,226,246,266,286,306,325,346,367,385,405,426,447,465,487,505,526,545,565,586,607,625,647,667,686,705,726,745,765,786,806,826,845,865,885,905,926,946,965,986,1005,1025,1045,1065,1085,1105,1126,1145,1165,1186,1206,1227,1246,1265,1286,1306,1325,1345,1365,1386,1406,1426,1446,1466,1485,1506,1525,1546,1566,1585],"xSR":741.5,"ySR":470.6,"xT1":424.9,"yT1":0,"xT2":1058.1,"yT2":0,"toosoon":0,"cond_shown":"equaldotanddens","ratio_trial":750,"smaller_num":"9","larger_num":"12","correct_side":2,"subjID":"AnaIsabelaOrtizLeón26","gender":"1","age":"11","school":"6"},{"start_time":1551791177641,"click_time":1551791179814,"finger_time":1551791178914,"fix_duration":544.6765392268192,"trial":29,"RT":1273,"MT":900,"sideResp":2,"stimulus":"img/500/randomdotsizeEA/R/14_Ratio_500_L_5_R_10.png","xmouse":[817,817,817,817,817,817,817,817,817,817,817,817,817,817,817,817,817,817,817,817,817,817,817,817,817,817,817,817,817,817,817,817,817,816,815,814,813,811,810,810,808,807,805,805,804,804,804,804,804,804,804,804,804,804,804,804,804,804,804,803,803,802,802,801,801,801,801,801,801,801,801,801,801,801,801,801,801,801,804,810,816,822,828,837,845,852,858,866,887,897,909,926,939,977,1008,1022,1035,1046,1059,1061,1061,1061,1061,1066,1080,1093,1108,1123,1147],"ymouse":[509,509,509,509,509,509,509,509,509,509,509,509,509,509,509,509,509,509,509,509,509,509,509,509,509,509,509,509,509,509,509,509,509,508,506,506,505,502,501,499,498,497,494,493,492,490,490,490,490,490,489,489,488,485,484,482,481,480,478,477,476,475,473,469,466,466,465,465,465,465,465,465,465,465,465,465,465,463,454,446,437,430,423,411,398,387,379,367,337,328,316,294,281,250,219,209,197,190,181,180,180,180,180,176,167,159,147,133,97],"timestamp_mouse":[13,33,53,73,92,113,133,153,172,193,213,234,253,272,294,312,332,353,372,392,414,434,453,472,492,513,534,552,573,592,613,633,653,673,692,713,733,753,773,793,813,833,854,872,892,912,932,952,973,992,1012,1033,1052,1072,1093,1112,1133,1152,1173,1193,1213,1233,1253,1273,1293,1312,1333,1352,1372,1393,1412,1432,1453,1472,1493,1513,1532,1552,1572,1592,1614,1633,1652,1672,1692,1712,1732,1752,1772,1792,1814,1833,1853,1873,1892,1912,1933,1952,1972,1992,2014,2033,2052,2072,2092,2112,2132,2153,2172],"xSR":741.5,"ySR":470.6,"xT1":424.9,"yT1":0,"xT2":1058.1,"yT2":0,"toosoon":0,"cond_shown":"randomdotsizeEA","ratio_trial":500,"smaller_num":"5","larger_num":"10","correct_side":2,"subjID":"AnaIsabelaOrtizLeón26","gender":"1","age":"11","school":"6"},{"start_time":1551791214230,"click_time":1551791215993,"finger_time":1551791215474,"fix_duration":1474.4977266418393,"trial":30,"RT":1244,"MT":519,"sideResp":1,"stimulus":"img/500/randomdotsizeEA/L/5_Ratio_500_L_4_R_2.png","xmouse":[802,802,802,802,802,802,802,802,802,802,802,802,802,802,802,802,802,802,802,802,802,802,802,802,802,802,802,802,802,802,802,802,802,802,802,802,802,802,802,802,802,802,802,802,802,802,802,802,802,802,802,802,802,802,803,803,798,794,788,786,783,781,775,762,755,745,736,726,699,687,679,670,661,646,642,638,637,636,631,626,620,614,606,580,567,551,535,517,473],"ymouse":[520,520,520,520,520,520,520,520,520,520,520,520,520,520,520,520,520,520,520,520,520,520,520,520,520,520,520,520,520,520,520,520,520,520,520,520,520,520,520,520,520,520,520,520,520,520,520,520,520,520,520,520,520,520,519,514,506,500,490,485,481,473,460,426,408,386,364,342,282,259,238,219,202,186,182,180,179,178,176,174,171,167,160,143,135,125,117,106,83],"timestamp_mouse":[9,23,43,63,84,103,124,144,164,183,204,224,244,263,283,303,324,344,364,384,403,423,443,463,484,504,523,543,564,584,603,623,643,664,684,703,724,743,764,784,804,824,844,864,883,904,924,943,964,983,1004,1024,1043,1063,1083,1103,1123,1143,1163,1184,1204,1223,1244,1264,1284,1303,1323,1344,1363,1383,1403,1423,1443,1463,1484,1503,1523,1543,1563,1584,1603,1623,1643,1663,1684,1703,1723,1743,1763],"xSR":741.5,"ySR":470.6,"xT1":424.9,"yT1":0,"xT2":1058.1,"yT2":0,"toosoon":0,"cond_shown":"randomdotsizeEA","ratio_trial":500,"smaller_num":"2","larger_num":"4","correct_side":1,"subjID":"AnaIsabelaOrtizLeón26","gender":"1","age":"11","school":"6"},{"start_time":1551791225853,"click_time":1551791227414,"finger_time":1551791226854,"fix_duration":299.6505939750874,"trial":31,"RT":1001,"MT":560,"sideResp":2,"stimulus":"img/250/randomdotsizeEA/R/4_Ratio_250_L_3_R_12.png","xmouse":[801,801,801,801,801,801,801,801,801,801,801,801,801,801,801,801,801,801,801,801,801,801,801,801,801,802,802,802,802,802,802,802,802,802,802,802,802,802,802,802,802,802,802,802,806,809,814,822,834,841,848,853,861,873,880,887,893,901,914,922,926,934,941,960,969,978,984,988,999,1002,1006,1014,1021,1038,1068,1082,1096,1107,1116],"ymouse":[535,535,535,535,535,535,535,535,535,535,535,535,535,535,535,535,535,535,535,535,535,535,535,535,533,533,533,533,533,533,533,533,533,533,533,533,533,533,533,533,533,533,533,532,528,525,521,515,504,498,492,486,476,454,441,426,406,387,357,344,337,326,317,282,267,255,247,240,225,220,214,205,195,174,143,129,114,102,92],"timestamp_mouse":[2,20,43,61,80,101,121,140,161,181,200,221,241,261,280,300,320,340,360,380,401,420,440,460,480,501,521,540,560,580,600,621,640,660,680,700,721,740,761,780,800,820,840,860,880,900,921,940,960,981,1001,1020,1040,1060,1080,1100,1121,1141,1160,1180,1200,1221,1240,1260,1280,1301,1320,1341,1360,1380,1401,1420,1440,1460,1480,1500,1520,1540,1561],"xSR":741.5,"ySR":470.6,"xT1":424.9,"yT1":0,"xT2":1058.1,"yT2":0,"toosoon":0,"cond_shown":"randomdotsizeEA","ratio_trial":250,"smaller_num":"3","larger_num":"12","correct_side":2,"subjID":"AnaIsabelaOrtizLeón26","gender":"1","age":"11","school":"6"},{"start_time":1551791230214,"click_time":1551791231994,"finger_time":1551791231213,"fix_duration":1200.3133923469334,"trial":32,"RT":999,"MT":781,"sideResp":1,"stimulus":"img/750/equaldotsize/L/13_Ratio_750_L_8_R_6.png","xmouse":[772,772,772,772,772,772,772,772,772,772,772,772,772,772,772,772,772,772,772,772,772,772,772,772,772,772,772,772,772,772,772,772,772,772,772,772,772,772,772,772,772,772,772,772,772,772,771,769,764,760,740,726,718,712,704,690,680,668,657,649,631,626,621,615,608,599,599,599,599,599,599,598,598,598,597,579,564,549,537,529,527,527,527,527,527,527,527,526,524],"ymouse":[495,494,494,494,494,494,494,494,494,494,494,494,494,494,494,494,494,494,494,494,494,494,494,494,494,494,494,494,494,494,494,494,494,494,494,494,494,494,494,494,494,494,494,494,494,494,493,488,472,458,413,384,367,352,333,292,271,250,231,211,161,145,127,107,88,67,65,65,65,65,65,64,64,64,64,67,69,69,69,69,69,69,69,69,69,69,69,69,69],"timestamp_mouse":[25,39,63,80,100,120,139,159,179,200,220,239,259,279,300,319,339,360,379,399,420,439,459,479,500,520,540,560,580,600,619,640,660,680,699,719,739,760,779,799,820,839,861,880,901,920,939,960,979,999,1019,1039,1059,1079,1100,1119,1139,1160,1179,1199,1219,1239,1259,1279,1299,1319,1339,1360,1379,1400,1419,1439,1459,1479,1500,1519,1539,1559,1579,1599,1619,1639,1660,1680,1700,1720,1739,1760,1780],"xSR":741.5,"ySR":470.6,"xT1":424.9,"yT1":0,"xT2":1058.1,"yT2":0,"toosoon":0,"cond_shown":"equaldotsize","ratio_trial":750,"smaller_num":"6","larger_num":"8","correct_side":1,"subjID":"AnaIsabelaOrtizLeón26","gender":"1","age":"11","school":"6"},{"start_time":1551791234412,"click_time":1551791235914,"finger_time":1551791235213,"fix_duration":797.0599773888623,"trial":33,"RT":801,"MT":701,"sideResp":2,"stimulus":"img/250/equaldotanddens/R/10_Ratio_250_L_4_R_16.png","xmouse":[803,803,803,803,803,803,803,803,803,803,803,803,803,803,803,803,803,803,803,803,803,803,803,803,803,803,803,803,803,803,803,803,803,803,803,803,805,810,820,836,852,896,915,929,937,943,949,952,954,958,962,969,971,974,978,982,991,995,999,1006,1019,1036,1043,1053,1058,1063,1077,1081,1084,1087,1090,1099,1103,1106,1110,1112],"ymouse":[537,537,537,537,537,537,537,537,537,537,537,537,537,537,537,537,537,537,537,537,537,537,537,537,537,537,537,537,537,537,537,537,537,537,537,537,535,532,529,520,510,486,473,458,443,428,399,384,370,349,335,311,298,287,276,264,246,234,224,213,197,179,173,165,161,157,148,144,141,138,135,120,114,109,100,96],"timestamp_mouse":[9,21,41,61,82,102,121,141,161,181,202,221,241,261,281,300,322,341,361,382,402,421,441,462,482,501,521,542,561,581,601,621,641,661,682,701,721,742,761,782,801,821,842,861,881,902,922,941,962,982,1001,1021,1041,1061,1082,1102,1122,1141,1161,1181,1201,1221,1241,1262,1282,1302,1321,1341,1361,1381,1401,1421,1441,1461,1481,1502],"xSR":741.5,"ySR":470.6,"xT1":424.9,"yT1":0,"xT2":1058.1,"yT2":0,"toosoon":0,"cond_shown":"equaldotanddens","ratio_trial":250,"smaller_num":"4","larger_num":"16","correct_side":2,"subjID":"AnaIsabelaOrtizLeón26","gender":"1","age":"11","school":"6"},{"start_time":1551791238200,"click_time":1551791240135,"finger_time":1551791239754,"fix_duration":885.4500938751254,"trial":34,"RT":1554,"MT":381,"sideResp":2,"stimulus":"img/750/randomdotsizeEA/R/12_Ratio_750_L_3_R_4.png","xmouse":[807,807,807,807,807,807,807,807,807,807,807,807,807,807,807,807,807,807,807,807,807,807,807,807,807,807,807,807,807,807,807,807,807,807,807,807,807,807,807,807,807,807,807,807,807,807,807,807,807,807,807,807,807,807,807,807,807,807,807,807,807,807,807,807,807,807,807,808,808,809,809,809,810,813,817,825,837,873,901,923,943,962,992,1003,1011,1020,1032,1041,1043,1047,1048,1051,1053,1055,1056,1058,1061],"ymouse":[536,536,536,536,536,536,536,536,536,536,536,536,536,536,536,536,536,536,536,536,536,536,536,536,536,536,536,536,536,536,536,536,536,536,536,536,536,536,536,536,536,536,536,536,536,536,536,535,535,535,535,535,535,535,535,535,535,535,535,535,535,535,535,535,535,535,535,535,535,534,534,534,533,530,525,517,502,465,434,416,398,379,335,315,295,274,234,201,182,165,147,131,107,97,93,89,87],"timestamp_mouse":[13,33,53,74,94,113,136,154,173,193,213,233,253,274,293,313,334,353,374,393,413,433,453,473,493,514,533,553,574,593,614,633,653,674,694,713,734,754,774,793,814,834,854,874,893,914,933,954,973,994,1014,1034,1054,1074,1094,1113,1134,1154,1173,1194,1214,1234,1253,1274,1293,1313,1334,1354,1373,1393,1414,1433,1453,1473,1493,1513,1533,1554,1573,1595,1613,1634,1653,1674,1693,1713,1734,1753,1774,1793,1814,1834,1854,1874,1894,1913,1934],"xSR":741.5,"ySR":470.6,"xT1":424.9,"yT1":0,"xT2":1058.1,"yT2":0,"toosoon":0,"cond_shown":"randomdotsizeEA","ratio_trial":750,"smaller_num":"3","larger_num":"4","correct_side":2,"subjID":"AnaIsabelaOrtizLeón26","gender":"1","age":"11","school":"6"},{"start_time":1551791242160,"click_time":1551791243034,"finger_time":1551791242834,"fix_duration":724.8613345154257,"trial":35,"RT":674,"MT":200,"sideResp":2,"stimulus":"img/250/equaldotsize/R/6_Ratio_250_L_6_R_24.png","xmouse":[797,797,797,797,797,797,797,797,797,797,797,797,797,797,797,797,797,797,797,797,797,797,797,797,797,797,797,797,797,797,802,814,832,860,926,960,990,1020,1029,1058,1068,1077,1084,1093],"ymouse":[509,509,509,509,509,509,509,509,509,509,509,509,509,509,509,509,509,509,509,509,509,509,509,509,509,509,509,509,509,509,509,502,490,461,359,302,259,214,201,154,137,121,108,97],"timestamp_mouse":[14,40,54,73,94,113,133,153,173,193,214,233,253,273,293,314,333,353,373,394,413,433,453,473,493,513,533,554,574,594,613,633,653,674,693,713,734,753,773,793,813,833,854,874],"xSR":741.5,"ySR":470.6,"xT1":424.9,"yT1":0,"xT2":1058.1,"yT2":0,"toosoon":0,"cond_shown":"equaldotsize","ratio_trial":250,"smaller_num":"6","larger_num":"24","correct_side":2,"subjID":"AnaIsabelaOrtizLeón26","gender":"1","age":"11","school":"6"},{"start_time":1551791245282,"click_time":1551791246673,"finger_time":1551791246213,"fix_duration":968.8395182193228,"trial":36,"RT":931,"MT":460,"sideResp":2,"stimulus":"img/500/equaldotanddens/R/9_Ratio_500_L_2_R_4.png","xmouse":[811,811,811,811,811,811,811,811,811,811,811,811,811,811,811,811,811,811,811,811,811,811,811,811,811,811,811,811,811,811,811,811,811,811,811,811,811,811,811,811,811,811,811,811,813,822,835,852,872,914,920,931,946,956,977,987,999,1017,1031,1061,1076,1101,1115,1134,1139,1144,1147,1149,1150,1150],"ymouse":[486,486,486,486,486,486,486,486,486,486,486,486,486,486,486,486,486,486,486,486,486,486,486,486,486,486,486,486,486,486,486,486,486,486,486,486,486,485,485,485,485,485,485,484,481,474,463,451,439,400,391,374,348,336,319,312,302,291,281,260,247,223,202,164,149,135,126,118,111,98],"timestamp_mouse":[12,34,52,71,93,112,132,151,171,191,211,231,251,271,292,312,331,351,372,391,411,431,452,471,492,511,532,553,571,591,611,631,652,671,691,713,731,751,771,793,811,833,851,872,892,911,931,951,971,991,1011,1031,1051,1072,1091,1111,1131,1151,1172,1191,1211,1232,1252,1272,1291,1311,1331,1351,1372,1391],"xSR":741.5,"ySR":470.6,"xT1":424.9,"yT1":0,"xT2":1058.1,"yT2":0,"toosoon":0,"cond_shown":"equaldotanddens","ratio_trial":500,"smaller_num":"2","larger_num":"4","correct_side":2,"subjID":"AnaIsabelaOrtizLeón26","gender":"1","age":"11","school":"6"},{"start_time":1551791249690,"click_time":1551791250753,"finger_time":1551791250573,"fix_duration":1176.2473739180432,"trial":37,"RT":883,"MT":180,"sideResp":1,"stimulus":"img/750/equaldotanddens/L/10_Ratio_750_L_4_R_3.png","xmouse":[772,772,772,772,772,772,772,772,772,772,772,772,773,776,777,777,777,777,777,778,778,778,778,778,778,778,778,780,781,782,782,782,782,782,782,782,782,782,782,782,782,782,782,781,743,709,677,643,595,559,543,532,523,515],"ymouse":[565,567,567,567,567,567,567,567,567,567,567,565,563,559,554,554,554,553,552,544,541,540,539,537,534,532,530,527,522,518,517,517,517,517,517,517,517,517,517,517,517,517,510,501,439,392,348,301,230,166,145,128,112,98],"timestamp_mouse":[3,40,43,63,83,103,123,143,163,183,203,223,244,264,284,303,323,344,363,384,403,423,443,464,483,504,524,543,564,584,603,623,643,663,683,704,723,743,763,783,804,824,844,863,883,904,923,943,964,983,1004,1024,1044,1063],"xSR":741.5,"ySR":470.6,"xT1":424.9,"yT1":0,"xT2":1058.1,"yT2":0,"toosoon":0,"cond_shown":"equaldotanddens","ratio_trial":750,"smaller_num":"3","larger_num":"4","correct_side":1,"subjID":"AnaIsabelaOrtizLeón26","gender":"1","age":"11","school":"6"},{"start_time":1551791253116,"click_time":1551791254854,"finger_time":1551791254233,"fix_duration":481.4422576215236,"trial":38,"RT":1117,"MT":621,"sideResp":2,"stimulus":"img/250/randomdotsizeEA/R/12_Ratio_250_L_5_R_20.png","xmouse":[811,811,811,811,811,811,811,811,811,811,811,811,811,811,811,811,811,811,811,811,811,811,811,811,811,811,811,811,811,811,811,811,811,811,811,811,811,811,811,811,811,811,811,811,811,811,811,810,810,810,810,811,818,824,829,836,843,859,869,882,895,907,934,947,965,977,993,1009,1047,1065,1083,1099,1118,1123,1124,1125,1126,1126,1126,1126,1126,1126,1126,1125,1123,1120,1118],"ymouse":[545,545,545,545,545,545,545,545,545,545,545,545,545,545,545,545,545,545,545,545,545,545,545,545,545,545,545,545,545,545,545,545,545,545,545,545,545,545,545,545,545,545,545,545,545,545,545,540,536,533,529,522,503,491,482,467,455,429,414,397,378,364,335,324,307,298,288,279,257,248,238,222,184,168,153,143,140,138,137,135,133,131,127,116,112,105,95],"timestamp_mouse":[17,38,57,77,98,118,137,157,178,199,217,238,257,278,297,317,338,357,378,398,417,437,457,478,498,517,537,557,577,597,617,637,657,678,698,717,737,757,777,799,817,837,857,877,897,917,937,958,977,997,1018,1037,1057,1078,1098,1117,1137,1157,1177,1197,1217,1237,1259,1277,1297,1317,1337,1358,1377,1397,1417,1437,1457,1476,1497,1517,1537,1558,1577,1597,1617,1638,1657,1678,1697,1719,1738],"xSR":741.5,"ySR":470.6,"xT1":424.9,"yT1":0,"xT2":1058.1,"yT2":0,"toosoon":0,"cond_shown":"randomdotsizeEA","ratio_trial":250,"smaller_num":"5","larger_num":"20","correct_side":2,"subjID":"AnaIsabelaOrtizLeón26","gender":"1","age":"11","school":"6"},{"start_time":1551791264223,"click_time":1551791265793,"finger_time":1551791265133,"fix_duration":348.11671964999044,"trial":39,"RT":910,"MT":660,"sideResp":1,"stimulus":"img/900/equaldotanddens/R/11_Ratio_900_L_18_R_20.png","xmouse":[807,807,807,807,807,807,807,807,806,806,806,806,805,805,805,805,805,805,805,805,805,805,805,805,805,805,805,805,805,805,805,805,805,805,805,805,805,805,805,805,803,802,800,797,783,764,752,728,703,644,612,591,572,562,550,550,550,550,550,550,550,550,550,550,550,550,550,550,550,550,550,550,550,550,550,550,550,550,486],"ymouse":[528,527,527,527,527,527,527,527,527,527,527,527,527,527,527,527,527,527,527,527,527,527,527,527,527,527,527,527,527,527,527,526,526,526,526,526,526,526,526,524,520,518,513,506,475,446,423,380,324,199,143,99,60,33,0,0,0,0,0,0,0,0,0,0,0,0,0,0,0,0,0,0,0,0,0,0,0,0,2],"timestamp_mouse":[10,30,50,71,90,110,131,151,170,191,210,230,250,271,290,310,331,350,370,392,410,430,450,470,491,511,531,551,571,590,611,631,650,670,690,711,731,750,770,790,810,831,850,870,890,910,930,951,970,990,1010,1030,1050,1070,1090,1110,1131,1150,1172,1191,1210,1230,1251,1270,1291,1310,1331,1351,1371,1391,1410,1431,1451,1471,1490,1510,1531,1550,1570],"xSR":741.5,"ySR":470.6,"xT1":424.9,"yT1":0,"xT2":1058.1,"yT2":0,"toosoon":0,"cond_shown":"equaldotanddens","ratio_trial":900,"smaller_num":"18","larger_num":"20","correct_side":2,"subjID":"AnaIsabelaOrtizLeón26","gender":"1","age":"11","school":"6"},{"start_time":1551791288829,"click_time":1551791291614,"finger_time":1551791290093,"fix_duration":1154.9624843906877,"trial":40,"RT":1264,"MT":1521,"sideResp":1,"stimulus":"img/500/randomdotsizeEA/L/11_Ratio_500_L_12_R_6.png","xmouse":[757,757,757,757,757,757,757,757,757,757,757,757,757,757,757,757,757,757,757,757,757,757,757,757,757,757,757,757,757,757,757,757,757,757,757,757,757,757,757,757,757,757,757,757,757,757,757,757,757,757,757,757,757,757,757,757,757,756,754,754,753,752,749,749,746,744,742,740,738,736,734,732,729,725,721,713,700,668,654,643,637,630,613,607,601,597,591,587,587,587,587,587,587,587,587,587,587,587,587,587,587,587,587,587,587,587,587,587,587,587,587,586,585,583,583,583,582,580,580,580,580,580,580,580,580,578,576,573,570,567,565,563,556,548,546,544,541,534,527,519],"ymouse":[494,494,494,494,494,494,494,494,494,494,494,494,494,494,494,494,494,494,494,494,494,494,494,494,494,494,494,494,494,494,494,494,494,494,494,494,494,494,494,494,494,494,494,494,494,494,494,494,494,494,494,494,494,494,494,494,494,494,494,490,485,477,471,469,463,459,454,444,437,430,422,416,402,389,378,361,336,303,291,282,276,269,250,244,239,236,233,230,230,230,230,230,230,230,230,230,230,230,230,230,230,230,230,230,230,230,230,230,230,230,230,228,211,185,166,149,139,131,130,130,130,130,130,130,129,127,125,122,120,117,115,114,108,102,100,99,97,92,88,84],"timestamp_mouse":[10,24,48,64,84,105,124,146,164,184,204,225,244,266,284,304,324,346,365,385,406,426,445,465,484,504,525,544,565,584,604,625,646,665,684,704,724,744,765,785,804,824,844,864,884,905,925,945,965,984,1004,1025,1046,1065,1085,1105,1125,1144,1165,1186,1205,1225,1244,1264,1285,1305,1326,1345,1366,1385,1405,1425,1445,1465,1485,1505,1525,1546,1565,1584,1604,1624,1644,1666,1685,1706,1726,1745,1765,1786,1806,1825,1845,1865,1884,1905,1926,1946,1964,1984,2006,2025,2044,2064,2086,2104,2125,2144,2164,2185,2204,2226,2246,2265,2285,2305,2325,2344,2365,2384,2405,2425,2445,2464,2484,2504,2525,2544,2564,2585,2605,2625,2645,2664,2684,2705,2725,2746,2766,2785],"xSR":741.5,"ySR":470.6,"xT1":424.9,"yT1":0,"xT2":1058.1,"yT2":0,"toosoon":0,"cond_shown":"randomdotsizeEA","ratio_trial":500,"smaller_num":"6","larger_num":"12","correct_side":1,"subjID":"AnaIsabelaOrtizLeón26","gender":"1","age":"11","school":"6"},{"start_time":1551791299625,"click_time":1551791301015,"finger_time":1551791300433,"fix_duration":250,"trial":41,"RT":808,"MT":582,"sideResp":2,"stimulus":"img/750/randomdotsizeEA/R/3_Ratio_750_L_15_R_20.png","xmouse":[821,821,821,821,820,817,815,812,808,806,806,806,806,806,806,806,806,806,806,806,806,806,806,806,806,806,806,806,806,806,806,806,806,806,806,806,805,805,820,832,843,852,861,880,896,920,949,981,1052,1102,1123,1148,1170,1210,1227,1237,1242,1246,1249,1249,1249,1249,1249,1249,1248,1242,1228,1210,1166,1150],"ymouse":[534,534,534,533,532,532,531,530,530,530,530,530,530,530,530,530,530,530,530,530,530,530,530,530,530,530,530,530,530,530,530,530,530,530,530,530,529,527,508,495,480,468,453,420,396,363,321,277,205,168,150,129,109,64,46,35,27,22,17,17,17,17,17,17,17,19,25,30,43,47],"timestamp_mouse":[9,28,49,70,89,109,128,148,169,188,208,228,248,268,289,308,328,349,369,388,408,428,448,469,488,510,529,549,568,588,610,629,650,668,689,710,728,748,768,789,808,830,850,869,888,909,929,949,968,988,1009,1028,1049,1068,1090,1109,1128,1149,1168,1189,1209,1228,1248,1268,1288,1309,1329,1349,1368,1389],"xSR":741.5,"ySR":470.6,"xT1":424.9,"yT1":0,"xT2":1058.1,"yT2":0,"toosoon":0,"cond_shown":"randomdotsizeEA","ratio_trial":750,"smaller_num":"15","larger_num":"20","correct_side":2,"subjID":"AnaIsabelaOrtizLeón26","gender":"1","age":"11","school":"6"},{"start_time":1551791302346,"click_time":1551791303494,"finger_time":1551791303153,"fix_duration":250,"trial":42,"RT":807,"MT":341,"sideResp":1,"stimulus":"img/750/randomdotsizeEA/L/6_Ratio_750_L_24_R_18.png","xmouse":[773,773,773,773,773,773,773,773,773,773,773,773,773,773,773,773,773,773,773,773,773,773,773,773,773,773,773,773,773,773,773,773,773,773,773,773,773,771,769,757,742,722,678,658,646,638,633,627,623,617,605,592,580,580,578,571,556,508],"ymouse":[551,551,551,551,551,551,551,551,551,551,551,551,551,551,551,551,551,551,551,551,551,551,551,551,551,551,551,551,551,551,551,551,551,551,551,551,551,551,531,486,419,344,224,176,150,137,128,119,113,103,88,76,66,65,64,61,55,42],"timestamp_mouse":[9,37,47,67,88,107,129,147,168,189,207,227,248,268,289,307,328,347,367,389,407,427,449,468,487,508,529,549,568,587,608,627,648,667,689,707,727,748,769,788,807,827,847,869,888,907,928,947,967,988,1008,1028,1047,1067,1088,1108,1128,1148],"xSR":741.5,"ySR":470.6,"xT1":424.9,"yT1":0,"xT2":1058.1,"yT2":0,"toosoon":0,"cond_shown":"randomdotsizeEA","ratio_trial":750,"smaller_num":"18","larger_num":"24","correct_side":1,"subjID":"AnaIsabelaOrtizLeón26","gender":"1","age":"11","school":"6"},{"start_time":1551791305478,"click_time":1551791306713,"finger_time":1551791306295,"fix_duration":802.3991918344444,"trial":43,"RT":817,"MT":418,"sideResp":1,"stimulus":"img/500/equaldotsize/L/5_Ratio_500_L_4_R_2.png","xmouse":[762,762,762,762,762,762,762,762,762,762,762,762,762,762,762,762,762,762,762,762,762,762,762,762,762,762,762,762,762,762,762,762,762,762,762,762,762,762,756,753,743,714,686,669,650,627,618,610,602,602,602,602,602,602,602,602,602,602,602,602,602,515],"ymouse":[489,489,489,489,489,489,489,489,489,489,489,489,489,489,489,489,489,489,489,489,489,489,489,489,489,489,489,489,489,489,489,489,489,489,489,489,489,489,482,476,457,369,266,199,139,71,45,23,4,4,4,4,4,4,4,4,4,4,4,4,4,1],"timestamp_mouse":[16,36,56,76,95,115,137,155,175,197,215,237,255,275,297,316,336,356,376,395,417,436,456,476,497,515,536,556,576,596,615,635,655,676,695,716,735,756,775,796,817,836,856,875,896,916,935,957,975,996,1015,1035,1055,1075,1095,1117,1135,1156,1175,1195,1216,1235],"xSR":741.5,"ySR":470.6,"xT1":424.9,"yT1":0,"xT2":1058.1,"yT2":0,"toosoon":0,"cond_shown":"equaldotsize","ratio_trial":500,"smaller_num":"2","larger_num":"4","correct_side":1,"subjID":"AnaIsabelaOrtizLeón26","gender":"1","age":"11","school":"6"},{"start_time":1551791308271,"click_time":1551791309415,"finger_time":1551791309033,"fix_duration":395.7010900223471,"trial":44,"RT":762,"MT":382,"sideResp":1,"stimulus":"img/900/equaldotsize/L/10_Ratio_900_L_20_R_18.png","xmouse":[783,783,783,783,783,783,783,783,783,783,783,783,783,783,783,783,783,783,783,783,783,783,783,783,783,783,783,783,783,783,783,783,783,783,783,781,777,756,741,721,699,678,642,625,612,600,589,572,566,562,559,557,550,546,540,534,529,518],"ymouse":[516,516,516,516,516,516,516,516,516,516,516,516,516,516,516,516,516,516,516,516,516,516,516,516,516,516,516,516,516,516,516,516,516,516,516,515,510,477,455,427,395,367,302,271,248,224,203,168,157,147,143,137,124,119,111,103,95,80],"timestamp_mouse":[9,23,44,62,82,104,122,142,164,182,202,223,242,262,282,302,324,343,362,383,402,423,442,463,483,502,522,543,563,582,603,623,642,664,682,704,723,742,762,784,802,824,843,864,883,903,923,942,963,984,1003,1023,1042,1063,1082,1102,1123,1144],"xSR":741.5,"ySR":470.6,"xT1":424.9,"yT1":0,"xT2":1058.1,"yT2":0,"toosoon":0,"cond_shown":"equaldotsize","ratio_trial":900,"smaller_num":"18","larger_num":"20","correct_side":1,"subjID":"AnaIsabelaOrtizLeón26","gender":"1","age":"11","school":"6"},{"start_time":1551791310805,"click_time":1551791311754,"finger_time":1551791311454,"fix_duration":250,"trial":45,"RT":649,"MT":300,"sideResp":2,"stimulus":"img/500/equaldotsize/R/9_Ratio_500_L_2_R_4.png","xmouse":[814,814,814,814,814,814,814,814,814,814,814,814,814,812,812,812,812,812,812,812,811,811,811,811,811,811,811,811,811,811,822,836,850,864,887,940,966,985,1005,1023,1037,1065,1077,1086,1094,1112,1118,1123],"ymouse":[527,527,527,527,527,527,527,527,527,527,527,527,527,527,527,527,527,527,527,527,527,527,527,527,527,527,527,527,527,524,502,478,454,426,394,321,291,265,244,224,203,165,149,138,129,107,100,94],"timestamp_mouse":[9,40,49,68,88,109,130,148,169,189,209,228,249,269,290,308,328,350,368,388,408,429,449,469,489,509,530,549,569,589,608,629,649,668,688,708,729,748,768,788,809,830,849,869,888,908,929,949],"xSR":741.5,"ySR":470.6,"xT1":424.9,"yT1":0,"xT2":1058.1,"yT2":0,"toosoon":0,"cond_shown":"equaldotsize","ratio_trial":500,"smaller_num":"2","larger_num":"4","correct_side":2,"subjID":"AnaIsabelaOrtizLeón26","gender":"1","age":"11","school":"6"},{"start_time":1551791313987,"click_time":1551791315515,"finger_time":1551791314775,"fix_duration":1292.939814677845,"trial":46,"RT":788,"MT":740,"sideResp":1,"stimulus":"img/900/equaldotsize/L/2_Ratio_900_L_20_R_18.png","xmouse":[769,769,769,769,770,770,770,770,770,770,770,770,770,770,770,770,770,770,770,770,770,770,770,770,770,770,770,770,770,770,770,770,770,771,772,772,771,756,746,735,724,712,690,669,662,647,639,638,638,638,638,638,638,638,638,637,636,635,634,634,634,639,643,648,654,658,660,660,660,660,660,657,647,623,560,512,440],"ymouse":[540,540,540,540,539,539,539,539,539,539,539,539,539,539,539,539,539,539,539,539,539,539,539,539,539,539,539,539,539,539,539,539,539,538,536,534,528,509,502,493,485,475,453,420,408,373,345,343,342,342,342,342,342,342,342,342,342,342,343,344,349,365,373,383,392,401,404,404,404,404,404,394,371,322,207,130,33],"timestamp_mouse":[11,27,46,68,86,106,126,147,166,187,206,227,246,267,286,306,328,347,368,387,408,427,447,468,486,507,527,547,568,586,608,626,648,668,687,707,727,747,767,788,808,827,846,868,887,906,927,946,967,988,1007,1027,1047,1067,1086,1107,1128,1146,1167,1187,1206,1227,1246,1267,1288,1306,1327,1347,1367,1386,1406,1428,1446,1467,1488,1508,1528],"xSR":741.5,"ySR":470.6,"xT1":424.9,"yT1":0,"xT2":1058.1,"yT2":0,"toosoon":0,"cond_shown":"equaldotsize","ratio_trial":900,"smaller_num":"18","larger_num":"20","correct_side":1,"subjID":"AnaIsabelaOrtizLeón26","gender":"1","age":"11","school":"6"},{"start_time":1551791316805,"click_time":1551791318035,"finger_time":1551791317573,"fix_duration":250,"trial":47,"RT":768,"MT":462,"sideResp":1,"stimulus":"img/750/equaldotsize/L/1_Ratio_750_L_20_R_15.png","xmouse":[799,799,799,799,799,799,799,799,799,799,799,799,799,799,799,799,799,799,799,799,799,799,799,799,799,799,799,799,799,799,799,799,799,800,798,792,780,766,750,736,720,685,671,661,651,644,629,621,615,608,601,591,585,579,575,570,559,553,547,541,532,514],"ymouse":[527,527,527,527,527,527,527,527,527,527,527,527,527,527,527,527,527,527,527,527,527,527,527,527,527,527,527,527,527,527,527,527,527,527,522,513,495,479,458,438,417,366,346,328,310,294,259,239,222,207,191,170,159,150,143,134,114,105,97,89,79,64],"timestamp_mouse":[11,43,49,68,88,109,129,149,169,188,209,229,249,268,289,309,328,350,368,389,408,429,448,468,489,508,530,549,570,589,610,628,649,669,689,708,728,750,768,788,808,828,848,869,889,908,928,950,968,989,1009,1028,1049,1068,1090,1109,1129,1150,1168,1188,1208,1229],"xSR":741.5,"ySR":470.6,"xT1":424.9,"yT1":0,"xT2":1058.1,"yT2":0,"toosoon":0,"cond_shown":"equaldotsize","ratio_trial":750,"smaller_num":"15","larger_num":"20","correct_side":1,"subjID":"AnaIsabelaOrtizLeón26","gender":"1","age":"11","school":"6"},{"start_time":1551791319891,"click_time":1551791320813,"finger_time":1551791320534,"fix_duration":915.4664221003926,"trial":48,"RT":643,"MT":279,"sideResp":2,"stimulus":"img/750/equaldotanddens/R/3_Ratio_750_L_15_R_20.png","xmouse":[779,779,778,778,778,778,778,778,778,778,778,778,778,778,778,778,778,778,778,778,778,778,778,778,778,778,778,778,787,800,819,839,869,879,887,900,918,990,1018,1035,1044,1050,1067,1077,1089,1103,1116],"ymouse":[530,530,530,530,530,530,530,530,530,530,530,530,530,530,530,530,530,530,530,530,530,530,530,530,530,530,530,529,520,506,492,474,450,440,432,419,399,298,259,230,210,192,156,141,122,101,82],"timestamp_mouse":[9,23,43,62,84,104,123,144,162,182,203,223,243,262,284,302,322,342,362,383,403,422,444,463,482,502,524,542,563,583,603,624,643,662,682,704,724,743,762,782,802,822,843,864,883,903,922],"xSR":741.5,"ySR":470.6,"xT1":424.9,"yT1":0,"xT2":1058.1,"yT2":0,"toosoon":0,"cond_shown":"equaldotanddens","ratio_trial":750,"smaller_num":"15","larger_num":"20","correct_side":2,"subjID":"AnaIsabelaOrtizLeón26","gender":"1","age":"11","school":"6"},{"start_time":1551791321945,"click_time":1551791323794,"finger_time":1551791323413,"fix_duration":250.754844831113,"trial":49,"RT":1468,"MT":381,"sideResp":1,"stimulus":"img/750/randomdotsizeEA/R/12_Ratio_750_L_3_R_4.png","xmouse":[774,774,774,774,774,774,774,774,773,772,771,771,771,771,770,770,770,770,770,770,770,770,770,770,769,769,768,768,768,768,768,768,768,768,768,768,768,768,768,768,768,768,768,768,768,768,768,768,768,768,768,768,768,767,766,765,765,765,765,765,765,765,765,765,765,765,765,765,765,765,763,760,758,739,701,680,666,654,646,632,623,612,604,585,577,560,556,550,545,531,523,514,505],"ymouse":[555,555,555,555,555,555,555,555,555,555,555,555,555,555,555,555,555,555,555,555,555,555,555,555,554,554,554,554,554,554,554,554,554,554,554,554,554,554,554,554,554,554,554,554,554,554,554,554,554,554,554,554,554,554,553,552,552,552,552,552,552,552,552,552,552,552,552,552,552,552,549,543,538,508,446,418,397,382,368,341,325,307,286,250,231,204,194,184,172,137,119,104,88],"timestamp_mouse":[12,38,49,69,89,108,129,148,169,190,208,229,248,270,290,308,328,350,368,388,408,430,448,468,489,508,529,549,568,588,610,628,650,668,688,709,729,748,768,789,808,829,849,869,888,909,929,948,968,988,1010,1030,1049,1069,1088,1109,1128,1148,1169,1188,1209,1228,1250,1269,1289,1310,1328,1348,1369,1388,1408,1430,1448,1468,1490,1509,1528,1548,1569,1590,1608,1629,1648,1669,1689,1720,1728,1749,1768,1789,1808,1829,1849],"xSR":741.5,"ySR":470.6,"xT1":424.9,"yT1":0,"xT2":1058.1,"yT2":0,"toosoon":0,"cond_shown":"randomdotsizeEA","ratio_trial":750,"smaller_num":"3","larger_num":"4","correct_side":2,"subjID":"AnaIsabelaOrtizLeón26","gender":"1","age":"11","school":"6"},{"start_time":1551791324986,"click_time":1551791326153,"finger_time":1551791325775,"fix_duration":250,"trial":50,"RT":789,"MT":378,"sideResp":1,"stimulus":"img/750/equaldotanddens/L/13_Ratio_750_L_8_R_6.png","xmouse":[789,788,788,787,786,785,784,783,783,783,783,783,783,783,783,783,783,783,783,783,783,783,783,783,783,783,783,783,783,783,783,783,783,783,783,783,783,783,779,765,755,739,722,696,688,684,682,680,673,661,650,640,631,614,605,597,583,545,517],"ymouse":[523,522,522,522,520,519,519,518,518,518,518,518,518,518,518,518,518,518,518,518,518,518,518,518,518,518,518,518,518,518,518,518,518,518,518,518,518,516,501,462,414,359,302,235,221,213,207,202,190,171,158,147,138,126,120,115,106,80,60],"timestamp_mouse":[10,28,47,67,88,108,128,147,168,188,207,227,248,267,289,309,327,347,369,387,407,429,449,467,487,507,529,547,567,588,607,627,649,668,687,708,729,747,768,789,807,828,847,867,888,909,927,947,967,989,1007,1027,1047,1067,1087,1108,1127,1149,1167],"xSR":741.5,"ySR":470.6,"xT1":424.9,"yT1":0,"xT2":1058.1,"yT2":0,"toosoon":0,"cond_shown":"equaldotanddens","ratio_trial":750,"smaller_num":"6","larger_num":"8","correct_side":1,"subjID":"AnaIsabelaOrtizLeón26","gender":"1","age":"11","school":"6"},{"start_time":1551791327405,"click_time":1551791328534,"finger_time":1551791328174,"fix_duration":250,"trial":51,"RT":769,"MT":360,"sideResp":2,"stimulus":"img/500/equaldotanddens/R/6_Ratio_500_L_9_R_18.png","xmouse":[813,813,813,813,813,813,813,813,813,813,813,813,813,813,813,813,813,813,813,813,813,813,813,813,813,813,813,813,813,813,813,813,813,813,813,813,814,829,843,862,882,906,955,971,986,998,1007,1025,1031,1039,1046,1054,1064,1068,1073,1080,1093],"ymouse":[512,512,512,512,512,512,512,512,512,512,512,512,512,512,512,512,512,512,512,512,512,512,512,512,512,512,512,512,512,512,512,512,512,512,512,512,511,494,479,460,440,417,361,340,319,299,281,241,226,210,192,175,150,142,131,118,93],"timestamp_mouse":[13,28,48,70,88,109,130,148,168,190,208,228,249,268,288,309,329,348,368,389,408,428,448,469,489,509,528,548,569,588,608,629,649,669,689,709,729,749,769,788,808,829,848,869,889,908,928,949,968,988,1008,1028,1048,1070,1089,1110,1129],"xSR":741.5,"ySR":470.6,"xT1":424.9,"yT1":0,"xT2":1058.1,"yT2":0,"toosoon":0,"cond_shown":"equaldotanddens","ratio_trial":500,"smaller_num":"9","larger_num":"18","correct_side":2,"subjID":"AnaIsabelaOrtizLeón26","gender":"1","age":"11","school":"6"},{"start_time":1551791330980,"click_time":1551791332113,"finger_time":1551791331633,"fix_duration":1125.005882249355,"trial":52,"RT":653,"MT":480,"sideResp":2,"stimulus":"img/250/equaldotsize/R/11_Ratio_250_L_3_R_12.png","xmouse":[811,811,811,811,811,811,811,811,811,811,811,811,810,810,810,810,810,810,810,810,810,810,810,810,810,810,810,810,811,814,822,835,853,904,942,989,1032,1095,1142,1157,1168,1181,1193,1209,1213,1215,1215,1215,1215,1215,1214,1214,1214,1209,1204,1185,1130],"ymouse":[521,521,521,521,521,521,521,521,521,521,521,521,521,521,521,521,521,521,520,519,519,519,519,519,519,519,519,519,519,519,516,512,507,485,462,424,387,324,258,234,207,183,158,112,93,79,66,63,63,63,62,62,62,62,62,68,82],"timestamp_mouse":[14,37,54,74,93,113,134,155,174,195,213,233,253,275,295,314,334,354,375,394,414,434,455,473,494,515,533,554,574,594,615,633,653,674,693,714,733,753,774,793,815,833,854,874,893,913,933,954,974,993,1013,1034,1053,1074,1094,1114,1133],"xSR":741.5,"ySR":470.6,"xT1":424.9,"yT1":0,"xT2":1058.1,"yT2":0,"toosoon":0,"cond_shown":"equaldotsize","ratio_trial":250,"smaller_num":"3","larger_num":"12","correct_side":2,"subjID":"AnaIsabelaOrtizLeón26","gender":"1","age":"11","school":"6"},{"start_time":1551791334240,"click_time":1551791335435,"finger_time":1551791334994,"fix_duration":784.2735157730158,"trial":53,"RT":754,"MT":441,"sideResp":1,"stimulus":"img/250/randomdotsizeEA/L/3_Ratio_250_L_8_R_2.png","xmouse":[802,802,802,801,801,801,801,801,801,801,801,801,801,801,801,801,801,801,801,801,801,801,801,801,801,801,801,801,801,801,801,800,800,800,800,800,795,788,777,768,752,718,704,699,694,692,690,688,687,686,685,685,685,684,682,669,618,583,547,522],"ymouse":[491,487,487,484,484,484,484,484,484,484,484,484,484,484,484,484,484,484,484,484,484,484,484,484,484,484,484,484,483,483,483,483,483,483,483,483,479,470,453,428,382,258,174,141,115,98,83,78,75,71,70,70,70,70,70,70,71,71,71,71],"timestamp_mouse":[13,48,54,75,94,113,133,153,173,194,213,233,253,273,294,313,333,355,374,394,413,433,453,475,493,513,533,553,573,593,613,634,654,673,694,714,733,754,775,793,815,834,853,873,894,914,934,955,974,994,1013,1033,1053,1073,1094,1114,1134,1154,1173,1194],"xSR":741.5,"ySR":470.6,"xT1":424.9,"yT1":0,"xT2":1058.1,"yT2":0,"toosoon":0,"cond_shown":"randomdotsizeEA","ratio_trial":250,"smaller_num":"2","larger_num":"8","correct_side":1,"subjID":"AnaIsabelaOrtizLeón26","gender":"1","age":"11","school":"6"},{"start_time":1551791337223,"click_time":1551791338274,"finger_time":1551791337893,"fix_duration":448.92365387785395,"trial":54,"RT":670,"MT":381,"sideResp":2,"stimulus":"img/500/equaldotsize/R/2_Ratio_500_L_3_R_6.png","xmouse":[786,786,786,786,786,786,786,786,786,786,786,786,787,787,787,787,787,787,787,787,787,787,787,787,787,787,787,787,787,788,788,792,822,850,890,943,1005,1091,1109,1118,1125,1132,1151,1160,1167,1172,1175,1174,1171,116