[{"start_time":1551887617215,"click_time":1551887619084,"finger_time":1551887618745,"fix_duration":1046.4429850419613,"trial":0,"RT":1530,"MT":339,"sideResp":1,"stimulus":"img/500/equaldotanddens/L/8_Ratio_500_L_8_R_4.png","xmouse":[834,834,834,834,834,834,834,834,834,834,834,834,834,834,834,834,834,834,834,834,834,834,834,834,834,834,834,834,834,834,834,834,834,834,834,834,834,834,834,834,834,834,834,834,834,834,834,834,834,834,834,834,834,834,834,834,834,834,834,834,834,834,834,834,834,834,834,834,834,834,834,834,833,832,831,823,656,505,351,231,163,155,154,152,152,155,196,218,238,263,290,336,377,437],"ymouse":[536,536,536,536,536,536,536,536,536,536,536,536,536,536,536,536,536,536,536,536,536,536,536,536,536,536,536,536,536,536,536,536,536,536,536,536,536,536,536,536,536,536,536,536,536,536,536,536,536,536,536,536,536,536,536,536,536,536,536,536,536,536,536,536,536,536,536,536,536,536,536,536,537,538,539,540,461,370,288,247,228,213,209,203,195,182,146,134,126,119,112,103,96,85],"timestamp_mouse":[10,29,50,69,90,111,129,149,169,190,209,229,250,269,289,310,330,351,371,389,411,429,449,470,491,509,530,550,569,589,609,630,649,670,689,709,729,750,769,790,810,829,849,870,889,910,931,950,971,989,1010,1030,1051,1070,1089,1110,1131,1151,1170,1190,1210,1230,1250,1269,1289,1311,1330,1350,1371,1389,1409,1429,1449,1469,1490,1509,1530,1550,1570,1590,1610,1631,1649,1671,1690,1710,1729,1749,1769,1791,1810,1829,1850,1869],"xSR":741.5,"ySR":469.95,"xT1":424.9,"yT1":0,"xT2":1058.1,"yT2":0,"toosoon":0,"cond_shown":"equaldotanddens","ratio_trial":500,"smaller_num":"4","larger_num":"8","correct_side":1,"subjID":"juandavidradagiraldo31","gender":"0","age":"12","school":"6","test":{"fix_dur":[250,1500],"timestim":300,"targets_dim":[100,100],"targets_relative_coord":[0.3,0.7],"size_stim":[880,420],"start_dim":[100,100],"size_start":[300,300],"size_fix":60,"samplingrate":20,"img_types":["equaldotsize","equaldotanddens","randomdotsizeEA"],"ratios":[250,500,750,900],"rep_conds":9,"nTrials":120,"trials_to_rest":500,"Trials_order":[4,29,110,6,91,52,85,74,25,39,97,78,69,45,99,12,15,33,19,2,93,88,60,101,83,48,23,24,92,36,105,43,27,100,75,70,108,20,102,26,115,32,64,79,21,80,72,1,61,112,17,63,54,82,42,86,31,50,8,11,34,40,66,76,94,22,10,106,58,3,7,5,38,44,53,84,55,30,111,98,67,81,96,109,71,18,56,113,118,41,65,46,37,73,57,49,14,68,47,114,89,13,116,90,95,119,103,9,104,117,87,51,35,59,0,107,77,16,28,62],"cond_shown":["equaldotanddens","randomdotsizeEA","randomdotsizeEA","equaldotsize","equaldotanddens","equaldotanddens","equaldotanddens","randomdotsizeEA","equaldotanddens","equaldotsize","equaldotanddens","equaldotsize","equaldotsize","equaldotsize","equaldotsize","equaldotsize","equaldotsize","equaldotsize","equaldotanddens","randomdotsizeEA","equaldotsize","equaldotanddens","equaldotsize","randomdotsizeEA","randomdotsizeEA","equaldotsize","randomdotsizeEA","equaldotsize","randomdotsizeEA","equaldotsize","equaldotsize","equaldotanddens","equaldotsize","equaldotanddens","equaldotsize","equaldotanddens","equaldotsize","randomdotsizeEA","equaldotsize","randomdotsizeEA","equaldotanddens","randomdotsizeEA","equaldotanddens","equaldotanddens","equaldotsize","randomdotsizeEA","equaldotsize","equaldotanddens","equaldotanddens","equaldotanddens","randomdotsizeEA","equaldotsize","equaldotsize","equaldotanddens","equaldotsize","randomdotsizeEA","equaldotanddens","randomdotsizeEA","randomdotsizeEA","randomdotsizeEA","equaldotanddens","equaldotanddens","equaldotsize","equaldotanddens","equaldotanddens","equaldotanddens","equaldotanddens","equaldotanddens","equaldotanddens","equaldotsize","equaldotanddens","randomdotsizeEA","randomdotsizeEA","randomdotsizeEA","randomdotsizeEA","equaldotsize","equaldotanddens","equaldotsize","equaldotsize","randomdotsizeEA","equaldotanddens","equaldotsize","equaldotsize","equaldotanddens","randomdotsizeEA","equaldotsize","randomdotsizeEA","randomdotsizeEA","equaldotanddens","randomdotsizeEA","randomdotsizeEA","equaldotanddens","equaldotanddens","equaldotanddens","equaldotsize","equaldotanddens","randomdotsizeEA","randomdotsizeEA","randomdotsizeEA","equaldotsize","randomdotsizeEA","equaldotanddens","randomdotsizeEA","equaldotsize","randomdotsizeEA","randomdotsizeEA","equaldotanddens","equaldotsize","randomdotsizeEA","equaldotsize","equaldotsize","equaldotsize","randomdotsizeEA","randomdotsizeEA","equaldotsize","randomdotsizeEA","randomdotsizeEA","equaldotanddens","equaldotanddens","randomdotsizeEA"],"ratio_trial":[500,500,250,750,750,500,250,250,250,500,250,750,900,900,500,250,500,900,750,250,900,500,250,500,900,250,900,250,750,250,900,750,500,500,500,900,250,750,750,250,750,750,500,750,900,750,250,250,250,500,500,500,750,900,750,250,750,250,750,900,900,500,750,500,900,900,900,900,900,500,750,500,250,750,500,250,750,750,500,250,750,900,250,250,900,750,750,500,900,500,500,900,250,250,900,250,250,750,900,750,500,250,750,750,900,900,750,900,750,900,500,500,900,900,250,900,500,500,500,250],"smaller_num":["4","2","3","15","18","9","2","4","3","6","3","6","18","9","9","4","1","18","6","3","18","1","3","6","18","3","18","3","15","3","9","3","9","2","10","18","2","3","6","3","6","6","9","15","18","15","3","2","6","9","5","1","15","18","6","3","3","2","18","18","18","2","3","2","18","9","18","9","9","2","3","5","3","15","9","3","6","6","10","4","3","18","6","5","18","12","15","5","9","6","1","18","3","5","9","3","4","3","18","9","1","5","18","3","18","9","6","9","6","9","5","5","18","9","3","9","2","1","9","4"],"larger_num":["8","4","12","20","24","18","8","16","12","12","12","8","20","10","18","16","2","20","8","12","20","2","12","12","20","12","20","12","20","12","10","4","18","4","20","20","8","4","8","12","8","8","18","20","20","20","12","8","24","18","10","2","20","20","8","12","4","8","24","20","20","4","4","4","20","10","20","10","10","4","4","10","12","20","18","12","8","8","20","16","4","20","24","20","20","16","20","10","10","12","2","20","12","20","10","12","16","4","20","12","2","20","24","4","20","10","8","10","8","10","10","10","20","10","12","10","4","2","18","16"],"correct_side":[1,1,1,2,1,2,1,1,1,1,2,1,2,2,1,1,2,2,2,2,1,2,2,1,1,2,1,2,1,2,1,2,1,1,2,1,1,1,1,1,1,2,2,2,1,1,2,1,1,1,1,2,1,1,1,1,1,1,1,1,2,1,2,2,1,1,1,2,2,2,2,1,2,2,2,2,1,1,2,2,1,1,1,2,2,2,1,1,1,1,2,1,2,2,1,1,2,1,2,2,2,2,1,1,2,2,2,2,2,2,2,1,1,2,1,2,2,2,2,1],"img_shown":["img/500/equaldotanddens/L/8_Ratio_500_L_8_R_4.png","img/500/randomdotsizeEA/L/10_Ratio_500_L_4_R_2.png","img/250/randomdotsizeEA/L/15_Ratio_250_L_12_R_3.png","img/750/equaldotsize/R/3_Ratio_750_L_15_R_20.png","img/750/equaldotanddens/L/6_Ratio_750_L_24_R_18.png","img/500/equaldotanddens/R/1_Ratio_500_L_9_R_18.png","img/250/equaldotanddens/L/1_Ratio_250_L_8_R_2.png","img/250/randomdotsizeEA/L/2_Ratio_250_L_16_R_4.png","img/250/equaldotanddens/L/15_Ratio_250_L_12_R_3.png","img/500/equaldotsize/L/11_Ratio_500_L_12_R_6.png","img/250/equaldotanddens/R/4_Ratio_250_L_3_R_12.png","img/750/equaldotsize/L/14_Ratio_750_L_8_R_6.png","img/900/equaldotsize/R/14_Ratio_900_L_18_R_20.png","img/900/equaldotsize/R/7_Ratio_900_L_9_R_10.png","img/500/equaldotsize/L/4_Ratio_500_L_18_R_9.png","img/250/equaldotsize/L/2_Ratio_250_L_16_R_4.png","img/500/equaldotsize/R/12_Ratio_500_L_1_R_2.png","img/900/equaldotsize/R/9_Ratio_900_L_18_R_20.png","img/750/equaldotanddens/R/2_Ratio_750_L_6_R_8.png","img/250/randomdotsizeEA/R/9_Ratio_250_L_3_R_12.png","img/900/equaldotsize/L/8_Ratio_900_L_20_R_18.png","img/500/equaldotanddens/R/12_Ratio_500_L_1_R_2.png","img/250/equaldotsize/R/9_Ratio_250_L_3_R_12.png","img/500/randomdotsizeEA/L/11_Ratio_500_L_12_R_6.png","img/900/randomdotsizeEA/L/10_Ratio_900_L_20_R_18.png","img/250/equaldotsize/R/4_Ratio_250_L_3_R_12.png","img/900/randomdotsizeEA/L/10_Ratio_900_L_20_R_18.png","img/250/equaldotsize/R/9_Ratio_250_L_3_R_12.png","img/750/randomdotsizeEA/L/1_Ratio_750_L_20_R_15.png","img/250/equaldotsize/R/4_Ratio_250_L_3_R_12.png","img/900/equaldotsize/L/1_Ratio_900_L_10_R_9.png","img/750/equaldotanddens/R/7_Ratio_750_L_3_R_4.png","img/500/equaldotsize/L/4_Ratio_500_L_18_R_9.png","img/500/equaldotanddens/L/10_Ratio_500_L_4_R_2.png","img/500/equaldotsize/R/3_Ratio_500_L_10_R_20.png","img/900/equaldotanddens/L/2_Ratio_900_L_20_R_18.png","img/250/equaldotsize/L/1_Ratio_250_L_8_R_2.png","img/750/randomdotsizeEA/L/8_Ratio_750_L_4_R_3.png","img/750/equaldotsize/L/13_Ratio_750_L_8_R_6.png","img/250/randomdotsizeEA/L/14_Ratio_250_L_12_R_3.png","img/750/equaldotanddens/L/14_Ratio_750_L_8_R_6.png","img/750/randomdotsizeEA/R/2_Ratio_750_L_6_R_8.png","img/500/equaldotanddens/R/6_Ratio_500_L_9_R_18.png","img/750/equaldotanddens/R/3_Ratio_750_L_15_R_20.png","img/900/equaldotsize/L/10_Ratio_900_L_20_R_18.png","img/750/randomdotsizeEA/L/1_Ratio_750_L_20_R_15.png","img/250/equaldotsize/R/9_Ratio_250_L_3_R_12.png","img/250/equaldotanddens/L/3_Ratio_250_L_8_R_2.png","img/250/equaldotanddens/L/5_Ratio_250_L_24_R_6.png","img/500/equaldotanddens/L/4_Ratio_500_L_18_R_9.png","img/500/randomdotsizeEA/L/7_Ratio_500_L_10_R_5.png","img/500/equaldotsize/R/15_Ratio_500_L_1_R_2.png","img/750/equaldotsize/L/1_Ratio_750_L_20_R_15.png","img/900/equaldotanddens/L/4_Ratio_900_L_20_R_18.png","img/750/equaldotsize/L/13_Ratio_750_L_8_R_6.png","img/250/randomdotsizeEA/L/14_Ratio_250_L_12_R_3.png","img/750/equaldotanddens/L/9_Ratio_750_L_4_R_3.png","img/250/randomdotsizeEA/L/3_Ratio_250_L_8_R_2.png","img/750/randomdotsizeEA/L/6_Ratio_750_L_24_R_18.png","img/900/randomdotsizeEA/L/4_Ratio_900_L_20_R_18.png","img/900/equaldotanddens/R/14_Ratio_900_L_18_R_20.png","img/500/equaldotanddens/L/10_Ratio_500_L_4_R_2.png","img/750/equaldotsize/R/12_Ratio_750_L_3_R_4.png","img/500/equaldotanddens/R/9_Ratio_500_L_2_R_4.png","img/900/equaldotanddens/L/10_Ratio_900_L_20_R_18.png","img/900/equaldotanddens/L/1_Ratio_900_L_10_R_9.png","img/900/equaldotanddens/L/10_Ratio_900_L_20_R_18.png","img/900/equaldotanddens/R/15_Ratio_900_L_9_R_10.png","img/900/equaldotanddens/R/5_Ratio_900_L_9_R_10.png","img/500/equaldotsize/R/9_Ratio_500_L_2_R_4.png","img/750/equaldotanddens/R/7_Ratio_750_L_3_R_4.png","img/500/randomdotsizeEA/L/7_Ratio_500_L_10_R_5.png","img/250/randomdotsizeEA/R/11_Ratio_250_L_3_R_12.png","img/750/randomdotsizeEA/R/4_Ratio_750_L_15_R_20.png","img/500/randomdotsizeEA/R/1_Ratio_500_L_9_R_18.png","img/250/equaldotsize/R/9_Ratio_250_L_3_R_12.png","img/750/equaldotanddens/L/13_Ratio_750_L_8_R_6.png","img/750/equaldotsize/L/13_Ratio_750_L_8_R_6.png","img/500/equaldotsize/R/3_Ratio_500_L_10_R_20.png","img/250/randomdotsizeEA/R/10_Ratio_250_L_4_R_16.png","img/750/equaldotanddens/L/10_Ratio_750_L_4_R_3.png","img/900/equaldotsize/L/8_Ratio_900_L_20_R_18.png","img/250/equaldotsize/L/5_Ratio_250_L_24_R_6.png","img/250/equaldotanddens/R/12_Ratio_250_L_5_R_20.png","img/900/randomdotsizeEA/R/11_Ratio_900_L_18_R_20.png","img/750/equaldotsize/R/11_Ratio_750_L_12_R_16.png","img/750/randomdotsizeEA/L/1_Ratio_750_L_20_R_15.png","img/500/randomdotsizeEA/L/7_Ratio_500_L_10_R_5.png","img/900/equaldotanddens/L/1_Ratio_900_L_10_R_9.png","img/500/randomdotsizeEA/L/13_Ratio_500_L_12_R_6.png","img/500/randomdotsizeEA/R/12_Ratio_500_L_1_R_2.png","img/900/equaldotanddens/L/4_Ratio_900_L_20_R_18.png","img/250/equaldotanddens/R/4_Ratio_250_L_3_R_12.png","img/250/equaldotanddens/R/12_Ratio_250_L_5_R_20.png","img/900/equaldotsize/L/1_Ratio_900_L_10_R_9.png","img/250/equaldotanddens/L/14_Ratio_250_L_12_R_3.png","img/250/randomdotsizeEA/R/10_Ratio_250_L_4_R_16.png","img/750/randomdotsizeEA/L/8_Ratio_750_L_4_R_3.png","img/900/randomdotsizeEA/R/12_Ratio_900_L_18_R_20.png","img/750/equaldotsize/R/15_Ratio_750_L_9_R_12.png","img/500/randomdotsizeEA/R/12_Ratio_500_L_1_R_2.png","img/250/equaldotanddens/R/12_Ratio_250_L_5_R_20.png","img/750/randomdotsizeEA/L/6_Ratio_750_L_24_R_18.png","img/750/equaldotsize/L/10_Ratio_750_L_4_R_3.png","img/900/randomdotsizeEA/R/11_Ratio_900_L_18_R_20.png","img/900/randomdotsizeEA/R/6_Ratio_900_L_9_R_10.png","img/750/equaldotanddens/R/2_Ratio_750_L_6_R_8.png","img/900/equaldotsize/R/7_Ratio_900_L_9_R_10.png","img/750/randomdotsizeEA/R/2_Ratio_750_L_6_R_8.png","img/900/equaldotsize/R/5_Ratio_900_L_9_R_10.png","img/500/equaldotsize/R/14_Ratio_500_L_5_R_10.png","img/500/equaldotsize/L/7_Ratio_500_L_10_R_5.png","img/900/randomdotsizeEA/L/10_Ratio_900_L_20_R_18.png","img/900/randomdotsizeEA/R/6_Ratio_900_L_9_R_10.png","img/250/equaldotsize/L/14_Ratio_250_L_12_R_3.png","img/900/randomdotsizeEA/R/3_Ratio_900_L_9_R_10.png","img/500/randomdotsizeEA/R/9_Ratio_500_L_2_R_4.png","img/500/equaldotanddens/R/12_Ratio_500_L_1_R_2.png","img/500/equaldotanddens/R/1_Ratio_500_L_9_R_18.png","img/250/randomdotsizeEA/L/2_Ratio_250_L_16_R_4.png"],"Rat0":[["12_Ratio_0_L_9_R_0.png","13_Ratio_0_L_6_R_0.png","5_Ratio_0_L_2_R_0.png","6_Ratio_0_L_4_R_0.png","8_Ratio_0_L_6_R_0.png"],["1_Ratio_0_L_0_R_17.png","10_Ratio_0_L_0_R_22.png","11_Ratio_0_L_0_R_1.png","14_Ratio_0_L_0_R_24.png","15_Ratio_0_L_0_R_4.png","2_Ratio_0_L_0_R_5.png","3_Ratio_0_L_0_R_17.png","4_Ratio_0_L_0_R_7.png","7_Ratio_0_L_0_R_19.png","9_Ratio_0_L_0_R_15.png"]],"Rat250":[["1_Ratio_250_L_8_R_2.png","14_Ratio_250_L_12_R_3.png","15_Ratio_250_L_12_R_3.png","2_Ratio_250_L_16_R_4.png","3_Ratio_250_L_8_R_2.png","5_Ratio_250_L_24_R_6.png","7_Ratio_250_L_8_R_2.png"],["10_Ratio_250_L_4_R_16.png","11_Ratio_250_L_3_R_12.png","12_Ratio_250_L_5_R_20.png","13_Ratio_250_L_2_R_8.png","4_Ratio_250_L_3_R_12.png","6_Ratio_250_L_6_R_24.png","8_Ratio_250_L_1_R_4.png","9_Ratio_250_L_3_R_12.png"]],"Rat500":[["10_Ratio_500_L_4_R_2.png","11_Ratio_500_L_12_R_6.png","13_Ratio_500_L_12_R_6.png","4_Ratio_500_L_18_R_9.png","5_Ratio_500_L_4_R_2.png","7_Ratio_500_L_10_R_5.png","8_Ratio_500_L_8_R_4.png"],["1_Ratio_500_L_9_R_18.png","12_Ratio_500_L_1_R_2.png","14_Ratio_500_L_5_R_10.png","15_Ratio_500_L_1_R_2.png","2_Ratio_500_L_3_R_6.png","3_Ratio_500_L_10_R_20.png","6_Ratio_500_L_9_R_18.png","9_Ratio_500_L_2_R_4.png"]],"Rat750":[["1_Ratio_750_L_20_R_15.png","10_Ratio_750_L_4_R_3.png","13_Ratio_750_L_8_R_6.png","14_Ratio_750_L_8_R_6.png","6_Ratio_750_L_24_R_18.png","8_Ratio_750_L_4_R_3.png","9_Ratio_750_L_4_R_3.png"],["11_Ratio_750_L_12_R_16.png","12_Ratio_750_L_3_R_4.png","15_Ratio_750_L_9_R_12.png","2_Ratio_750_L_6_R_8.png","3_Ratio_750_L_15_R_20.png","4_Ratio_750_L_15_R_20.png","5_Ratio_750_L_15_R_20.png","7_Ratio_750_L_3_R_4.png"]],"Rat900":[["1_Ratio_900_L_10_R_9.png","10_Ratio_900_L_20_R_18.png","2_Ratio_900_L_20_R_18.png","4_Ratio_900_L_20_R_18.png","8_Ratio_900_L_20_R_18.png"],["11_Ratio_900_L_18_R_20.png","12_Ratio_900_L_18_R_20.png","13_Ratio_900_L_18_R_20.png","14_Ratio_900_L_18_R_20.png","15_Ratio_900_L_9_R_10.png","3_Ratio_900_L_9_R_10.png","5_Ratio_900_L_9_R_10.png","6_Ratio_900_L_9_R_10.png","7_Ratio_900_L_9_R_10.png","9_Ratio_900_L_18_R_20.png"]],"Rat1000":[["10_Ratio_1000_L_16_R_16.png","11_Ratio_1000_L_6_R_6.png","12_Ratio_1000_L_14_R_14.png","13_Ratio_1000_L_20_R_20.png","15_Ratio_1000_L_15_R_15.png","2_Ratio_1000_L_17_R_17.png","4_Ratio_1000_L_9_R_9.png","5_Ratio_1000_L_6_R_6.png","6_Ratio_1000_L_19_R_19.png","8_Ratio_1000_L_14_R_14.png","9_Ratio_1000_L_25_R_25.png"],["1_Ratio_1000_L_1_R_1.png","14_Ratio_1000_L_17_R_17.png","3_Ratio_1000_L_17_R_17.png","7_Ratio_1000_L_6_R_6.png"]]}},{"start_time":1551887622211,"click_time":1551887623405,"finger_time":1551887623145,"fix_duration":365.0205810546653,"trial":1,"RT":934,"MT":260,"sideResp":2,"stimulus":"img/500/randomdotsizeEA/L/10_Ratio_500_L_4_R_2.png","xmouse":[793,793,793,793,793,793,793,793,793,793,793,793,793,793,793,793,793,793,793,793,793,793,793,793,793,793,793,793,793,793,793,793,793,793,793,793,793,793,793,793,793,793,793,793,798,818,884,910,927,935,935,937,941,946,955,960,967,999,1037,1073],"ymouse":[497,497,497,497,497,497,497,497,497,497,497,497,497,497,497,497,497,497,497,497,497,497,497,497,497,497,497,497,497,497,497,497,497,497,497,497,497,497,497,497,497,497,497,497,494,474,385,342,297,257,222,162,139,122,106,101,97,86,81,75],"timestamp_mouse":[13,36,54,73,94,113,134,154,173,193,213,233,255,275,293,314,333,353,373,394,413,433,455,475,493,514,535,554,574,593,613,633,653,673,693,713,734,753,773,793,813,834,853,873,895,915,934,953,973,994,1014,1034,1053,1074,1093,1113,1133,1154,1174,1194],"xSR":741.5,"ySR":469.95,"xT1":424.9,"yT1":0,"xT2":1058.1,"yT2":0,"toosoon":0,"cond_shown":"randomdotsizeEA","ratio_trial":500,"smaller_num":"2","larger_num":"4","correct_side":1,"subjID":"juandavidradagiraldo31","gender":"0","age":"12","school":"6"},{"start_time":1551887625349,"click_time":1551887626464,"finger_time":1551887626165,"fix_duration":1222.3753472996468,"trial":2,"RT":816,"MT":299,"sideResp":1,"stimulus":"img/250/randomdotsizeEA/L/15_Ratio_250_L_12_R_3.png","xmouse":[773,773,773,773,772,773,773,774,774,774,774,774,774,774,774,774,774,774,774,774,774,774,774,774,774,774,774,774,774,774,774,774,774,774,774,774,774,774,774,758,655,531,432,402,396,394,399,405,413,420,420,420,420,420,420,492],"ymouse":[530,530,530,530,533,533,535,535,535,535,535,535,535,535,535,535,535,535,535,535,535,535,535,535,535,535,535,535,535,535,535,535,535,535,535,535,535,535,535,519,415,281,163,98,65,28,23,18,9,1,1,1,1,1,1,3],"timestamp_mouse":[16,36,55,75,96,115,136,156,175,196,216,237,255,275,296,316,337,355,375,395,415,435,456,476,496,515,535,555,575,595,615,635,656,676,695,715,736,755,775,796,816,836,856,876,896,915,935,955,975,997,1016,1036,1056,1076,1095,1115],"xSR":741.5,"ySR":469.95,"xT1":424.9,"yT1":0,"xT2":1058.1,"yT2":0,"toosoon":0,"cond_shown":"randomdotsizeEA","ratio_trial":250,"smaller_num":"3","larger_num":"12","correct_side":1,"subjID":"juandavidradagiraldo31","gender":"0","age":"12","school":"6"},{"start_time":1551887627698,"click_time":1551887628664,"finger_time":1551887628366,"fix_duration":252.48952612266672,"trial":3,"RT":668,"MT":298,"sideResp":1,"stimulus":"img/750/equaldotsize/R/3_Ratio_750_L_15_R_20.png","xmouse":[804,804,804,804,804,804,804,804,804,804,804,804,804,804,804,804,804,804,804,804,804,804,804,804,804,804,804,804,804,804,805,804,787,716,681,657,636,615,574,565,561,560,558,554,553,552,548,538,491],"ymouse":[537,537,537,537,537,537,537,537,537,537,537,537,537,537,537,537,537,537,537,537,537,537,537,537,537,537,537,537,537,537,534,524,495,375,314,265,221,170,72,50,40,35,31,30,30,30,29,28,28],"timestamp_mouse":[9,28,47,67,87,106,126,146,167,188,206,226,247,268,287,306,326,347,368,386,407,427,446,468,488,507,527,546,568,587,606,626,647,668,687,706,726,747,766,786,807,826,847,867,887,906,927,946,966],"xSR":741.5,"ySR":469.95,"xT1":424.9,"yT1":0,"xT2":1058.1,"yT2":0,"toosoon":0,"cond_shown":"equaldotsize","ratio_trial":750,"smaller_num":"15","larger_num":"20","correct_side":2,"subjID":"juandavidradagiraldo31","gender":"0","age":"12","school":"6"},{"start_time":1551887629636,"click_time":1551887630685,"finger_time":1551887630305,"fix_duration":250,"trial":4,"RT":669,"MT":380,"sideResp":1,"stimulus":"img/750/equaldotanddens/L/6_Ratio_750_L_24_R_18.png","xmouse":[807,807,807,807,807,807,807,807,807,807,807,807,807,807,807,807,807,807,807,807,807,807,807,807,807,807,807,807,807,807,807,803,781,739,676,609,537,533,533,533,533,533,533,533,533,533,533,533,533,533,533,533,460],"ymouse":[543,543,543,543,543,543,543,543,543,543,543,543,543,543,543,543,543,543,543,543,543,543,543,543,543,543,543,543,543,543,543,542,517,475,405,317,138,72,12,12,12,12,12,12,12,12,12,12,12,12,12,12,11],"timestamp_mouse":[8,33,49,69,88,108,129,148,170,189,208,229,249,269,288,308,328,348,368,388,409,429,448,468,490,508,528,548,569,588,608,629,649,669,690,710,728,749,769,788,809,829,850,868,888,909,929,948,968,988,1008,1028,1049],"xSR":741.5,"ySR":469.95,"xT1":424.9,"yT1":0,"xT2":1058.1,"yT2":0,"toosoon":0,"cond_shown":"equaldotanddens","ratio_trial":750,"smaller_num":"18","larger_num":"24","correct_side":1,"subjID":"juandavidradagiraldo31","gender":"0","age":"12","school":"6"},{"start_time":1551887632100,"click_time":1551887632845,"finger_time":1551887632704,"fix_duration":493.83820382793544,"trial":5,"RT":604,"MT":141,"sideResp":2,"stimulus":"img/500/equaldotanddens/R/1_Ratio_500_L_9_R_18.png","xmouse":[773,773,773,773,773,773,773,773,773,773,773,773,773,773,773,773,773,773,773,773,773,773,773,773,773,773,773,773,775,806,852,914,977,1033,1099,1111,1122,1128],"ymouse":[499,499,499,499,499,499,499,499,499,499,499,499,499,499,499,499,499,499,499,499,499,499,499,499,499,499,499,499,499,470,421,367,305,250,159,133,108,98],"timestamp_mouse":[8,35,44,64,86,105,124,144,166,184,205,225,244,265,286,304,325,346,364,384,405,424,445,465,484,505,524,545,565,585,604,624,646,664,685,705,725,745],"xSR":741.5,"ySR":469.95,"xT1":424.9,"yT1":0,"xT2":1058.1,"yT2":0,"toosoon":0,"cond_shown":"equaldotanddens","ratio_trial":500,"smaller_num":"9","larger_num":"18","correct_side":2,"subjID":"juandavidradagiraldo31","gender":"0","age":"12","school":"6"},{"start_time":1551887634418,"click_time":1551887635304,"finger_time":1551887634985,"fix_duration":930.1913062401135,"trial":6,"RT":567,"MT":319,"sideResp":1,"stimulus":"img/250/equaldotanddens/L/1_Ratio_250_L_8_R_2.png","xmouse":[780,780,780,780,780,780,780,780,780,780,780,780,780,780,780,780,780,780,780,780,780,780,780,780,780,780,779,773,729,692,675,660,649,632,621,605,585,575,571,571,571,567,545,528,520],"ymouse":[527,527,527,527,527,527,527,527,527,527,527,527,527,527,527,527,527,527,527,527,527,527,527,527,527,527,524,508,443,384,352,320,295,254,236,216,193,179,164,158,151,140,112,97,88],"timestamp_mouse":[6,31,46,67,87,107,127,146,167,187,207,226,247,266,287,306,328,347,366,386,406,426,447,467,486,507,526,546,567,587,608,626,646,668,687,706,728,746,766,786,807,826,848,867,886],"xSR":741.5,"ySR":469.95,"xT1":424.9,"yT1":0,"xT2":1058.1,"yT2":0,"toosoon":0,"cond_shown":"equaldotanddens","ratio_trial":250,"smaller_num":"2","larger_num":"8","correct_side":1,"subjID":"juandavidradagiraldo31","gender":"0","age":"12","school":"6"},{"start_time":1551887637641,"click_time":1551887639666,"finger_time":1551887638464,"fix_duration":255.8345321844344,"trial":7,"RT":823,"MT":1202,"sideResp":1,"stimulus":"img/250/randomdotsizeEA/L/2_Ratio_250_L_16_R_4.png","xmouse":[802,802,802,802,802,802,802,802,802,802,802,802,802,802,802,802,802,802,802,802,802,802,802,802,802,802,802,802,802,802,802,802,802,802,802,802,802,802,802,800,788,737,558,481,438,426,426,426,426,430,443,455,478,491,502,508,519,542,551,560,569,579,615,639,661,677,677,677,679,685,693,702,727,745,766,793,798,798,798,798,798,798,798,796,790,776,748,723,715,706,700,697,696,696,696,696,696,695,675,632,560,477],"ymouse":[529,529,529,529,529,529,529,529,529,529,529,529,529,529,529,529,529,529,529,529,529,529,529,529,529,529,529,529,529,529,529,529,529,529,529,529,529,529,529,525,506,453,311,251,213,199,199,199,199,200,206,211,225,234,243,249,266,305,322,338,350,361,391,405,416,422,422,422,422,422,422,421,406,390,371,349,344,344,344,344,344,344,344,349,366,393,437,473,483,493,498,503,515,517,517,517,517,508,440,338,215,93],"timestamp_mouse":[8,24,44,63,83,104,123,144,164,185,203,223,244,263,284,303,323,343,364,384,404,423,443,464,483,504,523,543,563,583,603,624,644,663,684,703,725,743,763,783,804,823,843,863,883,903,924,944,963,984,1003,1023,1043,1064,1083,1104,1124,1143,1164,1183,1203,1224,1243,1263,1284,1304,1323,1344,1363,1384,1404,1423,1443,1463,1484,1503,1523,1543,1563,1584,1604,1623,1644,1663,1684,1704,1725,1744,1763,1784,1804,1824,1843,1864,1884,1905,1925,1943,1964,1984,2004,2025],"xSR":741.5,"ySR":469.95,"xT1":424.9,"yT1":0,"xT2":1058.1,"yT2":0,"toosoon":0,"cond_shown":"randomdotsizeEA","ratio_trial":250,"smaller_num":"4","larger_num":"16","correct_side":1,"subjID":"juandavidradagiraldo31","gender":"0","age":"12","school":"6"},{"start_time":1551887640897,"click_time":1551887641864,"finger_time":1551887641705,"fix_duration":250,"trial":8,"RT":808,"MT":159,"sideResp":1,"stimulus":"img/250/equaldotanddens/L/15_Ratio_250_L_12_R_3.png","xmouse":[767,767,767,767,767,767,767,767,767,767,767,767,767,767,767,767,767,767,767,767,767,767,767,767,767,767,767,767,767,767,767,767,767,767,767,767,767,767,767,767,762,716,679,649,621,610,596,568,523],"ymouse":[494,494,494,494,494,494,494,494,494,494,494,494,494,494,494,494,494,494,494,494,494,494,494,494,494,494,494,494,494,494,494,494,494,494,494,494,494,494,494,494,468,374,308,257,188,159,125,75,12],"timestamp_mouse":[8,31,47,67,87,109,129,147,168,187,208,227,247,269,287,307,327,349,369,389,408,428,447,467,487,509,528,547,567,588,607,627,647,667,688,709,727,747,767,787,808,829,848,867,888,907,928,947,967],"xSR":741.5,"ySR":469.95,"xT1":424.9,"yT1":0,"xT2":1058.1,"yT2":0,"toosoon":0,"cond_shown":"equaldotanddens","ratio_trial":250,"smaller_num":"3","larger_num":"12","correct_side":1,"subjID":"juandavidradagiraldo31","gender":"0","age":"12","school":"6"},{"start_time":1551887644112,"click_time":1551887645064,"finger_time":1551887644826,"fix_duration":1266.0546822923732,"trial":9,"RT":714,"MT":238,"sideResp":1,"stimulus":"img/500/equaldotsize/L/11_Ratio_500_L_12_R_6.png","xmouse":[792,792,792,792,792,792,792,792,792,792,792,792,792,792,792,792,792,792,792,792,792,792,792,792,792,792,792,792,792,792,792,792,792,792,784,740,691,630,559,459,459,459,459,459,463,464,465,466],"ymouse":[501,501,501,501,501,501,501,501,501,501,501,501,501,501,501,501,501,501,501,501,501,501,501,501,501,501,501,501,501,501,501,501,501,501,492,441,384,314,231,132,131,131,130,128,122,114,103,96],"timestamp_mouse":[12,34,54,73,93,112,132,152,173,193,212,232,253,272,292,313,332,352,372,392,414,434,452,472,493,512,532,553,573,592,613,633,653,672,694,714,732,752,772,792,813,832,852,873,892,914,932,952],"xSR":741.5,"ySR":469.95,"xT1":424.9,"yT1":0,"xT2":1058.1,"yT2":0,"toosoon":0,"cond_shown":"equaldotsize","ratio_trial":500,"smaller_num":"6","larger_num":"12","correct_side":1,"subjID":"juandavidradagiraldo31","gender":"0","age":"12","school":"6"},{"start_time":1551887646270,"click_time":1551887647246,"finger_time":1551887647024,"fix_duration":364.9332901122473,"trial":10,"RT":754,"MT":222,"sideResp":2,"stimulus":"img/250/equaldotanddens/R/4_Ratio_250_L_3_R_12.png","xmouse":[797,797,797,797,797,797,797,797,797,797,797,797,797,797,797,797,797,797,797,797,797,797,797,797,797,797,797,797,797,797,797,797,797,797,797,797,825,872,934,989,1040,1051,1051,1053,1057,1065,1075,1100,1108],"ymouse":[499,499,499,499,499,499,499,499,499,499,499,499,499,499,499,499,499,499,499,499,499,499,499,499,499,499,499,499,499,499,499,499,499,499,499,496,472,434,382,329,258,198,181,174,166,156,143,107,92],"timestamp_mouse":[15,35,56,75,94,114,135,155,175,195,215,234,255,276,294,315,335,354,374,394,414,435,455,476,495,516,534,554,574,595,614,634,654,674,694,714,734,754,774,794,816,834,854,875,895,916,934,955,976],"xSR":741.5,"ySR":469.95,"xT1":424.9,"yT1":0,"xT2":1058.1,"yT2":0,"toosoon":0,"cond_shown":"equaldotanddens","ratio_trial":250,"smaller_num":"3","larger_num":"12","correct_side":2,"subjID":"juandavidradagiraldo31","gender":"0","age":"12","school":"6"},{"start_time":1551887649524,"click_time":1551887650824,"finger_time":1551887650404,"fix_duration":1397.0743475079719,"trial":11,"RT":880,"MT":420,"sideResp":1,"stimulus":"img/750/equaldotsize/L/14_Ratio_750_L_8_R_6.png","xmouse":[813,813,813,813,813,813,813,813,813,813,813,813,813,813,813,813,813,813,813,813,813,813,813,813,813,813,813,813,813,813,813,813,813,813,813,813,813,813,813,813,813,812,807,791,712,671,664,663,663,663,663,662,658,649,632,622,608,596,582,566,536,526,521,517,501,484],"ymouse":[526,526,526,526,526,526,526,526,526,526,526,526,526,526,526,526,526,526,526,526,526,526,526,526,526,526,526,526,526,526,526,526,526,526,526,526,526,526,526,526,526,526,515,488,392,359,353,350,349,349,349,349,341,330,312,302,287,274,259,244,217,206,196,180,112,57],"timestamp_mouse":[10,21,41,60,80,102,121,141,162,180,200,222,241,260,280,300,321,340,360,380,401,422,440,460,480,501,521,540,561,580,600,620,641,661,681,700,720,740,760,781,802,821,841,860,880,901,920,941,960,981,1000,1020,1040,1060,1081,1100,1120,1140,1160,1180,1201,1220,1240,1260,1282,1300],"xSR":741.5,"ySR":469.95,"xT1":424.9,"yT1":0,"xT2":1058.1,"yT2":0,"toosoon":0,"cond_shown":"equaldotsize","ratio_trial":750,"smaller_num":"6","larger_num":"8","correct_side":1,"subjID":"juandavidradagiraldo31","gender":"0","age":"12","school":"6"},{"start_time":1551887651796,"click_time":1551887653025,"finger_time":1551887652465,"fix_duration":250,"trial":12,"RT":669,"MT":560,"sideResp":2,"stimulus":"img/900/equaldotsize/R/14_Ratio_900_L_18_R_20.png","xmouse":[787,787,787,787,787,787,787,787,787,787,787,787,787,787,787,787,787,787,787,787,787,787,787,787,787,787,787,787,787,787,787,797,811,823,839,863,897,901,903,903,903,903,905,909,914,926,928,931,933,934,936,943,947,952,960,968,988,998,1011,1023,1045,1060],"ymouse":[518,518,518,518,518,518,518,518,518,518,518,518,518,518,518,518,518,518,518,518,518,518,518,518,518,518,518,518,518,518,518,508,489,468,440,397,336,325,321,321,321,320,318,312,304,290,286,283,281,279,275,268,263,255,241,227,188,157,128,101,54,36],"timestamp_mouse":[9,31,48,70,89,109,129,149,169,189,208,230,248,268,289,308,328,349,368,389,408,429,449,470,489,509,528,548,568,589,609,629,649,669,689,708,728,749,769,788,809,828,849,870,888,910,928,949,969,988,1009,1028,1049,1068,1088,1108,1129,1149,1169,1189,1210,1229],"xSR":741.5,"ySR":469.95,"xT1":424.9,"yT1":0,"xT2":1058.1,"yT2":0,"toosoon":0,"cond_shown":"equaldotsize","ratio_trial":900,"smaller_num":"18","larger_num":"20","correct_side":2,"subjID":"juandavidradagiraldo31","gender":"0","age":"12","school":"6"},{"start_time":1551887654210,"click_time":1551887655984,"finger_time":1551887655044,"fix_duration":363.11904004517146,"trial":13,"RT":834,"MT":940,"sideResp":2,"stimulus":"img/900/equaldotsize/R/7_Ratio_900_L_9_R_10.png","xmouse":[821,821,821,821,821,821,821,821,821,821,821,821,821,821,821,821,821,821,821,821,821,821,821,821,821,821,821,821,821,821,821,821,821,821,821,821,821,821,821,821,809,768,725,671,639,624,620,616,613,611,608,607,607,607,606,606,606,606,606,606,601,595,586,579,572,566,566,566,566,566,566,566,566,566,567,609,672,743,811,890,923,962,975,988,1000,1027,1040,1050,1059],"ymouse":[494,494,494,494,494,494,494,494,494,494,494,494,494,494,494,494,494,494,494,494,494,494,494,494,494,494,494,494,494,494,494,494,494,494,494,494,494,494,494,494,478,450,414,338,282,248,236,224,216,212,209,209,208,208,208,208,208,208,208,208,204,197,187,179,171,165,165,165,165,165,165,165,165,165,164,164,162,152,144,128,118,106,100,92,83,63,58,53,52],"timestamp_mouse":[15,34,54,75,95,114,134,154,174,194,216,235,255,275,296,315,335,355,374,394,414,434,455,475,494,514,534,554,574,594,614,634,654,674,695,714,734,754,775,794,815,834,855,875,894,915,934,956,974,995,1014,1035,1055,1074,1095,1115,1134,1154,1174,1195,1214,1234,1255,1276,1295,1315,1334,1354,1374,1395,1415,1434,1454,1474,1496,1514,1535,1555,1574,1595,1614,1634,1654,1674,1695,1714,1734,1754,1774],"xSR":741.5,"ySR":469.95,"xT1":424.9,"yT1":0,"xT2":1058.1,"yT2":0,"toosoon":0,"cond_shown":"equaldotsize","ratio_trial":900,"smaller_num":"9","larger_num":"10","correct_side":2,"subjID":"juandavidradagiraldo31","gender":"0","age":"12","school":"6"},{"start_time":1551887657634,"click_time":1551887658345,"finger_time":1551887658206,"fix_duration":708.7221092365062,"trial":14,"RT":572,"MT":139,"sideResp":1,"stimulus":"img/500/equaldotsize/L/4_Ratio_500_L_18_R_9.png","xmouse":[776,776,776,776,776,776,776,776,776,776,776,776,776,776,776,776,777,777,777,777,777,777,777,777,777,777,776,766,747,685,647,605,565,542,531,520],"ymouse":[502,502,502,502,502,502,502,502,502,502,502,502,502,502,502,502,502,502,502,502,502,502,502,502,502,502,495,477,443,334,275,217,160,125,105,77],"timestamp_mouse":[10,34,50,70,90,110,132,152,170,191,211,230,250,270,291,311,331,351,370,390,412,430,450,470,492,510,531,551,572,591,610,630,650,670,690,711],"xSR":741.5,"ySR":469.95,"xT1":424.9,"yT1":0,"xT2":1058.1,"yT2":0,"toosoon":0,"cond_shown":"equaldotsize","ratio_trial":500,"smaller_num":"9","larger_num":"18","correct_side":1,"subjID":"juandavidradagiraldo31","gender":"0","age":"12","school":"6"},{"start_time":1551887660797,"click_time":1551887661905,"finger_time":1551887661605,"fix_duration":250,"trial":15,"RT":808,"MT":300,"sideResp":1,"stimulus":"img/250/equaldotsize/L/2_Ratio_250_L_16_R_4.png","xmouse":[788,788,788,788,788,788,788,788,788,788,788,788,788,788,788,788,788,788,788,788,788,788,788,788,788,788,788,788,788,788,788,788,788,788,788,788,788,788,788,782,771,757,735,725,716,704,689,631,615,608,604,598,590,575,541,491],"ymouse":[480,480,480,480,480,480,480,480,480,480,480,480,480,480,480,480,480,480,480,480,480,480,480,480,480,480,480,480,480,480,480,480,480,480,480,480,480,480,479,471,456,440,408,391,374,353,327,250,231,219,212,190,172,149,113,77],"timestamp_mouse":[8,29,47,67,88,108,127,148,168,187,208,227,248,267,287,308,329,348,367,388,408,427,447,468,487,509,527,547,569,589,607,628,648,668,687,707,728,747,768,787,808,827,848,867,887,907,927,947,968,987,1007,1028,1047,1067,1087,1107],"xSR":741.5,"ySR":469.95,"xT1":424.9,"yT1":0,"xT2":1058.1,"yT2":0,"toosoon":0,"cond_shown":"equaldotsize","ratio_trial":250,"smaller_num":"4","larger_num":"16","correct_side":1,"subjID":"juandavidradagiraldo31","gender":"0","age":"12","school":"6"},{"start_time":1551887664161,"click_time":1551887665284,"finger_time":1551887664944,"fix_duration":1373.067995821723,"trial":16,"RT":783,"MT":340,"sideResp":2,"stimulus":"img/500/equaldotsize/R/12_Ratio_500_L_1_R_2.png","xmouse":[796,796,796,796,796,796,796,796,796,796,796,796,796,796,796,796,796,796,795,786,782,781,779,779,779,779,779,779,779,779,779,779,779,779,779,785,788,801,814,874,910,942,965,993,1045,1050,1056,1059,1060,1045,1035,1030,1030,1030,1032,1047,1067],"ymouse":[542,542,542,542,542,542,542,542,542,542,542,542,542,542,542,542,542,542,539,525,521,520,520,520,520,520,520,520,520,520,520,520,520,520,520,520,519,510,494,411,355,299,268,241,192,171,154,142,125,89,78,76,76,76,69,62,57],"timestamp_mouse":[10,27,44,65,83,103,123,143,164,183,203,225,244,263,283,304,324,343,363,384,403,423,444,463,484,504,523,544,564,583,603,625,643,663,683,703,723,743,763,783,804,824,843,865,883,903,923,944,964,984,1004,1025,1043,1064,1083,1103,1123],"xSR":741.5,"ySR":469.95,"xT1":424.9,"yT1":0,"xT2":1058.1,"yT2":0,"toosoon":0,"cond_shown":"equaldotsize","ratio_trial":500,"smaller_num":"1","larger_num":"2","correct_side":2,"subjID":"juandavidradagiraldo31","gender":"0","age":"12","school":"6"},{"start_time":1551887666234,"click_time":1551887667285,"finger_time":1551887666986,"fix_duration":268.1829594411021,"trial":17,"RT":752,"MT":299,"sideResp":1,"stimulus":"img/900/equaldotsize/R/9_Ratio_900_L_18_R_20.png","xmouse":[757,757,757,757,757,757,757,757,757,757,757,757,757,757,757,757,757,757,757,757,757,757,757,757,757,757,757,757,757,757,757,757,757,757,757,757,757,740,712,651,532,497,483,472,471,471,473,474,474,474,475,486,487],"ymouse":[524,524,524,524,524,524,524,524,524,524,524,524,524,524,524,524,524,524,524,524,524,524,524,524,524,524,524,524,524,524,524,524,524,524,524,524,524,483,435,353,214,175,158,145,144,141,140,140,140,140,138,109,78],"timestamp_mouse":[11,31,52,70,90,110,130,151,171,192,210,230,252,271,291,311,330,351,370,391,410,432,451,470,491,510,531,550,570,590,610,630,650,671,690,711,730,752,771,790,811,830,851,871,891,911,930,950,971,990,1010,1031,1051],"xSR":741.5,"ySR":469.95,"xT1":424.9,"yT1":0,"xT2":1058.1,"yT2":0,"toosoon":0,"cond_shown":"equaldotsize","ratio_trial":900,"smaller_num":"18","larger_num":"20","correct_side":2,"subjID":"juandavidradagiraldo31","gender":"0","age":"12","school":"6"},{"start_time":1551887668556,"click_time":1551887670504,"finger_time":1551887668573,"fix_duration":388.0249003399815,"trial":18,"RT":17,"MT":1931,"sideResp":1,"stimulus":"img/750/equaldotanddens/R/2_Ratio_750_L_6_R_8.png","xmouse":[740,740,740,740,740,736,734,732,731,731,731,731,731,730,732,741,741,741,741,741,739,734,734,734,734,737,737,737,737,756,759,759,759,760,761,762,763,767,771,778,786,794,796,797,797,797,797,797,797,797,797,797,797,797,797,797,796,796,796,796,796,796,796,796,796,796,796,796,796,796,796,796,796,796,796,796,796,793,785,777,774,770,765,754,727,593,510,489,482,478,470,464,462,461,461,456,455,459],"ymouse":[520,520,520,520,520,521,523,525,525,525,525,525,525,524,520,513,512,512,512,512,520,526,526,526,526,521,521,521,521,521,521,521,521,521,521,521,521,521,521,521,518,513,511,511,511,511,511,511,511,511,511,511,511,511,511,511,511,511,511,511,511,511,511,511,511,511,511,511,511,511,511,511,511,511,511,511,511,511,511,508,506,503,498,488,466,367,287,250,229,214,196,188,185,178,170,130,111,92],"timestamp_mouse":[17,38,49,68,89,108,129,149,168,189,209,229,248,268,289,308,328,349,368,389,408,429,450,469,489,509,529,549,568,589,608,628,649,668,688,708,729,748,768,789,809,829,849,868,889,909,930,948,968,989,1009,1028,1049,1068,1088,1108,1128,1148,1169,1189,1210,1228,1249,1268,1288,1309,1328,1348,1370,1388,1409,1428,1449,1468,1488,1509,1529,1549,1568,1589,1608,1629,1648,1669,1689,1708,1729,1749,1769,1788,1810,1828,1849,1868,1888,1909,1929,1948],"xSR":741.5,"ySR":469.95,"xT1":424.9,"yT1":0,"xT2":1058.1,"yT2":0,"toosoon":0,"cond_shown":"equaldotanddens","ratio_trial":750,"smaller_num":"6","larger_num":"8","correct_side":2,"subjID":"juandavidradagiraldo31","gender":"0","age":"12","school":"6"},{"start_time":1551887671613,"click_time":1551887672865,"finger_time":1551887672404,"fix_duration":327.6254553951283,"trial":19,"RT":791,"MT":461,"sideResp":2,"stimulus":"img/250/randomdotsizeEA/R/9_Ratio_250_L_3_R_12.png","xmouse":[789,790,790,792,794,794,794,794,794,794,794,794,794,794,794,794,794,794,794,794,794,794,794,794,794,794,794,794,794,794,794,794,794,794,794,794,794,796,814,877,960,1059,1087,1087,1087,1087,1086,1083,1083,1086,1103,1117,1130,1131,1131,1131,1131,1131,1131,1131,1131,1131,1125],"ymouse":[494,494,494,494,494,494,494,494,494,494,494,494,494,494,494,494,494,494,494,494,494,494,494,494,494,494,494,494,494,494,494,494,494,494,494,494,494,492,482,453,415,360,299,262,234,211,196,182,179,171,153,135,114,111,110,110,109,109,109,109,108,104,89],"timestamp_mouse":[11,32,52,72,91,112,133,152,171,191,212,231,253,272,291,311,332,351,371,391,412,432,453,471,491,513,532,551,572,593,611,632,652,671,692,711,731,752,771,791,812,831,851,871,892,911,931,951,972,991,1011,1031,1051,1071,1091,1112,1131,1151,1171,1191,1211,1231,1251],"xSR":741.5,"ySR":469.95,"xT1":424.9,"yT1":0,"xT2":1058.1,"yT2":0,"toosoon":0,"cond_shown":"randomdotsizeEA","ratio_trial":250,"smaller_num":"3","larger_num":"12","correct_side":2,"subjID":"juandavidradagiraldo31","gender":"0","age":"12","school":"6"},{"start_time":1551887676709,"click_time":1551887677824,"finger_time":1551887677524,"fix_duration":703.576090170612,"trial":20,"RT":815,"MT":300,"sideResp":2,"stimulus":"img/900/equaldotsize/L/8_Ratio_900_L_20_R_18.png","xmouse":[817,817,817,817,817,817,817,817,817,817,817,817,817,817,817,817,817,817,817,817,817,817,817,817,817,817,817,817,817,817,817,817,817,817,817,817,817,817,817,828,852,879,908,995,1009,1009,1009,1009,1009,1009,1009,1009,1009,1009,1009,1092],"ymouse":[546,546,546,546,546,546,546,546,546,546,546,546,546,546,546,546,546,546,546,546,546,546,546,546,546,546,546,546,546,546,546,546,546,546,546,546,546,546,546,512,440,346,248,40,6,6,6,6,6,6,6,6,6,6,6,10],"timestamp_mouse":[15,40,55,75,95,114,134,155,174,195,213,233,255,274,294,314,334,354,374,395,414,434,454,475,494,514,534,555,576,595,614,634,654,674,694,714,734,754,775,794,815,835,854,873,894,915,934,955,974,994,1014,1034,1054,1075,1094,1115],"xSR":741.5,"ySR":469.95,"xT1":424.9,"yT1":0,"xT2":1058.1,"yT2":0,"toosoon":0,"cond_shown":"equaldotsize","ratio_trial":900,"smaller_num":"18","larger_num":"20","correct_side":1,"subjID":"juandavidradagiraldo31","gender":"0","age":"12","school":"6"},{"start_time":1551887679052,"click_time":1551887680044,"finger_time":1551887679744,"fix_duration":268.44214755849504,"trial":21,"RT":692,"MT":300,"sideResp":2,"stimulus":"img/500/equaldotanddens/R/12_Ratio_500_L_1_R_2.png","xmouse":[792,792,792,792,792,792,792,792,792,792,792,792,792,792,792,792,792,792,792,792,792,792,792,792,792,792,792,792,792,792,792,793,796,797,792,783,772,771,771,783,819,915,949,973,1005,1030,1049,1052,1058,1061],"ymouse":[543,543,543,543,543,543,543,543,543,543,543,543,543,543,543,543,543,543,543,543,543,543,543,543,543,543,543,543,543,543,543,541,533,491,457,435,401,397,387,368,344,275,249,236,212,193,160,150,84,18],"timestamp_mouse":[12,31,51,71,91,112,132,151,171,192,212,231,252,272,290,311,331,350,371,392,411,431,452,470,491,512,532,550,571,591,611,631,651,671,692,711,730,752,771,792,811,832,851,871,891,911,930,952,971,992],"xSR":741.5,"ySR":469.95,"xT1":424.9,"yT1":0,"xT2":1058.1,"yT2":0,"toosoon":0,"cond_shown":"equaldotanddens","ratio_trial":500,"smaller_num":"1","larger_num":"2","correct_side":2,"subjID":"juandavidradagiraldo31","gender":"0","age":"12","school":"6"},{"start_time":1551887682419,"click_time":1551887683363,"finger_time":1551887682982,"fix_duration":1474.232318590386,"trial":22,"RT":563,"MT":381,"sideResp":2,"stimulus":"img/250/equaldotsize/R/9_Ratio_250_L_3_R_12.png","xmouse":[777,777,777,777,777,777,777,777,777,777,777,777,777,777,777,777,777,777,777,777,777,777,777,777,777,778,783,816,885,907,917,925,932,941,943,945,954,983,1010,1025,1025,1025,1027,1037,1044,1054,1066,1083],"ymouse":[528,528,528,528,528,528,528,528,528,528,528,528,528,528,528,528,528,528,528,528,528,528,528,528,528,526,523,502,447,418,392,367,343,297,276,257,238,219,204,193,187,182,177,161,150,134,117,87],"timestamp_mouse":[9,29,43,64,84,105,125,143,165,185,204,225,244,265,285,305,324,344,364,385,405,423,443,465,484,504,524,545,563,583,604,624,645,664,683,704,724,745,764,785,804,824,844,864,884,903,924,944],"xSR":741.5,"ySR":469.95,"xT1":424.9,"yT1":0,"xT2":1058.1,"yT2":0,"toosoon":0,"cond_shown":"equaldotsize","ratio_trial":250,"smaller_num":"3","larger_num":"12","correct_side":2,"subjID":"juandavidradagiraldo31","gender":"0","age":"12","school":"6"},{"start_time":1551887684336,"click_time":1551887685264,"finger_time":1551887685083,"fix_duration":250,"trial":23,"RT":747,"MT":181,"sideResp":2,"stimulus":"img/500/randomdotsizeEA/L/11_Ratio_500_L_12_R_6.png","xmouse":[754,754,754,754,754,754,754,754,754,754,754,754,754,754,754,754,754,754,754,754,754,754,754,754,754,754,754,754,754,754,754,754,754,754,754,754,748,729,721,742,774,821,925,978,1026,1074,1100],"ymouse":[555,555,555,555,555,555,555,555,555,555,555,555,555,555,555,555,555,555,555,555,555,555,555,555,555,555,555,555,555,555,555,555,555,555,555,549,541,504,449,400,356,308,225,184,144,105,80],"timestamp_mouse":[8,28,48,68,87,107,127,148,167,187,207,228,247,268,287,307,327,348,367,387,408,427,448,468,488,507,526,547,568,587,608,626,647,668,687,707,727,747,766,787,807,828,847,866,887,906,928],"xSR":741.5,"ySR":469.95,"xT1":424.9,"yT1":0,"xT2":1058.1,"yT2":0,"toosoon":0,"cond_shown":"randomdotsizeEA","ratio_trial":500,"smaller_num":"6","larger_num":"12","correct_side":1,"subjID":"juandavidradagiraldo31","gender":"0","age":"12","school":"6"},{"start_time":1551887692020,"click_time":1551887692804,"finger_time":1551887692722,"fix_duration":996.8962414483699,"trial":24,"RT":702,"MT":82,"sideResp":1,"stimulus":"img/900/randomdotsizeEA/L/10_Ratio_900_L_20_R_18.png","xmouse":[787,787,787,787,787,787,787,787,788,788,788,788,788,788,788,787,787,787,787,787,787,787,787,787,787,787,787,787,787,787,787,787,787,784,775,752,702,625,547,460],"ymouse":[509,509,509,509,509,509,509,509,510,511,511,511,512,512,512,513,513,513,513,513,513,513,513,513,513,513,513,513,513,513,513,513,513,511,491,448,367,274,190,91],"timestamp_mouse":[6,31,42,64,83,102,124,143,164,184,203,223,243,263,284,304,323,344,364,382,404,422,444,464,483,503,524,543,563,582,603,623,643,663,683,702,724,743,764,783],"xSR":741.5,"ySR":469.95,"xT1":424.9,"yT1":0,"xT2":1058.1,"yT2":0,"toosoon":0,"cond_shown":"randomdotsizeEA","ratio_trial":900,"smaller_num":"18","larger_num":"20","correct_side":1,"subjID":"juandavidradagiraldo31","gender":"0","age":"12","school":"6"},{"start_time":1551887693798,"click_time":1551887695023,"finger_time":1551887694403,"fix_duration":273.69165626780034,"trial":25,"RT":605,"MT":620,"sideResp":2,"stimulus":"img/250/equaldotsize/R/4_Ratio_250_L_3_R_12.png","xmouse":[778,778,777,777,775,774,774,774,774,777,781,781,781,781,781,781,781,781,781,781,781,781,781,781,781,781,781,781,781,782,751,730,710,709,708,705,704,704,704,703,702,699,699,702,711,753,784,806,823,837,855,936,960,973,980,989,997,1005,1013,1020,1054,1073],"ymouse":[498,501,503,504,505,506,506,506,506,508,509,509,509,509,509,509,509,509,509,509,509,509,509,509,509,509,509,509,509,487,420,397,385,385,385,386,386,386,386,386,377,360,357,355,352,343,331,322,314,304,284,191,167,150,139,125,117,108,100,93,82,80],"timestamp_mouse":[5,25,49,65,85,105,126,145,165,185,205,224,244,266,284,304,326,346,364,386,405,425,445,465,485,505,525,546,565,585,605,625,645,664,685,706,725,745,765,784,805,825,845,866,885,906,925,945,965,985,1004,1025,1046,1065,1084,1106,1125,1145,1166,1186,1206,1225],"xSR":741.5,"ySR":469.95,"xT1":424.9,"yT1":0,"xT2":1058.1,"yT2":0,"toosoon":0,"cond_shown":"equaldotsize","ratio_trial":250,"smaller_num":"3","larger_num":"12","correct_side":2,"subjID":"juandavidradagiraldo31","gender":"0","age":"12","school":"6"},{"start_time":1551887698999,"click_time":1551887700283,"finger_time":1551887699843,"fix_duration":1374.73014593199,"trial":26,"RT":844,"MT":440,"sideResp":1,"stimulus":"img/900/randomdotsizeEA/L/10_Ratio_900_L_20_R_18.png","xmouse":[801,801,801,801,801,801,801,801,801,801,801,801,801,801,801,801,801,801,801,801,801,801,801,801,801,801,801,801,801,801,801,801,801,801,801,801,801,801,801,803,802,783,768,753,739,728,704,692,687,676,667,653,638,619,603,591,576,561,548,541,538,535,529,520,511],"ymouse":[528,528,528,528,528,528,528,528,528,528,528,528,528,528,528,528,528,528,528,528,528,528,528,528,528,528,528,528,528,528,528,528,528,528,528,528,528,528,528,525,515,483,464,449,434,418,374,338,324,283,262,218,195,176,167,161,155,153,152,149,146,138,126,111,93],"timestamp_mouse":[10,34,44,64,84,104,123,145,165,184,204,223,245,264,284,303,324,344,365,385,404,425,445,463,484,505,524,544,565,585,605,624,643,664,684,705,723,744,764,784,804,824,844,864,885,904,923,943,964,984,1004,1024,1043,1064,1084,1105,1124,1143,1164,1184,1204,1224,1244,1264,1284],"xSR":741.5,"ySR":469.95,"xT1":424.9,"yT1":0,"xT2":1058.1,"yT2":0,"toosoon":0,"cond_shown":"randomdotsizeEA","ratio_trial":900,"smaller_num":"18","larger_num":"20","correct_side":1,"subjID":"juandavidradagiraldo31","gender":"0","age":"12","school":"6"},{"start_time":1551887701747,"click_time":1551887702743,"finger_time":1551887702383,"fix_duration":823.8227188981356,"trial":27,"RT":636,"MT":360,"sideResp":2,"stimulus":"img/250/equaldotsize/R/9_Ratio_250_L_3_R_12.png","xmouse":[810,810,810,810,810,810,810,810,810,810,810,810,809,806,806,805,805,805,805,805,805,805,805,805,805,804,806,808,812,819,834,845,862,883,939,968,990,1009,1017,1016,1015,1015,1015,1019,1026,1032,1035,1039,1076,1100],"ymouse":[538,538,538,538,538,538,538,538,538,538,538,538,537,537,537,537,537,537,537,537,537,537,537,537,537,532,530,526,520,511,494,478,456,423,327,288,266,249,220,208,200,198,197,187,178,169,164,157,122,97],"timestamp_mouse":[16,36,57,76,96,116,136,156,176,195,217,237,257,276,295,316,337,356,376,397,415,437,456,477,496,517,536,557,577,596,616,636,656,676,696,715,736,757,776,795,817,837,856,876,895,916,936,956,976,996],"xSR":741.5,"ySR":469.95,"xT1":424.9,"yT1":0,"xT2":1058.1,"yT2":0,"toosoon":0,"cond_shown":"equaldotsize","ratio_trial":250,"smaller_num":"3","larger_num":"12","correct_side":2,"subjID":"juandavidradagiraldo31","gender":"0","age":"12","school":"6"},{"start_time":1551887703956,"click_time":1551887704963,"finger_time":1551887704684,"fix_duration":250,"trial":28,"RT":728,"MT":279,"sideResp":2,"stimulus":"img/750/randomdotsizeEA/L/1_Ratio_750_L_20_R_15.png","xmouse":[780,780,780,780,780,780,780,780,780,780,780,780,780,780,780,780,780,780,780,780,780,780,780,780,780,780,780,780,780,780,780,780,780,780,785,795,809,825,868,900,917,932,949,957,972,979,989,1001,1016,1056,1064],"ymouse":[512,512,512,512,512,512,512,512,512,512,512,512,512,512,512,512,512,512,512,512,512,512,512,512,512,512,512,512,512,512,512,512,512,512,499,477,446,406,313,266,241,215,177,149,107,96,89,87,87,87,88],"timestamp_mouse":[11,29,47,67,87,108,128,147,167,188,207,227,247,268,287,308,328,347,366,388,406,427,447,467,487,507,527,548,568,588,608,628,647,667,688,706,728,748,768,787,806,827,847,867,888,908,926,947,968,987,1007],"xSR":741.5,"ySR":469.95,"xT1":424.9,"yT1":0,"xT2":1058.1,"yT2":0,"toosoon":0,"cond_shown":"randomdotsizeEA","ratio_trial":750,"smaller_num":"15","larger_num":"20","correct_side":1,"subjID":"juandavidradagiraldo31","gender":"0","age":"12","school":"6"},{"start_time":1551887706169,"click_time":1551887706923,"finger_time":1551887706742,"fix_duration":364.68719005202246,"trial":29,"RT":573,"MT":181,"sideResp":2,"stimulus":"img/250/equaldotsize/R/4_Ratio_250_L_3_R_12.png","xmouse":[767,767,767,767,767,767,767,767,767,767,767,767,767,767,767,767,767,767,767,767,767,767,767,767,767,767,769,774,811,845,882,920,958,1016,1035,1046,1058,1062],"ymouse":[517,517,517,517,517,517,517,517,517,517,517,517,517,517,517,517,516,516,513,512,511,511,511,511,510,509,506,500,453,394,332,266,197,101,78,65,55,51],"timestamp_mouse":[15,34,54,74,94,115,133,153,174,194,214,235,253,274,295,314,334,355,373,394,415,434,453,475,494,515,535,554,573,594,614,633,653,673,694,714,735,754],"xSR":741.5,"ySR":469.95,"xT1":424.9,"yT1":0,"xT2":1058.1,"yT2":0,"toosoon":0,"cond_shown":"equaldotsize","ratio_trial":250,"smaller_num":"3","larger_num":"12","correct_side":2,"subjID":"juandavidradagiraldo31","gender":"0","age":"12","school":"6"},{"start_time":1551887707806,"click_time":1551887708864,"finger_time":1551887708143,"fix_duration":261.0710641999165,"trial":30,"RT":337,"MT":721,"sideResp":1,"stimulus":"img/900/equaldotsize/L/1_Ratio_900_L_10_R_9.png","xmouse":[826,826,826,826,826,826,826,826,826,826,826,826,826,826,825,828,849,872,890,901,910,929,935,938,939,941,941,941,941,941,941,941,941,941,941,941,941,941,941,941,941,941,941,931,920,879,831,805,759,692,621,527,487],"ymouse":[541,541,541,541,541,541,541,541,541,541,541,541,541,541,539,530,485,419,359,316,281,240,230,226,225,224,224,224,224,224,224,224,224,224,224,224,224,224,224,224,224,224,224,224,225,228,224,216,196,168,135,87,69],"timestamp_mouse":[17,36,57,77,96,117,137,158,177,197,217,237,257,278,297,317,337,356,377,397,417,438,457,477,497,517,538,557,577,596,617,637,658,677,697,717,737,756,777,798,817,837,858,878,896,918,936,956,978,998,1017,1037,1058],"xSR":741.5,"ySR":469.95,"xT1":424.9,"yT1":0,"xT2":1058.1,"yT2":0,"toosoon":0,"cond_shown":"equaldotsize","ratio_trial":900,"smaller_num":"9","larger_num":"10","correct_side":1,"subjID":"juandavidradagiraldo31","gender":"0","age":"12","school":"6"},{"start_time":1551887710657,"click_time":1551887711783,"finger_time":1551887711444,"fix_duration":951.1284275513401,"trial":31,"RT":787,"MT":339,"sideResp":2,"stimulus":"img/750/equaldotanddens/R/7_Ratio_750_L_3_R_4.png","xmouse":[790,790,790,790,790,791,791,791,792,792,792,792,792,792,792,792,793,794,795,795,795,795,795,795,795,795,795,795,795,795,795,795,795,795,797,801,808,822,834,846,877,907,921,931,953,961,969,983,987,1000,1004,1007,1010,1018,1029,1046,1062],"ymouse":[561,561,559,558,556,553,551,550,550,550,550,550,550,550,550,545,540,534,530,524,523,522,522,522,522,522,522,522,522,522,522,522,522,522,521,519,512,494,477,459,410,352,322,299,264,253,185,154,147,119,110,106,101,96,89,73,60],"timestamp_mouse":[11,30,46,66,86,106,127,147,166,186,207,227,247,265,285,306,325,346,366,386,407,426,445,466,486,506,526,546,567,586,606,627,647,665,686,707,726,746,767,787,806,825,846,867,887,905,926,947,966,986,1006,1026,1047,1067,1086,1107,1126],"xSR":741.5,"ySR":469.95,"xT1":424.9,"yT1":0,"xT2":1058.1,"yT2":0,"toosoon":0,"cond_shown":"equaldotanddens","ratio_trial":750,"smaller_num":"3","larger_num":"4","correct_side":2,"subjID":"juandavidradagiraldo31","gender":"0","age":"12","school":"6"},{"start_time":1551887716400,"click_time":1551887717283,"finger_time":1551887717063,"fix_duration":316.4740693725002,"trial":32,"RT":663,"MT":220,"sideResp":1,"stimulus":"img/500/equaldotsize/L/4_Ratio_500_L_18_R_9.png","xmouse":[794,794,794,794,794,794,794,794,794,794,794,794,794,794,794,794,794,794,794,794,794,794,797,801,804,805,805,805,805,805,805,805,805,797,777,746,709,674,598,559,553,548,540,530,524],"ymouse":[507,507,507,507,507,507,507,507,507,507,507,507,507,507,507,507,507,507,507,507,507,507,504,495,491,489,488,487,487,487,487,487,485,467,444,409,363,319,216,140,124,106,90,84,83],"timestamp_mouse":[21,24,44,64,83,103,124,144,164,184,204,222,244,264,283,303,324,343,363,384,403,423,444,463,484,504,522,543,562,584,604,624,643,663,684,702,723,744,763,784,804,823,843,863,883],"xSR":741.5,"ySR":469.95,"xT1":424.9,"yT1":0,"xT2":1058.1,"yT2":0,"toosoon":0,"cond_shown":"equaldotsize","ratio_trial":500,"smaller_num":"9","larger_num":"18","correct_side":1,"subjID":"juandavidradagiraldo31","gender":"0","age":"12","school":"6"},{"start_time":1551887719206,"click_time":1551887720502,"finger_time":1551887720084,"fix_duration":1102.0020514832358,"trial":33,"RT":878,"MT":418,"sideResp":1,"stimulus":"img/500/equaldotanddens/L/10_Ratio_500_L_4_R_2.png","xmouse":[797,797,797,797,797,797,797,797,797,797,797,797,797,797,797,797,797,797,797,797,797,797,797,797,797,797,797,797,797,797,797,797,797,797,797,797,797,797,797,797,797,796,778,611,513,437,394,380,391,397,397,397,397,397,397,397,605,622,638,638,632,616,592,539,511],"ymouse":[549,549,549,549,549,549,549,549,549,549,549,549,549,549,549,549,549,549,549,549,549,549,549,549,549,549,549,549,549,549,549,549,549,549,549,549,549,549,549,549,549,549,525,346,250,174,123,86,45,31,31,31,31,31,31,31,1,8,15,17,24,33,46,58,58],"timestamp_mouse":[17,36,57,77,98,117,138,157,177,197,217,237,257,276,297,318,337,357,377,397,417,438,458,478,498,517,537,556,576,596,616,636,657,677,696,717,738,757,776,798,818,837,857,878,897,917,938,956,977,997,1018,1037,1058,1077,1097,1118,1138,1157,1177,1197,1217,1237,1257,1277,1296],"xSR":741.5,"ySR":469.95,"xT1":424.9,"yT1":0,"xT2":1058.1,"yT2":0,"toosoon":0,"cond_shown":"equaldotanddens","ratio_trial":500,"smaller_num":"2","larger_num":"4","correct_side":1,"subjID":"juandavidradagiraldo31","gender":"0","age":"12","school":"6"},{"start_time":1551887722116,"click_time":1551887723003,"finger_time":1551887722764,"fix_duration":250,"trial":34,"RT":648,"MT":239,"sideResp":2,"stimulus":"img/500/equaldotsize/R/3_Ratio_500_L_10_R_20.png","xmouse":[770,769,768,767,767,767,767,767,767,767,767,767,767,767,767,767,767,767,767,767,767,767,767,767,767,767,767,767,767,767,771,777,787,828,836,847,869,908,987,1009,1026,1039,1058,1088,1103],"ymouse":[490,491,491,492,492,492,492,492,492,492,492,492,492,492,492,492,492,492,492,492,492,492,492,492,492,492,492,492,492,492,487,480,469,431,413,378,312,250,173,157,146,136,119,100,93],"timestamp_mouse":[8,28,48,67,87,108,127,146,168,188,206,227,248,266,287,308,327,346,367,387,407,427,446,468,487,506,527,547,568,587,608,628,648,667,688,708,728,747,767,787,808,827,848,867,887],"xSR":741.5,"ySR":469.95,"xT1":424.9,"yT1":0,"xT2":1058.1,"yT2":0,"toosoon":0,"cond_shown":"equaldotsize","ratio_trial":500,"smaller_num":"10","larger_num":"20","correct_side":2,"subjID":"juandavidradagiraldo31","gender":"0","age":"12","school":"6"},{"start_time":1551887724598,"click_time":1551887725423,"finger_time":1551887725282,"fix_duration":913.2515798905933,"trial":35,"RT":684,"MT":141,"sideResp":1,"stimulus":"img/900/equaldotanddens/L/2_Ratio_900_L_20_R_18.png","xmouse":[773,774,775,776,776,776,776,776,776,776,776,777,778,781,786,788,789,792,793,794,794,794,794,794,794,794,794,794,794,794,794,791,783,756,716,711,701,680,630,552,526,514],"ymouse":[513,512,512,511,511,511,511,511,511,511,511,509,509,506,500,496,493,486,484,479,478,478,478,478,478,478,478,478,478,478,478,478,478,482,479,467,442,400,313,157,95,66],"timestamp_mouse":[8,26,46,66,85,106,125,145,165,185,205,225,244,264,285,305,326,346,364,385,406,425,446,466,484,505,524,545,566,585,604,625,646,666,684,705,726,746,765,785,805,825],"xSR":741.5,"ySR":469.95,"xT1":424.9,"yT1":0,"xT2":1058.1,"yT2":0,"toosoon":0,"cond_shown":"equaldotanddens","ratio_trial":900,"smaller_num":"18","larger_num":"20","correct_side":1,"subjID":"juandavidradagiraldo31","gender":"0","age":"12","school":"6"},{"start_time":1551887726990,"click_time":1551887727943,"finger_time":1551887727383,"fix_duration":503.0740333722545,"trial":36,"RT":393,"MT":560,"sideResp":1,"stimulus":"img/250/equaldotsize/L/1_Ratio_250_L_8_R_2.png","xmouse":[760,760,760,760,760,760,760,760,760,760,760,760,760,760,760,760,760,760,764,776,783,788,789,789,789,789,789,789,789,787,785,782,779,774,769,750,728,710,693,649,616,586,562,548,538,521,512,507],"ymouse":[508,508,508,508,508,508,508,508,508,508,508,508,508,508,508,508,508,509,497,461,446,437,434,434,434,434,434,434,435,438,440,442,443,443,443,435,420,407,389,315,266,227,198,182,167,132,104,91],"timestamp_mouse":[13,36,54,73,93,114,134,153,173,193,214,233,253,273,293,312,332,353,373,393,412,434,453,472,494,513,534,553,573,593,612,633,652,673,693,714,733,753,773,793,812,833,852,872,893,914,933,953],"xSR":741.5,"ySR":469.95,"xT1":424.9,"yT1":0,"xT2":1058.1,"yT2":0,"toosoon":0,"cond_shown":"equaldotsize","ratio_trial":250,"smaller_num":"2","larger_num":"8","correct_side":1,"subjID":"juandavidradagiraldo31","gender":"0","age":"12","school":"6"},{"start_time":1551887728796,"click_time":1551887730463,"finger_time":1551887729563,"fix_duration":250,"trial":37,"RT":767,"MT":900,"sideResp":2,"stimulus":"img/750/randomdotsizeEA/L/8_Ratio_750_L_4_R_3.png","xmouse":[786,786,786,786,786,786,786,786,786,786,786,786,786,786,786,786,786,786,786,786,786,786,786,786,786,786,786,786,786,786,786,787,787,789,793,809,813,813,813,813,813,813,813,813,813,813,813,813,813,813,813,813,811,806,797,788,788,788,788,788,788,788,788,788,788,788,788,788,795,802,827,843,866,888,913,972,1000,1026,1042,1052,1055,1057,1062,1071],"ymouse":[517,517,517,517,517,517,517,517,517,517,517,517,517,517,517,517,517,517,517,517,517,517,517,517,517,517,517,517,517,517,517,518,518,517,510,480,472,470,468,468,468,468,468,468,468,471,479,487,494,499,510,513,517,524,532,540,540,540,540,540,540,540,540,540,540,540,540,540,534,528,490,464,431,398,357,261,218,182,158,139,133,125,112,93],"timestamp_mouse":[16,32,47,67,87,106,127,147,168,188,207,228,246,267,287,307,327,347,368,387,407,427,448,467,487,506,528,548,567,586,607,628,647,668,687,707,728,747,767,787,807,828,847,868,887,907,927,947,968,986,1007,1027,1048,1068,1088,1107,1126,1148,1166,1187,1207,1228,1248,1267,1286,1308,1328,1347,1367,1388,1406,1427,1447,1467,1487,1507,1528,1546,1568,1588,1606,1627,1648,1667],"xSR":741.5,"ySR":469.95,"xT1":424.9,"yT1":0,"xT2":1058.1,"yT2":0,"toosoon":0,"cond_shown":"randomdotsizeEA","ratio_trial":750,"smaller_num":"3","larger_num":"4","correct_side":1,"subjID":"juandavidradagiraldo31","gender":"0","age":"12","school":"6"},{"start_time":1551887732477,"click_time":1551887733343,"finger_time":1551887733183,"fix_duration":1293.3661233514104,"trial":38,"RT":706,"MT":160,"sideResp":1,"stimulus":"img/750/equaldotsize/L/13_Ratio_750_L_8_R_6.png","xmouse":[772,772,772,772,772,772,772,772,772,772,772,772,772,772,772,772,772,772,772,772,772,772,772,772,772,772,772,772,772,772,772,772,772,765,745,711,636,609,591,581,575,546,527,504],"ymouse":[540,540,540,540,540,540,540,540,540,540,540,540,540,540,540,540,540,540,540,540,540,540,540,540,540,540,540,540,540,540,540,540,540,532,500,453,354,294,236,181,145,80,61,47],"timestamp_mouse":[8,25,46,65,86,106,126,146,165,187,206,225,247,266,286,307,325,347,367,386,406,426,447,466,486,506,525,546,566,587,606,626,647,667,686,706,727,746,765,785,806,826,846,865],"xSR":741.5,"ySR":469.95,"xT1":424.9,"yT1":0,"xT2":1058.1,"yT2":0,"toosoon":0,"cond_shown":"equaldotsize","ratio_trial":750,"smaller_num":"6","larger_num":"8","correct_side":1,"subjID":"juandavidradagiraldo31","gender":"0","age":"12","school":"6"},{"start_time":1551887735022,"click_time":1551887735803,"finger_time":1551887735703,"fix_duration":1158.372946510459,"trial":39,"RT":681,"MT":100,"sideResp":1,"stimulus":"img/250/randomdotsizeEA/L/14_Ratio_250_L_12_R_3.png","xmouse":[770,770,770,770,770,770,770,770,770,770,770,770,770,770,770,770,770,770,770,770,770,770,770,770,770,770,770,770,770,770,770,770,770,770,712,661,607,557,517,487],"ymouse":[498,498,498,498,498,498,498,498,498,498,498,498,498,498,498,498,498,498,498,498,498,498,498,498,498,498,498,498,498,498,498,498,498,493,402,335,259,178,109,52],"timestamp_mouse":[9,27,41,61,81,101,121,140,161,181,201,221,241,261,281,301,322,341,361,380,401,421,440,461,481,502,522,540,561,581,601,620,641,661,681,701,721,741,761,781],"xSR":741.5,"ySR":469.95,"xT1":424.9,"yT1":0,"xT2":1058.1,"yT2":0,"toosoon":0,"cond_shown":"randomdotsizeEA","ratio_trial":250,"smaller_num":"3","larger_num":"12","correct_side":1,"subjID":"juandavidradagiraldo31","gender":"0","age":"12","school":"6"},{"start_time":1551887737705,"click_time":1551887739022,"finger_time":1551887738422,"fix_duration":1161.215878412813,"trial":40,"RT":717,"MT":600,"sideResp":1,"stimulus":"img/750/equaldotanddens/L/14_Ratio_750_L_8_R_6.png","xmouse":[789,789,789,789,789,789,789,789,789,789,789,789,789,789,789,789,789,789,789,789,789,789,789,789,789,789,789,789,789,789,789,789,783,777,766,732,708,700,697,695,695,695,695,695,695,695,695,695,695,695,695,692,688,681,675,668,660,651,637,622,596,585,571,552,529,486],"ymouse":[527,527,527,527,527,527,527,527,527,527,527,527,527,527,527,527,527,527,527,527,527,527,527,527,527,527,527,527,527,527,527,527,515,505,485,425,384,368,361,358,358,358,358,358,358,358,358,358,358,358,358,356,353,346,340,300,266,240,220,198,160,143,126,105,87,16],"timestamp_mouse":[17,38,57,77,97,117,138,157,177,197,218,238,259,278,298,317,338,357,377,398,417,438,458,478,498,517,538,557,577,597,619,637,657,678,697,717,737,757,778,799,817,837,857,877,898,918,938,957,978,999,1017,1038,1058,1077,1098,1117,1138,1157,1177,1197,1217,1238,1258,1277,1297,1317],"xSR":741.5,"ySR":469.95,"xT1":424.9,"yT1":0,"xT2":1058.1,"yT2":0,"toosoon":0,"cond_shown":"equaldotanddens","ratio_trial":750,"smaller_num":"6","larger_num":"8","correct_side":1,"subjID":"juandavidradagiraldo31","gender":"0","age":"12","school":"6"},{"start_time":1551887742340,"click_time":1551887743523,"finger_time":1551887743063,"fix_duration":977.8350374638941,"trial":41,"RT":723,"MT":460,"sideResp":2,"stimulus":"img/750/randomdotsizeEA/R/2_Ratio_750_L_6_R_8.png","xmouse":[805,805,805,805,805,805,805,805,805,805,805,805,805,805,805,805,805,805,805,805,805,805,805,805,805,805,805,805,805,805,805,805,805,805,806,805,805,806,814,859,889,917,976,1017,1047,1047,1047,1047,1047,1047,1047,1047,1047,1047,1047,1047,1047,1047,1047,1114],"ymouse":[484,484,484,484,484,484,484,484,484,484,484,484,484,484,484,484,484,484,484,484,484,484,484,484,484,484,484,484,484,484,484,484,484,484,479,471,463,452,435,359,306,241,127,56,7,7,7,7,7,7,7,7,7,7,7,7,7,7,7,5],"timestamp_mouse":[8,31,42,63,82,103,123,142,164,182,202,222,242,262,284,302,323,342,362,382,402,422,442,463,483,503,522,542,562,582,603,622,643,663,682,703,723,742,762,783,804,822,842,862,882,903,923,943,963,984,1002,1022,1042,1063,1082,1103,1122,1142,1163,1183],"xSR":741.5,"ySR":469.95,"xT1":424.9,"yT1":0,"xT2":1058.1,"yT2":0,"toosoon":0,"cond_shown":"randomdotsizeEA","ratio_trial":750,"smaller_num":"6","larger_num":"8","correct_side":2,"subjID":"juandavidradagiraldo31","gender":"0","age":"12","school":"6"},{"start_time":1551887745445,"click_time":1551887746082,"finger_time":1551887745863,"fix_duration":1121.1371898590064,"trial":42,"RT":418,"MT":219,"sideResp":2,"stimulus":"img/500/equaldotanddens/R/6_Ratio_500_L_9_R_18.png","xmouse":[790,790,790,790,790,790,790,790,790,790,790,790,790,790,790,790,789,789,814,838,880,922,952,992,1017,1034,1050,1066,1074,1079,1079,1077],"ymouse":[519,519,519,519,519,519,519,519,519,519,519,519,519,519,519,519,518,516,499,486,464,440,420,393,370,349,314,271,227,148,117,93],"timestamp_mouse":[29,37,57,77,97,117,138,158,178,198,217,238,258,278,298,317,337,358,379,398,418,438,457,477,497,518,537,558,578,597,617,637],"xSR":741.5,"ySR":469.95,"xT1":424.9,"yT1":0,"xT2":1058.1,"yT2":0,"toosoon":0,"cond_shown":"equaldotanddens","ratio_trial":500,"smaller_num":"9","larger_num":"18","correct_side":2,"subjID":"juandavidradagiraldo31","gender":"0","age":"12","school":"6"},{"start_time":1551887747199,"click_time":1551887748042,"finger_time":1551887747763,"fix_duration":254.91878916973266,"trial":43,"RT":564,"MT":279,"sideResp":2,"stimulus":"img/750/equaldotanddens/R/3_Ratio_750_L_15_R_20.png","xmouse":[767,767,767,767,767,767,767,767,767,767,767,767,767,767,767,767,767,767,767,767,767,767,766,777,790,800,809,839,858,880,905,927,960,976,990,1008,1026,1079,1086,1095,1103,1110,1113],"ymouse":[506,506,506,506,506,506,506,506,506,506,506,506,506,506,506,506,506,506,506,506,506,506,506,502,498,496,495,491,485,479,471,464,448,435,418,398,378,265,221,179,149,127,84],"timestamp_mouse":[5,23,51,64,84,103,124,143,163,183,203,223,244,263,284,303,323,344,365,383,404,423,444,465,483,503,523,543,564,584,604,623,643,664,684,703,723,744,764,784,803,823,843],"xSR":741.5,"ySR":469.95,"xT1":424.9,"yT1":0,"xT2":1058.1,"yT2":0,"toosoon":0,"cond_shown":"equaldotanddens","ratio_trial":750,"smaller_num":"15","larger_num":"20","correct_side":2,"subjID":"juandavidradagiraldo31","gender":"0","age":"12","school":"6"},{"start_time":1551887749661,"click_time":1551887750523,"finger_time":1551887750142,"fix_duration":918.8838657108226,"trial":44,"RT":481,"MT":381,"sideResp":2,"stimulus":"img/900/equaldotsize/L/10_Ratio_900_L_20_R_18.png","xmouse":[769,769,769,769,769,769,769,769,769,769,769,769,769,769,769,769,769,769,769,769,769,769,771,782,846,893,931,961,979,1003,1018,1035,1050,1058,1076,1082,1086,1086,1086,1093,1096,1098,1101,1102],"ymouse":[555,555,555,555,555,555,555,555,555,555,555,555,555,555,555,555,555,555,555,555,555,555,555,555,549,541,536,530,526,510,490,458,418,383,320,289,249,215,187,147,129,110,100,97],"timestamp_mouse":[10,32,42,62,83,102,122,141,161,182,202,223,243,261,281,302,322,341,361,382,401,422,442,462,481,502,521,541,561,582,601,621,643,663,681,702,722,742,762,782,802,821,842,862],"xSR":741.5,"ySR":469.95,"xT1":424.9,"yT1":0,"xT2":1058.1,"yT2":0,"toosoon":0,"cond_shown":"equaldotsize","ratio_trial":900,"smaller_num":"18","larger_num":"20","correct_side":1,"subjID":"juandavidradagiraldo31","gender":"0","age":"12","school":"6"},{"start_time":1551887752579,"click_time":1551887753542,"finger_time":1551887753342,"fix_duration":1253.6751124895163,"trial":45,"RT":763,"MT":200,"sideResp":2,"stimulus":"img/750/randomdotsizeEA/L/1_Ratio_750_L_20_R_15.png","xmouse":[806,806,806,806,806,806,806,806,806,806,806,806,806,806,806,806,806,806,806,806,806,806,806,806,806,806,806,806,806,806,806,806,806,806,806,806,806,809,843,885,937,994,1029,1040,1040,1048,1055,1064,1096],"ymouse":[523,523,523,523,523,523,523,523,523,523,523,523,523,523,523,523,523,523,523,523,523,523,523,523,523,523,523,523,523,523,523,523,523,523,523,523,523,523,504,480,443,391,333,228,199,159,135,113,68],"timestamp_mouse":[8,33,44,64,83,104,125,143,163,183,203,223,244,263,283,304,323,344,363,385,403,423,445,463,484,505,523,543,563,583,604,624,643,664,683,703,724,744,763,783,803,823,844,863,883,903,923,943,963],"xSR":741.5,"ySR":469.95,"xT1":424.9,"yT1":0,"xT2":1058.1,"yT2":0,"toosoon":0,"cond_shown":"randomdotsizeEA","ratio_trial":750,"smaller_num":"15","larger_num":"20","correct_side":1,"subjID":"juandavidradagiraldo31","gender":"0","age":"12","school":"6"},{"start_time":1551887754835,"click_time":1551887755644,"finger_time":1551887755483,"fix_duration":570.3113361582992,"trial":46,"RT":648,"MT":161,"sideResp":2,"stimulus":"img/250/equaldotsize/R/9_Ratio_250_L_3_R_12.png","xmouse":[791,791,791,791,791,791,791,791,791,791,791,791,791,791,791,791,791,791,791,791,790,790,790,790,790,790,790,790,790,790,791,821,897,948,996,1029,1061,1063,1063,1063,1068],"ymouse":[544,544,544,544,544,544,544,544,544,544,544,544,544,544,544,544,544,544,541,539,531,529,528,528,528,528,528,528,528,528,527,508,445,391,332,283,204,175,149,126,84],"timestamp_mouse":[8,35,47,68,87,109,128,147,167,188,207,227,247,267,287,308,327,349,368,387,408,428,447,468,487,508,528,547,568,587,607,628,648,668,687,707,727,747,768,787,809],"xSR":741.5,"ySR":469.95,"xT1":424.9,"yT1":0,"xT2":1058.1,"yT2":0,"toosoon":0,"cond_shown":"equaldotsize","ratio_trial":250,"smaller_num":"3","larger_num":"12","correct_side":2,"subjID":"juandavidradagiraldo31","gender":"0","age":"12","school":"6"},{"start_time":1551887757075,"click_time":1551887758003,"finger_time":1551887757603,"fix_duration":572.8354156403352,"trial":47,"RT":528,"MT":400,"sideResp":1,"stimulus":"img/250/equaldotanddens/L/3_Ratio_250_L_8_R_2.png","xmouse":[818,818,818,818,818,818,818,818,818,818,818,818,818,818,818,818,818,818,818,818,818,818,818,816,812,804,791,774,750,660,628,609,597,591,579,576,574,570,565,551,550,549,547,542,532,527,521],"ymouse":[534,534,534,534,534,534,534,534,534,534,534,534,534,534,534,534,534,534,534,534,534,534,534,533,518,493,449,389,328,168,119,93,79,70,58,56,56,55,54,52,52,52,52,52,50,50,49],"timestamp_mouse":[11,30,49,68,88,108,127,147,167,187,208,228,247,268,287,307,327,349,367,387,408,427,448,467,487,507,528,548,567,587,607,628,648,667,688,707,727,747,768,787,807,827,848,867,888,907,928],"xSR":741.5,"ySR":469.95,"xT1":424.9,"yT1":0,"xT2":1058.1,"yT2":0,"toosoon":0,"cond_shown":"equaldotanddens","ratio_trial":250,"smaller_num":"2","larger_num":"8","correct_side":1,"subjID":"juandavidradagiraldo31","gender":"0","age":"12","school":"6"},{"start_time":1551887761112,"click_time":1551887762022,"finger_time":1551887761524,"fix_duration":908.1118137518993,"trial":48,"RT":412,"MT":498,"sideResp":1,"stimulus":"img/250/equaldotanddens/L/5_Ratio_250_L_24_R_6.png","xmouse":[803,802,800,792,791,790,790,790,789,789,789,789,789,789,789,789,789,789,789,787,784,771,722,692,672,656,653,647,617,602,595,592,581,565,548,528,523,523,523,522,520,519,518,518,518,518],"ymouse":[485,485,484,481,481,481,481,481,482,482,482,482,482,482,482,482,482,482,482,474,466,439,372,344,330,316,310,297,259,240,229,219,192,175,156,136,128,123,118,116,114,113,108,103,102,93],"timestamp_mouse":[10,30,50,71,90,111,131,150,171,190,210,230,251,271,290,310,330,350,370,391,412,430,450,470,491,510,530,551,571,590,610,630,651,670,691,711,730,751,771,790,810,830,851,870,890,910],"xSR":741.5,"ySR":469.95,"xT1":424.9,"yT1":0,"xT2":1058.1,"yT2":0,"toosoon":0,"cond_shown":"equaldotanddens","ratio_trial":250,"smaller_num":"6","larger_num":"24","correct_side":1,"subjID":"juandavidradagiraldo31","gender":"0","age":"12","school":"6"},{"start_time":1551887764281,"click_time":1551887765203,"finger_time":1551887764742,"fix_duration":1316.1855066591138,"trial":49,"RT":461,"MT":461,"sideResp":1,"stimulus":"img/500/equaldotanddens/L/4_Ratio_500_L_18_R_9.png","xmouse":[800,800,800,800,800,800,800,800,800,800,800,800,800,800,800,800,800,800,800,800,799,791,772,737,675,564,547,537,532,531,532,537,541,543,543,538,534,529,527,524,523,521,519,517,517,517,517],"ymouse":[523,523,523,523,523,523,523,523,523,523,523,523,523,523,523,523,523,523,523,523,523,523,516,498,473,414,396,384,376,371,349,329,309,283,263,218,207,196,193,181,176,171,165,156,142,103,89],"timestamp_mouse":[9,31,42,61,81,101,121,142,161,181,201,221,241,261,281,302,321,342,362,381,402,421,442,461,482,501,521,542,563,581,601,621,642,662,682,701,722,741,762,782,801,821,842,862,881,901,922],"xSR":741.5,"ySR":469.95,"xT1":424.9,"yT1":0,"xT2":1058.1,"yT2":0,"toosoon":0,"cond_shown":"equaldotanddens","ratio_trial":500,"smaller_num":"9","larger_num":"18","correct_side":1,"subjID":"juandavidradagiraldo31","gender":"0","age":"12","school":"6"},{"start_time":1551887768009,"click_time":1551887768744,"finger_time":1551887768282,"fix_duration":665.2656093027384,"trial":50,"RT":273,"MT":462,"sideResp":1,"stimulus":"img/500/randomdotsizeEA/L/7_Ratio_500_L_10_R_5.png","xmouse":[780,779,779,779,779,779,779,779,779,779,779,774,773,770,762,742,732,707,685,672,662,652,630,571,557,555,555,555,555,555,555,555,555,555,555,555,470],"ymouse":[476,476,476,476,476,476,476,476,476,476,476,474,473,463,450,410,387,315,223,179,142,118,89,32,9,1,1,1,1,1,1,1,1,1,1,1,7],"timestamp_mouse":[13,34,54,74,94,114,134,154,174,194,213,234,253,273,293,313,333,354,373,394,413,434,453,473,493,513,534,553,573,593,613,634,654,673,694,714,735],"xSR":741.5,"ySR":469.95,"xT1":424.9,"yT1":0,"xT2":1058.1,"yT2":0,"toosoon":0,"cond_shown":"randomdotsizeEA","ratio_trial":500,"smaller_num":"5","larger_num":"10","correct_side":1,"subjID":"juandavidradagiraldo31","gender":"0","age":"12","school":"6"},{"start_time":1551887769874,"click_time":1551887770883,"finger_time":1551887770482,"fix_duration":250,"trial":51,"RT":608,"MT":401,"sideResp":2,"stimulus":"img/500/equaldotsize/R/15_Ratio_500_L_1_R_2.png","xmouse":[808,808,808,808,808,808,808,808,808,808,808,808,808,808,808,808,808,808,808,808,808,808,808,808,808,808,808,808,808,808,883,996,1079,1125,1141,1164,1167,1172,1182,1195,1195,1195,1195,1195,1195,1195,1195,1195,1195,1195,1086],"ymouse":[500,500,500,500,500,500,500,500,500,500,500,500,500,500,500,500,500,500,500,500,500,500,500,500,500,500,500,500,500,498,430,335,243,164,128,95,90,79,64,21,21,21,21,21,21,21,21,21,21,21,6],"timestamp_mouse":[8,35,48,68,88,110,129,148,168,190,209,228,248,268,289,310,328,348,368,389,408,428,448,468,488,510,528,548,568,589,608,628,649,668,690,708,728,748,769,788,809,829,849,869,889,909,928,949,968,989,1009],"xSR":741.5,"ySR":469.95,"xT1":424.9,"yT1":0,"xT2":1058.1,"yT2":0,"toosoon":0,"cond_shown":"equaldotsize","ratio_trial":500,"smaller_num":"1","larger_num":"2","correct_side":2,"subjID":"juandavidradagiraldo31","gender":"0","age":"12","school":"6"},{"start_time":1551887774522,"click_time":1551887775422,"finger_time":1551887775162,"fix_duration":1457.5768554185936,"trial":52,"RT":640,"MT":260,"sideResp":1,"stimulus":"img/750/equaldotsize/L/1_Ratio_750_L_20_R_15.png","xmouse":[803,803,803,803,803,803,803,803,803,803,803,803,803,803,803,803,803,803,803,803,803,803,803,803,803,803,803,803,803,803,803,805,805,795,692,675,666,663,662,660,658,648,628,602,532,507],"ymouse":[504,504,504,504,504,504,504,504,504,504,504,504,504,504,504,504,504,504,504,504,504,504,504,504,504,504,504,504,504,504,504,481,465,358,103,82,68,64,64,59,57,52,44,39,26,23],"timestamp_mouse":[8,21,40,61,80,100,121,141,161,181,201,220,240,260,280,300,321,340,361,381,400,420,442,460,481,501,521,540,560,580,602,621,640,660,680,701,722,741,760,780,801,820,840,861,881,900],"xSR":741.5,"ySR":469.95,"xT1":424.9,"yT1":0,"xT2":1058.1,"yT2":0,"toosoon":0,"cond_shown":"equaldotsize","ratio_trial":750,"smaller_num":"15","larger_num":"20","correct_side":1,"subjID":"juandavidradagiraldo31","gender":"0","age":"12","school":"6"},{"start_time":1551887776573,"click_time":1551887777822,"finger_time":1551887777463,"fix_duration":250,"trial":53,"RT":890,"MT":359,"sideResp":1,"stimulus":"img/900/equaldotanddens/L/4_Ratio_900_L_20_R_18.png","xmouse":[782,782,782,782,782,782,782,782,784,786,790,790,790,790,791,793,793,793,793,793,793,793,793,793,793,793,793,793,793,793,793,793,793,793,793,793,793,793,793,794,794,794,790,785,772,761,734,720,704,691,683,671,664,655,645,639,617,603,588,575,561,530,518],"ymouse":[537,537,537,537,537,537,537,537,537,536,536,536,536,536,534,533,533,533,533,533,533,533,533,533,533,533,533,533,533,533,533,533,533,533,533,533,533,532,532,532,530,524,511,494,455,421,330,298,271,250,233,213,202,195,186,183,169,156,141,125,110,84,77],"timestamp_mouse":[9,32,49,71,90,109,129,149,169,189,209,230,249,270,289,310,330,349,370,389,409,430,449,470,489,509,531,549,570,591,610,629,649,670,690,710,729,749,770,789,809,829,849,869,890,910,929,950,969,990,1009,1029,1050,1070,1089,1109,1129,1149,1169,1189,1209,1229,1249],"xSR":741.5,"ySR":469.95,"xT1":424.9,"yT1":0,"xT2":1058.1,"yT2":0,"toosoon":0,"cond_shown":"equaldotanddens","ratio_trial":900,"smaller_num":"18","larger_num":"20","correct_side":1,"subjID":"juandavidradagiraldo31","gender":"0","age":"12","school":"6"},{"start_time":1551887782114,"click_time":1551887783342,"finger_time":1551887782983,"fix_duration":1350.9040450529537,"trial":54,"RT":869,"MT":359,"sideResp":1,"stimulus":"img/750/equaldotsize/L/13_Ratio_750_L_8_R_6.png","xmouse":[796,796,796,796,796,796,796,796,796,796,796,796,796,796,796,796,796,796,796,796,796,796,796,796,796,796,796,796,796,796,796,796,796,796,796,796,796,796,796,796,796,795,793,787,737,647,598,547,528,523,511,502,493,488,487,487,487,487,487,487,487,487],"ymouse":[498,498,498,498,498,498,498,498,498,498,498,498,498,498,498,498,498,498,498,498,498,498,498,498,498,498,498,498,498,498,498,498,498,498,498,498,498,498,498,498,498,490,480,457,366,276,236,180,160,153,136,125,113,105,103,102,102,102,102,102,101,98],"timestamp_mouse":[10,33,48,68,89,110,129,148,170,188,209,230,249,269,288,309,329,348,368,389,410,429,448,469,488,508,529,548,569,588,609,629,649,669,688,708,730,749,768,789,808,828,849,869,890,909,929,948,969,989,1009,1028,1048,1068,1089,1109,1130,1149,1168,1188,1208,1228],"xSR":741.5,"ySR":469.95,"xT1":424.9,"yT1":0,"xT2":1058.1,"yT2":0,"toosoon":0,"cond_shown":"equaldotsize","ratio_trial":750,"smaller_num":"6","larger_num":"8","correct_side":1,"subjID":"juandavidradagiraldo31","gender":"0","age":"12","school":"6"},{"start_time":1551887785200,"click_time":1551887786242,"finger_time":1551887785922,"fix_duration":997.6643538646899,"trial":55,"RT":722,"MT":320,"sideResp":1,"stimulus":"img/250/randomdotsizeEA/L/14_Ratio_250_L_12_R_3.png","xmouse":[772,772,772,772,772,771,770,770,770,768,768,768,768,768,768,768,767,767,767,767,767,767,767,767,767,767,767,767,767,767,767,767,767,767,766,761,731,713,690,676,664,641,625,613,607,596,573,565,558,552,546,525,511],"ymouse":[519,519,519,519,519,518,518,518,518,518,518,518,518,518,518,518,518,518,518,518,518,518,518,518,518,518,518,518,518,518,518,518,518,518,515,501,429,386,341,309,273,213,190,178,172,163,136,122,112,105,99,88,81],"timestamp_mouse":[7,27,42,62,82,102,122,142,164,182,203,224,243,264,282,302,323,343,362,382,402,422,442,462,482,502,522,542,562,583,602,622,642,662,683,702,722,743,762,782,802,822,842,862,883,903,922,942,963,983,1003,1022,1042],"xSR":741.5,"ySR":469.95,"xT1":424.9,"yT1":0,"xT2":1058.1,"yT2":0,"toosoon":0,"cond_shown":"randomdotsizeEA","ratio_trial":250,"smaller_num":"3","larger_num":"12","correct_side":1,"subjID":"juandavidradagiraldo31","gender":"0","age":"12","school":"6"},{"start_time":1551887788594,"click_time":1551887790424,"finger_time":1551887790083,"fix_duration":250,"trial":56,"RT":1489,"MT":341,"sideResp":1,"stimulus":"img/750/equaldotanddens/L/9_Ratio_750_L_4_R_3.png","xmouse":[819,819,819,819,819,819,819,819,819,819,819,819,819,819,819,819,819,819,819,819,819,819,819,819,819,819,819,819,819,819,819,819,819,819,819,819,819,819,819,819,819,819,819,819,819,819,819,819,819,819,819,819,819,819,819,819,819,819,819,819,819,819,819,819,819,819,819,819,819,819,819,819,812,786,740,692,648,556,542,535,531,531,531,531,531,531,531,531,531,531,526,507],"ymouse":[550,550,550,550,550,550,550,550,550,550,550,550,550,550,550,550,550,550,550,550,550,550,550,550,550,550,550,550,550,550,550,550,550,550,550,550,550,550,550,550,550,550,550,550,550,550,550,550,550,550,550,550,550,550,550,550,550,550,550,550,550,550,550,550,550,550,550,550,550,550,550,549,541,507,437,371,311,184,151,131,117,113,113,112,111,110,102,76,74,73,66,51],"timestamp_mouse":[8,30,48,68,89,109,128,149,169,189,208,229,248,270,289,308,329,348,368,388,408,428,448,469,489,508,528,549,568,588,609,629,648,668,690,709,728,749,770,789,809,829,849,870,888,909,929,949,969,989,1009,1029,1049,1068,1088,1109,1128,1149,1168,1188,1209,1229,1249,1269,1288,1309,1329,1349,1369,1388,1409,1428,1448,1468,1489,1509,1528,1548,1568,1589,1609,1628,1648,1669,1688,1709,1728,1748,1768,1789,1810,1830],"xSR":741.5,"ySR":469.95,"xT1":424.9,"yT1":0,"xT2":1058.1,"yT2":0,"toosoon":0,"cond_shown":"equaldotanddens","ratio_trial":750,"smaller_num":"3","larger_num":"4","correct_side":1,"subjID":"juandavidradagiraldo31","gender":"0","age":"12","school":"6"},{"start_time":1551887791793,"click_time":1551887793003,"finger_time":1551887792722,"fix_duration":250,"trial":57,"RT":929,"MT":281,"sideResp":1,"stimulus":"img/250/randomdotsizeEA/L/3_Ratio_250_L_8_R_2.png","xmouse":[799,799,799,799,799,799,799,799,799,799,799,799,799,799,799,799,799,799,799,799,799,799,799,799,799,799,799,799,799,799,799,799,799,799,799,799,799,799,799,799,799,799,799,798,790,778,750,716,710,703,694,680,625,607,601,600,598,549,531,517,504],"ymouse":[547,547,547,547,547,547,547,547,547,547,547,547,547,547,547,547,547,547,547,547,547,548,548,548,548,548,548,548,548,548,548,548,548,548,548,548,548,548,548,548,548,548,548,543,528,492,392,327,318,311,305,292,234,216,210,209,206,151,130,109,90],"timestamp_mouse":[9,31,49,69,89,109,131,150,170,189,209,229,249,270,289,311,330,349,369,390,410,429,449,470,489,510,529,549,570,589,611,629,650,669,690,709,729,750,769,789,810,829,849,869,889,910,929,949,969,989,1010,1029,1049,1069,1089,1110,1129,1149,1170,1189,1210],"xSR":741.5,"ySR":469.95,"xT1":424.9,"yT1":0,"xT2":1058.1,"yT2":0,"toosoon":0,"cond_shown":"randomdotsizeEA","ratio_trial":250,"smaller_num":"2","larger_num":"8","correct_side":1,"subjID":"juandavidradagiraldo31","gender":"0","age":"12","school":"6"},{"start_time":1551887796166,"click_time":1551887797323,"finger_time":1551887796902,"fix_duration":582.5417239208211,"trial":58,"RT":736,"MT":421,"sideResp":1,"stimulus":"img/750/randomdotsizeEA/L/6_Ratio_750_L_24_R_18.png","xmouse":[810,811,811,811,811,811,811,811,811,811,811,811,811,811,811,811,811,811,811,811,811,811,811,811,811,811,811,811,811,811,811,811,811,811,808,797,786,768,720,696,680,659,637,598,584,566,530,530,530,530,530,530,530,530,530,530,530,451],"ymouse":[532,531,531,531,531,531,531,531,531,531,531,531,531,531,531,531,531,531,531,531,531,531,531,531,531,531,531,531,531,531,531,531,531,531,507,487,468,437,359,300,243,190,143,83,64,44,16,16,16,16,16,16,16,16,16,16,16,15],"timestamp_mouse":[17,38,58,76,96,117,136,156,176,197,216,236,257,276,296,316,336,357,376,396,416,436,457,476,497,518,536,556,576,597,616,636,656,676,696,717,736,756,776,796,816,836,857,876,896,917,936,956,977,997,1016,1036,1057,1077,1097,1116,1136,1157],"xSR":741.5,"ySR":469.95,"xT1":424.9,"yT1":0,"xT2":1058.1,"yT2":0,"toosoon":0,"cond_shown":"randomdotsizeEA","ratio_trial":750,"smaller_num":"18","larger_num":"24","correct_side":1,"subjID":"juandavidradagiraldo31","gender":"0","age":"12","school":"6"},{"start_time":1551887798534,"click_time":1551887799903,"finger_time":1551887799363,"fix_duration":250,"trial":59,"RT":829,"MT":540,"sideResp":2,"stimulus":"img/900/randomdotsizeEA/L/4_Ratio_900_L_20_R_18.png","xmouse":[800,800,800,800,800,800,800,800,800,800,800,800,800,800,800,800,800,800,800,800,800,800,800,800,800,800,800,800,800,800,800,800,800,800,800,800,800,800,800,801,805,822,837,858,879,906,922,931,941,947,961,973,996,1018,1029,1031,1032,1032,1032,1033,1033,1036,1038,1039,1043,1045,1054,1057,1061],"ymouse":[508,508,508,508,508,508,508,508,508,508,508,508,508,508,508,508,508,508,508,508,508,508,508,508,508,508,508,508,508,508,508,508,508,508,508,508,508,508,508,504,496,469,446,415,380,332,300,280,264,254,236,223,205,184,170,162,154,153,152,148,141,129,124,120,115,111,100,98,95],"timestamp_mouse":[19,37,48,68,87,107,127,149,169,187,207,228,247,269,287,308,329,347,369,389,407,427,447,469,488,508,528,548,567,588,608,630,647,668,688,708,728,748,768,788,808,829,848,869,888,909,928,948,968,987,1009,1028,1049,1068,1088,1108,1128,1149,1168,1188,1208,1228,1248,1268,1288,1307,1328,1348,1369],"xSR":741.5,"ySR":469.95,"xT1":424.9,"yT1":0,"xT2":1058.1,"yT2":0,"toosoon":0,"cond_shown":"randomdotsizeEA","ratio_trial":900,"smaller_num":"18","larger_num":"20","correct_side":1,"subjID":"juandavidradagiraldo31","gender":"0","age":"12","school":"6"},{"start_time":1551887801033,"click_time":1551887802582,"finger_time":1551887802123,"fix_duration":250,"trial":60,"RT":1090,"MT":459,"sideResp":1,"stimulus":"img/900/equaldotanddens/R/14_Ratio_900_L_18_R_20.png","xmouse":[765,765,765,765,765,765,765,765,765,769,771,773,773,773,773,773,773,773,773,773,773,773,773,773,773,773,773,773,773,773,773,773,773,773,773,773,773,773,773,773,773,773,773,773,773,773,773,773,773,773,773,786,793,801,804,804,804,801,791,759,737,721,708,673,613,571,560,560,560,555,546,533,528,525,525,525,525,524],"ymouse":[539,539,539,539,539,539,539,539,539,536,530,526,526,526,526,526,526,526,526,526,526,526,526,526,526,526,526,526,526,526,526,526,526,526,526,526,526,526,526,526,526,526,526,526,526,526,526,526,526,526,526,505,491,473,452,433,405,392,370,323,296,272,259,227,181,141,122,120,119,112,96,75,68,66,66,66,66,65],"timestamp_mouse":[9,38,49,69,89,108,129,150,170,190,209,229,250,270,289,310,330,349,370,390,409,429,449,468,490,509,530,550,568,589,609,629,649,670,690,708,729,750,770,790,808,829,850,869,890,910,929,950,969,989,1010,1029,1050,1068,1090,1109,1129,1149,1170,1190,1209,1228,1249,1269,1290,1308,1329,1348,1368,1389,1410,1429,1448,1469,1489,1510,1530,1549],"xSR":741.5,"ySR":469.95,"xT1":424.9,"yT1":0,"xT2":1058.1,"yT2":0,"toosoon":0,"cond_shown":"equaldotanddens","ratio_trial":900,"smaller_num":"18","larger_num":"20","correct_side":2,"subjID":"juandavidradagiraldo31","gender":"0","age":"12","school":"6"},{"start_time":1551887806152,"click_time":1551887807163,"finger_time":1551887806961,"fix_duration":1167.1935414432921,"trial":61,"RT":809,"MT":202,"sideResp":1,"stimulus":"img/500/equaldotanddens/L/10_Ratio_500_L_4_R_2.png","xmouse":[801,801,801,801,801,801,801,801,801,801,801,801,801,801,801,801,801,801,801,801,801,801,801,801,801,801,801,801,801,801,801,801,801,801,801,801,801,801,797,782,760,691,661,627,605,587,582,574,566,552,524],"ymouse":[541,541,541,541,541,541,541,541,541,541,541,541,541,541,541,541,541,541,541,541,541,541,541,541,541,541,541,541,541,541,541,541,541,541,541,541,541,532,516,479,425,289,245,203,176,153,146,137,129,118,98],"timestamp_mouse":[11,38,50,69,91,109,130,150,170,191,210,230,249,271,289,311,331,349,369,391,410,431,451,470,490,509,531,551,570,590,609,631,651,670,691,709,729,750,770,790,809,830,851,871,889,911,930,950,970,990,1011],"xSR":741.5,"ySR":469.95,"xT1":424.9,"yT1":0,"xT2":1058.1,"yT2":0,"toosoon":0,"cond_shown":"equaldotanddens","ratio_trial":500,"smaller_num":"2","larger_num":"4","correct_side":1,"subjID":"juandavidradagiraldo31","gender":"0","age":"12","school":"6"},{"start_time":1551887808434,"click_time":1551887810203,"finger_time":1551887809823,"fix_duration":250,"trial":62,"RT":1389,"MT":380,"sideResp":2,"stimulus":"img/750/equaldotsize/R/12_Ratio_750_L_3_R_4.png","xmouse":[798,798,798,798,798,798,798,798,798,798,798,798,798,798,798,798,798,798,798,798,798,798,798,798,798,798,798,798,798,798,798,798,798,798,798,798,798,798,798,798,798,798,798,798,798,798,798,798,798,798,798,798,798,798,798,798,798,798,798,798,798,798,798,798,798,798,798,798,798,864,921,994,1044,1094,1157,1211,1250,1271,1275,1275,1274,1266,1238,1216,1191,1191,1191,1191,1081],"ymouse":[477,477,477,477,477,477,477,477,477,477,477,477,477,477,477,477,477,477,477,477,477,477,477,477,477,477,477,477,477,477,477,477,477,477,477,477,477,477,477,477,477,477,477,477,477,477,477,477,477,477,477,477,477,477,477,477,477,477,477,477,477,477,477,477,477,477,477,477,477,418,380,334,269,229,197,165,143,96,83,71,64,50,24,11,0,0,0,0,1],"timestamp_mouse":[9,31,48,68,88,108,128,149,168,187,208,227,248,267,287,309,327,348,367,389,407,427,449,468,487,509,527,548,567,588,607,628,649,668,689,708,727,748,769,788,807,828,849,869,889,908,928,948,969,987,1008,1028,1049,1068,1087,1109,1129,1147,1169,1187,1207,1227,1248,1269,1287,1308,1329,1349,1369,1389,1407,1429,1447,1468,1489,1508,1527,1548,1568,1587,1608,1628,1648,1668,1687,1708,1729,1748,1769],"xSR":741.5,"ySR":469.95,"xT1":424.9,"yT1":0,"xT2":1058.1,"yT2":0,"toosoon":0,"cond_shown":"equaldotsize","ratio_trial":750,"smaller_num":"3","larger_num":"4","correct_side":2,"subjID":"juandavidradagiraldo31","gender":"0","age":"12","school":"6"},{"start_time":1551887814720,"click_time":1551887815722,"finger_time":1551887815482,"fix_duration":856.1366830429648,"trial":63,"RT":762,"MT":240,"sideResp":2,"stimulus":"img/500/equaldotanddens/R/9_Ratio_500_L_2_R_4.png","xmouse":[788,788,788,788,788,788,788,788,788,788,788,788,788,788,788,788,788,788,788,788,788,788,788,788,788,788,788,788,788,788,788,788,788,788,800,821,831,841,897,959,988,1010,1018,1024,1024,1026,1028,1033,1042,1067,1079],"ymouse":[528,528,528,528,528,528,528,528,528,528,528,528,528,528,528,528,528,528,528,528,528,528,528,528,528,528,528,528,528,528,528,528,528,528,521,502,485,475,413,346,302,265,248,234,232,227,219,200,179,122,94],"timestamp_mouse":[8,27,43,62,82,102,122,143,161,182,203,223,241,263,283,302,323,342,362,381,403,422,443,462,483,502,522,542,563,582,602,623,641,662,682,702,722,742,762,782,802,823,843,862,881,903,923,942,961,982,1002],"xSR":741.5,"ySR":469.95,"xT1":424.9,"yT1":0,"xT2":1058.1,"yT2":0,"toosoon":0,"cond_shown":"equaldotanddens","ratio_trial":500,"smaller_num":"2","larger_num":"4","correct_side":2,"subjID":"juandavidradagiraldo31","gender":"0","age":"12","school":"6"},{"start_time":1551887816695,"click_time":1551887818482,"finger_time":1551887818062,"fix_duration":250,"trial":64,"RT":1367,"MT":420,"sideResp":1,"stimulus":"img/900/equaldotanddens/L/10_Ratio_900_L_20_R_18.png","xmouse":[808,808,807,807,807,807,807,807,807,807,807,807,807,807,807,807,807,807,807,807,807,807,807,807,807,807,807,807,807,807,807,807,807,807,807,807,807,807,807,807,807,807,807,807,807,807,807,807,807,807,807,807,807,807,807,807,807,807,807,807,807,807,807,807,807,808,808,808,806,800,766,741,716,696,673,641,631,621,605,605,605,605,605,605,605,605,605,605,489,468],"ymouse":[542,542,542,542,542,542,542,542,542,542,542,542,542,542,542,542,542,542,542,542,542,542,542,542,542,542,542,542,542,542,542,542,542,542,542,542,542,542,542,542,542,542,542,542,542,542,542,542,542,542,542,542,542,542,542,542,542,542,542,542,542,542,542,542,540,524,508,484,439,391,261,204,147,111,76,38,29,20,2,2,2,2,2,2,2,2,2,2,0,9],"timestamp_mouse":[8,33,47,68,88,107,127,146,167,186,207,226,248,268,287,307,327,347,366,388,407,428,447,467,487,506,526,546,567,587,607,626,647,667,688,707,727,746,768,788,806,828,847,867,888,908,928,946,966,987,1007,1026,1046,1067,1086,1108,1126,1146,1167,1187,1208,1227,1247,1266,1287,1307,1326,1346,1367,1387,1407,1428,1446,1468,1487,1507,1527,1548,1566,1587,1606,1626,1647,1667,1688,1706,1727,1747,1767,1787],"xSR":741.5,"ySR":469.95,"xT1":424.9,"yT1":0,"xT2":1058.1,"yT2":0,"toosoon":0,"cond_shown":"equaldotanddens","ratio_trial":900,"smaller_num":"18","larger_num":"20","correct_side":1,"subjID":"juandavidradagiraldo31","gender":"0","age":"12","school":"6"},{"start_time":1551887822008,"click_time":1551887823821,"finger_time":1551887822502,"fix_duration":984.2618481733606,"trial":65,"RT":494,"MT":1319,"sideResp":2,"stimulus":"img/900/equaldotanddens/L/1_Ratio_900_L_10_R_9.png","xmouse":[834,834,834,834,834,834,834,834,834,834,834,834,834,834,834,834,834,834,834,834,834,834,829,813,785,778,777,777,777,777,777,777,777,777,777,777,777,777,776,754,735,699,682,670,663,663,662,662,662,662,661,661,662,665,685,694,702,707,714,727,735,741,746,749,755,760,765,770,775,790,801,808,815,820,823,826,832,842,852,871,896,917,936,951,981,996,1013,1033,1050,1086,1100],"ymouse":[511,511,511,511,511,511,511,511,511,511,511,511,511,511,511,511,511,511,511,511,511,511,509,486,455,447,447,447,447,447,447,447,447,447,447,447,447,447,446,411,383,341,325,315,308,308,307,306,306,305,305,305,303,300,286,281,278,275,272,265,262,259,256,254,250,246,243,241,238,226,219,216,212,212,211,210,207,206,203,198,192,183,176,171,162,157,150,135,124,102,95],"timestamp_mouse":[14,38,54,73,95,114,135,154,175,195,214,235,254,273,294,314,334,354,374,395,415,433,454,474,494,514,534,555,575,594,614,634,653,675,695,713,733,753,775,794,813,835,855,874,895,914,933,953,973,993,1014,1033,1054,1074,1094,1114,1134,1154,1174,1195,1214,1235,1254,1274,1294,1313,1333,1354,1374,1394,1413,1433,1454,1473,1494,1514,1533,1554,1574,1594,1613,1634,1655,1675,1694,1713,1733,1755,1773,1794,1813],"xSR":741.5,"ySR":469.95,"xT1":424.9,"yT1":0,"xT2":1058.1,"yT2":0,"toosoon":0,"cond_shown":"equaldotanddens","ratio_trial":900,"smaller_num":"9","larger_num":"10","correct_side":1,"subjID":"juandavidradagiraldo31","gender":"0","age":"12","school":"6"},{"start_time":1551887825523,"click_time":1551887826302,"finger_time":1551887825982,"fix_duration":719.5836469659678,"trial":66,"RT":459,"MT":320,"sideResp":1,"stimulus":"img/900/equaldotanddens/L/10_Ratio_900_L_20_R_18.png","xmouse":[775,775,775,775,775,775,775,775,775,775,775,775,775,775,775,775,775,775,775,775,776,773,763,748,686,667,650,634,621,603,594,587,582,578,556,551,544,533,510],"ymouse":[492,492,492,492,492,492,492,492,492,492,492,492,492,492,492,492,492,492,492,492,482,471,438,382,244,214,197,184,175,154,142,132,125,121,106,103,97,87,71],"timestamp_mouse":[20,39,59,80,99,118,139,158,180,198,219,239,258,278,298,318,339,358,380,398,420,439,459,479,499,520,539,559,579,600,620,639,659,679,699,720,740,759,779],"xSR":741.5,"ySR":469.95,"xT1":424.9,"yT1":0,"xT2":1058.1,"yT2":0,"toosoon":0,"cond_shown":"equaldotanddens","ratio_trial":900,"smaller_num":"18","larger_num":"20","correct_side":1,"subjID":"juandavidradagiraldo31","gender":"0","age":"12","school":"6"},{"start_time":1551887829863,"click_time":1551887830903,"finger_time":1551887830482,"fix_duration":1418.0072326294874,"trial":67,"RT":619,"MT":421,"sideResp":2,"stimulus":"img/900/equaldotanddens/R/15_Ratio_900_L_9_R_10.png","xmouse":[819,819,819,819,819,819,819,819,819,819,819,819,819,819,819,819,819,819,819,819,819,819,819,819,819,819,819,819,819,819,819,820,825,892,941,969,992,1017,1056,1085,1117,1146,1166,1210,1225,1231,1233,1233,1233,1231,1210,1170,1113],"ymouse":[471,471,471,471,471,471,471,471,471,471,471,471,471,471,471,471,471,471,471,471,471,471,471,471,471,471,471,471,471,471,471,469,465,399,357,328,306,274,231,205,181,159,142,104,90,80,74,72,72,71,67,62,54],"timestamp_mouse":[1,19,40,60,79,99,118,138,160,179,199,218,238,258,279,298,318,339,358,379,399,419,440,458,479,500,518,539,559,578,598,619,639,659,679,699,719,738,759,780,798,819,839,859,878,898,918,939,959,979,999,1019,1040],"xSR":741.5,"ySR":469.95,"xT1":424.9,"yT1":0,"xT2":1058.1,"yT2":0,"toosoon":0,"cond_shown":"equaldotanddens","ratio_trial":900,"smaller_num":"9","larger_num":"10","correct_side":2,"subjID":"juandavidradagiraldo31","gender":"0","age":"12","school":"6"},{"start_time":1551887832478,"click_time":1551887833762,"finger_time":1551887832823,"fix_duration":754.3781782161859,"trial":68,"RT":345,"MT":939,"sideResp":2,"stimulus":"img/900/equaldotanddens/R/5_Ratio_900_L_9_R_10.png","xmouse":[775,775,775,775,775,775,775,775,775,775,775,775,777,780,792,801,814,864,912,960,993,1013,1032,1036,1036,1036,1036,1036,1036,1036,1036,1036,1036,1037,1037,1037,1039,1041,1041,1041,1041,1041,1051,1054,1054,1054,1054,1054,1054,1054,1054,1055,1055,1056,1056,1056,1056,1056,1056,1057,1057,1057,1057,1058,1061],"ymouse":[531,531,531,531,531,531,531,531,531,531,531,531,530,526,518,512,500,442,390,341,305,282,255,249,249,248,248,248,248,248,248,248,248,245,228,215,197,166,150,129,103,76,43,39,38,38,38,38,38,38,38,38,38,40,41,41,41,41,41,42,42,42,42,43,45],"timestamp_mouse":[8,23,44,64,84,104,125,143,163,183,204,225,245,265,285,305,325,345,363,384,404,424,444,463,483,504,523,545,563,584,604,623,644,663,684,704,723,745,764,785,804,824,845,864,884,905,924,945,963,984,1005,1025,1044,1063,1084,1104,1124,1145,1165,1184,1203,1223,1245,1263,1284],"xSR":741.5,"ySR":469.95,"xT1":424.9,"yT1":0,"xT2":1058.1,"yT2":0,"toosoon":0,"cond_shown":"equaldotanddens","ratio_trial":900,"smaller_num":"9","larger_num":"10","correct_side":2,"subjID":"juandavidradagiraldo31","gender":"0","age":"12","school":"6"},{"start_time":1551887843608,"click_time":1551887844843,"finger_time":1551887844102,"fix_duration":825.2854311066191,"trial":69,"RT":494,"MT":741,"sideResp":2,"stimulus":"img/500/equaldotsize/R/9_Ratio_500_L_2_R_4.png","xmouse":[811,811,811,811,811,811,811,811,811,811,811,811,811,811,811,811,811,811,811,811,811,811,811,809,803,797,793,793,797,799,803,805,815,815,815,815,815,816,817,818,818,821,847,867,885,906,926,959,968,974,990,996,1046,1056,1057,1058,1059,1068,1077,1088,1095,1103],"ymouse":[513,513,513,513,513,513,513,513,513,513,513,513,513,513,513,513,513,513,513,513,513,513,503,480,458,438,421,404,396,390,382,367,327,307,287,272,261,251,249,248,248,248,241,238,231,226,220,210,207,203,192,188,167,164,164,163,162,152,140,124,111,89],"timestamp_mouse":[14,34,53,75,94,114,133,155,173,194,214,234,253,274,295,315,334,355,374,393,415,433,454,475,494,514,535,554,574,594,613,634,654,674,693,714,733,755,775,794,813,834,854,874,894,913,935,954,974,993,1014,1035,1054,1075,1094,1113,1133,1154,1174,1195,1214,1235],"xSR":741.5,"ySR":469.95,"xT1":424.9,"yT1":0,"xT2":1058.1,"yT2":0,"toosoon":0,"cond_shown":"equaldotsize","ratio_trial":500,"smaller_num":"2","larger_num":"4","correct_side":2,"subjID":"juandavidradagiraldo31","gender":"0","age":"12","school":"6"},{"start_time":1551887846946,"click_time":1551887847802,"finger_time":1551887847622,"fix_duration":1202.1367388591873,"trial":70,"RT":676,"MT":180,"sideResp":2,"stimulus":"img/750/equaldotanddens/R/7_Ratio_750_L_3_R_4.png","xmouse":[789,789,789,789,789,789,789,789,789,790,790,790,790,790,790,790,790,790,790,790,790,791,791,791,791,791,791,791,789,787,787,787,791,826,865,954,988,997,1000,1002,1027,1053,1074],"ymouse":[535,535,535,535,535,535,535,535,535,535,535,535,535,535,535,535,535,535,535,535,536,536,536,536,536,536,536,538,540,541,542,542,518,399,323,211,184,174,168,151,100,64,36],"timestamp_mouse":[27,36,57,76,96,116,135,157,176,195,216,236,257,277,295,316,336,356,376,396,416,436,456,475,497,516,535,556,576,596,615,636,655,676,696,715,735,756,776,796,815,835,856],"xSR":741.5,"ySR":469.95,"xT1":424.9,"yT1":0,"xT2":1058.1,"yT2":0,"toosoon":0,"cond_shown":"equaldotanddens","ratio_trial":750,"smaller_num":"3","larger_num":"4","correct_side":2,"subjID":"juandavidradagiraldo31","gender":"0","age":"12","school":"6"},{"start_time":1551887851096,"click_time":1551887851962,"finger_time":1551887851563,"fix_duration":713.1526853076083,"trial":71,"RT":467,"MT":399,"sideResp":2,"stimulus":"img/500/randomdotsizeEA/L/7_Ratio_500_L_10_R_5.png","xmouse":[783,783,783,783,783,783,783,783,783,783,783,783,784,785,785,786,786,787,787,788,789,791,794,800,817,822,827,834,842,873,897,921,939,956,961,967,973,979,986,1004,1016,1029,1044,1060],"ymouse":[499,499,499,499,499,499,499,499,499,499,499,498,497,496,492,490,489,489,486,484,484,481,476,465,440,436,432,427,421,394,363,321,278,206,187,175,165,157,148,121,104,86,69,50],"timestamp_mouse":[10,27,47,67,85,105,126,145,167,185,205,227,246,266,286,306,326,346,367,387,405,427,446,467,486,506,527,547,565,586,606,627,646,667,686,705,727,746,765,785,805,826,846,866],"xSR":741.5,"ySR":469.95,"xT1":424.9,"yT1":0,"xT2":1058.1,"yT2":0,"toosoon":0,"cond_shown":"randomdotsizeEA","ratio_trial":500,"smaller_num":"5","larger_num":"10","correct_side":1,"subjID":"juandavidradagiraldo31","gender":"0","age":"12","school":"6"},{"start_time":1551887853960,"click_time":1551887855102,"finger_time":1551887854682,"fix_duration":817.7648762384766,"trial":72,"RT":722,"MT":420,"sideResp":2,"stimulus":"img/250/randomdotsizeEA/R/11_Ratio_250_L_3_R_12.png","xmouse":[761,761,761,761,761,761,761,761,761,761,761,761,761,761,761,761,761,761,761,761,761,761,761,761,761,761,761,761,761,761,761,761,761,764,784,798,822,837,853,885,935,999,1008,1008,1008,1008,1008,1008,1008,1008,1008,1008,1008,1008,1008,1008,1111,1102],"ymouse":[537,537,537,537,537,537,537,537,537,537,537,537,537,537,537,537,537,537,537,537,537,537,537,537,537,53