[{"start_time":1551886936431,"click_time":1551886938597,"finger_time":1551886938256,"fix_duration":250,"trial":0,"RT":1825,"MT":341,"sideResp":2,"stimulus":[],"xmouse":[800,800,800,800,800,800,800,800,800,800,800,800,800,800,800,800,800,800,800,800,800,800,800,800,800,800,800,800,800,800,800,800,800,800,800,800,800,800,800,800,800,800,800,800,800,800,800,800,800,800,800,800,800,800,800,800,800,800,800,800,800,800,800,800,800,800,800,800,800,800,800,800,800,800,800,800,800,800,800,800,800,800,800,800,800,800,800,800,800,800,809,828,857,882,913,968,992,1006,1013,1019,1023,1024,1026,1027,1029,1032,1037,1046,1060],"ymouse":[545,545,545,545,545,545,545,545,545,545,545,545,545,545,545,545,545,545,545,545,545,545,545,545,545,545,545,545,545,545,545,545,545,545,545,545,545,545,545,545,545,545,545,545,545,545,545,545,545,545,545,545,545,545,545,545,545,545,545,545,545,545,545,545,545,545,545,545,545,545,545,545,545,545,545,545,545,545,545,545,545,545,545,545,545,545,545,545,545,545,527,493,447,409,367,283,241,204,174,150,118,108,101,96,94,93,91,89,84],"timestamp_mouse":[9,35,46,65,85,106,125,145,164,186,205,225,246,265,285,304,326,344,366,385,405,425,446,466,485,506,526,545,566,585,606,625,646,666,684,704,725,745,765,786,805,826,846,865,885,905,925,946,965,985,1005,1025,1044,1064,1086,1106,1125,1144,1164,1185,1206,1224,1245,1265,1286,1304,1325,1345,1365,1385,1405,1425,1445,1464,1485,1505,1525,1545,1565,1584,1606,1625,1645,1665,1685,1705,1725,1746,1766,1785,1805,1825,1845,1864,1886,1905,1926,1945,1966,1985,2005,2026,2046,2065,2086,2105,2126,2146,2166],"xSR":741.5,"ySR":501.8,"xT1":424.9,"yT1":0,"xT2":1058.1,"yT2":0,"toosoon":0,"cond_shown":"Incongruent","ratio_trial":100,"L_num":3,"L_den":5,"R_num":8,"R_den":16,"correct_side":1,"subjID":"juandavidradagiraldo31","gender":"0","age":"12años","school":"6","test":{"fix_dur":[250,1500],"timestim":1000,"targets_dim":[100,100],"targets_relative_coord":[0.3,0.7],"size_stim":[880,420],"start_dim":[100,100],"size_start":[300,300],"size_fix":60,"samplingrate":20,"img_types":["Congruent","Incongruent"],"ratios":[100,200,300],"rep_conds":19,"nTrials":120,"trials_to_rest":500,"Trials_order":[55,79,20,53,108,107,69,84,111,116,118,94,95,2,89,28,110,98,80,72,68,87,78,34,62,45,75,26,37,76,115,88,52,81,105,82,57,33,36,43,38,16,91,27,40,39,73,8,32,61,109,24,56,48,54,10,60,4,13,66,19,67,14,102,70,11,112,103,17,113,106,119,12,22,30,3,99,23,90,6,59,47,31,71,63,100,41,64,21,46,104,35,83,25,5,101,96,97,49,0,44,9,29,18,74,86,51,15,117,58,65,50,93,77,1,92,42,85,114,7],"cond_shown":["Incongruent","Incongruent","Congruent","Incongruent","Congruent","Incongruent","Incongruent","Congruent","Incongruent","Congruent","Congruent","Congruent","Incongruent","Congruent","Incongruent","Congruent","Congruent","Congruent","Congruent","Congruent","Congruent","Incongruent","Congruent","Congruent","Congruent","Incongruent","Incongruent","Congruent","Incongruent","Congruent","Incongruent","Congruent","Congruent","Incongruent","Incongruent","Congruent","Incongruent","Incongruent","Congruent","Incongruent","Congruent","Congruent","Incongruent","Incongruent","Congruent","Incongruent","Incongruent","Congruent","Congruent","Incongruent","Incongruent","Congruent","Congruent","Congruent","Congruent","Congruent","Congruent","Congruent","Incongruent","Congruent","Incongruent","Incongruent","Congruent","Congruent","Congruent","Incongruent","Congruent","Incongruent","Incongruent","Incongruent","Congruent","Incongruent","Congruent","Congruent","Congruent","Incongruent","Incongruent","Incongruent","Congruent","Congruent","Incongruent","Incongruent","Incongruent","Incongruent","Incongruent","Congruent","Incongruent","Congruent","Incongruent","Congruent","Congruent","Incongruent","Incongruent","Incongruent","Incongruent","Incongruent","Congruent","Incongruent","Incongruent","Congruent","Congruent","Incongruent","Incongruent","Congruent","Congruent","Congruent","Incongruent","Incongruent","Incongruent","Congruent","Incongruent","Congruent","Incongruent","Incongruent","Incongruent","Congruent","Congruent","Incongruent","Congruent","Incongruent"],"ratio_trial":[100,100,200,300,100,300,200,100,200,200,300,300,300,200,300,300,200,200,200,100,200,200,100,300,200,200,200,200,100,300,100,300,300,200,200,300,200,200,100,100,200,300,100,200,300,200,100,200,200,100,100,100,200,100,100,300,100,300,100,100,100,100,200,100,300,300,300,100,300,300,300,300,100,300,100,200,200,300,100,100,300,300,100,300,200,300,300,300,200,300,200,300,300,100,300,300,100,100,100,100,200,200,300,100,200,200,200,200,200,300,300,200,200,300,100,200,100,100,100,100],"left_num":[3,8,16,3,15,8,7,11,7,13,3,5,7,14,1,12,12,4,8,7,16,14,4,1,3,7,1,9,10,2,3,9,20,4,4,11,3,4,6,6,8,12,13,14,24,3,6,12,9,2,17,3,7,2,9,3,3,20,12,6,3,8,14,6,2,8,3,8,4,2,9,4,12,11,1,4,1,1,7,6,7,13,6,4,1,11,13,11,7,12,8,4,4,10,4,4,1,12,6,3,3,1,13,2,3,6,3,6,7,20,2,3,11,1,8,20,11,6,2,10],"right_num":[8,6,9,4,13,9,8,4,14,14,4,7,8,6,2,2,6,3,3,15,12,12,6,3,14,8,2,4,8,10,7,3,8,6,14,1,1,6,15,13,7,2,6,6,8,11,11,6,4,8,10,4,18,11,8,2,2,13,2,15,7,1,6,5,10,14,2,1,6,6,3,2,13,4,3,14,3,3,9,15,8,12,3,2,2,2,12,2,4,2,3,2,2,9,6,6,3,9,3,4,11,3,12,11,9,7,1,3,8,8,6,11,3,3,6,9,4,11,6,8],"left_den":[5,16,30,6,25,10,10,22,10,26,6,25,10,28,2,24,20,10,15,14,20,30,8,5,6,10,3,20,25,20,9,10,25,5,6,22,10,5,12,10,15,24,26,30,30,4,10,15,20,4,30,20,15,5,15,6,6,25,30,12,9,20,28,20,20,10,6,20,5,4,10,20,30,22,2,6,2,2,14,12,10,26,12,20,3,22,26,22,15,24,15,20,20,25,5,5,2,24,12,20,10,2,26,5,12,12,10,20,10,25,4,10,20,2,16,25,22,10,5,25],"right_den":[16,10,27,20,26,18,16,10,28,20,5,14,20,20,10,10,15,15,9,25,20,18,10,6,20,16,15,16,16,25,30,5,16,10,30,5,2,10,25,26,21,10,10,9,16,20,22,10,16,20,15,16,27,22,16,10,5,26,4,25,30,2,20,25,25,28,10,2,12,30,5,4,26,20,5,30,10,15,15,25,20,15,5,4,15,10,15,10,6,10,9,4,4,18,12,12,5,15,5,16,22,10,15,22,20,10,2,6,16,16,30,22,4,15,10,15,10,22,12,16],"correct_side":[1,2,1,1,1,1,1,1,1,2,2,2,1,1,1,1,1,1,1,2,1,2,2,2,2,1,1,1,2,2,1,1,1,1,1,1,2,1,2,1,1,1,2,2,1,1,1,1,1,1,2,2,2,2,1,1,1,1,2,2,1,2,1,1,2,1,1,2,1,1,1,2,2,1,2,1,1,1,2,2,1,2,2,2,1,1,2,1,2,1,1,2,2,2,1,1,2,2,2,2,2,1,2,2,2,2,2,2,1,1,1,2,2,1,2,1,1,1,2,2],"img_shown":["img2/100/Incongruent/L/I_Dist_100_LN_3_LD_5_RN_8_RD_16_0.png","img2/100/Incongruent/R/I_Dist_100_LN_8_LD_16_RN_6_RD_10_1.png","img2/200/Congruent/L/C_Dist_200_LN_16_LD_30_RN_9_RD_27_0.png","img2/300/Incongruent/L/I_Dist_300_LN_3_LD_6_RN_4_RD_20_0.png","img2/100/Congruent/L/C_Dist_100_LN_15_LD_25_RN_13_RD_26_0.png","img2/300/Incongruent/L/I_Dist_300_LN_8_LD_10_RN_9_RD_18_0.png","img2/200/Incongruent/L/I_Dist_200_LN_7_LD_10_RN_8_RD_16_0.png","img2/100/Congruent/L/C_Dist_100_LN_11_LD_22_RN_4_RD_10_0.png","img2/200/Incongruent/L/I_Dist_200_LN_7_LD_10_RN_14_RD_28_0.png","img2/200/Congruent/R/C_Dist_200_LN_13_LD_26_RN_14_RD_20_1.png","img2/300/Congruent/R/C_Dist_300_LN_3_LD_6_RN_4_RD_5_1.png","img2/300/Congruent/R/C_Dist_300_LN_5_LD_25_RN_7_RD_14_1.png","img2/300/Incongruent/L/I_Dist_300_LN_7_LD_10_RN_8_RD_20_0.png","img2/200/Congruent/L/C_Dist_200_LN_14_LD_28_RN_6_RD_20_0.png","img2/300/Incongruent/L/I_Dist_300_LN_1_LD_2_RN_2_RD_10_0.png","img2/300/Congruent/L/C_Dist_300_LN_12_LD_24_RN_2_RD_10_0.png","img2/200/Congruent/L/C_Dist_200_LN_12_LD_20_RN_6_RD_15_0.png","img2/200/Congruent/L/C_Dist_200_LN_4_LD_10_RN_3_RD_15_0.png","img2/200/Congruent/L/C_Dist_200_LN_8_LD_15_RN_3_RD_9_0.png","img2/100/Congruent/R/C_Dist_100_LN_7_LD_14_RN_15_RD_25_1.png","img2/200/Congruent/L/C_Dist_200_LN_16_LD_20_RN_12_RD_20_0.png","img2/200/Incongruent/R/I_Dist_200_LN_14_LD_30_RN_12_RD_18_1.png","img2/100/Congruent/R/C_Dist_100_LN_4_LD_8_RN_6_RD_10_1.png","img2/300/Congruent/R/C_Dist_300_LN_1_LD_5_RN_3_RD_6_1.png","img2/200/Congruent/R/C_Dist_200_LN_3_LD_6_RN_14_RD_20_1.png","img2/200/Incongruent/L/I_Dist_200_LN_7_LD_10_RN_8_RD_16_0.png","img2/200/Incongruent/L/I_Dist_200_LN_1_LD_3_RN_2_RD_15_0.png","img2/200/Congruent/L/C_Dist_200_LN_9_LD_20_RN_4_RD_16_0.png","img2/100/Incongruent/R/I_Dist_100_LN_10_LD_25_RN_8_RD_16_1.png","img2/300/Congruent/R/C_Dist_300_LN_2_LD_20_RN_10_RD_25_1.png","img2/100/Incongruent/L/I_Dist_100_LN_3_LD_9_RN_7_RD_30_0.png","img2/300/Congruent/L/C_Dist_300_LN_9_LD_10_RN_3_RD_5_0.png","img2/300/Congruent/L/C_Dist_300_LN_20_LD_25_RN_8_RD_16_0.png","img2/200/Incongruent/L/I_Dist_200_LN_4_LD_5_RN_6_RD_10_0.png","img2/200/Incongruent/L/I_Dist_200_LN_4_LD_6_RN_14_RD_30_0.png","img2/300/Congruent/L/C_Dist_300_LN_11_LD_22_RN_1_RD_5_0.png","img2/200/Incongruent/R/I_Dist_200_LN_3_LD_10_RN_1_RD_2_1.png","img2/200/Incongruent/L/I_Dist_200_LN_4_LD_5_RN_6_RD_10_0.png","img2/100/Congruent/R/C_Dist_100_LN_6_LD_12_RN_15_RD_25_1.png","img2/100/Incongruent/L/I_Dist_100_LN_6_LD_10_RN_13_RD_26_0.png","img2/200/Congruent/L/C_Dist_200_LN_8_LD_15_RN_7_RD_21_0.png","img2/300/Congruent/L/C_Dist_300_LN_12_LD_24_RN_2_RD_10_0.png","img2/100/Incongruent/R/I_Dist_100_LN_13_LD_26_RN_6_RD_10_1.png","img2/200/Incongruent/R/I_Dist_200_LN_14_LD_30_RN_6_RD_9_1.png","img2/300/Congruent/L/C_Dist_300_LN_24_LD_30_RN_8_RD_16_0.png","img2/200/Incongruent/L/I_Dist_200_LN_3_LD_4_RN_11_RD_20_0.png","img2/100/Incongruent/L/I_Dist_100_LN_6_LD_10_RN_11_RD_22_0.png","img2/200/Congruent/L/C_Dist_200_LN_12_LD_15_RN_6_RD_10_0.png","img2/200/Congruent/L/C_Dist_200_LN_9_LD_20_RN_4_RD_16_0.png","img2/100/Incongruent/L/I_Dist_100_LN_2_LD_4_RN_8_RD_20_0.png","img2/100/Incongruent/R/I_Dist_100_LN_17_LD_30_RN_10_RD_15_1.png","img2/100/Congruent/R/C_Dist_100_LN_3_LD_20_RN_4_RD_16_1.png","img2/200/Congruent/R/C_Dist_200_LN_7_LD_15_RN_18_RD_27_1.png","img2/100/Congruent/R/C_Dist_100_LN_2_LD_5_RN_11_RD_22_1.png","img2/100/Congruent/L/C_Dist_100_LN_9_LD_15_RN_8_RD_16_0.png","img2/300/Congruent/L/C_Dist_300_LN_3_LD_6_RN_2_RD_10_0.png","img2/100/Congruent/L/C_Dist_100_LN_3_LD_6_RN_2_RD_5_0.png","img2/300/Congruent/L/C_Dist_300_LN_20_LD_25_RN_13_RD_26_0.png","img2/100/Incongruent/R/I_Dist_100_LN_12_LD_30_RN_2_RD_4_1.png","img2/100/Congruent/R/C_Dist_100_LN_6_LD_12_RN_15_RD_25_1.png","img2/100/Incongruent/L/I_Dist_100_LN_3_LD_9_RN_7_RD_30_0.png","img2/100/Incongruent/R/I_Dist_100_LN_8_LD_20_RN_1_RD_2_1.png","img2/200/Congruent/L/C_Dist_200_LN_14_LD_28_RN_6_RD_20_0.png","img2/100/Congruent/L/C_Dist_100_LN_6_LD_20_RN_5_RD_25_0.png","img2/300/Congruent/R/C_Dist_300_LN_2_LD_20_RN_10_RD_25_1.png","img2/300/Incongruent/L/I_Dist_300_LN_8_LD_10_RN_14_RD_28_0.png","img2/300/Congruent/L/C_Dist_300_LN_3_LD_6_RN_2_RD_10_0.png","img2/100/Incongruent/R/I_Dist_100_LN_8_LD_20_RN_1_RD_2_1.png","img2/300/Incongruent/L/I_Dist_300_LN_4_LD_5_RN_6_RD_12_0.png","img2/300/Incongruent/L/I_Dist_300_LN_2_LD_4_RN_6_RD_30_0.png","img2/300/Congruent/L/C_Dist_300_LN_9_LD_10_RN_3_RD_5_0.png","img2/300/Incongruent/R/I_Dist_300_LN_4_LD_20_RN_2_RD_4_1.png","img2/100/Congruent/R/C_Dist_100_LN_12_LD_30_RN_13_RD_26_1.png","img2/300/Congruent/L/C_Dist_300_LN_11_LD_22_RN_4_RD_20_0.png","img2/100/Congruent/R/C_Dist_100_LN_1_LD_2_RN_3_RD_5_1.png","img2/200/Incongruent/L/I_Dist_200_LN_4_LD_6_RN_14_RD_30_0.png","img2/200/Incongruent/L/I_Dist_200_LN_1_LD_2_RN_3_RD_10_0.png","img2/300/Incongruent/L/I_Dist_300_LN_1_LD_2_RN_3_RD_15_0.png","img2/100/Congruent/R/C_Dist_100_LN_7_LD_14_RN_9_RD_15_1.png","img2/100/Congruent/R/C_Dist_100_LN_6_LD_12_RN_15_RD_25_1.png","img2/300/Incongruent/L/I_Dist_300_LN_7_LD_10_RN_8_RD_20_0.png","img2/300/Incongruent/R/I_Dist_300_LN_13_LD_26_RN_12_RD_15_1.png","img2/100/Incongruent/R/I_Dist_100_LN_6_LD_12_RN_3_RD_5_1.png","img2/300/Incongruent/R/I_Dist_300_LN_4_LD_20_RN_2_RD_4_1.png","img2/200/Incongruent/L/I_Dist_200_LN_1_LD_3_RN_2_RD_15_0.png","img2/300/Congruent/L/C_Dist_300_LN_11_LD_22_RN_2_RD_10_0.png","img2/300/Incongruent/R/I_Dist_300_LN_13_LD_26_RN_12_RD_15_1.png","img2/300/Congruent/L/C_Dist_300_LN_11_LD_22_RN_2_RD_10_0.png","img2/200/Incongruent/R/I_Dist_200_LN_7_LD_15_RN_4_RD_6_1.png","img2/300/Congruent/L/C_Dist_300_LN_12_LD_24_RN_2_RD_10_0.png","img2/200/Congruent/L/C_Dist_200_LN_8_LD_15_RN_3_RD_9_0.png","img2/300/Incongruent/R/I_Dist_300_LN_4_LD_20_RN_2_RD_4_1.png","img2/300/Incongruent/R/I_Dist_300_LN_4_LD_20_RN_2_RD_4_1.png","img2/100/Incongruent/R/I_Dist_100_LN_10_LD_25_RN_9_RD_18_1.png","img2/300/Incongruent/L/I_Dist_300_LN_4_LD_5_RN_6_RD_12_0.png","img2/300/Incongruent/L/I_Dist_300_LN_4_LD_5_RN_6_RD_12_0.png","img2/100/Congruent/R/C_Dist_100_LN_1_LD_2_RN_3_RD_5_1.png","img2/100/Incongruent/R/I_Dist_100_LN_12_LD_24_RN_9_RD_15_1.png","img2/100/Incongruent/R/I_Dist_100_LN_6_LD_12_RN_3_RD_5_1.png","img2/100/Congruent/R/C_Dist_100_LN_3_LD_20_RN_4_RD_16_1.png","img2/200/Congruent/R/C_Dist_200_LN_3_LD_10_RN_11_RD_22_1.png","img2/200/Incongruent/L/I_Dist_200_LN_1_LD_2_RN_3_RD_10_0.png","img2/300/Incongruent/R/I_Dist_300_LN_13_LD_26_RN_12_RD_15_1.png","img2/100/Congruent/R/C_Dist_100_LN_2_LD_5_RN_11_RD_22_1.png","img2/200/Congruent/R/C_Dist_200_LN_3_LD_12_RN_9_RD_20_1.png","img2/200/Congruent/R/C_Dist_200_LN_6_LD_12_RN_7_RD_10_1.png","img2/200/Incongruent/R/I_Dist_200_LN_3_LD_10_RN_1_RD_2_1.png","img2/200/Incongruent/R/I_Dist_200_LN_6_LD_20_RN_3_RD_6_1.png","img2/200/Incongruent/L/I_Dist_200_LN_7_LD_10_RN_8_RD_16_0.png","img2/300/Congruent/L/C_Dist_300_LN_20_LD_25_RN_8_RD_16_0.png","img2/300/Incongruent/L/I_Dist_300_LN_2_LD_4_RN_6_RD_30_0.png","img2/200/Congruent/R/C_Dist_200_LN_3_LD_10_RN_11_RD_22_1.png","img2/200/Incongruent/R/I_Dist_200_LN_11_LD_20_RN_3_RD_4_1.png","img2/300/Incongruent/L/I_Dist_300_LN_1_LD_2_RN_3_RD_15_0.png","img2/100/Incongruent/R/I_Dist_100_LN_8_LD_16_RN_6_RD_10_1.png","img2/200/Congruent/L/C_Dist_200_LN_20_LD_25_RN_9_RD_15_0.png","img2/100/Congruent/L/C_Dist_100_LN_11_LD_22_RN_4_RD_10_0.png","img2/100/Incongruent/L/I_Dist_100_LN_6_LD_10_RN_11_RD_22_0.png","img2/100/Congruent/R/C_Dist_100_LN_2_LD_5_RN_6_RD_12_1.png","img2/100/Incongruent/R/I_Dist_100_LN_10_LD_25_RN_8_RD_16_1.png"],"dist100_C":[["C_Dist_100_LN_10_LD_25_RN_3_RD_10_0.png","C_Dist_100_LN_11_LD_22_RN_4_RD_10_0.png","C_Dist_100_LN_11_LD_22_RN_6_RD_15_0.png","C_Dist_100_LN_15_LD_25_RN_13_RD_26_0.png","C_Dist_100_LN_3_LD_6_RN_2_RD_5_0.png","C_Dist_100_LN_6_LD_20_RN_5_RD_25_0.png","C_Dist_100_LN_8_LD_16_RN_2_RD_5_0.png","C_Dist_100_LN_9_LD_15_RN_8_RD_16_0.png"],["C_Dist_100_LN_1_LD_2_RN_18_RD_30_1.png","C_Dist_100_LN_1_LD_2_RN_3_RD_5_1.png","C_Dist_100_LN_12_LD_30_RN_13_RD_26_1.png","C_Dist_100_LN_2_LD_5_RN_11_RD_22_1.png","C_Dist_100_LN_2_LD_5_RN_6_RD_12_1.png","C_Dist_100_LN_3_LD_20_RN_4_RD_16_1.png","C_Dist_100_LN_4_LD_10_RN_15_RD_30_1.png","C_Dist_100_LN_4_LD_8_RN_6_RD_10_1.png","C_Dist_100_LN_6_LD_12_RN_15_RD_25_1.png","C_Dist_100_LN_7_LD_14_RN_15_RD_25_1.png","C_Dist_100_LN_7_LD_14_RN_9_RD_15_1.png"]],"dist100_I":[["I_Dist_100_LN_1_LD_2_RN_8_RD_20_0.png","I_Dist_100_LN_2_LD_4_RN_6_RD_15_0.png","I_Dist_100_LN_2_LD_4_RN_8_RD_20_0.png","I_Dist_100_LN_3_LD_5_RN_11_RD_22_0.png","I_Dist_100_LN_3_LD_5_RN_8_RD_16_0.png","I_Dist_100_LN_3_LD_6_RN_4_RD_10_0.png","I_Dist_100_LN_3_LD_9_RN_7_RD_30_0.png","I_Dist_100_LN_4_LD_8_RN_8_RD_20_0.png","I_Dist_100_LN_6_LD_10_RN_11_RD_22_0.png","I_Dist_100_LN_6_LD_10_RN_13_RD_26_0.png","I_Dist_100_LN_6_LD_10_RN_7_RD_14_0.png","I_Dist_100_LN_9_LD_10_RN_20_RD_25_0.png","I_Dist_100_LN_9_LD_15_RN_13_RD_26_0.png","I_Dist_100_LN_9_LD_15_RN_14_RD_28_0.png"],["I_Dist_100_LN_10_LD_25_RN_8_RD_16_1.png","I_Dist_100_LN_10_LD_25_RN_9_RD_18_1.png","I_Dist_100_LN_11_LD_22_RN_9_RD_15_1.png","I_Dist_100_LN_12_LD_24_RN_9_RD_15_1.png","I_Dist_100_LN_12_LD_30_RN_2_RD_4_1.png","I_Dist_100_LN_13_LD_26_RN_12_RD_20_1.png","I_Dist_100_LN_13_LD_26_RN_6_RD_10_1.png","I_Dist_100_LN_17_LD_30_RN_10_RD_15_1.png","I_Dist_100_LN_6_LD_12_RN_3_RD_5_1.png","I_Dist_100_LN_8_LD_16_RN_6_RD_10_1.png","I_Dist_100_LN_8_LD_20_RN_1_RD_2_1.png","I_Dist_100_LN_9_LD_18_RN_6_RD_10_1.png"]],"dist100_S":[["E_Dist_100_LN_2_LD_12_RN_2_RD_30_0.png","E_Dist_100_LN_6_LD_10_RN_6_RD_12_0.png"],["E_Dist_100_LN_6_LD_12_RN_6_RD_10_1.png"]],"dist200_C":[["C_Dist_200_LN_11_LD_22_RN_3_RD_10_0.png","C_Dist_200_LN_12_LD_15_RN_6_RD_10_0.png","C_Dist_200_LN_12_LD_20_RN_6_RD_15_0.png","C_Dist_200_LN_14_LD_28_RN_6_RD_20_0.png","C_Dist_200_LN_15_LD_25_RN_4_RD_10_0.png","C_Dist_200_LN_16_LD_20_RN_12_RD_20_0.png","C_Dist_200_LN_16_LD_30_RN_9_RD_27_0.png","C_Dist_200_LN_20_LD_25_RN_9_RD_15_0.png","C_Dist_200_LN_21_LD_30_RN_2_RD_4_0.png","C_Dist_200_LN_4_LD_10_RN_3_RD_15_0.png","C_Dist_200_LN_4_LD_8_RN_3_RD_10_0.png","C_Dist_200_LN_6_LD_15_RN_3_RD_15_0.png","C_Dist_200_LN_7_LD_21_RN_2_RD_15_0.png","C_Dist_200_LN_8_LD_15_RN_2_RD_6_0.png","C_Dist_200_LN_8_LD_15_RN_3_RD_9_0.png","C_Dist_200_LN_8_LD_15_RN_7_RD_21_0.png","C_Dist_200_LN_9_LD_20_RN_4_RD_16_0.png"],["C_Dist_200_LN_1_LD_2_RN_21_RD_30_1.png","C_Dist_200_LN_13_LD_26_RN_14_RD_20_1.png","C_Dist_200_LN_3_LD_10_RN_11_RD_22_1.png","C_Dist_200_LN_3_LD_10_RN_14_RD_28_1.png","C_Dist_200_LN_3_LD_10_RN_7_RD_14_1.png","C_Dist_200_LN_3_LD_12_RN_9_RD_20_1.png","C_Dist_200_LN_3_LD_6_RN_14_RD_20_1.png","C_Dist_200_LN_5_LD_10_RN_14_RD_20_1.png","C_Dist_200_LN_6_LD_12_RN_7_RD_10_1.png","C_Dist_200_LN_6_LD_20_RN_11_RD_22_1.png","C_Dist_200_LN_7_LD_15_RN_18_RD_27_1.png","C_Dist_200_LN_9_LD_30_RN_13_RD_26_1.png"]],"dist200_I":[["I_Dist_200_LN_1_LD_2_RN_3_RD_10_0.png","I_Dist_200_LN_1_LD_3_RN_2_RD_15_0.png","I_Dist_200_LN_3_LD_4_RN_11_RD_20_0.png","I_Dist_200_LN_4_LD_5_RN_6_RD_10_0.png","I_Dist_200_LN_4_LD_6_RN_14_RD_30_0.png","I_Dist_200_LN_7_LD_10_RN_12_RD_24_0.png","I_Dist_200_LN_7_LD_10_RN_14_RD_28_0.png","I_Dist_200_LN_7_LD_10_RN_8_RD_16_0.png"],["I_Dist_200_LN_11_LD_20_RN_3_RD_4_1.png","I_Dist_200_LN_14_LD_30_RN_12_RD_18_1.png","I_Dist_200_LN_14_LD_30_RN_6_RD_9_1.png","I_Dist_200_LN_3_LD_10_RN_1_RD_2_1.png","I_Dist_200_LN_4_LD_30_RN_1_RD_3_1.png","I_Dist_200_LN_6_LD_20_RN_3_RD_6_1.png","I_Dist_200_LN_7_LD_15_RN_4_RD_6_1.png","I_Dist_200_LN_7_LD_15_RN_6_RD_9_1.png","I_Dist_200_LN_9_LD_15_RN_8_RD_10_1.png"]],"dist200_S":[["E_Dist_200_LN_3_LD_6_RN_3_RD_10_0.png"],["E_Dist_200_LN_3_LD_10_RN_3_RD_6_1.png"]],"dist300_C":[["C_Dist_300_LN_11_LD_22_RN_1_RD_5_0.png","C_Dist_300_LN_11_LD_22_RN_2_RD_10_0.png","C_Dist_300_LN_11_LD_22_RN_4_RD_20_0.png","C_Dist_300_LN_12_LD_24_RN_2_RD_10_0.png","C_Dist_300_LN_18_LD_20_RN_9_RD_15_0.png","C_Dist_300_LN_20_LD_25_RN_13_RD_26_0.png","C_Dist_300_LN_20_LD_25_RN_14_RD_28_0.png","C_Dist_300_LN_20_LD_25_RN_5_RD_10_0.png","C_Dist_300_LN_20_LD_25_RN_8_RD_16_0.png","C_Dist_300_LN_20_LD_25_RN_9_RD_18_0.png","C_Dist_300_LN_24_LD_30_RN_2_RD_4_0.png","C_Dist_300_LN_24_LD_30_RN_8_RD_16_0.png","C_Dist_300_LN_3_LD_6_RN_2_RD_10_0.png","C_Dist_300_LN_4_LD_10_RN_1_RD_10_0.png","C_Dist_300_LN_4_LD_5_RN_2_RD_4_0.png","C_Dist_300_LN_8_LD_16_RN_1_RD_5_0.png","C_Dist_300_LN_9_LD_10_RN_3_RD_5_0.png"],["C_Dist_300_LN_1_LD_20_RN_7_RD_20_1.png","C_Dist_300_LN_1_LD_3_RN_19_RD_30_1.png","C_Dist_300_LN_1_LD_30_RN_8_RD_24_1.png","C_Dist_300_LN_1_LD_5_RN_11_RD_22_1.png","C_Dist_300_LN_1_LD_5_RN_3_RD_6_1.png","C_Dist_300_LN_1_LD_5_RN_6_RD_12_1.png","C_Dist_300_LN_2_LD_10_RN_12_RD_24_1.png","C_Dist_300_LN_2_LD_20_RN_10_RD_25_1.png","C_Dist_300_LN_3_LD_12_RN_11_RD_20_1.png","C_Dist_300_LN_3_LD_6_RN_4_RD_5_1.png","C_Dist_300_LN_4_LD_20_RN_13_RD_26_1.png","C_Dist_300_LN_5_LD_25_RN_6_RD_12_1.png","C_Dist_300_LN_5_LD_25_RN_7_RD_14_1.png","C_Dist_300_LN_7_LD_14_RN_20_RD_25_1.png","C_Dist_300_LN_8_LD_15_RN_10_RD_12_1.png"]],"dist300_I":[["I_Dist_300_LN_1_LD_2_RN_2_RD_10_0.png","I_Dist_300_LN_1_LD_2_RN_3_RD_15_0.png","I_Dist_300_LN_2_LD_4_RN_6_RD_30_0.png","I_Dist_300_LN_3_LD_6_RN_4_RD_20_0.png","I_Dist_300_LN_4_LD_5_RN_6_RD_12_0.png","I_Dist_300_LN_4_LD_5_RN_8_RD_16_0.png","I_Dist_300_LN_7_LD_10_RN_8_RD_20_0.png","I_Dist_300_LN_8_LD_10_RN_14_RD_28_0.png","I_Dist_300_LN_8_LD_10_RN_9_RD_18_0.png"],["I_Dist_300_LN_13_LD_26_RN_12_RD_15_1.png","I_Dist_300_LN_4_LD_20_RN_2_RD_4_1.png"]],"dist300_S":[["E_Dist_300_LN_9_LD_12_RN_9_RD_20_0.png"],["E_Dist_300_LN_18_LD_30_RN_18_RD_20_1.png","E_Dist_300_LN_3_LD_10_RN_3_RD_5_1.png","E_Dist_300_LN_9_LD_20_RN_9_RD_12_1.png"]],"dist500_C":[["C_Dist_500_LN_10_LD_13_RN_7_RD_26_0.png","C_Dist_500_LN_10_LD_15_RN_4_RD_24_0.png","C_Dist_500_LN_12_LD_16_RN_3_RD_12_0.png","C_Dist_500_LN_12_LD_18_RN_4_RD_24_0.png","C_Dist_500_LN_15_LD_18_RN_5_RD_15_0.png","C_Dist_500_LN_15_LD_20_RN_1_RD_4_0.png","C_Dist_500_LN_18_LD_27_RN_1_RD_6_0.png","C_Dist_500_LN_20_LD_24_RN_1_RD_3_0.png","C_Dist_500_LN_20_LD_24_RN_3_RD_9_0.png","C_Dist_500_LN_20_LD_24_RN_7_RD_21_0.png","C_Dist_500_LN_20_LD_28_RN_3_RD_14_0.png","C_Dist_500_LN_21_LD_28_RN_6_RD_24_0.png","C_Dist_500_LN_22_LD_28_RN_2_RD_7_0.png","C_Dist_500_LN_25_LD_30_RN_9_RD_27_0.png","C_Dist_500_LN_4_LD_6_RN_1_RD_6_0.png","C_Dist_500_LN_5_LD_6_RN_2_RD_6_0.png","C_Dist_500_LN_6_LD_9_RN_1_RD_6_0.png","C_Dist_500_LN_7_LD_10_RN_1_RD_5_0.png","C_Dist_500_LN_8_LD_12_RN_1_RD_6_0.png","C_Dist_500_LN_8_LD_12_RN_4_RD_24_0.png"],["C_Dist_500_LN_1_LD_4_RN_12_RD_16_1.png","C_Dist_500_LN_1_LD_4_RN_9_RD_12_1.png","C_Dist_500_LN_1_LD_9_RN_11_RD_18_1.png","C_Dist_500_LN_10_LD_24_RN_22_RD_24_1.png","C_Dist_500_LN_2_LD_12_RN_10_RD_15_1.png","C_Dist_500_LN_2_LD_12_RN_12_RD_18_1.png","C_Dist_500_LN_2_LD_12_RN_4_RD_6_1.png","C_Dist_500_LN_2_LD_24_RN_7_RD_12_1.png","C_Dist_500_LN_2_LD_5_RN_18_RD_20_1.png","C_Dist_500_LN_2_LD_5_RN_9_RD_10_1.png","C_Dist_500_LN_2_LD_8_RN_12_RD_16_1.png","C_Dist_500_LN_2_LD_8_RN_21_RD_28_1.png","C_Dist_500_LN_3_LD_10_RN_4_RD_5_1.png","C_Dist_500_LN_3_LD_12_RN_15_RD_20_1.png","C_Dist_500_LN_3_LD_30_RN_6_RD_10_1.png","C_Dist_500_LN_3_LD_8_RN_14_RD_16_1.png","C_Dist_500_LN_4_LD_16_RN_15_RD_20_1.png","C_Dist_500_LN_4_LD_24_RN_12_RD_18_1.png","C_Dist_500_LN_5_LD_14_RN_6_RD_7_1.png","C_Dist_500_LN_7_LD_21_RN_20_RD_24_1.png","C_Dist_500_LN_7_LD_28_RN_12_RD_16_1.png","C_Dist_500_LN_7_LD_28_RN_9_RD_12_1.png","C_Dist_500_LN_9_LD_27_RN_20_RD_24_1.png"]],"dist500_I":[["I_Dist_500_LN_2_LD_3_RN_4_RD_24_0.png","I_Dist_500_LN_5_LD_6_RN_6_RD_18_0.png","I_Dist_500_LN_7_LD_8_RN_9_RD_24_0.png"],["I_Dist_500_LN_7_LD_21_RN_5_RD_6_1.png"]],"dist500_S":[["E_Dist_500_LN_6_LD_8_RN_6_RD_24_0.png"],["E_Dist_500_LN_2_LD_12_RN_2_RD_3_1.png","E_Dist_500_LN_6_LD_24_RN_6_RD_8_1.png"]]}},{"start_time":1551886956208,"click_time":1551886959596,"finger_time":1551886957976,"fix_duration":250,"trial":1,"RT":1768,"MT":1620,"sideResp":2,"stimulus":[],"xmouse":[776,776,776,776,776,776,776,776,776,776,776,776,776,776,776,776,776,776,776,776,776,776,776,776,776,776,776,776,776,776,776,776,776,776,776,776,776,776,776,776,776,776,776,776,776,776,776,776,776,776,776,776,776,776,776,776,776,776,776,776,776,776,776,776,776,776,776,776,776,776,776,776,776,776,776,776,776,776,776,776,776,776,776,776,776,776,760,750,699,686,678,673,672,672,672,669,666,665,660,659,659,659,659,659,659,659,659,659,659,659,659,659,659,659,659,659,659,659,659,659,659,659,659,659,659,659,659,659,659,659,659,657,650,638,634,631,629,629,629,629,629,629,629,629,629,629,631,638,660,671,680,691,707,783,797,806,813,818,839,851,863,874,889,916,943,968,987,1004,1044,1069],"ymouse":[569,569,569,569,569,569,569,569,569,569,569,569,569,569,569,569,569,569,569,569,569,569,569,569,569,569,569,569,569,569,569,569,569,569,569,569,569,569,569,569,569,569,569,569,569,569,569,569,569,569,569,569,569,569,569,569,569,569,569,569,569,569,569,569,569,569,569,569,569,569,569,569,569,569,569,569,569,569,569,569,569,569,569,569,569,569,549,539,478,450,432,420,416,400,392,384,377,374,363,362,362,362,362,362,362,362,362,362,362,362,362,362,362,362,362,362,362,362,362,362,362,362,362,362,362,362,362,362,362,362,362,358,345,317,312,307,305,304,304,304,304,304,304,304,304,301,290,279,257,249,242,235,222,180,176,174,171,169,160,154,149,144,136,125,115,107,100,92,74,63],"timestamp_mouse":[9,37,49,67,88,108,127,148,168,189,207,229,247,269,288,308,328,348,368,389,409,428,447,468,488,509,529,548,568,588,607,629,648,668,688,709,728,748,768,789,809,828,848,868,888,908,927,948,967,988,1008,1027,1048,1069,1089,1107,1129,1148,1167,1188,1208,1228,1248,1268,1289,1309,1328,1348,1368,1388,1409,1429,1448,1468,1489,1508,1527,1549,1568,1587,1609,1628,1649,1667,1687,1708,1728,1748,1768,1789,1807,1827,1849,1868,1889,1908,1929,1948,1969,1988,2007,2028,2049,2068,2088,2108,2128,2147,2169,2189,2209,2228,2248,2268,2289,2308,2328,2349,2368,2388,2408,2428,2448,2468,2489,2508,2529,2547,2568,2588,2608,2628,2649,2667,2688,2707,2728,2748,2768,2788,2808,2829,2847,2868,2888,2908,2928,2948,2969,2989,3008,3028,3048,3068,3088,3108,3129,3149,3167,3188,3208,3228,3249,3268,3288,3308,3329,3347,3368,3388],"xSR":741.5,"ySR":501.8,"xT1":424.9,"yT1":0,"xT2":1058.1,"yT2":0,"toosoon":0,"cond_shown":"Incongruent","ratio_trial":100,"L_num":8,"L_den":16,"R_num":6,"R_den":10,"correct_side":2,"subjID":"juandavidradagiraldo31","gender":"0","school":"6","age":"12años"},{"start_time":1551886967145,"click_time":1551886968976,"finger_time":1551886968697,"fix_duration":1026.362385497114,"trial":2,"RT":1552,"MT":279,"sideResp":1,"stimulus":[],"xmouse":[782,782,782,782,782,782,782,782,782,782,782,782,782,782,782,782,782,782,782,782,782,782,782,782,782,782,782,782,782,782,782,782,782,782,782,782,782,782,782,782,782,782,782,782,782,782,782,782,782,782,782,782,782,782,782,782,782,782,782,782,782,782,782,782,782,782,782,782,782,782,782,782,782,782,782,782,783,772,756,736,708,668,602,593,582,572,568,566,561,554,542,522],"ymouse":[553,553,553,553,553,553,553,553,553,553,553,553,553,553,553,553,553,553,553,553,553,553,553,553,553,553,553,553,553,553,553,553,553,553,553,553,553,553,553,553,553,553,553,553,553,553,553,553,553,553,553,553,553,553,553,553,553,553,553,553,553,553,553,553,553,553,553,553,553,553,553,553,553,553,553,553,552,501,459,415,370,315,215,194,178,164,158,155,153,145,125,91],"timestamp_mouse":[12,44,51,71,91,111,130,152,171,191,211,231,251,271,292,312,331,352,370,391,412,431,451,470,491,511,532,552,571,590,611,631,651,671,691,712,730,751,770,791,811,832,851,870,892,912,931,951,971,991,1011,1032,1051,1072,1090,1110,1132,1151,1172,1192,1211,1231,1252,1271,1291,1311,1331,1354,1370,1392,1412,1431,1452,1472,1491,1512,1531,1552,1570,1591,1611,1630,1651,1671,1691,1712,1732,1751,1771,1791,1810,1831],"xSR":741.5,"ySR":501.8,"xT1":424.9,"yT1":0,"xT2":1058.1,"yT2":0,"toosoon":0,"cond_shown":"Congruent","ratio_trial":200,"L_num":16,"L_den":30,"R_num":9,"R_den":27,"correct_side":1,"subjID":"juandavidradagiraldo31","gender":"0","school":"6","age":"12años"},{"start_time":1551886975873,"click_time":1551886979517,"finger_time":1551886978496,"fix_duration":1456.751705440271,"trial":3,"RT":2623,"MT":1021,"sideResp":2,"stimulus":[],"xmouse":[805,805,805,805,805,805,805,805,805,805,805,805,805,805,805,805,805,805,805,805,805,805,805,805,805,805,805,805,805,805,805,805,805,805,805,805,805,805,805,805,805,805,805,805,805,805,805,805,805,805,805,805,805,805,805,805,805,805,805,805,805,805,805,805,805,805,805,805,805,805,805,805,805,805,805,805,805,805,805,805,805,805,805,805,805,805,805,805,805,805,805,805,805,805,805,805,805,805,805,805,805,805,805,805,805,805,805,805,805,805,805,805,805,805,805,805,805,804,804,804,804,804,804,804,804,804,804,801,794,788,784,775,761,753,746,741,741,741,741,741,741,741,741,741,741,741,741,741,741,741,741,741,741,741,743,745,749,768,781,797,833,883,944,1029,1055,1072,1084,1098,1136,1154,1171,1178,1193,1194,1194,1194,1192,1192,1192,1192,1192,1192,1117],"ymouse":[547,547,547,547,547,547,547,547,547,547,547,547,547,547,547,547,547,547,547,547,547,547,547,547,547,547,547,547,547,547,547,547,547,547,547,547,547,547,547,547,547,547,547,547,547,547,547,547,547,547,547,547,547,547,547,547,547,547,547,547,547,547,547,547,547,547,547,547,547,547,547,547,547,547,547,547,547,547,547,547,547,547,547,547,547,547,547,547,547,547,547,547,547,547,547,547,547,547,547,547,547,547,547,547,547,547,547,547,547,547,547,547,547,547,547,547,547,547,547,547,547,547,547,547,547,546,543,538,523,515,507,493,466,451,438,430,428,428,428,428,426,422,415,413,413,413,413,413,413,413,413,413,413,409,406,403,398,379,366,355,339,323,299,259,247,238,229,217,179,157,134,119,72,53,33,12,2,2,2,2,2,2,6],"timestamp_mouse":[9,24,43,63,83,104,122,143,162,183,203,223,243,263,282,302,323,343,363,384,403,423,442,462,484,503,522,543,563,583,602,623,643,663,683,703,723,743,763,783,803,822,843,862,882,903,923,943,963,983,1003,1023,1044,1063,1083,1102,1123,1143,1162,1183,1203,1224,1243,1263,1283,1303,1323,1342,1363,1384,1403,1423,1443,1462,1483,1503,1523,1543,1564,1583,1603,1623,1643,1663,1684,1703,1723,1743,1764,1782,1803,1822,1842,1862,1884,1903,1923,1942,1963,1983,2003,2024,2044,2064,2083,2102,2124,2143,2163,2183,2204,2223,2242,2263,2284,2304,2323,2344,2362,2382,2403,2423,2443,2464,2482,2503,2524,2543,2563,2584,2603,2623,2643,2662,2684,2704,2724,2743,2764,2784,2803,2823,2844,2862,2884,2904,2922,2943,2963,2982,3002,3023,3043,3063,3083,3103,3124,3144,3163,3183,3204,3222,3244,3264,3283,3304,3323,3344,3362,3383,3403,3424,3443,3462,3484,3504,3523,3543,3563,3583,3604,3624,3644],"xSR":741.5,"ySR":501.8,"xT1":424.9,"yT1":0,"xT2":1058.1,"yT2":0,"toosoon":0,"cond_shown":"Incongruent","ratio_trial":300,"L_num":3,"L_den":6,"R_num":4,"R_den":20,"correct_side":1,"subjID":"juandavidradagiraldo31","gender":"0","school":"6","age":"12años"},{"start_time":1551886986227,"click_time":1551886988016,"finger_time":1551886987756,"fix_duration":250,"trial":4,"RT":1529,"MT":260,"sideResp":1,"stimulus":[],"xmouse":[797,797,797,797,797,797,797,797,797,797,797,797,797,797,794,789,789,789,789,789,789,789,789,789,789,789,789,789,789,789,789,789,789,789,789,789,789,789,789,789,789,789,789,789,789,789,789,789,789,789,789,789,789,789,789,789,789,789,789,789,789,789,789,789,789,789,789,789,789,789,789,789,789,789,787,767,742,719,683,683,683,683,683,683,683,683,683,683,683,470],"ymouse":[576,576,576,576,576,576,576,576,576,576,576,576,576,573,569,562,561,561,561,561,561,561,561,561,561,561,561,561,561,561,561,561,561,561,561,561,561,561,561,561,561,561,561,561,561,561,561,561,561,561,561,561,561,561,561,561,561,561,561,561,561,561,561,561,561,561,561,561,561,561,561,561,561,561,559,519,425,270,91,91,91,91,91,91,91,91,91,91,91,4],"timestamp_mouse":[11,42,49,68,88,109,129,148,169,190,208,230,250,270,289,308,329,350,369,388,409,429,448,469,488,509,529,550,568,590,609,629,650,670,689,709,729,749,770,789,809,828,849,870,888,909,930,949,969,990,1010,1028,1048,1070,1090,1109,1130,1149,1169,1188,1209,1229,1250,1269,1288,1310,1330,1349,1370,1389,1409,1429,1450,1470,1490,1509,1529,1549,1570,1589,1609,1630,1649,1668,1689,1710,1729,1748,1768,1788],"xSR":741.5,"ySR":501.8,"xT1":424.9,"yT1":0,"xT2":1058.1,"yT2":0,"toosoon":0,"cond_shown":"Congruent","ratio_trial":100,"L_num":15,"L_den":25,"R_num":13,"R_den":26,"correct_side":1,"subjID":"juandavidradagiraldo31","gender":"0","school":"6","age":"12años"},{"start_time":1551886998900,"click_time":1551887000537,"finger_time":1551887000276,"fix_duration":1322.8649482097812,"trial":5,"RT":1376,"MT":261,"sideResp":1,"stimulus":[],"xmouse":[804,804,804,804,804,804,804,804,804,804,804,804,804,804,804,804,804,804,804,804,804,804,804,804,804,804,804,804,804,804,804,804,804,804,804,804,804,804,804,804,804,804,804,804,804,804,804,804,804,804,804,804,804,804,804,804,804,804,804,804,804,804,804,804,804,804,801,793,708,652,628,607,597,590,589,588,588,588,569,553,536,519],"ymouse":[567,567,567,567,567,567,567,567,567,567,567,567,567,567,567,567,567,567,567,567,567,567,567,567,567,567,567,567,567,567,567,567,567,567,567,567,567,567,567,567,567,567,567,567,567,567,567,567,567,567,567,567,567,567,567,567,567,567,567,567,567,567,567,567,567,567,553,533,379,263,199,149,121,93,88,84,82,82,74,67,57,47],"timestamp_mouse":[16,39,57,76,97,116,137,156,177,197,217,237,256,276,297,318,336,356,376,397,416,437,457,477,496,516,537,556,576,596,617,637,657,677,696,718,736,756,777,796,817,836,856,877,897,917,937,957,976,996,1017,1036,1056,1077,1098,1117,1137,1156,1176,1198,1217,1236,1256,1277,1297,1316,1336,1357,1376,1397,1418,1436,1456,1477,1496,1516,1536,1557,1578,1597,1616,1636],"xSR":741.5,"ySR":501.8,"xT1":424.9,"yT1":0,"xT2":1058.1,"yT2":0,"toosoon":0,"cond_shown":"Incongruent","ratio_trial":300,"L_num":8,"L_den":10,"R_num":9,"R_den":18,"correct_side":1,"subjID":"juandavidradagiraldo31","gender":"0","school":"6","age":"12años"},{"start_time":1551887011063,"click_time":1551887012638,"finger_time":1551887011877,"fix_duration":1405.8342855235921,"trial":6,"RT":814,"MT":761,"sideResp":1,"stimulus":[],"xmouse":[826,825,825,825,823,823,818,817,817,817,817,817,817,817,817,817,817,817,817,817,817,817,817,817,817,817,817,817,817,817,817,817,817,817,817,815,802,801,800,800,812,832,832,832,832,832,832,832,832,832,832,832,832,832,832,832,832,834,834,831,827,820,811,782,736,682,597,597,597,597,597,597,597,597,597,597,597,597,480],"ymouse":[531,532,532,532,535,536,541,542,542,542,542,542,542,542,542,542,542,542,542,542,542,542,542,542,542,542,542,542,542,542,542,542,542,542,542,543,546,546,545,537,497,460,460,460,460,460,460,460,460,460,460,460,460,460,460,460,460,460,472,491,506,510,492,431,346,225,27,27,27,27,27,27,27,27,27,27,27,27,7],"timestamp_mouse":[15,49,53,74,94,114,134,153,174,193,215,233,254,274,293,313,333,353,373,395,413,434,454,473,494,513,534,553,575,593,613,634,654,674,693,713,733,753,774,793,814,833,853,873,893,914,934,954,973,993,1013,1033,1053,1073,1093,1114,1133,1153,1173,1193,1213,1233,1254,1274,1293,1314,1334,1355,1375,1394,1415,1435,1455,1474,1493,1515,1534,1554,1575],"xSR":741.5,"ySR":501.8,"xT1":424.9,"yT1":0,"xT2":1058.1,"yT2":0,"toosoon":0,"cond_shown":"Incongruent","ratio_trial":200,"L_num":7,"L_den":10,"R_num":8,"R_den":16,"correct_side":1,"subjID":"juandavidradagiraldo31","gender":"0","school":"6","age":"12años"},{"start_time":1551887014575,"click_time":1551887016736,"finger_time":1551887016496,"fix_duration":555.2656023652839,"trial":7,"RT":1921,"MT":240,"sideResp":1,"stimulus":[],"xmouse":[754,754,754,762,766,771,772,773,773,773,773,773,773,773,773,773,773,773,773,773,773,773,773,773,773,773,773,773,773,773,773,773,773,773,773,773,773,773,773,773,773,773,773,773,773,773,773,773,773,773,773,773,773,773,773,773,773,773,773,773,773,773,773,773,773,773,773,773,773,773,773,773,773,773,773,773,773,773,773,773,773,773,773,773,773,773,773,773,773,773,773,773,770,766,762,758,750,699,623,576,562,559,559,559,558,552,537,527,524],"ymouse":[539,539,539,545,548,551,553,553,553,553,553,553,553,553,553,553,553,553,553,553,553,553,553,553,553,553,553,553,553,553,553,553,553,553,553,553,553,553,553,553,553,553,553,553,553,553,553,553,553,553,553,553,553,553,553,553,553,553,553,553,553,553,553,553,553,553,553,553,553,553,553,553,553,553,553,553,553,553,553,553,553,553,553,553,553,553,553,553,553,553,553,553,550,545,533,511,469,299,112,34,18,13,13,13,13,13,5,2,2],"timestamp_mouse":[10,22,41,61,82,102,122,142,163,181,202,221,242,262,281,303,322,342,362,381,402,422,441,461,483,502,522,542,561,581,601,623,642,662,682,701,721,741,761,782,802,822,842,863,881,901,921,942,962,983,1001,1022,1041,1062,1082,1101,1121,1142,1161,1182,1201,1221,1242,1262,1282,1302,1323,1341,1361,1381,1402,1421,1441,1462,1483,1501,1521,1542,1561,1582,1601,1621,1642,1661,1681,1701,1721,1742,1762,1783,1802,1821,1841,1862,1881,1903,1921,1941,1961,1981,2002,2022,2041,2061,2082,2102,2121,2141,2161],"xSR":741.5,"ySR":501.8,"xT1":424.9,"yT1":0,"xT2":1058.1,"yT2":0,"toosoon":0,"cond_shown":"Congruent","ratio_trial":100,"L_num":11,"L_den":22,"R_num":4,"R_den":10,"correct_side":1,"subjID":"juandavidradagiraldo31","gender":"0","school":"6","age":"12años"},{"start_time":1551887018610,"click_time":1551887021236,"finger_time":1551887020116,"fix_duration":952.1196619485466,"trial":8,"RT":1506,"MT":1120,"sideResp":1,"stimulus":[],"xmouse":[788,788,788,788,788,788,788,788,788,788,788,788,788,788,788,788,788,788,788,788,788,788,788,788,788,788,788,788,788,788,788,788,788,788,788,788,788,788,788,788,788,788,788,788,788,788,788,788,788,788,788,788,788,788,788,788,788,788,788,788,788,788,788,788,788,788,788,788,788,788,788,788,788,788,786,730,709,705,705,705,705,707,711,713,714,714,714,714,714,714,714,714,714,714,714,714,714,715,712,711,711,711,711,711,711,711,711,711,711,711,711,711,711,711,711,711,711,711,711,711,711,711,711,711,711,711,711,711,704,681,625,479],"ymouse":[555,555,555,555,555,555,555,555,555,555,555,555,555,555,555,555,555,555,555,555,555,555,555,555,555,555,555,555,555,555,555,555,555,555,555,555,555,555,555,555,555,555,555,555,555,555,555,555,555,555,555,555,555,555,555,555,555,555,555,555,555,555,555,555,555,555,555,555,555,555,555,555,547,538,515,389,359,354,354,354,354,354,358,360,361,361,361,361,361,361,361,361,361,361,361,361,361,358,355,354,354,354,354,354,354,354,354,354,354,354,354,354,354,354,354,354,354,354,354,354,354,354,354,354,354,354,354,353,341,295,216,32],"timestamp_mouse":[10,40,46,67,87,106,127,147,166,188,207,226,246,266,286,306,326,347,367,386,407,426,447,466,487,506,526,546,566,587,606,627,647,667,686,706,726,746,766,788,806,827,847,866,886,906,926,947,968,987,1006,1028,1048,1066,1086,1106,1127,1146,1166,1186,1206,1227,1246,1266,1286,1307,1327,1348,1368,1387,1406,1426,1447,1468,1486,1506,1527,1547,1566,1587,1606,1626,1646,1666,1687,1707,1727,1748,1766,1786,1807,1828,1846,1866,1887,1907,1928,1946,1966,1987,2006,2027,2047,2068,2087,2107,2127,2146,2167,2186,2207,2226,2247,2266,2288,2306,2326,2346,2366,2386,2406,2426,2446,2466,2487,2507,2528,2546,2567,2587,2606,2626],"xSR":741.5,"ySR":501.8,"xT1":424.9,"yT1":0,"xT2":1058.1,"yT2":0,"toosoon":0,"cond_shown":"Incongruent","ratio_trial":200,"L_num":7,"L_den":10,"R_num":14,"R_den":28,"correct_side":1,"subjID":"juandavidradagiraldo31","gender":"0","school":"6","age":"12años"},{"start_time":1551887023078,"click_time":1551887026076,"finger_time":1551887025756,"fix_duration":660.2381850182003,"trial":9,"RT":2678,"MT":320,"sideResp":2,"stimulus":[],"xmouse":[801,801,801,801,801,801,801,801,801,801,801,801,801,801,801,801,801,801,801,801,801,801,801,801,801,801,801,801,801,801,801,801,801,801,801,801,801,800,800,800,800,800,800,800,800,800,800,800,800,800,800,800,800,800,800,800,800,800,800,800,800,800,800,800,800,800,800,800,800,800,800,800,800,800,800,800,800,800,800,800,800,800,800,800,800,800,800,800,800,800,800,800,800,800,800,800,800,800,800,800,800,800,800,800,800,800,800,800,800,800,800,800,800,800,800,800,800,800,800,800,800,800,800,800,800,800,800,800,800,800,800,800,808,824,850,888,927,1011,1053,1113,1150,1170,1195,1196,1196,1196,1196,1182,1166,1146],"ymouse":[526,526,526,526,526,526,526,526,526,526,526,526,526,526,526,526,526,526,526,526,526,526,526,526,526,526,526,526,526,526,526,526,526,526,526,526,528,530,530,530,530,530,530,530,530,530,530,530,530,530,530,530,530,530,530,530,530,530,530,530,530,530,530,530,530,530,530,530,530,530,530,530,530,530,530,530,530,530,530,530,530,530,530,530,530,530,530,530,530,530,530,530,530,530,530,530,530,530,530,530,530,530,530,530,530,530,530,530,530,530,530,530,530,530,530,530,530,530,530,530,530,530,530,530,530,530,530,530,530,530,530,530,518,492,454,406,363,307,285,220,180,151,99,94,94,94,94,83,71,57],"timestamp_mouse":[18,40,58,78,99,118,139,158,178,198,218,238,258,280,298,318,339,359,379,398,418,438,458,479,499,518,538,559,578,598,618,638,659,678,698,718,738,759,778,798,818,840,858,878,899,919,939,958,980,999,1018,1038,1058,1080,1099,1118,1140,1158,1179,1200,1218,1238,1258,1278,1299,1319,1338,1359,1380,1398,1419,1440,1459,1478,1498,1519,1540,1559,1578,1598,1619,1639,1658,1679,1699,1719,1739,1759,1778,1799,1819,1838,1859,1878,1898,1918,1939,1959,1980,1998,2019,2039,2059,2079,2098,2118,2139,2158,2178,2199,2220,2239,2258,2278,2298,2318,2338,2360,2379,2398,2419,2438,2458,2478,2498,2518,2540,2558,2578,2598,2618,2638,2658,2678,2699,2718,2738,2758,2779,2798,2818,2838,2859,2878,2898,2918,2939,2958,2978,2998],"xSR":741.5,"ySR":501.8,"xT1":424.9,"yT1":0,"xT2":1058.1,"yT2":0,"toosoon":0,"cond_shown":"Congruent","ratio_trial":200,"L_num":13,"L_den":26,"R_num":14,"R_den":20,"correct_side":2,"subjID":"juandavidradagiraldo31","gender":"0","school":"6","age":"12años"},{"start_time":1551887027868,"click_time":1551887029936,"finger_time":1551887029676,"fix_duration":829.6096394374814,"trial":10,"RT":1808,"MT":260,"sideResp":2,"stimulus":[],"xmouse":[767,767,767,767,767,767,767,767,772,781,786,788,788,788,788,788,788,788,788,788,788,788,788,788,788,788,788,788,788,788,788,788,788,788,788,788,788,788,788,788,788,788,788,788,788,788,788,788,788,788,788,788,788,788,788,788,788,788,788,788,788,788,788,788,788,788,788,788,788,788,788,788,788,788,788,788,788,788,788,788,788,788,788,788,788,788,788,788,798,834,872,914,952,993,998,997,993,992,1018,1035,1051,1071,1111,1145],"ymouse":[549,549,549,549,549,549,549,549,550,551,553,554,554,554,554,554,554,554,554,554,554,554,554,554,554,554,554,554,554,554,554,554,554,554,554,554,554,554,554,554,554,554,554,554,554,554,554,554,554,554,554,554,554,554,554,554,554,554,554,554,554,554,554,554,554,554,554,554,554,554,554,554,554,554,554,554,554,554,554,554,554,554,554,554,554,554,554,554,546,515,480,440,405,336,312,288,262,237,214,206,197,178,110,22],"timestamp_mouse":[8,36,49,69,88,110,129,150,168,188,208,230,248,269,290,309,329,348,370,388,409,429,448,469,489,508,529,549,568,588,610,629,649,669,689,708,728,748,768,789,808,828,849,868,889,910,930,949,968,988,1009,1030,1049,1068,1089,1108,1130,1148,1168,1190,1208,1228,1248,1269,1288,1310,1329,1348,1369,1389,1408,1428,1448,1468,1488,1508,1528,1550,1568,1590,1609,1630,1660,1670,1690,1709,1728,1749,1769,1788,1808,1829,1848,1868,1888,1908,1928,1948,1968,1988,2008,2029,2048,2068],"xSR":741.5,"ySR":501.8,"xT1":424.9,"yT1":0,"xT2":1058.1,"yT2":0,"toosoon":0,"cond_shown":"Congruent","ratio_trial":300,"L_num":3,"L_den":6,"R_num":4,"R_den":5,"correct_side":2,"subjID":"juandavidradagiraldo31","gender":"0","school":"6","age":"12años"},{"start_time":1551887032332,"click_time":1551887034297,"finger_time":1551887033937,"fix_duration":1373.2504412063079,"trial":11,"RT":1605,"MT":360,"sideResp":2,"stimulus":[],"xmouse":[809,809,809,809,809,809,809,809,809,809,809,809,809,809,809,809,809,809,809,809,809,809,809,809,809,809,809,809,809,809,809,809,809,809,809,809,809,809,809,809,809,809,809,809,809,809,809,809,809,809,809,809,809,809,809,809,809,809,809,809,809,809,809,809,809,809,809,809,809,809,809,809,809,809,809,809,809,811,815,825,843,879,905,925,951,973,1004,1011,1016,1019,1025,1025,1026,1027,1032,1037,1051,1057,1064],"ymouse":[543,543,543,543,543,543,543,543,543,543,543,543,543,543,543,543,543,543,543,543,543,543,543,543,543,543,543,543,543,543,543,543,543,543,543,543,543,543,543,543,543,543,543,543,543,543,543,543,543,543,543,543,543,543,543,543,543,543,543,543,543,543,543,543,543,543,543,543,543,543,543,543,543,543,543,543,543,538,530,508,472,405,360,323,280,241,185,168,156,151,141,137,134,128,120,113,99,96,91],"timestamp_mouse":[11,35,44,64,84,104,124,144,164,184,204,224,244,264,284,304,324,344,364,384,405,426,445,464,486,504,524,544,564,585,604,624,644,664,684,704,725,744,764,785,805,824,844,864,884,906,924,944,965,986,1004,1024,1044,1064,1084,1106,1125,1145,1164,1184,1204,1224,1245,1265,1285,1305,1326,1344,1364,1385,1404,1425,1444,1464,1484,1504,1526,1544,1564,1584,1605,1625,1644,1664,1685,1705,1724,1745,1764,1784,1806,1824,1844,1865,1884,1905,1924,1944,1965],"xSR":741.5,"ySR":501.8,"xT1":424.9,"yT1":0,"xT2":1058.1,"yT2":0,"toosoon":0,"cond_shown":"Congruent","ratio_trial":300,"L_num":5,"L_den":25,"R_num":7,"R_den":14,"correct_side":2,"subjID":"juandavidradagiraldo31","gender":"0","school":"6","age":"12años"},{"start_time":1551887035608,"click_time":1551887038137,"finger_time":1551887037777,"fix_duration":530.8224391477181,"trial":12,"RT":2169,"MT":360,"sideResp":1,"stimulus":[],"xmouse":[810,810,810,810,810,810,810,810,810,810,810,810,810,810,810,810,810,810,810,810,810,810,810,810,810,810,810,810,810,810,810,810,810,810,810,810,810,810,810,810,810,810,810,810,810,810,810,810,810,810,810,810,810,810,810,810,810,810,810,810,810,810,810,810,810,810,810,810,810,810,810,810,810,810,810,810,810,810,810,810,810,810,810,810,810,810,810,810,810,810,810,810,810,810,810,810,810,810,810,810,810,810,810,810,810,810,810,799,774,729,675,626,602,600,596,585,554,530,530,529,527,521,493,482,471,464,464],"ymouse":[567,567,567,567,567,567,567,567,567,567,567,567,567,567,567,567,567,567,567,567,567,567,567,567,567,567,567,567,567,567,567,567,567,567,567,567,567,567,567,567,567,567,567,567,567,567,567,567,567,567,567,567,567,567,567,567,567,567,567,567,567,567,567,567,567,567,567,567,567,567,567,567,567,567,567,567,567,567,567,567,567,567,567,567,567,567,567,567,567,567,567,567,567,567,567,567,567,567,567,567,567,567,567,567,567,567,567,538,484,423,361,319,301,301,301,299,295,288,288,288,274,250,173,146,120,103,80],"timestamp_mouse":[9,44,48,68,88,108,128,149,169,189,209,228,250,268,288,309,328,348,368,388,408,429,448,469,488,508,528,548,570,588,608,630,649,668,690,709,728,748,768,789,809,830,849,868,889,909,929,949,968,989,1009,1028,1049,1069,1090,1108,1129,1149,1168,1188,1208,1228,1248,1268,1290,1309,1330,1349,1368,1388,1408,1429,1448,1468,1489,1508,1528,1549,1568,1588,1609,1630,1649,1669,1689,1708,1728,1748,1768,1788,1809,1829,1848,1868,1889,1908,1928,1948,1968,1988,2008,2029,2049,2068,2088,2108,2129,2148,2169,2188,2208,2228,2249,2269,2289,2308,2328,2348,2369,2389,2408,2428,2449,2468,2489,2508,2528],"xSR":741.5,"ySR":501.8,"xT1":424.9,"yT1":0,"xT2":1058.1,"yT2":0,"toosoon":0,"cond_shown":"Incongruent","ratio_trial":300,"L_num":7,"L_den":10,"R_num":8,"R_den":20,"correct_side":1,"subjID":"juandavidradagiraldo31","gender":"0","school":"6","age":"12años"},{"start_time":1551887039737,"click_time":1551887041757,"finger_time":1551887041517,"fix_duration":978.3187663969389,"trial":13,"RT":1780,"MT":240,"sideResp":1,"stimulus":[],"xmouse":[774,774,774,775,775,775,775,777,778,780,782,787,787,787,787,787,787,787,787,787,787,787,787,787,787,787,787,787,787,787,787,787,787,787,787,787,787,787,787,787,787,787,787,787,787,787,787,787,787,787,787,787,787,787,787,787,787,787,787,787,787,787,787,787,787,787,787,787,787,787,787,787,787,787,787,787,787,787,787,787,787,787,787,787,787,787,787,788,788,771,729,679,639,636,636,635,633,613,606,591,578,511],"ymouse":[548,548,549,549,549,549,549,550,551,552,552,554,554,554,554,554,554,554,554,554,554,554,554,554,554,554,554,554,554,554,554,554,554,554,554,554,554,554,554,554,554,554,554,554,554,554,554,554,554,554,554,554,554,554,554,554,554,554,554,554,554,554,554,554,554,554,554,554,554,554,554,554,554,554,554,554,554,554,554,554,554,554,554,554,554,554,554,554,538,388,256,160,93,78,76,75,70,58,55,47,44,39],"timestamp_mouse":[1,19,40,59,80,100,119,139,159,180,199,220,240,260,280,300,319,339,359,379,400,419,440,460,480,499,519,539,561,580,599,619,639,659,681,701,719,739,760,779,800,819,839,859,880,901,919,940,961,981,999,1019,1040,1059,1080,1099,1119,1141,1161,1180,1201,1220,1239,1259,1280,1300,1320,1339,1359,1379,1400,1419,1440,1459,1480,1499,1521,1539,1559,1581,1600,1620,1640,1660,1679,1699,1721,1739,1759,1780,1800,1819,1839,1859,1879,1900,1921,1939,1959,1979,2000,2020],"xSR":741.5,"ySR":501.8,"xT1":424.9,"yT1":0,"xT2":1058.1,"yT2":0,"toosoon":0,"cond_shown":"Congruent","ratio_trial":200,"L_num":14,"L_den":28,"R_num":6,"R_den":20,"correct_side":1,"subjID":"juandavidradagiraldo31","gender":"0","school":"6","age":"12años"},{"start_time":1551887043868,"click_time":1551887046877,"finger_time":1551887045896,"fix_duration":1169.5322217235594,"trial":14,"RT":2028,"MT":981,"sideResp":1,"stimulus":[],"xmouse":[778,778,778,778,778,778,778,778,778,778,778,778,778,778,778,778,778,778,778,778,778,778,778,778,778,778,778,778,778,778,778,778,778,778,778,778,778,778,778,778,778,778,778,778,778,778,778,778,778,778,778,778,778,778,778,778,778,778,778,778,778,778,778,778,778,778,778,778,778,778,778,778,778,778,778,778,778,778,778,778,778,778,778,778,778,778,778,778,778,778,778,778,778,778,778,778,778,778,778,778,768,742,699,662,645,641,641,641,641,641,641,641,640,638,635,624,623,623,623,623,623,623,623,623,623,623,623,623,623,623,625,626,626,626,626,618,574,570,568,566,559,555,551,550,549,544,543,541,537,531,483],"ymouse":[536,536,536,536,536,536,536,536,536,536,536,536,536,536,536,536,536,536,536,536,536,536,536,536,536,536,536,536,536,536,536,536,536,536,536,536,536,536,536,536,536,536,536,536,536,536,536,536,536,536,536,536,536,536,536,536,536,536,536,536,536,536,536,536,536,536,536,536,536,536,538,538,538,538,538,538,538,538,538,538,538,538,538,538,538,538,538,538,538,538,538,538,538,538,538,538,538,538,538,538,517,477,430,392,372,364,364,364,364,364,364,364,363,360,353,339,338,337,337,337,337,337,337,337,337,337,337,337,337,336,329,322,307,284,250,180,98,96,95,93,88,85,84,83,83,79,78,77,77,75,63],"timestamp_mouse":[9,39,49,68,88,108,128,149,169,188,208,228,248,269,288,308,329,350,369,389,408,428,449,468,489,508,529,548,568,589,608,628,649,669,689,709,729,749,769,790,810,829,849,869,889,908,929,950,969,990,1009,1029,1049,1069,1089,1108,1128,1150,1169,1188,1209,1228,1248,1269,1288,1309,1328,1348,1368,1390,1409,1428,1449,1469,1489,1508,1528,1548,1569,1588,1608,1628,1648,1668,1689,1708,1728,1750,1768,1789,1808,1828,1848,1868,1888,1909,1928,1948,1970,1988,2008,2028,2048,2069,2089,2109,2130,2148,2168,2189,2208,2229,2248,2269,2288,2308,2328,2348,2368,2388,2409,2430,2450,2469,2488,2509,2529,2548,2569,2588,2608,2628,2648,2668,2688,2708,2728,2749,2769,2788,2808,2828,2849,2868,2888,2909,2928,2949,2968,2988,3009],"xSR":741.5,"ySR":501.8,"xT1":424.9,"yT1":0,"xT2":1058.1,"yT2":0,"toosoon":0,"cond_shown":"Incongruent","ratio_trial":300,"L_num":1,"L_den":2,"R_num":2,"R_den":10,"correct_side":1,"subjID":"juandavidradagiraldo31","gender":"0","school":"6","age":"12años"},{"start_time":1551887049327,"click_time":1551887051837,"finger_time":1551887051696,"fix_duration":1428.830010843242,"trial":15,"RT":2369,"MT":141,"sideResp":1,"stimulus":[],"xmouse":[805,805,805,805,805,805,805,805,805,805,805,805,805,805,805,805,805,805,805,805,805,805,805,805,805,805,805,805,805,805,805,805,805,805,805,805,805,805,804,804,804,804,804,804,804,804,804,804,804,804,804,804,804,804,804,804,804,804,804,804,804,804,804,804,804,804,804,804,804,804,804,804,804,804,804,804,804,804,804,804,804,804,804,804,804,804,804,804,804,804,804,804,804,804,804,804,804,804,804,804,804,804,804,804,804,804,804,804,804,804,804,804,804,804,804,804,804,806,806,785,740,686,624,558,535,519],"ymouse":[585,585,585,585,585,585,585,585,585,585,585,585,585,585,585,585,585,585,585,585,585,585,585,585,585,585,585,585,585,585,585,585,585,585,585,585,585,585,584,584,584,584,584,584,584,584,584,584,584,584,584,584,584,584,584,584,584,584,584,584,584,584,584,584,584,584,584,584,584,584,584,584,584,584,584,584,584,584,584,584,584,584,584,584,584,584,584,584,584,584,584,584,584,584,584,584,584,584,584,584,584,584,584,584,584,584,584,584,584,584,584,584,584,584,584,584,584,579,498,425,337,254,176,101,71,53],"timestamp_mouse":[9,35,50,70,91,109,129,149,170,189,211,230,249,269,291,310,329,350,369,390,409,430,449,470,490,509,530,549,571,589,609,630,651,669,690,709,729,750,770,790,809,830,849,870,889,910,930,949,971,990,1010,1030,1049,1070,1090,1109,1130,1151,1169,1190,1209,1230,1250,1269,1289,1311,1329,1349,1369,1389,1409,1430,1449,1470,1491,1509,1530,1549,1570,1589,1610,1630,1649,1670,1689,1709,1730,1751,1770,1790,1810,1829,1849,1869,1890,1909,1929,1950,1970,1990,2010,2030,2049,2069,2089,2109,2129,2151,2169,2189,2209,2230,2249,2271,2289,2310,2330,2349,2369,2389,2409,2430,2449,2470,2490,2510],"xSR":741.5,"ySR":501.8,"xT1":424.9,"yT1":0,"xT2":1058.1,"yT2":0,"toosoon":0,"cond_shown":"Congruent","ratio_trial":300,"L_num":12,"L_den":24,"R_num":2,"R_den":10,"correct_side":1,"subjID":"juandavidradagiraldo31","gender":"0","school":"6","age":"12años"},{"start_time":1551887053027,"click_time":1551887055456,"finger_time":1551887055396,"fix_duration":250,"trial":16,"RT":2369,"MT":60,"sideResp":1,"stimulus":[],"xmouse":[793,793,793,793,793,797,797,797,797,797,797,797,797,797,797,797,797,797,797,797,797,797,797,797,797,797,797,797,797,797,797,797,797,797,797,797,797,797,797,797,797,797,797,797,797,797,797,797,797,797,797,797,797,797,797,797,797,797,797,797,797,797,797,797,797,797,797,797,797,797,797,797,797,797,797,797,797,797,797,797,797,797,797,797,797,797,797,797,797,797,797,797,797,797,797,797,797,797,797,797,797,797,797,797,797,797,797,797,797,797,797,797,797,797,797,798,798,778,688,617,540,487],"ymouse":[587,587,587,587,587,584,584,584,584,584,584,584,584,584,584,584,584,584,584,584,584,584,584,584,584,584,584,584,584,584,584,584,584,584,584,584,584,584,584,584,584,584,584,584,584,584,584,584,584,584,584,584,584,584,584,584,584,584,584,584,584,584,584,584,584,584,584,584,584,584,584,584,584,584,584,584,584,584,584,584,584,584,584,584,584,584,584,584,584,584,584,584,584,584,584,584,584,584,584,584,584,584,584,584,584,584,584,584,584,584,584,584,584,584,584,577,569,514,312,202,110,53],"timestamp_mouse":[13,41,50,70,89,110,129,149,170,189,209,229,249,269,289,310,329,349,371,389,410,429,450,470,490,509,530,550,569,589,610,629,650,669,690,709,730,749,769,789,810,829,849,869,890,910,930,949,969,989,1010,1029,1049,1069,1091,1109,1130,1150,1170,1189,1209,1230,1250,1269,1290,1310,1330,1350,1370,1389,1410,1431,1450,1469,1489,1509,1531,1550,1569,1590,1610,1630,1649,1669,1689,1709,1730,1750,1769,1790,1810,1830,1851,1870,1889,1909,1931,1949,1969,1990,2010,2029,2050,2071,2089,2110,2129,2149,2169,2191,2209,2230,2250,2270,2290,2310,2329,2350,2369,2389,2410,2429],"xSR":741.5,"ySR":501.8,"xT1":424.9,"yT1":0,"xT2":1058.1,"yT2":0,"toosoon":0,"cond_shown":"Congruent","ratio_trial":200,"L_num":12,"L_den":20,"R_num":6,"R_den":15,"correct_side":1,"subjID":"juandavidradagiraldo31","gender":"0","school":"6","age":"12años"},{"start_time":1551887059046,"click_time":1551887061915,"finger_time":1551887061476,"fix_duration":689.7542811876034,"trial":17,"RT":2430,"MT":439,"sideResp":2,"stimulus":[],"xmouse":[770,770,770,770,770,770,770,770,770,770,770,770,770,770,770,770,770,770,770,770,770,770,770,770,770,770,770,770,770,770,770,770,770,770,770,770,770,770,770,770,770,770,770,770,770,770,770,770,770,770,770,770,770,770,770,770,770,770,770,770,770,770,770,770,770,770,770,770,770,770,770,770,770,770,770,770,770,770,770,770,770,770,770,770,770,770,770,770,770,770,770,770,770,770,770,770,770,770,770,770,770,770,770,770,770,770,770,770,770,770,770,770,770,770,770,770,770,770,770,771,782,865,1067,1265,1288,1289,1287,1286,1283,1278,1271,1250,1211,1037,991,981,981,982,990,1000,1015,1036,1054,1080],"ymouse":[561,561,561,561,561,561,561,561,561,561,561,561,561,561,561,561,561,561,561,561,561,561,561,561,561,561,561,561,561,561,561,561,561,561,561,561,561,561,561,561,561,561,561,561,561,561,561,561,561,561,561,561,561,561,561,561,561,561,561,561,561,561,561,561,561,561,561,561,561,561,561,561,561,561,561,561,561,561,561,561,561,561,561,561,561,561,561,561,561,561,561,561,561,561,561,561,561,561,561,561,561,561,561,561,561,561,561,561,561,561,561,561,561,561,561,561,561,561,561,560,555,516,388,186,140,127,124,123,123,123,123,123,116,74,54,48,48,45,39,37,37,37,37,37],"timestamp_mouse":[9,32,50,70,89,109,129,150,169,189,209,229,249,269,289,309,330,349,369,390,410,429,450,469,490,509,529,550,570,589,610,629,650,669,690,709,729,750,769,789,810,829,850,870,889,910,930,949,970,989,1010,1030,1050,1070,1090,1110,1129,1149,1170,1190,1209,1230,1249,1269,1289,1309,1330,1350,1369,1390,1409,1429,1449,1469,1490,1510,1530,1550,1570,1589,1609,1629,1650,1669,1690,1709,1730,1750,1770,1789,1809,1830,1849,1870,1891,1910,1929,1949,1969,1989,2010,2029,2050,2069,2090,2113,2130,2149,2169,2190,2209,2229,2249,2269,2289,2309,2329,2350,2370,2390,2409,2429,2450,2469,2489,2510,2530,2549,2569,2588,2610,2630,2650,2668,2689,2709,2730,2749,2769,2789,2810,2830,2849,2869],"xSR":741.5,"ySR":501.8,"xT1":424.9,"yT1":0,"xT2":1058.1,"yT2":0,"toosoon":0,"cond_shown":"Congruent","ratio_trial":200,"L_num":4,"L_den":10,"R_num":3,"R_den":15,"correct_side":1,"subjID":"juandavidradagiraldo31","gender":"0","school":"6","age":"12años"},{"start_time":1551887066568,"click_time":1551887069375,"finger_time":1551887068855,"fix_duration":250,"trial":18,"RT":2287,"MT":520,"sideResp":1,"stimulus":[],"xmouse":[803,803,803,803,803,803,803,803,803,803,803,803,803,803,803,803,803,803,803,803,803,803,803,803,803,803,803,803,803,803,803,803,803,803,803,803,803,803,803,803,803,803,803,803,803,803,803,803,803,803,803,803,803,803,803,803,803,803,803,803,803,803,803,803,803,803,803,803,803,803,803,803,803,803,803,803,803,803,803,803,803,803,803,803,803,803,803,803,803,803,803,803,803,803,803,803,803,803,803,803,803,803,803,803,803,803,803,803,803,803,803,803,803,803,799,793,783,768,716,704,703,703,703,698,692,689,686,666,648,624,596,567,549,541,541,541,541,541,541,539,523],"ymouse":[532,532,532,532,532,532,532,532,532,532,532,532,532,532,532,532,532,532,532,532,532,532,532,532,532,532,532,532,532,532,532,532,532,532,532,532,532,532,532,532,532,532,532,532,532,532,532,532,532,532,532,532,532,532,532,532,532,532,532,532,532,532,532,532,532,532,532,532,532,532,532,532,532,532,532,532,532,532,532,532,532,532,532,532,532,532,532,532,532,532,532,532,532,532,532,532,532,532,532,532,532,532,532,532,532,532,532,532,532,532,532,532,532,526,499,470,440,400,320,307,305,305,305,296,287,280,273,248,228,199,170,135,114,105,105,105,105,105,105,100,82],"timestamp_mouse":[8,38,47,67,88,108,128,147,168,188,208,228,248,268,288,307,327,348,367,388,408,427,448,467,488,507,528,548,567,587,608,628,647,668,687,708,728,747,768,788,808,828,848,867,888,908,927,948,967,988,1007,1028,1047,1068,1088,1107,1128,1148,1168,1187,1207,1227,1248,1268,1287,1308,1328,1347,1369,1387,1407,1427,1447,1467,1488,1507,1528,1548,1567,1587,1607,1628,1647,1668,1687,1707,1727,1747,1767,1787,1807,1828,1848,1867,1887,1907,1927,1947,1967,1988,2008,2028,2048,2068,2087,2107,2127,2147,2167,2188,2207,2227,2248,2267,2287,2307,2328,2347,2367,2387,2407,2428,2447,2467,2488,2507,2528,2548,2567,2588,2607,2627,2647,2667,2687,2707,2727,2747,2767,2787,2807],"xSR":741.5,"ySR":501.8,"xT1":424.9,"yT1":0,"xT2":1058.1,"yT2":0,"toosoon":0,"cond_shown":"Congruent","ratio_trial":200,"L_num":8,"L_den":15,"R_num":3,"R_den":9,"correct_side":1,"subjID":"juandavidradagiraldo31","gender":"0","school":"6","age":"12años"},{"start_time":1551887073328,"click_time":1551887075015,"finger_time":1551887074655,"fix_duration":250,"trial":19,"RT":1327,"MT":360,"sideResp":2,"stimulus":[],"xmouse":[778,778,778,778,778,778,778,778,778,778,778,778,778,778,778,778,778,778,778,778,778,778,785,796,807,823,823,823,823,823,823,823,823,823,823,823,823,823,823,823,823,823,823,823,823,823,823,823,823,823,823,823,823,823,823,823,823,823,823,823,823,823,823,823,823,828,927,950,958,968,975,989,1010,1026,1039,1046,1050,1049,1049,1049,1050,1053,1056,1058,1059],"ymouse":[554,554,554,554,554,554,554,554,554,554,554,554,554,554,554,554,554,554,554,554,554,554,554,554,554,558,559,559,559,559,559,559,559,559,559,559,559,559,559,559,559,559,559,559,559,559,559,559,559,559,559,559,559,559,559,559,559,559,559,559,559,559,559,559,559,548,399,330,278,238,213,189,163,139,115,97,65,55,52,51,49,46,45,45,45],"timestamp_mouse":[8,37,48,67,88,108,127,147,167,187,207,228,247,267,287,307,328,347,367,388,407,428,448,468,488,507,528,548,567,588,607,627,648,669,687,708,727,747,768,788,809,827,848,867,888,907,928,947,968,987,1008,1027,1047,1067,1088,1107,1128,1147,1167,1188,1207,1227,1247,1268,1287,1307,1327,1348,1368,1389,1407,1427,1447,1467,1487,1508,1527,1547,1568,1587,1608,1627,1647,1667,1687],"xSR":741.5,"ySR":501.8,"xT1":424.9,"yT1":0,"xT2":1058.1,"yT2":0,"toosoon":0,"cond_shown":"Congruent","ratio_trial":100,"L_num":7,"L_den":14,"R_num":15,"R_den":25,"correct_side":2,"subjID":"juandavidradagiraldo31","gender":"0","school":"6","age":"12años"},{"start_time":1551887078294,"click_time":1551887079476,"finger_time":1551887078396,"fix_duration":1118.7494257074854,"trial":20,"RT":102,"MT":1080,"sideResp":1,"stimulus":[],"xmouse":[800,800,800,800,813,865,909,927,930,930,930,930,930,930,930,930,930,930,930,931,930,912,882,868,867,865,864,864,860,857,855,855,855,855,855,854,850,845,833,827,821,816,813,808,801,789,767,741,699,685,672,652,624,580,565,551,539,532,506,473],"ymouse":[575,575,575,575,575,568,553,546,546,546,546,546,546,546,546,546,546,546,546,545,545,543,543,544,545,548,549,549,549,549,549,549,549,549,549,549,549,550,552,552,553,554,555,555,555,553,543,532,501,481,458,421,371,288,257,217,184,159,118,93],"timestamp_mouse":[9,21,41,61,82,102,121,142,161,182,201,222,242,261,281,301,321,341,362,381,402,422,441,461,481,502,521,541,560,582,601,621,641,662,681,702,722,742,761,782,801,821,841,861,882,902,921,942,961,981,1001,1022,1042,1062,1082,1102,1122,1142,1161,1182],"xSR":741.5,"ySR":501.8,"xT1":424.9,"yT1":0,"xT2":1058.1,"yT2":0,"toosoon":0,"cond_shown":"Congruent","ratio_trial":200,"L_num":16,"L_den":20,"R_num":12,"R_den":20,"correct_side":1,"subjID":"juandavidradagiraldo31","gender":"0","school":"6","age":"12años"},{"start_time":1551887082168,"click_time":1551887083775,"finger_time":1551887083655,"fix_duration":1451.9397480962778,"trial":21,"RT":1487,"MT":120,"sideResp":1,"stimulus":[],"xmouse":[777,777,777,777,777,777,777,777,777,777,777,777,777,777,777,777,777,777,777,777,777,777,777,777,777,777,777,777,777,777,777,777,777,777,777,777,777,777,777,777,777,777,777,777,777,777,777,777,777,777,777,777,777,777,777,777,777,777,777,777,777,777,777,777,777,777,777,777,777,777,777,776,776,767,685,632,595,556,541,525,524],"ymouse":[581,581,581,581,581,581,581,581,581,581,581,581,581,581,581,581,581,581,581,581,581,581,581,581,581,581,581,581,581,581,581,581,581,581,581,581,581,581,581,581,581,581,581,581,581,581,581,581,581,581,581,581,581,581,581,581,581,581,581,581,581,581,581,581,581,581,581,581,581,581,581,580,566,515,366,290,228,162,131,95,89],"timestamp_mouse":[8,42,48,67,87,108,127,147,167,187,208,227,247,267,287,307,327,347,367,388,409,427,448,467,487,507,527,547,567,587,608,627,647,668,688,707,727,748,767,787,808,827,848,867,887,908,927,947,968,987,1007,1027,1047,1067,1087,1107,1127,1147,1167,1187,1207,1228,1247,1267,1287,1307,1327,1348,1367,1387,1407,1427,1447,1468,1487,1507,1527,1548,1568,1587,1607],"xSR":741.5,"ySR":501.8,"xT1":424.9,"yT1":0,"xT2":1058.1,"yT2":0,"toosoon":0,"cond_shown":"Incongruent","ratio_trial":200,"L_num":14,"L_den":30,"R_num":12,"R_den":18,"correct_side":2,"subjID":"juandavidradagiraldo31","gender":"0","school":"6","age":"12años"},{"start_time":1551887110379,"click_time":1551887112935,"finger_time":1551887110456,"fix_duration":1301.0138833462033,"trial":22,"RT":77,"MT":2479,"sideResp":2,"stimulus":[],"xmouse":[792,803,834,844,844,844,839,833,827,823,821,820,820,819,819,818,818,818,817,817,817,817,817,817,817,817,817,817,817,817,817,817,817,817,817,817,817,817,817,817,817,817,822,825,825,826,826,826,826,826,825,825,825,825,824,824,822,819,816,816,816,816,816,816,816,816,816,816,816,816,816,816,816,816,816,816,816,816,817,818,827,836,842,842,842,844,845,849,849,850,852,854,859,870,883,889,892,892,894,894,896,898,903,904,904,904,904,904,904,904,904,904,904,906,918,951,989,1020,1030,1037,1043,1048,1053,1056,1065,1076,1078,1088],"ymouse":[592,583,562,552,550,550,551,555,558,561,561,562,562,562,562,562,562,562,562,562,562,562,562,562,562,562,562,562,562,562,562,562,562,562,562,562,562,562,562,562,562,559,547,538,537,536,536,536,537,538,539,540,540,540,541,541,543,547,551,551,551,552,552,552,552,552,552,552,552,552,552,552,552,552,552,552,552,553,555,556,564,570,575,575,575,575,576,579,579,579,579,580,582,583,584,584,583,583,582,582,581,581,578,578,578,578,578,578,578,578,578,578,578,578,552,476,392,272,236,215,198,186,165,155,140,127,119,97],"timestamp_mouse":[17,36,56,77,97,116,137,156,176,196,216,237,256,276,296,317,337,356,376,397,416,437,456,476,497,516,537,557,576,596,617,637,657,676,696,717,737,758,777,797,816,836,857,876,897,916,936,956,976,997,1016,1037,1056,1076,1097,1116,1136,1157,1177,1197,1216,1236,1257,1276,1296,1316,1337,1356,1377,1396,1417,1436,1457,1477,1497,1517,1536,1557,1577,1596,1616,1636,1656,1676,1696,1716,1736,1757,1777,1796,1817,1836,1857,1876,1896,1916,1937,1957,1976,1996,2017,2036,2057,2076,2096,2117,2136,2156,2176,2196,2216,2237,2256,2277,2296,2317,2336,2356,2377,2396,2416,2436,2456,2476,2497,2516,2537,2556],"xSR":741.5,"ySR":501.8,"xT1":424.9,"yT1":0,"xT2":1058.1,"yT2":0,"toosoon":0,"cond_shown":"Congruent","ratio_trial":100,"L_num":4,"L_den":8,"R_num":6,"R_den":10,"correct_side":2,"subjID":"juandavidradagiraldo31","gender":"0","school":"6","age":"12años"},{"start_time":1551887117436,"click_time":1551887122376,"finger_time":1551887121155,"fix_duration":1498.3995920790157,"trial":23,"RT":3719,"MT":1221,"sideResp":2,"stimulus":[],"xmouse":[780,780,780,780,780,780,780,780,780,780,780,780,780,780,780,780,780,780,780,780,780,780,780,780,780,780,780,780,780,780,780,780,780,780,780,780,780,780,780,780,780,780,780,780,780,780,780,780,780,780,780,780,780,780,780,780,780,780,780,780,780,780,780,780,780,780,780,780,780,780,780,780,780,780,780,780,780,780,780,780,780,780,780,780,780,780,780,780,780,780,780,780,780,780,780,780,780,780,780,780,780,780,780,780,780,780,780,780,780,780,780,780,780,780,780,780,780,780,780,780,780,780,780,780,780,780,780,780,780,780,780,780,780,780,780,780,780,780,780,780,780,780,780,780,780,780,780,780,780,780,780,780,780,780,780,780,780,780,780,780,780,780,780,780,780,780,780,780,780,780,780,780,780,780,780,780,780,780,780,780,784,794,796,799,816,840,920,941,951,954,954,954,954,954,953,928,778,689,605,548,533,532,532,536,552,574,684,715,735,743,746,753,757,758,759,761,765,766,767,768,772,787,795,802,810,821,833,838,845,862,882,917,928,937,952,981,1117,1162,1197,1217,1226,1227,1226,1218,1209,1197,1164,1152],"ymouse":[552,552,552,552,552,552,552,552,552,552,552,552,552,552,552,552,552,552,552,552,552,552,552,552,552,552,552,552,552,552,552,552,552,552,552,552,552,552,552,552,552,552,552,552,552,552,552,552,552,552,552,552,552,552,552,552,552,552,552,552,551,551,551,551,551,551,551,551,551,551,551,551,551,551,551,551,551,551,551,551,551,551,551,551,551,551,551,551,551,551,551,551,551,551,551,551,551,551,551,551,551,551,551,551,551,551,551,551,551,551,551,551,551,551,551,551,551,551,551,551,551,551,551,551,551,551,551,551,551,551,551,551,551,551,551,551,551,551,551,551,551,551,551,551,551,551,551,551,551,551,551,551,551,551,551,551,551,551,551,551,551,551,551,551,551,551,551,551,551,551,551,551,551,551,551,551,551,551,551,551,548,542,542,542,542,549,571,577,580,582,582,582,582,582,582,580,559,546,535,529,527,527,527,527,527,529,546,550,553,553,553,553,554,554,555,555,555,555,555,555,555,555,550,543,532,505,448,405,356,308,269,225,219,216,212,203,133,99,69,50,41,34,31,26,23,18,11,11],"timestamp_mouse":[2,19,39,59,79,102,119,140,159,179,200,220,240,259,280,299,320,339,359,379,399,419,440,459,479,499,519,539,559,580,599,620,640,659,679,700,719,740,759,779,799,820,841,859,879,899,920,939,960,979,999,1020,1039,1060,1081,1099,1119,1139,1159,1180,1200,1220,1239,1259,1280,1300,1320,1339,1360,1380,1400,1419,1439,1459,1479,1499,1520,1539,1559,1580,1599,1621,1640,1660,1679,1700,1721,1739,1759,1781,1800,1820,1839,1859,1880,1900,1920,1940,1960,1979,2001,2020,2040,2060,2079,2100,2120,2139,2159,2181,2200,2221,2241,2261,2281,2301,2320,2339,2360,2380,2400,2419,2439,2460,2480,2501,2521,2540,2560,2580,2600,2619,2641,2660,2680,2701,2719,2740,2759,2779,2800,2820,2839,2859,2880,2900,2919,2939,2960,2980,2999,3020,3040,3059,3079,3101,3119,3139,3160,3179,3199,3220,3240,3259,3279,3300,3320,3340,3359,3379,3401,3420,3440,3460,3481,3499,3520,3541,3559,3579,3600,3621,3639,3659,3679,3699,3719,3740,3760,3780,3800,3820,3840,3860,3879,3899,3919,3941,3960,3979,3999,4019,4041,4059,4081,4099,4120,4141,4159,4179,4201,4221,4240,4259,4279,4299,4320,4339,4359,4379,4400,4420,4440,4460,4480,4500,4521,4540,4560,4579,4599,4619,4639,4660,4680,4700,4720,4739,4760,4779,4800,4819,4839,4859,4879,4899,4919,4939],"xSR":741.5,"ySR":501.8,"xT1":424.9,"yT1":0,"xT2":1058.1,"yT2":0,"toosoon":0,"cond_shown":"Congruent","ratio_trial":300,"L_num":1,"L_den":5,"R_num":3,"R_den":6,"correct_side":2,"subjID":"juandavidradagiraldo31","gender":"0","school":"6","age":"12años"},{"start_time":1551887124004,"click_time":1551887126835,"finger_time":1551887126556,"fix_duration":747.6152475066656,"trial":24,"RT":2552,"MT":279,"sideResp":1,"stimulus":[],"xmouse":[785,785,785,785,785,785,785,785,785,785,785,785,785,785,785,785,785,785,785,785,785,785,785,785,785,785,785,785,785,785,785,785,785,785,785,785,785,785,785,785,785,785,785,785,785,785,785,785,785,785,785,785,785,785,785,785,785,785,785,785,785,785,785,785,785,785,785,785,785,785,785,785,785,785,785,785,785,785,785,785,785,785,785,785,785,785,785,785,785,785,785,785,785,785,785,785,785,785,785,785,785,785,785,785,785,785,785,785,785,785,785,785,785,785,785,785,785,785,785,785,785,785,785,785,785,785,780,728,687,658,640,629,621,596,568,547,527,506,506,506,512,516],"ymouse":[555,555,555,555,555,555,555,555,555,555,555,555,555,555,555,555,555,555,555,555,555,555,555,555,555,555,555,555,555,555,555,555,555,555,555,555,555,555,555,555,555,555,555,555,555,555,555,555,555,555,555,555,555,555,555,555,555,555,555,555,555,555,555,555,555,555,555,555,555,555,555,555,555,555,555,555,555,555,555,555,555,555,555,555,555,555,555,555,555,555,555,555,555,555,555,555,555,555,555,555,555,555,555,555,555,555,555,555,555,555,555,555,555,555,555,555,555,555,555,555,555,555,555,555,555,550,506,360,305,274,260,253,248,229,208,192,179,160,149,128,100,77],"timestamp_mouse":[13,31,53,72,92,111,133,152,172,191,211,231,252,272,292,312,332,353,371,391,411,432,452,471,491,512,532,553,573,593,611,632,652,672,692,713,731,752,773,791,812,832,851,873,891,913,931,953,972,991,1012,1032,1051,1073,1092,1112,1133,1151,1171,1191,1212,1232,1251,1271,1291,1312,1331,1353,1371,1391,1413,1432,1452,1472,1493,1513,1531,1552,1573,1592,1612,1633,1653,1673,1693,1711,1733,1752,1771,1792,1812,1831,1852,1873,1891,1911,1932,1951,1971,1992,2011,2033,2053,2071,2093,2111,2133,2153,2173,2191,2213,2233,2252,2272,2291,2312,2333,2352,2372,2392,2411,2432,2451,2472,2491,2512,2531,2552,2572,2592,2611,2632,2653,2673,2692,2712,2732,2751,2771,2792,2813,2831],"xSR":741.5,"ySR":501.8,"xT1":424.9,"yT1":0,"xT2":1058.1,"yT2":0,"toosoon":0,"cond_shown":"Congruent","ratio_trial":200,"L_num":3,"L_den":6,"R_num":14,"R_den":20,"correct_side":2,"subjID":"juandavidradagiraldo31","gender":"0","school":"6","age":"12años"},{"start_time":1551887128229,"click_time":1551887130076,"finger_time":1551887129655,"fix_duration":570.1333666514387,"trial":25,"RT":1426,"MT":421,"sideResp":1,"stimulus":[],"xmouse":[810,810,810,810,810,810,810,810,810,810,810,810,810,810,810,810,810,810,810,810,810,810,810,810,810,810,810,810,810,810,810,810,810,810,810,810,810,810,810,810,810,810,810,810,810,810,810,810,810,810,810,810,810,810,810,810,810,810,810,810,810,810,810,810,810,810,810,810,810,804,795,768,681,659,648,643,640,620,591,550,550,550,550,550,550,550,550,550,550,550,550,550,497],"ymouse":[534,534,534,534,534,534,534,534,534,534,534,534,534,534,534,534,534,534,534,534,534,534,534,534,534,534,534,534,534,534,534,534,534,534,534,534,534,534,534,534,534,534,534,534,534,534,534,534,534,534,534,534,534,534,534,534,534,534,534,534,534,534,534,534,534,534,534,534,534,522,507,467,327,290,269,259,249,200,131,42,42,42,42,42,42,42,42,42,42,42,42,42,18],"timestamp_mouse":[10,28,46,66,87,106,128,147,167,186,207,227,246,266,287,307,328,346,366,387,406,428,446,468,486,508,526,546,566,587,608,626,646,667,687,707,727,746,767,788,806,828,847,866,888,906,927,948,966,988,1007,1028,1047,1067,1087,1106,1128,1146,1167,1188,1206,1227,1248,1266,1287,1306,1327,1347,1366,1388,1407,1426,1446,1467,1486,1507,1527,1547,1566,1586,1607,1626,1648,1667,1686,1707,1727,1747,1768,1788,1807,1827,1847],"xSR":741.5,"ySR":501.8,"xT1":424.9,"yT1":0,"xT2":1058.1,"yT2":0,"toosoon":0,"cond_shown":"Incongruent","ratio_trial":200,"L_num":7,"L_den":10,"R_num":8,"R_den":16,"correct_side":1,"subjID":"juandavidradagiraldo31","gender":"0","school":"6","age":"12años"},{"start_time":1551887131154,"click_time":1551887132657,"finger_time":1551887132276,"fix_duration":396.7763838077432,"trial":26,"RT":1122,"MT":381,"sideResp":2,"stimulus":[],"xmouse":[808,808,808,808,808,808,808,808,808,808,808,808,808,808,808,808,808,808,808,808,808,808,808,808,808,808,808,808,808,808,808,808,808,808,808,808,808,808,808,808,808,808,808,808,808,808,808,808,808,808,808,808,808,811,819,834,842,842,842,842,842,842,843,844,850,871,921,945,964,986,1008,1038,1043,1046,1051,1060],"ymouse":[566,566,566,566,566,566,566,566,566,566,566,566,566,566,566,566,566,566,566,566,566,566,566,566,566,566,566,566,566,566,566,566,566,566,566,566,566,566,566,566,566,566,566,566,566,566,566,566,566,566,566,566,563,558,550,538,532,532,532,532,532,532,532,527,507,434,296,238,197,162,129,82,63,48,32,11],"timestamp_mouse":[10,35,42,62,82,101,122,143,161,183,203,222,242,262,283,301,321,342,362,381,403,421,441,461,482,501,522,543,562,581,602,622,642,662,682,701,722,743,761,781,803,823,841,862,881,903,922,942,961,982,1001,1022,1042,1061,1082,1102,1122,1143,1163,1182,1201,1222,1242,1261,1282,1302,1323,1342,1362,1382,1403,1422,1441,1462,1483,1503],"xSR":741.5,"ySR":501.8,"xT1":424.9,"yT1":0,"xT2":1058.1,"yT2":0,"toosoon":0,"cond_shown":"Incongruent","ratio_trial":200,"L_num":1,"L_den":3,"R_num":2,"R_den":15,"correct_side":1,"subjID":"juandavidradagiraldo31","gender":"0","school":"6","age":"12años"},{"start_time":1551887137202,"click_time":1551887144097,"finger_time":1551887143836,"fix_duration":505.6138300765749,"trial":27,"RT":6634,"MT":261,"sideResp":2,"stimulus":[],"xmouse":[788,788,788,788,788,788,788,788,788,788,788,788,788,788,788,788,788,788,788,788,788,788,788,788,788,788,788,788,788,788,788,788,788,788,788,788,788,788,788,788,788,788,788,788,788,788,788,788,788,788,788,788,788,788,788,788,788,788,788,788,788,788,788,788,788,788,788,788,788,788,788,788,788,788,788,788,788,788,788,788,788,788,788,788,788,788,788,788,788,788,788,788,788,788,788,788,788,788,788,788,788,788,788,788,788,788,788,788,788,788,788,788,788,788,788,788,788,788,788,788,788,788,788,788,788,788,788,788,788,788,788,788,788,788,788,788,788,788,788,788,788,788,788,788,788,788,788,788,788,788,788,788,788,788,788,788,788,788,788,788,788,788,788,788,788,788,788,788,788,788,788,788,788,788,788,788,788,788,788,788,788,788,788,788,788,788,788,788,788,788,788,788,788,788,788,788,788,788,788,788,788,788,788,788,788,788,788,788,788,788,788,788,788,788,788,788,788,788,788,788,788,788,788,788,788,788,788,788,788,788,788,788,788,788,788,788,788,788,788,788,788,788,788,788,788,788,788,788,788,788,788,788,788,788,788,788,788,788,788,788,788,788,788,788,788,788,788,788,788,788,788,788,788,788,788,788,788,788,788,788,788,788,788,788,788,788,788,788,788,788,788,788,788,788,788,788,788,788,788,788,788,788,788,788,788,788,788,788,788,788,788,788,788,788,788,788,788,788,788,788,788,788,788,788,788,788,788,788,788,791,819,847,865,869,874,882,889,904,978,1155,1216,1247,1250,1235,1140],"ymouse":[554,554,554,554,554,554,554,554,554,554,554,554,554,554,554,554,554,554,554,554,554,554,554,554,554,554,554,554,554,554,554,554,554,554,554,554,554,554,554,554,554,554,554,554,554,554,554,554,554,554,554,554,554,554,554,554,554,554,554,554,554,554,554,554,554,554,554,554,554,554,554,554,554,554,554,554,554,554,554,554,554,554,554,554,554,554,554,554,554,554,554,554,554,554,554,554,554,554,554,554,554,554,554,554,554,554,554,554,554,554,554,554,554,554,554,554,554,554,554,554,554,554,554,554,554,554,554,554,554,554,554,554,554,554,554,554,554,554,554,554,554,554,554,554,554,554,554,554,554,554,554,554,554,554,554,554,554,554,554,554,554,554,554,554,554,554,554,554,554,554,554,554,554,554,554,554,554,554,554,554,554,554,554,554,554,554,554,554,554,554,554,554,554,554,554,554,554,554,554,554,554,554,554,554,554,554,554,554,554,554,554,554,554,554,554,554,554,554,554,554,554,554,554,554,554,554,554,554,554,554,554,554,554,554,554,554,554,554,554,554,554,554,554,554,554,554,554,554,554,554,554,554,554,554,554,554,554,554,554,554,554,554,554,554,554,554,554,554,554,554,554,554,554,554,554,554,554,554,554,554,554,554,554,554,554,554,554,554,554,554,554,554,554,554,554,554,554,554,554,554,554,554,554,554,554,554,554,554,554,554,554,554,554,554,554,554,554,554,554,554,554,554,554,554,554,554,554,554,554,552,533,522,519,519,524,532,535,523,472,345,270,210,157,103,2],"timestamp_mouse":[14,42,55,73,93,114,135,154,175,193,213,235,254,273,293,315,333,355,374,394,414,435,453,473,494,514,533,555,573,593,614,634,653,675,693,713,734,754,774,795,813,833,854,873,895,913,935,954,974,994,1013,1034,1054,1075,1094,1114,1134,1154,1174,1194,1215,1234,1255,1275,1293,1314,1335,1353,1374,1394,1414,1434,1465,1474,1493,1514,1534,1555,1575,1593,1614,1634,1655,1674,1693,1715,1733,1754,1774,1794,1815,1834,1854,1873,1894,1914,1933,1955,1973,1994,2013,2035,2053,2074,2093,2113,2135,2154,2175,2194,2214,2235,2255,2273,2294,2313,2335,2354,2373,2394,2414,2435,2455,2474,2494,2515,2535,2554,2573,2595,2613,2634,2655,2673,2694,2713,2734,2753,2773,2794,2815,2834,2853,2874,2894,2913,2933,2953,2974,2994,3015,3034,3054,3074,3094,3113,3134,3153,3173,3194,3213,3235,3255,3273,3293,3315,3333,3354,3373,3393,3413,3434,3455,3473,3494,3514,3534,3553,3575,3593,3614,3633,3655,3674,3694,3713,3735,3754,3773,3794,3814,3834,3855,3874,3893,3913,3933,3954,3974,3993,4013,4035,4054,4073,4094,4114,4134,4153,4175,4195,4213,4234,4254,4273,4294,4313,4334,4354,4373,4393,4414,4435,4453,4473,4494,4513,4534,4554,4574,4594,4615,4634,4654,4674,4694,4715,4735,4755,4774,4794,4814,4834,4855,4873,4893,4915,4933,4953,4974,4993,5013,5033,5054,5074,5094,5113,5135,5154,5175,5193,5213,5235,5253,5275,5294,5314,5334,5355,5374,5393,5414,5433,5453,5474,5493,5514,5534,5555,5574,5593,5614,5635,5655,5675,5693,5715,5733,5755,5773,5794,5815,5833,5855,5875,5893,5915,5934,5953,5974,5994,6013,6034,6053,6075,6093,6113,6135,6153,6174,6194,6214,6235,6253,6273,6293,6314,6333,6355,6373,6394,6414,6435,6455,6474,6494,6513,6534,6553,6573,6593,6614,6634,6653,6675,6694,6713,6733,6753,6774,6794,6813,6835,6854,6874,6894],"xSR":741.5,"ySR":501.8,"xT1":424.9,"yT1":0,"xT2":1058.1,"yT2":0,"toosoon":0,"cond_shown":"Congruent","ratio_trial":200,"L_num":9,"L_den":20,"R_num":4,"R_den":16,"correct_side":1,"subjID":"juandavidradagiraldo31","gender":"0","school":"6","age":"12años"},{"start_time":1551887151048,"click_time":1551887152716,"finger_time":1551887152516,"fix_duration":591.6636886611777,"trial":28,"RT":1468,"MT":200,"sideResp":2,"stimulus":[],"xmouse":[801,801,801,801,801,801,801,801,801,801,801,801,801,801,801,801,801,801,801,801,801,801,801,801,801,801,801,801,801,801,801,801,801,801,801,801,801,801,801,801,801,801,801,801,801,801,801,801,801,801,801,801,801,801,801,801,801,801,801,801,801,801,801,801,801,801,801,801,801,803,805,808,816,865,914,955,988,1008,1039,1049,1056,1064,1070,1081],"ymouse":[553,553,553,553,553,553,553,553,553,553,553,553,553,553,553,553,553,553,553,553,553,553,553,553,553,553,553,553,553,553,553,553,553,553,553,553,553,553,553,553,553,553,553,553,553,553,553,553,553,553,553,553,553,553,553,553,553,553,553,553,553,553,553,553,553,553,553,553,553,547,544,531,514,432,368,306,248,199,146,132,125,114,106,90],"timestamp_mouse":[11,36,47,67,88,107,129,149,167,188,207,228,249,269,287,309,329,348,369,387,408,428,449,467,489,508,528,548,568,588,607,627,647,668,688,708,728,747,768,788,807,829,848,867,889,908,928,948,967,987,1007,1027,1047,1067,1089,1109,1128,1147,1168,1187,1209,1227,1248,1267,1289,1307,1329,1348,1369,1387,1407,1428,1448,1468,1488,1508,1528,1547,1569,1587,1609,1628,1647,1668],"xSR":741.5,"ySR":501.8,"xT1":424.9,"yT1":0,"xT2":1058.1,"yT2":0,"toosoon":0,"cond_shown":"Incongruent","ratio_trial":100,"L_num":10,"L_den":25,"R_num":8,"R_den":16,"correct_side":2,"subjID":"juandavidradagiraldo31","gender":"0","school":"6","age":"12años"},{"start_time":1551887154679,"click_time":1551887157315,"finger_time":1551887156736,"fix_duration":1061.0001040693508,"trial":29,"RT":2057,"MT":579,"sideResp":2,"stimulus":[],"xmouse":[810,810,810,810,810,810,810,810,810,810,810,810,810,810,810,810,810,810,810,810,810,810,810,810,810,810,810,810,810,810,810,810,810,810,810,810,810,810,810,810,810,810,810,810,810,810,810,810,810,810,810,810,810,810,810,810,810,810,810,810,810,810,810,810,810,810,810,810,810,810,810,810,810,810,810,810,810,810,810,810,810,810,810,810,810,810,810,810,810,810,810,810,810,810,810,810,810,810,810,809,804,787,742,730,728,728,728,728,728,728,728,728,728,728,730,747,767,803,811,821,834,854,887,904,923,949,991,1031,1052,1072,1086,1094],"ymouse":[541,541,541,541,541,541,541,541,541,541,541,541,541,541,541,541,541,541,541,541,541,541,541,541,541,541,541,541,541,541,541,541,541,541,541,541,541,541,541,541,541,541,541,541,541,541,541,541,541,541,541,541,541,541,541,541,541,541,541,541,541,541,541,541,541,541,541,541,541,541,541,541,541,541,541,541,541,541,541,541,541,541,541,541,541,541,541,541,541,541,541,541,541,541,541,541,541,541,541,541,536,509,447,432,428,428,428,428,428,428,428,428,428,428,428,427,424,407,392,368,339,307,263,249,233,212,175,145,131,116,106,97],"timestamp_mouse":[18,41,56,77,96,118,137,156,178,198,216,237,257,277,296,317,338,358,376,397,418,438,456,478,498,518,536,558,577,598,618,636,658,678,697,718,737,758,778,797,817,836,857,877,898,917,937,958,977,996,1017,1037,1056,1076,1096,1118,1138,1156,1177,1198,1218,1237,1256,1277,1296,1317,1338,1357,1377,1397,1417,1436,1458,1476,1498,1517,1536,1558,1576,1597,1617,1637,1656,1677,1697,1717,1737,1757,1776,1798,1818,1836,1857,1877,1896,1917,1936,1957,1978,1997,2016,2037,2057,2077,2097,2118,2136,2157,2177,2198,2217,2237,2257,2278,2296,2317,2336,2356,2376,2397,2417,2437,2456,2476,2497,2516,2537,2556,2577,2597,2616,2636],"xSR":741.5,"ySR":501.8,"xT1":424.9,"yT1":0,"xT2":1058.1,"yT2":0,"toosoon":0,"cond_shown":"Congruent","ratio_trial":300,"L_num":2,"L_den":20,"R_num":10,"R_den":25,"correct_side":2,"subjID":"juandavidradagiraldo31","gender":"0","school":"6","age":"12años"},{"start_time":1551887158854,"click_time":1551887161095,"finger_time":1551887160536,"fix_duration":557.4877663508265,"trial":30,"RT":1682,"MT":559,"sideResp":2,"stimulus":[],"xmouse":[775,775,775,775,775,775,775,775,775,775,775,775,775,775,775,775,775,775,775,775,775,775,775,775,775,775,775,775,775,775,775,775,775,775,775,775,775,775,775,775,775,775,775,775,775,775,775,775,775,775,775,775,775,775,775,775,775,775,775,775,775,775,775,775,775,775,775,775,775,775,775,775,775,775,775,775,775,775,775,775,775,773,768,760,726,712,712,712,712,712,712,712,712,712,723,748,757,762,766,789,812,829,840,850,884,949,976,1045,1075,1096,1104,1117,1130],"ymouse":[547,547,547,547,547,547,547,547,547,547,547,547,547,547,547,547,547,547,547,547,547,547,547,547,547,547,547,547,547,547,547,547,547,547,547,547,547,547,547,547,547,547,547,547,547,547,547,547,547,547,547,547,547,547,547,547,547,547,547,547,547,547,547,547,547,547,547,547,547,547,547,547,547,547,547,547,547,547,547,547,547,544,535,516,470,453,453,453,453,453,453,453,453,452,458,463,464,465,465,461,447,433,420,402,342,256,225,162,143,121,110,100,95],"timestamp_mouse":[8,37,42,62,81,101,123,141,163,182,203,223,242,262,282,302,322,342,362,382,403,422,441,463,483,502,522,543,561,582,601,622,643,662,681,702,721,741,762,783,801,822,841,863,881,903,923,942,962,982,1001,1021,1041,1062,1083,1101,1121,1142,1162,1182,1203,1222,1242,1261,1283,1303,1323,1342,1362,1382,1401,1422,1442,1462,1481,1501,1522,1542,1562,1581,1602,1622,1642,1662,1682,1702,1722,1741,1762,1782,1801,1822,1841,1862,1882,1901,1923,1941,1961,1983,2001,2022,2041,2061,2082,2101,2122,2143,2161,2182,2202,2222,2241],"xSR":741.5,"ySR":501.8,"xT1":424.9,"yT1":0,"xT2":1058.1,"yT2":0,"toosoon":0,"cond_shown":"Incongruent","ratio_trial":100,"L_num":3,"L_den":9,"R_num":7,"R_den":30,"correct_side":1,"subjID":"juandavidradagiraldo31","gender":"0","school":"6","age":"12años"},{"start_time":1551887162792,"click_time":1551887164397,"finger_time":1551887163936,"fix_duration":813.7919387090406,"trial":31,"RT":1144,"MT":461,"sideResp":1,"stimulus":[],"xmouse":[787,787,787,787,787,787,787,787,787,787,787,787,787,787,787,787,787,787,787,787,787,787,787,787,787,787,787,788,788,788,788,788,788,788,788,788,790,793,798,800,810,825,827,827,827,827,827,828,830,830,830,830,830,830,830,831,831,797,671,647,647,647,647,647,647,647,647,647,647,592,584,576,575,574,573,573,573,563,542,524,512],"ymouse":[579,579,579,579,579,579,579,579,579,579,579,579,579,579,579,579,579,579,579,579,579,579,579,579,579,579,579,579,579,579,579,579,579,579,579,579,579,579,579,580,582,582,582,582,582,582,582,582,582,582,582,582,582,582,582,553,507,377,73,17,17,17,17,17,17,17,17,17,17,0,62,117,164,178,185,185,185,170,127,100,86],"timestamp_mouse":[8,23,44,64,84,103,123,145,163,184,204,223,244,263,283,304,325,343,364,384,405,424,444,464,483,504,524,544,564,585,605,624,645,664,684,704,724,744,764,784,804,823,843,864,885,904,923,944,965,984,1003,1025,1044,1064,1083,1105,1123,1144,1164,1184,1204,1224,1245,1264,1284,1303,1324,1345,1364,1384,1404,1423,1445,1465,1483,1504,1524,1545,1563,1584,1605],"xSR":741.5,"ySR":501.8,"xT1":424.9,"yT1":0,"xT2":1058.1,"yT2":0,"toosoon":0,"cond_shown":"Congruent","ratio_trial":300,"L_num":9,"L_den":10,"R_num":3,"R_den":5,"correct_side":1,"subjID":"juandavidradagiraldo31","gender":"0","school":"6","age":"12años"},{"start_time":1551887166149,"click_time":1551887167816,"finger_time":1551887167456,"fix_duration":752.1055938783657,"trial":32,"RT":1307,"MT":360,"sideResp":1,"stimulus":[],"xmouse":[813,813,813,813,813,813,813,813,813,813,813,813,813,813,813,813,813,813,813,813,813,813,813,813,813,813,813,813,813,813,813,813,813,813,813,813,813,813,813,813,813,813,813,813,813,813,815,819,821,822,822,823,823,823,823,823,823,823,823,823,823,823,823,818,796,730,678,638,611,582,546,546,546,546,546,546,546,546,546,546,546,546,546,492],"ymouse":[581,581,581,581,581,581,581,581,581,581,581,581,581,581,581,581,581,581,581,581,581,581,581,581,581,581,581,581,581,581,581,581,581,581,581,581,581,581,581,581,581,581,581,581,581,581,578,575,574,573,573,573,573,573,573,573,573,573,573,573,573,573,560,549,502,354,253,169,112,64,16,16,16,16,16,16,16,16,16,16,16,16,16,28],"timestamp_mouse":[9,26,46,67,86,108,127,148,168,186,206,228,246,268,288,306,328,347,367,387,407,428,447,467,488,506,528,547,566,587,607,626,646,667,687,707,727,747,767,786,808,827,848,867,888,907,927,946,966,987,1008,1027,1046,1068,1087,1106,1127,1147,1168,1187,1207,1226,1247,1267,1288,1307,1327,1348,1366,1387,1407,1426,1447,1467,1488,1506,1528,1546,1567,1587,1607,1627,1648,1667],"xSR":741.5,"ySR":501.8,"xT1":424.9,"yT1":0,"xT2":1058.1,"yT2":0,"toosoon":0,"cond_shown":"Congruent","ratio_trial":300,"L_num":20,"L_den":25,"R_num":8,"R_den":16,"correct_side":1,"subjID":"juandavidradagiraldo31","gender":"0","school":"6","age":"12años"},{"start_time":1551887170617,"click_time":1551887172596,"finger_time":1551887172135,"fix_duration":481.3587856985656,"trial":33,"RT":1518,"MT":461,"sideResp":1,"stimulus":[],"xmouse":[778,778,778,778,778,778,778,778,778,778,778,778,778,778,778,778,778,778,778,778,778,778,778,778,778,778,778,778,778,778,778,778,778,778,778,778,778,778,778,778,778,778,778,778,778,778,778,778,778,778,778,778,778,778,778,778,778,778,778,778,778,778,778,778,778,778,778,778,778,778,778,779,785,793,794,793,763,744,730,718,708,697,615,587,572,561,560,560,560,560,560,560,560,560,560,560,560,528,489],"ymouse":[553,553,553,553,553,553,553,553,553,553,553,553,553,553,553,553,553,553,553,553,553,553,553,553,553,553,553,553,553,553,553,553,553,553,553,553,553,553,553,553,553,553,553,553,553,553,553,553,553,553,553,553,553,553,553,553,553,553,553,553,553,553,553,553,553,553,553,553,553,553,553,552,550,533,512,484,392,344,312,288,265,238,87,55,47,44,43,43,43,43,43,43,43,43,43,43,43,43,43],"timestamp_mouse":[19,45,58,80,98,120,140,158,180,200,218,240,260,278,298,320,339,358,378,399,420,439,458,478,498,519,539,559,578,599,618,639,659,678,699,718,740,758,780,798,818,840,860,879,899,920,939,959,979,1000,1019,1039,1059,1080,1100,1118,1139,1159,1179,1200,1218,1238,1259,1280,1299,1320,1339,1359,1379,1400,1419,1439,1460,1479,1499,1518,1540,1559,1579,1598,1619,1639,1659,1680,1698,1719,1739,1759,1778,1800,1818,1839,1858,1878,1898,1920,1939,1959,1979],"xSR":741.5,"ySR":501.8,"xT1":424.9,"yT1":0,"xT2":1058.1,"yT2":0,"toosoon":0,"cond_shown":"Incongruent","ratio_trial":200,"L_num":4,"L_den":5,"R_num":6,"R_den":10,"correct_side":1,"subjID":"juandavidradagiraldo31","gender":"0","school":"6","age":"12años"},{"start_time":1551887174812,"click_time":1551887178195,"finger_time":1551887177457,"fix_duration":1335.197223738802,"trial":34,"RT":2645,"MT":738,"sideResp":1,"stimulus":[],"xmouse":[794,794,794,794,793,793,792,792,791,791,791,791,791,791,791,791,791,791,791,791,791,791,791,791,791,791,791,791,791,791,791,791,791,791,791,791,791,791,791,791,791,791,791,791,791,791,791,791,791,791,791,791,791,791,791,791,791,791,791,791,791,791,791,791,791,791,791,791,791,791,791,791,791,791,791,791,791,791,791,791,791,791,791,791,791,791,791,791,791,791,791,791,791,791,791,791,791,791,791,791,791,791,791,792,794,795,796,796,798,799,799,799,799,800,802,802,802,801,799,799,799,798,796,792,791,791,791,791,791,791,791,785,783,782,782,782,782,782,784,789,791,797,802,805,805,805,805,805,805,805,805,805,805,805,802,794,781,764,748,689,611,583,549,548,544,540,532,526,513,503],"ymouse":[579,578,578,576,575,575,575,575,573,573,573,573,573,573,573,573,573,573,573,573,573,573,573,573,573,573,573,573,573,573,573,573,573,573,573,573,573,573,573,573,573,573,573,573,573,573,573,573,573,573,573,573,573,573,573,573,573,573,573,573,573,573,573,573,573,573,573,573,573,573,573,573,573,573,573,573,573,573,573,573,573,573,573,573,573,573,573,573,573,573,573,573,573,573,570,562,559,558,556,556,556,555,551,547,545,544,543,540,533,532,531,531,531,538,553,566,581,592,596,596,596,593,589,556,549,545,544,544,544,545,552,587,608,627,627,627,622,610,592,585,583,581,580,580,580,580,580,580,580,580,578,577,570,557,539,511,469,422,386,301,224,202,177,175,172,163,149,137,115,99],"timestamp_mouse":[9,24,50,63,84,103,125,145,164,185,203,225,245,265,284,303,325,344,363,385,405,424,445,463,485,505,524,545,563,584,605,624,644,664,684,703,724,745,765,783,805,824,843,865,884,904,924,945,963,983,1003,1025,1044,1063,1085,1103,1124,1143,1163,1184,1203,1224,1244,1264,1283,1304,1325,1344,1363,1385,1405,1424,1445,1464,1484,1503,1524,1545,1564,1584,1605,1623,1644,1663,1684,1705,1726,1745,1765,1783,1805,1825,1843,1864,1885,1905,1924,1944,1963,1983,2005,2024,2044,2063,2083,2105,2125,2144,2163,2184,2204,2223,2245,2264,2283,2304,2323,2343,2364,2384,2405,2423,2445,2463,2483,2504,2523,2545,2565,2584,2604,2625,2645,2663,2683,2703,2724,2743,2764,2784,2804,2824,2845,2864,2884,2903,2923,2944,2965,2983,3004,3025,3043,3064,3085,3104,3123,3145,3164,3184,3203,3223,3244,3265,3285,3304,3325,3343,3363,3383],"xSR":741.5,"ySR":501.8,"xT1":424.9,"yT1":0,"xT2":1058.1,"yT2":0,"toosoon":0,"cond_shown":"Incongruent","ratio_trial":200,"L_num":4,"L_den":6,"R_num":14,"R_den":30,"correct_side":1,"subjID":"juandavidradagiraldo31","gender":"0","school":"6","age":"12años"},{"start_time":1551887181285,"click_time":1551887183895,"finger_time":1551887183595,"fix_duration":467.79606615141853,"trial":35,"RT":2310,"MT":300,"sideResp":1,"stimulus":[],"xmouse":[793,793,793,793,793,793,793,793,793,793,793,793,793,793,793,793,793,793,793,793,793,793,793,793,793,793,793,793,793,793,793,793,793,793,793,793,793,793,793,793,793,793,793,793,793,793,793,793,793,793,793,793,793,793,793,793,793,793,793,793,793,793,793,793,793,793,793,793,793,793,793,793,793,793,793,793,793,793,793,793,793,793,793,793,793,793,793,793,793,793,793,793,793,793,793,793,793,793,793,793,793,793,792,791,790,789,789,789,789,789,789,789,785,778,763,691,654,620,603,592,577,576,576,576,576,576,573,568,562,554,516],"ymouse":[513,513,513,513,513,513,513,513,513,513,513,513,513,513,513,513,513,513,513,513,513,513,513,513,513,513,513,513,513,513,513,513,513,513,513,513,513,513,513,513,513,513,513,513,513,513,513,513,513,513,513,513,513,513,513,513,513,513,513,513,513,513,513,513,513,513,513,513,513,513,513,513,513,513,513,513,513,513,513,513,513,513,513,513,513,513,513,513,513,513,513,513,513,513,513,513,513,513,513,513,514,519,523,527,531,533,533,533,533,533,533,533,533,527,505,358,259,176,126,97,70,69,68,68,68,68,68,67,67,67,67],"timestamp_mouse":[11,47,52,70,90,112,130,150,170,191,210,231,251,272,290,311,331,351,370,391,410,431,450,472,490,511,530,551,570,590,611,630,651,671,690,711,731,750,771,791,811,831,850,871,890,911,930,950,970,992,1011,1030,1050,1072,1090,1112,1132,1152,1170,1191,1212,1231,1252,1270,1292,1310,1331,1352,1370,1392,1410,1430,1451,1471,1490,1510,1531,1550,1572,1590,1612,1630,1650,1672,1690,1712,1731,1751,1772,1790,1810,1830,1851,1871,1890,1911,1930,1952,1971,1992,2010,2030,2052,2071,2090,2111,2131,2150,2170,2191,2211,2230,2252,2272,2291,2310,2330,2351,2372,2390,2410,2430,2451,2471,2490,2510,2532,2550,2570,2591,2610],"xSR":741.5,"ySR":501.8,"xT1":424.9,"yT1":0,"xT2":1058.1,"yT2":0,"toosoon":0,"cond_shown":"Congruent","ratio_trial":300,"L_num":11,"L_den":22,"R_num":1,"R_den":5,"correct_side":1,"subjID":"juandavidradagiraldo31","gender":"0","school":"6","age":"12años"},{"start_time":1551887185785,"click_time":1551887187496,"finger_time":1551887187096,"fix_duration":927.2157477525075,"trial":36,"RT":1311,"MT":400,"sideResp":2,"stimulus":[],"xmouse":[800,800,800,800,800,800,800,800,800,800,800,800,800,800,800,800,800,800,800,800,800,800,800,800,800,800,800,800,800,800,800,800,799,799,798,798,798,798,798,798,798,798,798,798,798,798,798,798,798,798,798,798,798,798,798,798,798,798,799,800,806,808,811,813,817,836,850,868,904,937,962,999,1011,1018,1020,1020,1020,1020,1020,1020,1020,1020,1021,1025,1044,1092],"ymouse":[525,525,525,525,525,525,525,525,525,525,525,525,525,525,525,525,525,525,525,525,525,525,525,525,525,525,525,525,525,525,525,525,522,520,517,517,517,517,517,517,517,517,517,517,517,517,517,517,517,517,517,517,517,517,517,517,517,517,516,516,516,515,514,513,510,495,481,456,397,326,252,132,84,49,34,28,22,20,19,19,19,19,19,19,20,39],"timestamp_mouse":[14,41,51,70,90,111,131,150,171,190,212,230,251,271,290,311,332,350,372,390,411,431,450,470,492,510,531,552,570,592,610,630,651,671,690,712,730,752,770,791,811,831,850,872,890,910,931,951,971,992,1012,1030,1050,1070,1091,1110,1131,1150,1170,1190,1211,1231,1250,1271,1292,1311,1330,1350,1370,1390,1411,1430,1451,1470,1492,1510,1530,1550,1570,1591,1610,1631,1650,1672,1691,1711],"xSR":741.5,"ySR":501.8,"xT1":424.9,"yT1":0,"xT2":1058.1,"yT2":0,"toosoon":0,"cond_shown":"Incongruent","ratio_trial":200,"L_num":3,"L_den":10,"R_num":1,"R_den":2,"correct_side":2,"subjID":"juandavidradagiraldo31","gender":"0","school":"6","age":"12años"},{"start_time":1551887188870,"click_time":1551887190515,"finger_time":1551887190275,"fix_duration":452.80509210661245,"trial":37,"RT":1405,"MT":240,"sideResp":1,"stimulus":[],"xmouse":[792,792,792,792,792,792,792,792,792,792,792,792,792,792,792,792,792,792,792,792,792,792,792,792,792,792,792,792,792,792,792,792,792,792,792,792,792,792,792,792,792,792,792,792,792,792,792,792,792,792,792,792,792,792,792,792,792,792,792,792,792,792,792,792,792,792,792,792,781,764,745,728,715,708,693,671,651,626,619,619,619,584,447],"ymouse":[547,547,547,547,547,547,547,547,547,547,547,547,547,547,547,547,547,547,547,547,547,547,547,547,547,547,547,547,547,547,547,547,547,547,547,547,547,547,547,547,547,547,547,547,547,547,547,547,547,547,547,547,547,547,547,547,547,547,547,547,547,547,547,547,547,547,547,547,532,511,490,473,443,409,362,313,265,210,198,197,197,169,71],"timestamp_mouse":[10,25,45,66,87,106,125,145,167,185,205,225,245,266,287,305,325,345,366,386,407,426,446,465,485,505,526,546,567,586,605,625,645,665,687,707,726,745,766,785,806,826,847,866,885,906,926,946,965,985,1005,1027,1047,1065,1086,1106,1126,1145,1166,1186,1206,1225,1247,1265,1286,1306,1325,1345,1365,1386,1405,1425,1445,1467,1486,1505,1526,1546,1566,1585,1606,1626,1645],"xSR":741.5,"ySR":501.8,"xT1":424.9,"yT1":0,"xT2":1058.1,"yT2":0,"toosoon":0,"cond_shown":"Incongruent","ratio_trial":200,"L_num":4,"L_den":5,"R_num":6,"R_den":10,"correct_side":1,"subjID":"juandavidradagiraldo31","gender":"0","school":"6","age":"12años"},{"start_time":1551887192655,"click_time":1551887194216,"finger_time":1551887193897,"fix_duration":1316.3613442916326,"trial":38,"RT":1242,"MT":319,"sideResp":2,"stimulus":[],"xmouse":[808,808,808,808,808,808,808,808,808,808,808,808,808,808,808,808,808,808,808,808,808,808,808,808,808,808,808,808,808,808,808,808,808,808,808,808,808,808,808,808,808,808,808,808,808,808,808,808,808,808,808,808,808,808,808,808,808,808,808,809,815,827,887,982,1005,1018,1026,1032,1049,1054,1060,1067,1077,1082,1082,1082,1083,1083,1081],"ymouse":[548,548,548,548,548,548,548,548,548,548,548,548,548,548,548,548,548,548,548,548,548,548,548,548,548,548,548,548,548,548,548,548,548,548,548,548,548,548,548,548,548,548,548,548,548,548,548,548,548,548,548,548,548,548,548,548,548,548,548,547,543,533,485,402,362,331,308,284,191,174,165,156,150,138,128,123,112,105,89],"timestamp_mouse":[8,20,42,62,82,101,121,140,161,180,201,221,241,261,280,301,320,340,361,382,400,422,440,460,481,501,520,542,562,580,601,622,641,660,680,702,721,740,761,780,800,821,841,860,881,901,922,941,960,980,1000,1020,1041,1060,1082,1101,1120,1142,1161,1181,1200,1221,1242,1260,1280,1300,1320,1340,1361,1380,1401,1421,1440,1461,1482,1501,1520,1542,1560],"xSR":741.5,"ySR":501.8,"xT1":424.9,"yT1":0,"xT2":1058.1,"yT2":0,"toosoon":0,"cond_shown":"Congruent","ratio_trial":100,"L_num":6,"L_den":12,"R_num":15,"R_den":25,"correct_side":2,"subjID":"juandavidradagiraldo31","gender":"0","school":"6","age":"12años"},{"start_time":1551887196140,"click_time":1551887197697,"finger_time":1551887197516,"fix_duration":1081.47634576881,"trial":39,"RT":1376,"MT":181,"sideResp":1,"stimulus":[],"xmouse":[820,820,820,820,820,820,820,820,820,820,820,820,820,820,820,820,820,820,820,820,820,820,820,820,820,820,820,820,820,820,820,820,820,820,820,820,820,820,820,820,820,820,820,820,820,820,820,820,820,820,820,820,820,820,820,820,820,820,820,820,820,820,820,820,820,820,816,802,765,682,660,651,644,629,619,583,541,524],"ymouse":[542,542,542,542,542,542,542,542,542,542,542,542,542,542,542,542,542,542,542,542,542,542,542,542,542,542,542,542,542,542,542,542,542,542,542,542,542,542,542,542,542,542,542,542,542,542,542,542,542,542,542,542,542,542,542,542,542,542,542,542,542,542,542,542,542,542,540,525,482,370,339,321,304,257,237,134,64,43],"timestamp_mouse":[16,43,57,76,96,115,135,156,176,196,216,236,256,275,295,317,335,355,375,396,416,437,455,476,495,515,536,555,576,595,616,637,656,677,696,715,737,756,777,795,815,835,855,875,896,915,936,957,975,995,1016,1036,1056,1075,1097,1116,1137,1156,1175,1195,1216,1236,1255,1275,1295,1315,1335,1357,1376,1396,1416,1435,1457,1477,1495,1516,1536,1557],"xSR":741.5,"ySR":501.8,"xT1":424.9,"yT1":0,"xT2":1058.1,"yT2":0,"toosoon":0,"cond_shown":"Incongruent","ratio_trial":100,"L_num":6,"L_den":10,"R_num":13,"R_den":26,"correct_side":1,"subjID":"juandavidradagiraldo31","gender":"0","school":"6","age":"12años"},{"start_time":1551887199269,"click_time":1551887201056,"finger_time":1551887200177,"fix_duration":813.311008939115,"trial":40,"RT":908,"MT":879,"sideResp":1,"stimulus":[],"xmouse":[792,792,792,792,792,792,792,792,792,792,792,792,792,792,792,792,792,792,792,792,792,792,792,792,792,792,792,792,792,792,792,792,792,792,792,792,792,792,792,792,792,792,792,795,819,843,884,929,1019,1019,1019,1019,1019,1019,1019,1019,1019,1019,1019,1019,1019,1019,1019,1019,1019,1019,1019,1019,1019,1019,1019,1019,1019,1019,1019,1019,1019,1019,1019,1019,1019,1019,1019,663,623,590,570,555,527,513],"ymouse":[580,580,580,580,580,580,580,580,580,580,580,580,580,580,580,580,580,580,580,580,580,580,580,580,580,580,580,580,580,580,580,580,580,580,580,580,580,580,580,580,580,580,580,557,505,463,391,298,37,37,37,37,37,37,37,37,37,37,37,37,37,37,37,37,37,37,37,37,37,37,37,37,37,37,37,37,37,37,37,37,37,37,37,13,28,37,40,42,42,42],"timestamp_mouse":[9,33,47,66,86,108,126,148,167,186,207,226,247,266,287,308,326,346,366,386,406,426,446,467,486,508,526,548,568,586,606,626,647,666,688,706,726,746,768,786,807,826,847,867,888,908,926,946,966,987,1007,1027,1047,1067,1086,1106,1127,1147,1168,1187,1206,1226,1248,1267,1287,1307,1328,1346,1367,1386,1407,1428,1448,1467,1487,150