[{"start_time":1551899631840,"click_time":1551899633725,"finger_time":1551899633365,"fix_duration":250,"trial":0,"RT":1525,"MT":360,"sideResp":2,"stimulus":[],"xmouse":[810,810,810,810,810,810,810,810,810,810,810,810,810,810,810,810,810,810,810,810,810,810,810,810,810,810,810,810,810,810,810,810,810,810,810,810,810,810,810,810,810,810,810,810,810,810,810,810,810,810,810,810,810,810,810,810,810,810,810,810,810,810,810,810,810,810,810,810,810,810,810,810,818,822,833,838,844,849,860,873,886,897,925,938,946,952,958,967,970,983,992,1003,1039,1053,1061],"ymouse":[527,527,527,527,527,527,527,527,527,527,527,527,527,527,527,527,525,520,515,513,511,511,511,511,511,511,511,511,511,511,511,511,511,511,511,511,511,511,511,511,511,511,511,511,511,511,511,511,511,511,511,511,511,511,511,511,511,511,511,511,511,511,511,511,511,511,511,511,511,510,510,509,498,494,486,485,484,483,481,477,474,468,449,437,421,404,382,330,302,258,228,193,126,102,88],"timestamp_mouse":[11,25,54,65,85,106,126,145,166,185,205,225,245,265,285,306,325,345,365,385,405,426,445,465,485,505,526,545,565,585,605,626,645,665,685,705,725,746,765,785,805,825,845,865,885,905,925,945,965,986,1006,1026,1045,1066,1086,1105,1125,1145,1165,1185,1206,1225,1245,1265,1285,1305,1325,1346,1365,1384,1405,1425,1445,1465,1485,1505,1525,1545,1565,1585,1605,1625,1645,1665,1685,1705,1726,1745,1765,1784,1805,1826,1845,1865,1885],"xSR":741.5,"ySR":500.5,"xT1":424.9,"yT1":0,"xT2":1058.1,"yT2":0,"toosoon":0,"cond_shown":"Incongruent","ratio_trial":200,"L_num":7,"L_den":15,"R_num":6,"R_den":9,"correct_side":2,"subjID":"JuanDavidRativaBernal25","gender":"0","age":"10","school":"6","test":{"fix_dur":[250,1500],"timestim":1000,"targets_dim":[100,100],"targets_relative_coord":[0.3,0.7],"size_stim":[880,420],"start_dim":[100,100],"size_start":[300,300],"size_fix":60,"samplingrate":20,"img_types":["Congruent","Incongruent"],"ratios":[100,200,300],"rep_conds":19,"nTrials":120,"trials_to_rest":500,"Trials_order":[9,116,89,91,56,104,1,35,95,48,119,98,84,2,8,85,60,49,77,7,103,73,101,32,83,39,6,26,61,62,31,24,45,46,11,41,20,68,59,94,69,5,108,14,10,27,21,107,44,37,23,96,118,93,87,13,25,64,34,0,63,78,102,76,90,112,38,57,28,17,106,86,114,12,82,36,43,47,109,92,50,117,22,19,55,40,115,110,81,65,15,67,58,54,53,30,100,75,16,72,88,111,80,66,51,4,113,29,99,3,42,52,70,71,79,33,18,74,105,97],"cond_shown":["Incongruent","Congruent","Incongruent","Incongruent","Congruent","Congruent","Incongruent","Incongruent","Incongruent","Congruent","Incongruent","Congruent","Congruent","Congruent","Congruent","Incongruent","Congruent","Incongruent","Incongruent","Incongruent","Incongruent","Incongruent","Incongruent","Congruent","Incongruent","Incongruent","Congruent","Congruent","Incongruent","Congruent","Incongruent","Congruent","Incongruent","Congruent","Incongruent","Incongruent","Congruent","Congruent","Incongruent","Congruent","Incongruent","Incongruent","Congruent","Congruent","Congruent","Incongruent","Incongruent","Incongruent","Congruent","Incongruent","Incongruent","Congruent","Congruent","Incongruent","Incongruent","Incongruent","Incongruent","Congruent","Congruent","Congruent","Incongruent","Congruent","Congruent","Congruent","Congruent","Congruent","Congruent","Incongruent","Congruent","Incongruent","Congruent","Congruent","Congruent","Congruent","Congruent","Congruent","Incongruent","Incongruent","Incongruent","Congruent","Congruent","Incongruent","Congruent","Incongruent","Incongruent","Congruent","Incongruent","Congruent","Incongruent","Incongruent","Incongruent","Incongruent","Congruent","Congruent","Incongruent","Congruent","Congruent","Incongruent","Congruent","Congruent","Congruent","Incongruent","Congruent","Congruent","Incongruent","Congruent","Incongruent","Incongruent","Incongruent","Incongruent","Congruent","Congruent","Congruent","Incongruent","Incongruent","Incongruent","Congruent","Congruent","Incongruent","Incongruent"],"ratio_trial":[200,200,300,100,200,200,100,300,300,100,300,200,100,200,200,100,100,100,300,100,100,100,300,200,300,200,100,200,100,200,100,100,200,300,300,300,200,200,300,300,200,300,100,200,300,200,200,300,200,100,300,100,300,200,200,100,100,300,300,100,200,100,100,300,100,300,200,200,300,300,300,200,100,100,300,100,100,300,100,200,200,200,300,100,100,300,100,200,200,300,200,100,300,100,300,100,300,200,300,100,300,200,200,100,200,300,300,300,200,200,100,300,300,300,100,200,100,200,200,100],"left_num":[7,3,4,3,3,3,11,13,4,10,1,7,6,3,16,10,2,2,1,3,9,3,13,3,4,6,3,3,13,5,3,6,6,12,1,4,8,8,7,4,7,3,4,4,1,3,14,1,9,2,4,4,5,11,7,3,1,7,20,11,14,7,3,24,7,1,8,7,1,3,5,4,10,4,1,3,8,13,9,1,16,3,20,6,9,20,2,14,7,4,7,10,24,11,8,12,11,14,24,2,11,3,15,2,7,1,4,4,7,4,11,1,8,13,6,7,8,12,14,8],"right_num":[6,14,8,8,9,14,9,12,2,3,3,18,15,7,12,8,11,6,3,8,14,7,12,14,2,3,2,9,12,14,4,5,3,2,2,6,2,7,8,1,8,4,6,3,7,11,12,3,13,8,8,6,6,3,14,4,8,20,5,4,12,15,4,2,15,19,7,6,3,4,7,3,3,15,11,4,6,12,14,21,9,11,5,11,6,14,8,6,14,8,6,8,2,6,14,13,2,12,2,11,4,11,4,11,6,8,2,2,4,1,4,8,10,12,3,4,2,6,12,6],"left_den":[15,6,5,5,12,10,22,26,20,25,2,15,12,10,20,25,5,4,2,5,15,9,26,10,20,20,6,12,26,10,6,20,20,24,2,5,15,15,10,10,10,6,8,8,20,4,30,2,30,4,5,8,25,20,10,6,2,14,25,22,30,14,20,30,14,3,15,15,5,6,25,8,25,10,5,20,16,26,15,2,30,4,25,10,18,25,4,28,10,5,15,25,30,22,10,30,22,30,30,5,22,4,25,5,15,30,20,20,15,30,22,30,15,26,12,15,16,15,30,16],"right_den":[9,20,16,16,20,28,15,15,4,10,15,27,25,14,20,16,22,15,15,16,28,30,15,28,4,6,5,20,20,20,10,25,6,10,10,12,6,21,20,10,16,20,10,10,20,20,18,15,26,20,16,10,12,4,28,10,20,25,10,10,18,25,16,4,25,30,21,9,6,20,14,10,10,30,22,16,10,15,28,30,27,20,10,22,10,28,20,20,28,16,9,16,4,15,28,26,10,18,4,22,20,20,10,22,9,24,4,4,6,3,10,24,12,15,5,6,5,10,18,10],"correct_side":[2,2,1,1,2,2,2,2,2,1,1,2,2,2,1,2,2,1,1,1,1,1,2,2,2,2,1,2,2,2,1,1,2,1,1,1,1,1,1,1,1,1,2,1,2,1,2,1,2,1,1,2,2,2,1,1,1,2,1,1,2,2,2,1,2,2,1,2,2,1,2,1,1,2,2,2,2,2,1,2,1,1,1,1,2,1,1,1,1,1,2,2,1,1,1,2,1,2,1,2,1,1,1,2,2,2,2,2,2,2,1,2,2,2,2,2,1,1,2,2],"img_shown":["img2/200/Incongruent/R/I_Dist_200_LN_7_LD_15_RN_6_RD_9_1.png","img2/200/Congruent/R/C_Dist_200_LN_3_LD_6_RN_14_RD_20_1.png","img2/300/Incongruent/L/I_Dist_300_LN_4_LD_5_RN_8_RD_16_0.png","img2/100/Incongruent/L/I_Dist_100_LN_3_LD_5_RN_8_RD_16_0.png","img2/200/Congruent/R/C_Dist_200_LN_3_LD_12_RN_9_RD_20_1.png","img2/200/Congruent/R/C_Dist_200_LN_3_LD_10_RN_14_RD_28_1.png","img2/100/Incongruent/R/I_Dist_100_LN_11_LD_22_RN_9_RD_15_1.png","img2/300/Incongruent/R/I_Dist_300_LN_13_LD_26_RN_12_RD_15_1.png","img2/300/Incongruent/R/I_Dist_300_LN_4_LD_20_RN_2_RD_4_1.png","img2/100/Congruent/L/C_Dist_100_LN_10_LD_25_RN_3_RD_10_0.png","img2/300/Incongruent/L/I_Dist_300_LN_1_LD_2_RN_3_RD_15_0.png","img2/200/Congruent/R/C_Dist_200_LN_7_LD_15_RN_18_RD_27_1.png","img2/100/Congruent/R/C_Dist_100_LN_6_LD_12_RN_15_RD_25_1.png","img2/200/Congruent/R/C_Dist_200_LN_3_LD_10_RN_7_RD_14_1.png","img2/200/Congruent/L/C_Dist_200_LN_16_LD_20_RN_12_RD_20_0.png","img2/100/Incongruent/R/I_Dist_100_LN_10_LD_25_RN_8_RD_16_1.png","img2/100/Congruent/R/C_Dist_100_LN_2_LD_5_RN_11_RD_22_1.png","img2/100/Incongruent/L/I_Dist_100_LN_2_LD_4_RN_6_RD_15_0.png","img2/300/Incongruent/L/I_Dist_300_LN_1_LD_2_RN_3_RD_15_0.png","img2/100/Incongruent/L/I_Dist_100_LN_3_LD_5_RN_8_RD_16_0.png","img2/100/Incongruent/L/I_Dist_100_LN_9_LD_15_RN_14_RD_28_0.png","img2/100/Incongruent/L/I_Dist_100_LN_3_LD_9_RN_7_RD_30_0.png","img2/300/Incongruent/R/I_Dist_300_LN_13_LD_26_RN_12_RD_15_1.png","img2/200/Congruent/R/C_Dist_200_LN_3_LD_10_RN_14_RD_28_1.png","img2/300/Incongruent/R/I_Dist_300_LN_4_LD_20_RN_2_RD_4_1.png","img2/200/Incongruent/R/I_Dist_200_LN_6_LD_20_RN_3_RD_6_1.png","img2/100/Congruent/L/C_Dist_100_LN_3_LD_6_RN_2_RD_5_0.png","img2/200/Congruent/R/C_Dist_200_LN_3_LD_12_RN_9_RD_20_1.png","img2/100/Incongruent/R/I_Dist_100_LN_13_LD_26_RN_12_RD_20_1.png","img2/200/Congruent/R/C_Dist_200_LN_5_LD_10_RN_14_RD_20_1.png","img2/100/Incongruent/L/I_Dist_100_LN_3_LD_6_RN_4_RD_10_0.png","img2/100/Congruent/L/C_Dist_100_LN_6_LD_20_RN_5_RD_25_0.png","img2/200/Incongruent/R/I_Dist_200_LN_6_LD_20_RN_3_RD_6_1.png","img2/300/Congruent/L/C_Dist_300_LN_12_LD_24_RN_2_RD_10_0.png","img2/300/Incongruent/L/I_Dist_300_LN_1_LD_2_RN_2_RD_10_0.png","img2/300/Incongruent/L/I_Dist_300_LN_4_LD_5_RN_6_RD_12_0.png","img2/200/Congruent/L/C_Dist_200_LN_8_LD_15_RN_2_RD_6_0.png","img2/200/Congruent/L/C_Dist_200_LN_8_LD_15_RN_7_RD_21_0.png","img2/300/Incongruent/L/I_Dist_300_LN_7_LD_10_RN_8_RD_20_0.png","img2/300/Congruent/L/C_Dist_300_LN_4_LD_10_RN_1_RD_10_0.png","img2/200/Incongruent/L/I_Dist_200_LN_7_LD_10_RN_8_RD_16_0.png","img2/300/Incongruent/L/I_Dist_300_LN_3_LD_6_RN_4_RD_20_0.png","img2/100/Congruent/R/C_Dist_100_LN_4_LD_8_RN_6_RD_10_1.png","img2/200/Congruent/L/C_Dist_200_LN_4_LD_8_RN_3_RD_10_0.png","img2/300/Congruent/R/C_Dist_300_LN_1_LD_20_RN_7_RD_20_1.png","img2/200/Incongruent/L/I_Dist_200_LN_3_LD_4_RN_11_RD_20_0.png","img2/200/Incongruent/R/I_Dist_200_LN_14_LD_30_RN_12_RD_18_1.png","img2/300/Incongruent/L/I_Dist_300_LN_1_LD_2_RN_3_RD_15_0.png","img2/200/Congruent/R/C_Dist_200_LN_9_LD_30_RN_13_RD_26_1.png","img2/100/Incongruent/L/I_Dist_100_LN_2_LD_4_RN_8_RD_20_0.png","img2/300/Incongruent/L/I_Dist_300_LN_4_LD_5_RN_8_RD_16_0.png","img2/100/Congruent/R/C_Dist_100_LN_4_LD_8_RN_6_RD_10_1.png","img2/300/Congruent/R/C_Dist_300_LN_5_LD_25_RN_6_RD_12_1.png","img2/200/Incongruent/R/I_Dist_200_LN_11_LD_20_RN_3_RD_4_1.png","img2/200/Incongruent/L/I_Dist_200_LN_7_LD_10_RN_14_RD_28_0.png","img2/100/Incongruent/L/I_Dist_100_LN_3_LD_6_RN_4_RD_10_0.png","img2/100/Incongruent/L/I_Dist_100_LN_1_LD_2_RN_8_RD_20_0.png","img2/300/Congruent/R/C_Dist_300_LN_7_LD_14_RN_20_RD_25_1.png","img2/300/Congruent/L/C_Dist_300_LN_20_LD_25_RN_5_RD_10_0.png","img2/100/Congruent/L/C_Dist_100_LN_11_LD_22_RN_4_RD_10_0.png","img2/200/Incongruent/R/I_Dist_200_LN_14_LD_30_RN_12_RD_18_1.png","img2/100/Congruent/R/C_Dist_100_LN_7_LD_14_RN_15_RD_25_1.png","img2/100/Congruent/R/C_Dist_100_LN_3_LD_20_RN_4_RD_16_1.png","img2/300/Congruent/L/C_Dist_300_LN_24_LD_30_RN_2_RD_4_0.png","img2/100/Congruent/R/C_Dist_100_LN_7_LD_14_RN_15_RD_25_1.png","img2/300/Congruent/R/C_Dist_300_LN_1_LD_3_RN_19_RD_30_1.png","img2/200/Congruent/L/C_Dist_200_LN_8_LD_15_RN_7_RD_21_0.png","img2/200/Incongruent/R/I_Dist_200_LN_7_LD_15_RN_6_RD_9_1.png","img2/300/Congruent/R/C_Dist_300_LN_1_LD_5_RN_3_RD_6_1.png","img2/300/Incongruent/L/I_Dist_300_LN_3_LD_6_RN_4_RD_20_0.png","img2/300/Congruent/R/C_Dist_300_LN_5_LD_25_RN_7_RD_14_1.png","img2/200/Congruent/L/C_Dist_200_LN_4_LD_8_RN_3_RD_10_0.png","img2/100/Congruent/L/C_Dist_100_LN_10_LD_25_RN_3_RD_10_0.png","img2/100/Congruent/R/C_Dist_100_LN_4_LD_10_RN_15_RD_30_1.png","img2/300/Congruent/R/C_Dist_300_LN_1_LD_5_RN_11_RD_22_1.png","img2/100/Congruent/R/C_Dist_100_LN_3_LD_20_RN_4_RD_16_1.png","img2/100/Incongruent/R/I_Dist_100_LN_8_LD_16_RN_6_RD_10_1.png","img2/300/Incongruent/R/I_Dist_300_LN_13_LD_26_RN_12_RD_15_1.png","img2/100/Incongruent/L/I_Dist_100_LN_9_LD_15_RN_14_RD_28_0.png","img2/200/Congruent/R/C_Dist_200_LN_1_LD_2_RN_21_RD_30_1.png","img2/200/Congruent/L/C_Dist_200_LN_16_LD_30_RN_9_RD_27_0.png","img2/200/Incongruent/L/I_Dist_200_LN_3_LD_4_RN_11_RD_20_0.png","img2/300/Congruent/L/C_Dist_300_LN_20_LD_25_RN_5_RD_10_0.png","img2/100/Incongruent/L/I_Dist_100_LN_6_LD_10_RN_11_RD_22_0.png","img2/100/Incongruent/R/I_Dist_100_LN_9_LD_18_RN_6_RD_10_1.png","img2/300/Congruent/L/C_Dist_300_LN_20_LD_25_RN_14_RD_28_0.png","img2/100/Incongruent/L/I_Dist_100_LN_2_LD_4_RN_8_RD_20_0.png","img2/200/Congruent/L/C_Dist_200_LN_14_LD_28_RN_6_RD_20_0.png","img2/200/Incongruent/L/I_Dist_200_LN_7_LD_10_RN_14_RD_28_0.png","img2/300/Incongruent/L/I_Dist_300_LN_4_LD_5_RN_8_RD_16_0.png","img2/200/Incongruent/R/I_Dist_200_LN_7_LD_15_RN_6_RD_9_1.png","img2/100/Incongruent/R/I_Dist_100_LN_10_LD_25_RN_8_RD_16_1.png","img2/300/Congruent/L/C_Dist_300_LN_24_LD_30_RN_2_RD_4_0.png","img2/100/Congruent/L/C_Dist_100_LN_11_LD_22_RN_6_RD_15_0.png","img2/300/Incongruent/L/I_Dist_300_LN_8_LD_10_RN_14_RD_28_0.png","img2/100/Congruent/R/C_Dist_100_LN_12_LD_30_RN_13_RD_26_1.png","img2/300/Congruent/L/C_Dist_300_LN_11_LD_22_RN_2_RD_10_0.png","img2/200/Incongruent/R/I_Dist_200_LN_14_LD_30_RN_12_RD_18_1.png","img2/300/Congruent/L/C_Dist_300_LN_24_LD_30_RN_2_RD_4_0.png","img2/100/Congruent/R/C_Dist_100_LN_2_LD_5_RN_11_RD_22_1.png","img2/300/Congruent/L/C_Dist_300_LN_11_LD_22_RN_4_RD_20_0.png","img2/200/Incongruent/L/I_Dist_200_LN_3_LD_4_RN_11_RD_20_0.png","img2/200/Congruent/L/C_Dist_200_LN_15_LD_25_RN_4_RD_10_0.png","img2/100/Congruent/R/C_Dist_100_LN_2_LD_5_RN_11_RD_22_1.png","img2/200/Incongruent/R/I_Dist_200_LN_7_LD_15_RN_6_RD_9_1.png","img2/300/Congruent/R/C_Dist_300_LN_1_LD_30_RN_8_RD_24_1.png","img2/300/Incongruent/R/I_Dist_300_LN_4_LD_20_RN_2_RD_4_1.png","img2/300/Incongruent/R/I_Dist_300_LN_4_LD_20_RN_2_RD_4_1.png","img2/200/Incongruent/R/I_Dist_200_LN_7_LD_15_RN_4_RD_6_1.png","img2/200/Incongruent/R/I_Dist_200_LN_4_LD_30_RN_1_RD_3_1.png","img2/100/Congruent/L/C_Dist_100_LN_11_LD_22_RN_4_RD_10_0.png","img2/300/Congruent/R/C_Dist_300_LN_1_LD_30_RN_8_RD_24_1.png","img2/300/Congruent/R/C_Dist_300_LN_8_LD_15_RN_10_RD_12_1.png","img2/300/Incongruent/R/I_Dist_300_LN_13_LD_26_RN_12_RD_15_1.png","img2/100/Incongruent/R/I_Dist_100_LN_6_LD_12_RN_3_RD_5_1.png","img2/200/Incongruent/R/I_Dist_200_LN_7_LD_15_RN_4_RD_6_1.png","img2/100/Congruent/L/C_Dist_100_LN_8_LD_16_RN_2_RD_5_0.png","img2/200/Congruent/L/C_Dist_200_LN_12_LD_15_RN_6_RD_10_0.png","img2/200/Incongruent/R/I_Dist_200_LN_14_LD_30_RN_12_RD_18_1.png","img2/100/Incongruent/R/I_Dist_100_LN_8_LD_16_RN_6_RD_10_1.png"],"dist100_C":[["C_Dist_100_LN_10_LD_25_RN_3_RD_10_0.png","C_Dist_100_LN_11_LD_22_RN_4_RD_10_0.png","C_Dist_100_LN_11_LD_22_RN_6_RD_15_0.png","C_Dist_100_LN_15_LD_25_RN_13_RD_26_0.png","C_Dist_100_LN_3_LD_6_RN_2_RD_5_0.png","C_Dist_100_LN_6_LD_20_RN_5_RD_25_0.png","C_Dist_100_LN_8_LD_16_RN_2_RD_5_0.png","C_Dist_100_LN_9_LD_15_RN_8_RD_16_0.png"],["C_Dist_100_LN_1_LD_2_RN_18_RD_30_1.png","C_Dist_100_LN_1_LD_2_RN_3_RD_5_1.png","C_Dist_100_LN_12_LD_30_RN_13_RD_26_1.png","C_Dist_100_LN_2_LD_5_RN_11_RD_22_1.png","C_Dist_100_LN_2_LD_5_RN_6_RD_12_1.png","C_Dist_100_LN_3_LD_20_RN_4_RD_16_1.png","C_Dist_100_LN_4_LD_10_RN_15_RD_30_1.png","C_Dist_100_LN_4_LD_8_RN_6_RD_10_1.png","C_Dist_100_LN_6_LD_12_RN_15_RD_25_1.png","C_Dist_100_LN_7_LD_14_RN_15_RD_25_1.png","C_Dist_100_LN_7_LD_14_RN_9_RD_15_1.png"]],"dist100_I":[["I_Dist_100_LN_1_LD_2_RN_8_RD_20_0.png","I_Dist_100_LN_2_LD_4_RN_6_RD_15_0.png","I_Dist_100_LN_2_LD_4_RN_8_RD_20_0.png","I_Dist_100_LN_3_LD_5_RN_11_RD_22_0.png","I_Dist_100_LN_3_LD_5_RN_8_RD_16_0.png","I_Dist_100_LN_3_LD_6_RN_4_RD_10_0.png","I_Dist_100_LN_3_LD_9_RN_7_RD_30_0.png","I_Dist_100_LN_4_LD_8_RN_8_RD_20_0.png","I_Dist_100_LN_6_LD_10_RN_11_RD_22_0.png","I_Dist_100_LN_6_LD_10_RN_13_RD_26_0.png","I_Dist_100_LN_6_LD_10_RN_7_RD_14_0.png","I_Dist_100_LN_9_LD_10_RN_20_RD_25_0.png","I_Dist_100_LN_9_LD_15_RN_13_RD_26_0.png","I_Dist_100_LN_9_LD_15_RN_14_RD_28_0.png"],["I_Dist_100_LN_10_LD_25_RN_8_RD_16_1.png","I_Dist_100_LN_10_LD_25_RN_9_RD_18_1.png","I_Dist_100_LN_11_LD_22_RN_9_RD_15_1.png","I_Dist_100_LN_12_LD_24_RN_9_RD_15_1.png","I_Dist_100_LN_12_LD_30_RN_2_RD_4_1.png","I_Dist_100_LN_13_LD_26_RN_12_RD_20_1.png","I_Dist_100_LN_13_LD_26_RN_6_RD_10_1.png","I_Dist_100_LN_17_LD_30_RN_10_RD_15_1.png","I_Dist_100_LN_6_LD_12_RN_3_RD_5_1.png","I_Dist_100_LN_8_LD_16_RN_6_RD_10_1.png","I_Dist_100_LN_8_LD_20_RN_1_RD_2_1.png","I_Dist_100_LN_9_LD_18_RN_6_RD_10_1.png"]],"dist100_S":[["E_Dist_100_LN_2_LD_12_RN_2_RD_30_0.png","E_Dist_100_LN_6_LD_10_RN_6_RD_12_0.png"],["E_Dist_100_LN_6_LD_12_RN_6_RD_10_1.png"]],"dist200_C":[["C_Dist_200_LN_11_LD_22_RN_3_RD_10_0.png","C_Dist_200_LN_12_LD_15_RN_6_RD_10_0.png","C_Dist_200_LN_12_LD_20_RN_6_RD_15_0.png","C_Dist_200_LN_14_LD_28_RN_6_RD_20_0.png","C_Dist_200_LN_15_LD_25_RN_4_RD_10_0.png","C_Dist_200_LN_16_LD_20_RN_12_RD_20_0.png","C_Dist_200_LN_16_LD_30_RN_9_RD_27_0.png","C_Dist_200_LN_20_LD_25_RN_9_RD_15_0.png","C_Dist_200_LN_21_LD_30_RN_2_RD_4_0.png","C_Dist_200_LN_4_LD_10_RN_3_RD_15_0.png","C_Dist_200_LN_4_LD_8_RN_3_RD_10_0.png","C_Dist_200_LN_6_LD_15_RN_3_RD_15_0.png","C_Dist_200_LN_7_LD_21_RN_2_RD_15_0.png","C_Dist_200_LN_8_LD_15_RN_2_RD_6_0.png","C_Dist_200_LN_8_LD_15_RN_3_RD_9_0.png","C_Dist_200_LN_8_LD_15_RN_7_RD_21_0.png","C_Dist_200_LN_9_LD_20_RN_4_RD_16_0.png"],["C_Dist_200_LN_1_LD_2_RN_21_RD_30_1.png","C_Dist_200_LN_13_LD_26_RN_14_RD_20_1.png","C_Dist_200_LN_3_LD_10_RN_11_RD_22_1.png","C_Dist_200_LN_3_LD_10_RN_14_RD_28_1.png","C_Dist_200_LN_3_LD_10_RN_7_RD_14_1.png","C_Dist_200_LN_3_LD_12_RN_9_RD_20_1.png","C_Dist_200_LN_3_LD_6_RN_14_RD_20_1.png","C_Dist_200_LN_5_LD_10_RN_14_RD_20_1.png","C_Dist_200_LN_6_LD_12_RN_7_RD_10_1.png","C_Dist_200_LN_6_LD_20_RN_11_RD_22_1.png","C_Dist_200_LN_7_LD_15_RN_18_RD_27_1.png","C_Dist_200_LN_9_LD_30_RN_13_RD_26_1.png"]],"dist200_I":[["I_Dist_200_LN_1_LD_2_RN_3_RD_10_0.png","I_Dist_200_LN_1_LD_3_RN_2_RD_15_0.png","I_Dist_200_LN_3_LD_4_RN_11_RD_20_0.png","I_Dist_200_LN_4_LD_5_RN_6_RD_10_0.png","I_Dist_200_LN_4_LD_6_RN_14_RD_30_0.png","I_Dist_200_LN_7_LD_10_RN_12_RD_24_0.png","I_Dist_200_LN_7_LD_10_RN_14_RD_28_0.png","I_Dist_200_LN_7_LD_10_RN_8_RD_16_0.png"],["I_Dist_200_LN_11_LD_20_RN_3_RD_4_1.png","I_Dist_200_LN_14_LD_30_RN_12_RD_18_1.png","I_Dist_200_LN_14_LD_30_RN_6_RD_9_1.png","I_Dist_200_LN_3_LD_10_RN_1_RD_2_1.png","I_Dist_200_LN_4_LD_30_RN_1_RD_3_1.png","I_Dist_200_LN_6_LD_20_RN_3_RD_6_1.png","I_Dist_200_LN_7_LD_15_RN_4_RD_6_1.png","I_Dist_200_LN_7_LD_15_RN_6_RD_9_1.png","I_Dist_200_LN_9_LD_15_RN_8_RD_10_1.png"]],"dist200_S":[["E_Dist_200_LN_3_LD_6_RN_3_RD_10_0.png"],["E_Dist_200_LN_3_LD_10_RN_3_RD_6_1.png"]],"dist300_C":[["C_Dist_300_LN_11_LD_22_RN_1_RD_5_0.png","C_Dist_300_LN_11_LD_22_RN_2_RD_10_0.png","C_Dist_300_LN_11_LD_22_RN_4_RD_20_0.png","C_Dist_300_LN_12_LD_24_RN_2_RD_10_0.png","C_Dist_300_LN_18_LD_20_RN_9_RD_15_0.png","C_Dist_300_LN_20_LD_25_RN_13_RD_26_0.png","C_Dist_300_LN_20_LD_25_RN_14_RD_28_0.png","C_Dist_300_LN_20_LD_25_RN_5_RD_10_0.png","C_Dist_300_LN_20_LD_25_RN_8_RD_16_0.png","C_Dist_300_LN_20_LD_25_RN_9_RD_18_0.png","C_Dist_300_LN_24_LD_30_RN_2_RD_4_0.png","C_Dist_300_LN_24_LD_30_RN_8_RD_16_0.png","C_Dist_300_LN_3_LD_6_RN_2_RD_10_0.png","C_Dist_300_LN_4_LD_10_RN_1_RD_10_0.png","C_Dist_300_LN_4_LD_5_RN_2_RD_4_0.png","C_Dist_300_LN_8_LD_16_RN_1_RD_5_0.png","C_Dist_300_LN_9_LD_10_RN_3_RD_5_0.png"],["C_Dist_300_LN_1_LD_20_RN_7_RD_20_1.png","C_Dist_300_LN_1_LD_3_RN_19_RD_30_1.png","C_Dist_300_LN_1_LD_30_RN_8_RD_24_1.png","C_Dist_300_LN_1_LD_5_RN_11_RD_22_1.png","C_Dist_300_LN_1_LD_5_RN_3_RD_6_1.png","C_Dist_300_LN_1_LD_5_RN_6_RD_12_1.png","C_Dist_300_LN_2_LD_10_RN_12_RD_24_1.png","C_Dist_300_LN_2_LD_20_RN_10_RD_25_1.png","C_Dist_300_LN_3_LD_12_RN_11_RD_20_1.png","C_Dist_300_LN_3_LD_6_RN_4_RD_5_1.png","C_Dist_300_LN_4_LD_20_RN_13_RD_26_1.png","C_Dist_300_LN_5_LD_25_RN_6_RD_12_1.png","C_Dist_300_LN_5_LD_25_RN_7_RD_14_1.png","C_Dist_300_LN_7_LD_14_RN_20_RD_25_1.png","C_Dist_300_LN_8_LD_15_RN_10_RD_12_1.png"]],"dist300_I":[["I_Dist_300_LN_1_LD_2_RN_2_RD_10_0.png","I_Dist_300_LN_1_LD_2_RN_3_RD_15_0.png","I_Dist_300_LN_2_LD_4_RN_6_RD_30_0.png","I_Dist_300_LN_3_LD_6_RN_4_RD_20_0.png","I_Dist_300_LN_4_LD_5_RN_6_RD_12_0.png","I_Dist_300_LN_4_LD_5_RN_8_RD_16_0.png","I_Dist_300_LN_7_LD_10_RN_8_RD_20_0.png","I_Dist_300_LN_8_LD_10_RN_14_RD_28_0.png","I_Dist_300_LN_8_LD_10_RN_9_RD_18_0.png"],["I_Dist_300_LN_13_LD_26_RN_12_RD_15_1.png","I_Dist_300_LN_4_LD_20_RN_2_RD_4_1.png"]],"dist300_S":[["E_Dist_300_LN_9_LD_12_RN_9_RD_20_0.png"],["E_Dist_300_LN_18_LD_30_RN_18_RD_20_1.png","E_Dist_300_LN_3_LD_10_RN_3_RD_5_1.png","E_Dist_300_LN_9_LD_20_RN_9_RD_12_1.png"]],"dist500_C":[["C_Dist_500_LN_10_LD_13_RN_7_RD_26_0.png","C_Dist_500_LN_10_LD_15_RN_4_RD_24_0.png","C_Dist_500_LN_12_LD_16_RN_3_RD_12_0.png","C_Dist_500_LN_12_LD_18_RN_4_RD_24_0.png","C_Dist_500_LN_15_LD_18_RN_5_RD_15_0.png","C_Dist_500_LN_15_LD_20_RN_1_RD_4_0.png","C_Dist_500_LN_18_LD_27_RN_1_RD_6_0.png","C_Dist_500_LN_20_LD_24_RN_1_RD_3_0.png","C_Dist_500_LN_20_LD_24_RN_3_RD_9_0.png","C_Dist_500_LN_20_LD_24_RN_7_RD_21_0.png","C_Dist_500_LN_20_LD_28_RN_3_RD_14_0.png","C_Dist_500_LN_21_LD_28_RN_6_RD_24_0.png","C_Dist_500_LN_22_LD_28_RN_2_RD_7_0.png","C_Dist_500_LN_25_LD_30_RN_9_RD_27_0.png","C_Dist_500_LN_4_LD_6_RN_1_RD_6_0.png","C_Dist_500_LN_5_LD_6_RN_2_RD_6_0.png","C_Dist_500_LN_6_LD_9_RN_1_RD_6_0.png","C_Dist_500_LN_7_LD_10_RN_1_RD_5_0.png","C_Dist_500_LN_8_LD_12_RN_1_RD_6_0.png","C_Dist_500_LN_8_LD_12_RN_4_RD_24_0.png"],["C_Dist_500_LN_1_LD_4_RN_12_RD_16_1.png","C_Dist_500_LN_1_LD_4_RN_9_RD_12_1.png","C_Dist_500_LN_1_LD_9_RN_11_RD_18_1.png","C_Dist_500_LN_10_LD_24_RN_22_RD_24_1.png","C_Dist_500_LN_2_LD_12_RN_10_RD_15_1.png","C_Dist_500_LN_2_LD_12_RN_12_RD_18_1.png","C_Dist_500_LN_2_LD_12_RN_4_RD_6_1.png","C_Dist_500_LN_2_LD_24_RN_7_RD_12_1.png","C_Dist_500_LN_2_LD_5_RN_18_RD_20_1.png","C_Dist_500_LN_2_LD_5_RN_9_RD_10_1.png","C_Dist_500_LN_2_LD_8_RN_12_RD_16_1.png","C_Dist_500_LN_2_LD_8_RN_21_RD_28_1.png","C_Dist_500_LN_3_LD_10_RN_4_RD_5_1.png","C_Dist_500_LN_3_LD_12_RN_15_RD_20_1.png","C_Dist_500_LN_3_LD_30_RN_6_RD_10_1.png","C_Dist_500_LN_3_LD_8_RN_14_RD_16_1.png","C_Dist_500_LN_4_LD_16_RN_15_RD_20_1.png","C_Dist_500_LN_4_LD_24_RN_12_RD_18_1.png","C_Dist_500_LN_5_LD_14_RN_6_RD_7_1.png","C_Dist_500_LN_7_LD_21_RN_20_RD_24_1.png","C_Dist_500_LN_7_LD_28_RN_12_RD_16_1.png","C_Dist_500_LN_7_LD_28_RN_9_RD_12_1.png","C_Dist_500_LN_9_LD_27_RN_20_RD_24_1.png"]],"dist500_I":[["I_Dist_500_LN_2_LD_3_RN_4_RD_24_0.png","I_Dist_500_LN_5_LD_6_RN_6_RD_18_0.png","I_Dist_500_LN_7_LD_8_RN_9_RD_24_0.png"],["I_Dist_500_LN_7_LD_21_RN_5_RD_6_1.png"]],"dist500_S":[["E_Dist_500_LN_6_LD_8_RN_6_RD_24_0.png"],["E_Dist_500_LN_2_LD_12_RN_2_RD_3_1.png","E_Dist_500_LN_6_LD_24_RN_6_RD_8_1.png"]]}},{"start_time":1551899635254,"click_time":1551899662585,"finger_time":1551899638045,"fix_duration":447.59120731978675,"trial":1,"RT":2791,"MT":24540,"sideResp":1,"stimulus":[],"xmouse":[765,765,765,765,765,765,765,765,765,765,765,765,765,765,765,765,765,765,765,765,765,765,765,765,765,765,765,765,765,765,765,765,765,765,765,765,765,765,765,765,765,765,765,765,765,765,765,765,765,765,765,765,765,765,765,765,765,765,765,765,765,765,765,765,765,765,765,765,765,765,765,765,765,765,765,765,765,765,765,765,765,765,765,765,765,765,765,765,765,765,765,765,765,765,765,765,765,765,765,765,765,765,765,765,765,765,765,765,765,765,765,765,765,765,765,765,765,765,765,765,765,765,765,765,763,762,762,762,762,762,762,761,761,760,759,757,751,745,744,740,736,723,719,718,717,716,712,707,700,696,692,685,683,682,680,679,673,673,670,668,665,660,657,651,647,646,646,646,646,646,646,646,646,646,646,646,646,646,646,646,646,646,646,646,646,646,646,646,646,646,646,646,646,646,646,646,646,646,646,646,646,646,646,646,646,646,646,646,646,646,646,646,646,646,646,646,646,646,646,646,646,646,646,646,646,646,646,646,646,646,646,646,646,646,646,651,731,784,793,811,816,819,819,819,819,819,818,806,788,767,757,746,746,746,748,752,766,792,802,810,814,815,815,815,815,815,815,815,815,815,815,815,815,815,815,815,815,815,815,815,815,815,815,815,815,815,815,815,815,815,815,815,815,815,815,815,815,815,815,815,815,815,815,815,815,815,815,815,815,815,815,815,815,815,815,815,815,815,815,815,815,815,815,815,815,815,815,815,815,815,815,815,815,815,815,815,815,815,815,815,815,815,815,815,815,815,815,815,815,815,815,815,815,815,815,815,815,815,815,815,815,815,815,815,815,815,815,815,815,815,815,815,815,815,815,815,815,815,815,815,815,815,815,815,815,815,815,815,815,815,815,815,815,815,815,815,815,815,815,815,815,815,815,815,815,815,815,815,815,815,815,815,815,815,815,815,815,815,815,815,815,815,815,815,815,815,815,815,815,815,815,815,815,815,815,815,815,815,815,815,815,815,815,815,815,815,815,815,815,815,815,815,815,815,815,815,815,815,815,815,815,815,815,815,815,815,815,815,815,815,815,815,815,815,815,815,815,815,815,815,815,815,815,815,815,815,815,815,815,815,815,815,815,815,815,815,815,815,815,815,815,815,815,815,815,815,815,815,815,815,815,815,815,815,815,815,815,815,815,815,815,815,815,815,815,815,815,815,815,815,815,815,815,815,815,815,815,815,815,815,815,815,815,815,815,815,815,815,815,815,815,815,815,815,815,815,815,815,815,815,815,815,815,815,815,815,815,815,815,815,815,815,815,815,815,815,815,815,815,815,815,815,815,815,815,815,815,815,815,815,815,815,815,815,815,815,815,815,815,815,815,815,815,815,815,815,815,815,815,815,815,815,815,815,815,815,815,815,815,815,815,815,815,815,815,815,815,815,815,815,815,815,815,815,815,815,815,815,815,815,815,815,815,815,815,815,815,815,815,815,815,815,815,815,815,815,815,815,815,815,815,815,815,815,815,815,815,815,815,815,815,815,815,815,815,815,815,815,815,815,815,815,815,815,815,815,815,815,815,815,815,815,815,815,815,815,815,815,815,815,815,815,815,815,815,815,815,815,815,815,815,815,815,815,815,815,815,815,815,815,815,815,815,815,815,815,815,815,815,815,815,815,815,815,815,815,815,815,815,815,815,815,815,815,815,815,815,815,815,815,815,815,815,815,815,815,815,815,815,815,815,815,815,815,815,815,815,815,815,815,815,815,815,815,815,815,815,815,815,815,815,815,815,815,815,815,815,815,815,815,815,815,815,815,815,815,815,815,815,815,815,815,815,815,815,815,815,815,815,815,815,815,815,815,815,815,815,815,815,815,815,815,815,815,815,815,815,815,815,815,815,815,815,815,815,815,815,815,815,815,815,815,815,815,815,815,815,815,815,815,815,815,815,815,815,815,815,815,815,815,815,815,815,815,815,815,815,815,815,815,815,815,815,815,815,815,815,815,815,815,815,815,815,815,815,815,815,815,815,815,815,815,815,815,815,815,815,815,815,815,815,815,815,815,815,815,815,815,815,815,815,815,815,815,815,815,815,815,813,811,811,811,811,810,810,810,801,791,787,786,786,786,825,825,972,1005,1003,980,943,914,869,838,786,781,781,781,781,785,812,823,824,806,791,784,779,767,744,742,740,748,788,962,1005,1011,1011,991,865,855,835,810,772,712,704,704,704,713,751,764,769,769,769,769,769,769,769,769,769,769,769,769,769,769,769,769,769,769,769,769,769,769,769,769,769,769,769,769,769,769,769,769,769,769,769,769,769,769,769,769,769,769,769,769,769,769,769,769,769,769,769,769,769,769,769,769,769,769,769,769,769,769,769,769,769,769,769,769,769,769,769,769,769,769,769,769,769,769,769,769,769,769,769,769,769,769,769,769,769,769,769,769,769,769,769,769,769,769,769,769,769,769,769,769,769,769,769,769,769,769,769,769,769,769,769,769,769,769,769,769,769,769,769,769,769,769,769,769,769,769,769,769,769,769,769,769,769,769,769,769,769,769,769,769,769,769,769,769,769,769,769,769,769,769,769,769,769,769,769,769,769,769,769,769,769,769,769,769,769,769,769,769,769,769,769,769,769,769,769,769,769,769,769,769,769,769,769,769,769,769,769,769,769,769,769,769,769,769,769,769,769,769,769,769,769,769,769,769,769,769,769,769,769,769,769,769,769,769,769,769,769,769,769,769,769,769,769,769,769,769,769,769,769,769,769,769,769,769,769,769,769,769,769,769,769,769,769,769,769,769,769,769,769,769,769,769,769,769,769,769,769,769,769,769,769,769,769,769,769,769,769,769,769,769,769,769,769,769,769,769,769,769,769,769,769,769,769,769,769,769,769,762,750,729,722,722,717,717,716,716,716,716,716,716,716,716,716,716,716,716,716,716,716,716,716,716,716,716,716,716,716,716,716,715,714,711,709,708,708,708,708,708,708,708,708,708,708,708,708,708,708,708,708,708,708,708,708,708,708,708,708,708,708,708,708,708,708,708,708,708,708,708,708,708,708,708,708,708,701,695,690,681,681,670,665,656,640,614,586,579,571,566,561,547,540,535,533,530,521],"ymouse":[526,526,526,526,526,526,526,526,526,526,526,526,526,526,526,526,526,526,526,526,526,526,526,526,526,526,526,526,526,526,526,526,526,526,526,526,526,526,526,526,526,526,526,526,526,526,526,526,526,526,526,526,526,526,526,526,526,526,526,526,526,526,526,526,526,526,526,526,526,526,526,526,526,526,526,526,526,526,526,526,526,526,526,526,526,526,526,526,526,526,526,526,526,526,526,526,526,526,526,526,526,526,526,526,526,526,526,526,526,526,526,526,526,526,526,526,526,526,526,526,526,526,526,526,526,526,526,526,526,526,526,526,526,526,526,526,526,526,526,526,527,529,531,532,532,532,532,532,533,535,536,539,544,548,552,556,561,561,563,564,566,569,570,571,571,571,571,571,571,571,571,571,571,571,571,571,571,571,571,571,571,571,571,571,571,571,571,571,571,571,571,571,571,571,571,571,571,571,571,571,571,571,571,571,571,571,571,571,571,571,571,571,571,571,571,571,571,571,571,571,571,571,571,571,571,571,571,571,571,571,571,571,571,571,571,571,559,526,516,486,476,473,473,473,473,473,473,479,491,510,527,554,562,567,570,570,568,549,542,536,534,533,533,533,533,533,533,533,533,533,533,533,533,533,533,533,533,533,533,533,533,533,533,533,533,533,533,533,533,533,533,533,533,533,533,533,533,533,533,533,533,533,533,533,533,533,533,533,533,533,533,533,533,533,533,533,533,533,533,533,533,533,533,533,533,533,533,533,533,533,533,533,533,533,533,533,533,533,533,533,533,533,533,533,533,533,533,533,533,533,533,533,533,533,533,533,533,533,533,533,533,533,533,533,533,533,533,533,533,533,533,533,533,533,533,533,533,533,533,533,533,533,533,533,533,533,533,533,533,533,533,533,533,533,533,533,533,533,533,533,533,533,533,533,533,533,533,533,533,533,533,533,533,533,533,533,533,533,533,533,533,533,533,533,533,533,533,533,533,533,533,533,533,533,533,533,533,533,533,533,533,533,533,533,533,533,533,533,533,533,533,533,533,533,533,533,533,533,533,533,533,533,533,533,533,533,533,533,533,533,533,533,533,533,533,533,533,533,533,533,533,533,533,533,533,533,533,533,533,533,533,533,533,533,533,533,533,533,533,533,533,533,533,533,533,533,533,533,533,533,533,533,533,533,533,533,533,533,533,533,533,533,533,533,533,533,533,533,533,533,533,533,533,533,533,533,533,533,533,533,533,533,533,533,533,533,533,533,533,533,533,533,533,533,533,533,533,533,533,533,533,533,533,533,533,533,533,533,533,533,533,533,533,533,533,533,533,533,533,533,533,533,533,533,533,533,533,533,533,533,533,533,533,533,533,533,533,533,533,533,533,533,533,533,533,533,533,533,533,533,533,533,533,533,533,533,533,533,533,533,533,533,533,533,533,533,533,533,533,533,533,533,533,533,533,533,533,533,533,533,533,533,533,533,533,533,533,533,533,533,533,533,533,533,533,533,533,533,533,533,533,533,533,533,533,533,533,533,533,533,533,533,533,533,533,533,533,533,533,533,533,533,533,533,533,533,533,533,533,533,533,533,533,533,533,533,533,533,533,533,533,533,533,533,533,533,533,533,533,533,533,533,533,533,533,533,533,533,533,533,533,533,533,533,533,533,533,533,533,533,533,533,533,533,533,533,533,533,533,533,533,533,533,533,533,533,533,533,533,533,533,533,533,533,533,533,533,533,533,533,533,533,533,533,533,533,533,533,533,533,533,533,533,533,533,533,533,533,533,533,533,533,533,533,533,533,533,533,533,533,533,533,533,533,533,533,533,533,533,533,533,533,533,533,533,533,533,533,533,533,533,533,533,533,533,533,533,533,533,533,533,533,533,533,533,533,533,533,533,533,533,533,533,533,533,533,533,533,533,533,533,533,533,533,533,533,533,533,533,533,533,533,533,533,533,533,533,533,533,533,533,533,533,533,533,533,533,533,533,533,533,533,533,533,533,533,533,533,533,533,533,533,533,533,533,533,533,533,533,533,533,533,533,533,533,533,533,533,533,533,533,533,533,533,533,533,533,533,533,533,533,533,533,533,533,533,533,533,533,534,534,534,534,532,531,531,543,560,568,570,570,570,563,563,541,534,524,521,521,526,548,563,588,591,591,591,591,587,565,548,530,487,478,476,476,476,480,484,488,497,506,519,519,519,519,499,465,466,475,483,494,521,530,534,534,536,537,537,537,537,537,537,537,537,537,537,537,537,537,537,537,537,537,537,537,537,537,537,537,537,537,537,537,537,537,537,537,537,537,537,537,537,537,537,537,537,537,537,537,537,537,537,537,537,537,537,537,537,537,537,537,537,537,537,537,537,537,537,537,537,537,537,537,537,537,537,537,537,537,537,537,537,537,537,537,537,537,537,537,537,537,537,537,537,537,537,537,537,537,537,537,537,537,537,537,537,537,537,537,537,537,537,537,537,537,537,537,537,537,537,537,537,537,537,537,537,537,537,537,537,537,537,537,537,537,537,537,537,537,537,537,537,537,537,537,537,537,537,537,537,537,537,537,537,537,537,537,537,537,537,537,537,537,537,537,537,537,537,537,537,537,537,537,537,537,537,537,537,537,537,537,537,537,537,537,537,537,537,537,537,537,537,537,537,537,537,537,537,537,537,537,537,537,537,537,537,537,537,537,537,537,537,537,537,537,537,537,537,537,537,537,537,537,537,537,537,537,537,537,537,537,537,537,537,537,537,537,537,537,537,537,537,537,537,537,537,537,537,537,537,537,537,537,537,537,537,537,537,537,537,537,537,537,537,537,537,537,537,537,537,537,537,537,537,537,537,537,537,537,537,537,537,537,537,537,537,537,537,537,537,537,537,537,537,537,537,537,537,537,509,485,443,425,425,402,402,397,396,396,396,396,396,396,396,396,396,396,396,396,396,396,396,396,396,396,396,396,399,400,401,401,402,402,402,402,402,402,402,402,402,402,402,402,402,402,402,402,402,402,402,402,402,402,402,402,402,402,402,402,402,402,402,402,402,402,402,402,402,402,402,402,402,402,402,402,402,399,394,389,381,381,364,355,340,317,281,241,225,208,194,174,139,120,110,103,92,66],"timestamp_mouse":[11,31,64,72,91,112,131,151,171,191,211,231,251,270,291,311,331,351,370,391,411,431,451,472,491,511,531,551,571,591,611,632,651,671,691,712,731,752,773,791,811,831,851,871,891,912,931,951,971,992,1011,1031,1051,1072,1092,1111,1131,1151,1171,1192,1210,1231,1251,1272,1291,1311,1331,1351,1371,1391,1411,1431,1451,1471,1491,1511,1531,1551,1571,1591,1611,1631,1651,1671,1691,1711,1731,1751,1771,1792,1811,1831,1851,1871,1891,1911,1931,1951,1971,1991,2010,2030,2051,2071,2091,2111,2130,2151,2171,2191,2211,2231,2251,2271,2291,2311,2331,2351,2371,2391,2411,2431,2451,2471,2491,2511,2531,2551,2571,2592,2611,2630,2651,2672,2690,2711,2731,2751,2772,2791,2811,2832,2852,2871,2891,2910,2931,2952,2971,2991,3011,3031,3051,3071,3091,3111,3131,3152,3170,3191,3212,3231,3251,3271,3290,3311,3331,3351,3371,3391,3411,3432,3452,3471,3491,3512,3531,3551,3571,3592,3611,3632,3651,3671,3691,3712,3731,3752,3771,3791,3812,3832,3852,3872,3892,3911,3932,3951,3971,3991,4011,4031,4052,4070,4092,4112,4131,4150,4171,4191,4212,4232,4251,4271,4291,4310,4331,4351,4371,4390,4411,4432,4451,4471,4492,4512,4531,4551,4571,4591,4611,4632,4651,4671,4690,4712,4730,4753,4771,4791,4812,4831,4851,4871,4891,4911,4931,4951,4972,4991,5012,5031,5051,5071,5091,5110,5131,5151,5171,5191,5211,5231,5251,5271,5291,5311,5332,5350,5371,5391,5411,5431,5451,5470,5491,5511,5531,5552,5571,5591,5611,5632,5652,5671,5691,5711,5731,5751,5771,5790,5811,5831,5850,5871,5891,5911,5932,5951,5972,5991,6011,6031,6051,6071,6091,6111,6132,6152,6171,6191,6211,6230,6252,6271,6291,6311,6331,6352,6372,6391,6412,6431,6451,6471,6491,6512,6531,6552,6571,6591,6611,6631,6652,6671,6691,6711,6731,6752,6771,6791,6812,6832,6852,6871,6891,6911,6931,6952,6971,6991,7011,7031,7052,7071,7091,7112,7131,7152,7171,7191,7211,7232,7252,7271,7291,7312,7331,7352,7372,7391,7411,7431,7452,7471,7491,7511,7531,7552,7571,7591,7611,7632,7652,7672,7692,7711,7731,7751,7772,7792,7811,7831,7852,7871,7891,7911,7931,7952,7971,7991,8011,8031,8050,8071,8092,8111,8130,8151,8171,8192,8211,8231,8251,8272,8291,8312,8331,8351,8371,8391,8411,8432,8452,8472,8491,8511,8531,8551,8571,8591,8611,8631,8651,8671,8691,8711,8731,8751,8771,8792,8811,8831,8851,8871,8891,8911,8931,8951,8971,8992,9011,9031,9051,9071,9091,9111,9131,9151,9171,9191,9211,9231,9251,9271,9291,9310,9331,9351,9371,9391,9411,9431,9452,9471,9491,9511,9531,9551,9571,9592,9612,9631,9651,9671,9690,9712,9731,9751,9771,9791,9811,9831,9851,9871,9892,9911,9931,9951,9971,9991,10012,10031,10051,10071,10091,10111,10131,10151,10171,10191,10211,10231,10251,10272,10291,10311,10330,10351,10371,10391,10411,10431,10451,10471,10491,10511,10531,10551,10571,10591,10611,10631,10651,10671,10691,10711,10732,10751,10771,10791,10811,10831,10851,10872,10891,10911,10931,10951,10971,10991,11011,11031,11051,11072,11091,11110,11131,11151,11172,11191,11211,11230,11251,11271,11291,11312,11333,11351,11371,11392,11411,11431,11451,11471,11491,11510,11531,11551,11572,11591,11611,11631,11651,11671,11691,11711,11731,11751,11771,11791,11811,11831,11852,11871,11891,11911,11931,11951,11971,11990,12010,12030,12052,12070,12091,12111,12131,12151,12171,12191,12211,12231,12251,12271,12291,12311,12331,12352,12371,12391,12411,12431,12451,12471,12491,12511,12531,12551,12571,12591,12611,12631,12651,12671,12690,12711,12731,12751,12771,12791,12811,12831,12851,12872,12892,12911,12931,12951,12971,12991,13011,13031,13051,13072,13092,13111,13131,13152,13171,13191,13211,13231,13252,13271,13291,13311,13331,13352,13371,13391,13410,13431,13451,13471,13492,13511,13530,13551,13572,13591,13611,13631,13651,13671,13691,13711,13731,13751,13771,13791,13811,13831,13851,13871,13892,13911,13931,13951,13971,13991,14011,14030,14051,14071,14092,14111,14131,14151,14171,14192,14212,14231,14251,14271,14292,14311,14331,14351,14371,14392,14411,14431,14452,14472,14490,14511,14532,14551,14571,14591,14611,14631,14651,14672,14692,14712,14731,14751,14771,14791,14810,14831,14851,14871,14892,14911,14932,14951,14972,14991,15012,15031,15051,15072,15091,15111,15131,15151,15172,15192,15212,15231,15251,15271,15291,15311,15331,15351,15371,15391,15411,15431,15451,15471,15491,15511,15531,15551,15571,15592,15611,15631,15651,15672,15692,15710,15732,15752,15771,15791,15811,15831,15851,15872,15892,15911,15931,15950,15972,15991,16011,16031,16052,16072,16091,16112,16131,16151,16172,16191,16211,16231,16251,16271,16291,16311,16332,16350,16371,16391,16411,16431,16451,16472,16492,16511,16532,16551,16572,16591,16611,16631,16651,16671,16690,16711,16731,16751,16771,16791,16811,16831,16851,16872,16892,16911,16931,16951,16971,16991,17011,17031,17051,17072,17090,17111,17131,17151,17171,17193,17211,17231,17251,17271,17291,17311,17332,17351,17372,17391,17411,17431,17451,17471,17491,17511,17532,17551,17572,17591,17611,17631,17651,17671,17691,17711,17731,17751,17771,17791,17811,17832,17851,17871,17891,17911,17931,17951,17971,17991,18011,18031,18051,18071,18091,18111,18131,18151,18171,18191,18212,18231,18251,18272,18291,18311,18331,18351,18371,18392,18412,18431,18451,18471,18491,18512,18531,18551,18572,18591,18612,18631,18658,18672,18691,18711,18731,18752,18771,18791,18812,18831,18851,18871,18892,18911,18931,18951,18972,18991,19012,19031,19051,19071,19091,19111,19131,19151,19171,19191,19211,19231,19254,19275,19292,19311,19330,19352,19371,19391,19411,19431,19455,19480,19492,19512,19530,19551,19571,19591,19611,19631,19651,19671,19691,19711,19731,19751,19771,19791,19811,19831,19851,19871,19891,19911,19932,19950,19971,19992,20011,20031,20051,20070,20091,20111,20131,20151,20171,20191,20211,20231,20251,20272,20290,20310,20331,20351,20372,20392,20411,20431,20451,20471,20492,20511,20531,20551,20571,20591,20611,20631,20652,20671,20692,20711,20731,20751,20772,20791,20811,20831,20851,20871,20891,20911,20931,20951,20971,20990,21011,21031,21051,21071,21091,21111,21131,21151,21171,21191,21211,21231,21251,21271,21291,21311,21330,21351,21371,21391,21412,21431,21451,21471,21491,21511,21532,21552,21571,21591,21611,21631,21651,21671,21691,21711,21731,21751,21771,21791,21811,21831,21851,21871,21891,21911,21931,21950,21971,21991,22011,22031,22051,22071,22091,22111,22131,22151,22172,22191,22211,22231,22251,22271,22292,22311,22332,22351,22371,22391,22411,22431,22451,22471,22492,22511,22531,22551,22571,22591,22610,22631,22651,22671,22691,22711,22731,22751,22771,22792,22811,22831,22851,22871,22891,22911,22931,22952,22971,22992,23011,23031,23052,23071,23092,23111,23131,23151,23171,23192,23211,23231,23251,23272,23292,23311,23331,23351,23371,23391,23411,23431,23451,23471,23491,23511,23531,23551,23572,23591,23611,23631,23651,23671,23691,23711,23731,23751,23771,23792,23811,23831,23851,23871,23891,23911,23932,23951,23971,23990,24012,24031,24051,24071,24092,24111,24131,24152,24172,24191,24211,24231,24251,24271,24291,24311,24331,24351,24371,24392,24411,24431,24451,24471,24492,24511,24532,24551,24571,24592,24611,24631,24651,24671,24692,24711,24732,24751,24771,24792,24811,24831,24851,24871,24891,24910,24931,24951,24971,24992,25012,25031,25051,25071,25091,25111,25132,25151,25171,25191,25211,25231,25251,25271,25291,25311,25331,25351,25371,25391,25411,25431,25455,25472,25496,25511,25530,25552,25572,25592,25611,25631,25652,25671,25691,25711,25731,25752,25770,25791,25811,25831,25851,25871,25891,25911,25931,25951,25971,25991,26012,26032,26052,26071,26091,26111,26132,26151,26171,26191,26212,26231,26251,26272,26292,26312,26331,26350,26371,26392,26411,26431,26451,26472,26491,26511,26531,26551,26571,26591,26611,26630,26651,26671,26691,26711,26731,26751,26771,26791,26812,26831,26852,26870,26891,26911,26930,26951,26971,26995,27011,27031,27051,27071,27092,27111,27131,27151,27170,27192,27211,27232,27251,27270,27292,27311,27331],"xSR":741.5,"ySR":469.95,"xT1":424.9,"yT1":0,"xT2":1058.1,"yT2":0,"toosoon":0,"cond_shown":"Congruent","ratio_trial":200,"L_num":3,"L_den":6,"R_num":14,"R_den":20,"correct_side":2,"subjID":"JuanDavidRativaBernal25","gender":"0","school":"6","age":"10"},{"start_time":1551899665785,"click_time":1551899668125,"finger_time":1551899667725,"fix_duration":1378.479035210016,"trial":2,"RT":1940,"MT":400,"sideResp":1,"stimulus":[],"xmouse":[774,774,774,774,774,774,774,774,774,774,774,774,774,774,774,774,774,774,774,774,774,774,774,774,774,774,774,774,774,774,774,774,774,774,774,774,774,774,774,774,774,774,774,774,774,774,774,774,774,774,774,774,774,774,774,774,774,774,774,774,774,774,774,774,774,774,774,774,774,774,774,774,774,774,774,774,774,774,774,774,774,774,774,774,774,774,774,774,774,774,774,774,774,774,774,754,728,712,699,696,691,682,643,576,439,415,401,394,392,392,388,385,384,384,384,404,425],"ymouse":[492,492,492,492,492,492,492,492,492,492,492,492,492,492,492,492,492,492,492,492,492,492,492,492,492,492,492,492,492,492,492,492,492,492,492,492,492,492,492,492,492,492,492,492,492,492,492,492,492,492,492,492,492,492,492,492,492,492,492,492,492,492,492,492,492,492,492,492,492,492,492,492,492,492,492,492,492,492,492,492,492,492,492,492,492,492,492,492,492,492,492,492,492,492,492,487,479,474,467,466,463,456,433,389,293,268,246,225,209,166,138,114,91,91,75,69,64],"timestamp_mouse":[12,20,40,82,100,119,140,159,181,200,220,241,260,280,300,320,341,361,380,400,420,440,460,480,500,521,540,560,580,601,620,641,660,680,701,720,740,760,781,800,820,841,860,880,900,920,940,961,980,1001,1021,1040,1060,1081,1100,1120,1140,1160,1181,1201,1221,1240,1260,1280,1300,1320,1340,1361,1380,1400,1420,1440,1460,1480,1501,1520,1540,1560,1580,1600,1620,1640,1660,1681,1700,1720,1740,1760,1780,1800,1820,1840,1860,1880,1900,1920,1940,1960,1980,2002,2020,2040,2061,2080,2100,2120,2141,2160,2180,2199,2220,2240,2263,2281,2300,2320,2340],"xSR":741.5,"ySR":469.95,"xT1":424.9,"yT1":0,"xT2":1058.1,"yT2":0,"toosoon":0,"cond_shown":"Incongruent","ratio_trial":300,"L_num":4,"L_den":5,"R_num":8,"R_den":16,"correct_side":1,"subjID":"JuanDavidRativaBernal25","gender":"0","school":"6","age":"10"},{"start_time":1551899669996,"click_time":1551899672406,"finger_time":1551899671884,"fix_duration":250,"trial":3,"RT":1888,"MT":522,"sideResp":1,"stimulus":[],"xmouse":[764,764,764,764,764,764,764,764,764,764,764,764,764,764,764,764,764,764,764,764,764,764,764,764,764,764,764,764,764,764,764,764,764,764,764,764,764,764,764,764,764,764,765,765,766,766,767,767,767,767,767,768,768,768,768,768,768,768,768,768,768,769,769,769,769,769,769,769,769,769,769,769,769,769,769,769,769,769,769,769,769,769,769,769,769,769,769,769,769,769,769,769,769,769,739,720,699,699,671,664,660,659,656,646,636,630,626,621,575,575,575,575,575,575,575,575,575,575,575,575,458],"ymouse":[525,525,525,525,525,525,525,525,525,525,525,525,525,525,525,525,525,525,525,525,525,525,525,525,525,525,525,525,525,525,525,525,525,525,525,525,525,525,525,525,525,525,524,524,524,524,523,523,522,522,522,522,522,522,522,522,522,522,522,522,522,522,522,522,522,522,522,522,522,522,522,522,522,522,522,522,522,522,522,522,522,522,522,522,522,522,522,522,522,522,522,522,522,519,507,498,489,489,470,440,403,351,295,210,148,126,109,88,3,3,3,3,3,3,3,3,3,3,3,3,5],"timestamp_mouse":[12,29,49,82,89,109,129,149,169,189,209,229,249,269,289,310,329,349,369,389,409,429,449,468,489,509,529,549,569,590,609,629,649,669,690,709,729,749,769,790,810,829,849,869,889,910,929,949,969,989,1012,1029,1049,1069,1090,1109,1129,1149,1169,1189,1209,1229,1249,1269,1289,1310,1330,1350,1369,1389,1409,1429,1449,1470,1489,1509,1528,1549,1569,1589,1609,1629,1649,1669,1689,1709,1729,1749,1769,1789,1809,1829,1849,1869,1888,1912,1933,1950,1969,1988,2013,2030,2049,2069,2089,2109,2129,2150,2169,2190,2209,2229,2250,2269,2289,2309,2329,2349,2369,2389,2410],"xSR":741.5,"ySR":469.95,"xT1":424.9,"yT1":0,"xT2":1058.1,"yT2":0,"toosoon":0,"cond_shown":"Incongruent","ratio_trial":100,"L_num":3,"L_den":5,"R_num":8,"R_den":16,"correct_side":1,"subjID":"JuanDavidRativaBernal25","gender":"0","school":"6","age":"10"},{"start_time":1551899674601,"click_time":1551899676326,"finger_time":1551899675946,"fix_duration":954.215939646681,"trial":4,"RT":1345,"MT":380,"sideResp":2,"stimulus":[],"xmouse":[830,830,830,830,830,830,830,830,830,830,830,830,830,830,830,830,830,830,830,830,830,830,830,830,830,830,830,830,830,830,830,830,830,830,830,830,830,830,830,830,830,830,830,830,830,830,830,830,830,830,830,830,830,830,831,827,826,826,826,826,826,826,826,826,828,829,830,835,849,918,941,959,967,967,993,1001,1008,1016,1021,1022,1022,1022,1022,1022,1022,1031,1072],"ymouse":[523,523,523,523,523,523,523,523,523,523,523,523,523,523,523,523,523,523,523,523,523,523,523,523,523,523,523,523,523,523,523,523,523,523,523,523,523,523,523,523,523,523,523,523,523,523,523,523,523,523,523,523,523,523,513,503,500,500,500,500,500,498,492,482,478,478,478,468,444,382,349,281,226,226,125,104,87,75,70,69,69,69,69,69,69,69,69],"timestamp_mouse":[12,25,53,65,84,103,125,144,165,184,205,224,244,264,284,304,324,345,364,384,404,424,444,465,484,504,524,544,564,584,605,624,644,664,684,704,724,743,765,784,804,825,844,864,884,904,924,943,964,984,1009,1023,1044,1064,1084,1104,1124,1145,1164,1184,1203,1224,1244,1264,1284,1305,1325,1345,1364,1384,1408,1431,1446,1464,1483,1503,1524,1545,1564,1583,1604,1624,1644,1664,1684,1704,1724],"xSR":741.5,"ySR":469.95,"xT1":424.9,"yT1":0,"xT2":1058.1,"yT2":0,"toosoon":0,"cond_shown":"Congruent","ratio_trial":200,"L_num":3,"L_den":12,"R_num":9,"R_den":20,"correct_side":2,"subjID":"JuanDavidRativaBernal25","gender":"0","school":"6","age":"10"},{"start_time":1551899679802,"click_time":1551899682226,"finger_time":1551899681665,"fix_duration":408.4945399422897,"trial":5,"RT":1863,"MT":561,"sideResp":2,"stimulus":[],"xmouse":[805,805,805,805,805,805,805,805,805,805,805,805,805,805,805,805,805,805,805,805,805,805,805,805,805,805,805,805,805,805,805,805,805,805,805,805,805,805,805,805,805,805,805,805,805,805,805,805,805,805,805,805,805,805,805,805,805,805,805,805,805,805,805,805,805,805,805,805,805,805,805,810,811,814,814,814,814,814,814,814,814,814,814,814,814,814,814,814,814,815,819,826,839,865,895,904,912,921,922,922,923,924,931,949,956,970,991,1008,1027,1033,1038,1046,1058,1070,1073,1075,1076,1080,1086,1098,1110],"ymouse":[533,533,533,533,533,533,533,533,533,533,533,533,533,533,533,533,533,533,533,533,533,533,533,533,533,533,533,533,533,533,533,533,533,533,533,533,533,533,533,533,533,533,533,533,533,533,533,533,533,533,533,533,533,533,533,533,533,533,533,533,533,533,533,533,533,533,533,533,533,533,531,524,522,520,518,518,518,518,518,518,518,518,518,518,518,518,518,518,518,510,500,487,468,436,389,370,354,334,330,327,325,323,317,307,299,289,277,262,228,209,187,168,141,119,116,114,113,109,106,100,95],"timestamp_mouse":[12,23,64,83,103,123,143,163,183,204,223,242,263,283,303,323,343,364,383,403,423,443,464,483,502,524,543,563,583,603,623,643,663,683,703,735,743,763,783,803,823,843,863,883,903,923,943,963,983,1008,1023,1043,1063,1083,1103,1123,1143,1163,1183,1203,1223,1243,1263,1283,1303,1323,1346,1363,1383,1403,1423,1443,1463,1483,1503,1523,1543,1564,1583,1603,1623,1643,1663,1683,1702,1723,1744,1763,1783,1803,1823,1843,1863,1883,1903,1923,1943,1963,1985,2004,2023,2043,2063,2083,2103,2123,2143,2162,2183,2203,2224,2243,2264,2284,2303,2324,2343,2364,2384,2403,2424],"xSR":741.5,"ySR":469.95,"xT1":424.9,"yT1":0,"xT2":1058.1,"yT2":0,"toosoon":0,"cond_shown":"Congruent","ratio_trial":200,"L_num":3,"L_den":10,"R_num":14,"R_den":28,"correct_side":2,"subjID":"JuanDavidRativaBernal25","gender":"0","school":"6","age":"10"},{"start_time":1551899684564,"click_time":1551899686105,"finger_time":1551899685905,"fix_duration":1297.21864257221,"trial":6,"RT":1341,"MT":200,"sideResp":2,"stimulus":[],"xmouse":[802,802,802,802,802,802,802,802,802,802,802,802,802,802,802,802,802,802,802,802,802,802,802,802,802,802,802,802,802,802,802,802,802,802,802,802,802,802,802,802,802,802,802,802,802,802,802,802,802,802,802,802,802,802,802,802,802,802,802,802,802,802,802,802,802,802,819,860,913,956,1025,1049,1065,1078,1086,1089,1096,1101],"ymouse":[544,544,544,544,544,544,544,544,544,544,544,544,544,544,544,544,544,544,544,544,544,544,544,544,544,544,544,544,544,544,544,544,544,544,544,544,544,544,544,544,544,544,544,544,544,544,544,544,544,544,544,544,544,544,544,544,544,544,544,544,544,544,544,544,544,544,523,446,369,307,182,140,121,113,111,110,104,99],"timestamp_mouse":[12,21,51,60,82,101,122,141,162,181,201,222,240,261,281,301,321,341,361,381,401,421,441,461,481,502,520,541,561,581,601,621,641,661,682,701,721,742,761,781,801,821,841,862,882,901,921,941,961,981,1008,1021,1041,1061,1081,1101,1122,1141,1161,1181,1202,1221,1241,1262,1281,1301,1321,1341,1361,1381,1401,1422,1441,1461,1482,1501,1520,1541],"xSR":741.5,"ySR":469.95,"xT1":424.9,"yT1":0,"xT2":1058.1,"yT2":0,"toosoon":0,"cond_shown":"Incongruent","ratio_trial":100,"L_num":11,"L_den":22,"R_num":9,"R_den":15,"correct_side":2,"subjID":"JuanDavidRativaBernal25","gender":"0","school":"6","age":"10"},{"start_time":1551899688500,"click_time":1551899689685,"finger_time":1551899688626,"fix_duration":753.7005714480845,"trial":7,"RT":126,"MT":1059,"sideResp":2,"stimulus":[],"xmouse":[802,802,802,802,802,802,814,825,825,829,829,829,829,829,829,829,829,829,829,829,829,831,833,835,837,837,837,837,837,837,837,837,837,837,837,837,837,837,837,837,837,840,865,907,1063,1127,1147,1149,1143,1140,1140,1138,1138,1138,1138,1138,1138,1138,1138,1138],"ymouse":[544,541,541,541,541,545,586,621,621,633,633,633,633,633,633,633,633,633,633,620,607,596,581,566,553,553,553,553,553,553,553,553,553,553,553,553,553,553,553,553,553,545,516,483,391,352,327,301,237,218,201,182,157,139,116,111,109,107,100,97],"timestamp_mouse":[6,25,61,65,85,105,126,146,165,186,205,225,246,265,285,305,326,345,365,385,405,425,445,465,484,505,525,545,565,585,605,625,645,665,685,705,725,745,766,785,805,826,846,864,885,905,925,945,965,985,1005,1024,1046,1066,1085,1106,1125,1144,1165,1185],"xSR":741.5,"ySR":469.95,"xT1":424.9,"yT1":0,"xT2":1058.1,"yT2":0,"toosoon":0,"cond_shown":"Incongruent","ratio_trial":300,"L_num":13,"L_den":26,"R_num":12,"R_den":15,"correct_side":2,"subjID":"JuanDavidRativaBernal25","gender":"0","school":"6","age":"10"},{"start_time":1551899692200,"click_time":1551899694464,"finger_time":1551899693885,"fix_duration":1274.7208207967915,"trial":8,"RT":1685,"MT":579,"sideResp":1,"stimulus":[],"xmouse":[760,760,760,760,760,760,760,760,760,760,760,760,760,760,760,760,760,760,760,760,760,760,760,760,760,760,760,760,760,760,760,760,760,760,760,760,760,760,760,760,760,760,760,760,760,760,760,760,760,760,760,760,760,760,760,760,760,760,760,760,760,760,760,760,760,760,760,760,760,760,760,760,760,760,760,760,760,760,760,760,760,760,759,734,714,689,668,652,632,613,608,603,600,593,586,578,565,541,541,541,541,541,541,541,541,541,541,541,541,541,541,535,504],"ymouse":[520,520,520,520,520,520,520,520,520,520,520,520,520,520,520,520,520,520,520,520,520,520,520,520,520,520,520,520,520,520,520,520,520,520,520,520,520,520,520,520,520,520,520,520,520,520,520,520,520,520,520,520,520,520,520,520,520,520,520,520,520,520,520,520,520,520,520,520,520,520,520,520,520,520,520,520,520,520,520,520,520,520,518,483,458,427,392,359,298,212,173,154,136,109,95,79,59,39,39,39,39,39,39,39,40,42,42,42,42,42,42,44,50],"timestamp_mouse":[12,48,65,85,104,124,144,164,184,205,224,245,265,285,305,324,345,365,385,404,424,445,464,485,505,525,544,564,585,604,625,646,665,684,704,725,745,765,785,804,825,845,865,885,905,924,945,964,984,1008,1024,1045,1066,1085,1104,1124,1146,1164,1185,1204,1226,1245,1265,1284,1304,1324,1344,1365,1384,1404,1424,1445,1465,1485,1505,1525,1544,1564,1584,1605,1625,1644,1665,1685,1707,1728,1745,1765,1785,1804,1824,1844,1864,1885,1905,1924,1945,1964,1984,2004,2024,2045,2065,2085,2105,2125,2145,2165,2185,2206,2224,2244,2264],"xSR":741.5,"ySR":469.95,"xT1":424.9,"yT1":0,"xT2":1058.1,"yT2":0,"toosoon":0,"cond_shown":"Incongruent","ratio_trial":300,"L_num":4,"L_den":20,"R_num":2,"R_den":4,"correct_side":2,"subjID":"JuanDavidRativaBernal25","gender":"0","school":"6","age":"10"},{"start_time":1551899697037,"click_time":1551899698806,"finger_time":1551899698465,"fix_duration":250,"trial":9,"RT":1428,"MT":341,"sideResp":1,"stimulus":[],"xmouse":[835,835,835,835,835,835,835,835,835,835,835,835,835,835,835,835,835,835,835,835,835,835,835,835,835,835,835,835,835,835,835,835,835,835,835,835,835,835,835,835,835,835,835,835,835,835,835,835,835,835,835,835,835,835,835,835,835,835,835,835,835,835,835,835,835,835,835,835,820,794,648,568,549,547,547,547,548,548,548,548,548,546,546,546,546,546,536,490],"ymouse":[540,540,540,540,540,540,540,540,540,540,540,540,540,540,540,540,540,540,540,540,540,540,540,540,540,540,540,540,540,540,540,540,540,540,540,540,540,540,540,540,540,540,540,540,540,540,540,540,540,540,540,540,540,540,540,540,540,540,540,540,540,540,540,540,540,540,540,540,531,516,425,343,305,285,265,243,195,147,93,38,13,0,0,0,0,0,0,13],"timestamp_mouse":[11,28,68,88,108,127,147,168,187,207,227,247,268,287,308,328,348,367,387,408,428,448,467,488,508,528,548,567,587,608,627,647,667,688,708,727,747,768,789,808,827,847,867,887,907,928,947,967,989,1008,1028,1048,1068,1088,1108,1128,1147,1167,1188,1208,1228,1248,1267,1287,1308,1328,1348,1369,1387,1407,1428,1453,1475,1492,1508,1528,1547,1567,1588,1608,1628,1648,1668,1688,1707,1727,1747,1769],"xSR":741.5,"ySR":469.95,"xT1":424.9,"yT1":0,"xT2":1058.1,"yT2":0,"toosoon":0,"cond_shown":"Congruent","ratio_trial":100,"L_num":10,"L_den":25,"R_num":3,"R_den":10,"correct_side":1,"subjID":"JuanDavidRativaBernal25","gender":"0","school":"6","age":"10"},{"start_time":1551899700397,"click_time":1551899702189,"finger_time":1551899701485,"fix_duration":531.5286522398318,"trial":10,"RT":1088,"MT":704,"sideResp":1,"stimulus":[],"xmouse":[777,777,777,777,777,777,777,777,777,777,777,777,777,777,777,777,777,777,777,777,777,777,777,777,777,777,777,777,777,777,777,774,770,770,770,770,770,770,770,770,770,770,770,770,770,770,770,770,770,770,770,770,770,750,715,657,597,547,531,536,539,540,541,541,543,543,543,543,532,531,531,531,531,530,525,520,518,517,517,516,516,515,515,515,514,513,510,507,503,500],"ymouse":[493,493,493,493,493,493,493,493,493,493,493,493,493,493,493,493,493,493,493,493,493,493,493,493,493,493,493,493,493,493,496,498,503,503,503,503,503,503,503,503,503,503,503,503,503,503,503,503,503,503,503,503,503,492,465,425,383,346,319,308,300,297,294,293,285,280,270,258,222,217,214,212,212,210,192,178,167,157,144,139,137,136,135,135,135,131,125,118,102,92],"timestamp_mouse":[8,28,48,68,88,108,128,148,168,188,208,227,247,267,287,307,327,348,367,387,407,428,447,467,487,507,527,548,567,588,607,628,647,668,688,709,728,748,768,787,807,827,847,867,887,907,927,947,967,987,1007,1027,1047,1068,1087,1109,1128,1148,1167,1187,1208,1228,1248,1268,1287,1308,1329,1348,1367,1388,1407,1427,1448,1467,1487,1508,1528,1548,1568,1588,1607,1628,1647,1667,1687,1707,1728,1748,1767,1791],"xSR":741.5,"ySR":469.95,"xT1":424.9,"yT1":0,"xT2":1058.1,"yT2":0,"toosoon":0,"cond_shown":"Incongruent","ratio_trial":300,"L_num":1,"L_den":2,"R_num":3,"R_den":15,"correct_side":1,"subjID":"JuanDavidRativaBernal25","gender":"0","school":"6","age":"10"},{"start_time":1551899704980,"click_time":1551899706845,"finger_time":1551899706365,"fix_duration":1174.739014315303,"trial":11,"RT":1385,"MT":480,"sideResp":2,"stimulus":[],"xmouse":[813,813,813,813,813,813,813,813,813,813,813,813,813,813,813,813,813,813,813,813,813,813,813,813,813,813,813,813,813,813,813,813,813,813,813,813,813,813,813,813,813,813,813,813,813,813,813,813,813,813,813,813,813,813,813,813,813,813,813,813,813,813,813,813,813,813,813,813,819,848,867,894,903,920,1018,1085,1139,1161,1168,1170,1170,1170,1171,1174,1180,1184,1184,1184,1184,1184,1184,1178,1159,1131],"ymouse":[529,529,529,529,529,529,529,529,529,529,529,529,529,529,529,529,529,529,529,529,529,529,529,529,529,529,529,529,529,529,529,529,529,529,529,529,529,529,529,529,529,529,529,529,529,529,529,529,529,529,529,529,529,529,529,529,529,529,529,529,529,529,529,529,529,529,529,528,509,460,428,383,367,338,224,168,121,99,89,87,87,87,85,81,70,60,60,60,60,60,59,59,59,59],"timestamp_mouse":[13,24,56,64,84,105,125,145,166,189,204,224,245,265,284,306,325,344,364,385,405,424,444,464,485,505,524,545,564,584,604,624,644,665,685,704,724,745,765,785,805,824,844,864,885,905,924,945,965,984,1008,1024,1044,1064,1084,1105,1125,1144,1164,1184,1204,1225,1244,1265,1285,1305,1325,1345,1365,1385,1409,1427,1444,1464,1484,1505,1524,1545,1565,1584,1605,1624,1644,1664,1684,1704,1726,1744,1765,1784,1804,1824,1845,1865],"xSR":741.5,"ySR":469.95,"xT1":424.9,"yT1":0,"xT2":1058.1,"yT2":0,"toosoon":0,"cond_shown":"Congruent","ratio_trial":200,"L_num":7,"L_den":15,"R_num":18,"R_den":27,"correct_side":2,"subjID":"JuanDavidRativaBernal25","gender":"0","school":"6","age":"10"},{"start_time":1551899708576,"click_time":1551899709564,"finger_time":1551899709384,"fix_duration":409.5212532119935,"trial":12,"RT":808,"MT":180,"sideResp":2,"stimulus":[],"xmouse":[814,814,814,814,814,814,814,814,814,814,814,814,814,814,814,814,814,814,814,814,814,814,814,814,814,814,814,814,814,814,814,814,814,814,814,814,814,814,814,814,827,851,907,907,1012,1053,1084,1105,1126,1142],"ymouse":[491,491,491,491,491,491,491,491,491,491,491,491,491,491,491,491,491,491,491,491,491,491,491,491,491,491,491,491,491,491,491,491,491,491,491,491,491,491,491,491,465,436,377,377,274,218,177,139,105,76],"timestamp_mouse":[12,28,61,69,88,109,129,149,168,188,208,228,248,269,289,308,328,348,370,389,408,428,448,470,489,509,529,548,569,589,609,629,648,669,689,708,728,748,769,789,808,829,851,870,888,908,928,948,968,988],"xSR":741.5,"ySR":469.95,"xT1":424.9,"yT1":0,"xT2":1058.1,"yT2":0,"toosoon":0,"cond_shown":"Congruent","ratio_trial":100,"L_num":6,"L_den":12,"R_num":15,"R_den":25,"correct_side":2,"subjID":"JuanDavidRativaBernal25","gender":"0","school":"6","age":"10"},{"start_time":1551899712797,"click_time":1551899714365,"finger_time":1551899713824,"fix_duration":1471.7519516406082,"trial":13,"RT":1027,"MT":541,"sideResp":2,"stimulus":[],"xmouse":[809,809,809,809,809,809,809,809,809,809,809,809,809,809,809,809,809,809,809,809,809,809,809,809,809,809,809,809,809,809,809,809,809,809,809,809,809,809,809,809,809,809,809,809,809,809,809,809,809,808,807,807,810,813,815,821,834,901,944,983,1010,1038,1058,1058,1058,1058,1058,1058,1058,1058,1058,1058,1058,1058,1058,1058,1058,1075],"ymouse":[480,480,480,480,480,480,480,480,480,480,480,480,480,480,480,480,480,480,480,480,480,480,480,480,480,480,480,480,480,480,480,480,480,480,480,480,480,480,480,480,480,480,480,480,480,480,480,480,480,479,457,450,426,406,398,385,364,279,217,155,100,54,6,6,6,6,6,6,6,6,6,6,6,6,6,6,6,8],"timestamp_mouse":[12,51,68,87,107,128,147,169,188,207,227,247,267,287,307,327,348,369,388,407,427,447,467,487,508,528,548,569,588,608,628,648,668,688,709,728,748,769,788,807,827,847,867,887,907,927,947,969,988,1008,1027,1047,1068,1087,1107,1127,1147,1168,1187,1207,1227,1247,1268,1288,1308,1327,1347,1368,1387,1407,1428,1448,1468,1489,1508,1529,1547,1567],"xSR":741.5,"ySR":469.95,"xT1":424.9,"yT1":0,"xT2":1058.1,"yT2":0,"toosoon":0,"cond_shown":"Congruent","ratio_trial":200,"L_num":3,"L_den":10,"R_num":7,"R_den":14,"correct_side":2,"subjID":"JuanDavidRativaBernal25","gender":"0","school":"6","age":"10"},{"start_time":1551899717885,"click_time":1551899719085,"finger_time":1551899718704,"fix_duration":979.7453465774967,"trial":14,"RT":819,"MT":381,"sideResp":2,"stimulus":[],"xmouse":[790,790,790,790,790,790,790,790,790,790,790,790,790,790,790,790,790,790,790,790,790,790,790,790,790,790,790,790,790,790,790,790,790,790,790,790,790,790,790,790,795,802,810,828,834,841,850,862,897,912,932,947,961,992,1011,1028,1041,1050,1056,1060],"ymouse":[473,473,473,473,473,473,473,473,473,473,473,473,473,473,473,473,473,473,473,473,473,473,473,473,473,473,473,473,473,473,473,473,473,473,473,473,473,473,473,473,457,442,424,381,358,332,307,282,228,207,178,157,137,100,79,65,54,45,38,38],"timestamp_mouse":[11,21,71,81,100,120,140,159,179,199,219,241,259,279,299,320,340,360,380,400,420,439,459,480,499,519,539,560,581,600,619,639,659,680,701,720,739,759,779,800,819,840,860,885,902,919,940,959,980,999,1020,1039,1059,1080,1099,1119,1139,1159,1179,1200],"xSR":741.5,"ySR":469.95,"xT1":424.9,"yT1":0,"xT2":1058.1,"yT2":0,"toosoon":0,"cond_shown":"Congruent","ratio_trial":200,"L_num":16,"L_den":20,"R_num":12,"R_den":20,"correct_side":1,"subjID":"JuanDavidRativaBernal25","gender":"0","school":"6","age":"10"},{"start_time":1551899721337,"click_time":1551899722445,"finger_time":1551899721825,"fix_duration":831.9866931295863,"trial":15,"RT":488,"MT":620,"sideResp":1,"stimulus":[],"xmouse":[786,786,786,786,786,786,786,786,786,786,786,786,786,786,786,786,786,786,786,786,786,786,786,786,774,739,719,698,692,690,690,687,686,684,681,677,673,670,664,652,632,571,563,556,552,550,544,544,544,544,544,544,544,543,525,481],"ymouse":[498,498,498,498,498,498,498,498,498,498,498,498,498,498,498,498,498,498,498,498,498,498,498,490,469,408,371,333,316,310,305,295,292,286,278,270,264,259,250,234,211,152,139,122,108,98,85,85,85,85,85,85,85,85,76,68],"timestamp_mouse":[12,27,52,68,88,109,127,148,168,188,208,227,247,267,288,308,327,347,367,387,408,428,448,467,488,507,527,551,567,589,608,629,648,668,687,707,727,748,767,789,808,827,848,867,888,907,928,948,967,988,1008,1027,1048,1068,1087,1108],"xSR":741.5,"ySR":469.95,"xT1":424.9,"yT1":0,"xT2":1058.1,"yT2":0,"toosoon":0,"cond_shown":"Incongruent","ratio_trial":100,"L_num":10,"L_den":25,"R_num":8,"R_den":16,"correct_side":2,"subjID":"JuanDavidRativaBernal25","gender":"0","school":"6","age":"10"},{"start_time":1551899725616,"click_time":1551899727745,"finger_time":1551899726484,"fix_duration":250,"trial":16,"RT":868,"MT":1261,"sideResp":2,"stimulus":[],"xmouse":[768,768,768,768,768,768,768,768,768,768,768,768,768,768,768,768,768,768,768,768,768,768,768,768,768,768,768,768,768,768,768,768,768,768,768,768,768,768,768,767,768,771,783,789,793,793,793,793,793,793,793,793,793,793,793,793,793,793,793,793,793,793,793,793,793,793,793,793,793,793,793,793,793,793,793,793,793,793,793,793,793,793,793,793,793,793,795,802,808,817,829,848,909,947,983,1026,1047,1074,1079,1085,1089,1092,1098,1099,1102,1106,1111],"ymouse":[514,514,514,514,514,514,514,514,514,514,514,514,514,514,514,514,514,514,514,514,514,514,514,514,514,514,514,514,514,514,514,514,514,514,514,514,514,514,514,509,504,498,474,466,460,459,459,459,459,459,459,459,459,459,459,459,459,459,459,459,459,459,459,459,459,459,459,459,459,459,459,459,459,459,459,459,459,459,459,459,459,459,459,459,459,459,452,429,411,389,362,328,254,220,196,175,164,150,146,142,139,136,129,122,112,102,93],"timestamp_mouse":[12,28,58,69,89,109,128,148,169,189,208,228,249,269,288,308,328,348,370,389,409,428,448,468,489,509,528,548,570,589,608,628,648,668,689,708,728,748,769,789,809,829,848,868,889,910,928,948,969,988,1008,1028,1049,1069,1088,1108,1128,1148,1169,1190,1209,1228,1249,1269,1289,1309,1329,1348,1369,1390,1409,1428,1448,1469,1489,1509,1528,1548,1569,1590,1609,1629,1649,1670,1689,1709,1729,1748,1768,1789,1808,1829,1849,1868,1888,1909,1928,1948,1968,1988,2009,2028,2048,2069,2088,2110,2129],"xSR":741.5,"ySR":469.95,"xT1":424.9,"yT1":0,"xT2":1058.1,"yT2":0,"toosoon":0,"cond_shown":"Congruent","ratio_trial":100,"L_num":2,"L_den":5,"R_num":11,"R_den":22,"correct_side":2,"subjID":"JuanDavidRativaBernal25","gender":"0","school":"6","age":"10"},{"start_time":1551899731138,"click_time":1551899733364,"finger_time":1551899732864,"fix_duration":250,"trial":17,"RT":1726,"MT":500,"sideResp":1,"stimulus":[],"xmouse":[777,777,777,777,777,777,777,777,777,777,777,777,777,777,777,777,777,777,777,777,777,777,777,777,777,777,777,777,777,777,777,777,777,777,777,777,777,777,777,777,777,777,777,777,777,777,777,777,777,777,777,777,777,777,777,777,777,777,777,777,777,777,777,777,777,777,777,777,777,777,777,777,777,777,777,777,777,777,777,777,777,777,777,777,772,733,720,706,706,690,671,651,619,593,578,565,562,561,560,559,550,543,541,539,539,539,536,523,514,508,502],"ymouse":[531,531,531,531,531,531,531,531,531,531,531,531,531,531,531,531,531,531,531,531,531,531,531,531,531,531,531,531,531,531,531,531,531,531,531,531,531,531,531,531,531,531,531,531,531,531,531,531,531,531,531,531,531,531,531,531,531,531,531,531,531,531,531,531,531,531,531,531,531,531,531,531,531,531,531,531,531,531,531,531,531,531,531,531,529,482,463,437,437,400,361,330,288,258,242,224,219,216,214,208,180,164,154,148,146,142,137,126,119,111,93],"timestamp_mouse":[12,27,74,86,106,126,146,167,187,206,226,247,268,286,306,326,347,367,387,406,426,446,467,487,507,528,546,566,587,606,626,646,667,687,707,727,747,767,787,807,826,848,867,887,906,927,947,966,987,1008,1026,1046,1067,1086,1106,1126,1146,1167,1187,1207,1227,1247,1267,1286,1307,1326,1348,1367,1386,1407,1426,1447,1467,1487,1507,1526,1546,1566,1586,1606,1626,1648,1666,1687,1706,1726,1751,1773,1787,1807,1827,1847,1868,1887,1907,1927,1947,1967,1986,2006,2028,2046,2067,2086,2106,2127,2146,2166,2186,2207,2226],"xSR":741.5,"ySR":469.95,"xT1":424.9,"yT1":0,"xT2":1058.1,"yT2":0,"toosoon":0,"cond_shown":"Incongruent","ratio_trial":100,"L_num":2,"L_den":4,"R_num":6,"R_den":15,"correct_side":1,"subjID":"JuanDavidRativaBernal25","gender":"0","school":"6","age":"10"},{"start_time":1551899734808,"click_time":1551899736325,"finger_time":1551899735745,"fix_duration":601.1933785932991,"trial":18,"RT":937,"MT":580,"sideResp":1,"stimulus":[],"xmouse":[812,812,812,812,812,812,812,812,812,812,812,812,812,812,812,812,812,812,812,812,812,812,812,812,812,812,812,812,812,812,812,812,812,812,812,812,812,812,812,812,812,812,812,812,806,757,698,660,660,660,660,657,654,649,631,612,588,581,578,576,572,554,544,536,533,530,525,523,521,519,511,503,499,494,489],"ymouse":[516,516,516,516,516,516,516,516,516,516,516,516,516,516,516,516,516,516,516,516,516,516,516,516,516,516,516,516,516,516,516,516,516,516,516,516,516,516,516,516,516,516,516,516,504,440,377,319,314,313,312,300,288,277,251,232,216,211,210,209,207,200,195,191,189,188,182,180,173,163,148,118,109,101,94],"timestamp_mouse":[52,56,76,96,118,137,156,177,196,217,238,256,276,297,317,337,356,377,396,416,436,456,476,497,516,536,556,576,597,616,637,658,677,697,717,736,757,776,797,818,836,856,877,897,917,937,957,976,997,1017,1036,1056,1076,1096,1117,1136,1156,1177,1197,1217,1236,1256,1277,1296,1317,1337,1358,1376,1396,1416,1436,1457,1476,1497,1517],"xSR":741.5,"ySR":469.95,"xT1":424.9,"yT1":0,"xT2":1058.1,"yT2":0,"toosoon":0,"cond_shown":"Incongruent","ratio_trial":300,"L_num":1,"L_den":2,"R_num":3,"R_den":15,"correct_side":1,"subjID":"JuanDavidRativaBernal25","gender":"0","school":"6","age":"10"},{"start_time":1551899741943,"click_time":1551899744584,"finger_time":1551899744164,"fix_duration":477.0964361400599,"trial":19,"RT":2221,"MT":420,"sideResp":1,"stimulus":[],"xmouse":[772,772,772,772,772,772,772,772,772,772,772,772,772,772,772,772,772,772,772,772,772,772,772,772,772,772,772,772,772,772,772,772,772,772,772,772,772,772,772,772,772,772,772,772,772,772,772,772,772,772,772,772,772,772,772,772,772,772,772,772,772,772,772,772,772,772,772,772,772,772,772,772,772,772,772,772,772,772,772,772,772,772,772,772,772,772,772,772,772,772,772,772,772,772,772,772,772,772,772,772,772,772,772,772,772,772,772,772,772,759,719,704,686,681,673,650,641,625,611,597,575,568,563,557,549,526,514,510,507,506,505,505],"ymouse":[500,500,500,500,500,500,500,500,500,500,500,500,500,500,500,500,500,500,500,500,500,500,500,500,500,500,500,500,500,500,500,500,500,500,500,500,500,500,500,500,500,500,500,500,500,500,500,500,500,500,500,500,500,500,500,500,500,500,500,500,500,500,500,500,500,500,500,500,500,500,500,500,500,500,500,500,500,500,500,500,500,500,500,500,500,500,500,500,500,500,500,500,500,500,500,500,500,500,500,500,500,500,500,500,500,500,500,500,500,495,471,458,441,435,420,386,371,337,312,288,249,235,223,209,193,160,143,134,126,123,109,90],"timestamp_mouse":[17,58,62,81,101,121,141,161,181,201,221,241,262,281,301,321,341,362,382,401,422,441,463,481,502,523,541,562,581,602,621,642,662,682,703,721,741,761,783,801,822,841,861,882,902,922,941,962,981,1008,1023,1041,1061,1081,1102,1121,1141,1161,1181,1201,1222,1241,1263,1282,1301,1321,1342,1361,1381,1402,1421,1441,1463,1483,1502,1521,1541,1561,1581,1602,1622,1642,1661,1681,1701,1721,1741,1762,1782,1802,1821,1841,1861,1881,1902,1921,1941,1961,1981,2001,2021,2042,2062,2081,2101,2122,2141,2162,2182,2202,2221,2244,2267,2283,2302,2322,2341,2362,2383,2401,2423,2441,2462,2482,2501,2521,2541,2561,2582,2602,2622,2641],"xSR":741.5,"ySR":469.95,"xT1":424.9,"yT1":0,"xT2":1058.1,"yT2":0,"toosoon":0,"cond_shown":"Incongruent","ratio_trial":100,"L_num":3,"L_den":5,"R_num":8,"R_den":16,"correct_side":1,"subjID":"JuanDavidRativaBernal25","gender":"0","school":"6","age":"10"},{"start_time":1551899747065,"click_time":1551899748885,"finger_time":1551899748605,"fix_duration":1359.578127822072,"trial":20,"RT":1540,"MT":280,"sideResp":1,"stimulus":[],"xmouse":[791,791,791,791,791,791,791,791,791,791,791,791,791,791,791,791,791,791,791,791,791,791,791,791,791,791,791,791,791,791,791,791,791,791,791,791,791,791,791,791,791,791,791,791,791,791,791,791,791,791,791,791,791,791,791,791,791,791,791,791,791,791,791,791,791,791,791,791,791,791,791,791,791,791,791,791,791,774,723,642,623,589,588,588,588,587,580,572,565,560,533,510],"ymouse":[524,524,524,524,524,524,524,524,524,524,524,524,524,524,524,524,524,524,524,524,524,524,524,524,524,524,524,524,524,524,524,524,524,524,524,524,524,524,524,524,524,524,524,524,524,524,524,524,524,524,524,524,524,524,524,524,524,524,524,524,524,524,524,524,524,524,524,524,524,524,524,524,524,524,524,524,517,430,324,202,175,123,122,122,122,119,110,103,99,96,89,83],"timestamp_mouse":[7,19,56,59,79,99,119,140,159,180,201,219,239,260,279,299,320,340,360,379,399,420,439,460,480,500,519,539,560,580,599,619,640,660,680,699,719,740,759,779,800,819,839,860,880,900,920,940,959,979,999,1019,1040,1061,1079,1099,1119,1139,1160,1180,1200,1219,1240,1260,1279,1301,1320,1340,1359,1379,1399,1419,1439,1460,1481,1500,1519,1540,1559,1579,1599,1620,1639,1660,1681,1700,1720,1739,1759,1780,1799,1820],"xSR":741.5,"ySR":469.95,"xT1":424.9,"yT1":0,"xT2":1058.1,"yT2":0,"toosoon":0,"cond_shown":"Incongruent","ratio_trial":100,"L_num":9,"L_den":15,"R_num":14,"R_den":28,"correct_side":1,"subjID":"JuanDavidRativaBernal25","gender":"0","school":"6","age":"10"},{"start_time":1551899750216,"click_time":1551899764344,"finger_time":1551899756624,"fix_duration":250,"trial":21,"RT":6408,"MT":7720,"sideResp":1,"stimulus":[],"xmouse":[811,811,811,811,811,811,811,811,811,811,811,811,811,811,811,811,811,811,811,811,811,811,811,811,811,811,811,811,811,811,811,811,811,811,811,811,811,811,811,811,811,811,811,811,811,811,811,811,811,811,811,811,811,811,811,811,811,811,811,811,811,811,811,811,811,811,811,811,811,811,811,811,811,811,811,811,811,811,811,810,812,815,816,816,816,816,816,816,816,816,816,816,816,816,816,816,816,816,816,816,816,816,816,816,816,816,816,816,816,816,816,816,816,816,816,816,816,816,816,816,816,816,816,816,816,816,816,816,816,816,816,816,816,816,816,816,816,816,816,816,816,816,816,816,816,816,816,816,816,816,816,816,816,816,816,816,816,816,816,816,816,816,816,816,816,816,816,816,816,816,816,816,816,816,816,816,816,816,816,816,816,816,816,816,816,816,816,816,816,816,816,816,816,816,816,816,816,816,816,816,816,816,816,816,816,816,816,816,816,816,816,816,816,816,816,816,816,816,816,816,816,816,816,816,816,816,816,816,816,816,816,816,816,816,816,816,816,816,816,816,816,816,816,816,816,816,816,816,812,809,809,809,809,809,809,809,809,809,809,809,809,809,809,809,809,809,809,809,809,809,809,809,809,809,809,809,809,809,809,809,809,809,809,809,809,809,808,808,808,807,806,805,804,804,804,804,804,804,804,804,804,804,804,804,804,804,804,804,803,801,793,785,782,780,778,775,767,758,750,742,735,735,707,684,681,681,681,681,681,681,681,681,681,681,681,682,688,690,693,699,714,725,743,758,772,788,810,821,831,836,840,840,840,840,840,840,838,808,752,690,636,597,596,596,596,596,596,600,605,609,615,631,638,643,648,656,679,692,706,719,741,784,798,802,803,803,803,803,803,804,804,815,824,834,843,852,857,859,861,863,866,871,875,881,893,899,913,922,929,933,936,937,937,937,937,937,937,937,937,937,937,937,937,937,937,937,937,936,936,936,903,840,786,753,725,721,721,721,721,721,715,692,676,659,639,621,612,611,610,610,609,609,609,609,609,609,630,652,696,756,805,898,929,956,988,1004,1014,1014,1014,1014,1014,1014,1013,989,947,892,802,785,770,749,718,639,618,608,605,604,604,604,604,604,604,604,615,645,694,808,968,1024,1045,1054,1054,1054,1054,1054,1054,1054,1042,1008,953,888,830,694,620,567,555,555,555,555,555,555,555,555,564,581,610,635,671,696,731,760,775,782,784,786,788,790,790,790,790,782,724,589,547,526,519,519,519,519,519,519,519,519,519,525,549,588,701,736,752,756,756,756,756,756,756,756,756,756,756,756,756,723,642,566,534,534,534,534,534,534,534,534,534,534,534,534,534,534,534,534,552,704,772,818,818,834,834,834,835,835,835,835,835,835,835,835,815,756,669,590,557,548,548,548,548,548,548,548,548,548,548,548,552,563,626,658,824,857,866,866,866,866,866,866,866,866,866,866,866,866,866,850,761,612,545,532,517,517,517,517,517,517,517,517,517,517,517,545,612,696,786,907,916,916,916,916,916,916,916,916,916,916,916,916,916,916,916,916,917,899,815,639,593,576,576,576,548,545,545,545,544,544,544,544,544,544,542,539,535,532,531,529,528,528,527,523],"ymouse":[488,488,488,488,488,488,488,488,488,488,488,488,488,488,488,488,488,488,488,488,488,488,488,488,488,488,488,488,488,488,488,488,488,488,488,488,488,488,488,488,488,488,488,488,488,488,488,488,488,488,488,488,488,488,488,488,488,488,488,488,488,488,488,488,488,488,488,488,488,488,488,488,488,488,488,488,488,488,488,486,482,476,474,472,472,472,472,472,472,472,472,472,472,472,472,472,472,472,472,472,472,472,472,472,472,472,472,472,472,472,472,472,472,472,472,472,472,472,472,472,472,472,472,472,472,472,472,472,472,472,472,472,472,472,472,472,472,472,472,472,472,472,472,472,472,472,472,472,472,472,472,472,472,472,472,472,472,472,472,472,472,472,472,472,472,472,472,472,472,472,472,472,472,472,472,472,472,472,472,472,472,472,472,472,472,472,472,472,472,472,472,472,472,472,472,472,472,472,472,472,472,472,472,472,472,472,472,472,472,472,472,472,472,472,472,472,472,472,472,472,472,472,472,472,472,472,472,472,472,472,472,472,472,472,472,472,472,472,472,472,472,472,472,472,472,472,472,472,474,476,476,476,476,476,476,476,476,476,476,476,476,476,476,476,476,476,476,476,476,476,476,476,476,476,476,476,476,476,476,476,476,476,476,476,476,476,476,476,480,485,489,496,497,497,497,497,498,500,501,501,501,501,501,501,501,501,501,501,501,501,501,501,500,499,496,492,483,477,471,467,462,462,453,442,441,441,441,441,441,441,441,441,441,441,440,440,440,440,441,442,448,452,457,461,465,468,471,473,474,474,474,474,474,474,474,474,467,433,384,329,284,246,243,243,243,243,242,244,244,247,251,259,263,266,269,271,276,280,284,288,292,298,300,301,301,301,301,301,301,301,301,300,298,294,292,289,285,283,282,280,279,275,271,268,262,259,249,242,232,226,219,217,217,217,217,217,217,217,217,217,217,217,217,217,217,217,216,216,216,216,217,217,217,217,217,217,217,217,217,217,217,217,217,217,217,216,213,211,208,207,205,204,204,204,204,204,192,186,174,160,152,145,145,145,153,159,163,163,163,163,163,163,163,163,163,163,163,163,165,170,173,188,195,200,202,202,202,202,202,202,202,202,202,202,202,202,202,205,211,215,215,215,215,215,215,215,215,211,203,195,192,192,201,214,218,218,218,218,218,218,218,218,220,222,227,236,244,247,252,257,259,262,264,266,270,273,273,273,274,274,274,274,274,275,277,277,277,277,277,277,277,277,277,278,281,286,299,301,304,304,304,304,304,304,304,304,304,304,304,304,304,304,304,304,304,304,304,304,304,304,304,304,304,304,304,304,304,304,304,304,304,304,306,307,307,308,308,308,308,308,308,308,308,308,308,309,308,296,283,273,271,271,273,273,273,273,273,273,273,273,273,273,273,273,281,286,296,296,296,296,296,296,296,296,296,296,296,296,296,296,296,297,285,258,242,239,234,234,234,234,234,234,234,234,234,234,234,234,242,253,266,283,285,285,285,285,285,285,285,285,285,285,285,285,285,285,285,285,285,278,221,62,19,5,5,5,2,4,5,5,5,5,5,6,7,11,19,23,27,30,31,34,34,35,36,39],"timestamp_mouse":[15,49,70,88,108,128,148,168,188,209,228,248,269,289,309,328,348,369,389,408,430,448,468,490,509,528,547,568,589,608,628,647,668,688,708,728,747,767,788,808,828,848,867,888,908,928,948,968,988,1007,1028,1047,1068,1088,1108,1127,1148,1168,1187,1207,1228,1247,1267,1289,1308,1328,1347,1368,1388,1408,1428,1447,1468,1488,1507,1527,1548,1568,1588,1607,1628,1648,1668,1688,1708,1728,1747,1768,1788,1808,1828,1847,1868,1888,1908,1928,1948,1967,1989,2008,2027,2048,2068,2088,2108,2128,2149,2168,2187,2207,2228,2248,2268,2288,2308,2329,2348,2368,2387,2408,2429,2448,2468,2488,2508,2529,2548,2568,2588,2608,2628,2648,2668,2687,2708,2728,2747,2767,2788,2808,2828,2847,2868,2888,2908,2928,2947,2968,2988,3007,3028,3047,3068,3088,3108,3128,3149,3167,3188,3208,3229,3248,3268,3287,3308,3328,3348,3368,3388,3408,3428,3448,3468,3488,3508,3527,3547,3567,3588,3608,3628,3648,3667,3687,3707,3728,3747,3769,3788,3808,3829,3849,3869,3888,3908,3929,3948,3967,3987,4008,4027,4047,4069,4087,4108,4128,4148,4167,4187,4208,4228,4248,4268,4288,4308,4329,4357,4368,4388,4408,4428,4447,4468,4488,4507,4527,4548,4568,4588,4608,4627,4648,4669,4688,4707,4729,4748,4767,4789,4807,4828,4847,4869,4888,4907,4927,4948,4969,4988,5008,5028,5049,5067,5088,5108,5127,5148,5168,5187,5208,5228,5247,5267,5288,5308,5328,5349,5368,5388,5408,5427,5449,5467,5488,5508,5528,5547,5567,5587,5608,5628,5649,5668,5687,5707,5728,5749,5768,5788,5808,5828,5848,5869,5888,5907,5928,5949,5969,5987,6008,6028,6047,6067,6087,6108,6127,6149,6168,6188,6208,6228,6248,6269,6288,6307,6328,6347,6368,6388,6408,6428,6448,6468,6492,6508,6528,6548,6568,6588,6608,6628,6649,6668,6688,6709,6728,6748,6768,6789,6809,6828,6850,6868,6887,6907,6927,6948,6968,6987,7008,7028,7048,7067,7088,7108,7127,7148,7171,7189,7208,7227,7248,7269,7288,7308,7328,7348,7367,7387,7408,7428,7448,7468,7487,7508,7528,7547,7567,7589,7608,7628,7648,7668,7688,7708,7729,7748,7768,7788,7808,7827,7847,7868,7888,7909,7928,7948,7968,7987,8007,8027,8048,8069,8087,8108,8128,8149,8168,8188,8208,8228,8251,8268,8288,8308,8328,8348,8368,8387,8409,8428,8447,8469,8488,8509,8528,8548,8568,8588,8607,8629,8651,8667,8687,8708,8729,8748,8768,8788,8808,8828,8848,8868,8888,8907,8927,8947,8967,8988,9007,9027,9047,9067,9088,9109,9127,9147,9167,9189,9208,9229,9248,9268,9288,9308,9328,9348,9368,9388,9408,9428,9448,9468,9488,9508,9528,9548,9567,9588,9608,9627,9647,9667,9688,9708,9728,9748,9768,9788,9808,9828,9848,9868,9888,9908,9928,9948,9968,9988,10007,10028,10049,10068,10087,10107,10128,10149,10168,10188,10207,10228,10248,10268,10288,10308,10329,10348,10369,10388,10408,10428,10448,10468,10488,10508,10528,10548,10568,10587,10607,10627,10648,10668,10688,10709,10728,10748,10767,10787,10808,10828,10849,10868,10888,10907,10928,10949,10968,10988,11008,11027,11049,11067,11087,11108,11128,11148,11168,11188,11208,11228,11249,11268,11288,11308,11328,11349,11368,11387,11408,11428,11448,11469,11489,11508,11528,11548,11568,11587,11608,11628,11647,11667,11687,11707,11728,11749,11767,11787,11808,11828,11849,11868,11890,11909,11928,11948,11967,11988,12009,12028,12049,12068,12088,12108,12127,12147,12167,12187,12208,12228,12249,12268,12288,12309,12329,12347,12367,12389,12409,12428,12447,12467,12487,12509,12528,12549,12567,12587,12608,12628,12648,12668,12688,12708,12729,12749,12768,12788,12809,12829,12849,12870,12889,12909,12927,12949,12968,12988,13007,13028,13047,13067,13088,13108,13128,13149,13167,13187,13207,13227,13247,13269,13288,13308,13327,13348,13368,13387,13408,13428,13448,13468,13489,13508,13528,13549,13568,13588,13608,13628,13648,13668,13689,13707,13728,13749,13768,13787,13807,13827,13848,13868,13888,13908,13928,13948,13968,13988,14007,14028,14049,14068,14088,14108,14128],"xSR":741.5,"ySR":469.95,"xT1":424.9,"yT1":0,"xT2":1058.1,"yT2":0,"toosoon":0,"cond_shown":"Incongruent","ratio_trial":100,"L_num":3,"L_den":9,"R_num":7,"R_den":30,"correct_side":1,"subjID":"JuanDavidRativaBernal25","gender":"0","school":"6","age":"10"},{"start_time":1551899767228,"click_time":1551899769084,"finger_time":1551899768644,"fix_duration":1323.9351822689773,"trial":22,"RT":1416,"MT":440,"sideResp":2,"stimulus":[],"xmouse":[799,799,799,799,799,799,799,799,799,799,799,799,799,799,799,799,799,799,799,799,799,799,799,799,799,799,799,799,799,799,799,799,799,799,799,799,799,799,799,799,799,799,799,799,799,799,799,799,799,799,799,799,799,799,799,799,799,799,799,799,799,799,799,799,799,803,810,818,829,836,842,852,890,923,956,997,1004,1007,1008,1010,1013,1016,1020,1024,1024,1026,1029,1033,1039,1044,1072,1102],"ymouse":[542,542,542,542,542,542,542,542,542,542,542,542,542,542,542,542,542,542,542,542,542,542,542,542,542,542,542,542,542,542,542,542,542,542,542,542,542,542,542,542,542,542,542,542,542,542,542,542,542,542,542,542,542,542,542,542,542,542,542,542,542,542,542,542,542,529,514,499,479,462,443,411,362,337,317,289,281,269,259,250,232,225,215,201,196,190,186,180,172,163,100,42],"timestamp_mouse":[15,59,76,95,115,137,156,177,195,216,236,255,275,295,316,336,355,376,395,415,437,456,475,496,516,536,555,576,596,615,635,656,676,697,715,736,756,776,795,815,835,855,877,896,916,936,955,977,997,1016,1035,1056,1076,1096,1116,1136,1155,1175,1196,1216,1235,1256,1276,1295,1317,1336,1356,1376,1396,1416,1436,1456,1475,1496,1516,1536,1556,1577,1596,1616,1636,1656,1675,1695,1716,1736,1755,1775,1795,1815,1835,1855],"xSR":741.5,"ySR":469.95,"xT1":424.9,"yT1":0,"xT2":1058.1,"yT2":0,"toosoon":0,"cond_shown":"Incongruent","ratio_trial":300,"L_num":13,"L_den":26,"R_num":12,"R_den":15,"correct_side":2,"subjID":"JuanDavidRativaBernal25","gender":"0","school":"6","age":"10"},{"start_time":1551899770560,"click_time":1551899772563,"finger_time":1551899771964,"fix_duration":434.5519347656651,"trial":23,"RT":1404,"MT":599,"sideResp":2,"stimulus":[],"xmouse":[799,799,799,799,799,799,799,799,799,799,799,799,799,799,799,799,799,799,799,799,799,799,799,799,799,799,799,799,799,799,799,799,799,799,799,799,799,799,799,799,799,799,799,799,799,799,799,799,799,799,799,799,799,799,799,799,799,799,799,799,799,799,799,799,799,799,799,800,809,822,837,863,897,938,994,1006,1012,1014,1016,1023,1027,1032,1038,1053,1059,1063,1068,1070,1080,1082,1083,1083,1084,1084,1084,1084,1084,1085,1085,1086],"ymouse":[513,513,513,513,513,513,513,513,513,513,513,513,513,513,513,513,513,513,513,513,513,513,513,513,513,513,513,513,513,513,513,513,513,513,513,513,513,513,513,513,513,513,513,513,513,513,513,513,513,513,513,513,513,513,513,513,513,513,513,513,513,513,513,513,513,513,511,506,477,449,424,395,366,339,302,291,283,276,270,246,233,219,203,179,167,157,147,138,114,108,105,105,104,104,104,104,104,102,102,99],"timestamp_mouse":[14,52,64,84,104,124,144,165,183,204,224,243,265,285,305,323,343,364,385,403,424,444,464,483,503,524,544,565,584,605,624,644,665,684,704,725,744,765,784,804,823,845,864,884,905,924,945,965,984,1008,1025,1044,1063,1084,1104,1123,1144,1164,1184,1204,1223,1244,1264,1284,1304,1324,1344,1364,1384,1404,1426,1447,1464,1483,1509,1525,1544,1563,1584,1604,1623,1643,1664,1683,1704,1724,1744,1764,1783,1804,1824,1845,1864,1884,1905,1924,1944,1964,1984,2003],"xSR":741.5,"ySR":469.95,"xT1":424.9,"yT1":0,"xT2":1058.1,"yT2":0,"toosoon":0,"cond_shown":"Congruent","ratio_trial":200,"L_num":3,"L_den":10,"R_num":14,"R_den":28,"correct_side":2,"subjID":"JuanDavidRativaBernal25","gender":"0","school":"6","age":"10"},{"start_time":1551899773843,"click_time":1551899775124,"finger_time":1551899774984,"fix_duration":458.75428260840437,"trial":24,"RT":1141,"MT":140,"sideResp":2,"stimulus":[],"xmouse":[828,828,828,828,828,828,828,828,828,828,828,828,828,828,828,828,828,828,828,828,828,828,828,828,828,828,828,828,828,828,828,828,828,828,828,828,828,828,828,828,828,828,828,828,828,828,828,828,828,828,828,829,829,829,831,841,848,858,871,922,957,996,1034,1066],"ymouse":[527,527,527,527,527,527,527,527,527,527,527,527,527,527,527,527,527,527,527,527,527,527,527,527,527,527,527,527,527,527,527,527,527,527,527,527,527,527,527,527,527,527,527,527,527,527,527,527,527,527,527,525,520,519,513,479,460,436,411,330,278,219,152,84],"timestamp_mouse":[14,21,61,82,101,122,141,162,180,200,220,241,262,280,301,320,341,360,380,400,421,441,460,481,501,521,540,561,581,601,620,640,661,682,701,720,740,762,781,800,821,841,861,881,901,921,941,961,981,1008,1021,1041,1061,1080,1100,1121,1141,1162,1181,1201,1222,1241,1262,1281],"xSR":741.5,"ySR":469.95,"xT1":424.9,"yT1":0,"xT2":1058.1,"yT2":0,"toosoon":0,"cond_shown":"Incongruent","ratio_trial":300,"L_num":4,"L_den":20,"R_num":2,"R_den":4,"correct_side":2,"subjID":"JuanDavidRativaBernal25","gender":"0","school":"6","age":"10"},{"start_time":1551899778254,"click_time":1551899781184,"finger_time":1551899780485,"fix_duration":767.7696125746601,"trial":25,"RT":2231,"MT":699,"sideResp":2,"stimulus":[],"xmouse":[777,777,777,777,777,777,777,777,777,777,777,777,777,777,777,777,777,777,777,777,777,777,777,777,777,777,777,777,777,777,777,777,777,777,777,777,777,777,777,777,777,777,777,777,777,777,777,777,777,777,777,777,777,777,777,777,777,777,777,777,777,777,777,777,777,777,777,777,777,777,777,777,777,777,777,777,777,777,777,777,777,777,777,777,777,777,777,777,777,777,777,777,777,777,777,777,777,777,777,777,777,777,777,777,777,777,781,785,798,810,828,852,887,898,941,997,1015,1030,1041,1057,1063,1066,1067,1068,1071,1073,1076,1079,1088,1093,1099,1103,1106,1109,1114,1115,1116,1117,1118,1118,1119,1121,1122,1124,1126,1126],"ymouse":[541,541,541,541,541,541,541,541,541,541,541,541,541,541,541,541,541,541,541,541,541,541,541,541,541,541,541,541,541,541,541,541,541,541,541,541,541,541,541,541,541,541,541,541,541,541,541,541,541,541,541,541,541,541,541,541,541,541,541,541,541,541,541,541,541,541,541,541,541,541,541,541,541,541,541,541,541,541,541,541,541,541,541,541,541,541,541,541,541,541,541,541,541,541,541,541,541,541,541,541,541,541,541,541,541,541,535,525,495,474,445,412,364,352,312,271,257,244,228,191,177,171,170,169,163,157,153,149,141,138,134,132,131,128,125,124,123,122,121,120,115,112,108,103,100,99],"timestamp_mouse":[12,60,71,89,110,130,149,169,190,210,229,250,270,290,310,329,350,370,391,411,430,451,470,490,510,530,550,571,590,610,630,650,670,690,710,729,751,770,790,810,830,850,869,890,909,930,950,970,990,1009,1030,1050,1070,1089,1109,1130,1150,1170,1190,1211,1230,1249,1270,1290,1309,1330,1351,1370,1390,1409,1429,1450,1469,1490,1510,1529,1549,1569,1589,1609,1629,1650,1669,1689,1709,1729,1750,1770,1789,1810,1830,1851,1870,1890,1910,1931,1949,1970,1990,2010,2030,2050,2071,2091,2110,2131,2149,2170,2190,2210,2231,2249,2271,2290,2309,2329,2349,2369,2389,2410,2430,2451,2470,2490,2510,2529,2550,2570,2590,2609,2629,2650,2670,2690,2710,2729,2749,2770,2789,2809,2829,2851,2870,2890,2910,2930],"xSR":741.5,"ySR":469.95,"xT1":424.9,"yT1":0,"xT2":1058.1,"yT2":0,"toosoon":0,"cond_shown":"Incongruent","ratio_trial":200,"L_num":6,"L_den":20,"R_num":3,"R_den":6,"correct_side":2,"subjID":"JuanDavidRativaBernal25","gender":"0","school":"6","age":"10"},{"start_time":1551899783474,"click_time":1551899785244,"finger_time":1551899785124,"fix_duration":1167.68582068902,"trial":26,"RT":1650,"MT":120,"sideResp":1,"stimulus":[],"xmouse":[799,799,799,799,799,799,799,799,799,799,799,799,799,799,799,799,799,799,799,799,799,799,799,799,799,799,799,799,799,799,799,799,799,799,799,799,799,799,799,799,799,799,799,799,799,799,799,799,799,799,799,799,799,799,799,799,799,799,799,799,799,799,799,799,799,799,799,799,799,799,799,799,799,799,799,799,799,799,799,799,799,786,752,668,476,447,442,443,458],"ymouse":[506,506,506,506,506,506,506,506,506,506,506,506,506,506,506,506,506,506,506,506,506,506,506,506,506,506,506,506,506,506,506,506,506,506,506,506,506,506,506,506,506,506,506,506,506,506,506,506,506,506,506,506,506,506,506,506,506,506,506,506,506,506,506,506,506,506,506,506,506,506,506,506,506,506,506,506,506,506,506,506,506,492,450,368,195,144,125,114,96],"timestamp_mouse":[13,48,49,71,89,110,131,149,170,189,209,230,249,269,290,309,331,350,370,389,410,430,450,470,489,509,530,550,569,589,610,630,650,669,689,710,731,749,771,789,810,830,850,870,890,910,929,950,970,990,1010,1030,1050,1069,1090,1110,1130,1150,1170,1190,1210,1230,1249,1270,1290,1310,1330,1350,1370,1391,1411,1430,1449,1470,1490,1509,1530,1550,1570,1591,1610,1629,1650,1670,1691,1711,1735,1752,1770],"xSR":741.5,"ySR":469.95,"xT1":424.9,"yT1":0,"xT2":1058.1,"yT2":0,"toosoon":0,"cond_shown":"Congruent","ratio_trial":100,"L_num":3,"L_den":6,"R_num":2,"R_den":5,"correct_side":1,"subjID":"JuanDavidRativaBernal25","gender":"0","school":"6","age":"10"},{"start_time":1551899788342,"click_time":1551899790424,"finger_time":1551899789963,"fix_duration":256.75000942388004,"trial":27,"RT":1621,"MT":461,"sideResp":2,"stimulus":[],"xmouse":[787,787,787,787,787,787,787,787,787,787,787,787,787,787,787,787,787,787,787,787,787,787,787,787,787,787,787,787,787,787,787,787,787,787,787,787,787,787,787,787,787,787,787,787,787,787,787,787,787,787,787,787,787,787,787,787,787,787,787,787,787,787,787,787,787,787,787,787,787,787,787,787,787,787,787,787,787,787,787,786,795,807,818,833,854,891,907,919,932,941,949,974,991,1007,1020,1031,1040,1041,1041,1041,1041,1041,1043,1050,1062],"ymouse":[513,513,513,513,513,513,513,513,513,513,513,513,513,513,513,513,513,513,513,513,513,513,513,513,513,513,513,513,513,513,513,513,513,513,513,513,513,513,513,513,513,513,513,513,513,513,513,513,513,513,513,513,513,513,513,513,513,513,513,513,513,513,513,513,513,513,513,513,513,513,513,513,513,513,513,513,513,513,513,510,486,460,439,411,376,313,287,264,247,233,224,199,184,166,145,123,99,97,97,97,97,97,88,83,78],"timestamp_mouse":[14,39,41,62,83,102,121,142,162,181,201,221,243,262,281,303,322,342,362,381,402,423,443,462,482,502,522,542,561,582,603,621,642,662,683,701,722,742,762,782,803,822,842,862,881,903,922,941,962,982,1008,1022,1041,1062,1082,1102,1121,1141,1162,1182,1203,1223,1241,1261,1282,1303,1321,1342,1361,1382,1403,1423,1441,1462,1482,1501,1521,1542,1562,1582,1601,1621,1645,1662,1681,1702,1722,1742,1762,1783,1802,1823,1842,1862,1881,1901,1921,1941,1961,1982,2002,2022,2041,2062,2082],"xSR":741.5,"ySR":469.95,"xT1":424.9,"yT1":0,"xT2":1058.1,"yT2":0,"toosoon":0,"cond_shown":"Congruent","ratio_trial":200,"L_num":3,"L_den":12,"R_num":9,"R_den":20,"correct_side":2,"subjID":"JuanDavidRativaBernal25","gender":"0","school":"6","age":"10"},{"start_time":1551899792685,"click_time":1551899794524,"finger_time":1551899793924,"fix_duration":1141.7228765920481,"trial":28,"RT":1239,"MT":600,"sideResp":2,"stimulus":[],"xmouse":[785,785,785,785,785,785,785,785,785,785,785,785,785,785,785,785,785,785,785,785,785,785,785,785,785,785,785,785,785,785,785,785,785,785,785,785,785,785,785,785,785,785,785,785,785,785,785,785,785,785,786,786,786,786,786,787,787,789,793,804,827,857,871,871,871,871,872,889,934,953,960,961,947,940,939,951,985,1070,1079,1081,1084,1094,1105,1122,1124,1126,1127,1127,1127,1127,1127,1127],"ymouse":[504,504,504,504,504,504,504,504,504,504,504,504,504,504,504,504,504,504,504,504,504,504,504,504,504,504,504,504,504,504,504,504,504,504,504,504,504,504,504,504,504,504,504,504,504,504,504,504,504,504,499,499,499,499,499,499,499,498,497,498,500,500,500,500,500,500,500,479,393,352,328,312,284,258,235,213,188,154,147,142,140,138,137,136,135,133,130,119,114,108,100,94],"timestamp_mouse":[19,48,59,79,99,120,139,159,179,200,219,238,259,278,298,318,339,359,379,398,418,439,459,478,499,519,540,559,579,599,619,639,659,679,699,719,738,759,779,800,819,838,859,879,898,918,939,959,979,999,1019,1039,1058,1080,1099,1119,1138,1159,1178,1199,1219,1239,1259,1279,1299,1318,1339,1359,1379,1399,1420,1439,1459,1479,1498,1518,1538,1559,1580,1599,1618,1639,1659,1679,1699,1719,1739,1759,1778,1798,1818,1839],"xSR":741.5,"ySR":469.95,"xT1":424.9,"yT1":0,"xT2":1058.1,"yT2":0,"toosoon":0,"cond_shown":"Incongruent","ratio_trial":100,"L_num":13,"L_den":26,"R_num":12,"R_den":20,"correct_side":2,"subjID":"JuanDavidRativaBernal25","gender":"0","school":"6","age":"10"},{"start_time":1551899798082,"click_time":1551899800084,"finger_time":1551899799365,"fix_duration":1098.3889802819322,"trial":29,"RT":1283,"MT":719,"sideResp":2,"stimulus":[],"xmouse":[808,808,808,808,808,808,808,808,808,808,808,808,808,808,808,808,808,808,808,808,808,808,808,808,808,808,808,808,808,808,808,808,808,808,808,808,808,808,808,808,808,808,808,808,808,808,808,808,808,808,808,808,808,808,808,808,808,808,808,808,808,808,808,817,829,840,852,873,919,942,959,969,975,986,1003,1020,1033,1041,1057,1061,1065,1067,1069,1071,1074,1077,1079,1080,1080,1081,1081,1082,1083,1085,1085,1085,1085,1086,1088,1088,1089],"ymouse":[502,502,502,502,502,502,502,502,502,502,502,502,502,502,502,502,502,502,502,502,502,502,502,502,502,502,502,502,502,502,502,502,502,502,502,502,502,502,502,502,502,502,502,502,502,502,502,502,502,502,502,502,502,502,502,502,502,502,502,502,502,502,499,476,454,434,410,382,330,314,304,298,294,282,270,263,256,249,234,226,216,208,199,187,174,166,160,159,159,159,157,157,156,153,152,152,150,147,134,117,99],"timestamp_mouse":[12,22,51,61,81,102,122,143,161,181,202,222,242,262,282,302,323,342,362,383,401,422,442,462,483,502,522,542,562,583,603,623,642,661,683,702,722,742,763,781,801,822,842,862,882,902,922,941,962,981,1009,1022,1042,1062,1081,1102,1123,1141,1163,1183,1202,1222,1242,1261,1283,1303,1322,1342,1362,1382,1401,1422,1443,1462,1485,1502,1523,1542,1561,1582,1602,1621,1642,1662,1682,1701,1722,1743,1762,1783,1801,1821,1841,1861,1882,1902,1922,1942,1962,1982,2002],"xSR":741.5,"ySR":469.95,"xT1":424.9,"yT1":0,"xT2":1058.1,"yT2":0,"toosoon":0,"cond_shown":"Congruent","ratio_trial":200,"L_num":5,"L_den":10,"R_num":14,"R_den":20,"correct_side":2,"subjID":"JuanDavidRativaBernal25","gender":"0","school":"6","age":"10"},{"start_time":1551899802043,"click_time":1551899803943,"finger_time":1551899803583,"fix_duration":838.4968335409669,"trial":30,"RT":1540,"MT":360,"sideResp":2,"stimulus":[],"xmouse":[805,805,805,805,805,805,805,805,805,805,805,805,805,805,805,805,805,805,805,805,805,805,805,805,805,805,805,805,805,805,805,805,805,805,805,805,805,805,805,805,805,805,805,805,805,805,805,805,805,805,805,805,805,805,805,805,805,805,805,805,805,805,805,805,805,805,805,805,805,805,805,805,805,805,805,805,814,836,870,896,927,935,947,961,977,1012,1021,1032,1037,1045,1064,1075,1088,1103,1121,1130],"ymouse":[499,499,499,499,499,499,499,499,499,499,499,499,499,499,499,499,499,499,499,499,499,499,499,499,499,499,499,499,499,499,499,499,499,499,499,499,499,499,499,499,499,499,499,499,499,499,499,499,499,499,499,499,499,499,499,499,499,499,499,499,499,499,499,499,499,499,499,499,499,499,499,499,499,499,499,499,485,459,427,401,362,348,329,309,289,251,239,221,210,198,168,153,137,121,104,90],"timestamp_mouse":[11,21,40,60,97,100,120,140,161,181,201,221,241,261,281,301,321,341,361,381,402,420,440,461,480,500,521,541,561,580,601,622,641,661,681,701,721,741,762,781,801,821,841,862,881,901,921,941,960,981,1008,1021,1040,1061,1081,1101,1121,1140,1161,1181,1201,1221,1242,1262,1281,1300,1321,1340,1360,1380,1401,1422,1441,1461,1480,1500,1521,1540,1561,1581,1605,1623,1642,1661,1681,1701,1722,1740,1762,1781,1801,1821,1841,1860,1880,1900],"xSR":741.5,"ySR":469.95,"xT1":424.9,"yT1":0,"xT2":1058.1,"yT2":0,"toosoon":0,"cond_shown":"Incongruent","ratio_trial":100,"L_num":3,"L_den":6,"R_num":4,"R_den":10,"correct_side":1,"subjID":"JuanDavidRativaBernal25","gender":"0","school":"6","age":"10"},{"start_time":1551899806216,"click_time":1551899808144,"finger_time":1551899807644,"fix_duration":250,"trial":31,"RT":1428,"MT":500,"sideResp":1,"stimulus":[],"xmouse":[775,775,775,775,775,775,775,775,775,775,775,775,775,775,775,775,775,775,775,775,775,775,775,775,775,775,775,775,775,775,775,775,775,775,775,775,775,775,775,775,775,775,775,775,775,775,775,775,775,775,775,775,775,775,775,775,775,775,775,775,775,775,775,775,775,775,775,775,775,775,772,717,671,638,626,622,616,614,612,611,610,608,606,601,593,584,569,563,558,554,549,541,536,529,523,514,506],"ymouse":[534,534,534,534,534,534,534,534,534,534,534,534,534,534,534,534,534,534,534,534,534,534,534,534,534,534,534,534,534,534,534,534,534,534,534,534,534,534,534,534,534,534,534,534,534,534,534,534,534,534,534,534,534,534,534,534,534,534,534,534,534,534,534,534,534,534,534,534,534,534,527,427,377,352,336,320,290,279,274,271,266,255,243,227,210,191,162,154,146,141,137,128,124,118,113,107,97],"timestamp_mouse":[15,29,61,67,88,107,127,149,167,187,207,228,248,269,288,307,329,348,368,387,407,428,448,468,489,509,528,547,569,588,608,628,648,667,687,709,728,748,768,789,808,827,847,869,888,908,928,947,968,987,1009,1027,1048,1068,1088,1108,1128,1149,1167,1188,1209,1229,1247,1267,1288,1309,1328,1348,1368,1388,1407,1428,1453,1468,1489,1508,1528,1549,1568,1588,1607,1628,1647,1668,1687,1707,1728,1749,1768,1788,1808,1828,1848,1868,1889,1907,1928],"xSR":741.5,"ySR":469.95,"xT1":424.9,"yT1":0,"xT2":1058.1,"yT2":0,"toosoon":0,"cond_shown":"Congruent","ratio_trial":100,"L_num":6,"L_den":20,"R_num":5,"R_den":25,"correct_side":1,"subjID":"JuanDavidRativaBernal25","gender":"0","school":"6","age":"10"},{"start_time":1551899809537,"click_time":1551899812323,"finger_time":1551899811863,"fix_duration":250,"trial":32,"RT":2326,"MT":460,"sideResp":2,"stimulus":[],"xmouse":[818,818,818,818,818,818,818,818,818,818,818,818,818,818,818,818,818,818,818,818,818,818,818,818,818,818,818,818,818,818,818,818,818,818,818,818,818,818,818,818,818,818,818,818,818,818,818,818,818,818,818,818,818,818,818,818,818,818,818,818,818,818,818,818,818,818,818,818,818,818,818,818,818,818,818,818,818,818,818,818,818,818,818,818,818,818,818,818,818,818,818,818,818,818,818,818,818,818,818,818,818,818,818,818,818,818,818,818,818,818,818,818,818,818,818,827,862,897,961,984,1063,1163,1163,1163,1163,1163,1163,1163,1163,1163,1163,1163,1163,1163,1163,1163,1163,1178,1166,1147],"ymouse":[510,510,510,510,510,510,510,510,510,510,510,510,510,510,510,510,510,510,510,510,510,510,510,510,510,510,510,510,510,510,510,510,510,510,510,510,510,510,510,510,510,510,510,510,510,510,510,510,510,510,510,510,510,510,510,510,510,510,510,510,510,510,510,510,510,510,510,510,510,510,510,510,510,510,510,510,510,510,510,510,510,510,510,510,510,510,510,510,510,510,510,510,510,510,510,510,510,510,510,510,510,510,510,510,510,510,510,510,510,510,510,510,510,510,510,497,438,386,294,254,132,2,2,2,2,2,2,2,2,2,2,2,2,2,2,2,2,15,35,60],"timestamp_mouse":[15,46,46,67,86,107,128,147,166,187,207,227,247,267,287,306,326,347,366,386,407,427,447,466,487,507,526,547,567,587,607,640,648,667,687,706,726,747,766,786,807,827,848,867,888,907,927,947,966,987,1007,1026,1047,1068,1087,1107,1126,1146,1167,1187,1207,1226,1251,1266,1287,1306,1327,1346,1366,1387,1406,1426,1446,1466,1486,1506,1526,1546,1566,1586,1607,1626,1646,1666,1686,1707,1727,1746,1766,1786,1807,1827,1847,1866,1886,1908,1926,1946,1967,1987,2007,2027,2047,2066,2086,2106,2126,2146,2167,2187,2207,2226,2246,2266,2287,2306,2326,2347,2369,2386,2406,2427,2446,2466,2487,2506,2526,2546,2567,2586,2606,2626,2647,2666,2687,2706,2726,2746,2767,2786],"xSR":741.5,"ySR":469.95,"xT1":424.9,"yT1":0,"xT2":1058.1,"yT2":0,"toosoon":0,"cond_shown":"Incongruent","ratio_trial":200,"L_num":6,"L_den":20,"R_num":3,"R_den":6,"correct_side":2,"subjID":"JuanDavidRativaBernal25","gender":"0","school":"6","age":"10"},{"start