[{"start_time":1551900255845,"click_time":1551900256920,"finger_time":1551900256700,"fix_duration":1021.9679768415134,"trial":0,"RT":855,"MT":220,"sideResp":2,"stimulus":"img/750/equaldotanddens/R/3_Ratio_750_L_15_R_20.png","xmouse":[819,819,821,821,821,821,821,821,821,821,821,821,821,821,821,821,821,821,821,821,821,821,821,821,821,821,821,821,821,821,821,821,821,821,821,821,821,821,821,823,831,858,930,1043,1079,1083,1085,1085,1089,1092,1098,1100,1103],"ymouse":[539,539,538,538,538,538,538,538,538,538,538,538,538,538,538,538,538,538,538,538,538,538,538,538,538,538,538,538,538,538,538,538,538,538,538,538,538,538,538,528,515,481,410,277,184,164,155,155,145,138,125,108,79],"timestamp_mouse":[37,56,75,96,115,136,156,175,196,215,236,256,277,296,315,335,355,377,395,415,436,456,476,496,515,535,555,576,595,615,636,656,675,696,716,736,756,775,795,817,836,855,875,895,918,941,956,975,995,1015,1035,1055,1075],"xSR":741.5,"ySR":501.8,"xT1":424.9,"yT1":0,"xT2":1058.1,"yT2":0,"toosoon":0,"cond_shown":"equaldotanddens","ratio_trial":750,"smaller_num":"15","larger_num":"20","correct_side":2,"subjID":"juandavidrativabernal25","gender":"0","age":"10","school":"6","test":{"fix_dur":[250,1500],"timestim":300,"targets_dim":[100,100],"targets_relative_coord":[0.3,0.7],"size_stim":[880,420],"start_dim":[100,100],"size_start":[300,300],"size_fix":60,"samplingrate":20,"img_types":["equaldotsize","equaldotanddens","randomdotsizeEA"],"ratios":[250,500,750,900],"rep_conds":9,"nTrials":120,"trials_to_rest":500,"Trials_order":[31,60,110,26,30,83,104,5,107,77,4,108,46,98,82,27,67,97,89,1,17,3,64,48,51,118,109,13,9,10,74,58,50,84,36,34,106,81,33,71,12,54,61,115,100,55,116,20,111,88,76,63,21,14,45,59,44,15,11,79,90,24,99,18,69,96,62,86,112,119,47,40,70,105,65,42,87,117,23,103,72,38,53,7,28,49,114,35,39,101,75,94,92,37,102,32,0,91,43,2,93,25,8,19,85,78,41,52,73,22,80,68,95,6,56,113,66,16,29,57],"cond_shown":["equaldotanddens","equaldotsize","randomdotsizeEA","randomdotsizeEA","equaldotsize","randomdotsizeEA","randomdotsizeEA","randomdotsizeEA","randomdotsizeEA","randomdotsizeEA","equaldotanddens","equaldotsize","equaldotanddens","randomdotsizeEA","equaldotanddens","equaldotsize","equaldotanddens","equaldotanddens","randomdotsizeEA","equaldotanddens","randomdotsizeEA","equaldotsize","equaldotanddens","equaldotsize","equaldotsize","equaldotanddens","equaldotanddens","equaldotanddens","equaldotsize","equaldotanddens","randomdotsizeEA","equaldotanddens","randomdotsizeEA","equaldotsize","equaldotsize","equaldotanddens","equaldotanddens","equaldotsize","equaldotsize","randomdotsizeEA","equaldotsize","equaldotsize","equaldotanddens","equaldotanddens","equaldotanddens","equaldotanddens","randomdotsizeEA","randomdotsizeEA","equaldotsize","equaldotanddens","equaldotanddens","equaldotsize","equaldotsize","randomdotsizeEA","equaldotsize","randomdotsizeEA","randomdotsizeEA","equaldotsize","randomdotsizeEA","equaldotanddens","equaldotsize","equaldotsize","equaldotsize","equaldotsize","equaldotsize","equaldotsize","randomdotsizeEA","randomdotsizeEA","equaldotanddens","randomdotsizeEA","randomdotsizeEA","equaldotanddens","equaldotanddens","equaldotsize","randomdotsizeEA","equaldotsize","equaldotsize","equaldotsize","randomdotsizeEA","equaldotanddens","equaldotsize","randomdotsizeEA","randomdotsizeEA","equaldotanddens","equaldotanddens","equaldotanddens","equaldotsize","randomdotsizeEA","equaldotsize","randomdotsizeEA","equaldotsize","equaldotanddens","randomdotsizeEA","equaldotanddens","equaldotsize","randomdotsizeEA","equaldotsize","equaldotanddens","equaldotanddens","randomdotsizeEA","equaldotsize","equaldotanddens","randomdotsizeEA","equaldotanddens","equaldotanddens","equaldotsize","randomdotsizeEA","equaldotanddens","equaldotanddens","equaldotanddens","randomdotsizeEA","randomdotsizeEA","randomdotsizeEA","equaldotsize","randomdotsizeEA","randomdotsizeEA","equaldotsize","equaldotanddens","randomdotsizeEA","equaldotsize"],"ratio_trial":[750,250,250,250,750,900,750,500,900,500,500,250,900,250,900,500,750,250,500,250,500,500,500,250,500,900,250,250,900,900,250,900,250,250,250,900,900,900,900,900,250,750,250,750,500,750,750,750,500,500,500,500,900,250,900,900,750,500,900,750,750,250,500,750,900,250,250,250,500,900,900,500,900,900,500,750,500,900,900,750,250,250,500,750,500,250,750,900,500,500,500,900,750,250,750,750,250,750,750,250,900,250,750,750,250,750,500,500,250,900,750,750,900,750,750,500,750,500,500,900],"smaller_num":["15","1","3","6","9","18","18","1","18","4","9","2","18","4","18","9","3","2","1","5","5","2","1","3","6","9","4","3","18","18","3","18","4","2","2","18","18","18","18","9","3","6","2","3","6","6","6","3","9","2","6","1","9","3","18","9","18","9","18","3","15","2","9","15","18","3","6","2","6","9","9","6","18","18","2","12","9","18","18","3","4","3","9","3","4","3","15","18","1","9","5","9","15","3","18","3","3","6","18","3","18","4","15","18","2","6","6","2","2","18","3","6","9","15","12","2","3","9","1","18"],"larger_num":["20","4","12","24","12","20","24","2","20","8","18","8","20","16","20","18","4","8","2","20","10","4","2","12","12","10","16","12","20","20","12","20","16","8","8","20","20","20","20","10","12","8","8","4","12","8","8","4","18","4","12","2","10","12","20","10","24","18","20","4","20","8","18","20","20","12","24","8","12","10","10","12","20","20","4","16","18","20","20","4","16","12","18","4","8","12","20","20","2","18","10","10","20","12","24","4","12","8","24","12","20","16","20","24","8","8","12","4","8","20","4","8","10","20","16","4","4","18","2","20"],"correct_side":[2,2,2,1,2,2,1,2,2,1,2,1,2,2,2,2,2,2,2,2,2,1,2,1,1,2,2,1,2,1,2,2,2,1,1,1,2,2,2,2,1,2,1,2,1,1,2,1,2,1,1,2,2,2,1,2,1,2,1,1,2,2,1,2,2,1,1,1,1,2,2,1,2,1,1,2,2,2,2,2,2,2,2,1,1,2,2,2,2,1,2,2,2,2,1,1,2,2,1,1,2,1,2,1,1,1,1,1,1,1,1,2,2,2,2,1,1,2,2,1],"img_shown":["img/750/equaldotanddens/R/3_Ratio_750_L_15_R_20.png","img/250/equaldotsize/R/8_Ratio_250_L_1_R_4.png","img/250/randomdotsizeEA/R/4_Ratio_250_L_3_R_12.png","img/250/randomdotsizeEA/L/5_Ratio_250_L_24_R_6.png","img/750/equaldotsize/R/15_Ratio_750_L_9_R_12.png","img/900/randomdotsizeEA/R/13_Ratio_900_L_18_R_20.png","img/750/randomdotsizeEA/L/6_Ratio_750_L_24_R_18.png","img/500/randomdotsizeEA/R/12_Ratio_500_L_1_R_2.png","img/900/randomdotsizeEA/R/13_Ratio_900_L_18_R_20.png","img/500/randomdotsizeEA/L/8_Ratio_500_L_8_R_4.png","img/500/equaldotanddens/R/1_Ratio_500_L_9_R_18.png","img/250/equaldotsize/L/1_Ratio_250_L_8_R_2.png","img/900/equaldotanddens/R/13_Ratio_900_L_18_R_20.png","img/250/randomdotsizeEA/R/10_Ratio_250_L_4_R_16.png","img/900/equaldotanddens/R/14_Ratio_900_L_18_R_20.png","img/500/equaldotsize/R/1_Ratio_500_L_9_R_18.png","img/750/equaldotanddens/R/12_Ratio_750_L_3_R_4.png","img/250/equaldotanddens/R/13_Ratio_250_L_2_R_8.png","img/500/randomdotsizeEA/R/15_Ratio_500_L_1_R_2.png","img/250/equaldotanddens/R/12_Ratio_250_L_5_R_20.png","img/500/randomdotsizeEA/R/14_Ratio_500_L_5_R_10.png","img/500/equaldotsize/L/10_Ratio_500_L_4_R_2.png","img/500/equaldotanddens/R/12_Ratio_500_L_1_R_2.png","img/250/equaldotsize/L/15_Ratio_250_L_12_R_3.png","img/500/equaldotsize/L/11_Ratio_500_L_12_R_6.png","img/900/equaldotanddens/R/6_Ratio_900_L_9_R_10.png","img/250/equaldotanddens/R/10_Ratio_250_L_4_R_16.png","img/250/equaldotanddens/L/14_Ratio_250_L_12_R_3.png","img/900/equaldotsize/R/12_Ratio_900_L_18_R_20.png","img/900/equaldotanddens/L/8_Ratio_900_L_20_R_18.png","img/250/randomdotsizeEA/R/4_Ratio_250_L_3_R_12.png","img/900/equaldotanddens/R/14_Ratio_900_L_18_R_20.png","img/250/randomdotsizeEA/R/10_Ratio_250_L_4_R_16.png","img/250/equaldotsize/L/1_Ratio_250_L_8_R_2.png","img/250/equaldotsize/L/3_Ratio_250_L_8_R_2.png","img/900/equaldotanddens/L/10_Ratio_900_L_20_R_18.png","img/900/equaldotanddens/R/11_Ratio_900_L_18_R_20.png","img/900/equaldotsize/R/9_Ratio_900_L_18_R_20.png","img/900/equaldotsize/R/14_Ratio_900_L_18_R_20.png","img/900/randomdotsizeEA/R/3_Ratio_900_L_9_R_10.png","img/250/equaldotsize/L/15_Ratio_250_L_12_R_3.png","img/750/equaldotsize/R/2_Ratio_750_L_6_R_8.png","img/250/equaldotanddens/L/3_Ratio_250_L_8_R_2.png","img/750/equaldotanddens/R/12_Ratio_750_L_3_R_4.png","img/500/equaldotanddens/L/13_Ratio_500_L_12_R_6.png","img/750/equaldotanddens/L/13_Ratio_750_L_8_R_6.png","img/750/randomdotsizeEA/R/2_Ratio_750_L_6_R_8.png","img/750/randomdotsizeEA/L/8_Ratio_750_L_4_R_3.png","img/500/equaldotsize/R/1_Ratio_500_L_9_R_18.png","img/500/equaldotanddens/L/10_Ratio_500_L_4_R_2.png","img/500/equaldotanddens/L/11_Ratio_500_L_12_R_6.png","img/500/equaldotsize/R/15_Ratio_500_L_1_R_2.png","img/900/equaldotsize/R/5_Ratio_900_L_9_R_10.png","img/250/randomdotsizeEA/R/9_Ratio_250_L_3_R_12.png","img/900/equaldotsize/L/4_Ratio_900_L_20_R_18.png","img/900/randomdotsizeEA/R/7_Ratio_900_L_9_R_10.png","img/750/randomdotsizeEA/L/6_Ratio_750_L_24_R_18.png","img/500/equaldotsize/R/6_Ratio_500_L_9_R_18.png","img/900/randomdotsizeEA/L/4_Ratio_900_L_20_R_18.png","img/750/equaldotanddens/L/9_Ratio_750_L_4_R_3.png","img/750/equaldotsize/R/3_Ratio_750_L_15_R_20.png","img/250/equaldotsize/R/13_Ratio_250_L_2_R_8.png","img/500/equaldotsize/L/4_Ratio_500_L_18_R_9.png","img/750/equaldotsize/R/3_Ratio_750_L_15_R_20.png","img/900/equaldotsize/R/12_Ratio_900_L_18_R_20.png","img/250/equaldotsize/L/14_Ratio_250_L_12_R_3.png","img/250/randomdotsizeEA/L/5_Ratio_250_L_24_R_6.png","img/250/randomdotsizeEA/L/3_Ratio_250_L_8_R_2.png","img/500/equaldotanddens/L/13_Ratio_500_L_12_R_6.png","img/900/randomdotsizeEA/R/7_Ratio_900_L_9_R_10.png","img/900/randomdotsizeEA/R/3_Ratio_900_L_9_R_10.png","img/500/equaldotanddens/L/13_Ratio_500_L_12_R_6.png","img/900/equaldotanddens/R/12_Ratio_900_L_18_R_20.png","img/900/equaldotsize/L/2_Ratio_900_L_20_R_18.png","img/500/randomdotsizeEA/L/5_Ratio_500_L_4_R_2.png","img/750/equaldotsize/R/11_Ratio_750_L_12_R_16.png","img/500/equaldotsize/R/6_Ratio_500_L_9_R_18.png","img/900/equaldotsize/R/13_Ratio_900_L_18_R_20.png","img/900/randomdotsizeEA/R/14_Ratio_900_L_18_R_20.png","img/750/equaldotanddens/R/7_Ratio_750_L_3_R_4.png","img/250/equaldotsize/R/10_Ratio_250_L_4_R_16.png","img/250/randomdotsizeEA/R/11_Ratio_250_L_3_R_12.png","img/500/randomdotsizeEA/R/6_Ratio_500_L_9_R_18.png","img/750/equaldotanddens/L/8_Ratio_750_L_4_R_3.png","img/500/equaldotanddens/L/8_Ratio_500_L_8_R_4.png","img/250/equaldotanddens/R/9_Ratio_250_L_3_R_12.png","img/750/equaldotsize/R/5_Ratio_750_L_15_R_20.png","img/900/randomdotsizeEA/R/12_Ratio_900_L_18_R_20.png","img/500/equaldotsize/R/12_Ratio_500_L_1_R_2.png","img/500/randomdotsizeEA/L/4_Ratio_500_L_18_R_9.png","img/500/equaldotsize/R/14_Ratio_500_L_5_R_10.png","img/900/equaldotanddens/R/5_Ratio_900_L_9_R_10.png","img/750/randomdotsizeEA/R/3_Ratio_750_L_15_R_20.png","img/250/equaldotanddens/R/4_Ratio_250_L_3_R_12.png","img/750/equaldotsize/L/6_Ratio_750_L_24_R_18.png","img/750/randomdotsizeEA/L/9_Ratio_750_L_4_R_3.png","img/250/equaldotsize/R/11_Ratio_250_L_3_R_12.png","img/750/equaldotanddens/R/2_Ratio_750_L_6_R_8.png","img/750/equaldotanddens/L/6_Ratio_750_L_24_R_18.png","img/250/randomdotsizeEA/L/14_Ratio_250_L_12_R_3.png","img/900/equaldotsize/R/14_Ratio_900_L_18_R_20.png","img/250/equaldotanddens/L/2_Ratio_250_L_16_R_4.png","img/750/randomdotsizeEA/R/5_Ratio_750_L_15_R_20.png","img/750/equaldotanddens/L/6_Ratio_750_L_24_R_18.png","img/250/equaldotanddens/L/7_Ratio_250_L_8_R_2.png","img/750/equaldotsize/L/13_Ratio_750_L_8_R_6.png","img/500/randomdotsizeEA/L/11_Ratio_500_L_12_R_6.png","img/500/equaldotanddens/L/10_Ratio_500_L_4_R_2.png","img/250/equaldotanddens/L/7_Ratio_250_L_8_R_2.png","img/900/equaldotanddens/L/8_Ratio_900_L_20_R_18.png","img/750/randomdotsizeEA/L/10_Ratio_750_L_4_R_3.png","img/750/randomdotsizeEA/R/2_Ratio_750_L_6_R_8.png","img/900/randomdotsizeEA/R/15_Ratio_900_L_9_R_10.png","img/750/equaldotsize/R/5_Ratio_750_L_15_R_20.png","img/750/randomdotsizeEA/R/11_Ratio_750_L_12_R_16.png","img/500/randomdotsizeEA/L/10_Ratio_500_L_4_R_2.png","img/750/equaldotsize/L/9_Ratio_750_L_4_R_3.png","img/500/equaldotanddens/R/6_Ratio_500_L_9_R_18.png","img/500/randomdotsizeEA/R/15_Ratio_500_L_1_R_2.png","img/900/equaldotsize/L/8_Ratio_900_L_20_R_18.png"],"Rat0":[["12_Ratio_0_L_9_R_0.png","13_Ratio_0_L_6_R_0.png","5_Ratio_0_L_2_R_0.png","6_Ratio_0_L_4_R_0.png","8_Ratio_0_L_6_R_0.png"],["1_Ratio_0_L_0_R_17.png","10_Ratio_0_L_0_R_22.png","11_Ratio_0_L_0_R_1.png","14_Ratio_0_L_0_R_24.png","15_Ratio_0_L_0_R_4.png","2_Ratio_0_L_0_R_5.png","3_Ratio_0_L_0_R_17.png","4_Ratio_0_L_0_R_7.png","7_Ratio_0_L_0_R_19.png","9_Ratio_0_L_0_R_15.png"]],"Rat250":[["1_Ratio_250_L_8_R_2.png","14_Ratio_250_L_12_R_3.png","15_Ratio_250_L_12_R_3.png","2_Ratio_250_L_16_R_4.png","3_Ratio_250_L_8_R_2.png","5_Ratio_250_L_24_R_6.png","7_Ratio_250_L_8_R_2.png"],["10_Ratio_250_L_4_R_16.png","11_Ratio_250_L_3_R_12.png","12_Ratio_250_L_5_R_20.png","13_Ratio_250_L_2_R_8.png","4_Ratio_250_L_3_R_12.png","6_Ratio_250_L_6_R_24.png","8_Ratio_250_L_1_R_4.png","9_Ratio_250_L_3_R_12.png"]],"Rat500":[["10_Ratio_500_L_4_R_2.png","11_Ratio_500_L_12_R_6.png","13_Ratio_500_L_12_R_6.png","4_Ratio_500_L_18_R_9.png","5_Ratio_500_L_4_R_2.png","7_Ratio_500_L_10_R_5.png","8_Ratio_500_L_8_R_4.png"],["1_Ratio_500_L_9_R_18.png","12_Ratio_500_L_1_R_2.png","14_Ratio_500_L_5_R_10.png","15_Ratio_500_L_1_R_2.png","2_Ratio_500_L_3_R_6.png","3_Ratio_500_L_10_R_20.png","6_Ratio_500_L_9_R_18.png","9_Ratio_500_L_2_R_4.png"]],"Rat750":[["1_Ratio_750_L_20_R_15.png","10_Ratio_750_L_4_R_3.png","13_Ratio_750_L_8_R_6.png","14_Ratio_750_L_8_R_6.png","6_Ratio_750_L_24_R_18.png","8_Ratio_750_L_4_R_3.png","9_Ratio_750_L_4_R_3.png"],["11_Ratio_750_L_12_R_16.png","12_Ratio_750_L_3_R_4.png","15_Ratio_750_L_9_R_12.png","2_Ratio_750_L_6_R_8.png","3_Ratio_750_L_15_R_20.png","4_Ratio_750_L_15_R_20.png","5_Ratio_750_L_15_R_20.png","7_Ratio_750_L_3_R_4.png"]],"Rat900":[["1_Ratio_900_L_10_R_9.png","10_Ratio_900_L_20_R_18.png","2_Ratio_900_L_20_R_18.png","4_Ratio_900_L_20_R_18.png","8_Ratio_900_L_20_R_18.png"],["11_Ratio_900_L_18_R_20.png","12_Ratio_900_L_18_R_20.png","13_Ratio_900_L_18_R_20.png","14_Ratio_900_L_18_R_20.png","15_Ratio_900_L_9_R_10.png","3_Ratio_900_L_9_R_10.png","5_Ratio_900_L_9_R_10.png","6_Ratio_900_L_9_R_10.png","7_Ratio_900_L_9_R_10.png","9_Ratio_900_L_18_R_20.png"]],"Rat1000":[["10_Ratio_1000_L_16_R_16.png","11_Ratio_1000_L_6_R_6.png","12_Ratio_1000_L_14_R_14.png","13_Ratio_1000_L_20_R_20.png","15_Ratio_1000_L_15_R_15.png","2_Ratio_1000_L_17_R_17.png","4_Ratio_1000_L_9_R_9.png","5_Ratio_1000_L_6_R_6.png","6_Ratio_1000_L_19_R_19.png","8_Ratio_1000_L_14_R_14.png","9_Ratio_1000_L_25_R_25.png"],["1_Ratio_1000_L_1_R_1.png","14_Ratio_1000_L_17_R_17.png","3_Ratio_1000_L_17_R_17.png","7_Ratio_1000_L_6_R_6.png"]]}},{"start_time":1551900258092,"click_time":1551900259060,"finger_time":1551900258920,"fix_duration":470.6427599687679,"trial":1,"RT":828,"MT":140,"sideResp":2,"stimulus":"img/250/equaldotsize/R/8_Ratio_250_L_1_R_4.png","xmouse":[756,756,756,756,756,756,756,756,756,756,756,756,756,756,756,756,756,756,756,756,756,756,756,756,756,756,756,756,756,756,756,756,756,756,756,762,763,764,770,780,841,873,904,926,953,1014,1056,1103],"ymouse":[534,534,534,534,534,534,534,534,534,534,534,534,534,534,534,534,534,534,534,534,534,534,534,534,534,534,534,534,534,534,534,534,534,534,531,521,520,516,508,494,421,381,330,293,245,164,113,59],"timestamp_mouse":[12,28,49,98,109,128,150,169,189,208,228,249,269,288,308,328,349,369,389,409,428,449,469,489,509,529,549,569,590,610,629,648,669,688,709,728,749,768,789,808,828,854,876,894,909,928,948,968],"xSR":741.5,"ySR":469.95,"xT1":424.9,"yT1":0,"xT2":1058.1,"yT2":0,"toosoon":0,"cond_shown":"equaldotsize","ratio_trial":250,"smaller_num":"1","larger_num":"4","correct_side":2,"subjID":"juandavidrativabernal25","gender":"0","age":"10","school":"6"},{"start_time":1551900260032,"click_time":1551900261181,"finger_time":1551900260802,"fix_duration":250,"trial":2,"RT":770,"MT":379,"sideResp":1,"stimulus":"img/250/randomdotsizeEA/R/4_Ratio_250_L_3_R_12.png","xmouse":[823,823,823,823,823,823,823,823,823,823,823,823,823,823,823,823,823,823,823,823,823,823,823,823,823,823,823,823,823,823,823,823,823,823,823,808,795,767,734,719,696,683,668,650,620,616,616,616,616,616,614,604,591,579,564,558,533,521],"ymouse":[531,531,531,531,531,531,531,531,531,531,531,531,531,531,531,531,531,531,531,531,531,530,530,530,529,527,527,527,527,527,527,527,527,527,527,517,510,491,461,441,402,378,354,326,290,284,284,283,280,233,203,163,131,107,89,86,81,81],"timestamp_mouse":[11,29,48,84,88,108,128,149,169,190,208,229,249,269,289,308,328,350,370,390,408,428,448,469,488,508,529,549,568,589,609,628,648,668,689,709,728,748,769,788,808,829,848,868,888,909,930,950,970,988,1009,1029,1048,1070,1088,1109,1129,1149],"xSR":741.5,"ySR":469.95,"xT1":424.9,"yT1":0,"xT2":1058.1,"yT2":0,"toosoon":0,"cond_shown":"randomdotsizeEA","ratio_trial":250,"smaller_num":"3","larger_num":"12","correct_side":2,"subjID":"juandavidrativabernal25","gender":"0","age":"10","school":"6"},{"start_time":1551900263133,"click_time":1551900263980,"finger_time":1551900263840,"fix_duration":691.355139220371,"trial":3,"RT":707,"MT":140,"sideResp":2,"stimulus":"img/250/randomdotsizeEA/L/5_Ratio_250_L_24_R_6.png","xmouse":[807,807,807,807,807,807,807,807,807,807,807,807,807,807,807,807,807,807,807,807,807,807,807,807,807,807,807,807,807,807,807,807,807,807,807,825,839,874,889,957,997,1048,1094],"ymouse":[497,497,497,497,497,497,497,497,497,497,497,497,497,497,497,497,497,497,497,497,497,497,497,497,492,490,490,490,490,490,490,490,490,490,489,431,376,294,268,162,121,90,72],"timestamp_mouse":[12,28,56,67,88,108,127,148,168,188,207,228,247,268,287,310,328,347,367,387,408,428,447,467,487,507,527,547,567,587,608,628,647,668,688,707,729,750,767,788,808,828,847],"xSR":741.5,"ySR":469.95,"xT1":424.9,"yT1":0,"xT2":1058.1,"yT2":0,"toosoon":0,"cond_shown":"randomdotsizeEA","ratio_trial":250,"smaller_num":"6","larger_num":"24","correct_side":1,"subjID":"juandavidrativabernal25","gender":"0","age":"10","school":"6"},{"start_time":1551900265421,"click_time":1551900266360,"finger_time":1551900265960,"fix_duration":319.62048367465854,"trial":4,"RT":539,"MT":400,"sideResp":1,"stimulus":"img/750/equaldotsize/R/15_Ratio_750_L_9_R_12.png","xmouse":[781,781,781,781,781,781,781,781,781,781,781,781,781,781,781,781,781,781,781,781,781,781,781,781,781,781,778,770,746,723,697,663,650,634,618,594,591,588,584,579,568,563,561,559,558,549,529,520],"ymouse":[515,515,515,515,515,515,515,515,515,515,515,515,515,515,515,515,515,515,515,515,515,515,515,515,515,515,499,468,413,376,340,297,276,255,234,208,203,198,191,181,157,145,140,136,130,118,88,79],"timestamp_mouse":[7,20,40,60,95,100,119,139,160,179,199,220,240,260,279,307,320,339,359,380,400,420,439,460,479,499,519,539,559,580,599,619,639,659,680,700,722,739,760,780,800,819,840,860,880,900,920,939],"xSR":741.5,"ySR":469.95,"xT1":424.9,"yT1":0,"xT2":1058.1,"yT2":0,"toosoon":0,"cond_shown":"equaldotsize","ratio_trial":750,"smaller_num":"9","larger_num":"12","correct_side":2,"subjID":"juandavidrativabernal25","gender":"0","age":"10","school":"6"},{"start_time":1551900267714,"click_time":1551900269380,"finger_time":1551900268721,"fix_duration":292.2498191941002,"trial":5,"RT":1007,"MT":659,"sideResp":2,"stimulus":"img/900/randomdotsizeEA/R/13_Ratio_900_L_18_R_20.png","xmouse":[830,830,830,830,830,830,830,830,830,830,830,830,830,830,830,830,830,830,830,830,830,830,830,830,830,830,830,830,830,830,830,830,830,830,830,830,830,830,830,830,830,830,830,830,830,830,830,830,832,836,859,881,918,933,939,942,943,948,959,974,1003,1014,1020,1023,1030,1048,1056,1063,1072,1076,1080,1080,1081,1081,1082,1082,1083,1083,1083,1085,1085,1087,1088,1091],"ymouse":[529,529,529,529,529,529,529,529,529,529,529,529,529,529,529,529,530,530,530,530,530,530,530,530,530,530,530,530,530,530,530,530,530,530,530,530,530,530,530,530,530,530,530,526,524,521,518,515,508,497,453,414,348,321,308,301,299,290,270,246,204,189,179,174,165,151,144,139,132,127,123,123,120,119,118,116,114,114,112,110,108,103,101,95],"timestamp_mouse":[12,27,48,83,88,106,126,146,167,186,206,227,246,267,287,309,327,347,366,386,406,427,446,466,486,506,527,547,567,587,607,627,647,666,686,707,726,747,767,786,806,827,848,866,886,907,928,947,966,986,1006,1031,1053,1067,1088,1107,1130,1147,1167,1188,1207,1229,1246,1266,1287,1307,1329,1346,1367,1387,1406,1427,1447,1467,1487,1507,1526,1546,1567,1586,1606,1626,1647,1666],"xSR":741.5,"ySR":469.95,"xT1":424.9,"yT1":0,"xT2":1058.1,"yT2":0,"toosoon":0,"cond_shown":"randomdotsizeEA","ratio_trial":900,"smaller_num":"18","larger_num":"20","correct_side":2,"subjID":"juandavidrativabernal25","gender":"0","age":"10","school":"6"},{"start_time":1551900271287,"click_time":1551900272820,"finger_time":1551900272001,"fix_duration":905.9573323059485,"trial":6,"RT":714,"MT":819,"sideResp":2,"stimulus":"img/750/randomdotsizeEA/L/6_Ratio_750_L_24_R_18.png","xmouse":[815,815,815,815,815,815,815,815,815,815,815,815,815,815,815,815,815,815,815,815,815,815,815,815,815,815,815,815,815,815,815,815,819,820,823,827,830,836,838,842,848,855,861,866,872,883,894,905,922,948,970,992,997,1003,1013,1024,1049,1056,1060,1063,1066,1068,1069,1071,1074,1080,1086,1089,1091,1094,1096,1101,1102,1103,1105,1106,1107],"ymouse":[500,500,500,500,500,500,500,500,500,500,500,500,500,500,500,500,500,500,500,500,500,500,500,500,500,500,500,500,500,500,500,500,484,480,471,461,451,431,425,416,397,379,363,351,338,320,305,294,281,269,255,237,230,221,211,203,183,178,172,165,158,153,151,148,145,136,130,125,123,120,117,111,108,107,103,100,94],"timestamp_mouse":[14,34,72,74,93,115,134,154,174,193,215,233,253,273,293,314,334,354,374,393,413,434,453,474,494,513,533,553,573,593,613,634,654,673,694,714,734,753,774,794,817,836,855,874,894,913,933,954,973,994,1013,1034,1054,1073,1093,1113,1133,1153,1174,1193,1214,1233,1254,1273,1293,1313,1334,1354,1373,1393,1413,1433,1454,1474,1493,1514,1533],"xSR":741.5,"ySR":469.95,"xT1":424.9,"yT1":0,"xT2":1058.1,"yT2":0,"toosoon":0,"cond_shown":"randomdotsizeEA","ratio_trial":750,"smaller_num":"18","larger_num":"24","correct_side":1,"subjID":"juandavidrativabernal25","gender":"0","age":"10","school":"6"},{"start_time":1551900276501,"click_time":1551900278380,"finger_time":1551900277900,"fix_duration":359.36259994399956,"trial":7,"RT":1399,"MT":480,"sideResp":2,"stimulus":"img/500/randomdotsizeEA/R/12_Ratio_500_L_1_R_2.png","xmouse":[781,781,781,781,781,781,781,781,781,781,781,781,781,781,781,781,781,781,781,781,781,781,781,781,781,781,781,781,781,781,781,781,781,781,781,781,781,781,781,781,781,781,781,781,781,781,781,781,781,781,781,781,781,781,781,781,781,781,781,781,781,781,781,781,781,781,781,789,805,842,876,916,955,976,1006,1040,1055,1067,1079,1091,1096,1099,1103,1106,1111,1114,1116,1116,1115,1115,1111,1107,1102,1096],"ymouse":[537,537,537,537,537,537,537,537,537,537,537,537,537,537,537,537,537,537,537,537,537,537,537,537,537,537,537,537,537,537,537,537,537,537,537,537,537,537,537,537,537,537,537,537,537,537,537,537,537,537,537,537,537,537,537,537,537,537,537,537,537,537,537,537,537,537,537,535,523,500,477,443,408,389,360,322,306,293,281,267,258,251,240,231,211,186,178,172,165,158,138,123,110,92],"timestamp_mouse":[11,20,40,80,99,120,141,161,179,201,219,240,259,280,300,321,339,359,379,400,419,440,460,480,500,519,540,560,580,600,619,641,661,680,700,720,739,761,781,799,819,839,860,879,900,919,939,959,979,999,1020,1040,1059,1081,1099,1119,1141,1160,1180,1199,1220,1239,1260,1279,1300,1321,1339,1359,1380,1399,1421,1440,1459,1479,1499,1519,1540,1559,1581,1600,1620,1639,1659,1679,1699,1720,1739,1759,1779,1799,1819,1839,1859,1879],"xSR":741.5,"ySR":469.95,"xT1":424.9,"yT1":0,"xT2":1058.1,"yT2":0,"toosoon":0,"cond_shown":"randomdotsizeEA","ratio_trial":500,"smaller_num":"1","larger_num":"2","correct_side":2,"subjID":"juandavidrativabernal25","gender":"0","age":"10","school":"6"},{"start_time":1551900280231,"click_time":1551900282121,"finger_time":1551900281041,"fix_duration":869.4325738661726,"trial":8,"RT":810,"MT":1080,"sideResp":2,"stimulus":"img/900/randomdotsizeEA/R/13_Ratio_900_L_18_R_20.png","xmouse":[828,828,828,828,828,828,828,828,828,828,828,828,828,828,828,828,828,828,828,828,828,828,828,828,828,828,828,828,828,828,828,828,828,828,828,828,828,828,829,865,911,961,996,1036,1047,1054,1061,1066,1077,1083,1092,1098,1103,1112,1115,1116,1117,1117,1117,1117,1117,1117,1117,1117,1117,1117,1117,1117,1117,1117,1117,1117,1117,1117,1117,1117,1117,1117,1117,1117,1117,1117,1117,1117,1117,1117,1117,1117,1116,1116,1115,1114,1113,1104],"ymouse":[528,528,528,528,528,528,528,528,528,528,528,528,528,528,528,528,528,528,528,528,528,528,528,528,528,528,528,528,528,528,528,528,528,528,528,528,528,528,521,496,466,430,393,329,304,282,259,243,214,197,177,160,145,118,109,104,102,102,102,102,102,102,102,102,102,102,102,102,102,102,101,101,101,101,101,101,101,101,101,101,101,101,101,101,101,101,101,101,101,101,101,101,100,99],"timestamp_mouse":[14,59,69,91,110,130,149,170,189,209,231,250,270,289,311,330,350,369,390,409,429,449,469,490,510,529,549,570,589,610,629,650,669,690,710,729,749,770,789,810,830,851,870,890,910,931,949,970,989,1010,1030,1049,1069,1090,1109,1130,1149,1169,1190,1209,1230,1249,1270,1290,1311,1330,1349,1369,1389,1409,1429,1449,1469,1490,1510,1530,1550,1570,1591,1610,1630,1651,1671,1691,1711,1731,1751,1770,1790,1810,1830,1850,1869,1890],"xSR":741.5,"ySR":469.95,"xT1":424.9,"yT1":0,"xT2":1058.1,"yT2":0,"toosoon":0,"cond_shown":"randomdotsizeEA","ratio_trial":900,"smaller_num":"18","larger_num":"20","correct_side":2,"subjID":"juandavidrativabernal25","gender":"0","age":"10","school":"6"},{"start_time":1551900284424,"click_time":1551900285841,"finger_time":1551900285421,"fix_duration":1202.7746544496665,"trial":9,"RT":997,"MT":420,"sideResp":1,"stimulus":"img/500/randomdotsizeEA/L/8_Ratio_500_L_8_R_4.png","xmouse":[811,811,811,811,811,811,811,811,811,811,811,811,811,811,811,811,811,811,811,811,811,811,811,811,811,811,811,811,811,811,811,811,811,811,811,811,811,811,811,811,811,811,811,811,811,811,811,810,758,728,692,659,634,609,599,592,586,581,576,574,574,574,574,574,574,574,574,574,538,518],"ymouse":[550,550,550,550,550,550,550,550,550,550,550,550,550,550,550,550,550,550,550,550,550,550,550,550,550,550,550,550,550,550,550,550,550,550,550,550,550,550,550,550,550,550,550,550,550,550,550,548,443,408,367,330,291,241,219,196,175,157,121,113,109,108,108,108,108,108,107,105,79,68],"timestamp_mouse":[17,68,76,96,116,137,156,177,196,217,237,257,276,297,317,337,356,377,398,417,436,456,478,497,516,536,556,576,596,616,637,656,676,697,716,736,756,776,796,816,836,856,876,897,916,936,957,977,997,1020,1039,1058,1077,1096,1117,1137,1157,1177,1197,1216,1237,1256,1276,1297,1317,1337,1358,1377,1398,1417],"xSR":741.5,"ySR":469.95,"xT1":424.9,"yT1":0,"xT2":1058.1,"yT2":0,"toosoon":0,"cond_shown":"randomdotsizeEA","ratio_trial":500,"smaller_num":"4","larger_num":"8","correct_side":1,"subjID":"juandavidrativabernal25","gender":"0","age":"10","school":"6"},{"start_time":1551900288012,"click_time":1551900289100,"finger_time":1551900288781,"fix_duration":250,"trial":10,"RT":769,"MT":319,"sideResp":2,"stimulus":"img/500/equaldotanddens/R/1_Ratio_500_L_9_R_18.png","xmouse":[790,790,790,790,790,790,790,790,790,790,790,790,790,790,790,790,790,790,790,790,790,790,790,790,790,790,790,790,790,790,790,790,790,790,790,790,793,801,841,846,851,851,851,851,851,876,898,924,957,986,1053,1073,1089,1101,1114],"ymouse":[537,537,537,537,537,537,537,537,537,537,537,537,537,537,537,537,537,537,537,537,537,537,537,537,537,537,537,537,537,537,537,537,537,537,537,537,513,488,393,371,331,325,323,323,321,291,270,250,226,202,152,135,121,110,83],"timestamp_mouse":[12,45,49,70,90,108,128,148,170,188,209,228,248,269,288,309,328,349,369,388,408,429,449,469,488,508,529,548,570,589,609,630,648,669,689,709,729,749,769,788,808,828,848,869,889,909,928,948,969,989,1010,1030,1049,1069,1088],"xSR":741.5,"ySR":469.95,"xT1":424.9,"yT1":0,"xT2":1058.1,"yT2":0,"toosoon":0,"cond_shown":"equaldotanddens","ratio_trial":500,"smaller_num":"9","larger_num":"18","correct_side":2,"subjID":"juandavidrativabernal25","gender":"0","age":"10","school":"6"},{"start_time":1551900291317,"click_time":1551900292861,"finger_time":1551900292200,"fix_duration":1315.7101119821823,"trial":11,"RT":883,"MT":661,"sideResp":1,"stimulus":"img/250/equaldotsize/L/1_Ratio_250_L_8_R_2.png","xmouse":[817,817,817,817,817,817,817,817,817,817,817,817,817,817,817,817,817,817,817,817,817,817,817,817,817,817,817,817,817,817,817,817,817,817,817,817,817,817,817,817,817,820,821,821,822,822,822,822,820,812,754,696,615,525,512,510,510,510,509,508,505,505,505,504,504,504,501,501,501,501,501,501,501,501,500,496,494,492],"ymouse":[496,496,496,496,496,496,496,496,496,496,496,496,496,496,496,496,496,496,496,496,496,496,496,496,496,496,496,496,496,496,496,496,496,496,496,496,496,496,496,496,493,478,475,472,468,465,455,450,446,437,407,385,351,301,285,267,259,253,245,237,227,225,221,210,183,167,154,153,153,153,153,153,153,153,145,120,109,97],"timestamp_mouse":[13,24,44,83,84,104,124,144,163,185,204,223,243,264,284,309,323,344,365,383,404,424,444,465,484,504,524,545,564,583,604,624,644,664,684,704,724,743,763,784,804,824,844,864,883,903,923,943,963,983,1004,1023,1044,1063,1083,1103,1124,1144,1164,1183,1203,1224,1244,1264,1284,1303,1323,1344,1363,1383,1404,1423,1443,1464,1483,1503,1524,1543],"xSR":741.5,"ySR":469.95,"xT1":424.9,"yT1":0,"xT2":1058.1,"yT2":0,"toosoon":0,"cond_shown":"equaldotsize","ratio_trial":250,"smaller_num":"2","larger_num":"8","correct_side":1,"subjID":"juandavidrativabernal25","gender":"0","age":"10","school":"6"},{"start_time":1551900295072,"click_time":1551900296343,"finger_time":1551900295780,"fix_duration":1088.937216301708,"trial":12,"RT":708,"MT":563,"sideResp":1,"stimulus":"img/900/equaldotanddens/R/13_Ratio_900_L_18_R_20.png","xmouse":[799,799,799,799,799,799,799,799,799,799,799,799,799,799,799,799,799,799,799,799,799,799,799,799,799,799,799,799,799,799,799,799,799,799,785,770,727,690,682,682,677,674,663,657,652,645,644,627,614,597,579,559,524,513,509,508,508,508,508,508,508,508,506,486],"ymouse":[516,516,516,516,516,516,516,516,516,516,516,516,516,516,516,516,516,516,516,516,516,516,516,516,516,516,516,516,516,516,516,516,516,516,488,461,398,348,336,336,324,311,274,258,244,229,225,194,179,165,152,140,122,118,116,116,116,116,116,116,116,116,112,82],"timestamp_mouse":[12,30,60,70,89,109,128,148,169,188,210,228,248,268,288,308,328,350,369,389,408,428,448,469,488,508,528,548,568,589,608,630,649,669,690,708,728,756,779,788,808,828,848,869,889,908,928,948,968,989,1009,1029,1049,1068,1088,1108,1128,1149,1170,1189,1209,1228,1248,1271],"xSR":741.5,"ySR":469.95,"xT1":424.9,"yT1":0,"xT2":1058.1,"yT2":0,"toosoon":0,"cond_shown":"equaldotanddens","ratio_trial":900,"smaller_num":"18","larger_num":"20","correct_side":2,"subjID":"juandavidrativabernal25","gender":"0","age":"10","school":"6"},{"start_time":1551900298858,"click_time":1551900300920,"finger_time":1551900299680,"fix_duration":1196.6381520702844,"trial":13,"RT":822,"MT":1240,"sideResp":2,"stimulus":"img/250/randomdotsizeEA/R/10_Ratio_250_L_4_R_16.png","xmouse":[821,821,821,821,821,821,821,821,821,821,821,821,821,821,821,821,821,821,821,821,821,821,821,821,821,821,821,821,821,821,821,821,821,821,821,821,821,821,821,821,818,805,794,781,781,779,779,779,779,779,779,779,779,779,779,779,779,779,787,798,802,804,805,805,805,805,805,805,805,805,805,805,805,805,805,805,805,805,805,805,805,805,805,805,805,805,805,805,826,836,845,856,868,883,939,947,961,974,991,998,1008,1023,1044,1120],"ymouse":[499,499,499,499,499,499,499,499,499,499,499,499,499,499,499,499,499,499,499,499,499,499,499,499,499,499,499,499,499,499,499,499,499,499,499,499,499,499,499,499,487,462,445,427,427,424,424,424,424,424,424,424,424,424,424,424,424,423,401,384,379,376,374,374,374,374,374,374,374,374,374,374,374,374,374,374,374,374,374,374,374,374,374,374,374,374,374,374,348,336,326,313,299,282,216,205,183,166,142,134,123,107,87,27],"timestamp_mouse":[12,23,51,62,82,103,122,142,162,183,203,223,243,262,282,308,322,342,362,383,403,423,442,462,483,503,523,543,562,582,603,622,643,664,682,703,722,742,763,783,803,822,843,869,882,903,922,943,963,983,1002,1022,1043,1063,1083,1104,1123,1144,1163,1182,1202,1224,1243,1263,1284,1303,1323,1343,1362,1383,1403,1424,1442,1462,1483,1503,1523,1542,1563,1583,1603,1623,1643,1663,1684,1703,1723,1743,1762,1783,1804,1823,1844,1863,1883,1904,1923,1943,1963,1982,2003,2022,2042,2062],"xSR":741.5,"ySR":469.95,"xT1":424.9,"yT1":0,"xT2":1058.1,"yT2":0,"toosoon":0,"cond_shown":"randomdotsizeEA","ratio_trial":250,"smaller_num":"4","larger_num":"16","correct_side":2,"subjID":"juandavidrativabernal25","gender":"0","age":"10","school":"6"},{"start_time":1551900302787,"click_time":1551900304221,"finger_time":1551900303420,"fix_duration":1025.5708435317968,"trial":14,"RT":633,"MT":801,"sideResp":1,"stimulus":"img/900/equaldotanddens/R/14_Ratio_900_L_18_R_20.png","xmouse":[831,831,831,831,831,831,831,831,831,831,831,831,831,831,831,831,831,831,831,831,831,831,831,831,831,831,831,831,831,831,848,860,866,866,869,869,869,869,869,869,869,869,858,813,742,576,513,484,474,474,470,465,462,458,458,458,460,466,469,473,478,480,483,486,487,487,488,489,490,491,494],"ymouse":[541,541,541,541,541,541,541,541,541,541,541,541,541,541,541,541,541,541,541,541,541,541,541,541,541,541,541,541,541,541,525,514,507,507,500,500,500,500,500,500,500,499,492,476,454,404,386,373,368,368,357,349,339,328,325,308,294,278,261,246,210,194,181,170,163,156,154,149,140,128,99],"timestamp_mouse":[13,66,74,93,113,133,153,174,194,214,234,254,274,293,313,333,353,373,395,414,434,453,474,494,514,533,554,575,593,613,633,657,678,693,713,733,757,779,794,813,834,853,873,893,914,933,953,973,993,1015,1034,1054,1074,1094,1115,1138,1154,1175,1194,1213,1233,1253,1273,1293,1315,1334,1355,1374,1393,1415,1434],"xSR":741.5,"ySR":469.95,"xT1":424.9,"yT1":0,"xT2":1058.1,"yT2":0,"toosoon":0,"cond_shown":"equaldotanddens","ratio_trial":900,"smaller_num":"18","larger_num":"20","correct_side":2,"subjID":"juandavidrativabernal25","gender":"0","age":"10","school":"6"},{"start_time":1551900308141,"click_time":1551900309261,"finger_time":1551900308841,"fix_duration":1116.8735555712417,"trial":15,"RT":700,"MT":420,"sideResp":2,"stimulus":"img/500/equaldotsize/R/1_Ratio_500_L_9_R_18.png","xmouse":[790,790,790,790,790,790,790,790,790,790,790,790,790,790,790,790,790,790,790,790,790,790,790,790,790,790,790,790,790,790,790,790,803,837,865,893,915,942,958,978,1005,1030,1095,1120,1135,1139,1140,1140,1140,1140,1140,1140,1136,1119,1090],"ymouse":[528,528,528,528,528,528,528,528,528,528,528,528,528,528,528,528,528,528,528,528,528,528,528,528,528,528,528,528,528,528,528,528,504,455,421,382,349,314,298,281,264,249,200,179,165,159,157,157,157,157,157,157,140,107,63],"timestamp_mouse":[20,39,59,79,119,139,159,179,199,219,239,259,279,299,319,339,359,381,399,419,440,459,479,499,520,540,560,580,599,621,641,660,680,700,721,739,759,780,800,819,839,859,879,899,920,939,960,980,1001,1019,1039,1059,1080,1099,1120],"xSR":741.5,"ySR":469.95,"xT1":424.9,"yT1":0,"xT2":1058.1,"yT2":0,"toosoon":0,"cond_shown":"equaldotsize","ratio_trial":500,"smaller_num":"9","larger_num":"18","correct_side":2,"subjID":"juandavidrativabernal25","gender":"0","age":"10","school":"6"},{"start_time":1551900310959,"click_time":1551900312260,"finger_time":1551900311960,"fix_duration":496.45013032216133,"trial":16,"RT":1001,"MT":300,"sideResp":2,"stimulus":"img/750/equaldotanddens/R/12_Ratio_750_L_3_R_4.png","xmouse":[782,782,782,782,782,782,782,782,782,782,782,782,782,782,782,782,782,782,782,782,782,782,782,782,782,782,782,782,782,782,782,782,782,782,782,782,782,782,782,782,782,782,782,782,782,782,782,782,782,794,806,833,859,902,913,924,941,979,995,1008,1018,1030,1048,1060,1067,1076],"ymouse":[489,489,489,489,489,489,489,489,489,489,489,489,489,489,489,489,489,489,489,489,489,489,489,489,489,489,489,489,489,489,489,489,489,489,489,489,489,489,489,489,489,489,489,489,489,489,489,489,489,478,464,437,415,374,356,335,308,257,237,219,199,175,136,115,104,91],"timestamp_mouse":[11,21,53,62,82,101,121,142,161,182,202,221,241,261,282,308,322,341,362,382,401,421,442,462,481,502,522,541,562,582,601,621,641,663,682,702,721,742,762,782,801,822,841,861,881,902,921,941,961,981,1001,1021,1042,1061,1081,1102,1122,1142,1164,1181,1201,1221,1242,1263,1281,1301],"xSR":741.5,"ySR":469.95,"xT1":424.9,"yT1":0,"xT2":1058.1,"yT2":0,"toosoon":0,"cond_shown":"equaldotanddens","ratio_trial":750,"smaller_num":"3","larger_num":"4","correct_side":2,"subjID":"juandavidrativabernal25","gender":"0","age":"10","school":"6"},{"start_time":1551900314048,"click_time":1551900314680,"finger_time":1551900314520,"fix_duration":927.7992466192596,"trial":17,"RT":472,"MT":160,"sideResp":2,"stimulus":"img/250/equaldotanddens/R/13_Ratio_250_L_2_R_8.png","xmouse":[783,783,783,783,783,783,783,783,783,783,783,783,783,783,783,783,790,796,814,816,817,819,822,840,853,879,890,890,991,1038,1068,1099],"ymouse":[492,492,492,492,492,492,492,492,492,492,492,492,492,492,492,492,490,488,481,480,479,478,476,460,446,414,398,398,255,179,136,94],"timestamp_mouse":[12,31,51,78,92,112,132,152,172,192,212,231,251,271,291,311,332,351,371,392,412,431,451,472,495,517,533,552,575,594,613,632],"xSR":741.5,"ySR":469.95,"xT1":424.9,"yT1":0,"xT2":1058.1,"yT2":0,"toosoon":0,"cond_shown":"equaldotanddens","ratio_trial":250,"smaller_num":"2","larger_num":"8","correct_side":2,"subjID":"juandavidrativabernal25","gender":"0","age":"10","school":"6"},{"start_time":1551900315937,"click_time":1551900317319,"finger_time":1551900316680,"fix_duration":316.8198444920194,"trial":18,"RT":743,"MT":639,"sideResp":1,"stimulus":"img/500/randomdotsizeEA/R/15_Ratio_500_L_1_R_2.png","xmouse":[800,800,800,800,800,800,800,800,800,800,800,800,800,800,800,800,800,800,800,800,800,800,800,800,800,800,800,800,800,800,800,800,800,800,800,784,755,652,574,479,377,302,301,301,301,301,301,301,301,301,301,301,301,301,302,303,308,322,332,343,353,360,371,376,383,396,412,444],"ymouse":[535,535,535,535,535,535,535,535,535,535,535,535,535,535,535,535,535,535,535,535,535,535,535,535,535,535,535,535,535,535,535,535,535,534,499,452,397,266,200,133,72,28,26,26,26,26,26,26,26,26,26,26,26,26,26,26,26,26,26,26,26,26,26,26,26,26,26,29],"timestamp_mouse":[15,42,62,82,103,122,142,163,182,203,223,243,263,282,310,344,362,382,402,422,442,464,482,502,523,543,563,582,602,623,643,663,682,702,723,743,763,783,804,823,843,862,883,903,923,942,964,984,1003,1022,1042,1062,1082,1103,1122,1144,1163,1183,1203,1222,1243,1263,1282,1302,1322,1342,1362,1382],"xSR":741.5,"ySR":469.95,"xT1":424.9,"yT1":0,"xT2":1058.1,"yT2":0,"toosoon":0,"cond_shown":"randomdotsizeEA","ratio_trial":500,"smaller_num":"1","larger_num":"2","correct_side":2,"subjID":"juandavidrativabernal25","gender":"0","age":"10","school":"6"},{"start_time":1551900319146,"click_time":1551900320359,"finger_time":1551900320000,"fix_duration":625.3410747412863,"trial":19,"RT":854,"MT":359,"sideResp":2,"stimulus":"img/250/equaldotanddens/R/12_Ratio_250_L_5_R_20.png","xmouse":[801,801,801,801,801,801,801,801,801,801,801,801,801,801,801,801,801,801,801,801,801,801,801,801,801,801,801,801,801,801,801,801,801,801,801,801,801,801,801,802,809,824,843,935,968,990,1015,1058,1073,1085,1094,1102,1113,1120,1123,1124,1125,1126,1126,1126],"ymouse":[487,487,487,487,487,487,487,487,487,487,487,487,487,487,487,487,487,487,487,487,487,487,487,487,487,487,487,487,487,487,487,487,487,487,487,487,487,487,487,487,478,459,442,375,353,337,320,284,268,253,239,227,201,180,171,164,158,132,115,96],"timestamp_mouse":[41,53,73,93,114,134,153,173,193,214,234,254,274,294,313,334,353,373,394,413,434,453,474,495,513,535,553,574,593,613,633,653,674,693,713,734,754,774,793,813,835,854,874,894,914,934,955,974,995,1014,1034,1054,1074,1093,1115,1135,1154,1174,1193,1213],"xSR":741.5,"ySR":469.95,"xT1":424.9,"yT1":0,"xT2":1058.1,"yT2":0,"toosoon":0,"cond_shown":"equaldotanddens","ratio_trial":250,"smaller_num":"5","larger_num":"20","correct_side":2,"subjID":"juandavidrativabernal25","gender":"0","age":"10","school":"6"},{"start_time":1551900321392,"click_time":1551900326201,"finger_time":1551900325959,"fix_duration":250,"trial":20,"RT":4567,"MT":242,"sideResp":1,"stimulus":"img/500/randomdotsizeEA/R/14_Ratio_500_L_5_R_10.png","xmouse":[803,803,803,803,803,803,803,803,803,803,803,803,803,803,803,803,803,803,803,803,803,803,803,803,803,803,803,803,803,803,803,803,803,803,803,803,803,803,803,803,803,803,803,803,803,803,803,803,803,803,803,803,803,803,803,803,803,803,803,803,803,803,803,803,803,803,803,803,803,803,803,803,803,803,803,803,803,803,803,803,803,803,803,803,803,803,803,803,803,803,803,803,803,803,803,803,803,803,803,803,803,803,803,803,803,803,803,803,803,803,803,803,803,803,803,803,803,803,803,803,803,803,803,803,803,803,803,803,803,803,803,803,803,803,803,803,803,803,803,803,803,803,803,803,803,803,803,803,803,803,803,803,803,803,803,803,803,803,803,803,803,803,803,803,803,803,803,803,803,803,803,803,803,803,803,803,803,803,803,803,803,803,803,803,803,803,803,803,803,803,803,803,803,803,803,803,803,803,803,803,803,803,803,803,803,803,803,803,803,803,803,803,803,803,803,803,803,803,803,803,803,803,803,803,803,803,803,803,803,789,746,746,746,746,746,746,746,746,746,746,450],"ymouse":[556,556,556,556,556,556,556,556,556,556,556,556,556,556,556,556,556,556,556,556,556,556,556,556,556,556,556,556,556,556,556,556,556,556,556,556,556,556,556,556,556,556,556,556,556,556,556,556,556,556,556,556,556,556,556,556,556,556,556,556,556,556,556,556,556,556,556,556,556,556,556,556,556,556,556,556,556,556,556,556,556,556,556,556,556,556,556,556,556,556,556,556,556,556,556,556,556,556,556,556,556,556,556,556,556,556,556,556,556,556,556,556,556,556,556,556,556,556,556,556,556,556,556,556,556,556,556,556,556,556,556,556,556,556,556,556,556,556,556,556,556,556,556,556,556,556,556,556,556,556,556,556,556,556,556,556,556,556,556,556,556,556,556,556,556,556,556,556,556,556,556,556,556,556,556,556,556,556,556,556,556,556,556,556,556,556,556,556,556,556,556,556,556,556,556,556,556,556,556,556,556,556,556,556,556,556,556,556,556,556,556,556,556,556,556,556,556,556,556,556,556,556,556,556,556,556,556,538,465,272,74,74,74,74,74,74,74,74,74,74,2],"timestamp_mouse":[11,28,64,68,87,107,127,147,167,187,207,228,249,267,287,309,328,348,368,388,408,428,448,468,488,507,528,549,567,587,607,628,647,667,687,708,729,748,768,787,807,828,848,868,887,908,928,947,967,988,1008,1028,1047,1067,1087,1107,1128,1148,1167,1187,1208,1229,1248,1269,1287,1307,1329,1347,1369,1387,1407,1427,1447,1469,1488,1508,1528,1548,1568,1588,1608,1628,1647,1668,1688,1708,1727,1747,1768,1788,1807,1827,1847,1867,1888,1908,1928,1949,1967,1987,2007,2027,2048,2069,2088,2107,2127,2148,2169,2187,2207,2228,2248,2268,2288,2307,2329,2347,2368,2387,2408,2429,2448,2468,2488,2508,2528,2548,2567,2587,2607,2628,2648,2668,2687,2707,2727,2748,2767,2787,2808,2827,2848,2868,2887,2907,2927,2948,2967,2987,3007,3027,3048,3069,3088,3107,3127,3148,3169,3187,3207,3227,3248,3267,3287,3308,3328,3348,3367,3388,3408,3428,3447,3467,3489,3508,3527,3547,3567,3588,3607,3627,3648,3668,3688,3707,3727,3748,3767,3788,3807,3827,3848,3867,3887,3908,3928,3948,3967,3987,4009,4028,4047,4068,4088,4108,4127,4147,4167,4188,4208,4228,4248,4268,4287,4307,4327,4347,4368,4387,4408,4429,4447,4467,4487,4509,4528,4547,4567,4588,4607,4629,4647,4669,4687,4707,4729,4747,4769,4788,4809],"xSR":741.5,"ySR":469.95,"xT1":424.9,"yT1":0,"xT2":1058.1,"yT2":0,"toosoon":0,"cond_shown":"randomdotsizeEA","ratio_trial":500,"smaller_num":"5","larger_num":"10","correct_side":2,"subjID":"juandavidrativabernal25","gender":"0","age":"10","school":"6"},{"start_time":1551900329142,"click_time":1551900330019,"finger_time":1551900329801,"fix_duration":536.5149006466687,"trial":21,"RT":659,"MT":218,"sideResp":1,"stimulus":"img/500/equaldotsize/L/10_Ratio_500_L_4_R_2.png","xmouse":[797,797,797,797,797,797,797,797,797,797,797,797,797,797,797,797,797,797,797,797,797,797,797,797,797,797,797,797,797,794,790,756,715,640,588,538,533,532,532,532,530,511,492],"ymouse":[528,528,528,528,528,528,528,528,528,528,528,528,528,528,528,528,528,528,528,528,528,528,528,528,528,528,528,528,528,520,512,458,398,287,209,136,129,127,127,126,124,112,98],"timestamp_mouse":[18,64,77,98,117,138,157,178,198,217,238,258,278,297,317,337,357,377,398,418,437,459,477,498,517,537,559,577,597,619,638,659,683,704,721,749,763,779,797,817,838,857,877],"xSR":741.5,"ySR":469.95,"xT1":424.9,"yT1":0,"xT2":1058.1,"yT2":0,"toosoon":0,"cond_shown":"equaldotsize","ratio_trial":500,"smaller_num":"2","larger_num":"4","correct_side":1,"subjID":"juandavidrativabernal25","gender":"0","age":"10","school":"6"},{"start_time":1551900332176,"click_time":1551900333679,"finger_time":1551900333000,"fix_duration":1155.7614191635273,"trial":22,"RT":824,"MT":679,"sideResp":2,"stimulus":"img/500/equaldotanddens/R/12_Ratio_500_L_1_R_2.png","xmouse":[789,791,791,791,791,791,791,791,791,791,791,791,791,791,791,791,791,791,791,791,791,791,791,791,791,791,791,791,791,791,791,791,791,791,791,791,791,791,791,791,811,836,872,893,909,913,920,926,937,946,960,973,978,981,982,985,999,1011,1026,1039,1052,1092,1111,1111,1111,1111,1111,1111,1111,1111,1111,1111,1111,1113,1115],"ymouse":[499,485,478,478,478,478,478,478,478,478,478,478,478,478,478,478,478,478,478,478,478,478,478,478,478,478,478,478,478,478,478,478,478,478,478,478,478,478,478,478,457,433,400,386,373,370,362,356,345,334,310,284,276,272,269,264,240,226,210,195,180,144,118,113,112,112,112,112,112,112,112,112,110,104,96],"timestamp_mouse":[13,23,76,83,103,123,144,165,185,204,223,243,263,284,309,324,344,364,384,405,423,443,464,484,503,523,544,564,584,605,624,644,663,683,703,723,744,764,784,803,824,849,871,890,903,923,943,963,983,1004,1023,1046,1064,1084,1104,1124,1144,1163,1185,1204,1223,1243,1264,1284,1304,1324,1343,1363,1384,1403,1423,1444,1463,1483,1503],"xSR":741.5,"ySR":469.95,"xT1":424.9,"yT1":0,"xT2":1058.1,"yT2":0,"toosoon":0,"cond_shown":"equaldotanddens","ratio_trial":500,"smaller_num":"1","larger_num":"2","correct_side":2,"subjID":"juandavidrativabernal25","gender":"0","age":"10","school":"6"},{"start_time":1551900337118,"click_time":1551900338148,"finger_time":1551900337679,"fix_duration":1195.1241239652443,"trial":23,"RT":561,"MT":469,"sideResp":1,"stimulus":"img/250/equaldotsize/L/15_Ratio_250_L_12_R_3.png","xmouse":[791,791,791,791,791,791,791,791,791,791,791,791,791,791,791,791,791,791,791,791,791,791,791,791,791,791,791,789,776,742,662,644,642,642,642,634,591,529,495,477,477,477,477,477,477,477,477,477,476,479,482,482],"ymouse":[531,531,531,531,531,531,531,531,531,531,531,531,531,531,531,531,531,531,531,531,531,531,531,531,531,531,531,524,448,350,194,170,168,168,168,167,156,143,137,131,130,130,130,130,130,130,130,130,129,120,109,88],"timestamp_mouse":[12,21,49,62,81,102,122,143,161,182,202,222,242,261,281,308,321,341,361,381,402,422,442,462,481,501,521,542,561,581,601,624,641,662,681,701,722,742,763,781,803,822,842,862,882,902,922,942,962,981,1003,1030],"xSR":741.5,"ySR":469.95,"xT1":424.9,"yT1":0,"xT2":1058.1,"yT2":0,"toosoon":0,"cond_shown":"equaldotsize","ratio_trial":250,"smaller_num":"3","larger_num":"12","correct_side":1,"subjID":"juandavidrativabernal25","gender":"0","age":"10","school":"6"},{"start_time":1551900339920,"click_time":1551900340639,"finger_time":1551900340399,"fix_duration":1019.3045017644253,"trial":24,"RT":479,"MT":240,"sideResp":1,"stimulus":"img/500/equaldotsize/L/11_Ratio_500_L_12_R_6.png","xmouse":[774,774,774,774,774,774,774,774,774,774,774,774,774,774,774,774,774,774,774,774,774,774,773,752,725,668,645,581,537,531,529,528,525,519,491,460],"ymouse":[517,517,517,517,517,517,517,517,517,517,517,517,517,517,517,517,517,517,517,517,517,517,505,440,382,298,268,198,160,154,150,147,142,133,100,83],"timestamp_mouse":[19,47,60,80,99,121,139,160,180,199,219,239,260,279,300,321,341,359,379,400,420,439,459,479,505,526,539,559,579,599,619,639,660,679,699,719],"xSR":741.5,"ySR":469.95,"xT1":424.9,"yT1":0,"xT2":1058.1,"yT2":0,"toosoon":0,"cond_shown":"equaldotsize","ratio_trial":500,"smaller_num":"6","larger_num":"12","correct_side":1,"subjID":"juandavidrativabernal25","gender":"0","age":"10","school":"6"},{"start_time":1551900342934,"click_time":1551900343979,"finger_time":1551900343759,"fix_duration":954.5160715239878,"trial":25,"RT":825,"MT":220,"sideResp":2,"stimulus":"img/900/equaldotanddens/R/6_Ratio_900_L_9_R_10.png","xmouse":[781,781,781,781,781,781,781,781,781,781,781,781,781,781,781,781,781,781,781,781,781,781,781,781,781,781,781,781,781,781,781,781,781,781,781,781,781,781,781,781,781,801,812,829,835,841,847,856,888,921,987,1060,1105],"ymouse":[479,479,479,479,479,479,479,479,479,479,479,479,479,479,479,479,479,479,479,479,479,479,479,479,479,479,479,479,479,479,479,479,479,479,479,479,479,479,479,479,479,410,372,322,310,300,290,283,255,229,181,128,97],"timestamp_mouse":[12,25,63,65,87,106,126,145,166,186,206,226,245,265,285,310,325,346,365,385,406,427,445,466,486,506,526,546,565,585,607,625,646,666,685,706,725,746,765,785,805,825,846,866,885,905,926,945,966,986,1005,1027,1045],"xSR":741.5,"ySR":469.95,"xT1":424.9,"yT1":0,"xT2":1058.1,"yT2":0,"toosoon":0,"cond_shown":"equaldotanddens","ratio_trial":900,"smaller_num":"9","larger_num":"10","correct_side":2,"subjID":"juandavidrativabernal25","gender":"0","age":"10","school":"6"},{"start_time":1551900346546,"click_time":1551900347601,"finger_time":1551900347239,"fix_duration":1444.9467613916695,"trial":26,"RT":693,"MT":362,"sideResp":2,"stimulus":"img/250/equaldotanddens/R/10_Ratio_250_L_4_R_16.png","xmouse":[778,778,778,778,778,778,778,778,778,778,778,778,778,778,778,778,778,778,778,778,778,778,775,769,765,764,764,764,764,764,764,764,764,785,831,890,983,1033,1111,1142,1159,1171,1180,1182,1182,1182,1181,1176,1175,1175,1175,1168,1145],"ymouse":[526,526,526,526,526,526,526,528,528,528,528,528,528,528,528,528,528,528,528,528,528,527,513,502,496,494,494,494,494,494,494,494,492,472,444,408,339,292,208,173,146,125,102,88,72,57,46,38,37,37,37,36,33],"timestamp_mouse":[13,44,54,73,93,114,134,154,174,194,214,233,253,274,294,336,336,353,374,395,413,435,454,473,493,513,534,554,574,593,614,634,654,673,693,713,733,753,773,794,813,833,854,876,893,914,933,954,973,993,1013,1034,1054],"xSR":741.5,"ySR":469.95,"xT1":424.9,"yT1":0,"xT2":1058.1,"yT2":0,"toosoon":0,"cond_shown":"equaldotanddens","ratio_trial":250,"smaller_num":"4","larger_num":"16","correct_side":2,"subjID":"juandavidrativabernal25","gender":"0","age":"10","school":"6"},{"start_time":1551900349824,"click_time":1551900350600,"finger_time":1551900350499,"fix_duration":922.0763657754167,"trial":27,"RT":675,"MT":101,"sideResp":1,"stimulus":"img/250/equaldotanddens/L/14_Ratio_250_L_12_R_3.png","xmouse":[790,790,790,790,790,790,790,790,790,790,790,790,790,790,790,790,790,790,790,790,790,790,790,790,790,790,790,790,790,790,790,790,748,688,622,622,492,457],"ymouse":[520,520,520,520,520,520,520,520,520,520,520,520,520,520,520,520,520,520,520,520,520,520,520,520,520,520,520,520,520,520,520,520,445,351,258,258,117,88],"timestamp_mouse":[17,55,76,96,115,135,155,175,196,215,235,256,276,296,316,336,356,375,396,415,435,456,476,495,515,535,555,576,595,616,635,655,675,700,721,737,756,776],"xSR":741.5,"ySR":469.95,"xT1":424.9,"yT1":0,"xT2":1058.1,"yT2":0,"toosoon":0,"cond_shown":"equaldotanddens","ratio_trial":250,"smaller_num":"3","larger_num":"12","correct_side":1,"subjID":"juandavidrativabernal25","gender":"0","age":"10","school":"6"},{"start_time":1551900353478,"click_time":1551900354599,"finger_time":1551900354220,"fix_duration":1298.527964168572,"trial":28,"RT":742,"MT":379,"sideResp":2,"stimulus":"img/900/equaldotsize/R/12_Ratio_900_L_18_R_20.png","xmouse":[800,800,800,800,800,800,800,800,800,800,800,800,800,800,800,800,800,800,800,800,800,800,800,800,800,800,800,800,800,800,800,800,800,800,800,806,828,861,911,930,943,945,946,946,946,963,980,984,990,992,1002,1011,1023,1037,1054,1101],"ymouse":[516,516,516,516,516,516,516,516,516,516,516,516,516,516,516,516,516,516,516,516,516,516,516,516,516,516,516,516,516,516,516,516,516,516,516,493,415,324,205,161,132,127,126,125,124,98,76,70,63,62,61,61,61,61,60,52],"timestamp_mouse":[12,21,42,84,101,121,142,163,182,201,221,241,261,282,309,321,343,362,382,402,421,442,461,481,502,521,541,562,582,602,621,642,663,681,702,723,742,762,784,801,821,844,862,881,902,922,944,962,982,1002,1022,1041,1061,1082,1102,1121],"xSR":741.5,"ySR":469.95,"xT1":424.9,"yT1":0,"xT2":1058.1,"yT2":0,"toosoon":0,"cond_shown":"equaldotsize","ratio_trial":900,"smaller_num":"18","larger_num":"20","correct_side":2,"subjID":"juandavidrativabernal25","gender":"0","age":"10","school":"6"},{"start_time":1551900357031,"click_time":1551900358040,"finger_time":1551900357699,"fix_duration":250,"trial":29,"RT":668,"MT":341,"sideResp":1,"stimulus":"img/900/equaldotanddens/L/8_Ratio_900_L_20_R_18.png","xmouse":[766,766,766,766,766,766,766,766,766,766,766,766,766,766,766,766,766,766,766,766,766,766,766,766,766,766,766,766,766,766,766,765,763,701,662,606,591,540,528,523,520,518,512,495,488,484,483,483,483,483,482],"ymouse":[554,554,554,554,554,554,554,554,554,554,554,554,554,554,554,554,554,554,554,554,554,554,554,554,554,554,554,554,554,554,554,554,537,341,279,213,201,174,169,167,167,166,163,156,153,152,151,149,131,112,85],"timestamp_mouse":[12,29,48,84,88,109,128,149,169,189,209,229,248,270,290,309,329,348,370,390,410,428,449,469,489,508,528,548,569,589,610,629,648,668,693,716,730,757,774,789,809,829,849,868,889,909,929,949,968,989,1009],"xSR":741.5,"ySR":469.95,"xT1":424.9,"yT1":0,"xT2":1058.1,"yT2":0,"toosoon":0,"cond_shown":"equaldotanddens","ratio_trial":900,"smaller_num":"18","larger_num":"20","correct_side":1,"subjID":"juandavidrativabernal25","gender":"0","age":"10","school":"6"},{"start_time":1551900360454,"click_time":1551900362040,"finger_time":1551900361399,"fix_duration":1372.6364999936966,"trial":30,"RT":945,"MT":641,"sideResp":2,"stimulus":"img/250/randomdotsizeEA/R/4_Ratio_250_L_3_R_12.png","xmouse":[785,785,785,785,785,785,785,785,785,785,785,785,785,785,785,785,785,785,785,785,785,785,785,785,785,785,785,785,785,785,785,785,785,785,785,785,783,770,764,758,756,755,755,755,755,755,755,755,765,782,807,815,818,818,818,818,818,818,818,818,818,818,818,818,818,818,818,818,819,825,834,865,897,912,930,957,994,1039,1055,1062],"ymouse":[554,554,554,554,554,554,554,554,554,554,554,554,554,554,554,554,554,554,554,554,554,554,554,554,554,554,554,554,554,554,554,554,554,554,554,553,543,508,493,482,478,477,477,477,476,476,471,454,434,404,368,357,353,353,353,353,353,353,353,353,353,353,353,353,353,353,353,342,309,280,253,201,164,151,140,128,116,103,98,98],"timestamp_mouse":[15,42,45,65,85,105,126,145,165,186,206,226,246,265,286,309,325,346,366,385,406,426,447,465,486,506,526,545,565,585,606,626,645,665,685,706,726,745,766,786,806,826,846,867,885,906,925,945,970,989,1006,1025,1046,1065,1085,1106,1125,1146,1165,1185,1205,1226,1245,1265,1285,1306,1327,1346,1366,1386,1405,1425,1446,1467,1485,1506,1526,1545,1566,1585],"xSR":741.5,"ySR":469.95,"xT1":424.9,"yT1":0,"xT2":1058.1,"yT2":0,"toosoon":0,"cond_shown":"randomdotsizeEA","ratio_trial":250,"smaller_num":"3","larger_num":"12","correct_side":2,"subjID":"juandavidrativabernal25","gender":"0","age":"10","school":"6"},{"start_time":1551900364185,"click_time":1551900365019,"finger_time":1551900364799,"fix_duration":984.7727491286416,"trial":31,"RT":614,"MT":220,"sideResp":2,"stimulus":"img/900/equaldotanddens/R/14_Ratio_900_L_18_R_20.png","xmouse":[758,758,758,758,758,758,758,758,758,758,758,758,758,758,758,758,758,758,758,758,758,758,758,758,758,758,758,757,768,848,893,943,994,1022,1034,1034,1034,1034,1034,1047,1066],"ymouse":[508,508,508,508,508,508,508,508,508,508,508,508,508,508,508,508,508,508,508,508,508,508,508,508,508,508,508,508,482,339,264,195,131,104,94,94,94,94,94,85,76],"timestamp_mouse":[48,55,74,94,114,134,155,174,196,215,235,256,276,296,315,335,354,374,396,415,434,454,475,494,515,534,555,575,594,614,639,657,676,694,715,735,756,775,795,815,834],"xSR":741.5,"ySR":469.95,"xT1":424.9,"yT1":0,"xT2":1058.1,"yT2":0,"toosoon":0,"cond_shown":"equaldotanddens","ratio_trial":900,"smaller_num":"18","larger_num":"20","correct_side":2,"subjID":"juandavidrativabernal25","gender":"0","age":"10","school":"6"},{"start_time":1551900367288,"click_time":1551900368440,"finger_time":1551900368180,"fix_duration":888.9941875238912,"trial":32,"RT":892,"MT":260,"sideResp":2,"stimulus":"img/250/randomdotsizeEA/R/10_Ratio_250_L_4_R_16.png","xmouse":[814,814,814,814,814,814,814,814,814,814,814,814,814,814,814,814,814,814,814,814,814,814,814,814,814,814,814,814,814,814,814,814,814,814,814,814,814,814,814,814,814,814,815,838,882,967,981,989,992,1006,1035,1048,1059,1071,1083,1099,1102,1102],"ymouse":[491,491,491,491,491,491,491,491,491,491,491,491,491,491,491,491,491,491,491,491,491,491,491,491,491,491,491,491,491,491,491,491,491,491,491,491,491,491,491,491,491,491,491,472,433,366,356,348,345,329,294,277,256,229,200,131,107,91],"timestamp_mouse":[15,45,52,71,92,112,131,151,173,192,212,232,252,271,291,311,331,351,372,391,411,432,451,471,491,511,532,551,571,591,612,632,651,673,692,711,731,751,771,792,812,831,852,871,892,911,937,960,974,994,1011,1031,1052,1073,1093,1111,1132,1152],"xSR":741.5,"ySR":469.95,"xT1":424.9,"yT1":0,"xT2":1058.1,"yT2":0,"toosoon":0,"cond_shown":"randomdotsizeEA","ratio_trial":250,"smaller_num":"4","larger_num":"16","correct_side":2,"subjID":"juandavidrativabernal25","gender":"0","age":"10","school":"6"},{"start_time":1551900370072,"click_time":1551900371239,"finger_time":1551900370740,"fix_duration":331.10583329468113,"trial":33,"RT":668,"MT":499,"sideResp":1,"stimulus":"img/250/equaldotsize/L/1_Ratio_250_L_8_R_2.png","xmouse":[761,761,761,761,761,761,761,761,761,761,761,761,761,761,761,761,761,761,761,761,761,761,761,761,761,761,761,761,761,761,762,762,754,726,699,626,596,578,561,548,520,513,505,493,476,451,449,449,449,449,449,449,450,450,451,457,462,473],"ymouse":[472,472,472,472,472,472,472,472,472,472,472,472,472,472,472,472,472,472,472,472,472,472,472,472,472,472,472,472,472,472,471,471,436,373,330,254,235,224,218,213,202,198,192,181,170,152,150,148,144,140,131,126,124,123,121,115,108,95],"timestamp_mouse":[18,64,68,87,107,127,147,168,187,208,229,248,267,287,308,328,348,368,387,409,427,447,468,488,507,528,547,567,587,607,627,649,668,689,708,728,748,767,788,808,828,848,868,888,908,928,948,969,987,1009,1028,1048,1068,1088,1108,1128,1148,1167],"xSR":741.5,"ySR":469.95,"xT1":424.9,"yT1":0,"xT2":1058.1,"yT2":0,"toosoon":0,"cond_shown":"equaldotsize","ratio_trial":250,"smaller_num":"2","larger_num":"8","correct_side":1,"subjID":"juandavidrativabernal25","gender":"0","age":"10","school":"6"},{"start_time":1551900372836,"click_time":1551900373780,"finger_time":1551900373401,"fix_duration":735.2481760945533,"trial":34,"RT":565,"MT":379,"sideResp":1,"stimulus":"img/250/equaldotsize/L/3_Ratio_250_L_8_R_2.png","xmouse":[810,810,810,810,810,810,810,810,810,810,810,810,810,810,810,810,810,810,810,810,810,810,810,810,810,810,809,768,739,706,699,687,681,675,668,659,648,625,616,612,610,607,596,584,566,540,514],"ymouse":[501,501,501,501,501,501,501,501,501,501,501,501,501,501,501,501,501,501,501,501,501,501,501,501,501,501,499,431,397,361,353,339,331,322,311,299,284,249,237,229,223,217,193,174,147,111,75],"timestamp_mouse":[11,50,64,84,103,124,144,164,184,204,223,244,264,283,308,325,344,365,383,403,424,445,464,484,503,525,545,565,587,611,623,646,663,683,703,723,744,763,784,804,824,843,864,883,903,923,944],"xSR":741.5,"ySR":469.95,"xT1":424.9,"yT1":0,"xT2":1058.1,"yT2":0,"toosoon":0,"cond_shown":"equaldotsize","ratio_trial":250,"smaller_num":"2","larger_num":"8","correct_side":1,"subjID":"juandavidrativabernal25","gender":"0","age":"10","school":"6"},{"start_time":1551900375630,"click_time":1551900376501,"finger_time":1551900376280,"fix_duration":1127.93067480042,"trial":35,"RT":650,"MT":221,"sideResp":1,"stimulus":"img/900/equaldotanddens/L/10_Ratio_900_L_20_R_18.png","xmouse":[768,768,768,768,768,768,768,768,768,768,768,768,768,768,768,768,768,768,768,768,768,768,768,768,768,768,768,768,768,768,768,764,756,731,715,715,705,692,677,654,625,574,501],"ymouse":[483,483,483,483,483,483,483,483,483,483,483,483,483,483,483,483,483,483,483,483,483,483,483,483,483,483,483,483,483,483,482,458,438,402,385,385,374,361,343,317,280,195,69],"timestamp_mouse":[12,53,70,89,110,130,150,171,190,210,231,250,270,290,310,331,351,370,390,410,430,449,470,490,510,531,550,570,589,611,630,650,670,694,717,730,750,770,790,810,829,850,871],"xSR":741.5,"ySR":469.95,"xT1":424.9,"yT1":0,"xT2":1058.1,"yT2":0,"toosoon":0,"cond_shown":"equaldotanddens","ratio_trial":900,"smaller_num":"18","larger_num":"20","correct_side":1,"subjID":"juandavidrativabernal25","gender":"0","age":"10","school":"6"},{"start_time":1551900378572,"click_time":1551900380080,"finger_time":1551900379020,"fix_duration":1011.519503794747,"trial":36,"RT":448,"MT":1060,"sideResp":2,"stimulus":"img/900/equaldotanddens/R/11_Ratio_900_L_18_R_20.png","xmouse":[794,794,794,794,794,794,794,794,794,794,794,794,794,794,794,794,794,794,794,794,794,794,776,732,645,620,585,573,573,573,573,573,571,570,568,567,565,565,565,564,561,554,552,551,551,551,551,551,551,551,551,551,551,551,551,551,551,553,623,760,1058,1333,1423,1424,1424,1424,1424,1424,1425,1425,1425,1415,1366,1290,1201,1130],"ymouse":[505,505,505,505,505,505,505,505,505,505,505,505,505,505,505,505,505,505,505,505,505,505,469,401,296,267,229,215,214,214,214,211,193,182,170,160,150,149,149,144,136,113,106,104,104,104,104,104,104,104,104,104,104,104,104,104,104,102,102,102,108,110,111,111,111,111,111,111,111,111,111,110,103,90,79,69],"timestamp_mouse":[14,28,64,68,87,109,128,148,168,188,209,228,248,273,289,308,327,348,367,387,408,428,448,468,489,508,528,548,568,588,609,627,648,668,688,708,729,749,767,789,808,828,847,868,887,908,928,948,968,987,1009,1028,1048,1068,1089,1109,1128,1147,1168,1189,1209,1235,1255,1269,1288,1308,1328,1348,1368,1389,1409,1428,1449,1468,1487,1507],"xSR":741.5,"ySR":469.95,"xT1":424.9,"yT1":0,"xT2":1058.1,"yT2":0,"toosoon":0,"cond_shown":"equaldotanddens","ratio_trial":900,"smaller_num":"18","larger_num":"20","correct_side":2,"subjID":"juandavidrativabernal25","gender":"0","age":"10","school":"6"},{"start_time":1551900382494,"click_time":1551900383420,"finger_time":1551900383081,"fix_duration":1451.666523619353,"trial":37,"RT":587,"MT":339,"sideResp":2,"stimulus":"img/900/equaldotsize/R/9_Ratio_900_L_18_R_20.png","xmouse":[809,809,809,809,809,809,809,809,809,810,810,810,810,810,810,810,810,810,810,810,810,810,810,810,810,811,813,827,839,843,846,846,859,868,893,904,913,927,938,961,974,990,1006,1019,1048,1064],"ymouse":[506,506,506,506,506,506,506,506,506,506,506,506,506,506,506,506,506,506,506,506,506,506,506,506,506,505,496,472,446,433,421,421,380,350,291,267,246,220,200,159,139,117,96,78,46,31],"timestamp_mouse":[12,51,67,86,106,127,146,166,187,206,226,245,266,287,308,326,346,366,386,406,426,446,467,486,505,526,546,567,587,613,633,646,666,687,706,726,746,767,786,806,826,846,866,886,905,926],"xSR":741.5,"ySR":469.95,"xT1":424.9,"yT1":0,"xT2":1058.1,"yT2":0,"toosoon":0,"cond_shown":"equaldotsize","ratio_trial":900,"smaller_num":"18","larger_num":"20","correct_side":2,"subjID":"juandavidrativabernal25","gender":"0","age":"10","school":"6"},{"start_time":1551900384721,"click_time":1551900385659,"finger_time":1551900385281,"fix_duration":560.9012280066838,"trial":38,"RT":560,"MT":378,"sideResp":2,"stimulus":"img/900/equaldotsize/R/14_Ratio_900_L_18_R_20.png","xmouse":[746,746,746,746,746,746,746,746,746,746,746,746,746,746,746,746,746,746,746,746,746,746,746,749,763,776,784,801,817,827,827,846,856,872,880,888,896,909,926,935,943,952,964,1007,1035,1060,1080],"ymouse":[537,537,537,537,537,537,537,537,537,537,537,537,537,537,537,537,537,537,537,537,537,537,537,533,511,492,478,450,423,403,403,360,337,293,275,258,244,226,206,195,185,175,163,135,119,106,98],"timestamp_mouse":[19,52,60,80,99,120,139,158,179,200,219,239,259,279,299,319,339,359,379,398,419,439,460,480,499,519,540,560,585,606,618,638,658,679,699,720,739,759,779,800,820,839,859,879,900,919,938],"xSR":741.5,"ySR":469.95,"xT1":424.9,"yT1":0,"xT2":1058.1,"yT2":0,"toosoon":0,"cond_shown":"equaldotsize","ratio_trial":900,"smaller_num":"18","larger_num":"20","correct_side":2,"subjID":"juandavidrativabernal25","gender":"0","age":"10","school":"6"},{"start_time":1551900387241,"click_time":1551900388300,"finger_time":1551900387881,"fix_duration":799.6103391425534,"trial":39,"RT":640,"MT":419,"sideResp":2,"stimulus":"img/900/randomdotsizeEA/R/3_Ratio_900_L_9_R_10.png","xmouse":[787,787,787,787,787,787,787,787,787,787,787,787,787,787,787,787,787,787,787,787,787,787,787,787,787,787,787,787,791,793,794,795,796,796,796,796,797,800,802,807,817,855,938,981,1011,1027,1040,1062,1073,1081,1096,1099,1115],"ymouse":[499,499,499,499,499,499,499,499,499,499,499,499,499,499,499,499,499,499,499,499,499,499,499,499,499,499,499,499,485,477,470,463,461,461,460,460,455,447,440,427,407,362,284,247,222,203,184,154,139,128,108,102,63],"timestamp_mouse":[20,39,71,79,99,119,139,159,178,199,219,239,259,279,300,319,338,358,378,399,419,439,459,479,499,519,539,559,579,599,619,640,665,685,700,718,738,759,779,799,820,840,860,879,899,920,940,959,979,998,1019,1039,1059],"xSR":741.5,"ySR":469.95,"xT1":424.9,"yT1":0,"xT2":1058.1,"yT2":0,"toosoon":0,"cond_shown":"randomdotsizeEA","ratio_trial":900,"smaller_num":"9","larger_num":"10","correct_side":2,"subjID":"juandavidrativabernal25","gender":"0","age":"10","school":"6"},{"start_time":1551900389994,"click_time":1551900390620,"finger_time":1551900390540,"fix_duration":732.8468562610501,"trial":40,"RT":546,"MT":80,"sideResp":1,"stimulus":"img/250/equaldotsize/L/15_Ratio_250_L_12_R_3.png","xmouse":[776,776,776,776,776,776,776,776,776,776,776,776,776,776,776,776,776,776,776,776,776,776,776,776,776,776,758,734,734,588,477],"ymouse":[503,503,503,503,503,503,503,503,503,503,503,503,503,503,503,503,503,503,503,503,503,503,503,503,503,503,429,374,374,173,44],"timestamp_mouse":[14,59,67,86,106,126,146,165,185,207,226,246,266,286,308,325,346,367,386,407,427,446,466,487,507,526,546,565,586,606,626],"xSR":741.5,"ySR":469.95,"xT1":424.9,"yT1":0,"xT2":1058.1,"yT2":0,"toosoon":0,"cond_shown":"equaldotsize","ratio_trial":250,"smaller_num":"3","larger_num":"12","correct_side":1,"subjID":"juandavidrativabernal25","gender":"0","age":"10","school":"6"},{"start_time":1551900392911,"click_time":1551900393842,"finger_time":1551900393580,"fix_duration":1409.7515386463367,"trial":41,"RT":669,"MT":262,"sideResp":2,"stimulus":"img/750/equaldotsize/R/2_Ratio_750_L_6_R_8.png","xmouse":[819,819,819,819,819,819,819,819,819,819,819,819,819,819,819,819,819,819,819,819,819,819,819,819,819,819,819,819,819,812,803,796,792,791,791,791,791,791,791,791,791,791,823,883,1031,1098,1145],"ymouse":[545,545,545,545,545,545,545,545,545,545,545,545,545,545,545,545,545,545,545,545,545,545,545,545,545,545,545,545,545,525,499,481,472,468,468,468,468,468,468,468,468,466,424,357,185,102,50],"timestamp_mouse":[11,29,65,69,89,109,128,149,169,189,210,230,249,269,290,310,329,350,369,389,410,429,449,470,489,508,529,549,569,588,610,628,649,669,689,712,731,750,769,789,809,829,849,869,889,910,931],"xSR":741.5,"ySR":469.95,"xT1":424.9,"yT1":0,"xT2":1058.1,"yT2":0,"toosoon":0,"cond_shown":"equaldotsize","ratio_trial":750,"smaller_num":"6","larger_num":"8","correct_side":2,"subjID":"juandavidrativabernal25","gender":"0","age":"10","school":"6"},{"start_time":1551900396060,"click_time":1551900396981,"finger_time":1551900396559,"fix_duration":1159.4887881610402,"trial":42,"RT":499,"MT":422,"sideResp":1,"stimulus":"img/250/equaldotanddens/L/3_Ratio_250_L_8_R_2.png","xmouse":[814,814,814,814,814,814,814,814,814,814,814,814,814,814,814,814,814,814,814,814,814,814,814,814,807,752,689,589,569,565,563,563,561,560,560,560,560,559,559,555,553,549,537,532,529,524,521],"ymouse":[510,510,510,510,510,510,510,510,510,510,510,510,510,510,510,510,510,510,510,510,510,510,510,510,500,449,404,327,304,293,287,281,268,263,258,254,247,220,200,178,162,146,120,112,108,103,99],"timestamp_mouse":[12,21,49,60,80,99,120,140,160,180,200,220,239,259,280,301,320,340,360,380,400,421,441,461,480,499,519,539,560,579,599,620,640,661,680,700,720,740,760,779,799,820,841,860,880,900,921],"xSR":741.5,"ySR":469.95,"xT1":424.9,"yT1":0,"xT2":1058.1,"yT2":0,"toosoon":0,"cond_shown":"equaldotanddens","ratio_trial":250,"smaller_num":"2","larger_num":"8","correct_side":1,"subjID":"juandavidrativabernal25","gender":"0","age":"10","school":"6"},{"start_time":1551900399302,"click_time":1551900400361,"finger_time":1551900400000,"fix_duration":1480.1165679567935,"trial":43,"RT":698,"MT":361,"sideResp":2,"stimulus":"img/750/equaldotanddens/R/12_Ratio_750_L_3_R_4.png","xmouse":[810,810,810,810,810,810,810,810,810,810,810,810,810,810,810,810,810,810,810,810,810,810,810,810,810,810,810,810,810,810,810,810,813,852,906,1011,1045,1129,1150,1160,1170,1178,1184,1190,1191,1191,1191,1191,1191,1187,1166,1143],"ymouse":[523,523,523,523,523,523,523,523,523,523,523,523,523,523,523,523,523,523,523,523,523,523,523,523,523,523,523,523,523,523,523,523,520,464,402,292,257,167,136,120,106,94,82,67,63,62,62,62,61,60,57,54],"timestamp_mouse":[44,58,79,98,118,138,158,178,198,219,239,258,278,298,319,337,358,378,398,418,438,458,478,498,518,539,558,578,598,618,638,658,678,698,721,742,758,785,805,818,838,859,878,897,917,938,959,978,998,1018,1038,1059],"xSR":741.5,"ySR":469.95,"xT1":424.9,"yT1":0,"xT2":1058.1,"yT2":0,"toosoon":0,"cond_shown":"equaldotanddens","ratio_trial":750,"smaller_num":"3","larger_num":"4","correct_side":2,"subjID":"juandavidrativabernal25","gender":"0","age":"10","school":"6"},{"start_time":1551900403162,"click_time":1551900404660,"finger_time":1551900403881,"fix_duration":259.5745486523723,"trial":44,"RT":719,"MT":779,"sideResp":1,"stimulus":"img/500/equaldotanddens/L/13_Ratio_500_L_12_R_6.png","xmouse":[808,808,808,808,808,808,808,808,808,808,808,808,808,808,808,808,808,808,808,808,808,808,808,808,808,808,808,808,808,808,808,805,789,769,746,735,732,732,727,718,705,638,591,553,529,521,521,521,521,521,521,521,521,521,521,519,518,518,518,518,518,523,523,523,523,522,519,518,517,515,511,488,463,440,431],"ymouse":[516,516,516,516,516,516,516,516,516,516,516,516,516,516,516,516,516,516,516,516,516,516,516,516,516,516,516,516,516,516,516,517,517,517,517,513,507,495,486,467,444,369,333,302,279,264,261,259,255,250,248,245,244,242,238,233,221,214,207,199,193,179,170,160,154,146,140,138,136,133,131,120,111,102,98],"timestamp_mouse":[18,56,58,79,98,119,138,158,178,198,219,238,259,278,299,319,338,359,378,398,419,437,458,478,498,518,537,558,578,598,618,637,657,678,699,719,743,764,780,799,818,838,858,879,899,918,938,958,978,998,1019,1038,1058,1079,1098,1117,1138,1158,1178,1198,1218,1238,1258,1278,1297,1318,1340,1359,1379,1399,1418,1438,1458,1479,1498],"xSR":741.5,"ySR":469.95,"xT1":424.9,"yT1":0,"xT2":1058.1,"yT2":0,"toosoon":0,"cond_shown":"equaldotanddens","ratio_trial":500,"smaller_num":"6","larger_num":"12","correct_side":1,"subjID":"juandavidrativabernal25","gender":"0","age":"10","school":"6"},{"start_time":1551900406433,"click_time":1551900407400,"finger_time":1551900406881,"fix_duration":792.6396891164993,"trial":45,"RT":448,"MT":519,"sideResp":1,"stimulus":"img/750/equaldotanddens/L/13_Ratio_750_L_8_R_6.png","xmouse":[767,767,767,767,767,767,767,767,767,767,767,767,767,767,767,767,767,767,767,766,764,758,750,737,730,710,699,688,684,681,673,658,642,595,579,569,563,560,559,558,557,556,556,555,555,555,555,550,524],"ymouse":[489,489,489,489,489,489,489,489,489,489,489,489,489,489,489,489,489,489,489,487,484,478,469,456,449,414,396,370,362,352,337,311,283,205,172,149,132,123,120,118,116,114,112,111,111,111,111,107,94],"timestamp_mouse":[11,28,57,66,86,106,127,146,167,187,208,227,247,267,287,308,327,347,366,388,408,427,448,468,488,507,528,547,567,587,607,627,646,666,687,707,728,748,767,787,808,826,848,867,887,908,928,947,967],"xSR":741.5,"ySR":469.95,"xT1":424.9,"yT1":0,"xT2":1058.1,"yT2":0,"toosoon":0,"cond_shown":"equaldotanddens","ratio_trial":750,"smaller_num":"6","larger_num":"8","correct_side":1,"subjID":"juandavidrativabernal25","gender":"0","age":"10","school":"6"},{"start_time":1551900409337,"click_time":1551900410320,"finger_time":1551900410061,"fix_duration":996.1005456554657,"trial":46,"RT":724,"MT":259,"sideResp":1,"stimulus":"img/750/randomdotsizeEA/R/2_Ratio_750_L_6_R_8.png","xmouse":[801,801,801,801,801,801,801,801,801,801,801,801,801,801,801,801,801,801,801,801,801,801,801,801,801,801,801,801,801,801,801,801,801,801,784,759,716,677,649,649,632,632,605,585,569,560,555,530,517],"ymouse":[498,498,498,498,498,498,498,498,498,498,498,498,498,498,498,498,498,498,498,498,498,498,498,498,498,498,498,498,498,498,498,498,498,498,480,439,367,314,283,283,261,261,224,196,169,155,143,108,93],"timestamp_mouse":[11,23,76,83,103,123,143,163,182,203,223,243,263,283,308,323,343,363,383,403,423,443,463,482,503,523,543,563,582,602,624,643,664,683,704,724,744,764,786,803,823,844,863,883,903,924,943,963,983],"xSR":741.5,"ySR":469.95,"xT1":424.9,"yT1":0,"xT2":1058.1,"yT2":0,"toosoon":0,"cond_shown":"randomdotsizeEA","ratio_trial":750,"smaller_num":"6","larger_num":"8","correct_side":2,"subjID":"juandavidrativabernal25","gender":"0","age":"10","school":"6"},{"start_time":1551900411810,"click_time":1551900412680,"finger_time":1551900412401,"fix_duration":409.2307821153849,"trial":47,"RT":591,"MT":279,"sideResp":1,"stimulus":"img/750/randomdotsizeEA/L/8_Ratio_750_L_4_R_3.png","xmouse":[788,788,788,788,788,788,788,788,788,788,788,788,788,788,788,788,788,788,788,788,788,788,788,788,788,788,789,789,758,645,602,569,565,561,549,537,522,506,490,465,459,454,451,446],"ymouse":[531,531,531,531,531,531,531,531,531,531,531,531,531,531,531,531,531,531,531,531,531,531,531,531,531,531,531,527,480,369,332,303,299,294,272,252,231,210,190,149,135,123,113,93],"timestamp_mouse":[12,32,55,70,90,110,130,150,171,190,210,230,250,270,290,310,330,350,370,390,410,430,449,470,490,509,531,551,570,591,613,635,652,670,697,709,730,750,770,790,810,829,850,870],"xSR":741.5,"ySR":469.95,"xT1":424.9,"yT1":0,"xT2":1058.1,"yT2":0,"toosoon":0,"cond_shown":"randomdotsizeEA","ratio_trial":750,"smaller_num":"3","larger_num":"4","correct_side":1,"subjID":"juandavidrativabernal25","gender":"0","age":"10","school":"6"},{"start_time":1551900414621,"click_time":1551900415820,"finger_time":1551900415339,"fix_duration":1018.5009702254567,"trial":48,"RT":718,"MT":481,"sideResp":2,"stimulus":"img/500/equaldotsize/R/1_Ratio_500_L_9_R_18.png","xmouse":[808,808,808,808,808,808,808,808,808,808,808,808,808,808,808,808,808,808,808,808,808,808,808,808,808,808,808,808,808,808,808,808,808,808,810,821,835,857,911,926,939,950,959,980,985,990,992,992,994,994,995,998,1009,1015,1030,1037,1043,1047,1057,1063],"ymouse":[483,483,483,483,483,483,483,483,483,483,483,483,483,483,483,483,483,483,483,483,483,483,483,483,483,483,483,483,483,483,483,483,483,483,479,448,412,365,267,239,217,196,175,118,97,80,72,66,59,57,54,48,32,26,21,20,19,19,19,19],"timestamp_mouse":[8,49,59,79,99,119,139,159,179,199,219,239,259,279,298,319,338,359,379,399,419,439,459,480,499,519,539,559,579,599,619,639,659,679,699,718,738,759,778,798,819,839,860,879,898,919,940,958,978,999,1019,1039,1060,1079,1098,1120,1139,1159,1179,1199],"xSR":741.5,"ySR":469.95,"xT1":424.9,"yT1":0,"xT2":1058.1,"yT2":0,"toosoon":0,"cond_shown":"equaldotsize","ratio_trial":500,"smaller_num":"9","larger_num":"18","correct_side":2,"subjID":"juandavidrativabernal25","gender":"0","age":"10","school":"6"},{"start_time":1551900419407,"click_time":1551900420360,"finger_time":1551900420060,"fix_duration":1186.2243634902488,"trial":49,"RT":653,"MT":300,"sideResp":1,"stimulus":"img/500/equaldotanddens/L/10_Ratio_500_L_4_R_2.png","xmouse":[779,779,779,779,779,779,779,779,779,779,779,779,779,779,779,779,779,779,779,779,779,779,779,779,779,779,779,779,779,779,779,778,761,741,679,666,646,644,643,640,633,623,607,578,555,548,532,522],"ymouse":[524,524,524,524,524,524,524,524,524,524,524,524,524,524,524,524,524,524,524,524,524,524,524,524,524,524,524,524,524,524,521,505,422,362,237,220,195,191,190,182,166,143,114,75,55,51,43,39],"timestamp_mouse":[15,40,53,73,93,113,133,152,173,193,213,233,253,272,293,313,334,353,373,393,413,433,454,473,492,514,542,553,573,593,613,633,653,673,693,713,733,752,773,793,812,833,852,873,894,914,935,953],"xSR":741.5,"ySR":469.95,"xT1":424.9,"yT1":0,"xT2":1058.1,"yT2":0,"toosoon":0,"cond_shown":"equaldotanddens","ratio_trial":500,"smaller_num":"2","larger_num":"4","correct_side":1,"subjID":"juandavidrativabernal25","gender":"0","age":"10","school":"6"},{"start_time":1551900421908,"click_time":1551900422721,"finger_time":1551900422501,"fix_duration":505.767803278061,"trial":50,"RT":593,"MT":220,"sideResp":1,"stimulus":"img/500/equaldotanddens/L/11_Ratio_500_L_12_R_6.png","xmouse":[764,764,764,764,764,764,764,764,764,764,764,764,764,764,764,764,764,764,764,764,764,764,764,764,764,764,764,757,737,702,669,631,596,590,581,568,546,486,463,442],"ymouse":[514,514,514,514,514,514,514,514,514,514,514,514,514,514,514,514,514,514,514,514,514,514,514,514,514,514,514,497,469,432,404,377,349,339,323,300,260,164,126,92],"timestamp_mouse":[12,55,72,92,112,132,152,171,191,212,231,252,272,292,312,332,352,372,391,412,432,452,471,492,512,532,553,572,593,614,635,652,673,694,712,732,752,774,793,813],"xSR":741.5,"ySR":469.95,"xT1":424.9,"yT1":0,"xT2":1058.1,"yT2":0,"toosoon":0,"cond_shown":"equaldotanddens","ratio_trial":500,"smaller_num":"6","larger_num":"12","correct_side":1,"subjID":"juandavidrativabernal25","gender":"0","age":"10","school":"6"},{"start_time":1551900424425,"click_time":1551900425460,"finger_time":1551900425060,"fix_duration":604.0815677714733,"trial":51,"RT":635,"MT":400,"sideResp":2,"stimulus":"img/500/equaldotsize/R/15_Ratio_500_L_1_R_2.png","xmouse":[773,773,773,773,773,773,773,773,773,773,773,773,773,773,773,773,773,773,773,773,773,773,773,773,773,773,773,773,773,797,821,864,931,942,956,959,969,989,997,1005,1012,1026,1032,1042,1049,1055,1067,1077,1085,1091,1096],"ymouse":[522,522,522,522,522,522,522,522,522,522,522,522,522,522,522,522,522,522,522,522,522,522,522,522,522,522,522,522,522,486,453,400,322,308,289,283,267,238,227,215,202,179,171,157,147,139,125,116,109,101,94],"timestamp_mouse":[14,57,74,95,115,135,155,175,195,215,235,256,275,296,316,335,356,375,395,415,435,455,475,495,515,534,555,575,595,615,635,654,675,699,721,737,754,775,795,815,835,854,875,895,915,936,954,976,995,1015,1035],"xSR":741.5,"ySR":469.95,"xT1":424.9,"yT1":0,"xT2":1058.1,"yT2":0,"toosoon":0,"cond_shown":"equaldotsize","ratio_trial":500,"smaller_num":"1","larger_num":"2","correct_side":2,"subjID":"juandavidrativabernal25","gender":"0","age":"10","school":"6"},{"start_time":1551900428225,"click_time":1551900429441,"finger_time":1551900428980,"fix_duration":463.0076216678325,"trial":52,"RT":755,"MT":461,"sideResp":2,"stimulus":"img/900/equaldotsize/R/5_Ratio_900_L_9_R_10.png","xmouse":[794,794,794,794,794,794,794,794,794,794,794,794,794,794,794,794,794,794,794,794,794,794,794,794,794,794,794,794,794,794,794,794,794,794,794,801,924,964,985,987,988,997,1007,1026,1040,1051,1058,1065,1068,1071,1072,1073,1076,1080,1082,1085,1092,1095,1097,1098],"ymouse":[533,533,533,533,533,533,533,533,533,533,533,533,533,533,533,533,533,533,533,533,533,533,533,533,533,533,533,533,533,533,533,533,533,533,533,512,363,319,291,289,285,270,255,219,196,178,167,153,148,145,142,141,135,129,125,120,107,103,100,98],"timestamp_mouse":[15,64,75,95,115,135,154,174,195,215,235,256,276,294,314,336,356,375,395,416,434,454,475,495,515,535,555,576,595,616,635,655,676,694,715,734,755,780,801,816,835,855,877,895,914,934,954,975,994,1014,1035,1054,1075,1095,1115,1136,1156,1176,1195,1216],"xSR":741.5,"ySR":469.95,"xT1":424.9,"yT1":0,"xT2":1058.1,"yT2":0,"toosoon":0,"cond_shown":"equaldotsize","ratio_trial":900,"smaller_num":"9","larger_num":"10","correct_side":2,"subjID":"juandavidrativabernal25","gender":"0","age":"10","school":"6"},{"start_time":1551900431134,"click_time":1551900432680,"finger_time":1551900432060,"fix_duration":752.7311464830881,"trial":53,"RT":926,"MT":620,"sideResp":1,"stimulus":"img/250/randomdotsizeEA/R/9_Ratio_250_L_3_R_12.png","xmouse":[814,814,814,814,814,814,814,814,814,814,814,814,814,814,814,814,814,814,814,814,814,814,814,814,814,814,814,814,814,814,814,814,814,814,814,814,814,814,814,814,814,814,814,814,810,799,771,747,732,732,732,732,732,732,732,732,732,732,732,727,722,714,700,693,682,671,658,621,599,576,546,529,516,515,513,513,511,500],"ymouse":[510,510,510,510,510,510,510,510,510,510,510,510,510,510,510,510,510,510,510,510,510,510,510,510,510,510,510,510,510,510,510,510,510,510,510,510,510,510,510,510,510,510,510,510,509,492,453,424,407,407,407,407,407,407,407,407,407,407,399,335,304,281,256,248,240,234,228,215,208,197,180,167,150,147,140,132,120,92],"timestamp_mouse":[11,25,65,66,85,105,126,146,166,185,206,226,245,266,286,308,326,346,366,386,407,426,445,466,487,506,527,545,566,586,606,626,646,667,686,706,726,746,766,787,807,826,846,866,885,906,926,947,967,986,1007,1026,1045,1066,1085,1105,1126,1146,1167,1185,1207,1226,1245,1265,1286,1306,1327,1346,1367,1386,1406,1426,1447,1467,1486,1505,1526,1545],"xSR":741.5,"ySR":469.95,"xT1":424.9,"yT1":0,"xT2":1058.1,"yT2":0,"toosoon":0,"cond_shown":"randomdotsizeEA","ratio_trial":250,"smaller_num":"3","larger_num":"12","correct_side":2,"subjID":"juandavidrativabernal25","gender":"0","age":"10","school":"6"},{"start_time":1551900434527,"click_time":1551900435839,"finger_time":1551900435040,"fix_duration":747.6977153526276,"trial":54,"RT":513,"MT":799,"sideResp":1,"stimulus":"img/900/equaldotsize/L/4_Ratio_900_L_20_R_18.png","xmouse":[778,778,778,778,778,778,778,778,778,778,778,778,778,778,778,778,778,778,778,778,778,778,778,778,802,818,862,885,887,887,887,887,887,886,877,844,674,562,443,294,256,250,250,250,250,250,250,250,251,264,286,320,334,342,344,344,344,344,344,344,344,358,387,415,438],"ymouse":[499,499,499,499,499,499,499,499,499,499,499,499,499,499,499,499,499,499,499,499,499,499,499,499,444,410,333,294,289,289,289,289,289,288,287,281,236,191,135,73,51,45,43,42,42,42,42,42,41,41,41,44,46,47,48,48,48,48,48,48,48,48,48,48,48],"timestamp_mouse":[13,32,80,92,112,132,151,172,192,211,232,252,272,293,312,332,352,371,391,412,431,452,472,492,513,532,552,572,592,612,632,652,673,693,712,731,752,772,791,811,832,851,872,892,912,932,952,972,992,1012,1033,1051,1072,1091,1113,1133,1152,1171,1192,1212,1231,1252,1274,1291,1312],"xSR":741.5,"ySR":469.95,"xT1":424.9,"yT1":0,"xT2":1058.1,"yT2":0,"toosoon":0,"cond_shown":"equaldotsize","ratio_trial":900,"smaller_num":"18","larger_num":"20","correct_side":1,"subjID":"juandavidrativabernal25","gender":"0","age":"10","school":"6"},{"start_time":1551900438264,"click_time":1551900439679,"finger_time":1551900439279,"fix_duration":1085.777570470185,"trial":55,"RT":1015,"MT":400,"sideResp":2,"stimulus":"img/900/randomdotsizeEA/R/7_Ratio_900_L_9_R_10.png","xmouse":[770,770,770,770,770,770,770,770,770,770,770,770,770,770,770,770,770,770,770,770,770,770,770,770,770,770,770,770,770,770,770,770,770,770,770,770,770,770,770,770,770,770,771,771,772,773,773,774,777,784,791,791,813,827,872,901,926,958,986,1015,1022,1027,1032,1035,1042,1051,1058,1067,1079,1098],"ymouse":[504,504,504,504,504,504,504,504,504,504,504,504,504,504,504,504,504,504,504,504,504,504,504,504,504,504,504,504,504,504,504,504,504,504,504,504,504,504,504,504,504,504,503,499,490,488,487,486,482,469,457,457,415,391,328,293,263,230,198,163,153,148,142,139,134,129,124,116,106,90],"timestamp_mouse":[14,56,75,94,115,135,154,175,195,215,235,256,274,296,314,335,355,375,395,415,434,454,475,495,515,534,555,575,595,615,635,655,674,694,716,735,755,774,794,815,835,855,875,894,915,935,955,976,995,1015,1040,1055,1075,1094,1114,1136,1155,1175,1196,1215,1235,1255,1274,1294,1314,1336,1355,1375,1395,1415],"xSR":741.5,"ySR":469.95,"xT1":424.9,"yT1":0,"xT2":1058.1,"yT2":0,"toosoon":0,"cond_shown":"randomdotsizeEA","ratio_trial":900,"smaller_num":"9","larger_num":"10","correct_side":2,"subjID":"juandavidrativabernal25","gender":"0","age":"10","school":"6"},{"start_time":1551900440691,"click_time":1551900442979,"finger_time":1551900441379,"fix_duration":250,"trial":56,"RT":688,"MT":1600,"sideResp":1,"stimulus":"img/750/randomdotsizeEA/L/6_Ratio_750_L_24_R_18.png","xmouse":[796,796,796,796,796,796,796,796,796,796,796,796,796,796,796,796,796,796,796,796,796,796,796,796,796,796,796,796,795,795,795,793,784,667,612,578,577,577,577,577,577,570,566,559,557,554,553,552,551,551,550,550,549,548,548,548,548,548,548,548,548,548,548,548,554,577,605,640,690,704,713,727,739,775,804,828,846,857,871,877,879,884,885,886,886,886,886,881,820,716,679,587,549,523,508,508,508,508,488,471,460,457,457,457,457,457,457,457,457,457,457,457,460,472],"ymouse":[541,541,541,541,541,541,541,541,541,541,541,541,541,541,541,541,541,541,541,541,541,541,541,541,541,541,541,541,542,542,542,541,533,468,449,440,440,440,440,440,429,377,351,308,289,274,264,260,255,254,252,249,247,245,245,245,245,245,245,245,245,245,245,245,244,244,244,244,244,244,244,244,240,221,209,199,192,189,185,184,181,176,176,175,175,175,175,174,167,155,148,124,113,106,102,102,102,102,102,102,101,101,101,101,101,101,101,101,101,101,101,101,100,97],"timestamp_mouse":[14,50,67,88,108,127,147,168,188,208,229,249,268,289,310,328,348,368,389,409,428,448,468,487,507,529,548,567,589,608,628,648,669,688,712,738,747,771,788,808,828,848,867,888,908,928,949,968,987,1007,1029,1048,1068,1088,1107,1129,1148,1168,1189,1207,1229,1248,1269,1288,1308,1328,1347,1368,1387,1407,1427,1449,1467,1487,1508,1528,1549,1568,1588,1608,1628,1648,1668,1688,1709,1729,1747,1767,1788,1807,1829,1847,1868,1887,1907,1929,1948,1968,1988,2008,2027,2048,2067,2088,2108,2129,2149,2168,2188,2208,2229,2247,2267,2288],"xSR":741.5,"ySR":469.95,"xT1":424.9,"yT1":0,"xT2":1058.1,"yT2":0,"toosoon":0,"cond_shown":"randomdotsizeEA","ratio_trial":750,"smaller_num":"18","larger_num":"24","correct_side":1,"subjID":"juandavidrativabernal25","gender":"0","age":"10","school":"6"},{"start_time":1551900445608,"click_time":1551900446999,"finger_time":1551900446439,"fix_duration":1347.9199089122048,"trial":57,"RT":831,"MT":560,"sideResp":2,"stimulus":"img/500/equaldotsize/R/6_Ratio_500_L_9_R_18.png","xmouse":[802,802,802,802,802,802,802,802,802,802,802,802,802,802,802,802,802,802,802,802,802,802,802,802,802,802,802,802,802,802,802,802,802,802,802,802,802,802,801,790,769,747,731,719,719,717,717,717,718,724,732,743,751,765,769,769,770,770,779,802,840,881,916,970,984,988,993,997,1031,1059],"ymouse":[525,525,525,525,525,525,525,525,525,525,525,525,525,525,525,525,525,525,525,525,525,525,525,525,525,525,525,525,525,525,525,525,525,525,525,525,525,525,521,509,483,454,434,413,413,409,407,404,385,368,348,330,315,293,285,281,280,280,271,255,222,182,151,104,94,91,87,86,82,78],"timestamp_mouse":[11,31,62,70,90,111,130,151,171,192,211,232,252,271,291,311,331,351,370,390,411,432,450,471,490,510,531,551,571,590,612,631,652,671,691,711,730,750,770,791,811,831,850,878,892,911,932,951,974,992,1011,1031,1052,1071,1091,1112,1131,1152,1172,1191,1211,1231,1250,1271,1291,1310,1331,1352,1371,1391],"xSR":741.5,"ySR":469.95,"xT1":424.9,"yT1":0,"xT2":1058.1,"yT2":0,"toosoon":0,"cond_shown":"equaldotsize","ratio_trial":500,"smaller_num":"9","larger_num":"18","correct_side":2,"subjID":"juandavidrativabernal25","gender":"0","age":"10","school":"6"},{"start_time":1551900448907,"click_time":1551900450760,"finger_time":1551900450059,"fix_duration":1247.6756694427625,"trial":58,"RT":1152,"MT":701,"sideResp":2,"stimulus":"img/900/randomdotsizeEA/L/4_Ratio_900_L_20_R_18.png","xmouse":[792,792,792,792,792,792,792,792,792,792,792,792,792,792,792,792,792,792,792,792,792,792,792,792,792,792,792,792,792,792,792,792,792,792,792,792,792,792,792,792,792,792,792,792,792,792,792,792,792,792,792,792,792,792,793,804,846,891,951,960,961,964,968,970,972,977,982,988,991,995,1001,1007,1017,1024,1032,1037,1040,1040,1040,1040,1040,1040,1040,1043,1050,1053,1053,1053,1053,1053,1053,1066],"ymouse":[524,524,524,524,524,524,524,524,524,524,524,524,524,524,524,524,524,524,524,524,524,524,524,524,524,524,524,524,524,524,524,524,524,524,524,524,524,524,524,524,524,524,524,524,524,524,524,524,524,524,524,524,524,524,510,490,435,381,305,283,279,268,249,235,220,201,183,160,152,139,126,116,99,87,74,66,60,60,60,60,60,60,60,57,53,51,51,51,51,51,51,51],"timestamp_mouse":[12,56,72,92,112,132,152,171,191,213,232,251,271,293,312,332,351,371,393,412,431,452,473,492,512,531,552,572,592,612,633,652,672,691,711,733,752,772,792,812,832,852,872,892,912,932,952,973,992,1012,1032,1052,1073,1092,1111,1132,1152,1172,1192,1212,1232,1253,1272,1294,1312,1333,1352,1372,1393,1413,1432,1453,1472,1491,1512,1532,1552,1572,1592,1611,1633,1652,1672,1692,1712,1732,1753,1772,1792,1812,1833,1853],"xSR":741.5,"ySR":469.95,"xT1":424.9,"yT1":0,"xT2":1058.1,"yT2":0,"toosoon":0,"cond_shown":"randomdotsizeEA","ratio_trial":900,"smaller_num":"18","larger_num":"20","correct_side":1,"subjID":"juandavidrativabernal25","gender":"0","age":"10","school":"6"},{"start_time":1551900453514,"click_time":1551900454660,"finger_time":1551900454339,"fix_duration":250,"trial":59,"RT":825,"MT":321,"sideResp":1,"stimulus":"img/750/equaldotanddens/L/9_Ratio_750_L_4_R_3.png","xmouse":[813,813,813,813,813,813,813,813,813,813,813,813,813,813,813,813,813,813,813,813,813,813,813,813,813,813,813,813,813,813,813,813,813,813,813,813,813,813,813,810,796,743,696,628,576,576,571,570,563,552,537,523,511,502,500,496,492,485],"ymouse":[539,539,539,539,539,539,539,539,539,539,539,539,539,539,539,539,539,539,539,539,539,539,539,539,539,539,539,539,539,539,539,539,539,539,539,539,539,539,539,536,515,442,388,333,293,293,289,287,276,262,243,228,210,184,167,141,114,90],"timestamp_mouse":[11,25,62,65,85,105,124,144,165,185,205,225,244,264,285,308,325,344,364,386,405,425,444,464,485,504,525,546,564,585,605,625,645,664,686,706,725,744,765,785,805,825,846,864,889,904,925,945,964,985,1004,1025,1045,1064,1086,1105,1124,1146],"xSR":741.5,"ySR":469.95,"xT1":424.9,"yT1":0,"xT2":1058.1,"yT2":0,"toosoon":0,"cond_shown":"equaldotanddens","ratio_trial":750,"smaller_num":"3","larger_num":"4","correct_side":1,"subjID":"juandavidrativabernal25","gender":"0","age":"10","school":"6"},{"start_time":1551900457441,"click_time":1551900458339,"finger_time":1551900457999,"fix_duration":600.3648813661935,"trial":60,"RT":558,"MT":340,"sideResp":1,"stimulus":"img/750/equaldotsize/R/3_Ratio_750_L_15_R_20.png","xmouse":[764,764,764,764,764,764,764,764,764,764,764,764,764,764,764,764,764,764,764,764,764,764,764,764,763,742,730,722,714,711,705,693,679,663,659,633,619,601,582,562,528,511,500,489],"ymouse":[509,509,509,509,509,509,509,509,509,509,509,509,509,509,509,509,509,509,509,509,509,509,509,509,506,470,455,446,433,428,419,398,379,356,348,304,280,255,228,199,151,127,108,90],"timestamp_mouse":[19,62,78,99,118,138,157,178,198,218,238,258,278,299,318,338,358,379,398,417,439,457,479,497,517,538,558,578,600,617,638,661,678,698,718,738,759,778,799,819,838,858,879,898],"xSR":741.5,"ySR":469.95,"xT1":424.9,"yT1":0,"xT2":1058.1,"yT2":0,"toosoon":0,"cond_shown":"equaldotsize","ratio_trial":750,"smaller_num":"15","larger_num":"20","correct_side":2,"subjID":"juandavidrativabernal25","gender":"0","age":"10","school":"6"},{"start_time":1551900460057,"click_time":1551900460699,"finger_time":1551900460579,"fix_duration":937.5111638079208,"trial":61,"RT":522,"MT":120,"sideResp":2,"stimulus":"img/250/equaldotsize/R/13_Ratio_250_L_2_R_8.png","xmouse":[797,797,797,797,797,797,797,797,797,797,797,797,797,797,797,797,797,797,797,797,797,797,797,797,799,806,896,946,995,1036,1062,1095,1104],"ymouse":[531,531,531,531,531,531,531,531,531,531,531,531,531,531,531,531,531,531,531,531,531,531,531,531,530,512,362,301,249,203,165,111,94],"timestamp_mouse":[12,21,52,62,81,103,122,142,161,181,203,222,241,261,282,309,322,342,362,382,402,422,442,462,482,502,522,546,567,589,603,621,642],"xSR":741.5,"ySR":469.95,"xT1":424.9,"yT1":0,"xT2":1058.1,"yT2":0,"toosoon":0,"cond_shown":"equaldotsize","ratio_trial":250,"smaller_num":"2","larger_num":"8","correct_side":2,"subjID":"juandavidrativabernal25","gender":"0","age":"10","school":"6"},{"start_time":1551900461790,"click_time":1551900462760,"finger_time":1551900462379,"fix_duration":250,"trial":62,"RT":589,"MT":381,"sideResp":1,"stimulus":"img/500/equaldotsize/L/4_Ratio_500_L_18_R_9.png","xmouse":[791,791,791,791,791,791,791,791,791,791,791,791,791,791,791,791,791,791,791,791,791,791,791,791,791,791,791,790,790,781,760,728,689,641,554,534,516,514,508,502,500,497,496,492,491,491,491,491,493],"ymouse":[517,517,517,517,517,517,517,517,517,517,517,517,517,517,517,517,517,517,517,517,517,517,517,517,517,517,517,516,510,468,436,396,357,319,251,232,211,208,198,188,185,179,177,170,150,133,116,100,86],"timestamp_mouse":[12,29,67,70,89,108,129,149,169,189,208,228,250,269,290,309,328,350,369,389,409,429,449,468,489,509,528,548,570,589,612,634,650,669,689,709,729,749,768,789,808,829,849,870,889,909,929,949,970],"xSR":741.5,"ySR":469.95,"xT1":424.9,"yT1":0,"xT2":1058.1,"yT2":0,"toosoon":0,"cond_shown":"equaldotsize","ratio_trial":500,"smaller_num":"9","larger_num":"18","correct_side":1,"subjID":"juandavidrativabernal25","gender":"0","age":"10","school":"6"},{"start_time":1551900464786,"click_time":1551900465859,"finger_time":1551900465418,"fix_duration":1166.1272866694635,"trial":63,"RT":632,"MT":441,"sideResp":2,"stimulus":"img/750/equaldotsize/R/3_Ratio_750_L_15_R_20.png","xmouse":[797,797,797,797,797,797,797,797,797,797,797,797,797,797,797,797,797,797,797,797,797,797,797,797,797,797,797,797,808,825,836,849,860,878,902,922,941,968,1020,1033,1039,1043,1045,1049,1050,1052,1054,1057,1062,1066,1070,1074,1078],"ymouse":[513,513,513,513,513,513,513,513,513,513,513,513,513,513,513,513,513,513,513,513,513,513,513,513,513,513,513,513,497,476,464,451,438,413,385,361,339,307,234,209,192,180,173,160,155,150,146,140,127,117,109,100,91],"timestamp_mouse":[45,53,73,93,112,132,152,172,193,212,233,253,273,293,313,332,353,373,393,413,433,453,473,493,512,533,553,574,593,612,632,654,673,693,713,732,753,773,793,814,833,854,873,894,914,933,952,972,993,1014,1032,1053,1073],"xSR":741.5,"ySR":469.95,"xT1":424.9,"yT1":0,"xT2":1058.1,"yT2":0,"toosoon":0,"cond_shown":"equaldotsize","ratio_trial":750,"smaller_num":"15","larger_num":"20","correct_side":2,"subjID":"juandavidrativabernal25","gender":"0","age":"10","school":"6"},{"start_time":1551900469467,"click_time":1551900470240,"finger_time":1551900469958,"fix_duration":1365.4380401716246,"trial":64,"RT":491,"MT":282,"sideResp":2,"stimulus":"img/900/equaldotsize/R/12_Ratio_900_L_18_R_20.png","xmouse":[817,817,817,817,817,817,817,817,817,817,817,817,817,817,817,817,817,817,817,817,817,817,817,799,775,750,747,747,747,752,761,777,825,843,984,1048,1100,1119],"ymouse":[521,521,521,521,521,521,521,521,521,521,521,521,521,521,521,521,521,521,521,521,521,520,516,452,388,335,327,325,323,311,294,272,221,204,145,121,103,92],"timestamp_mouse":[14,53,71,92,113,133,151,171,191,212,232,252,272,291,311,331,351,373,392,412,433,452,472,491,511,532,551,572,591,611,632,652,672,691,711,732,752,773],"xSR":741.5,"ySR":469.95,"xT1":424.9,"yT1":0,"xT2":1058.1,"yT2":0,"toosoon":0,"cond_shown":"equaldotsize","ratio_trial":900,"smaller_num":"18","larger_num":"20","correct_side":2,"subjID":"juandavidrativabernal25","gender":"0","age":"10","school":"6"},{"start_time":1551900471630,"click_time":1551900472479,"finger_time":1551900472119,"fix_duration":250,"trial":65,"RT":489,"MT":360,"sideResp":1,"stimulus":"img/250/equaldotsize/L/14_Ratio_250_L_12_R_3.png","xmouse":[807,807,807,807,807,807,807,807,807,807,807,807,807,807,807,807,807,807,807,807,807,807,807,796,764,706,525,276,214,206,204,204,204,204,204,204,204,204,204,232,288,368,496],"ymouse":[501,501,501,501,501,501,501,501,501,501,501,501,501,501,501,501,501,501,501,501,501,501,501,478,423,343,195,72,37,30,27,27,27,27,27,27,27,27,27,29,37,53,77],"timestamp_mouse":[13,45,48,69,89,109,128,148,169,189,209,229,249,269,288,308,328,348,369,389,408,429,449,469,489,509,529,548,571,590,609,630,649,669,690,709,729,749,770,789,809,829,849],"xSR":741.5,"ySR":469.95,"xT1":424.9,"yT1":0,"xT2":1058.1,"yT2":0,"toosoon":0,"cond_shown":"equaldotsize","ratio_trial":250,"smaller_num":"3","larger_num":"12","correct_side":1,"subjID":"juandavidrativabernal25","gender":"0","age":"10","school":"6"},{"start_time":1551900474304,"click_time":1551900475199,"finger_time":1551900475039,"fix_duration":763.3662358633177,"trial":66,"RT":735,"MT":160,"sideResp":2,"stimulus":"img/250/randomdotsizeEA/L/5_Ratio_250_L_24_R_6.png","xmouse":[796,796,796,796,796,796,796,796,796,796,796,796,796,796,796,796,796,796,796,796,796,796,796,796,796,796,796,796,796,796,796,796,796,796,803,823,871,965,996,1016,1031,1058,1066,1076],"ymouse":[496,496,496,496,496,496,496,496,496,496,496,496,496,496,496,496,496,496,496,496,496,496,496,496,496,496,496,496,496,496,496,496,496,496,488,465,406,282,238,208,183,132,115,99],"timestamp_mouse":[43,54,74,95,115,134,155,174,195,215,235,254,275,295,315,335,356,375,395,415,435,454,476,495,516,535,555,575,596,615,635,654,674,694,715,735,755,776,796,815,835,855,877,895],"xSR":741.5,"ySR":469.95,"xT1":424.9,"yT1":0,"xT2":1058.1,"yT2":0,"toosoon":0,"cond_shown":"randomdotsizeEA","ratio_trial":250,"smaller_num":"6","larger_num":"24","correct_side":1,"subjID":"juandavidrativabernal25","gender":"0","age":"10","school":"6"},{"start_time":1551900477076,"click_time":1551900477919,"finger_time":1551900477598,"fix_duration":975.3998200398903,"trial":67,"RT":522,"MT":321,"sideResp":1,"stimulus":"img/250/randomdotsizeEA/L/3_Ratio_250_L_8_R_2.png","xmouse":[774,774,774,774,774,774,774,774,774,774,774,774,774,774,774,774,774,774,774,774,774,774,774,772,745,717,694,675,661,632,619,606,594,587,579,578,576,572,569,543,528,514],"ymouse":[551,551,551,551,551,551,551,551,551,551,551,551,551,551,551,551,551,551,551,551,551,551,551,542,489,449,418,394,375,339,320,302,284,273,254,241,225,207,182,111,85,69],"timestamp_mouse":[11,53,63,82,102,124,143,163,182,203,224,243,263,284,308,322,342,363,383,403,423,443,463,482,502,522,542,565,582,602,622,642,663,682,702,724,743,763,783,803,823,842],"xSR":741.5,"ySR":469.95,"xT1":424.9,"yT1":0,"xT2":1058.1,"yT2":0,"toosoon":0,"cond_shown":"randomdotsizeEA","ratio_trial":250,"smaller_num":"2","larger_num":"8","correct_side":1,"subjID":"juandavidrativabernal25","gender":"0","age":"10","school":"6"},{"start_time":1551900479360,"click_time":1551900482479,"finger_time":1551900481698,"fix_duration":598.575399788709,"trial":68,"RT":2338,"MT":781,"sideResp":1,"stimulus":"img/500/equaldotanddens/L/13_Ratio_500_L_12_R_6.png","xmouse":[800,800,800,800,800,800,800,800,800,800,800,800,800,800,800,800,800,800,800,800,800,800,800,800,800,800,800,800,800,800,800,800,800,800,800,800,797,793,789,789,789,789,789,789,789,789,789,789,789,789,789,789,789,789,789,789,789,789,789,789,789,789,789,789,789,789,789,789,789,789,789,789,789,789,789,789,789,789,789,789,789,789,789,789,789,789,789,789,789,789,789,789,789,789,789,789,789,789,789,789,789,789,789,789,789,789,789,789,789,789,789,789,789,789,788,765,729,682,599,562,459,419,418,418,418,418,418,418,417,414,411,410,410,410,410,410,416,421,430,441,449,449,449,449,450,450,450,450,450,450,450,450,450,450,450,457],"ymouse":[524,524,524,524,524,524,524,524,524,524,524,524,524,524,524,524,524,524,524,524,524,524,524,524,524,524,524,524,524,524,524,524,524,524,524,523,521,519,517,517,517,517,517,517,517,517,517,517,517,517,517,517,517,517,517,517,517,517,517,517,517,517,517,517,517,517,517,517,517,517,517,517,517,517,517,517,517,517,517,517,517,517,517,517,517,517,517,517,517,517,517,517,517,517,517,517,517,517,517,517,517,517,517,517,517,517,517,517,517,517,517,517,517,517,516,487,461,431,380,357,301,283,282,282,282,282,280,279,275,262,254,248,246,245,245,243,230,2