[{"start_time":1551887706030,"click_time":1551887707583,"finger_time":1551887707143,"fix_duration":1323.6410482955105,"trial":0,"RT":1113,"MT":440,"sideResp":2,"stimulus":"img/900/randomdotsizeEA/R/13_Ratio_900_L_18_R_20.png","xmouse":[785,785,785,785,785,785,785,785,785,785,785,785,785,785,785,785,785,785,785,785,785,785,785,785,785,785,785,785,785,785,785,785,785,785,785,785,785,785,785,785,785,785,785,785,785,785,785,785,785,785,785,785,786,788,797,821,844,862,881,907,971,1001,1022,1043,1057,1086,1095,1102,1107,1109,1112,1114,1116,1117,1117,1119,1120,1121],"ymouse":[491,491,491,491,491,491,491,491,491,491,491,491,491,491,491,491,491,491,491,491,491,491,491,491,491,491,491,491,491,491,491,491,491,491,491,491,491,491,491,491,491,491,491,491,491,491,491,491,491,491,491,491,491,489,481,461,443,429,413,390,336,310,291,267,247,200,185,173,163,155,143,136,129,123,118,108,100,94],"timestamp_mouse":[13,34,52,72,94,112,132,153,173,192,213,234,253,273,294,314,333,353,374,392,412,432,454,474,494,513,532,553,572,594,612,633,653,673,694,713,733,754,772,794,812,834,853,873,892,914,934,954,972,994,1012,1034,1054,1073,1093,1113,1132,1152,1173,1193,1213,1232,1252,1273,1294,1313,1333,1352,1373,1393,1413,1434,1452,1473,1494,1512,1533,1552],"xSR":741.5,"ySR":469.95,"xT1":424.9,"yT1":0,"xT2":1058.1,"yT2":0,"toosoon":0,"cond_shown":"randomdotsizeEA","ratio_trial":900,"smaller_num":"18","larger_num":"20","correct_side":2,"subjID":"juandavidtrujillo","gender":"0","age":"11","school":"6","test":{"fix_dur":[250,1500],"timestim":300,"targets_dim":[100,100],"targets_relative_coord":[0.3,0.7],"size_stim":[880,420],"start_dim":[100,100],"size_start":[300,300],"size_fix":60,"samplingrate":20,"img_types":["equaldotsize","equaldotanddens","randomdotsizeEA"],"ratios":[250,500,750,900],"rep_conds":9,"nTrials":120,"trials_to_rest":500,"Trials_order":[119,0,24,117,44,51,106,14,28,33,61,79,64,108,69,59,74,116,97,87,91,15,20,53,9,16,114,73,118,112,66,57,22,48,86,102,32,115,38,83,63,12,40,29,26,68,82,72,113,110,43,96,81,35,85,76,46,80,77,6,3,7,41,103,65,23,50,56,13,2,62,90,27,75,71,37,93,36,94,98,4,89,104,25,111,70,8,55,58,1,45,88,19,42,11,105,49,95,67,17,21,52,101,92,99,5,109,54,18,31,107,100,84,10,78,60,39,47,30,34],"cond_shown":["randomdotsizeEA","equaldotsize","equaldotsize","equaldotsize","randomdotsizeEA","equaldotsize","equaldotanddens","randomdotsizeEA","equaldotanddens","equaldotsize","equaldotanddens","equaldotanddens","equaldotanddens","equaldotsize","equaldotsize","randomdotsizeEA","randomdotsizeEA","randomdotsizeEA","equaldotanddens","equaldotsize","equaldotanddens","equaldotsize","randomdotsizeEA","randomdotsizeEA","equaldotsize","equaldotanddens","equaldotsize","equaldotanddens","equaldotanddens","equaldotanddens","equaldotsize","equaldotsize","equaldotanddens","equaldotsize","randomdotsizeEA","equaldotsize","randomdotsizeEA","equaldotanddens","randomdotsizeEA","randomdotsizeEA","equaldotsize","equaldotsize","equaldotanddens","randomdotsizeEA","randomdotsizeEA","randomdotsizeEA","equaldotanddens","equaldotsize","randomdotsizeEA","randomdotsizeEA","equaldotanddens","equaldotsize","equaldotsize","randomdotsizeEA","equaldotanddens","equaldotanddens","equaldotanddens","randomdotsizeEA","randomdotsizeEA","equaldotsize","equaldotsize","equaldotanddens","randomdotsizeEA","equaldotanddens","randomdotsizeEA","randomdotsizeEA","randomdotsizeEA","randomdotsizeEA","equaldotanddens","randomdotsizeEA","randomdotsizeEA","equaldotsize","equaldotsize","equaldotsize","randomdotsizeEA","equaldotanddens","equaldotsize","equaldotsize","equaldotanddens","randomdotsizeEA","equaldotanddens","randomdotsizeEA","randomdotsizeEA","equaldotanddens","equaldotsize","equaldotanddens","randomdotsizeEA","equaldotanddens","equaldotanddens","equaldotanddens","equaldotsize","equaldotanddens","equaldotanddens","equaldotsize","randomdotsizeEA","equaldotsize","equaldotanddens","randomdotsizeEA","equaldotanddens","randomdotsizeEA","equaldotsize","equaldotanddens","randomdotsizeEA","randomdotsizeEA","equaldotsize","randomdotsizeEA","equaldotanddens","equaldotsize","equaldotsize","equaldotanddens","randomdotsizeEA","equaldotanddens","equaldotsize","equaldotanddens","equaldotsize","equaldotsize","equaldotsize","randomdotsizeEA","equaldotsize","equaldotanddens"],"ratio_trial":[900,250,250,900,750,500,900,250,500,900,250,750,500,250,900,900,250,750,250,500,750,500,750,500,900,500,750,250,900,500,750,900,900,250,250,750,750,750,250,900,500,250,500,500,250,750,900,250,500,250,750,250,900,900,250,500,900,750,500,750,500,750,500,750,500,900,250,750,250,250,250,750,500,500,900,250,900,250,900,250,500,500,750,250,500,900,750,750,900,250,900,500,750,750,900,900,250,900,750,500,900,500,500,750,500,500,250,750,750,750,900,500,250,900,750,250,500,900,750,900],"smaller_num":["18","6","2","9","3","6","18","2","5","18","2","15","10","5","18","18","3","6","3","5","6","1","6","4","9","2","6","6","18","3","3","9","9","5","3","15","3","3","3","9","1","3","2","4","1","6","18","3","2","2","3","2","18","9","3","9","9","15","2","15","5","6","9","15","9","9","3","3","2","4","2","15","1","2","18","4","18","4","18","3","9","5","3","2","2","18","6","3","18","6","18","1","6","12","18","18","6","9","12","3","18","2","9","18","9","5","2","15","15","15","9","10","3","9","3","6","2","18","12","18"],"larger_num":["20","24","8","10","4","12","20","8","10","20","8","20","20","20","20","20","12","8","12","10","8","2","8","8","10","4","8","24","20","6","4","10","10","20","12","20","4","4","12","10","2","12","4","8","4","8","20","12","4","8","4","8","20","10","12","18","10","20","4","20","10","8","18","20","18","10","12","4","8","16","8","20","2","4","20","16","20","16","20","12","18","10","4","8","4","20","8","4","20","24","20","2","8","16","20","20","24","10","16","6","20","4","18","24","18","10","8","20","20","20","10","20","12","10","4","24","4","20","16","20"],"correct_side":[2,1,1,2,1,1,1,1,1,2,1,2,2,2,1,2,1,1,2,1,2,2,1,1,2,2,2,1,1,2,1,2,2,2,1,1,1,1,1,2,2,2,2,1,2,2,1,2,1,1,1,2,1,2,2,2,2,2,2,2,1,1,2,2,2,1,2,1,1,1,1,2,2,1,1,2,1,2,2,2,1,2,1,1,1,1,1,1,1,2,2,2,1,2,2,1,1,1,2,2,1,2,2,1,2,1,1,2,2,1,2,2,1,1,2,2,2,1,2,1],"img_shown":["img/900/randomdotsizeEA/R/13_Ratio_900_L_18_R_20.png","img/250/equaldotsize/L/5_Ratio_250_L_24_R_6.png","img/250/equaldotsize/L/7_Ratio_250_L_8_R_2.png","img/900/equaldotsize/R/5_Ratio_900_L_9_R_10.png","img/750/randomdotsizeEA/L/8_Ratio_750_L_4_R_3.png","img/500/equaldotsize/L/13_Ratio_500_L_12_R_6.png","img/900/equaldotanddens/L/8_Ratio_900_L_20_R_18.png","img/250/randomdotsizeEA/L/7_Ratio_250_L_8_R_2.png","img/500/equaldotanddens/L/7_Ratio_500_L_10_R_5.png","img/900/equaldotsize/R/9_Ratio_900_L_18_R_20.png","img/250/equaldotanddens/L/7_Ratio_250_L_8_R_2.png","img/750/equaldotanddens/R/4_Ratio_750_L_15_R_20.png","img/500/equaldotanddens/R/3_Ratio_500_L_10_R_20.png","img/250/equaldotsize/R/12_Ratio_250_L_5_R_20.png","img/900/equaldotsize/L/10_Ratio_900_L_20_R_18.png","img/900/randomdotsizeEA/R/13_Ratio_900_L_18_R_20.png","img/250/randomdotsizeEA/L/15_Ratio_250_L_12_R_3.png","img/750/randomdotsizeEA/L/14_Ratio_750_L_8_R_6.png","img/250/equaldotanddens/R/9_Ratio_250_L_3_R_12.png","img/500/equaldotsize/L/7_Ratio_500_L_10_R_5.png","img/750/equaldotanddens/R/2_Ratio_750_L_6_R_8.png","img/500/equaldotsize/R/12_Ratio_500_L_1_R_2.png","img/750/randomdotsizeEA/L/13_Ratio_750_L_8_R_6.png","img/500/randomdotsizeEA/L/8_Ratio_500_L_8_R_4.png","img/900/equaldotsize/R/5_Ratio_900_L_9_R_10.png","img/500/equaldotanddens/R/9_Ratio_500_L_2_R_4.png","img/750/equaldotsize/R/2_Ratio_750_L_6_R_8.png","img/250/equaldotanddens/L/5_Ratio_250_L_24_R_6.png","img/900/equaldotanddens/L/2_Ratio_900_L_20_R_18.png","img/500/equaldotanddens/R/2_Ratio_500_L_3_R_6.png","img/750/equaldotsize/L/9_Ratio_750_L_4_R_3.png","img/900/equaldotsize/R/5_Ratio_900_L_9_R_10.png","img/900/equaldotanddens/R/6_Ratio_900_L_9_R_10.png","img/250/equaldotsize/R/12_Ratio_250_L_5_R_20.png","img/250/randomdotsizeEA/L/14_Ratio_250_L_12_R_3.png","img/750/equaldotsize/L/1_Ratio_750_L_20_R_15.png","img/750/randomdotsizeEA/L/9_Ratio_750_L_4_R_3.png","img/750/equaldotanddens/L/8_Ratio_750_L_4_R_3.png","img/250/randomdotsizeEA/L/14_Ratio_250_L_12_R_3.png","img/900/randomdotsizeEA/R/7_Ratio_900_L_9_R_10.png","img/500/equaldotsize/R/15_Ratio_500_L_1_R_2.png","img/250/equaldotsize/R/4_Ratio_250_L_3_R_12.png","img/500/equaldotanddens/R/9_Ratio_500_L_2_R_4.png","img/500/randomdotsizeEA/L/8_Ratio_500_L_8_R_4.png","img/250/randomdotsizeEA/R/8_Ratio_250_L_1_R_4.png","img/750/randomdotsizeEA/R/2_Ratio_750_L_6_R_8.png","img/900/equaldotanddens/L/8_Ratio_900_L_20_R_18.png","img/250/equaldotsize/R/4_Ratio_250_L_3_R_12.png","img/500/randomdotsizeEA/L/5_Ratio_500_L_4_R_2.png","img/250/randomdotsizeEA/L/1_Ratio_250_L_8_R_2.png","img/750/equaldotanddens/L/8_Ratio_750_L_4_R_3.png","img/250/equaldotsize/R/13_Ratio_250_L_2_R_8.png","img/900/equaldotsize/L/4_Ratio_900_L_20_R_18.png","img/900/randomdotsizeEA/R/5_Ratio_900_L_9_R_10.png","img/250/equaldotanddens/R/11_Ratio_250_L_3_R_12.png","img/500/equaldotanddens/R/6_Ratio_500_L_9_R_18.png","img/900/equaldotanddens/R/3_Ratio_900_L_9_R_10.png","img/750/randomdotsizeEA/R/4_Ratio_750_L_15_R_20.png","img/500/randomdotsizeEA/R/9_Ratio_500_L_2_R_4.png","img/750/equaldotsize/R/4_Ratio_750_L_15_R_20.png","img/500/equaldotsize/L/7_Ratio_500_L_10_R_5.png","img/750/equaldotanddens/L/13_Ratio_750_L_8_R_6.png","img/500/randomdotsizeEA/R/6_Ratio_500_L_9_R_18.png","img/750/equaldotanddens/R/5_Ratio_750_L_15_R_20.png","img/500/randomdotsizeEA/R/6_Ratio_500_L_9_R_18.png","img/900/randomdotsizeEA/L/1_Ratio_900_L_10_R_9.png","img/250/randomdotsizeEA/R/4_Ratio_250_L_3_R_12.png","img/750/randomdotsizeEA/L/9_Ratio_750_L_4_R_3.png","img/250/equaldotanddens/L/1_Ratio_250_L_8_R_2.png","img/250/randomdotsizeEA/L/2_Ratio_250_L_16_R_4.png","img/250/randomdotsizeEA/L/1_Ratio_250_L_8_R_2.png","img/750/equaldotsize/R/4_Ratio_750_L_15_R_20.png","img/500/equaldotsize/R/15_Ratio_500_L_1_R_2.png","img/500/equaldotsize/L/5_Ratio_500_L_4_R_2.png","img/900/randomdotsizeEA/L/10_Ratio_900_L_20_R_18.png","img/250/equaldotanddens/R/10_Ratio_250_L_4_R_16.png","img/900/equaldotsize/L/4_Ratio_900_L_20_R_18.png","img/250/equaldotsize/R/10_Ratio_250_L_4_R_16.png","img/900/equaldotanddens/R/11_Ratio_900_L_18_R_20.png","img/250/randomdotsizeEA/R/4_Ratio_250_L_3_R_12.png","img/500/equaldotanddens/L/4_Ratio_500_L_18_R_9.png","img/500/randomdotsizeEA/R/14_Ratio_500_L_5_R_10.png","img/750/randomdotsizeEA/L/10_Ratio_750_L_4_R_3.png","img/250/equaldotanddens/L/1_Ratio_250_L_8_R_2.png","img/500/equaldotsize/L/10_Ratio_500_L_4_R_2.png","img/900/equaldotanddens/L/8_Ratio_900_L_20_R_18.png","img/750/randomdotsizeEA/L/14_Ratio_750_L_8_R_6.png","img/750/equaldotanddens/L/10_Ratio_750_L_4_R_3.png","img/900/equaldotanddens/L/4_Ratio_900_L_20_R_18.png","img/250/equaldotanddens/R/6_Ratio_250_L_6_R_24.png","img/900/equaldotsize/R/14_Ratio_900_L_18_R_20.png","img/500/equaldotanddens/R/15_Ratio_500_L_1_R_2.png","img/750/equaldotanddens/L/13_Ratio_750_L_8_R_6.png","img/750/equaldotsize/R/11_Ratio_750_L_12_R_16.png","img/900/randomdotsizeEA/R/12_Ratio_900_L_18_R_20.png","img/900/equaldotsize/L/8_Ratio_900_L_20_R_18.png","img/250/equaldotanddens/L/5_Ratio_250_L_24_R_6.png","img/900/randomdotsizeEA/L/1_Ratio_900_L_10_R_9.png","img/750/equaldotanddens/R/11_Ratio_750_L_12_R_16.png","img/500/randomdotsizeEA/R/2_Ratio_500_L_3_R_6.png","img/900/equaldotsize/L/4_Ratio_900_L_20_R_18.png","img/500/equaldotanddens/R/9_Ratio_500_L_2_R_4.png","img/500/randomdotsizeEA/R/1_Ratio_500_L_9_R_18.png","img/750/randomdotsizeEA/L/6_Ratio_750_L_24_R_18.png","img/500/equaldotsize/R/6_Ratio_500_L_9_R_18.png","img/500/randomdotsizeEA/L/7_Ratio_500_L_10_R_5.png","img/250/equaldotanddens/L/3_Ratio_250_L_8_R_2.png","img/750/equaldotsize/R/3_Ratio_750_L_15_R_20.png","img/750/equaldotsize/R/3_Ratio_750_L_15_R_20.png","img/750/equaldotanddens/L/1_Ratio_750_L_20_R_15.png","img/900/randomdotsizeEA/R/5_Ratio_900_L_9_R_10.png","img/500/equaldotanddens/R/3_Ratio_500_L_10_R_20.png","img/250/equaldotsize/L/14_Ratio_250_L_12_R_3.png","img/900/equaldotanddens/L/1_Ratio_900_L_10_R_9.png","img/750/equaldotsize/R/12_Ratio_750_L_3_R_4.png","img/250/equaldotsize/R/6_Ratio_250_L_6_R_24.png","img/500/equaldotsize/R/9_Ratio_500_L_2_R_4.png","img/900/randomdotsizeEA/L/4_Ratio_900_L_20_R_18.png","img/750/equaldotsize/R/11_Ratio_750_L_12_R_16.png","img/900/equaldotanddens/L/8_Ratio_900_L_20_R_18.png"],"Rat0":[["12_Ratio_0_L_9_R_0.png","13_Ratio_0_L_6_R_0.png","5_Ratio_0_L_2_R_0.png","6_Ratio_0_L_4_R_0.png","8_Ratio_0_L_6_R_0.png"],["1_Ratio_0_L_0_R_17.png","10_Ratio_0_L_0_R_22.png","11_Ratio_0_L_0_R_1.png","14_Ratio_0_L_0_R_24.png","15_Ratio_0_L_0_R_4.png","2_Ratio_0_L_0_R_5.png","3_Ratio_0_L_0_R_17.png","4_Ratio_0_L_0_R_7.png","7_Ratio_0_L_0_R_19.png","9_Ratio_0_L_0_R_15.png"]],"Rat250":[["1_Ratio_250_L_8_R_2.png","14_Ratio_250_L_12_R_3.png","15_Ratio_250_L_12_R_3.png","2_Ratio_250_L_16_R_4.png","3_Ratio_250_L_8_R_2.png","5_Ratio_250_L_24_R_6.png","7_Ratio_250_L_8_R_2.png"],["10_Ratio_250_L_4_R_16.png","11_Ratio_250_L_3_R_12.png","12_Ratio_250_L_5_R_20.png","13_Ratio_250_L_2_R_8.png","4_Ratio_250_L_3_R_12.png","6_Ratio_250_L_6_R_24.png","8_Ratio_250_L_1_R_4.png","9_Ratio_250_L_3_R_12.png"]],"Rat500":[["10_Ratio_500_L_4_R_2.png","11_Ratio_500_L_12_R_6.png","13_Ratio_500_L_12_R_6.png","4_Ratio_500_L_18_R_9.png","5_Ratio_500_L_4_R_2.png","7_Ratio_500_L_10_R_5.png","8_Ratio_500_L_8_R_4.png"],["1_Ratio_500_L_9_R_18.png","12_Ratio_500_L_1_R_2.png","14_Ratio_500_L_5_R_10.png","15_Ratio_500_L_1_R_2.png","2_Ratio_500_L_3_R_6.png","3_Ratio_500_L_10_R_20.png","6_Ratio_500_L_9_R_18.png","9_Ratio_500_L_2_R_4.png"]],"Rat750":[["1_Ratio_750_L_20_R_15.png","10_Ratio_750_L_4_R_3.png","13_Ratio_750_L_8_R_6.png","14_Ratio_750_L_8_R_6.png","6_Ratio_750_L_24_R_18.png","8_Ratio_750_L_4_R_3.png","9_Ratio_750_L_4_R_3.png"],["11_Ratio_750_L_12_R_16.png","12_Ratio_750_L_3_R_4.png","15_Ratio_750_L_9_R_12.png","2_Ratio_750_L_6_R_8.png","3_Ratio_750_L_15_R_20.png","4_Ratio_750_L_15_R_20.png","5_Ratio_750_L_15_R_20.png","7_Ratio_750_L_3_R_4.png"]],"Rat900":[["1_Ratio_900_L_10_R_9.png","10_Ratio_900_L_20_R_18.png","2_Ratio_900_L_20_R_18.png","4_Ratio_900_L_20_R_18.png","8_Ratio_900_L_20_R_18.png"],["11_Ratio_900_L_18_R_20.png","12_Ratio_900_L_18_R_20.png","13_Ratio_900_L_18_R_20.png","14_Ratio_900_L_18_R_20.png","15_Ratio_900_L_9_R_10.png","3_Ratio_900_L_9_R_10.png","5_Ratio_900_L_9_R_10.png","6_Ratio_900_L_9_R_10.png","7_Ratio_900_L_9_R_10.png","9_Ratio_900_L_18_R_20.png"]],"Rat1000":[["10_Ratio_1000_L_16_R_16.png","11_Ratio_1000_L_6_R_6.png","12_Ratio_1000_L_14_R_14.png","13_Ratio_1000_L_20_R_20.png","15_Ratio_1000_L_15_R_15.png","2_Ratio_1000_L_17_R_17.png","4_Ratio_1000_L_9_R_9.png","5_Ratio_1000_L_6_R_6.png","6_Ratio_1000_L_19_R_19.png","8_Ratio_1000_L_14_R_14.png","9_Ratio_1000_L_25_R_25.png"],["1_Ratio_1000_L_1_R_1.png","14_Ratio_1000_L_17_R_17.png","3_Ratio_1000_L_17_R_17.png","7_Ratio_1000_L_6_R_6.png"]]}},{"start_time":1551887712114,"click_time":1551887714483,"finger_time":1551887712125,"fix_duration":250,"trial":1,"RT":11,"MT":2358,"sideResp":2,"stimulus":"img/250/equaldotsize/L/5_Ratio_250_L_24_R_6.png","xmouse":[761,761,761,761,761,761,761,760,760,760,760,760,760,760,760,760,760,760,760,760,760,760,760,760,760,760,760,760,760,760,760,760,760,760,760,760,759,757,749,735,712,652,617,602,585,573,558,555,553,551,548,536,534,533,532,532,527,523,520,519,516,515,515,515,515,515,515,515,518,526,533,552,560,572,585,603,649,676,702,725,746,781,809,825,844,863,898,915,929,949,965,1000,1007,1013,1019,1023,1031,1034,1038,1042,1045,1048,1049,1050,1050,1050,1050,1051,1051,1051,1051,1051,1051,1052,1052,1054,1056,1058,1059],"ymouse":[551,551,551,551,551,551,551,550,550,550,550,550,550,550,550,550,550,550,550,550,550,550,550,550,550,550,550,550,550,550,550,550,550,550,550,550,549,539,519,494,463,380,328,301,277,263,246,243,240,237,232,219,216,214,212,208,199,192,187,185,181,177,177,176,176,176,176,176,175,175,175,175,174,174,174,174,174,174,174,173,172,166,162,159,157,154,149,146,144,140,138,134,133,131,130,128,122,118,114,109,105,98,96,96,96,96,95,95,94,94,94,94,94,93,93,92,91,90,90],"timestamp_mouse":[11,35,48,69,89,109,129,149,168,189,209,230,249,269,289,309,329,348,368,388,409,429,449,470,489,509,529,549,569,590,609,628,650,669,689,709,729,749,769,789,809,828,850,869,890,910,929,950,969,990,1010,1029,1049,1068,1088,1109,1129,1148,1170,1189,1209,1229,1250,1269,1290,1309,1328,1348,1370,1389,1410,1429,1450,1468,1490,1509,1529,1548,1568,1589,1609,1628,1649,1668,1688,1708,1730,1748,1770,1790,1810,1829,1849,1868,1889,1909,1929,1948,1968,1988,2009,2029,2050,2069,2089,2109,2129,2148,2169,2188,2209,2229,2249,2270,2289,2310,2329,2349,2369],"xSR":741.5,"ySR":469.95,"xT1":424.9,"yT1":0,"xT2":1058.1,"yT2":0,"toosoon":0,"cond_shown":"equaldotsize","ratio_trial":250,"smaller_num":"6","larger_num":"24","correct_side":1,"subjID":"juandavidtrujillo","gender":"0","age":"11","school":"6"},{"start_time":1551887716687,"click_time":1551887718143,"finger_time":1551887717543,"fix_duration":743.536897143663,"trial":2,"RT":856,"MT":600,"sideResp":1,"stimulus":"img/250/equaldotsize/L/7_Ratio_250_L_8_R_2.png","xmouse":[817,817,817,817,817,817,817,817,817,817,817,817,817,817,817,817,817,817,817,817,817,817,817,817,817,817,817,817,817,817,817,817,817,817,817,817,817,817,817,816,813,804,774,736,712,691,677,660,651,644,637,628,599,587,578,571,567,559,556,554,551,548,543,542,538,536,533,527,523,520,516,512,505],"ymouse":[605,605,605,605,605,605,605,605,605,605,605,605,605,605,605,605,605,605,605,605,605,605,605,605,605,605,605,605,605,605,605,605,605,605,605,605,605,605,605,605,600,583,530,479,443,411,389,357,347,340,333,322,278,261,247,234,225,206,200,193,187,178,161,155,150,146,143,134,126,119,112,106,94],"timestamp_mouse":[19,48,56,75,96,116,136,156,176,196,215,235,255,276,297,317,335,355,375,396,415,436,455,477,495,517,535,555,577,595,617,635,656,675,697,717,735,755,776,797,816,835,856,877,896,917,937,955,975,997,1015,1036,1055,1075,1095,1116,1137,1156,1176,1197,1217,1237,1256,1275,1295,1315,1336,1355,1375,1397,1415,1437,1456],"xSR":741.5,"ySR":573.95,"xT1":424.9,"yT1":0,"xT2":1058.1,"yT2":0,"toosoon":0,"cond_shown":"equaldotsize","ratio_trial":250,"smaller_num":"2","larger_num":"8","correct_side":1,"subjID":"juandavidtrujillo","gender":"0","age":"11","school":"6"},{"start_time":1551887719816,"click_time":1551887721883,"finger_time":1551887720703,"fix_duration":332.4073121180907,"trial":3,"RT":887,"MT":1180,"sideResp":2,"stimulus":"img/900/equaldotsize/R/5_Ratio_900_L_9_R_10.png","xmouse":[758,758,758,758,758,758,758,758,758,758,758,758,758,758,758,758,758,758,758,758,758,758,758,758,758,758,758,758,758,758,758,758,758,758,758,758,758,758,758,758,763,777,785,792,795,798,798,792,781,765,751,714,697,680,666,657,648,648,648,648,649,663,677,697,721,753,819,882,921,952,976,1009,1016,1019,1022,1024,1030,1036,1040,1042,1044,1048,1050,1051,1052,1052,1055,1060,1063,1064,1065,1069,1072,1076,1079,1081,1082,1082,1082,1082,1082,1082,1083,1083],"ymouse":[600,600,600,600,600,600,600,600,600,600,600,600,600,600,600,600,600,600,600,600,600,600,600,600,600,600,600,600,600,600,600,600,600,600,600,600,600,600,600,600,598,590,583,576,569,561,535,503,474,441,412,349,318,289,265,248,231,229,229,229,228,224,222,220,220,220,220,220,220,220,219,209,204,201,198,197,192,188,185,182,179,169,164,162,161,160,157,154,152,151,148,139,133,124,116,110,106,106,106,106,106,103,101,98],"timestamp_mouse":[8,42,47,66,87,106,126,146,167,188,206,226,247,266,287,307,327,346,367,386,406,427,447,467,486,506,527,547,568,586,607,627,647,667,686,707,728,747,767,787,806,827,846,868,887,908,926,947,967,988,1007,1026,1046,1066,1087,1108,1126,1148,1167,1186,1206,1226,1246,1267,1287,1307,1326,1346,1366,1387,1406,1426,1446,1466,1487,1508,1526,1546,1567,1587,1607,1626,1646,1668,1686,1708,1726,1747,1766,1788,1807,1826,1846,1866,1887,1908,1927,1946,1968,1987,2006,2026,2046,2067],"xSR":741.5,"ySR":573.95,"xT1":424.9,"yT1":0,"xT2":1058.1,"yT2":0,"toosoon":0,"cond_shown":"equaldotsize","ratio_trial":900,"smaller_num":"9","larger_num":"10","correct_side":2,"subjID":"juandavidtrujillo","gender":"0","age":"11","school":"6"},{"start_time":1551887723415,"click_time":1551887725363,"finger_time":1551887724243,"fix_duration":250,"trial":4,"RT":828,"MT":1120,"sideResp":2,"stimulus":"img/750/randomdotsizeEA/L/8_Ratio_750_L_4_R_3.png","xmouse":[809,809,809,809,809,809,809,809,809,809,809,809,809,809,809,809,809,809,809,809,809,809,809,809,809,809,809,809,809,809,809,809,809,809,809,809,809,809,809,809,814,830,842,853,863,872,892,907,918,930,940,962,972,980,990,996,1010,1020,1025,1030,1034,1036,1037,1038,1038,1038,1041,1043,1045,1046,1048,1051,1051,1052,1052,1054,1056,1058,1059,1060,1061,1061,1061,1061,1061,1061,1062,1063,1065,1066,1067,1067,1067,1067,1068,1068,1069,1072],"ymouse":[586,586,586,586,586,586,586,586,586,586,586,586,586,586,586,586,586,586,586,586,586,586,586,586,586,586,586,586,586,586,586,586,586,586,586,586,586,586,586,586,580,564,552,536,521,505,471,443,426,410,396,370,356,344,328,316,285,256,238,220,206,187,182,178,176,173,167,163,159,154,150,146,146,145,144,141,135,133,130,129,128,128,128,128,128,128,125,120,115,112,111,110,109,109,107,105,101,95],"timestamp_mouse":[19,40,48,67,88,108,129,149,168,188,208,228,247,269,287,308,327,348,368,388,408,427,449,467,488,508,527,547,568,588,607,627,647,667,688,708,728,748,769,787,807,828,847,869,888,909,927,948,968,988,1008,1028,1047,1068,1087,1107,1127,1148,1168,1189,1208,1227,1247,1269,1288,1307,1327,1347,1367,1389,1408,1427,1448,1469,1488,1509,1527,1547,1568,1588,1609,1628,1648,1668,1688,1708,1727,1747,1767,1788,1807,1827,1849,1868,1888,1909,1927,1948],"xSR":741.5,"ySR":573.95,"xT1":424.9,"yT1":0,"xT2":1058.1,"yT2":0,"toosoon":0,"cond_shown":"randomdotsizeEA","ratio_trial":750,"smaller_num":"3","larger_num":"4","correct_side":1,"subjID":"juandavidtrujillo","gender":"0","age":"11","school":"6"},{"start_time":1551887727572,"click_time":1551887728503,"finger_time":1551887727964,"fix_duration":1228.2600342948942,"trial":5,"RT":392,"MT":539,"sideResp":1,"stimulus":"img/500/equaldotsize/L/13_Ratio_500_L_12_R_6.png","xmouse":[801,801,801,801,801,801,801,801,801,801,801,801,801,801,801,801,800,796,780,772,757,748,742,723,711,697,683,666,642,632,618,606,592,570,560,550,544,538,529,526,525,525,525,525,525,525,523],"ymouse":[633,633,633,633,633,633,633,633,633,633,633,633,633,633,633,633,633,619,581,565,545,532,522,489,466,445,424,403,363,346,312,283,253,202,181,161,145,130,106,94,91,91,91,90,90,90,87],"timestamp_mouse":[10,36,51,71,92,110,131,152,171,192,212,231,251,271,290,312,331,352,371,392,411,430,451,471,490,511,531,551,570,591,610,632,651,671,690,711,730,750,770,792,810,830,851,871,891,910,931],"xSR":741.5,"ySR":573.95,"xT1":424.9,"yT1":0,"xT2":1058.1,"yT2":0,"toosoon":0,"cond_shown":"equaldotsize","ratio_trial":500,"smaller_num":"6","larger_num":"12","correct_side":1,"subjID":"juandavidtrujillo","gender":"0","age":"11","school":"6"},{"start_time":1551887731912,"click_time":1551887733082,"finger_time":1551887732802,"fix_duration":1168.54981707693,"trial":6,"RT":890,"MT":280,"sideResp":1,"stimulus":"img/900/equaldotanddens/L/8_Ratio_900_L_20_R_18.png","xmouse":[830,830,830,830,830,830,830,830,830,830,830,830,830,830,830,830,830,830,830,830,830,830,830,830,830,830,830,830,830,828,826,818,815,814,814,814,814,814,814,814,813,815,822,839,850,858,869,871,871,871,867,840,801,762,716,663,576,537,504],"ymouse":[648,648,648,648,648,648,648,648,648,648,648,648,648,648,648,648,648,648,648,648,648,648,648,648,648,648,648,648,648,645,644,639,638,637,637,637,637,637,637,637,636,630,618,595,576,558,523,508,492,472,448,385,326,278,229,178,95,60,28],"timestamp_mouse":[10,43,52,71,90,112,131,152,171,190,212,231,252,272,291,312,331,352,372,390,412,430,451,472,490,511,530,550,572,590,612,630,651,671,691,710,732,751,771,792,811,830,852,870,890,911,930,950,971,990,1010,1030,1051,1070,1090,1111,1131,1150,1170],"xSR":741.5,"ySR":573.95,"xT1":424.9,"yT1":0,"xT2":1058.1,"yT2":0,"toosoon":0,"cond_shown":"equaldotanddens","ratio_trial":900,"smaller_num":"18","larger_num":"20","correct_side":1,"subjID":"juandavidtrujillo","gender":"0","age":"11","school":"6"},{"start_time":1551887734667,"click_time":1551887735962,"finger_time":1551887735163,"fix_duration":304.84143586528836,"trial":7,"RT":496,"MT":799,"sideResp":2,"stimulus":"img/250/randomdotsizeEA/L/7_Ratio_250_L_8_R_2.png","xmouse":[797,797,797,797,797,797,797,797,797,797,797,797,797,797,797,797,797,797,797,797,797,798,802,832,854,866,876,888,921,941,963,985,1000,1018,1031,1037,1041,1045,1048,1049,1050,1053,1057,1064,1067,1069,1071,1071,1071,1071,1071,1071,1071,1071,1071,1071,1071,1071,1071,1070,1070,1070,1070,1070,1070],"ymouse":[628,628,628,628,628,628,628,628,628,628,628,628,628,628,628,628,628,628,628,628,628,628,628,613,599,589,578,561,516,488,453,413,378,321,289,271,255,242,227,223,218,213,206,190,179,171,165,160,142,130,119,111,107,103,103,103,103,103,101,100,100,100,100,100,98],"timestamp_mouse":[16,41,55,76,97,115,136,156,176,195,216,236,256,275,296,316,335,355,376,395,416,435,457,476,496,516,536,556,575,595,616,636,656,675,695,716,737,756,775,795,816,836,856,875,895,915,937,955,975,995,1017,1036,1056,1075,1096,1116,1136,1155,1175,1195,1216,1236,1257,1276,1295],"xSR":741.5,"ySR":573.95,"xT1":424.9,"yT1":0,"xT2":1058.1,"yT2":0,"toosoon":0,"cond_shown":"randomdotsizeEA","ratio_trial":250,"smaller_num":"2","larger_num":"8","correct_side":1,"subjID":"juandavidtrujillo","gender":"0","age":"11","school":"6"},{"start_time":1551887737961,"click_time":1551887739182,"finger_time":1551887738662,"fix_duration":897.1079735436684,"trial":8,"RT":701,"MT":520,"sideResp":1,"stimulus":"img/500/equaldotanddens/L/7_Ratio_500_L_10_R_5.png","xmouse":[790,790,790,790,790,790,790,790,790,790,790,790,790,790,790,790,790,790,790,790,790,790,790,790,790,790,790,790,790,790,790,790,787,779,755,736,706,681,668,657,639,630,623,615,592,582,572,564,556,549,549,549,547,544,537,535,530,527,523,514,511,506],"ymouse":[626,626,626,626,626,626,626,626,626,626,626,626,626,626,626,626,626,626,626,626,626,626,626,626,626,626,626,626,626,626,626,626,626,615,581,556,517,485,467,452,422,410,397,383,348,331,313,296,281,241,226,210,197,185,166,160,150,142,133,116,108,98],"timestamp_mouse":[8,31,41,63,83,102,121,143,163,181,202,221,243,261,281,301,321,343,362,382,402,422,442,461,482,501,522,543,561,581,602,623,641,661,682,701,722,741,761,781,802,822,842,862,882,901,922,941,963,982,1001,1021,1041,1062,1081,1101,1121,1143,1163,1181,1202,1221],"xSR":741.5,"ySR":573.95,"xT1":424.9,"yT1":0,"xT2":1058.1,"yT2":0,"toosoon":0,"cond_shown":"equaldotanddens","ratio_trial":500,"smaller_num":"5","larger_num":"10","correct_side":1,"subjID":"juandavidtrujillo","gender":"0","age":"11","school":"6"},{"start_time":1551887740673,"click_time":1551887742204,"finger_time":1551887741343,"fix_duration":588.587305576073,"trial":9,"RT":670,"MT":861,"sideResp":1,"stimulus":"img/900/equaldotsize/R/9_Ratio_900_L_18_R_20.png","xmouse":[776,776,776,776,776,776,776,776,776,776,776,776,776,776,776,776,776,776,776,776,776,776,776,776,776,776,776,776,776,776,781,789,806,843,866,878,888,897,914,922,932,942,950,964,967,974,980,985,992,994,995,995,995,995,991,985,974,958,911,885,862,842,827,813,769,732,680,634,551,528,513,505,499,495,492,491,488],"ymouse":[613,613,613,613,613,613,613,613,613,613,613,613,613,613,613,613,613,613,613,613,613,613,613,613,613,613,613,613,613,613,614,614,612,597,581,571,560,548,520,505,492,478,466,443,432,412,397,380,355,345,338,332,327,322,311,304,295,284,261,248,239,231,223,217,201,192,176,163,138,127,119,115,111,106,102,100,95],"timestamp_mouse":[11,36,51,70,89,110,131,151,171,189,211,231,250,270,290,310,330,350,370,391,411,430,450,470,490,510,531,550,569,591,611,630,650,670,690,710,729,749,769,789,810,830,849,870,891,909,930,950,969,990,1010,1029,1050,1070,1090,1110,1131,1150,1170,1189,1209,1230,1250,1269,1289,1309,1330,1350,1369,1389,1410,1430,1451,1469,1490,1509,1531],"xSR":741.5,"ySR":573.95,"xT1":424.9,"yT1":0,"xT2":1058.1,"yT2":0,"toosoon":0,"cond_shown":"equaldotsize","ratio_trial":900,"smaller_num":"18","larger_num":"20","correct_side":2,"subjID":"juandavidtrujillo","gender":"0","age":"11","school":"6"},{"start_time":1551887743677,"click_time":1551887744564,"finger_time":1551887744163,"fix_duration":412.864696551373,"trial":10,"RT":486,"MT":401,"sideResp":1,"stimulus":"img/250/equaldotanddens/L/7_Ratio_250_L_8_R_2.png","xmouse":[766,768,768,769,769,769,769,769,769,769,769,769,769,769,770,772,773,776,783,785,786,789,789,790,790,789,784,777,749,721,693,664,635,602,594,591,590,588,583,579,570,561,552,531,517],"ymouse":[607,607,607,607,606,606,606,606,606,606,606,606,606,606,606,606,605,602,596,593,591,588,586,584,573,564,551,537,488,447,399,344,287,206,181,171,165,159,146,137,126,114,107,92,87],"timestamp_mouse":[10,31,47,65,85,106,127,146,166,187,206,226,245,265,285,306,326,346,366,385,407,426,446,466,486,505,526,546,565,585,605,626,646,665,686,705,727,746,766,785,806,826,847,865,887],"xSR":741.5,"ySR":573.95,"xT1":424.9,"yT1":0,"xT2":1058.1,"yT2":0,"toosoon":0,"cond_shown":"equaldotanddens","ratio_trial":250,"smaller_num":"2","larger_num":"8","correct_side":1,"subjID":"juandavidtrujillo","gender":"0","age":"11","school":"6"},{"start_time":1551887745976,"click_time":1551887747043,"finger_time":1551887746543,"fix_duration":250,"trial":11,"RT":567,"MT":500,"sideResp":2,"stimulus":"img/750/equaldotanddens/R/4_Ratio_750_L_15_R_20.png","xmouse":[776,776,776,776,776,776,776,776,776,776,776,776,776,776,776,776,776,776,776,776,776,776,776,776,776,777,778,786,812,833,881,923,965,1008,1019,1028,1035,1043,1057,1060,1061,1061,1061,1061,1061,1061,1061,1061,1061,1062,1067,1069,1072,1074],"ymouse":[588,588,588,588,588,588,588,588,588,588,588,588,588,588,588,588,588,588,588,588,588,588,588,588,588,588,588,585,565,547,500,442,384,317,297,279,261,244,216,209,204,200,196,192,188,185,178,170,151,135,125,116,107,95],"timestamp_mouse":[10,34,46,68,87,106,126,148,166,186,206,227,247,267,288,307,327,347,368,387,407,426,446,467,487,506,526,547,567,587,607,627,647,666,686,707,727,747,767,787,806,826,847,867,886,906,927,947,966,988,1006,1026,1047,1066],"xSR":741.5,"ySR":573.95,"xT1":424.9,"yT1":0,"xT2":1058.1,"yT2":0,"toosoon":0,"cond_shown":"equaldotanddens","ratio_trial":750,"smaller_num":"15","larger_num":"20","correct_side":2,"subjID":"juandavidtrujillo","gender":"0","age":"11","school":"6"},{"start_time":1551887749021,"click_time":1551887750043,"finger_time":1551887749603,"fix_duration":978.8467874063424,"trial":12,"RT":582,"MT":440,"sideResp":2,"stimulus":"img/500/equaldotanddens/R/3_Ratio_500_L_10_R_20.png","xmouse":[808,808,808,808,808,808,808,808,808,808,808,808,808,808,808,808,808,808,808,808,808,808,808,808,808,808,814,820,831,846,864,932,977,1025,1066,1102,1157,1173,1184,1188,1190,1192,1194,1194,1194,1194,1191,1185,1179,1171,1168,1157],"ymouse":[601,601,601,601,601,601,601,601,601,601,601,601,601,601,601,601,601,601,601,601,601,601,601,601,601,601,596,590,579,562,541,460,407,348,295,238,145,114,91,82,77,68,61,52,43,36,28,21,19,16,16,16],"timestamp_mouse":[9,35,43,62,81,103,123,142,163,182,201,221,243,261,283,302,322,341,363,382,402,423,441,462,482,502,522,543,561,582,601,621,641,661,681,702,721,742,761,782,802,822,841,862,882,903,921,942,961,982,1003,1022],"xSR":741.5,"ySR":573.95,"xT1":424.9,"yT1":0,"xT2":1058.1,"yT2":0,"toosoon":0,"cond_shown":"equaldotanddens","ratio_trial":500,"smaller_num":"10","larger_num":"20","correct_side":2,"subjID":"juandavidtrujillo","gender":"0","age":"11","school":"6"},{"start_time":1551887751775,"click_time":1551887752843,"finger_time":1551887752343,"fix_duration":571.9513624091065,"trial":13,"RT":568,"MT":500,"sideResp":2,"stimulus":"img/250/equaldotsize/R/12_Ratio_250_L_5_R_20.png","xmouse":[777,777,777,777,777,777,777,777,777,777,777,777,777,777,777,777,777,777,777,777,777,777,777,777,777,780,785,799,846,860,866,871,882,934,951,960,965,971,988,998,1004,1008,1010,1015,1019,1023,1025,1027,1034,1038,1045,1049,1053,1060],"ymouse":[624,624,624,624,624,624,624,624,624,624,624,624,624,624,624,624,624,624,624,624,624,624,624,624,624,619,613,597,521,494,474,459,439,364,335,319,305,292,260,244,230,216,200,169,156,145,136,130,116,110,101,97,92,88],"timestamp_mouse":[9,33,49,67,88,108,128,149,167,188,208,229,247,268,289,308,328,347,367,389,407,427,448,468,488,508,529,549,568,589,607,627,648,667,687,708,727,748,768,789,807,827,847,868,887,907,928,948,967,989,1007,1027,1049,1068],"xSR":741.5,"ySR":573.95,"xT1":424.9,"yT1":0,"xT2":1058.1,"yT2":0,"toosoon":0,"cond_shown":"equaldotsize","ratio_trial":250,"smaller_num":"5","larger_num":"20","correct_side":2,"subjID":"juandavidtrujillo","gender":"0","age":"11","school":"6"},{"start_time":1551887754201,"click_time":1551887755483,"finger_time":1551887754623,"fix_duration":376.90356845763586,"trial":14,"RT":422,"MT":860,"sideResp":2,"stimulus":"img/900/equaldotsize/L/10_Ratio_900_L_20_R_18.png","xmouse":[780,780,780,780,780,780,780,780,780,780,780,780,780,780,780,780,780,780,780,784,801,822,871,894,912,930,942,958,964,968,971,973,976,978,979,981,983,986,991,997,1000,1002,1004,1005,1007,1010,1015,1027,1031,1036,1043,1048,1060,1067,1072,1077,1078,1080,1084,1084,1084,1085,1085,1086,1088],"ymouse":[602,602,602,602,602,602,602,602,602,602,602,602,602,602,602,602,602,602,602,601,586,570,526,502,479,449,428,389,364,350,338,325,303,292,284,272,260,238,222,198,188,182,176,174,172,166,159,145,139,133,127,126,124,123,121,120,119,117,114,113,113,111,107,103,92],"timestamp_mouse":[10,21,41,61,82,102,121,142,161,181,202,222,241,262,282,301,321,342,361,381,401,422,441,461,482,502,523,541,562,581,601,623,642,661,682,702,722,741,761,781,802,822,842,861,881,902,922,941,961,982,1003,1021,1042,1062,1081,1101,1121,1141,1162,1182,1201,1221,1242,1261,1282],"xSR":741.5,"ySR":573.95,"xT1":424.9,"yT1":0,"xT2":1058.1,"yT2":0,"toosoon":0,"cond_shown":"equaldotsize","ratio_trial":900,"smaller_num":"18","larger_num":"20","correct_side":1,"subjID":"juandavidtrujillo","gender":"0","age":"11","school":"6"},{"start_time":1551887757449,"click_time":1551887759082,"finger_time":1551887758062,"fix_duration":905.3025361897214,"trial":15,"RT":613,"MT":1020,"sideResp":1,"stimulus":"img/900/randomdotsizeEA/R/13_Ratio_900_L_18_R_20.png","xmouse":[797,797,797,797,797,797,797,797,797,798,798,798,798,798,798,799,800,801,802,802,802,802,802,804,808,813,819,824,828,841,844,845,847,848,849,849,849,841,827,783,752,723,700,679,651,640,627,619,609,592,584,580,577,576,575,573,568,563,558,553,551,551,549,548,544,544,543,542,540,539,539,539,539,539,539,539,539,538,537,532,529,524],"ymouse":[627,627,627,627,627,627,627,627,627,626,625,625,625,625,625,625,624,623,623,623,623,623,623,621,617,612,606,601,596,586,583,579,577,574,564,550,541,504,469,397,355,314,283,255,214,199,182,171,159,140,131,127,124,122,121,120,115,111,108,106,105,104,103,103,101,100,99,97,95,94,94,94,94,94,94,94,94,93,93,92,90,90],"timestamp_mouse":[13,42,54,73,92,113,134,154,172,193,213,232,253,273,293,314,333,352,373,393,413,433,453,472,493,513,532,552,572,593,613,632,653,672,693,714,733,753,773,793,812,833,853,874,892,914,932,953,973,992,1012,1032,1053,1073,1093,1112,1133,1153,1172,1192,1212,1233,1253,1274,1293,1313,1333,1353,1373,1393,1413,1433,1454,1472,1493,1513,1533,1554,1572,1593,1612,1632],"xSR":741.5,"ySR":573.95,"xT1":424.9,"yT1":0,"xT2":1058.1,"yT2":0,"toosoon":0,"cond_shown":"randomdotsizeEA","ratio_trial":900,"smaller_num":"18","larger_num":"20","correct_side":2,"subjID":"juandavidtrujillo","gender":"0","age":"11","school":"6"},{"start_time":1551887760475,"click_time":1551887761542,"finger_time":1551887760941,"fix_duration":250,"trial":16,"RT":466,"MT":601,"sideResp":2,"stimulus":"img/250/randomdotsizeEA/L/15_Ratio_250_L_12_R_3.png","xmouse":[806,806,806,806,806,808,811,814,818,818,820,820,820,822,823,824,824,825,828,828,829,830,831,836,838,841,847,852,867,876,888,905,931,978,995,1000,1002,1005,1013,1016,1019,1025,1031,1046,1050,1052,1053,1053,1057,1061,1066,1071,1077,1090],"ymouse":[613,613,613,613,613,611,610,608,607,606,605,605,605,603,601,601,600,598,591,589,586,581,576,562,554,547,538,529,510,496,475,446,401,295,235,212,200,187,166,160,152,144,136,119,115,113,111,111,110,108,107,104,102,98],"timestamp_mouse":[8,33,48,67,88,108,128,148,167,186,207,227,246,266,287,307,326,347,367,386,406,428,448,466,486,507,527,546,567,586,608,627,647,666,687,707,727,748,767,786,808,826,846,867,886,907,926,948,967,986,1007,1027,1047,1066],"xSR":741.5,"ySR":573.95,"xT1":424.9,"yT1":0,"xT2":1058.1,"yT2":0,"toosoon":0,"cond_shown":"randomdotsizeEA","ratio_trial":250,"smaller_num":"3","larger_num":"12","correct_side":1,"subjID":"juandavidtrujillo","gender":"0","age":"11","school":"6"},{"start_time":1551887764493,"click_time":1551887765941,"finger_time":1551887765242,"fix_duration":250,"trial":17,"RT":749,"MT":699,"sideResp":1,"stimulus":"img/750/randomdotsizeEA/L/14_Ratio_750_L_8_R_6.png","xmouse":[775,775,775,775,775,775,775,775,775,775,775,775,775,775,775,775,775,775,775,775,775,775,775,775,775,775,775,775,775,775,775,775,775,771,770,769,764,746,733,710,685,653,568,546,522,495,470,445,425,419,415,414,414,414,414,414,414,419,421,426,430,434,445,450,457,460,462,464,465,465,465,466,467],"ymouse":[649,649,649,649,649,649,649,649,649,649,649,649,649,649,649,649,649,649,649,649,649,649,649,649,649,649,649,649,649,649,647,643,631,617,611,602,592,561,540,510,476,441,360,340,322,301,283,265,249,243,238,234,227,222,218,214,210,199,193,186,179,171,148,134,116,110,105,101,101,101,100,100,98],"timestamp_mouse":[10,44,49,69,89,109,129,150,168,189,209,230,248,269,289,310,329,350,370,390,410,429,449,470,489,509,529,550,570,590,608,630,648,670,689,710,729,749,768,789,809,830,849,868,889,909,929,949,969,989,1009,1029,1048,1070,1089,1110,1129,1148,1169,1189,1209,1228,1249,1269,1289,1309,1328,1348,1369,1389,1409,1429,1448],"xSR":741.5,"ySR":573.95,"xT1":424.9,"yT1":0,"xT2":1058.1,"yT2":0,"toosoon":0,"cond_shown":"randomdotsizeEA","ratio_trial":750,"smaller_num":"6","larger_num":"8","correct_side":1,"subjID":"juandavidtrujillo","gender":"0","age":"11","school":"6"},{"start_time":1551887768417,"click_time":1551887770761,"finger_time":1551887769342,"fix_duration":1273.5142479166202,"trial":18,"RT":925,"MT":1419,"sideResp":2,"stimulus":"img/250/equaldotanddens/R/9_Ratio_250_L_3_R_12.png","xmouse":[762,762,762,762,762,762,762,762,762,762,762,762,762,762,762,762,762,762,762,762,762,762,762,762,762,762,762,762,762,762,762,762,762,762,762,763,763,771,773,773,775,775,777,778,779,784,797,803,815,823,832,847,854,859,862,863,867,874,879,887,898,909,911,913,916,919,927,939,950,962,973,995,1008,1020,1029,1038,1051,1055,1060,1066,1068,1070,1070,1071,1072,1075,1077,1078,1080,1081,1081,1083,1083,1084,1085,1085,1085,1085,1085,1085,1086,1089,1091,1091,1093,1093,1095,1096,1096,1097,1097,1098,1098,1098,1098,1098,1099,1100],"ymouse":[633,633,633,633,633,633,633,633,633,633,633,633,633,633,633,633,633,633,633,633,633,633,633,633,633,633,633,633,633,633,633,633,633,633,633,633,631,617,612,610,607,605,603,600,597,589,563,548,517,488,456,420,408,399,392,385,372,358,349,332,314,293,289,284,278,274,263,251,242,234,226,209,201,194,188,184,174,170,166,161,158,155,155,154,152,149,146,145,142,142,141,139,138,136,135,134,133,132,131,131,129,122,118,117,113,112,108,106,105,104,104,103,103,103,102,101,100,99],"timestamp_mouse":[9,25,46,64,86,104,125,145,165,186,205,225,246,264,286,305,325,345,365,385,405,425,445,465,486,506,525,545,565,585,605,625,646,665,684,704,725,745,765,785,804,825,845,865,885,905,925,946,965,985,1004,1025,1044,1065,1084,1105,1125,1145,1164,1186,1205,1225,1244,1265,1285,1306,1324,1345,1365,1385,1406,1425,1444,1466,1484,1505,1525,1544,1565,1586,1604,1624,1645,1665,1685,1705,1724,1745,1765,1785,1805,1825,1844,1865,1884,1905,1925,1945,1966,1984,2006,2024,2044,2064,2085,2105,2124,2145,2165,2185,2205,2225,2245,2265,2285,2304,2324,2344],"xSR":741.5,"ySR":573.95,"xT1":424.9,"yT1":0,"xT2":1058.1,"yT2":0,"toosoon":0,"cond_shown":"equaldotanddens","ratio_trial":250,"smaller_num":"3","larger_num":"12","correct_side":2,"subjID":"juandavidtrujillo","gender":"0","age":"11","school":"6"},{"start_time":1551887773248,"click_time":1551887775662,"finger_time":1551887774323,"fix_duration":1203.1225920766685,"trial":19,"RT":1075,"MT":1339,"sideResp":1,"stimulus":"img/500/equaldotsize/L/7_Ratio_500_L_10_R_5.png","xmouse":[814,814,814,814,814,814,814,814,814,814,814,814,814,814,814,814,814,814,814,814,814,814,814,814,814,814,814,814,814,814,814,814,814,814,814,814,814,814,814,814,814,814,814,814,814,814,814,814,814,814,814,821,841,864,929,951,970,985,995,1011,1019,1027,1036,1043,1052,1055,1058,1060,1061,1063,1064,1064,1064,1064,1065,1065,1066,1066,1067,1070,1071,1072,1074,1074,1076,1078,1079,1080,1080,1080,1080,1080,1080,1070,1039,1022,990,970,954,922,907,893,880,863,823,791,771,749,727,679,656,635,614,595,562,541,535,532,530,526,523],"ymouse":[603,603,603,603,603,603,603,603,603,603,603,603,603,603,603,603,603,603,603,603,603,603,603,603,603,603,603,603,603,603,603,603,603,603,603,603,603,603,603,603,603,603,603,603,603,603,603,603,603,603,603,599,587,575,539,526,509,494,477,441,423,397,369,347,315,298,278,266,255,238,231,226,221,218,215,214,210,204,198,189,186,182,178,175,169,165,162,157,154,150,149,148,147,143,135,130,120,116,111,104,102,100,98,95,84,75,69,63,58,47,43,39,35,33,31,31,31,31,32,36,38],"timestamp_mouse":[15,43,54,75,95,113,134,154,173,194,214,235,254,275,295,315,333,354,373,394,414,433,455,474,493,514,533,554,574,594,614,633,655,674,694,715,734,754,775,794,813,835,855,873,893,915,933,954,974,993,1014,1033,1054,1075,1094,1114,1133,1154,1174,1193,1213,1234,1255,1275,1294,1315,1334,1354,1375,1393,1414,1435,1454,1474,1494,1514,1534,1554,1574,1594,1613,1634,1654,1674,1694,1714,1734,1754,1774,1793,1813,1834,1854,1875,1894,1913,1934,1954,1974,1994,2013,2033,2054,2075,2093,2114,2134,2154,2173,2193,2214,2234,2254,2275,2293,2314,2334,2354,2374,2393,2414],"xSR":741.5,"ySR":573.95,"xT1":424.9,"yT1":0,"xT2":1058.1,"yT2":0,"toosoon":0,"cond_shown":"equaldotsize","ratio_trial":500,"smaller_num":"5","larger_num":"10","correct_side":1,"subjID":"juandavidtrujillo","gender":"0","age":"11","school":"6"},{"start_time":1551887777531,"click_time":1551887779122,"finger_time":1551887778262,"fix_duration":688.2418478857185,"trial":20,"RT":731,"MT":860,"sideResp":1,"stimulus":"img/750/equaldotanddens/R/2_Ratio_750_L_6_R_8.png","xmouse":[787,787,787,787,787,787,787,787,787,787,787,787,787,787,787,787,787,787,787,787,787,787,787,787,787,787,787,787,787,787,787,787,787,787,800,824,842,860,873,884,903,917,937,947,957,973,979,986,993,997,1004,1009,1011,1013,1014,1014,1014,1014,1010,1000,944,859,798,731,665,574,553,547,546,546,546,546,546,546,546,546,544,535,525,514],"ymouse":[618,618,618,618,618,618,618,618,618,618,618,618,618,618,618,618,618,618,618,618,618,618,618,618,618,618,618,618,618,618,618,618,618,618,607,587,573,562,552,544,528,517,498,483,468,442,431,419,406,398,383,373,368,363,359,355,348,344,338,325,291,245,208,166,121,56,41,36,35,35,35,35,35,35,35,35,35,35,36,38],"timestamp_mouse":[12,40,51,71,91,111,131,151,170,191,211,232,250,271,291,311,331,351,371,391,411,430,451,471,491,510,531,550,571,590,611,631,651,671,691,710,731,751,772,791,810,830,850,871,891,911,930,950,972,991,1010,1031,1051,1072,1090,1110,1131,1151,1171,1191,1211,1231,1250,1270,1290,1310,1331,1352,1372,1391,1411,1431,1452,1471,1491,1512,1532,1552,1571,1591],"xSR":741.5,"ySR":573.95,"xT1":424.9,"yT1":0,"xT2":1058.1,"yT2":0,"toosoon":0,"cond_shown":"equaldotanddens","ratio_trial":750,"smaller_num":"6","larger_num":"8","correct_side":2,"subjID":"juandavidtrujillo","gender":"0","age":"11","school":"6"},{"start_time":1551887782000,"click_time":1551887784021,"finger_time":1551887782602,"fix_duration":275.0203087939259,"trial":21,"RT":602,"MT":1419,"sideResp":2,"stimulus":"img/500/equaldotsize/R/12_Ratio_500_L_1_R_2.png","xmouse":[790,790,790,790,790,790,790,790,790,790,790,790,790,790,790,790,790,790,790,790,790,790,793,796,799,800,803,815,829,841,851,861,891,912,928,942,955,971,975,977,978,977,971,969,967,965,963,960,959,959,958,958,958,958,958,958,958,957,954,950,946,942,912,890,873,855,839,807,780,760,743,729,715,713,713,712,711,711,711,711,711,711,728,759,798,847,907,1023,1057,1083,1086,1086,1086,1086,1086,1086,1087,1089,1090,1093,1095,1097],"ymouse":[657,657,657,657,657,657,657,657,657,657,657,657,657,657,657,657,657,657,657,657,657,657,657,656,655,653,651,645,639,634,631,628,615,604,590,571,550,510,487,457,440,422,380,363,346,333,320,304,298,291,288,285,278,271,265,259,253,241,232,218,210,205,188,177,169,160,153,139,129,122,117,114,110,109,109,109,109,109,109,109,109,109,109,114,119,127,135,148,149,149,149,149,149,149,149,149,149,147,143,130,114,99],"timestamp_mouse":[8,23,42,63,82,102,123,141,163,183,202,222,241,262,282,302,322,342,361,383,403,422,441,462,483,502,522,542,562,582,602,622,642,662,681,702,722,742,763,781,802,822,841,861,881,903,923,942,962,982,1003,1022,1042,1062,1082,1102,1121,1142,1162,1181,1202,1222,1242,1262,1282,1302,1323,1342,1361,1381,1402,1423,1442,1462,1481,1501,1523,1542,1562,1583,1602,1622,1642,1661,1682,1702,1723,1742,1762,1781,1802,1823,1843,1861,1881,1901,1921,1941,1962,1982,2001,2021],"xSR":741.5,"ySR":573.95,"xT1":424.9,"yT1":0,"xT2":1058.1,"yT2":0,"toosoon":0,"cond_shown":"equaldotsize","ratio_trial":500,"smaller_num":"1","larger_num":"2","correct_side":2,"subjID":"juandavidtrujillo","gender":"0","age":"11","school":"6"},{"start_time":1551887785393,"click_time":1551887786782,"finger_time":1551887786241,"fix_duration":250,"trial":22,"RT":848,"MT":541,"sideResp":1,"stimulus":"img/750/randomdotsizeEA/L/13_Ratio_750_L_8_R_6.png","xmouse":[807,807,807,807,807,807,807,807,807,807,807,807,807,807,807,807,807,807,807,807,807,807,807,807,807,807,807,807,807,807,807,809,815,817,820,821,822,828,831,836,838,839,847,850,852,852,848,809,782,772,754,751,746,744,740,737,732,717,703,694,683,674,645,629,607,588,570,536,528,524],"ymouse":[607,607,607,607,607,607,607,607,607,607,607,607,607,607,607,607,607,607,607,607,607,607,607,607,607,607,607,607,607,607,608,608,608,608,608,608,608,608,608,608,608,608,587,570,544,515,474,387,358,350,335,330,319,312,302,291,281,256,235,221,205,190,152,134,116,102,90,70,66,63],"timestamp_mouse":[11,35,49,69,89,110,129,148,169,190,209,229,249,270,290,309,329,348,368,388,408,430,449,469,488,510,529,548,570,588,609,629,648,669,689,708,730,749,770,789,808,830,848,869,889,908,929,948,969,989,1011,1029,1049,1069,1088,1108,1129,1149,1168,1188,1210,1229,1248,1269,1289,1309,1329,1348,1369,1388],"xSR":741.5,"ySR":573.95,"xT1":424.9,"yT1":0,"xT2":1058.1,"yT2":0,"toosoon":0,"cond_shown":"randomdotsizeEA","ratio_trial":750,"smaller_num":"6","larger_num":"8","correct_side":1,"subjID":"juandavidtrujillo","gender":"0","age":"11","school":"6"},{"start_time":1551887788234,"click_time":1551887789662,"finger_time":1551887788942,"fix_duration":250,"trial":23,"RT":708,"MT":720,"sideResp":2,"stimulus":"img/500/randomdotsizeEA/L/8_Ratio_500_L_8_R_4.png","xmouse":[762,762,762,762,762,762,762,762,762,762,762,762,762,762,762,762,762,762,762,762,762,762,762,762,762,762,762,762,762,762,762,762,762,762,771,814,883,905,960,987,1023,1035,1044,1048,1051,1059,1068,1072,1087,1094,1111,1116,1121,1126,1131,1148,1159,1166,1170,1172,1173,1173,1173,1173,1173,1173,1172,1170,1169,1167,1159,1158],"ymouse":[578,578,578,578,578,578,578,578,578,578,578,578,578,578,578,578,578,578,578,578,578,578,578,578,578,578,578,578,578,578,578,578,578,578,574,545,496,478,432,409,373,360,349,344,339,324,306,296,263,241,205,193,182,170,160,130,113,102,97,92,91,90,89,88,86,81,79,76,74,72,68,67],"timestamp_mouse":[10,39,48,69,89,108,129,149,168,187,208,228,249,267,287,308,329,348,368,389,409,427,448,469,487,508,527,547,568,589,607,629,648,668,687,707,729,748,768,788,808,828,847,869,888,908,928,947,969,988,1008,1027,1048,1068,1088,1108,1128,1148,1169,1188,1209,1228,1248,1267,1288,1307,1328,1347,1368,1388,1407,1427],"xSR":741.5,"ySR":573.95,"xT1":424.9,"yT1":0,"xT2":1058.1,"yT2":0,"toosoon":0,"cond_shown":"randomdotsizeEA","ratio_trial":500,"smaller_num":"4","larger_num":"8","correct_side":1,"subjID":"juandavidtrujillo","gender":"0","age":"11","school":"6"},{"start_time":1551887791298,"click_time":1551887792442,"finger_time":1551887791923,"fix_duration":655.3747658121802,"trial":24,"RT":625,"MT":519,"sideResp":2,"stimulus":"img/900/equaldotsize/R/5_Ratio_900_L_9_R_10.png","xmouse":[757,757,757,757,757,757,757,757,757,757,757,757,757,757,757,757,757,757,757,757,757,757,757,757,757,757,757,762,771,782,789,797,810,817,832,840,849,869,886,907,936,969,1026,1046,1060,1080,1092,1104,1105,1107,1110,1113,1123,1130,1137,1139,1141,1141],"ymouse":[626,626,626,626,626,626,626,626,626,626,626,626,626,626,626,626,626,626,626,626,626,626,626,626,626,626,626,621,610,598,587,570,525,503,474,462,452,436,426,416,404,390,356,339,325,299,284,270,268,263,255,243,209,186,156,140,124,89],"timestamp_mouse":[14,36,50,64,85,103,125,144,165,184,204,223,244,265,283,303,325,343,364,385,404,425,444,465,485,505,524,544,564,585,603,625,644,664,683,705,724,744,764,784,804,824,844,863,884,905,924,944,963,983,1004,1024,1044,1064,1083,1104,1124,1144],"xSR":741.5,"ySR":573.95,"xT1":424.9,"yT1":0,"xT2":1058.1,"yT2":0,"toosoon":0,"cond_shown":"equaldotsize","ratio_trial":900,"smaller_num":"9","larger_num":"10","correct_side":2,"subjID":"juandavidtrujillo","gender":"0","age":"11","school":"6"},{"start_time":1551887796061,"click_time":1551887797622,"finger_time":1551887796762,"fix_duration":658.6657806518236,"trial":25,"RT":701,"MT":860,"sideResp":2,"stimulus":"img/500/equaldotanddens/R/9_Ratio_500_L_2_R_4.png","xmouse":[796,796,796,795,793,790,789,788,788,788,788,788,788,788,788,788,788,788,788,788,788,788,788,788,788,788,788,788,788,788,788,788,788,791,803,820,870,890,901,915,917,919,920,922,926,928,930,933,935,946,955,962,968,973,980,985,993,997,1003,1014,1023,1031,1042,1048,1054,1056,1057,1058,1058,1059,1062,1064,1069,1074,1082,1088,1090,1093,1093],"ymouse":[591,591,591,590,593,602,609,614,614,614,614,614,614,614,614,614,614,614,614,614,614,614,614,614,614,614,614,614,614,614,614,614,614,608,586,558,477,447,427,400,395,391,386,381,371,368,363,359,356,348,340,332,323,318,308,301,293,288,282,272,266,260,252,246,234,228,224,221,218,212,207,200,189,177,146,126,119,105,99],"timestamp_mouse":[9,33,42,62,80,102,121,141,161,182,201,220,241,261,282,300,320,342,360,380,401,421,440,462,481,501,520,540,561,581,602,622,641,662,680,701,720,740,761,781,801,820,840,862,881,901,920,940,961,981,1001,1021,1041,1061,1081,1101,1120,1142,1162,1181,1201,1222,1241,1262,1281,1301,1320,1340,1360,1381,1400,1422,1442,1462,1481,1501,1520,1541,1561],"xSR":741.5,"ySR":573.95,"xT1":424.9,"yT1":0,"xT2":1058.1,"yT2":0,"toosoon":0,"cond_shown":"equaldotanddens","ratio_trial":500,"smaller_num":"2","larger_num":"4","correct_side":2,"subjID":"juandavidtrujillo","gender":"0","age":"11","school":"6"},{"start_time":1551887799193,"click_time":1551887800642,"finger_time":1551887799942,"fix_duration":250,"trial":26,"RT":749,"MT":700,"sideResp":2,"stimulus":"img/750/equaldotsize/R/2_Ratio_750_L_6_R_8.png","xmouse":[790,790,790,790,790,790,790,790,790,790,790,790,790,790,790,790,790,790,790,790,790,790,790,790,790,790,790,790,790,790,790,790,790,790,790,790,794,813,822,834,849,857,874,885,893,899,905,910,913,915,921,925,933,938,945,951,956,970,976,980,985,999,1018,1025,1029,1033,1039,1051,1055,1057,1060,1064,1077],"ymouse":[589,589,589,589,589,589,589,589,589,589,589,589,589,589,589,589,589,589,589,589,589,589,589,589,589,589,589,589,589,589,589,589,589,589,589,583,574,533,509,490,465,452,414,396,381,367,353,331,322,312,295,282,253,236,222,209,200,179,172,169,163,152,138,132,128,124,120,113,111,109,108,106,99],"timestamp_mouse":[10,31,49,69,89,109,129,149,169,189,209,229,249,269,288,309,329,349,369,389,409,430,449,469,489,509,530,550,569,590,609,629,650,669,688,708,729,749,769,789,810,829,848,868,890,909,930,949,969,989,1009,1028,1048,1068,1088,1109,1128,1149,1170,1189,1210,1229,1248,1269,1289,1308,1329,1348,1369,1389,1408,1429,1448],"xSR":741.5,"ySR":573.95,"xT1":424.9,"yT1":0,"xT2":1058.1,"yT2":0,"toosoon":0,"cond_shown":"equaldotsize","ratio_trial":750,"smaller_num":"6","larger_num":"8","correct_side":2,"subjID":"juandavidtrujillo","gender":"0","age":"11","school":"6"},{"start_time":1551887803990,"click_time":1551887805181,"finger_time":1551887804742,"fix_duration":1026.4743847572806,"trial":27,"RT":752,"MT":439,"sideResp":1,"stimulus":"img/250/equaldotanddens/L/5_Ratio_250_L_24_R_6.png","xmouse":[822,822,822,822,822,822,822,822,822,822,822,822,822,822,822,821,821,821,821,821,821,821,821,821,821,821,821,821,821,821,820,817,817,815,808,794,777,713,679,655,639,637,637,637,638,638,639,640,640,639,624,613,588,575,558,545,532,504,492,483],"ymouse":[615,615,615,615,615,615,615,615,615,615,615,613,612,611,610,609,609,609,609,609,609,609,609,609,609,609,609,609,609,609,609,609,609,609,606,595,577,488,434,392,359,349,336,332,329,325,320,301,282,262,225,203,168,155,143,134,124,108,101,95],"timestamp_mouse":[12,48,52,72,92,112,132,153,173,192,212,232,251,271,293,312,332,351,373,392,411,433,452,471,493,513,532,551,573,593,612,632,651,672,693,712,732,752,772,793,812,833,852,872,893,912,932,953,971,991,1011,1031,1051,1071,1092,1112,1133,1152,1172,1191],"xSR":741.5,"ySR":573.95,"xT1":424.9,"yT1":0,"xT2":1058.1,"yT2":0,"toosoon":0,"cond_shown":"equaldotanddens","ratio_trial":250,"smaller_num":"6","larger_num":"24","correct_side":1,"subjID":"juandavidtrujillo","gender":"0","age":"11","school":"6"},{"start_time":1551887809575,"click_time":1551887811002,"finger_time":1551887810241,"fix_duration":1050.1717452701712,"trial":28,"RT":666,"MT":761,"sideResp":2,"stimulus":"img/900/equaldotanddens/L/2_Ratio_900_L_20_R_18.png","xmouse":[775,775,775,775,775,775,775,775,775,775,775,775,775,775,775,775,775,775,775,775,775,775,775,775,775,775,775,775,775,775,775,775,775,790,803,815,831,844,870,878,883,887,891,897,909,914,919,924,932,935,937,940,943,945,948,949,951,953,958,963,968,976,985,990,999,1004,1007,1011,1025,1038,1052,1072],"ymouse":[593,593,593,593,593,593,593,593,593,593,593,593,593,593,593,593,593,593,593,593,593,593,593,593,593,590,588,587,587,587,587,586,583,559,539,522,501,482,429,411,392,375,360,342,300,282,262,244,218,209,202,196,189,183,172,169,165,161,154,149,146,144,140,138,133,129,126,121,106,96,85,73],"timestamp_mouse":[9,32,47,67,86,108,126,148,166,188,206,227,247,267,287,307,327,347,368,386,407,428,447,467,487,507,527,547,568,587,607,627,646,666,687,707,727,747,767,786,807,827,847,866,887,907,927,946,967,986,1007,1028,1047,1066,1087,1106,1126,1148,1167,1187,1207,1226,1246,1267,1287,1307,1327,1348,1367,1388,1407,1427],"xSR":741.5,"ySR":573.95,"xT1":424.9,"yT1":0,"xT2":1058.1,"yT2":0,"toosoon":0,"cond_shown":"equaldotanddens","ratio_trial":900,"smaller_num":"18","larger_num":"20","correct_side":1,"subjID":"juandavidtrujillo","gender":"0","age":"11","school":"6"},{"start_time":1551887812587,"click_time":1551887813763,"finger_time":1551887813302,"fix_duration":464.76840829539515,"trial":29,"RT":715,"MT":461,"sideResp":2,"stimulus":"img/500/equaldotanddens/R/2_Ratio_500_L_3_R_6.png","xmouse":[751,751,751,751,751,751,751,751,751,751,751,751,751,751,751,751,751,751,751,751,751,751,751,751,751,751,751,751,751,751,755,760,782,790,797,804,807,820,834,842,851,865,878,909,925,938,952,979,1001,1011,1020,1025,1030,1033,1037,1042,1048,1068,1075],"ymouse":[637,637,637,637,637,637,637,637,637,637,637,637,637,637,637,637,637,637,637,637,637,637,637,637,637,637,637,637,637,637,635,629,601,591,582,571,568,550,533,522,512,499,486,453,433,415,394,345,304,281,256,235,201,189,174,160,144,106,95],"timestamp_mouse":[16,37,55,75,94,115,136,155,175,196,215,236,256,275,294,316,335,355,374,396,416,434,456,476,496,516,534,556,575,595,615,635,655,675,695,715,736,755,774,795,816,835,854,875,894,916,934,955,975,995,1015,1034,1055,1074,1095,1116,1135,1155,1175],"xSR":741.5,"ySR":573.95,"xT1":424.9,"yT1":0,"xT2":1058.1,"yT2":0,"toosoon":0,"cond_shown":"equaldotanddens","ratio_trial":500,"smaller_num":"3","larger_num":"6","correct_side":2,"subjID":"juandavidtrujillo","gender":"0","age":"11","school":"6"},{"start_time":1551887816112,"click_time":1551887817163,"finger_time":1551887816842,"fix_duration":1309.1363555444127,"trial":30,"RT":730,"MT":321,"sideResp":1,"stimulus":"img/750/equaldotsize/L/9_Ratio_750_L_4_R_3.png","xmouse":[773,773,773,773,773,773,773,773,773,773,773,773,773,773,773,773,773,773,773,773,773,773,773,773,773,773,773,773,773,773,773,773,773,773,770,764,741,722,703,686,673,651,642,638,634,631,623,616,609,596,575,529,503],"ymouse":[601,601,601,601,601,601,601,601,601,601,601,601,601,601,601,601,601,601,601,601,601,601,601,601,601,601,601,601,601,601,601,601,601,601,595,574,525,494,466,435,411,372,349,336,322,311,283,263,241,214,180,122,91],"timestamp_mouse":[10,31,51,70,90,110,130,150,170,190,210,229,251,271,289,310,331,350,370,389,410,429,451,470,490,510,531,550,569,590,610,630,649,670,689,709,730,750,770,789,810,830,850,869,890,909,930,950,970,991,1009,1030,1051],"xSR":741.5,"ySR":573.95,"xT1":424.9,"yT1":0,"xT2":1058.1,"yT2":0,"toosoon":0,"cond_shown":"equaldotsize","ratio_trial":750,"smaller_num":"3","larger_num":"4","correct_side":1,"subjID":"juandavidtrujillo","gender":"0","age":"11","school":"6"},{"start_time":1551887819280,"click_time":1551887820763,"finger_time":1551887819881,"fix_duration":1115.7067145723604,"trial":31,"RT":601,"MT":882,"sideResp":1,"stimulus":"img/900/equaldotsize/R/5_Ratio_900_L_9_R_10.png","xmouse":[789,789,789,789,789,789,789,789,789,789,789,789,789,789,789,789,789,789,789,789,789,789,789,789,789,789,789,789,791,819,861,912,959,1056,1106,1120,1126,1128,1129,1129,1128,1128,1126,1120,1116,1108,1100,1089,1067,1051,1032,1009,974,922,893,865,838,815,778,765,749,732,713,674,658,647,638,627,594,575,560,549,542,532,524],"ymouse":[659,659,659,659,659,659,659,659,659,659,659,659,659,659,659,659,659,659,659,659,659,659,659,659,659,659,659,659,654,631,600,558,511,413,351,321,298,281,271,262,260,258,254,243,238,231,225,218,204,195,187,178,166,151,144,135,129,125,113,110,106,104,101,94,91,87,84,81,77,74,72,70,68,67,67],"timestamp_mouse":[9,23,43,62,81,102,122,142,161,183,201,221,242,263,283,301,322,343,363,382,401,422,442,463,481,501,522,543,562,581,601,622,641,662,681,701,721,741,761,782,801,821,841,862,881,901,921,942,961,981,1001,1022,1041,1061,1081,1102,1121,1141,1162,1181,1201,1221,1242,1262,1283,1302,1323,1341,1361,1381,1402,1421,1441,1461,1483],"xSR":741.5,"ySR":573.95,"xT1":424.9,"yT1":0,"xT2":1058.1,"yT2":0,"toosoon":0,"cond_shown":"equaldotsize","ratio_trial":900,"smaller_num":"9","larger_num":"10","correct_side":2,"subjID":"juandavidtrujillo","gender":"0","age":"11","school":"6"},{"start_time":1551887822479,"click_time":1551887823662,"finger_time":1551887823142,"fix_duration":637.8802753870118,"trial":32,"RT":663,"MT":520,"sideResp":2,"stimulus":"img/900/equaldotanddens/R/6_Ratio_900_L_9_R_10.png","xmouse":[796,796,796,796,796,796,796,796,796,796,796,796,796,796,796,796,796,796,796,796,796,796,796,796,796,796,796,796,797,805,813,824,833,862,879,902,932,966,989,1021,1032,1040,1045,1051,1064,1067,1073,1078,1090,1094,1096,1097,1098,1100,1101,1101,1101,1101,1101,1101],"ymouse":[623,623,623,623,623,623,623,623,623,623,623,623,623,623,623,623,623,623,623,623,623,623,623,623,623,623,623,623,623,621,619,616,612,596,585,566,539,505,478,441,425,413,401,389,360,347,329,308,265,244,228,216,205,195,172,162,151,139,108,94],"timestamp_mouse":[9,36,43,62,83,102,123,144,162,184,203,223,242,263,283,302,323,343,362,383,403,423,442,463,483,503,522,543,564,583,602,622,642,663,682,702,723,743,762,782,803,823,843,862,882,903,923,942,962,983,1003,1022,1042,1062,1083,1102,1123,1143,1163,1182],"xSR":741.5,"ySR":573.95,"xT1":424.9,"yT1":0,"xT2":1058.1,"yT2":0,"toosoon":0,"cond_shown":"equaldotanddens","ratio_trial":900,"smaller_num":"9","larger_num":"10","correct_side":2,"subjID":"juandavidtrujillo","gender":"0","age":"11","school":"6"},{"start_time":1551887824833,"click_time":1551887825942,"finger_time":1551887825361,"fix_duration":250,"trial":33,"RT":528,"MT":581,"sideResp":2,"stimulus":"img/250/equaldotsize/R/12_Ratio_250_L_5_R_20.png","xmouse":[809,809,809,809,809,809,809,809,809,809,809,809,809,809,809,809,809,809,809,809,809,809,809,814,818,836,855,861,866,873,889,898,909,923,934,979,993,1004,1011,1017,1026,1029,1032,1035,1041,1053,1064,1069,1071,1073,1076,1077,1079,1080,1082,1083],"ymouse":[625,625,625,625,625,625,625,625,625,625,625,625,625,625,625,625,625,625,625,625,625,625,625,620,617,604,590,584,578,570,547,531,514,491,467,362,325,298,275,256,225,214,205,196,184,162,145,138,135,131,125,120,116,110,104,92],"timestamp_mouse":[10,41,49,68,88,108,128,149,169,190,208,229,248,270,290,309,329,348,370,389,409,430,448,468,489,508,528,548,569,589,609,628,649,670,690,709,728,748,770,789,809,828,849,868,889,909,929,948,968,989,1010,1028,1049,1069,1090,1109],"xSR":741.5,"ySR":573.95,"xT1":424.9,"yT1":0,"xT2":1058.1,"yT2":0,"toosoon":0,"cond_shown":"equaldotsize","ratio_trial":250,"smaller_num":"5","larger_num":"20","correct_side":2,"subjID":"juandavidtrujillo","gender":"0","age":"11","school":"6"},{"start_time":1551887829042,"click_time":1551887829921,"finger_time":1551887829381,"fix_duration":459.0803260051415,"trial":34,"RT":339,"MT":540,"sideResp":2,"stimulus":"img/250/randomdotsizeEA/L/14_Ratio_250_L_12_R_3.png","xmouse":[808,808,808,808,808,808,808,808,808,808,808,808,808,808,808,809,816,826,839,849,867,872,876,881,882,884,884,885,887,890,902,911,924,939,951,979,999,1016,1029,1044,1062,1071,1080,1089,1098],"ymouse":[601,601,601,601,601,601,601,601,601,601,601,601,601,601,601,594,575,558,539,524,499,489,480,469,463,457,457,455,452,448,429,420,405,389,376,347,324,305,285,261,210,184,154,125,97],"timestamp_mouse":[1,31,39,59,79,101,119,140,160,180,201,219,239,260,279,299,319,339,361,380,399,419,440,460,480,499,519,539,560,580,599,619,640,660,680,699,719,740,760,780,799,820,841,859,879],"xSR":741.5,"ySR":573.95,"xT1":424.9,"yT1":0,"xT2":1058.1,"yT2":0,"toosoon":0,"cond_shown":"randomdotsizeEA","ratio_trial":250,"smaller_num":"3","larger_num":"12","correct_side":1,"subjID":"juandavidtrujillo","gender":"0","age":"11","school":"6"},{"start_time":1551887835339,"click_time":1551887836441,"finger_time":1551887835881,"fix_duration":1454.758910879403,"trial":35,"RT":542,"MT":560,"sideResp":1,"stimulus":"img/750/equaldotsize/L/1_Ratio_750_L_20_R_15.png","xmouse":[771,771,771,771,771,771,771,771,771,771,771,771,771,771,771,772,772,772,770,768,767,766,766,765,764,763,762,761,758,755,742,736,723,711,695,655,631,608,583,561,523,503,497,493,491,487,485,484,483,482,480,478,477,477,477,476],"ymouse":[626,626,626,626,626,626,626,626,626,626,626,626,626,626,626,624,610,604,599,594,588,586,585,583,581,577,574,570,563,554,531,517,489,467,442,389,360,333,304,279,234,209,198,187,180,166,160,155,148,142,129,120,113,107,103,99],"timestamp_mouse":[8,35,44,64,82,103,123,142,163,182,202,223,243,263,284,302,322,343,362,384,403,422,442,464,482,502,522,542,563,583,602,622,643,663,683,702,722,742,763,782,802,822,842,862,884,903,922,943,963,984,1002,1023,1043,1062,1083,1102],"xSR":741.5,"ySR":573.95,"xT1":424.9,"yT1":0,"xT2":1058.1,"yT2":0,"toosoon":0,"cond_shown":"equaldotsize","ratio_trial":750,"smaller_num":"15","larger_num":"20","correct_side":1,"subjID":"juandavidtrujillo","gender":"0","age":"11","school":"6"},{"start_time":1551887838049,"click_time":1551887839641,"finger_time":1551887838642,"fix_duration":566.8538196746078,"trial":36,"RT":593,"MT":999,"sideResp":1,"stimulus":"img/750/randomdotsizeEA/L/9_Ratio_750_L_4_R_3.png","xmouse":[758,758,758,758,758,758,758,758,758,758,758,758,758,758,758,758,758,758,758,758,758,758,758,758,758,751,748,743,742,741,741,741,741,741,741,741,741,741,741,741,741,741,741,741,741,741,738,731,725,715,709,705,700,695,689,687,684,682,679,667,661,652,645,637,620,608,600,591,580,565,559,555,552,550,547,543,538,531,520,491],"ymouse":[665,665,665,665,665,665,665,665,665,665,665,665,665,665,665,665,665,665,665,665,665,665,665,665,664,653,650,644,641,640,640,640,640,640,640,640,640,640,640,640,640,640,638,634,618,608,587,570,556,527,509,492,475,459,431,417,395,378,359,322,304,286,272,259,234,220,211,202,193,180,174,170,167,163,156,147,138,128,115,85],"timestamp_mouse":[13,39,54,72,93,112,132,154,173,192,213,233,252,274,293,312,334,352,374,393,413,432,452,473,492,512,532,554,573,593,613,633,653,673,693,712,732,752,772,793,814,832,852,874,893,913,932,954,973,992,1012,1032,1052,1073,1093,1113,1132,1152,1172,1192,1212,1233,1254,1274,1292,1313,1332,1354,1374,1393,1412,1433,1453,1473,1492,1513,1532,1553,1573,1592],"xSR":741.5,"ySR":573.95,"xT1":424.9,"yT1":0,"xT2":1058.1,"yT2":0,"toosoon":0,"cond_shown":"randomdotsizeEA","ratio_trial":750,"smaller_num":"3","larger_num":"4","correct_side":1,"subjID":"juandavidtrujillo","gender":"0","age":"11","school":"6"},{"start_time":1551887841831,"click_time":1551887843403,"finger_time":1551887842422,"fix_duration":1048.455684973324,"trial":37,"RT":591,"MT":981,"sideResp":1,"stimulus":"img/750/equaldotanddens/L/8_Ratio_750_L_4_R_3.png","xmouse":[802,802,802,802,802,802,802,802,802,802,802,802,802,802,802,802,802,802,802,802,802,802,802,802,802,802,803,798,791,780,756,746,738,733,729,721,717,711,703,695,677,669,657,647,638,623,611,605,602,598,594,591,589,586,584,577,570,568,561,556,549,547,545,543,542,539,537,534,531,529,525,523,521,520,517,513,511,508,507],"ymouse":[619,619,619,619,619,619,619,619,619,619,619,619,619,619,619,619,619,619,619,619,619,619,619,619,619,619,612,595,576,553,509,495,481,474,469,458,453,445,435,424,401,388,371,353,335,298,272,258,248,237,224,216,210,205,199,186,174,169,159,152,144,141,138,136,133,129,126,124,121,119,116,115,114,112,111,105,103,100,99],"timestamp_mouse":[11,43,51,70,92,112,130,150,171,192,211,230,251,271,291,310,331,350,370,391,410,430,452,471,491,510,531,550,570,591,610,630,650,670,691,711,730,750,771,792,811,830,850,870,891,910,932,950,970,991,1010,1030,1050,1070,1091,1110,1130,1151,1171,1190,1210,1230,1250,1271,1292,1310,1331,1350,1370,1390,1410,1430,1450,1472,1490,1511,1530,1550,1572],"xSR":741.5,"ySR":573.95,"xT1":424.9,"yT1":0,"xT2":1058.1,"yT2":0,"toosoon":0,"cond_shown":"equaldotanddens","ratio_trial":750,"smaller_num":"3","larger_num":"4","correct_side":1,"subjID":"juandavidtrujillo","gender":"0","age":"11","school":"6"},{"start_time":1551887844934,"click_time":1551887846802,"finger_time":1551887845521,"fix_duration":250,"trial":38,"RT":587,"MT":1281,"sideResp":1,"stimulus":"img/250/randomdotsizeEA/L/14_Ratio_250_L_12_R_3.png","xmouse":[782,782,782,782,782,782,782,782,782,782,782,782,782,782,782,782,782,782,782,782,782,782,782,782,782,782,782,782,787,798,879,908,926,929,932,939,944,947,950,951,951,951,951,951,951,949,943,931,915,894,847,825,795,780,766,752,746,741,736,730,713,701,687,673,664,645,634,621,606,592,570,563,560,559,559,559,559,559,559,557,551,548,546,545,544,541,539,538,535,533,533,531,528,524],"ymouse":[574,574,574,574,574,574,574,574,574,574,574,574,574,574,574,574,574,574,574,574,574,574,574,574,574,574,574,574,575,566,479,433,391,375,357,330,316,305,296,287,279,277,277,275,274,265,258,250,239,228,203,188,167,154,143,126,119,115,111,108,100,96,92,87,85,79,76,72,68,64,58,55,53,53,53,53,53,53,53,53,53,53,52,52,52,52,52,52,52,52,52,52,52,52],"timestamp_mouse":[10,37,48,67,88,109,127,148,167,189,209,227,247,268,287,307,328,347,368,387,408,429,448,467,489,508,527,548,567,587,607,628,647,668,688,708,727,747,767,788,807,827,848,868,887,907,928,948,967,988,1007,1028,1047,1067,1088,1108,1127,1148,1167,1188,1207,1228,1248,1268,1288,1307,1327,1347,1367,1389,1407,1427,1448,1467,1489,1508,1527,1548,1568,1587,1608,1628,1648,1667,1687,1707,1727,1747,1767,1787,1807,1829,1847,1868],"xSR":741.5,"ySR":573.95,"xT1":424.9,"yT1":0,"xT2":1058.1,"yT2":0,"toosoon":0,"cond_shown":"randomdotsizeEA","ratio_trial":250,"smaller_num":"3","larger_num":"12","correct_side":1,"subjID":"juandavidtrujillo","gender":"0","age":"11","school":"6"},{"start_time":1551887848314,"click_time":1551887850141,"finger_time":1551887849042,"fix_duration":250,"trial":39,"RT":728,"MT":1099,"sideResp":1,"stimulus":"img/900/randomdotsizeEA/R/7_Ratio_900_L_9_R_10.png","xmouse":[820,820,820,820,820,820,820,820,820,820,820,818,816,815,812,811,811,811,811,811,811,811,811,811,811,811,811,811,811,811,811,811,811,811,811,811,806,801,793,786,777,760,750,747,738,734,734,734,734,738,744,775,803,825,845,860,883,892,902,916,932,965,979,992,1003,1004,1004,1004,1004,1004,1004,1004,990,965,919,894,859,849,841,831,814,760,716,643,609,585,562,557,551,546,539,520],"ymouse":[608,608,608,608,608,608,608,608,608,608,605,599,593,591,586,585,583,583,583,583,583,583,583,583,583,583,583,583,583,583,583,583,583,583,582,577,563,550,532,514,496,455,430,423,400,390,383,381,378,373,369,355,343,332,320,310,289,277,264,242,219,175,154,136,123,122,122,122,122,122,122,120,110,99,79,70,60,59,58,58,58,57,50,37,30,27,24,24,24,24,23,19],"timestamp_mouse":[10,42,47,68,87,107,127,148,168,187,208,227,249,268,287,308,328,348,367,389,407,427,449,467,489,509,529,548,568,587,608,627,648,669,687,708,728,747,767,787,808,827,847,867,888,908,928,947,968,988,1008,1027,1049,1067,1088,1108,1128,1148,1167,1187,1207,1227,1249,1268,1288,1307,1327,1348,1368,1387,1407,1427,1448,1467,1488,1507,1527,1547,1567,1587,1608,1628,1647,1667,1687,1708,1727,1748,1768,1787,1808,1827],"xSR":741.5,"ySR":573.95,"xT1":424.9,"yT1":0,"xT2":1058.1,"yT2":0,"toosoon":0,"cond_shown":"randomdotsizeEA","ratio_trial":900,"smaller_num":"9","larger_num":"10","correct_side":2,"subjID":"juandavidtrujillo","gender":"0","age":"11","school":"6"},{"start_time":1551887851695,"click_time":1551887853141,"finger_time":1551887852082,"fix_duration":250,"trial":40,"RT":387,"MT":1059,"sideResp":2,"stimulus":"img/500/equaldotsize/R/15_Ratio_500_L_1_R_2.png","xmouse":[805,805,805,805,805,805,805,805,805,805,805,805,805,806,806,807,808,811,812,812,814,815,821,828,831,840,850,868,874,880,884,888,900,908,917,920,923,927,928,929,929,930,930,930,931,932,932,932,932,932,933,933,935,937,942,945,955,971,978,985,991,995,1006,1013,1024,1030,1035,1042,1046,1050,1053,1055,1060],"ymouse":[604,604,604,604,604,604,604,604,604,604,604,604,604,602,600,596,591,580,574,569,562,557,537,518,511,490,473,447,440,432,424,416,396,383,366,359,352,341,338,333,329,326,318,315,311,308,305,297,293,290,287,285,282,279,272,268,253,232,224,214,206,197,170,157,139,131,122,107,101,94,91,87,79],"timestamp_mouse":[8,33,47,67,87,107,127,146,166,186,207,227,247,267,287,307,326,346,366,387,407,427,446,466,486,507,526,547,566,586,607,627,647,667,687,706,726,746,766,787,807,828,847,867,886,906,928,947,966,987,1007,1026,1046,1067,1086,1106,1126,1146,1166,1186,1206,1227,1246,1267,1286,1306,1327,1347,1366,1386,1407,1427,1446],"xSR":741.5,"ySR":573.95,"xT1":424.9,"yT1":0,"xT2":1058.1,"yT2":0,"toosoon":0,"cond_shown":"equaldotsize","ratio_trial":500,"smaller_num":"1","larger_num":"2","correct_side":2,"subjID":"juandavidtrujillo","gender":"0","age":"11","school":"6"},{"start_time":1551887855032,"click_time":1551887856142,"finger_time":1551887855581,"fix_duration":1049.7464517180124,"trial":41,"RT":549,"MT":561,"sideResp":2,"stimulus":"img/250/equaldotsize/R/4_Ratio_250_L_3_R_12.png","xmouse":[775,775,777,779,780,782,782,782,782,782,782,782,782,782,782,782,782,782,783,783,785,787,787,789,791,804,814,842,868,896,947,966,978,988,996,1018,1038,1051,1063,1074,1100,1116,1134,1153,1172,1199,1205,1206,1206,1206,1206,1206,1201,1189,1173,1121],"ymouse":[634,634,635,634,633,633,633,633,633,633,633,633,633,633,633,633,633,633,632,632,629,626,625,623,622,615,607,585,563,536,489,466,445,424,405,362,331,312,295,277,237,214,194,175,157,130,123,117,115,115,115,113,108,101,94,78],"timestamp_mouse":[10,39,50,69,90,109,131,149,169,189,211,229,250,270,291,310,330,349,371,389,409,429,450,469,489,509,531,549,569,589,609,629,649,670,690,710,730,749,770,789,809,829,850,870,890,909,929,949,970,990,1010,1029,1049,1070,1090,1110],"xSR":741.5,"ySR":573.95,"xT1":424.9,"yT1":0,"xT2":1058.1,"yT2":0,"toosoon":0,"cond_shown":"equaldotsize","ratio_trial":250,"smaller_num":"3","larger_num":"12","correct_side":2,"subjID":"juandavidtrujillo","gender":"0","age":"11","school":"6"},{"start_time":1551887858085,"click_time":1551887859342,"finger_time":1551887858642,"fix_duration":382.45421194496896,"trial":42,"RT":557,"MT":700,"sideResp":2,"stimulus":"img/500/equaldotanddens/R/9_Ratio_500_L_2_R_4.png","xmouse":[809,809,809,809,809,809,809,809,809,809,809,809,809,809,809,809,809,809,809,809,809,809,809,811,817,825,835,862,869,875,877,879,885,892,898,907,913,923,929,935,942,951,964,972,978,988,999,1010,1014,1015,1017,1017,1017,1017,1018,1021,1024,1033,1039,1042,1046,1051,1069],"ymouse":[657,655,653,653,653,652,652,652,652,651,651,651,650,650,650,650,650,650,650,650,650,647,642,632,622,602,577,498,473,456,446,438,423,412,402,384,368,337,322,305,285,261,214,190,166,140,104,66,55,50,47,47,47,47,47,48,49,52,53,53,53,53,53],"timestamp_mouse":[16,37,56,77,96,116,138,157,178,196,216,238,258,276,297,318,337,357,377,397,416,436,456,476,498,516,536,557,576,596,617,637,657,676,697,716,737,756,777,796,816,837,856,877,897,917,936,956,977,997,1018,1037,1058,1076,1096,1117,1137,1157,1177,1196,1217,1236,1257],"xSR":741.5,"ySR":573.95,"xT1":424.9,"yT1":0,"xT2":1058.1,"yT2":0,"toosoon":0,"cond_shown":"equaldotanddens","ratio_trial":500,"smaller_num":"2","larger_num":"4","correct_side":2,"subjID":"juandavidtrujillo","gender":"0","age":"11","school":"6"},{"start_time":1551887861764,"click_time":1551887862861,"finger_time":1551887862302,"fix_duration":1360.1489250762133,"trial":43,"RT":538,"MT":559,"sideResp":2,"stimulus":"img/500/randomdotsizeEA/L/8_Ratio_500_L_8_R_4.png","xmouse":[817,817,817,817,817,817,817,817,817,817,817,817,817,817,817,817,817,817,817,817,817,817,817,817,822,829,837,845,871,887,900,910,918,938,948,961,980,1002,1031,1036,1036,1036,1036,1038,1038,1040,1040,1041,1044,1046,1049,1053,1057,1066,1075],"ymouse":[613,613,613,613,613,613,613,613,613,613,613,613,613,613,613,613,613,613,613,613,613,613,613,613,598,581,563,543,480,443,410,379,359,319,295,265,229,198,162,155,155,153,151,146,144,142,140,139,134,131,128,125,121,109,99],"timestamp_mouse":[18,41,58,78,97,118,138,157,177,198,218,237,257,277,297,318,338,357,377,398,417,438,458,478,497,517,538,557,577,597,618,637,657,677,697,717,737,757,778,798,817,838,857,877,897,917,938,958,977,998,1018,1039,1058,1077,1097],"xSR":741.5,"ySR":573.95,"xT1":424.9,"yT1":0,"xT2":1058.1,"yT2":0,"toosoon":0,"cond_shown":"randomdotsizeEA","ratio_trial":500,"smaller_num":"4","larger_num":"8","correct_side":1,"subjID":"juandavidtrujillo","gender":"0","age":"11","school":"6"},{"start_time":1551887865648,"click_time":1551887867582,"finger_time":1551887866202,"fix_duration":383.4950758053927,"trial":44,"RT":554,"MT":1380,"sideResp":2,"stimulus":"img/250/randomdotsizeEA/R/8_Ratio_250_L_1_R_4.png","xmouse":[770,770,770,770,770,770,770,770,770,770,770,770,770,770,770,770,770,770,770,770,770,770,770,770,770,765,758,742,724,677,665,654,644,634,609,596,586,578,570,562,559,557,555,553,549,548,548,548,548,548,548,548,548,548,548,548,548,548,546,542,541,540,540,540,540,540,540,540,540,542,557,583,611,637,693,721,743,757,784,824,839,849,859,870,890,897,901,904,909,919,927,941,959,982,1025,1044,1059],"ymouse":[655,655,655,655,655,655,655,655,655,655,655,655,655,655,655,655,655,655,655,655,655,655,655,655,640,618,598,560,524,446,422,404,388,371,339,325,313,301,281,249,231,215,201,186,165,159,158,157,157,157,157,157,157,157,157,157,155,150,145,135,132,131,129,128,128,128,128,128,128,128,137,148,159,167,172,172,172,171,171,171,168,167,165,162,155,154,152,150,147,141,136,127,114,102,81,75,68],"timestamp_mouse":[14,42,55,73,93,113,135,154,175,194,214,234,253,273,295,315,333,354,375,393,414,435,453,474,493,513,534,554,574,594,613,633,653,673,693,713,734,755,774,794,813,833,854,874,893,914,933,954,974,994,1014,1034,1054,1074,1093,1113,1133,1154,1174,1194,1213,1233,1253,1273,1293,1313,1335,1354,1373,1393,1414,1433,1454,1473,1493,1514,1533,1554,1573,1593,1613,1633,1653,1673,1693,1714,1733,1755,1774,1794,1813,1833,1853,1874,1894,1913,1934],"xSR":741.5,"ySR":573.95,"xT1":424.9,"yT1":0,"xT2":1058.1,"yT2":0,"toosoon":0,"cond_shown":"randomdotsizeEA","ratio_trial":250,"smaller_num":"1","larger_num":"4","correct_side":2,"subjID":"juandavidtrujillo","gender":"0","age":"11","school":"6"},{"start_time":1551887869521,"click_time":1551887870763,"finger_time":1551887870041,"fix_duration":638.988630909768,"trial":45,"RT":520,"MT":722,"sideResp":2,"stimulus":"img/750/randomdotsizeEA/R/2_Ratio_750_L_6_R_8.png","xmouse":[820,822,822,822,822,823,823,823,823,823,823,823,823,823,823,823,823,823,823,823,823,823,823,823,827,833,847,863,881,893,918,934,951,967,980,999,1033,1064,1096,1128,1154,1187,1196,1200,1204,1209,1216,1218,1219,1219,1219,1219,1219,1219,1219,1219,1219,1218,1203,1189,1188,1168,1149],"ymouse":[616,613,612,612,612,611,611,611,611,611,611,611,611,611,611,611,610,610,610,610,610,610,610,610,605,599,588,578,570,563,548,537,524,509,488,445,330,252,189,156,129,104,98,94,90,82,64,57,52,49,48,48,48,48,48,48,48,46,42,39,38,36,36],"timestamp_mouse":[1,28,41,60,80,102,122,140,160,180,200,222,240,262,280,300,321,340,362,380,400,421,440,460,480,502,520,540,562,581,602,620,641,660,681,701,722,740,760,780,800,821,840,860,880,900,921,941,960,980,1000,1020,1041,1061,1080,1101,1121,1140,1162,1180,1201,1221,1242],"xSR":741.5,"ySR":573.95,"xT1":424.9,"yT1":0,"xT2":1058.1,"yT2":0,"toosoon":0,"cond_shown":"randomdotsizeEA","ratio_trial":750,"smaller_num":"6","larger_num":"8","correct_side":2,"subjID":"juandavidtrujillo","gender":"0","age":"11","school":"6"},{"start_time":1551887872673,"click_time":1551887874042,"finger_time":1551887873322,"fix_duration":330.591573437605,"trial":46,"RT":649,"MT":720,"sideResp":2,"stimulus":"img/900/equaldotanddens/L/8_Ratio_900_L_20_R_18.png","xmouse":[764,764,764,764,764,764,764,764,764,764,764,764,764,764,764,764,764,764,764,764,764,764,764,764,764,764,764,763,764,767,772,782,793,822,835,851,878,902,956,986,1007,1026,1043,1060,1067,1073,1080,1085,1094,1097,1098,1099,1099,1099,1099,1099,1100,1100,1102,1102,1102,1102,1102,1102,1102,1102,1102,1102,1102],"ymouse":[604,604,604,604,604,604,604,604,604,604,604,604,604,604,604,604,604,604,604,604,604,604,604,604,604,604,604,604,599,594,589,579,569,550,542,534,514,491,416,372,342,310,280,241,226,211,190,179,158,148,140,135,130,126,124,121,116,113,106,103,102,102,102,102,102,102,101,101,99],"timestamp_mouse":[14,36,48,70,89,109,129,148,168,190,208,229,250,270,288,309,328,350,369,388,409,430,450,469,489,508,530,548,568,588,609,629,649,668,689,709,728,748,768,788,808,829,848,868,888,909,928,948,968,989,1009,1028,1049,1068,1088,1109,1129,1149,1168,1189,1208,1228,1249,1269,1289,1308,1328,1348,1368],"xSR":741.5,"ySR":573.95,"xT1":424.9,"yT1":0,"xT2":1058.1,"yT2":0,"toosoon":0,"cond_shown":"equaldotanddens","ratio_trial":900,"smaller_num":"18","larger_num":"20","correct_side":1,"subjID":"juandavidtrujillo","gender":"0","age":"11","school":"6"},{"start_time":1551887875849,"click_time":1551887877741,"finger_time":1551887875921,"fix_duration":285.20024972389814,"trial":47,"RT":72,"MT":1820,"sideResp":2,"stimulus":"img/250/equaldotsize/R/4_Ratio_250_L_3_R_12.png","xmouse":[814,814,814,814,814,814,814,814,813,812,812,812,811,810,807,806,804,803,801,799,797,797,796,796,794,791,789,787,783,782,781,781,781,781,781,781,781,785,788,788,789,789,790,790,790,790,790,790,790,790,790,790,790,790,790,790,790,790,790,790,790,790,790,790,790,790,790,790,790,790,790,799,811,827,870,889,908,929,946,993,1005,1015,1022,1029,1041,1045,1049,1049,1050,1054,1055,1055,1057,1057,1060],"ymouse":[578,578,574,573,571,570,569,568,566,564,564,562,560,558,551,549,544,539,536,530,528,526,525,524,519,516,512,508,502,500,499,499,499,498,498,498,499,519,578,597,610,619,624,626,627,627,627,627,627,627,627,627,627,627,627,627,627,627,627,627,627,627,627,627,627,627,627,627,627,627,628,622,609,594,552,528,505,481,451,352,325,301,282,261,219,197,171,165,144,123,117,112,107,103,95],"timestamp_mouse":[31,32,52,72,92,112,133,154,173,193,213,233,252,272,292,312,333,352,372,393,412,433,452,473,492,513,533,553,573,593,612,632,653,673,693,712,733,753,773,793,812,832,853,873,892,913,932,954,972,992,1013,1032,1053,1073,1093,1112,1132,1153,1172,1192,1213,1233,1252,1272,1293,1313,1333,1354,1372,1392,1412,1432,1452,1472,1492,1512,1533,1553,1573,1593,1612,1634,1653,1673,1692,1713,1732,1753,1772,1793,1812,1832,1852,1873,1892],"xSR":741.5,"ySR":573.95,"xT1":424.9,"yT1":0,"xT2":1058.1,"yT2":0,"toosoon":0,"cond_shown":"equaldotsize","ratio_trial":250,"smaller_num":"3","larger_num":"12","correct_side":2,"subjID":"juandavidtrujillo","gender":"0","age":"11","school":"6"},{"start_time":1551887879932,"click_time":1551887882282,"finger_time":1551887880643,"fix_duration":589.5977181009646,"trial":48,"RT":711,"MT":1639,"sideResp":1,"stimulus":"img/500/randomdotsizeEA/L/5_Ratio_500_L_4_R_2.png","xmouse":[806,806,806,806,806,806,806,806,806,806,806,806,806,806,806,806,806,806,806,806,806,806,806,806,806,806,807,810,811,812,815,816,818,819,822,822,822,820,812,804,764,747,729,713,697,676,669,666,664,661,661,661,661,661,661,661,661,662,663,663,663,663,663,663,663,679,699,721,748,797,902,1023,1057,1077,1088,1097,1097,1097,1097,1097,1098,1098,1098,1098,1098,1098,1089,1076,1060,1041,1001,990,978,962,946,907,887,865,839,805,741,695,671,649,634,622,612,609,603,596,582,575,568,558,548,540,525,517],"ymouse":[598,598,598,598,598,598,598,598,598,598,598,598,598,598,598,598,598,598,598,598,598,598,598,598,598,598,598,598,597,596,593,592,589,588,574,559,540,517,484,454,385,366,348,333,320,305,298,294,291,288,288,288,288,288,288,288,286,279,269,261,246,241,241,241,241,240,240,240,240,235,221,190,181,174,168,163,163,163,163,163,162,162,162,162,162,160,159,158,156,153,147,146,146,146,146,146,146,143,139,131,115,103,96,90,84,80,77,76,75,74,72,72,72,71,70,70,70,70],"timestamp_mouse":[14,36,49,69,90,109,129,151,170,191,209,229,249,269,290,309,330,350,369,390,409,429,449,470,489,509,529,549,569,589,609,630,649,670,690,711,729,749,769,790,810,829,849,869,890,909,929,949,970,989,1010,1029,1049,1070,1089,1109,1129,1150,1169,1191,1209,1230,1250,1269,1289,1309,1329,1351,1370,1389,1409,1429,1449,1469,1489,1510,1530,1549,1569,1590,1610,1630,1650,1669,1689,1709,1729,1749,1769,1790,1810,1830,1849,1870,1890,1909,1929,1949,1970,1989,2009,2029,2049,2071,2090,2110,2129,2149,2169,2190,2209,2229,2249,2269,2290,2309,2329,2350],"xSR":741.5,"ySR":573.95,"xT1":424.9,"yT1":0,"xT2":1058.1,"yT2":0,"toosoon":0,"cond_shown":"randomdotsizeEA","ratio_trial":500,"smaller_num":"2","larger_num":"4","correct_side":1,"subjID":"juandavidtrujillo","gender":"0","age":"11","school":"6"},{"start_time":1551887884711,"click_time":1551887886542,"finger_time":1551887885361,"fix_duration":1388.7117010533605,"trial":49,"RT":650,"MT":1181,"sideResp":1,"stimulus":"img/250/randomdotsizeEA/L/1_Ratio_250_L_8_R_2.png","xmouse":[763,763,763,763,763,763,763,763,763,763,763,763,763,763,763,763,763,763,763,763,763,763,763,763,763,763,763,763,763,768,778,816,847,873,898,923,968,988,1006,1016,1024,1027,1030,1031,1031,1033,1034,1035,1035,1035,1035,1028,1018,1012,1003,988,975,969,969,969,969,969,967,959,943,921,896,825,789,755,722,651,629,606,584,566,555,551,551,551,551,550,550,548,548,547,541,538,533,531,528,524],"ymouse":[619,619,619,619,619,619,619,619,619,619,619,619,619,619,619,619,619,619,619,619,619,619,619,619,619,619,619,619,619,615,608,587,568,550,531,509,442,406,374,352,335,326,318,316,314,311,307,306,305,302,301,295,291,289,284,274,264,261,261,261,261,261,260,254,247,238,228,201,191,179,169,140,126,116,107,99,94,91,91,90,89,87,85,84,83,82,80,78,78,76,76,75],"timestamp_mouse":[10,35,50,71,91,111,130,151,170,190,210,232,250,271,290,310,330,350,372,390,410,431,450,470,490,510,530,550,570,590,610,630,650,671,690,711,730,750,770,790,811,830,850,871,891,910,930,950,970,990,1010,1030,1050,1071,1090,1111,1130,1150,1170,1190,1210,1231,1250,1270,1291,1310,1330,1350,1371,1390,1411,1431,1450,1470,1491,1511,1530,1550,1570,1590,1611,1631,1650,1670,1691,1711,1730,1750,1770,1791,1810,1831],"xSR":741.5,"ySR":573.95,"xT1":424.9,"yT1":0,"xT2":1058.1,"yT2":0,"toosoon":0,"cond_shown":"randomdotsizeEA","ratio_trial":250,"smaller_num":"2","larger_num":"8","correct_side":1,"subjID":"juandavidtrujillo","gender":"0","age":"11","school":"6"},{"start_time":1551887888985,"click_time":1551887890323,"finger_time":1551887889361,"fix_duration":1083.861743141958,"trial":50,"RT":376,"MT":962,"sideResp":1,"stimulus":"img/750/equaldotanddens/L/8_Ratio_750_L_4_R_3.png","xmouse":[774,774,774,774,774,774,774,774,774,774,775,775,777,779,780,782,783,790,794,795,797,797,798,798,799,800,801,803,803,803,803,803,804,804,804,804,804,803,798,795,791,785,777,772,768,763,755,741,727,717,705,692,651,622,593,570,552,523,514,507,503,496,487,484,480,478,475],"ymouse":[608,608,608,608,608,608,608,608,608,608,609,609,608,603,599,596,592,581,570,565,561,557,548,545,540,535,530,520,513,506,500,495,484,479,474,469,464,451,437,428,421,409,389,380,370,358,345,320,302,288,276,264,237,220,204,190,178,156,147,138,134,125,115,111,107,103,99],"timestamp_mouse":[16,36,57,77,96,117,137,156,176,197,217,236,256,276,296,317,336,356,376,396,416,436,456,476,496,517,537,556,576,597,617,636,656,676,697,716,736,756,776,796,816,837,856,876,897,916,937,956,977,996,1016,1037,1056,1076,1097,1117,1137,1156,1176,1196,1216,1236,1256,1276,1296,1316,1338],"xSR":741.5,"ySR":573.95,"xT1":424.9,"yT1":0,"xT2":1058.1,"yT2":0,"toosoon":0,"cond_shown":"equaldotanddens","ratio_trial":750,"smaller_num":"3","larger_num":"4","correct_side":1,"subjID":"juandavidtrujillo","gender":"0","age":"11","school":"6"},{"start_time":1551887893966,"click_time":1551887895541,"finger_time":1551887894563,"fix_duration":1042.6425409418393,"trial":51,"RT":597,"MT":978,"sideResp":2,"stimulus":"img/250/equaldotsize/R/13_Ratio_250_L_2_R_8.png","xmouse":[799,799,799,799,799,799,799,799,799,799,799,799,799,799,799,799,799,799,799,799,799,799,799,799,799,799,809,817,833,863,879,886,897,907,914,925,936,947,961,969,976,984,989,997,1001,1004,1007,1009,1013,1017,1019,1023,1025,1031,1033,1035,1035,1036,1041,1043,1045,1046,1047,1048,1049,1050,1051,1053,1057,1060,1062,1064,1065,1069,1070,1072,1073,1074,1078],"ymouse":[660,660,660,660,660,660,660,660,660,660,660,660,660,660,660,660,660,660,660,660,660,660,660,660,660,660,661,662,662,658,654,650,645,636,624,605,587,570,532,500,476,450,427,373,349,329,306,286,251,230,220,210,202,190,186,184,183,182,177,173,170,168,166,164,162,161,158,156,148,143,138,134,129,121,118,114,110,107,99],"timestamp_mouse":[18,50,55,76,95,115,136,157,175,195,216,236,256,275,295,316,335,355,375,395,415,436,455,475,497,516,535,555,575,597,615,635,655,675,695,715,735,755,775,795,815,836,856,875,895,915,935,955,975,996,1015,1036,1055,1075,1095,1115,1135,1155,1176,1195,1215,1236,1255,1275,1295,1316,1336,1355,1375,1396,1415,1436,1456,1475,1495,1515,1535,1556,1575],"xSR":741.5,"ySR":573.95,"xT1":424.9,"yT1":0,"xT2":1058.1,"yT2":0,"toosoon":0,"cond_shown":"equaldotsize","ratio_trial":250,"smaller_num":"2","larger_num":"8","correct_side":2,"subjID":"juandavidtrujillo","gender":"0","age":"11","school":"6"},{"start_time":1551887897173,"click_time":1551887898721,"finger_time":1551887897762,"fix_duration":250,"trial":52,"RT":589,"MT":959,"sideResp":1,"stimulus":"img/900/equaldotsize/L/4_Ratio_900_L_20_R_18.png","xmouse":[791,791,791,791,791,791,791,791,791,791,791,791,791,791,791,791,791,791,791,791,791,791,791,791,792,794,799,806,820,832,845,853,859,872,876,879,883,886,887,887,885,880,871,848,836,823,811,797,769,754,736,726,716,702,694,688,681,676,660,646,634,623,613,597,589,581,574,566,558,557,556,556,555,554,553,547,536,523],"ymouse":[601,601,601,601,601,601,601,601,601,601,601,601,601,601,601,601,601,601,601,601,601,601,601,601,601,600,597,592,580,569,558,553,547,534,526,518,509,498,475,464,445,428,410,367,348,328,309,289,248,228,200,184,171,155,149,145,139,134,121,111,103,96,89,80,76,71,68,64,60,60,59,59,59,59,58,58,57,55],"timestamp_mouse":[10,32,49,68,89,108,128,149,168,189,208,229,249,269,288,308,329,349,368,389,408,429,448,468,488,508,528,549,568,589,608,628,648,668,688,709,728,748,768,788,808,828,849,868,888,908,929,948,968,988,1009,1030,1048,1068,1088,1108,1130,1148,1168,1188,1208,1228,1249,1269,1288,1309,1329,1349,1368,1388,1408,1429,1448,1469,1488,1508,1528,1548],"xSR":741.5,"ySR":573.95,"xT1":424.9,"yT1":0,"xT2":1058.1,"yT2":0,"toosoon":0,"cond_shown":"equaldotsize","ratio_trial":900,"smaller_num":"18","larger_num":"20","correct_side":1,"subjID":"juandavidtrujillo","gender":"0","age":"11","school":"6"},{"start_time":1551887901226,"click_time":1551887902181,"finger_time":1551887901781,"fix_duration":743.040367942237,"trial":53,"RT":555,"MT":400,"sideResp":2,"stimulus":"img/900/randomdotsizeEA/R/5_Ratio_900_L_9_R_10.png","xmouse":[755,755,755,755,755,755,755,755,755,755,755,755,755,755,755,755,755,755,755,755,755,755,755,755,755,759,772,808,837,871,930,960,989,1020,1052,1083,1096,1101,1104,1106,1109,1111,1113,1117,1118,1124,1127,1129],"ymouse":[585,585,585,585,585,585,585,585,585,585,585,585,585,585,585,585,585,585,585,585,585,585,585,585,585,585,576,554,536,512,459,427,388,343,299,242,214,201,190,184,171,163,156,145,136,117,105,98],"timestamp_mouse":[20,37,63,75,95,115,136,155,175,195,215,235,256,275,296,316,335,355,376,395,415,437,455,475,495,515,535,555,575,595,615,635,656,675,697,715,736,755,775,795,815,835,855,875,896,915,935,955],"xSR":741.5,"ySR":573.95,"xT1":424.9,"yT1":0,"xT2":1058.1,"yT2":0,"toosoon":0,"cond_shown":"randomdotsizeEA","ratio_trial":900,"smaller_num":"9","larger_num":"10","correct_side":2,"subjID":"juandavidtrujillo","gender":"0","age":"11","school":"6"},{"start_time":1551887904164,"click_time":1551887905581,"finger_time":1551887904741,"fix_duration":821.4643909896707,"trial":54,"RT":577,"MT":840,"sideResp":2,"stimulus":"img/250/equaldotanddens/R/11_Ratio_250_L_3_R_12.png","xmouse":[771,771,771,771,771,771,771,771,771,771,771,771,771,771,771,771,771,771,771,771,771,771,771,771,771,774,778,787,809,820,827,834,843,865,876,885,896,905,921,928,939,944,947,957,962,968,974,978,983,985,988,994,999,1009,1013,1018,1023,1027,1032,1034,1035,1036,1037,1038,1040,1041,1041,1042,1044,1055,1063],"ymouse":[608,608,608,608,608,608,608,608,608,608,608,608,608,608,608,608,608,608,608,608,608,608,608,608,608,604,600,586,557,536,522,506,491,452,434,417,399,384,360,349,336,329,320,298,285,271,258,248,234,228,222,207,195,170,157,145,136,127,111,106,101,99,97,94,90,88,87,85,82,81,79],"timestamp_mouse":[18,40,57,77,98,117,138,157,179,198,218,237,259,278,297,317,337,358,377,397,418,437,457,477,497,518,538,557,577,597,617,639,657,677,697,717,737,758,777,797,817,838,857,877,897,917,937,957,977,998,1018,1037,1058,1077,1097,1117,1137,1158,1177,1198,1217,1237,1257,1277,1297,1317,1337,1358,1377,1397,1417],"xSR":741.5,"ySR":573.95,"xT1":424.9,"yT1":0,"xT2":1058.1,"yT2":0,"toosoon":0,"cond_shown":"equaldotanddens","ratio_trial":250,"smaller_num":"3","larger_num":"12","correct_side":2,"subjID":"juandavidtrujillo","gender":"0","age":"11","school":"6"},{"start_time":1551887907250,"click_time":1551887908323,"finger_time":1551887907801,"fix_duration":288.8330992169368,"trial":55,"RT":551,"MT":522,"sideResp":2,"stimulus":"img/500/equaldotanddens/R/6_Ratio_500_L_9_R_18.png","xmouse":[755,755,755,755,755,755,755,755,755,755,755,755,755,755,755,755,755,755,755,755,755,757,759,764,784,802,820,849,870,900,910,922,936,946,961,971,973,979,983,991,993,998,1001,1007,1020,1028,1037,1042,1047,1061,1070,1076,1083,1089],"ymouse":[634,634,634,634,634,634,634,634,634,634,634,634,634,634,634,634,634,634,634,634,634,632,631,627,609,593,574,539,515,465,439,410,378,354,312,285,278,257,247,229,221,212,204,193,170,158,147,140,136,123,115,109,101,95],"timestamp_mouse":[13,41,52,72,92,111,131,152,171,192,212,231,251,271,292,312,332,351,372,392,411,432,452,471,491,512,532,551,572,591,611,631,651,671,691,711,732,751,771,791,811,831,851,871,891,912,931,952,971,992,1011,1031,1051,1073],"xSR":741.5,"ySR":573.95,"xT1":424.9,"yT1":0,"xT2":1058.1,"yT2":0,"toosoon":0,"cond_shown":"equaldotanddens","ratio_trial":500,"smaller_num":"9","larger_num":"18","correct_side":2,"subjID":"juandavidtrujillo","gender":"0","age":"11","school":"6"},{"start_time":1551887911475,"click_time":1551887912501,"finger_time":1551887911981,"fix_duration":1112.9577759655467,"trial":56,"RT":506,"MT":520,"sideResp":2,"stimulus":"img/900/equaldotanddens/R/3_Ratio_900_L_9_R_10.png","xmouse":[778,778,778,778,778,778,778,778,777,777,777,777,777,777,777,777,777,777,777,777,777,777,780,795,822,844,860,863,868,869,874,880,888,907,917,927,941,950,963,972,979,987,998,1019,1031,1039,1044,1050,1057,1064,1069,1076],"ymouse":[644,644,644,644,644,644,644,644,644,644,644,644,644,645,645,645,645,645,645,645,645,645,644,628,606,588,574,571,564,557,547,537,526,504,490,471,443,426,395,377,359,343,326,287,256,234,210,186,142,122,101,81],"timestamp_mouse":[9,28,46,66,86,106,127,147,166,187,207,226,246,266,286,307,326,346,366,387,407,426,446,466,487,506,527,547,566,586,606,627,648,666,687,707,727,747,767,786,806,827,848,866,888,906,926,947,966,986,1007,1026],"xSR":741.5,"ySR":573.95,"xT1":424.9,"yT1":0,"xT2":1058.1,"yT2":0,"toosoon":0,"cond_shown":"equaldotanddens","ratio_trial":900,"smaller_num":"9","larger_num":"10","correct_side":2,"subjID":"juandavidtrujillo","gender":"0","age":"11","school":"6"},{"start_time":1551887913833,"click_time":1551887914761,"finger_time":1551887914241,"fix_duration":250,"trial":57,"RT":408,"MT":520,"sideResp":2,"stimulus":"img/750/randomdotsizeEA/R/4_Ratio_750_L_15_R_20.png","xmouse":[816,816,816,816,816,816,816,816,816,816,816,816,816,816,816,816,816,817,825,836,859,869,877,886,894,913,923,939,951,960,983,994,1004,1012,1016,1027,1031,1035,1039,1041,1045,1047,1050,1052,1054,1059,1061],"ymouse":[625,625,625,625,625,625,625,625,625,625,625,625,625,625,625,625,625,624,616,608,590,579,570,559,550,529,518,498,478,460,421,400,378,357,339,304,289,267,253,239,210,194,175,157,142,112,95],"timestamp_mouse":[20,41,48,69,89,108,128,148,168,188,209,228,248,268,288,308,328,348,368,389,408,428,448,468,489,508,529,548,569,588,608,628,648,668,688,708,729,748,768,789,808,828,848,868,888,908,928],"xSR":741.5,"ySR":573.95,"xT1":424.9,"yT1":0,"xT2":1058.1,"yT2":0,"toosoon":0,"cond_shown":"randomdotsizeEA","ratio_trial":750,"smaller_num":"15","larger_num":"20","correct_side":2,"subjID":"juandavidtrujillo","gender":"0","age":"11","school":"6"},{"start_time":1551887920192,"click_time":1551887921642,"finger_time":1551887920481,"fix_duration":1449.3064828471008,"trial":58,"RT":289,"MT":1161,"sideResp":2,"stimulus":"img/500/randomdotsizeEA/R/9_Ratio_500_L_2_R_4.png","xmouse":[809,809,809,809,809,809,809,809,809,809,809,809,811,814,820,826,831,840,851,863,870,876,888,893,896,899,899,899,896,894,890,883,869,843,832,822,812,797,794,794,794,794,798,812,831,863,891,941,965,992,1018,1044,1083,1100,1116,1130,1144,1165,1172,1173,1174,1175,1175,1175,1176,1179,1182,1189,1193,1194,1192,1174,1148],"ymouse":[590,590,590,590,590,590,590,590,590,590,590,590,585,577,567,552,541,522,504,490,478,468,445,435,428,420,416,411,404,402,397,391,381,355,342,329,318,308,306,306,306,306,306,299,291,283,272,249,238,226,211,195,172,163,154,149,145,138,138,137,134,132,126,123,120,113,107,90,79,74,67,62,54],"timestamp_mouse":[9,31,50,69,91,109,129,149,169,190,209,229,250,269,289,309,329,349,369,390,410,430,450,469,490,510,531,550,569,589,609,630,650,669,689,710,730,749,769,790,810,830,849,869,890,911,930,950,969,989,1010,1029,1049,1069,1090,1110,1129,1149,1169,1189,1209,1229,1249,1269,1289,1309,1329,1349,1370,1389,1411,1430,1450],"xSR":741.5,"ySR":573.95,"xT1":424.9,"yT1":0,"xT2":1058.1,"yT2":0,"toosoon":0,"cond_shown":"randomdotsizeEA","ratio_trial":500,"smaller_num":"2","larger_num":"4","correct_side":2,"subjID":"juandavidtrujillo","gender":"0","age":"11","school":"6"},{"start_time":1551887923861,"click_time":1551887924922,"finger_time":1551887924362,"fix_duration":1218.610033347095,"trial":59,"RT":501,"MT":560,"sideResp":2,"stimulus":"img/750/equaldotsize/R/4_Ratio_750_L_15_R_20.png","xmouse":[792,792,793,793,793,793,793,793,794,794,794,794,794,794,794,794,794,794,794,794,794,794,794,794,797,819,833,850,871,936,968,999,1028,1052,1085,1098,1103,1107,1110,1115,1118,1119,1121,1122,1123,1124,1124,1124,1124,1124,1124,1124,1124,1124],"ymouse":[592,591,590,590,590,589,589,589,588,588,588,588,588,588,587,587,587,587,587,587,587,587,585,583,579,554,536,515,487,412,374,337,298,262,216,193,181,172,164,149,141,134,128,122,116,114,112,110,108,104,103,102,100,98],"timestamp_mouse":[9,20,46,60,80,101,120,141,161,181,200,221,241,261,281,301,320,340,360,381,400,422,440,461,481,501,521,541,561,580,600,620,641,660,680,700,720,740,760,781,800,820,841,860,880,900,920,941,961,980,1000,1021,1040,1060],"xSR":741.5,"ySR":573.95,"xT1":424.9,"yT1":0,"xT2":1058.1,"yT2":0,"toosoon":0,"cond_shown":"equaldotsize","ratio_trial":750,"smaller_num":"15","larger_num":"20","correct_side":2,"subjID":"juandavidtrujillo","gender":"0","age":"11","school":"6"},{"start_time":1551887926113,"click_time":1551887927181,"finger_time":1551887926581,"fix_duration":250,"trial":60,"RT":468,"MT":600,"sideResp":1,"stimulus":"img/500/equaldotsize/L/7_Ratio_500_L_10_R_5.png","xmouse":[798,798,798,798,798,798,798,798,798,798,798,798,798,798,798,798,798,798,800,802,803,806,807,808,808,807,801,790,781,771,758,709,687,665,641,620,571,548,531,512,499,480,478,477,476,476,477,479,480,480,480,480,480,480],"ymouse":[637,637,637,637,637,637,637,637,637,637,637,637,637,637,637,637,637,631,623,616,610,591,582,564,552,542,529,507,494,482,470,430,412,394,373,355,312,291,276,258,243,211,198,187,175,162,134,123,117,112,108,103,100,96],"timestamp_mouse":[10,31,49,70,89,109,129,148,170,188,208,229,248,268,288,309,328,348,369,388,408,428,449,468,489,509,528,548,568,588,610,629,649,669,688,708,728,748,768,789,809,829,848,868,889,909,928,948,968,989,1008,1028,1048,1068],"xSR":741.5,"ySR":573.95,"xT1":424.9,"yT1":0,"xT2":1058.1,"yT2":0,"toosoon":0,"cond_shown":"equaldotsize","ratio_trial":500,"smaller_num":"5","larger_num":"10","correct_side":1,"subjID":"juandavidtrujillo","gender":"0","age":"11","school":"6"},{"start_time":1551887928454,"click_time":1551887930222,"finger_time":1551887929022,"fix_duration":250,"trial":61,"RT":568,"MT":1200,"sideResp":1,"stimulus":"img/750/equaldotanddens/L/13_Ratio_750_L_8_R_6.png","xmouse":[759,759,759,759,759,759,759,759,759,759,759,759,759,759,759,759,759,759,759,759,759,759,759,759,759,759,760,756,751,740,733,728,723,717,706,701,696,693,689,686,686,686,685,685,691,701,712,726,743,764,817,835,847,851,850,843,840,839,839,860,881,908,934,964,1002,1009,1015,1017,1018,1018,1018,1018,1016,1004,945,877,836,809,787,730,699,660,618,560,480,462,460,460,460],"ymouse":[618,618,618,618,618,618,618,618,618,618,618,618,618,618,618,618,618,618,618,618,618,618,618,618,618,618,612,589,566,526,504,487,470,454,435,428,421,418,415,412,411,411,411,409,400,392,386,378,370,361,334,320,307,297,275,265,261,258,257,247,238,226,214,202,183,180,175,171,166,151,146,143,141,139,139,139,139,139,137,136,136,135,132,122,110,104,102,101,99],"timestamp_mouse":[9,38,47,68,87,108,127,148,167,187,207,228,249,267,289,307,328,347,368,387,407,428,447,469,488,507,527,547,568,587,607,627,648,667,687,708,727,747,767,787,807,827,847,867,887,907,927,948,967,987,1007,1027,1047,1067,1088,1107,1127,1147,1168,1187,1207,1228,1247,1267,1287,1308,1327,1347,1367,1387,1407,1428,1447,1467,1488,1507,1527,1548,1568,1587,1607,1627,1648,1667,1687,1707,1727,1748,1768],"xSR":741.5,"ySR":573.95,"xT1":424.9,"yT1":0,"xT2":1058.1,"yT2":0,"toosoon":0,"cond_shown":"equaldotanddens","ratio_trial":750,"smaller_num":"6","larger_num":"8","correct_side":1,"subjID":"juandavidtrujillo","gender":"0","age":"11","school":"6"},{"start_time":1551887932688,"click_time":1551887933662,"finger_time":155188793312