[{"start_time":1551793949371,"click_time":1551793951173,"finger_time":1551793950791,"fix_duration":974.1112360088473,"trial":0,"RT":1420,"MT":382,"sideResp":2,"stimulus":[],"xmouse":[775,775,775,775,775,775,775,775,775,775,775,775,775,775,775,775,775,775,775,775,775,775,775,775,775,775,775,775,775,775,775,775,775,775,775,775,775,775,775,775,775,775,775,775,775,775,775,775,775,775,775,775,775,775,775,775,775,775,775,775,775,775,775,775,775,775,775,775,775,776,781,860,940,1036,1114,1185,1192,1194,1194,1194,1194,1194,1194,1194,1194,1194,1194,1192,1181,1163,1143],"ymouse":[528,528,528,528,528,528,528,528,528,528,528,528,528,528,528,528,528,528,528,528,528,528,528,528,528,528,528,528,528,528,528,528,528,528,528,528,528,528,528,528,528,528,528,528,528,528,528,528,528,528,528,528,528,528,528,528,528,528,528,528,528,528,528,528,528,528,528,528,528,528,525,420,353,280,211,123,98,93,93,93,93,93,93,93,93,93,92,91,91,88,78],"timestamp_mouse":[9,39,40,62,82,100,122,140,161,182,201,222,240,261,282,301,322,341,360,382,401,421,442,461,481,501,522,541,561,581,602,622,641,660,681,702,721,741,761,781,801,820,841,862,882,902,922,942,960,982,1001,1021,1042,1061,1082,1102,1122,1141,1161,1181,1202,1221,1241,1261,1282,1301,1320,1342,1361,1381,1401,1420,1442,1462,1481,1502,1521,1541,1562,1581,1602,1621,1641,1662,1681,1701,1722,1742,1761,1781,1801],"xSR":741.5,"ySR":501.8,"xT1":424.9,"yT1":0,"xT2":1058.1,"yT2":0,"toosoon":0,"cond_shown":"Incongruent","ratio_trial":300,"L_num":4,"L_den":20,"R_num":2,"R_den":4,"correct_side":2,"subjID":"JuanDiegoBeltranVillegas36","gender":"0","age":"12","school":"6","test":{"fix_dur":[250,1500],"timestim":1000,"targets_dim":[100,100],"targets_relative_coord":[0.3,0.7],"size_stim":[880,420],"start_dim":[100,100],"size_start":[300,300],"size_fix":60,"samplingrate":20,"img_types":["Congruent","Incongruent"],"ratios":[100,200,300],"rep_conds":19,"nTrials":120,"trials_to_rest":500,"Trials_order":[65,64,49,23,69,40,20,45,43,54,26,25,1,116,97,115,76,72,91,67,19,18,57,74,4,117,2,42,28,95,71,105,32,51,70,79,68,103,46,101,88,22,113,50,11,93,85,86,107,104,66,21,34,80,102,10,106,13,29,48,98,100,17,15,110,16,0,30,99,58,12,62,90,75,38,31,60,56,8,7,82,118,52,119,35,37,111,114,81,96,108,94,36,33,6,47,24,53,9,112,27,63,3,59,55,77,87,39,84,92,41,61,73,14,5,83,109,44,89,78],"cond_shown":["Incongruent","Congruent","Incongruent","Incongruent","Incongruent","Congruent","Congruent","Incongruent","Incongruent","Congruent","Congruent","Incongruent","Incongruent","Congruent","Incongruent","Incongruent","Congruent","Congruent","Incongruent","Incongruent","Incongruent","Congruent","Incongruent","Congruent","Congruent","Incongruent","Congruent","Congruent","Congruent","Incongruent","Incongruent","Incongruent","Congruent","Incongruent","Congruent","Incongruent","Congruent","Incongruent","Congruent","Incongruent","Congruent","Congruent","Incongruent","Congruent","Incongruent","Incongruent","Incongruent","Congruent","Incongruent","Congruent","Congruent","Incongruent","Congruent","Congruent","Congruent","Congruent","Congruent","Incongruent","Incongruent","Congruent","Congruent","Congruent","Incongruent","Incongruent","Congruent","Congruent","Congruent","Congruent","Incongruent","Congruent","Congruent","Congruent","Congruent","Incongruent","Congruent","Incongruent","Congruent","Congruent","Congruent","Incongruent","Congruent","Congruent","Congruent","Incongruent","Incongruent","Incongruent","Incongruent","Congruent","Incongruent","Congruent","Congruent","Congruent","Congruent","Incongruent","Congruent","Incongruent","Congruent","Incongruent","Incongruent","Congruent","Incongruent","Incongruent","Incongruent","Incongruent","Incongruent","Incongruent","Incongruent","Incongruent","Congruent","Congruent","Incongruent","Incongruent","Incongruent","Congruent","Incongruent","Incongruent","Incongruent","Congruent","Incongruent","Congruent"],"ratio_trial":[300,300,100,300,200,300,200,200,100,100,200,100,100,200,100,100,300,100,100,100,100,100,200,200,300,200,200,100,300,300,300,200,200,200,300,100,200,100,300,300,300,300,300,200,300,200,100,200,300,200,100,200,300,200,100,300,300,100,300,100,200,300,300,200,200,300,100,100,200,300,100,200,100,200,200,100,100,200,200,100,300,300,300,300,300,100,200,100,200,100,100,300,100,200,100,300,100,300,200,300,200,200,200,300,100,300,200,200,100,200,300,100,100,200,300,300,100,200,300,100],"left_num":[4,24,13,4,1,3,12,7,17,11,8,9,2,7,2,11,1,1,1,8,13,11,4,7,9,7,5,6,24,3,7,1,8,11,1,13,20,6,1,13,24,2,7,3,3,7,2,11,4,12,6,1,20,8,12,2,4,8,13,2,15,2,1,9,4,20,3,4,7,1,6,16,4,14,16,3,4,3,3,3,2,5,7,4,4,2,6,7,4,1,6,9,6,14,7,1,11,4,4,1,7,7,7,13,3,4,6,3,8,14,13,4,9,7,4,13,10,3,7,11],"right_num":[2,2,6,8,3,2,6,14,10,6,3,6,8,18,8,9,3,3,8,6,6,4,14,2,3,4,14,15,2,4,8,3,2,3,8,6,9,3,6,12,8,10,8,14,4,14,8,3,2,6,5,3,8,2,13,10,2,6,12,11,4,10,2,8,3,14,2,15,6,19,15,9,15,12,9,7,15,7,11,7,10,7,20,2,8,8,3,15,14,18,5,3,15,12,9,2,6,2,14,6,4,8,12,12,11,2,3,1,2,6,12,8,20,18,2,12,9,11,8,6],"left_den":[20,30,26,5,2,6,15,10,30,22,15,18,4,15,4,22,5,2,2,16,26,22,6,21,10,15,10,12,30,6,10,2,15,20,30,26,25,12,5,26,30,20,10,10,6,10,4,22,20,20,20,2,25,15,30,20,5,16,26,5,25,20,2,15,10,25,6,10,15,3,12,30,10,30,30,9,10,10,10,9,20,25,14,20,5,4,20,14,6,2,20,10,12,30,14,2,22,20,6,5,15,10,10,26,5,20,20,10,16,28,26,8,10,15,20,26,25,10,10,22],"right_den":[4,4,10,16,10,10,10,28,15,15,9,10,20,27,20,15,6,5,20,10,10,10,30,15,5,6,20,25,4,20,20,10,6,4,24,10,15,5,12,15,16,25,20,28,20,28,20,10,4,15,25,10,16,6,26,25,4,10,15,22,10,25,10,10,15,28,5,30,9,30,25,27,30,18,27,30,30,14,22,30,25,14,25,4,16,20,6,25,30,30,25,5,25,18,15,10,15,4,30,12,6,16,24,15,22,4,6,2,5,20,15,20,25,27,4,15,18,22,20,15],"correct_side":[2,1,2,1,1,1,1,1,2,1,1,2,1,2,1,2,2,2,1,2,2,1,1,1,1,2,2,2,1,1,1,1,1,2,2,2,1,2,2,2,1,2,1,2,1,1,1,1,2,1,1,1,1,1,2,2,1,2,2,2,1,2,1,2,1,1,1,2,2,2,2,1,2,2,1,1,2,2,2,1,2,2,2,2,1,1,2,2,1,2,1,1,2,2,2,1,1,2,1,2,2,1,1,2,1,2,2,2,1,1,2,1,1,2,2,2,2,2,1,1],"img_shown":["img2/300/Incongruent/R/I_Dist_300_LN_4_LD_20_RN_2_RD_4_1.png","img2/300/Congruent/L/C_Dist_300_LN_24_LD_30_RN_2_RD_4_0.png","img2/100/Incongruent/R/I_Dist_100_LN_13_LD_26_RN_6_RD_10_1.png","img2/300/Incongruent/L/I_Dist_300_LN_4_LD_5_RN_8_RD_16_0.png","img2/200/Incongruent/L/I_Dist_200_LN_1_LD_2_RN_3_RD_10_0.png","img2/300/Congruent/L/C_Dist_300_LN_3_LD_6_RN_2_RD_10_0.png","img2/200/Congruent/L/C_Dist_200_LN_12_LD_15_RN_6_RD_10_0.png","img2/200/Incongruent/L/I_Dist_200_LN_7_LD_10_RN_14_RD_28_0.png","img2/100/Incongruent/R/I_Dist_100_LN_17_LD_30_RN_10_RD_15_1.png","img2/100/Congruent/L/C_Dist_100_LN_11_LD_22_RN_6_RD_15_0.png","img2/200/Congruent/L/C_Dist_200_LN_8_LD_15_RN_3_RD_9_0.png","img2/100/Incongruent/R/I_Dist_100_LN_9_LD_18_RN_6_RD_10_1.png","img2/100/Incongruent/L/I_Dist_100_LN_2_LD_4_RN_8_RD_20_0.png","img2/200/Congruent/R/C_Dist_200_LN_7_LD_15_RN_18_RD_27_1.png","img2/100/Incongruent/L/I_Dist_100_LN_2_LD_4_RN_8_RD_20_0.png","img2/100/Incongruent/R/I_Dist_100_LN_11_LD_22_RN_9_RD_15_1.png","img2/300/Congruent/R/C_Dist_300_LN_1_LD_5_RN_3_RD_6_1.png","img2/100/Congruent/R/C_Dist_100_LN_1_LD_2_RN_3_RD_5_1.png","img2/100/Incongruent/L/I_Dist_100_LN_1_LD_2_RN_8_RD_20_0.png","img2/100/Incongruent/R/I_Dist_100_LN_8_LD_16_RN_6_RD_10_1.png","img2/100/Incongruent/R/I_Dist_100_LN_13_LD_26_RN_6_RD_10_1.png","img2/100/Congruent/L/C_Dist_100_LN_11_LD_22_RN_4_RD_10_0.png","img2/200/Incongruent/L/I_Dist_200_LN_4_LD_6_RN_14_RD_30_0.png","img2/200/Congruent/L/C_Dist_200_LN_7_LD_21_RN_2_RD_15_0.png","img2/300/Congruent/L/C_Dist_300_LN_9_LD_10_RN_3_RD_5_0.png","img2/200/Incongruent/R/I_Dist_200_LN_7_LD_15_RN_4_RD_6_1.png","img2/200/Congruent/R/C_Dist_200_LN_5_LD_10_RN_14_RD_20_1.png","img2/100/Congruent/R/C_Dist_100_LN_6_LD_12_RN_15_RD_25_1.png","img2/300/Congruent/L/C_Dist_300_LN_24_LD_30_RN_2_RD_4_0.png","img2/300/Incongruent/L/I_Dist_300_LN_3_LD_6_RN_4_RD_20_0.png","img2/300/Incongruent/L/I_Dist_300_LN_7_LD_10_RN_8_RD_20_0.png","img2/200/Incongruent/L/I_Dist_200_LN_1_LD_2_RN_3_RD_10_0.png","img2/200/Congruent/L/C_Dist_200_LN_8_LD_15_RN_2_RD_6_0.png","img2/200/Incongruent/R/I_Dist_200_LN_11_LD_20_RN_3_RD_4_1.png","img2/300/Congruent/R/C_Dist_300_LN_1_LD_30_RN_8_RD_24_1.png","img2/100/Incongruent/R/I_Dist_100_LN_13_LD_26_RN_6_RD_10_1.png","img2/200/Congruent/L/C_Dist_200_LN_20_LD_25_RN_9_RD_15_0.png","img2/100/Incongruent/R/I_Dist_100_LN_6_LD_12_RN_3_RD_5_1.png","img2/300/Congruent/R/C_Dist_300_LN_1_LD_5_RN_6_RD_12_1.png","img2/300/Incongruent/R/I_Dist_300_LN_13_LD_26_RN_12_RD_15_1.png","img2/300/Congruent/L/C_Dist_300_LN_24_LD_30_RN_8_RD_16_0.png","img2/300/Congruent/R/C_Dist_300_LN_2_LD_20_RN_10_RD_25_1.png","img2/300/Incongruent/L/I_Dist_300_LN_7_LD_10_RN_8_RD_20_0.png","img2/200/Congruent/R/C_Dist_200_LN_3_LD_10_RN_14_RD_28_1.png","img2/300/Incongruent/L/I_Dist_300_LN_3_LD_6_RN_4_RD_20_0.png","img2/200/Incongruent/L/I_Dist_200_LN_7_LD_10_RN_14_RD_28_0.png","img2/100/Incongruent/L/I_Dist_100_LN_2_LD_4_RN_8_RD_20_0.png","img2/200/Congruent/L/C_Dist_200_LN_11_LD_22_RN_3_RD_10_0.png","img2/300/Incongruent/R/I_Dist_300_LN_4_LD_20_RN_2_RD_4_1.png","img2/200/Congruent/L/C_Dist_200_LN_12_LD_20_RN_6_RD_15_0.png","img2/100/Congruent/L/C_Dist_100_LN_6_LD_20_RN_5_RD_25_0.png","img2/200/Incongruent/L/I_Dist_200_LN_1_LD_2_RN_3_RD_10_0.png","img2/300/Congruent/L/C_Dist_300_LN_20_LD_25_RN_8_RD_16_0.png","img2/200/Congruent/L/C_Dist_200_LN_8_LD_15_RN_2_RD_6_0.png","img2/100/Congruent/R/C_Dist_100_LN_12_LD_30_RN_13_RD_26_1.png","img2/300/Congruent/R/C_Dist_300_LN_2_LD_20_RN_10_RD_25_1.png","img2/300/Congruent/L/C_Dist_300_LN_4_LD_5_RN_2_RD_4_0.png","img2/100/Incongruent/R/I_Dist_100_LN_8_LD_16_RN_6_RD_10_1.png","img2/300/Incongruent/R/I_Dist_300_LN_13_LD_26_RN_12_RD_15_1.png","img2/100/Congruent/R/C_Dist_100_LN_2_LD_5_RN_11_RD_22_1.png","img2/200/Congruent/L/C_Dist_200_LN_15_LD_25_RN_4_RD_10_0.png","img2/300/Congruent/R/C_Dist_300_LN_2_LD_20_RN_10_RD_25_1.png","img2/300/Incongruent/L/I_Dist_300_LN_1_LD_2_RN_2_RD_10_0.png","img2/200/Incongruent/R/I_Dist_200_LN_9_LD_15_RN_8_RD_10_1.png","img2/200/Congruent/L/C_Dist_200_LN_4_LD_10_RN_3_RD_15_0.png","img2/300/Congruent/L/C_Dist_300_LN_20_LD_25_RN_14_RD_28_0.png","img2/100/Congruent/L/C_Dist_100_LN_3_LD_6_RN_2_RD_5_0.png","img2/100/Congruent/R/C_Dist_100_LN_4_LD_10_RN_15_RD_30_1.png","img2/200/Incongruent/R/I_Dist_200_LN_7_LD_15_RN_6_RD_9_1.png","img2/300/Congruent/R/C_Dist_300_LN_1_LD_3_RN_19_RD_30_1.png","img2/100/Congruent/R/C_Dist_100_LN_6_LD_12_RN_15_RD_25_1.png","img2/200/Congruent/L/C_Dist_200_LN_16_LD_30_RN_9_RD_27_0.png","img2/100/Congruent/R/C_Dist_100_LN_4_LD_10_RN_15_RD_30_1.png","img2/200/Incongruent/R/I_Dist_200_LN_14_LD_30_RN_12_RD_18_1.png","img2/200/Congruent/L/C_Dist_200_LN_16_LD_30_RN_9_RD_27_0.png","img2/100/Incongruent/L/I_Dist_100_LN_3_LD_9_RN_7_RD_30_0.png","img2/100/Congruent/R/C_Dist_100_LN_4_LD_10_RN_15_RD_30_1.png","img2/200/Congruent/R/C_Dist_200_LN_3_LD_10_RN_7_RD_14_1.png","img2/200/Congruent/R/C_Dist_200_LN_3_LD_10_RN_11_RD_22_1.png","img2/100/Incongruent/L/I_Dist_100_LN_3_LD_9_RN_7_RD_30_0.png","img2/300/Congruent/R/C_Dist_300_LN_2_LD_20_RN_10_RD_25_1.png","img2/300/Congruent/R/C_Dist_300_LN_5_LD_25_RN_7_RD_14_1.png","img2/300/Congruent/R/C_Dist_300_LN_7_LD_14_RN_20_RD_25_1.png","img2/300/Incongruent/R/I_Dist_300_LN_4_LD_20_RN_2_RD_4_1.png","img2/300/Incongruent/L/I_Dist_300_LN_4_LD_5_RN_8_RD_16_0.png","img2/100/Incongruent/L/I_Dist_100_LN_2_LD_4_RN_8_RD_20_0.png","img2/200/Incongruent/R/I_Dist_200_LN_6_LD_20_RN_3_RD_6_1.png","img2/100/Congruent/R/C_Dist_100_LN_7_LD_14_RN_15_RD_25_1.png","img2/200/Incongruent/L/I_Dist_200_LN_4_LD_6_RN_14_RD_30_0.png","img2/100/Congruent/R/C_Dist_100_LN_1_LD_2_RN_18_RD_30_1.png","img2/100/Congruent/L/C_Dist_100_LN_6_LD_20_RN_5_RD_25_0.png","img2/300/Congruent/L/C_Dist_300_LN_9_LD_10_RN_3_RD_5_0.png","img2/100/Congruent/R/C_Dist_100_LN_6_LD_12_RN_15_RD_25_1.png","img2/200/Incongruent/R/I_Dist_200_LN_14_LD_30_RN_12_RD_18_1.png","img2/100/Congruent/R/C_Dist_100_LN_7_LD_14_RN_9_RD_15_1.png","img2/300/Incongruent/L/I_Dist_300_LN_1_LD_2_RN_2_RD_10_0.png","img2/100/Congruent/L/C_Dist_100_LN_11_LD_22_RN_6_RD_15_0.png","img2/300/Incongruent/R/I_Dist_300_LN_4_LD_20_RN_2_RD_4_1.png","img2/200/Incongruent/L/I_Dist_200_LN_4_LD_6_RN_14_RD_30_0.png","img2/300/Congruent/R/C_Dist_300_LN_1_LD_5_RN_6_RD_12_1.png","img2/200/Incongruent/R/I_Dist_200_LN_7_LD_15_RN_4_RD_6_1.png","img2/200/Incongruent/L/I_Dist_200_LN_7_LD_10_RN_8_RD_16_0.png","img2/200/Incongruent/L/I_Dist_200_LN_7_LD_10_RN_12_RD_24_0.png","img2/300/Incongruent/R/I_Dist_300_LN_13_LD_26_RN_12_RD_15_1.png","img2/100/Incongruent/L/I_Dist_100_LN_3_LD_5_RN_11_RD_22_0.png","img2/300/Incongruent/R/I_Dist_300_LN_4_LD_20_RN_2_RD_4_1.png","img2/200/Incongruent/R/I_Dist_200_LN_6_LD_20_RN_3_RD_6_1.png","img2/200/Incongruent/R/I_Dist_200_LN_3_LD_10_RN_1_RD_2_1.png","img2/100/Congruent/L/C_Dist_100_LN_8_LD_16_RN_2_RD_5_0.png","img2/200/Congruent/L/C_Dist_200_LN_14_LD_28_RN_6_RD_20_0.png","img2/300/Incongruent/R/I_Dist_300_LN_13_LD_26_RN_12_RD_15_1.png","img2/100/Incongruent/L/I_Dist_100_LN_4_LD_8_RN_8_RD_20_0.png","img2/100/Incongruent/L/I_Dist_100_LN_9_LD_10_RN_20_RD_25_0.png","img2/200/Congruent/R/C_Dist_200_LN_7_LD_15_RN_18_RD_27_1.png","img2/300/Incongruent/R/I_Dist_300_LN_4_LD_20_RN_2_RD_4_1.png","img2/300/Incongruent/R/I_Dist_300_LN_13_LD_26_RN_12_RD_15_1.png","img2/100/Incongruent/R/I_Dist_100_LN_10_LD_25_RN_9_RD_18_1.png","img2/200/Congruent/R/C_Dist_200_LN_3_LD_10_RN_11_RD_22_1.png","img2/300/Incongruent/L/I_Dist_300_LN_7_LD_10_RN_8_RD_20_0.png","img2/100/Congruent/L/C_Dist_100_LN_11_LD_22_RN_6_RD_15_0.png"],"dist100_C":[["C_Dist_100_LN_10_LD_25_RN_3_RD_10_0.png","C_Dist_100_LN_11_LD_22_RN_4_RD_10_0.png","C_Dist_100_LN_11_LD_22_RN_6_RD_15_0.png","C_Dist_100_LN_15_LD_25_RN_13_RD_26_0.png","C_Dist_100_LN_3_LD_6_RN_2_RD_5_0.png","C_Dist_100_LN_6_LD_20_RN_5_RD_25_0.png","C_Dist_100_LN_8_LD_16_RN_2_RD_5_0.png","C_Dist_100_LN_9_LD_15_RN_8_RD_16_0.png"],["C_Dist_100_LN_1_LD_2_RN_18_RD_30_1.png","C_Dist_100_LN_1_LD_2_RN_3_RD_5_1.png","C_Dist_100_LN_12_LD_30_RN_13_RD_26_1.png","C_Dist_100_LN_2_LD_5_RN_11_RD_22_1.png","C_Dist_100_LN_2_LD_5_RN_6_RD_12_1.png","C_Dist_100_LN_3_LD_20_RN_4_RD_16_1.png","C_Dist_100_LN_4_LD_10_RN_15_RD_30_1.png","C_Dist_100_LN_4_LD_8_RN_6_RD_10_1.png","C_Dist_100_LN_6_LD_12_RN_15_RD_25_1.png","C_Dist_100_LN_7_LD_14_RN_15_RD_25_1.png","C_Dist_100_LN_7_LD_14_RN_9_RD_15_1.png"]],"dist100_I":[["I_Dist_100_LN_1_LD_2_RN_8_RD_20_0.png","I_Dist_100_LN_2_LD_4_RN_6_RD_15_0.png","I_Dist_100_LN_2_LD_4_RN_8_RD_20_0.png","I_Dist_100_LN_3_LD_5_RN_11_RD_22_0.png","I_Dist_100_LN_3_LD_5_RN_8_RD_16_0.png","I_Dist_100_LN_3_LD_6_RN_4_RD_10_0.png","I_Dist_100_LN_3_LD_9_RN_7_RD_30_0.png","I_Dist_100_LN_4_LD_8_RN_8_RD_20_0.png","I_Dist_100_LN_6_LD_10_RN_11_RD_22_0.png","I_Dist_100_LN_6_LD_10_RN_13_RD_26_0.png","I_Dist_100_LN_6_LD_10_RN_7_RD_14_0.png","I_Dist_100_LN_9_LD_10_RN_20_RD_25_0.png","I_Dist_100_LN_9_LD_15_RN_13_RD_26_0.png","I_Dist_100_LN_9_LD_15_RN_14_RD_28_0.png"],["I_Dist_100_LN_10_LD_25_RN_8_RD_16_1.png","I_Dist_100_LN_10_LD_25_RN_9_RD_18_1.png","I_Dist_100_LN_11_LD_22_RN_9_RD_15_1.png","I_Dist_100_LN_12_LD_24_RN_9_RD_15_1.png","I_Dist_100_LN_12_LD_30_RN_2_RD_4_1.png","I_Dist_100_LN_13_LD_26_RN_12_RD_20_1.png","I_Dist_100_LN_13_LD_26_RN_6_RD_10_1.png","I_Dist_100_LN_17_LD_30_RN_10_RD_15_1.png","I_Dist_100_LN_6_LD_12_RN_3_RD_5_1.png","I_Dist_100_LN_8_LD_16_RN_6_RD_10_1.png","I_Dist_100_LN_8_LD_20_RN_1_RD_2_1.png","I_Dist_100_LN_9_LD_18_RN_6_RD_10_1.png"]],"dist100_S":[["E_Dist_100_LN_2_LD_12_RN_2_RD_30_0.png","E_Dist_100_LN_6_LD_10_RN_6_RD_12_0.png"],["E_Dist_100_LN_6_LD_12_RN_6_RD_10_1.png"]],"dist200_C":[["C_Dist_200_LN_11_LD_22_RN_3_RD_10_0.png","C_Dist_200_LN_12_LD_15_RN_6_RD_10_0.png","C_Dist_200_LN_12_LD_20_RN_6_RD_15_0.png","C_Dist_200_LN_14_LD_28_RN_6_RD_20_0.png","C_Dist_200_LN_15_LD_25_RN_4_RD_10_0.png","C_Dist_200_LN_16_LD_20_RN_12_RD_20_0.png","C_Dist_200_LN_16_LD_30_RN_9_RD_27_0.png","C_Dist_200_LN_20_LD_25_RN_9_RD_15_0.png","C_Dist_200_LN_21_LD_30_RN_2_RD_4_0.png","C_Dist_200_LN_4_LD_10_RN_3_RD_15_0.png","C_Dist_200_LN_4_LD_8_RN_3_RD_10_0.png","C_Dist_200_LN_6_LD_15_RN_3_RD_15_0.png","C_Dist_200_LN_7_LD_21_RN_2_RD_15_0.png","C_Dist_200_LN_8_LD_15_RN_2_RD_6_0.png","C_Dist_200_LN_8_LD_15_RN_3_RD_9_0.png","C_Dist_200_LN_8_LD_15_RN_7_RD_21_0.png","C_Dist_200_LN_9_LD_20_RN_4_RD_16_0.png"],["C_Dist_200_LN_1_LD_2_RN_21_RD_30_1.png","C_Dist_200_LN_13_LD_26_RN_14_RD_20_1.png","C_Dist_200_LN_3_LD_10_RN_11_RD_22_1.png","C_Dist_200_LN_3_LD_10_RN_14_RD_28_1.png","C_Dist_200_LN_3_LD_10_RN_7_RD_14_1.png","C_Dist_200_LN_3_LD_12_RN_9_RD_20_1.png","C_Dist_200_LN_3_LD_6_RN_14_RD_20_1.png","C_Dist_200_LN_5_LD_10_RN_14_RD_20_1.png","C_Dist_200_LN_6_LD_12_RN_7_RD_10_1.png","C_Dist_200_LN_6_LD_20_RN_11_RD_22_1.png","C_Dist_200_LN_7_LD_15_RN_18_RD_27_1.png","C_Dist_200_LN_9_LD_30_RN_13_RD_26_1.png"]],"dist200_I":[["I_Dist_200_LN_1_LD_2_RN_3_RD_10_0.png","I_Dist_200_LN_1_LD_3_RN_2_RD_15_0.png","I_Dist_200_LN_3_LD_4_RN_11_RD_20_0.png","I_Dist_200_LN_4_LD_5_RN_6_RD_10_0.png","I_Dist_200_LN_4_LD_6_RN_14_RD_30_0.png","I_Dist_200_LN_7_LD_10_RN_12_RD_24_0.png","I_Dist_200_LN_7_LD_10_RN_14_RD_28_0.png","I_Dist_200_LN_7_LD_10_RN_8_RD_16_0.png"],["I_Dist_200_LN_11_LD_20_RN_3_RD_4_1.png","I_Dist_200_LN_14_LD_30_RN_12_RD_18_1.png","I_Dist_200_LN_14_LD_30_RN_6_RD_9_1.png","I_Dist_200_LN_3_LD_10_RN_1_RD_2_1.png","I_Dist_200_LN_4_LD_30_RN_1_RD_3_1.png","I_Dist_200_LN_6_LD_20_RN_3_RD_6_1.png","I_Dist_200_LN_7_LD_15_RN_4_RD_6_1.png","I_Dist_200_LN_7_LD_15_RN_6_RD_9_1.png","I_Dist_200_LN_9_LD_15_RN_8_RD_10_1.png"]],"dist200_S":[["E_Dist_200_LN_3_LD_6_RN_3_RD_10_0.png"],["E_Dist_200_LN_3_LD_10_RN_3_RD_6_1.png"]],"dist300_C":[["C_Dist_300_LN_11_LD_22_RN_1_RD_5_0.png","C_Dist_300_LN_11_LD_22_RN_2_RD_10_0.png","C_Dist_300_LN_11_LD_22_RN_4_RD_20_0.png","C_Dist_300_LN_12_LD_24_RN_2_RD_10_0.png","C_Dist_300_LN_18_LD_20_RN_9_RD_15_0.png","C_Dist_300_LN_20_LD_25_RN_13_RD_26_0.png","C_Dist_300_LN_20_LD_25_RN_14_RD_28_0.png","C_Dist_300_LN_20_LD_25_RN_5_RD_10_0.png","C_Dist_300_LN_20_LD_25_RN_8_RD_16_0.png","C_Dist_300_LN_20_LD_25_RN_9_RD_18_0.png","C_Dist_300_LN_24_LD_30_RN_2_RD_4_0.png","C_Dist_300_LN_24_LD_30_RN_8_RD_16_0.png","C_Dist_300_LN_3_LD_6_RN_2_RD_10_0.png","C_Dist_300_LN_4_LD_10_RN_1_RD_10_0.png","C_Dist_300_LN_4_LD_5_RN_2_RD_4_0.png","C_Dist_300_LN_8_LD_16_RN_1_RD_5_0.png","C_Dist_300_LN_9_LD_10_RN_3_RD_5_0.png"],["C_Dist_300_LN_1_LD_20_RN_7_RD_20_1.png","C_Dist_300_LN_1_LD_3_RN_19_RD_30_1.png","C_Dist_300_LN_1_LD_30_RN_8_RD_24_1.png","C_Dist_300_LN_1_LD_5_RN_11_RD_22_1.png","C_Dist_300_LN_1_LD_5_RN_3_RD_6_1.png","C_Dist_300_LN_1_LD_5_RN_6_RD_12_1.png","C_Dist_300_LN_2_LD_10_RN_12_RD_24_1.png","C_Dist_300_LN_2_LD_20_RN_10_RD_25_1.png","C_Dist_300_LN_3_LD_12_RN_11_RD_20_1.png","C_Dist_300_LN_3_LD_6_RN_4_RD_5_1.png","C_Dist_300_LN_4_LD_20_RN_13_RD_26_1.png","C_Dist_300_LN_5_LD_25_RN_6_RD_12_1.png","C_Dist_300_LN_5_LD_25_RN_7_RD_14_1.png","C_Dist_300_LN_7_LD_14_RN_20_RD_25_1.png","C_Dist_300_LN_8_LD_15_RN_10_RD_12_1.png"]],"dist300_I":[["I_Dist_300_LN_1_LD_2_RN_2_RD_10_0.png","I_Dist_300_LN_1_LD_2_RN_3_RD_15_0.png","I_Dist_300_LN_2_LD_4_RN_6_RD_30_0.png","I_Dist_300_LN_3_LD_6_RN_4_RD_20_0.png","I_Dist_300_LN_4_LD_5_RN_6_RD_12_0.png","I_Dist_300_LN_4_LD_5_RN_8_RD_16_0.png","I_Dist_300_LN_7_LD_10_RN_8_RD_20_0.png","I_Dist_300_LN_8_LD_10_RN_14_RD_28_0.png","I_Dist_300_LN_8_LD_10_RN_9_RD_18_0.png"],["I_Dist_300_LN_13_LD_26_RN_12_RD_15_1.png","I_Dist_300_LN_4_LD_20_RN_2_RD_4_1.png"]],"dist300_S":[["E_Dist_300_LN_9_LD_12_RN_9_RD_20_0.png"],["E_Dist_300_LN_18_LD_30_RN_18_RD_20_1.png","E_Dist_300_LN_3_LD_10_RN_3_RD_5_1.png","E_Dist_300_LN_9_LD_20_RN_9_RD_12_1.png"]],"dist500_C":[["C_Dist_500_LN_10_LD_13_RN_7_RD_26_0.png","C_Dist_500_LN_10_LD_15_RN_4_RD_24_0.png","C_Dist_500_LN_12_LD_16_RN_3_RD_12_0.png","C_Dist_500_LN_12_LD_18_RN_4_RD_24_0.png","C_Dist_500_LN_15_LD_18_RN_5_RD_15_0.png","C_Dist_500_LN_15_LD_20_RN_1_RD_4_0.png","C_Dist_500_LN_18_LD_27_RN_1_RD_6_0.png","C_Dist_500_LN_20_LD_24_RN_1_RD_3_0.png","C_Dist_500_LN_20_LD_24_RN_3_RD_9_0.png","C_Dist_500_LN_20_LD_24_RN_7_RD_21_0.png","C_Dist_500_LN_20_LD_28_RN_3_RD_14_0.png","C_Dist_500_LN_21_LD_28_RN_6_RD_24_0.png","C_Dist_500_LN_22_LD_28_RN_2_RD_7_0.png","C_Dist_500_LN_25_LD_30_RN_9_RD_27_0.png","C_Dist_500_LN_4_LD_6_RN_1_RD_6_0.png","C_Dist_500_LN_5_LD_6_RN_2_RD_6_0.png","C_Dist_500_LN_6_LD_9_RN_1_RD_6_0.png","C_Dist_500_LN_7_LD_10_RN_1_RD_5_0.png","C_Dist_500_LN_8_LD_12_RN_1_RD_6_0.png","C_Dist_500_LN_8_LD_12_RN_4_RD_24_0.png"],["C_Dist_500_LN_1_LD_4_RN_12_RD_16_1.png","C_Dist_500_LN_1_LD_4_RN_9_RD_12_1.png","C_Dist_500_LN_1_LD_9_RN_11_RD_18_1.png","C_Dist_500_LN_10_LD_24_RN_22_RD_24_1.png","C_Dist_500_LN_2_LD_12_RN_10_RD_15_1.png","C_Dist_500_LN_2_LD_12_RN_12_RD_18_1.png","C_Dist_500_LN_2_LD_12_RN_4_RD_6_1.png","C_Dist_500_LN_2_LD_24_RN_7_RD_12_1.png","C_Dist_500_LN_2_LD_5_RN_18_RD_20_1.png","C_Dist_500_LN_2_LD_5_RN_9_RD_10_1.png","C_Dist_500_LN_2_LD_8_RN_12_RD_16_1.png","C_Dist_500_LN_2_LD_8_RN_21_RD_28_1.png","C_Dist_500_LN_3_LD_10_RN_4_RD_5_1.png","C_Dist_500_LN_3_LD_12_RN_15_RD_20_1.png","C_Dist_500_LN_3_LD_30_RN_6_RD_10_1.png","C_Dist_500_LN_3_LD_8_RN_14_RD_16_1.png","C_Dist_500_LN_4_LD_16_RN_15_RD_20_1.png","C_Dist_500_LN_4_LD_24_RN_12_RD_18_1.png","C_Dist_500_LN_5_LD_14_RN_6_RD_7_1.png","C_Dist_500_LN_7_LD_21_RN_20_RD_24_1.png","C_Dist_500_LN_7_LD_28_RN_12_RD_16_1.png","C_Dist_500_LN_7_LD_28_RN_9_RD_12_1.png","C_Dist_500_LN_9_LD_27_RN_20_RD_24_1.png"]],"dist500_I":[["I_Dist_500_LN_2_LD_3_RN_4_RD_24_0.png","I_Dist_500_LN_5_LD_6_RN_6_RD_18_0.png","I_Dist_500_LN_7_LD_8_RN_9_RD_24_0.png"],["I_Dist_500_LN_7_LD_21_RN_5_RD_6_1.png"]],"dist500_S":[["E_Dist_500_LN_6_LD_8_RN_6_RD_24_0.png"],["E_Dist_500_LN_2_LD_12_RN_2_RD_3_1.png","E_Dist_500_LN_6_LD_24_RN_6_RD_8_1.png"]]}},{"start_time":1551793953587,"click_time":1551793954492,"finger_time":1551793954353,"fix_duration":1234.2235952334954,"trial":1,"RT":766,"MT":139,"sideResp":1,"stimulus":[],"xmouse":[811,811,811,811,811,811,811,811,811,811,811,811,811,811,811,811,811,811,811,811,811,811,811,811,811,811,811,811,811,811,811,811,811,811,811,810,803,794,780,757,697,657,611,567,511,462],"ymouse":[503,503,503,503,503,503,503,503,503,503,503,503,503,503,503,503,503,503,503,503,503,503,503,503,503,503,503,503,503,503,503,503,503,503,503,503,500,485,464,432,347,296,240,192,126,59],"timestamp_mouse":[11,33,45,64,85,106,126,146,165,185,205,225,245,265,285,304,326,345,364,386,404,425,445,465,486,504,525,545,566,585,606,624,645,666,684,705,725,745,766,786,806,825,844,865,885,905],"xSR":741.5,"ySR":469.95,"xT1":424.9,"yT1":0,"xT2":1058.1,"yT2":0,"toosoon":0,"cond_shown":"Congruent","ratio_trial":300,"L_num":24,"L_den":30,"R_num":2,"R_den":4,"correct_side":1,"subjID":"JuanDiegoBeltranVillegas36","gender":"0","school":"6","age":"12"},{"start_time":1551793956465,"click_time":1551793957972,"finger_time":1551793957474,"fix_duration":752.6296299727704,"trial":2,"RT":1009,"MT":498,"sideResp":1,"stimulus":[],"xmouse":[777,777,777,777,777,777,777,777,777,777,777,777,777,777,777,777,777,777,777,777,777,777,777,777,777,777,777,777,777,777,777,777,777,777,777,777,777,777,777,777,777,774,771,770,769,767,766,764,763,760,753,742,734,724,717,704,681,670,663,657,650,646,644,641,636,631,616,608,601,594,578,564,553,540,526,510],"ymouse":[485,485,485,485,485,485,485,485,485,485,485,485,485,485,485,485,485,485,485,485,485,485,485,485,485,485,485,485,485,485,485,485,485,485,485,485,485,485,485,486,486,486,486,486,486,486,484,481,480,476,465,447,432,412,394,372,327,308,292,279,262,253,248,243,236,229,208,197,187,177,158,140,127,112,95,74],"timestamp_mouse":[15,42,47,67,87,107,127,147,167,187,208,228,248,268,287,307,328,346,368,387,408,427,448,467,488,507,526,547,566,588,608,628,648,668,687,707,728,747,768,786,807,828,848,867,887,907,928,947,967,987,1009,1027,1048,1067,1087,1107,1127,1147,1167,1187,1208,1227,1247,1268,1287,1306,1327,1347,1368,1387,1408,1427,1447,1467,1487,1506],"xSR":741.5,"ySR":469.95,"xT1":424.9,"yT1":0,"xT2":1058.1,"yT2":0,"toosoon":0,"cond_shown":"Incongruent","ratio_trial":100,"L_num":13,"L_den":26,"R_num":6,"R_den":10,"correct_side":2,"subjID":"JuanDiegoBeltranVillegas36","gender":"0","school":"6","age":"12"},{"start_time":1551793960684,"click_time":1551793962653,"finger_time":1551793962052,"fix_duration":1109.1424112326135,"trial":3,"RT":1368,"MT":601,"sideResp":1,"stimulus":[],"xmouse":[810,810,810,810,810,810,810,810,810,810,810,810,810,810,810,810,810,810,810,810,810,810,810,810,810,810,810,810,810,810,810,810,810,810,810,810,810,810,810,810,810,810,810,810,810,810,810,810,810,810,810,810,810,810,810,810,810,810,810,810,810,810,810,810,810,810,809,807,801,782,748,732,716,696,653,631,612,598,589,581,571,567,563,562,556,553,550,547,545,543,537,535,535,533,532,523,518,513,509],"ymouse":[473,473,473,473,473,473,473,473,473,473,473,473,473,473,473,473,473,473,473,473,473,473,473,473,473,473,473,473,473,473,473,473,473,473,473,473,473,473,473,473,473,473,473,473,473,473,473,473,473,473,473,473,473,473,473,473,473,473,473,473,473,473,473,473,473,473,473,471,463,435,369,336,313,288,253,241,229,220,213,207,199,196,194,192,182,175,169,163,159,154,140,136,135,133,132,121,112,102,98],"timestamp_mouse":[8,40,49,69,89,109,128,148,168,187,208,228,249,268,289,309,329,348,368,388,409,428,449,468,488,509,527,548,569,588,609,629,648,668,688,709,729,747,768,789,808,828,849,868,889,909,929,948,969,989,1008,1028,1048,1067,1089,1108,1129,1147,1168,1188,1208,1229,1249,1268,1287,1308,1329,1347,1368,1389,1408,1428,1448,1468,1489,1508,1528,1549,1568,1587,1607,1628,1648,1669,1689,1707,1729,1747,1767,1788,1808,1828,1848,1869,1888,1908,1929,1947,1968],"xSR":741.5,"ySR":469.95,"xT1":424.9,"yT1":0,"xT2":1058.1,"yT2":0,"toosoon":0,"cond_shown":"Incongruent","ratio_trial":300,"L_num":4,"L_den":5,"R_num":8,"R_den":16,"correct_side":1,"subjID":"JuanDiegoBeltranVillegas36","gender":"0","school":"6","age":"12"},{"start_time":1551793965131,"click_time":1551793966533,"finger_time":1551793966273,"fix_duration":1136.6668917010272,"trial":4,"RT":1142,"MT":260,"sideResp":2,"stimulus":[],"xmouse":[770,770,770,770,770,770,770,770,770,770,770,770,770,770,770,770,770,770,770,770,770,770,770,770,770,770,770,770,770,770,770,770,770,770,770,770,770,770,770,770,770,770,770,770,770,770,770,770,770,770,770,770,770,770,774,777,784,813,836,872,890,907,922,946,959,976,993,1009,1040,1054,1060],"ymouse":[499,499,499,499,499,499,499,499,499,499,499,499,499,499,499,499,499,499,499,499,499,499,499,499,499,499,499,499,499,499,499,499,499,499,499,499,499,499,499,499,499,499,499,499,499,499,499,499,499,499,499,499,499,499,498,495,488,465,445,405,385,365,347,313,294,270,239,210,148,113,95],"timestamp_mouse":[9,22,42,61,81,102,120,141,161,181,201,221,242,261,281,301,322,341,362,382,401,421,440,462,481,501,521,541,562,580,601,621,641,662,681,701,721,741,761,781,802,821,841,861,882,900,922,942,961,982,1002,1021,1040,1062,1081,1102,1122,1142,1161,1181,1202,1221,1240,1261,1281,1302,1321,1341,1362,1381,1402],"xSR":741.5,"ySR":469.95,"xT1":424.9,"yT1":0,"xT2":1058.1,"yT2":0,"toosoon":0,"cond_shown":"Incongruent","ratio_trial":200,"L_num":1,"L_den":2,"R_num":3,"R_den":10,"correct_side":1,"subjID":"JuanDiegoBeltranVillegas36","gender":"0","school":"6","age":"12"},{"start_time":1551793969330,"click_time":1551793971393,"finger_time":1551793970593,"fix_duration":1195.2734677712988,"trial":5,"RT":1263,"MT":800,"sideResp":1,"stimulus":[],"xmouse":[820,820,820,820,820,820,820,820,820,820,820,820,820,820,820,820,820,820,820,820,820,820,820,820,820,820,820,820,820,820,820,820,820,820,820,820,820,820,820,820,820,820,820,820,820,820,820,820,820,820,820,820,820,820,820,820,820,820,820,815,810,801,767,728,671,608,536,416,363,345,335,332,332,332,332,332,332,332,332,332,334,338,346,348,350,351,353,357,366,375,387,394,397,399,399,399,400,403,406,409,413,417,423,441],"ymouse":[547,547,547,547,547,547,547,547,547,547,547,547,547,547,547,547,547,547,547,547,547,547,547,547,547,547,547,547,547,547,547,547,547,547,547,547,547,547,547,547,547,547,547,547,547,547,547,547,547,547,547,547,547,547,547,547,547,547,547,542,536,527,486,447,398,339,278,155,94,72,60,55,55,55,55,55,55,55,55,55,55,55,55,55,54,53,52,50,47,42,37,34,32,32,32,32,32,30,30,30,31,34,38,47],"timestamp_mouse":[9,22,42,62,83,102,123,142,163,182,202,223,243,263,283,302,322,342,363,382,403,423,442,462,482,503,522,542,562,583,602,622,642,663,682,703,722,743,763,783,802,822,842,863,882,903,921,942,962,982,1001,1023,1042,1061,1083,1103,1122,1142,1163,1182,1202,1222,1243,1263,1281,1302,1322,1343,1362,1382,1403,1422,1443,1462,1481,1502,1522,1543,1562,1582,1602,1623,1643,1662,1682,1703,1721,1742,1762,1783,1802,1823,1841,1862,1882,1902,1923,1943,1963,1983,2002,2021,2041,2062],"xSR":741.5,"ySR":469.95,"xT1":424.9,"yT1":0,"xT2":1058.1,"yT2":0,"toosoon":0,"cond_shown":"Congruent","ratio_trial":300,"L_num":3,"L_den":6,"R_num":2,"R_den":10,"correct_side":1,"subjID":"JuanDiegoBeltranVillegas36","gender":"0","school":"6","age":"12"},{"start_time":1551793973954,"click_time":1551793975493,"finger_time":1551793974873,"fix_duration":1139.8227423316903,"trial":6,"RT":919,"MT":620,"sideResp":1,"stimulus":[],"xmouse":[795,795,795,795,795,795,795,795,795,795,795,795,795,795,795,795,795,795,795,795,795,795,795,795,795,795,795,795,795,795,795,795,795,795,795,795,795,795,795,795,795,795,795,795,792,781,749,714,693,675,658,648,628,619,611,603,589,580,574,569,567,564,560,556,554,550,538,531,525,520,516,512,509,507,505,502,499,493],"ymouse":[543,543,543,543,543,543,543,543,543,543,543,543,543,543,543,543,543,543,543,543,543,543,543,543,543,543,543,543,543,543,543,543,543,543,543,543,543,543,543,543,543,543,543,535,528,509,456,406,375,350,327,309,274,258,245,232,216,209,205,202,200,197,189,183,178,170,152,138,131,126,122,118,115,113,111,108,105,80],"timestamp_mouse":[1,17,38,58,77,99,117,138,158,179,198,219,238,258,278,298,317,338,359,378,397,418,438,457,479,497,519,538,559,579,598,619,639,658,679,698,718,739,759,778,798,818,839,859,878,899,919,938,958,978,999,1017,1038,1058,1078,1097,1119,1138,1158,1179,1198,1219,1238,1257,1279,1298,1319,1337,1359,1377,1398,1418,1438,1458,1478,1498,1518,1539],"xSR":741.5,"ySR":469.95,"xT1":424.9,"yT1":0,"xT2":1058.1,"yT2":0,"toosoon":0,"cond_shown":"Congruent","ratio_trial":200,"L_num":12,"L_den":15,"R_num":6,"R_den":10,"correct_side":1,"subjID":"JuanDiegoBeltranVillegas36","gender":"0","school":"6","age":"12"},{"start_time":1551793978561,"click_time":1551793980892,"finger_time":1551793980272,"fix_duration":327.0699851277297,"trial":7,"RT":1711,"MT":620,"sideResp":1,"stimulus":[],"xmouse":[834,834,834,834,834,834,834,834,834,834,834,834,834,834,834,834,834,834,834,834,834,834,834,834,834,834,834,834,834,834,834,834,834,834,834,834,834,834,834,834,834,834,834,834,834,834,834,834,834,834,834,834,834,834,834,834,834,834,834,834,834,834,834,834,834,834,834,834,834,834,834,834,834,834,834,834,834,834,834,829,824,809,801,790,780,761,741,730,722,715,699,690,682,675,667,646,637,624,614,605,596,575,564,557,550,545,540,539,538,537,534,533,531,529,527,526,523],"ymouse":[553,553,553,553,553,553,553,553,553,553,553,553,553,553,553,553,553,553,553,553,553,553,553,553,553,553,553,553,553,553,553,553,553,553,553,553,553,553,553,553,553,553,553,553,553,553,553,553,553,553,553,553,553,553,553,553,553,553,553,553,553,553,553,553,553,553,553,553,553,553,553,553,553,553,553,553,553,553,553,546,540,518,506,491,478,457,431,419,409,400,379,368,357,347,332,300,285,260,246,231,215,178,159,146,134,123,114,110,108,106,98,95,93,91,91,90,89],"timestamp_mouse":[11,31,51,70,91,111,132,150,171,191,211,231,252,270,292,312,332,351,371,391,411,431,451,472,492,511,532,551,572,591,612,632,651,671,692,710,732,751,770,791,812,830,852,870,891,911,931,952,971,992,1011,1031,1051,1070,1091,1111,1131,1152,1172,1192,1212,1232,1250,1271,1290,1311,1330,1351,1371,1391,1412,1432,1451,1472,1491,1511,1532,1552,1572,1592,1610,1632,1652,1671,1691,1711,1731,1750,1771,1791,1812,1831,1850,1872,1892,1912,1931,1951,1970,1991,2011,2031,2051,2072,2091,2111,2131,2151,2172,2191,2211,2231,2252,2272,2292,2310,2331],"xSR":741.5,"ySR":469.95,"xT1":424.9,"yT1":0,"xT2":1058.1,"yT2":0,"toosoon":0,"cond_shown":"Incongruent","ratio_trial":200,"L_num":7,"L_den":10,"R_num":14,"R_den":28,"correct_side":1,"subjID":"JuanDiegoBeltranVillegas36","gender":"0","school":"6","age":"12"},{"start_time":1551793983863,"click_time":1551793985654,"finger_time":1551793985133,"fix_duration":250,"trial":8,"RT":1270,"MT":521,"sideResp":2,"stimulus":[],"xmouse":[790,790,790,790,790,790,790,790,790,790,790,790,790,790,790,790,790,790,790,790,790,790,790,790,790,790,790,790,790,790,790,790,790,790,790,790,790,790,790,790,790,790,790,790,790,790,790,790,790,790,790,790,790,790,790,790,790,790,790,790,790,792,800,818,847,874,921,938,948,957,975,988,995,1001,1004,1004,1005,1005,1006,1010,1014,1025,1029,1032,1033,1035,1041,1048,1056,1061],"ymouse":[529,529,529,529,529,529,529,529,529,529,529,529,529,529,529,529,529,529,529,529,529,529,529,529,529,529,529,529,529,529,529,529,529,529,529,529,529,529,529,529,529,529,529,529,529,529,529,529,529,529,529,529,529,529,529,529,529,529,529,529,527,517,498,466,406,349,243,205,173,149,102,73,56,47,41,41,40,40,39,39,39,39,39,39,39,39,39,39,39,40],"timestamp_mouse":[9,30,48,68,88,110,130,149,169,190,210,229,248,269,290,310,329,348,369,390,410,429,449,470,490,508,529,549,569,590,610,628,649,669,689,709,729,749,769,790,809,830,849,869,890,909,929,950,970,990,1010,1029,1050,1070,1089,1110,1129,1149,1169,1190,1209,1229,1249,1269,1290,1309,1329,1349,1370,1389,1410,1428,1449,1470,1488,1508,1529,1549,1569,1589,1608,1628,1649,1670,1689,1710,1729,1749,1769,1790],"xSR":741.5,"ySR":469.95,"xT1":424.9,"yT1":0,"xT2":1058.1,"yT2":0,"toosoon":0,"cond_shown":"Incongruent","ratio_trial":100,"L_num":17,"L_den":30,"R_num":10,"R_den":15,"correct_side":2,"subjID":"JuanDiegoBeltranVillegas36","gender":"0","school":"6","age":"12"},{"start_time":1551793989312,"click_time":1551793991732,"finger_time":1551793990673,"fix_duration":999.8952788827253,"trial":9,"RT":1361,"MT":1059,"sideResp":2,"stimulus":[],"xmouse":[785,785,785,785,785,785,785,785,785,785,785,785,785,785,785,785,785,785,785,785,785,785,785,785,785,785,785,785,785,785,785,785,785,785,785,785,785,785,785,785,785,785,785,785,785,785,785,785,785,785,785,785,785,785,785,785,785,785,785,785,785,785,785,785,785,785,784,782,755,738,717,697,680,669,658,654,652,650,646,627,612,595,577,558,553,548,543,539,533,530,529,529,529,529,529,529,529,529,535,555,576,601,632,700,744,801,864,921,959,1014,1034,1050,1059,1068,1072,1083,1099,1118,1143,1146,1146,1146],"ymouse":[519,519,519,519,519,519,519,519,519,519,519,519,519,519,519,519,519,519,519,519,519,519,519,519,519,519,519,519,519,519,519,519,519,519,519,519,519,519,519,519,519,519,519,519,519,519,519,519,519,519,519,519,519,519,519,519,519,519,519,519,519,519,519,519,519,519,512,504,410,345,289,241,206,186,169,164,162,160,155,141,136,132,126,121,119,116,112,110,105,105,104,104,104,104,104,104,104,104,106,117,127,138,148,155,155,155,155,155,155,155,155,155,155,155,153,146,137,129,111,104,101,99],"timestamp_mouse":[2,20,42,60,80,101,119,141,161,181,199,221,241,261,281,300,321,341,360,380,401,420,440,460,480,501,520,540,561,580,599,619,641,660,679,701,721,740,759,780,801,820,840,860,881,901,921,939,960,981,1000,1020,1040,1059,1081,1099,1120,1141,1160,1180,1199,1220,1240,1260,1281,1300,1320,1341,1361,1379,1400,1421,1441,1459,1481,1500,1520,1539,1560,1580,1600,1620,1641,1661,1680,1700,1720,1739,1762,1780,1800,1820,1840,1861,1881,1900,1919,1940,1961,1980,2001,2021,2039,2061,2080,2100,2120,2140,2160,2180,2200,2220,2240,2261,2280,2300,2321,2340,2362,2380,2399,2420],"xSR":741.5,"ySR":469.95,"xT1":424.9,"yT1":0,"xT2":1058.1,"yT2":0,"toosoon":0,"cond_shown":"Congruent","ratio_trial":100,"L_num":11,"L_den":22,"R_num":6,"R_den":15,"correct_side":1,"subjID":"JuanDiegoBeltranVillegas36","gender":"0","school":"6","age":"12"},{"start_time":1551793993687,"click_time":1551793995874,"finger_time":1551793995173,"fix_duration":413.5880334810473,"trial":10,"RT":1486,"MT":701,"sideResp":1,"stimulus":[],"xmouse":[785,785,785,785,785,785,785,785,785,785,785,785,785,785,785,785,785,785,785,785,785,785,785,785,785,785,785,785,785,785,785,785,785,785,785,785,785,785,785,785,785,785,785,785,785,785,785,785,785,785,785,785,785,785,785,785,785,785,785,785,785,785,785,785,785,785,785,785,785,785,785,785,776,767,750,742,734,725,714,697,694,694,692,686,680,662,654,650,645,644,635,625,616,607,597,580,574,569,567,564,557,553,548,545,542,540,540,539,535,517],"ymouse":[501,501,501,501,501,501,501,501,501,501,501,501,501,501,501,501,501,501,501,501,501,501,500,500,500,500,500,500,500,500,500,500,500,500,500,500,500,500,500,500,500,500,500,500,500,500,500,500,500,500,500,500,500,500,500,500,500,500,500,500,500,500,500,500,500,500,500,500,500,500,500,500,485,470,424,402,373,338,297,235,211,183,166,148,132,109,99,96,94,93,91,88,86,82,79,76,76,76,76,76,76,76,76,76,76,76,76,76,76,74],"timestamp_mouse":[11,26,45,65,85,105,127,146,167,187,207,225,246,265,286,306,326,345,366,386,405,426,445,466,487,506,525,546,566,585,606,625,646,666,686,706,725,745,766,785,807,826,845,866,886,906,925,947,965,986,1006,1027,1045,1066,1086,1106,1126,1146,1166,1185,1205,1226,1246,1265,1285,1306,1326,1346,1366,1385,1406,1426,1445,1465,1486,1505,1526,1546,1565,1586,1605,1626,1645,1667,1686,1705,1726,1746,1765,1785,1805,1825,1845,1865,1886,1906,1926,1945,1966,1986,2005,2025,2046,2065,2085,2106,2125,2145,2165,2187],"xSR":741.5,"ySR":469.95,"xT1":424.9,"yT1":0,"xT2":1058.1,"yT2":0,"toosoon":0,"cond_shown":"Congruent","ratio_trial":200,"L_num":8,"L_den":15,"R_num":3,"R_den":9,"correct_side":1,"subjID":"JuanDiegoBeltranVillegas36","gender":"0","school":"6","age":"12"},{"start_time":1551793999551,"click_time":1551794001292,"finger_time":1551794001053,"fix_duration":1257.9869900271399,"trial":11,"RT":1502,"MT":239,"sideResp":2,"stimulus":[],"xmouse":[773,773,773,773,773,773,773,773,773,773,773,773,773,773,773,773,773,773,773,773,773,773,773,773,773,773,773,773,773,773,773,773,773,773,773,773,773,773,773,773,773,773,773,773,773,773,773,773,773,773,773,773,773,773,773,773,773,773,773,773,773,773,773,773,773,773,773,773,773,773,773,773,781,796,824,866,951,1001,1025,1046,1067,1100,1113,1124,1132,1138,1145,1149],"ymouse":[544,544,544,544,544,544,544,544,544,544,544,544,544,544,544,544,544,544,544,544,544,544,544,544,544,544,544,544,544,544,544,544,544,544,544,544,544,544,544,544,544,544,544,544,544,544,544,544,544,544,544,544,544,544,544,544,544,544,544,544,544,544,544,544,544,544,544,544,544,544,544,544,537,523,502,471,401,339,308,277,249,204,187,174,162,152,121,94],"timestamp_mouse":[8,22,41,61,82,102,122,142,161,181,202,221,242,261,282,301,322,342,361,381,401,422,441,461,481,501,522,541,561,581,601,623,642,661,681,702,721,741,761,781,801,821,841,861,882,901,921,943,961,981,1001,1023,1041,1061,1081,1101,1121,1141,1161,1182,1203,1222,1242,1262,1282,1301,1322,1343,1361,1381,1402,1421,1441,1462,1482,1502,1522,1542,1561,1582,1602,1622,1641,1661,1682,1701,1723,1741],"xSR":741.5,"ySR":469.95,"xT1":424.9,"yT1":0,"xT2":1058.1,"yT2":0,"toosoon":0,"cond_shown":"Incongruent","ratio_trial":100,"L_num":9,"L_den":18,"R_num":6,"R_den":10,"correct_side":2,"subjID":"JuanDiegoBeltranVillegas36","gender":"0","school":"6","age":"12"},{"start_time":1551794002644,"click_time":1551794004374,"finger_time":1551794003993,"fix_duration":250,"trial":12,"RT":1349,"MT":381,"sideResp":1,"stimulus":[],"xmouse":[814,814,814,814,814,814,814,814,814,814,814,814,814,814,814,814,814,814,814,814,814,814,814,814,814,814,814,814,814,814,814,814,814,814,814,814,814,814,814,814,814,814,814,814,814,814,814,814,814,814,814,814,814,814,814,814,814,814,814,814,814,814,814,814,807,800,780,738,719,703,690,681,660,652,642,633,624,611,606,600,594,578,562,548,528,509,482],"ymouse":[496,496,496,496,496,496,496,496,496,496,496,496,496,496,496,496,496,496,496,496,496,496,496,496,496,496,496,496,496,496,496,496,496,496,496,496,496,496,496,496,496,496,496,496,496,496,496,496,496,496,496,496,496,496,496,496,496,496,496,496,496,496,496,496,493,490,479,456,445,433,421,411,378,367,354,342,330,313,304,296,285,255,225,202,169,135,84],"timestamp_mouse":[10,30,63,69,88,108,128,149,169,188,208,228,248,268,288,308,330,348,369,389,408,429,448,468,489,510,528,549,568,589,609,628,649,668,690,708,729,749,769,788,809,829,849,869,889,909,928,949,969,988,1008,1029,1048,1068,1090,1108,1129,1149,1168,1188,1208,1229,1249,1270,1289,1309,1328,1349,1368,1389,1408,1428,1448,1468,1488,1509,1529,1549,1568,1589,1608,1629,1648,1669,1688,1708,1729],"xSR":741.5,"ySR":469.95,"xT1":424.9,"yT1":0,"xT2":1058.1,"yT2":0,"toosoon":0,"cond_shown":"Incongruent","ratio_trial":100,"L_num":2,"L_den":4,"R_num":8,"R_den":20,"correct_side":1,"subjID":"JuanDiegoBeltranVillegas36","gender":"0","school":"6","age":"12"},{"start_time":1551794006918,"click_time":1551794008213,"finger_time":1551794007873,"fix_duration":1184.7864502377063,"trial":13,"RT":955,"MT":340,"sideResp":2,"stimulus":[],"xmouse":[766,766,766,766,766,766,766,766,766,766,766,766,766,766,766,766,766,766,766,766,766,766,766,766,766,766,766,766,766,766,766,766,766,766,766,766,766,766,766,766,766,766,767,778,793,806,816,829,837,841,847,853,861,885,897,911,925,939,983,1004,1023,1041,1057,1077,1086],"ymouse":[510,510,510,510,510,510,510,510,510,510,510,510,510,510,510,510,510,510,510,510,510,510,510,510,510,510,510,510,510,510,510,510,510,510,510,510,510,510,510,510,510,510,510,502,493,484,475,458,451,447,442,435,423,391,375,358,338,318,254,228,205,184,161,117,97],"timestamp_mouse":[15,44,54,76,94,115,135,154,175,195,215,236,254,275,294,315,335,354,374,394,414,435,454,475,496,515,535,554,575,594,615,635,655,675,696,715,735,754,775,794,815,834,856,874,895,914,935,955,974,994,1014,1035,1055,1074,1094,1115,1134,1155,1174,1195,1215,1234,1254,1274,1295],"xSR":741.5,"ySR":469.95,"xT1":424.9,"yT1":0,"xT2":1058.1,"yT2":0,"toosoon":0,"cond_shown":"Congruent","ratio_trial":200,"L_num":7,"L_den":15,"R_num":18,"R_den":27,"correct_side":2,"subjID":"JuanDiegoBeltranVillegas36","gender":"0","school":"6","age":"12"},{"start_time":1551794010949,"click_time":1551794012574,"finger_time":1551794012093,"fix_duration":1474.8632739112888,"trial":14,"RT":1144,"MT":481,"sideResp":1,"stimulus":[],"xmouse":[808,808,808,808,808,808,808,808,808,808,808,808,808,808,808,808,808,808,808,808,808,808,808,808,808,808,808,808,808,808,808,808,808,808,808,808,808,808,808,808,808,808,808,808,808,808,808,808,808,808,808,808,807,800,789,780,770,730,718,709,701,683,675,664,652,640,630,594,579,566,556,549,540,536,532,527,524,518,516,515,514,510],"ymouse":[509,509,509,509,509,509,509,509,509,509,509,509,509,509,509,509,509,509,509,509,509,509,509,509,509,509,509,509,509,509,509,509,509,509,509,509,509,509,509,509,509,509,509,509,509,509,509,509,509,509,509,509,509,504,498,489,475,412,390,374,359,327,313,293,276,260,244,201,184,170,159,152,142,138,132,126,121,111,107,105,102,94],"timestamp_mouse":[9,23,43,63,84,103,123,144,163,183,204,223,244,263,283,303,323,343,364,383,403,423,443,464,484,505,524,544,563,584,605,624,644,663,684,704,723,744,764,783,803,825,843,864,883,903,924,943,964,984,1003,1023,1044,1064,1084,1103,1123,1144,1163,1184,1204,1224,1244,1263,1284,1303,1324,1343,1363,1384,1403,1423,1443,1463,1483,1503,1523,1543,1563,1584,1604,1625],"xSR":741.5,"ySR":469.95,"xT1":424.9,"yT1":0,"xT2":1058.1,"yT2":0,"toosoon":0,"cond_shown":"Incongruent","ratio_trial":100,"L_num":2,"L_den":4,"R_num":8,"R_den":20,"correct_side":1,"subjID":"JuanDiegoBeltranVillegas36","gender":"0","school":"6","age":"12"},{"start_time":1551794015127,"click_time":1551794016814,"finger_time":1551794016333,"fix_duration":1351.0624480543538,"trial":15,"RT":1206,"MT":481,"sideResp":2,"stimulus":[],"xmouse":[782,782,782,782,782,782,782,782,782,782,782,782,782,782,782,782,782,782,782,782,782,782,782,782,782,782,782,782,782,782,782,782,782,782,782,782,782,782,782,782,782,782,782,782,782,782,782,782,782,782,782,782,782,782,782,782,782,782,786,799,812,825,839,868,890,919,952,1043,1104,1134,1159,1176,1188,1205,1208,1209,1209,1209,1209,1209,1209,1205,1183,1170,1157],"ymouse":[500,500,500,500,500,500,500,500,500,500,500,500,500,500,500,500,500,500,500,500,500,500,500,500,500,500,500,500,500,500,500,500,500,500,500,500,500,500,500,500,500,500,500,500,500,500,500,500,500,500,500,500,500,500,500,500,500,500,497,481,462,444,424,381,350,313,280,212,168,141,114,88,67,38,32,29,28,28,28,28,28,28,40,47,52],"timestamp_mouse":[8,27,46,66,86,105,126,146,166,186,206,226,245,265,285,307,325,345,366,385,406,425,446,467,485,506,525,545,565,585,606,626,645,666,685,706,726,745,765,786,805,826,846,866,885,905,925,945,966,985,1006,1026,1046,1065,1085,1106,1125,1145,1166,1185,1206,1225,1245,1265,1285,1305,1325,1346,1365,1385,1406,1425,1447,1465,1485,1505,1526,1545,1566,1587,1605,1625,1646,1665,1687],"xSR":741.5,"ySR":469.95,"xT1":424.9,"yT1":0,"xT2":1058.1,"yT2":0,"toosoon":0,"cond_shown":"Incongruent","ratio_trial":100,"L_num":11,"L_den":22,"R_num":9,"R_den":15,"correct_side":2,"subjID":"JuanDiegoBeltranVillegas36","gender":"0","school":"6","age":"12"},{"start_time":1551794018595,"click_time":1551794020693,"finger_time":1551794020094,"fix_duration":619.5236662892494,"trial":16,"RT":1499,"MT":599,"sideResp":2,"stimulus":[],"xmouse":[816,816,816,816,816,816,816,816,816,816,816,816,816,816,816,816,816,816,816,816,816,816,816,816,816,816,816,816,816,816,816,816,816,816,816,816,816,816,816,816,816,816,816,816,816,816,816,816,816,816,816,816,816,816,816,816,816,816,816,816,816,816,816,816,816,816,816,816,816,816,816,816,816,825,845,860,871,880,893,898,903,911,919,935,992,1007,1018,1029,1032,1032,1032,1032,1032,1032,1032,1032,1032,1032,1032,1032,1032,1032,1032,1032,1106],"ymouse":[512,512,512,512,512,512,512,512,512,512,512,512,512,512,512,512,512,512,512,512,512,512,512,512,512,512,512,512,512,512,512,512,512,512,512,512,512,512,512,512,512,512,512,512,512,512,512,512,512,512,512,512,512,512,512,512,512,512,512,512,512,512,512,512,512,512,512,512,512,512,512,512,510,500,480,468,455,446,417,398,376,351,322,280,144,97,56,20,8,8,8,8,8,8,8,8,8,8,8,8,8,8,8,8,1],"timestamp_mouse":[17,38,57,79,97,119,138,158,179,198,218,238,257,278,298,317,338,357,377,397,417,437,458,479,497,517,538,557,577,597,617,637,658,678,698,718,739,757,778,797,817,837,857,877,898,917,937,958,977,997,1017,1037,1057,1077,1097,1118,1139,1157,1177,1197,1219,1237,1257,1277,1297,1318,1337,1357,1377,1398,1418,1437,1457,1478,1498,1518,1537,1558,1579,1597,1617,1639,1657,1677,1698,1717,1737,1757,1778,1797,1817,1859,1860,1879,1897,1918,1937,1957,1978,1998,2018,2037,2058,2077,2098],"xSR":741.5,"ySR":469.95,"xT1":424.9,"yT1":0,"xT2":1058.1,"yT2":0,"toosoon":0,"cond_shown":"Congruent","ratio_trial":300,"L_num":1,"L_den":5,"R_num":3,"R_den":6,"correct_side":2,"subjID":"JuanDiegoBeltranVillegas36","gender":"0","school":"6","age":"12"},{"start_time":1551794022625,"click_time":1551794024472,"finger_time":1551794023933,"fix_duration":250,"trial":17,"RT":1308,"MT":539,"sideResp":1,"stimulus":[],"xmouse":[779,779,779,779,779,779,779,779,779,779,779,779,779,779,779,779,779,779,779,779,779,779,779,779,779,779,779,779,779,779,779,779,779,779,779,779,779,779,779,779,779,779,779,779,779,779,779,779,779,779,779,779,779,779,779,779,779,779,779,779,779,779,779,779,766,741,713,679,577,523,469,424,371,352,344,337,333,333,337,341,343,344,345,345,346,350,358,372,396,407,415,424,431],"ymouse":[528,528,528,528,528,528,528,528,528,528,528,528,528,528,528,528,528,528,528,528,528,528,528,528,528,528,528,528,528,528,528,528,528,528,528,528,528,528,528,528,528,528,528,528,528,528,528,528,528,528,528,528,528,528,528,528,528,528,528,528,528,528,528,528,522,504,482,455,378,333,286,247,194,171,160,151,138,126,98,85,79,76,75,75,75,75,75,75,72,69,66,63,60],"timestamp_mouse":[10,34,48,68,87,107,128,148,167,188,208,228,248,267,288,308,328,348,368,388,407,427,447,467,487,508,528,548,568,587,608,628,647,668,687,707,728,748,768,787,807,827,849,868,888,908,928,948,968,987,1007,1027,1048,1067,1087,1108,1128,1147,1167,1188,1208,1228,1247,1268,1288,1308,1328,1348,1367,1387,1407,1427,1449,1467,1488,1508,1528,1547,1567,1588,1607,1627,1647,1668,1688,1707,1728,1747,1767,1788,1808,1827,1847],"xSR":741.5,"ySR":469.95,"xT1":424.9,"yT1":0,"xT2":1058.1,"yT2":0,"toosoon":0,"cond_shown":"Congruent","ratio_trial":100,"L_num":1,"L_den":2,"R_num":3,"R_den":5,"correct_side":2,"subjID":"JuanDiegoBeltranVillegas36","gender":"0","school":"6","age":"12"},{"start_time":1551794028320,"click_time":1551794030492,"finger_time":1551794029913,"fix_duration":1385.6874661594304,"trial":18,"RT":1593,"MT":579,"sideResp":2,"stimulus":[],"xmouse":[772,772,772,772,772,772,772,772,772,772,772,772,772,772,772,772,772,772,772,772,772,772,772,772,772,772,772,772,772,772,772,772,772,772,772,772,772,772,772,772,772,772,772,772,772,772,772,772,772,772,772,772,772,772,772,772,772,772,772,772,772,772,772,772,772,772,772,772,772,772,772,772,772,772,772,772,772,772,771,769,767,763,761,756,753,751,748,745,736,734,732,730,729,729,729,729,737,776,825,863,902,948,1032,1067,1093,1113,1129,1145,1154],"ymouse":[503,503,503,503,503,503,503,503,503,503,503,503,503,503,503,503,503,503,503,503,503,503,503,503,503,503,503,503,503,503,503,503,503,503,503,503,503,503,503,503,503,503,503,503,503,503,503,503,503,503,503,503,503,503,503,503,503,503,503,503,503,503,503,503,503,503,503,503,503,503,503,503,503,503,503,503,497,487,471,458,444,429,412,378,367,353,345,338,321,317,314,311,310,309,308,305,303,287,273,260,248,230,191,170,150,134,120,102,86],"timestamp_mouse":[13,38,52,72,92,112,133,152,174,192,212,232,252,273,293,312,332,354,372,393,413,433,453,473,492,512,532,552,572,592,612,632,653,673,692,713,732,752,773,793,812,833,853,873,893,912,933,952,973,992,1012,1033,1053,1072,1093,1113,1132,1153,1173,1192,1212,1233,1252,1272,1292,1312,1332,1353,1373,1392,1414,1432,1452,1472,1493,1513,1532,1553,1573,1593,1612,1633,1652,1672,1693,1712,1733,1752,1772,1792,1812,1832,1853,1872,1893,1912,1933,1954,1972,1993,2013,2032,2053,2073,2092,2113,2132,2154,2172],"xSR":741.5,"ySR":469.95,"xT1":424.9,"yT1":0,"xT2":1058.1,"yT2":0,"toosoon":0,"cond_shown":"Incongruent","ratio_trial":100,"L_num":1,"L_den":2,"R_num":8,"R_den":20,"correct_side":1,"subjID":"JuanDiegoBeltranVillegas36","gender":"0","school":"6","age":"12"},{"start_time":1551794033844,"click_time":1551794035393,"finger_time":1551794034933,"fix_duration":250,"trial":19,"RT":1089,"MT":460,"sideResp":2,"stimulus":[],"xmouse":[804,804,804,804,804,804,804,804,804,804,804,804,804,804,804,804,804,804,804,804,804,804,804,804,804,804,804,804,804,804,804,804,804,804,804,804,804,804,804,804,804,804,804,804,804,804,804,804,804,804,805,807,824,834,843,856,880,891,897,903,909,920,928,932,938,948,979,994,1009,1020,1024,1024,1024,1024,1037,1058,1096,1109],"ymouse":[557,557,557,557,557,557,557,557,557,557,557,557,557,557,557,557,557,557,557,557,557,557,557,557,557,557,557,557,557,557,557,557,557,557,557,557,557,557,557,557,557,557,557,557,557,557,557,557,557,557,558,557,530,514,498,479,445,430,418,405,392,367,353,343,329,306,236,201,172,155,149,149,149,149,142,131,101,90],"timestamp_mouse":[9,39,48,69,88,108,129,148,168,188,209,228,248,269,288,308,328,348,368,388,410,428,448,468,488,508,528,548,568,589,608,628,650,668,688,709,729,748,768,789,809,829,848,869,888,909,928,949,968,989,1008,1028,1049,1069,1089,1108,1130,1149,1168,1189,1208,1230,1248,1268,1288,1308,1330,1349,1368,1389,1408,1429,1448,1469,1488,1508,1529,1548],"xSR":741.5,"ySR":469.95,"xT1":424.9,"yT1":0,"xT2":1058.1,"yT2":0,"toosoon":0,"cond_shown":"Incongruent","ratio_trial":100,"L_num":8,"L_den":16,"R_num":6,"R_den":10,"correct_side":2,"subjID":"JuanDiegoBeltranVillegas36","gender":"0","school":"6","age":"12"},{"start_time":1551794037108,"click_time":1551794039292,"finger_time":1551794038615,"fix_duration":413.2064719541271,"trial":20,"RT":1507,"MT":677,"sideResp":2,"stimulus":[],"xmouse":[794,794,794,794,794,794,794,794,794,794,794,794,794,794,794,794,794,794,794,794,794,794,794,794,794,794,794,794,794,794,794,794,794,794,794,794,794,794,794,794,794,794,794,794,794,794,794,794,794,794,794,794,794,794,794,794,794,794,794,794,794,794,794,794,794,794,794,794,794,794,800,811,820,832,837,843,846,851,860,889,908,923,941,983,1008,1025,1036,1041,1043,1044,1044,1044,1044,1045,1049,1051,1054,1056,1057,1057,1057,1057,1057,1057,1057,1058,1058,1058,1058,1059],"ymouse":[545,545,545,545,545,545,545,545,545,545,545,545,545,545,545,545,545,545,545,545,545,545,545,545,545,545,545,545,545,545,545,545,545,545,545,545,545,545,545,545,545,545,545,545,545,545,545,545,545,545,545,545,545,545,545,545,545,545,545,545,545,545,545,545,545,545,545,545,545,545,539,529,520,508,502,489,481,466,445,380,348,317,281,208,172,149,128,113,100,96,95,93,92,87,75,69,64,59,59,59,59,59,59,58,58,58,58,58,58,57],"timestamp_mouse":[10,33,44,65,84,104,124,144,166,185,204,224,245,264,285,304,325,344,364,385,404,424,446,465,484,504,524,545,564,584,605,624,644,665,686,704,725,746,765,784,804,825,845,864,884,905,925,944,965,985,1004,1024,1044,1065,1085,1106,1125,1145,1165,1185,1205,1224,1244,1264,1285,1306,1325,1344,1364,1385,1405,1425,1444,1465,1484,1507,1525,1544,1564,1584,1605,1625,1645,1665,1684,1704,1724,1744,1765,1785,1805,1826,1844,1864,1884,1904,1925,1944,1964,1985,2004,2025,2044,2065,2085,2104,2124,2144,2164,2184],"xSR":741.5,"ySR":469.95,"xT1":424.9,"yT1":0,"xT2":1058.1,"yT2":0,"toosoon":0,"cond_shown":"Incongruent","ratio_trial":100,"L_num":13,"L_den":26,"R_num":6,"R_den":10,"correct_side":2,"subjID":"JuanDiegoBeltranVillegas36","gender":"0","school":"6","age":"12"},{"start_time":1551794043068,"click_time":1551794045372,"finger_time":1551794044733,"fix_duration":675.5389732492217,"trial":21,"RT":1665,"MT":639,"sideResp":1,"stimulus":[],"xmouse":[786,786,786,786,786,786,786,786,786,786,786,786,786,786,786,786,786,786,786,786,786,786,786,786,786,786,786,786,786,786,786,786,786,786,786,786,786,786,786,786,786,786,786,786,786,786,786,786,786,786,786,786,786,786,786,786,786,786,786,786,786,786,786,786,786,786,786,786,786,786,786,786,786,786,786,786,786,786,786,788,790,801,806,809,811,812,812,812,812,812,819,832,843,853,866,884,891,897,899,900,896,884,870,854,833,790,770,750,732,711,649,589,559,541,527,519],"ymouse":[526,526,526,526,526,526,526,526,526,526,526,526,526,526,526,526,526,526,526,526,526,526,526,526,526,526,526,526,526,526,526,526,526,526,526,526,526,526,526,526,526,526,526,526,526,526,526,526,526,526,526,526,526,526,526,526,526,526,526,526,526,526,526,526,526,526,526,526,526,526,526,526,526,526,526,526,526,526,526,522,515,489,477,467,462,458,458,458,458,458,446,428,413,400,386,362,352,342,333,323,302,286,275,264,250,215,199,184,177,173,160,137,123,111,101,94],"timestamp_mouse":[9,24,48,64,84,104,124,144,164,184,204,225,244,264,284,305,325,344,365,384,405,426,444,464,484,504,524,544,565,584,604,625,646,665,685,704,724,744,764,784,806,825,844,864,884,905,924,944,965,984,1004,1024,1044,1064,1085,1104,1124,1144,1164,1184,1204,1225,1244,1264,1285,1304,1324,1345,1364,1384,1405,1425,1444,1466,1484,1504,1525,1544,1565,1584,1605,1625,1645,1665,1684,1705,1724,1744,1765,1784,1806,1824,1845,1864,1885,1905,1924,1945,1965,1985,2006,2024,2044,2065,2084,2106,2124,2144,2165,2184,2205,2224,2244,2264,2284,2304],"xSR":741.5,"ySR":469.95,"xT1":424.9,"yT1":0,"xT2":1058.1,"yT2":0,"toosoon":0,"cond_shown":"Congruent","ratio_trial":100,"L_num":11,"L_den":22,"R_num":4,"R_den":10,"correct_side":1,"subjID":"JuanDiegoBeltranVillegas36","gender":"0","school":"6","age":"12"},{"start_time":1551794047725,"click_time":1551794049234,"finger_time":1551794048873,"fix_duration":790.3347026879218,"trial":22,"RT":1148,"MT":361,"sideResp":1,"stimulus":[],"xmouse":[792,792,792,792,792,792,792,792,792,792,792,792,792,792,792,792,792,792,792,792,792,792,792,792,792,792,792,792,792,792,792,792,792,792,792,792,792,792,792,792,792,792,792,792,792,792,792,792,792,792,792,792,792,792,791,788,780,769,749,744,740,736,727,720,714,706,695,665,641,622,597,573,531,517,504,495],"ymouse":[501,501,501,501,501,501,501,501,501,501,501,501,501,501,501,501,501,501,501,501,501,501,501,501,501,501,501,501,501,501,501,501,501,501,501,501,501,501,501,501,501,501,501,501,501,501,501,501,501,501,501,501,501,501,502,497,483,463,421,403,386,375,355,343,332,317,299,255,221,201,176,155,124,113,103,94],"timestamp_mouse":[13,36,48,68,87,107,128,149,168,187,209,228,247,267,287,308,327,347,368,387,407,429,448,468,488,507,528,548,568,587,607,627,647,668,688,707,727,748,767,787,807,827,847,867,889,907,927,947,968,987,1007,1027,1048,1068,1087,1108,1128,1148,1167,1187,1207,1228,1248,1267,1288,1307,1328,1348,1367,1388,1408,1428,1448,1467,1487,1509],"xSR":741.5,"ySR":469.95,"xT1":424.9,"yT1":0,"xT2":1058.1,"yT2":0,"toosoon":0,"cond_shown":"Incongruent","ratio_trial":200,"L_num":4,"L_den":6,"R_num":14,"R_den":30,"correct_side":1,"subjID":"JuanDiegoBeltranVillegas36","gender":"0","school":"6","age":"12"},{"start_time":1551794051169,"click_time":1551794053034,"finger_time":1551794052833,"fix_duration":895.9707188797771,"trial":23,"RT":1664,"MT":201,"sideResp":1,"stimulus":[],"xmouse":[772,772,772,772,772,772,772,772,772,772,772,772,772,772,772,772,772,772,772,772,772,772,772,772,772,772,772,772,772,772,772,772,772,772,772,772,772,772,772,772,772,772,772,772,772,772,772,772,772,772,772,772,772,772,772,772,772,772,772,772,772,772,772,772,772,772,772,772,772,772,772,772,772,772,772,772,772,772,772,772,772,771,764,753,738,722,674,652,631,615,585,565,545,517],"ymouse":[513,513,513,513,513,513,513,513,513,513,513,513,513,513,513,513,513,513,513,513,513,513,513,513,513,513,513,513,513,513,513,513,513,513,513,513,513,513,513,513,513,513,513,513,513,513,513,513,513,513,513,513,513,513,513,513,513,513,513,513,513,513,513,513,513,513,513,513,513,513,513,513,513,513,513,513,513,513,513,513,513,506,488,463,429,389,284,235,196,163,114,91,66,36],"timestamp_mouse":[11,39,43,64,83,103,124,143,163,184,205,224,243,264,283,304,323,343,363,384,404,424,443,463,483,504,524,544,565,583,604,624,643,664,685,703,724,743,763,783,803,824,843,863,884,903,923,943,964,984,1005,1023,1043,1064,1083,1104,1123,1144,1164,1184,1204,1224,1245,1263,1284,1305,1325,1344,1364,1384,1404,1424,1443,1463,1484,1504,1523,1544,1563,1585,1604,1624,1644,1664,1684,1703,1723,1743,1763,1784,1804,1823,1843,1864],"xSR":741.5,"ySR":469.95,"xT1":424.9,"yT1":0,"xT2":1058.1,"yT2":0,"toosoon":0,"cond_shown":"Congruent","ratio_trial":200,"L_num":7,"L_den":21,"R_num":2,"R_den":15,"correct_side":1,"subjID":"JuanDiegoBeltranVillegas36","gender":"0","school":"6","age":"12"},{"start_time":1551794054400,"click_time":1551794056233,"finger_time":1551794055712,"fix_duration":307.87309992848213,"trial":24,"RT":1312,"MT":521,"sideResp":1,"stimulus":[],"xmouse":[791,791,791,791,791,791,791,791,791,791,791,791,791,791,791,791,791,791,791,791,791,791,791,791,791,791,791,791,791,791,791,791,791,791,791,791,791,791,791,791,791,791,791,791,791,791,791,791,791,791,791,791,791,791,791,791,791,791,784,772,765,760,757,753,743,736,728,718,697,686,674,664,638,638,630,625,624,622,617,615,612,609,604,592,580,571,562,552,541,516,504,492],"ymouse":[541,541,541,541,541,541,541,541,541,541,541,541,541,541,541,541,541,541,541,541,541,541,541,541,541,541,541,541,541,541,541,541,541,541,541,541,541,541,541,541,541,541,541,541,541,541,541,541,541,541,541,541,541,541,541,541,541,541,533,520,512,506,503,499,489,483,476,469,450,441,430,416,379,379,363,355,353,350,340,334,323,313,298,267,240,224,207,193,175,136,115,93],"timestamp_mouse":[13,38,53,72,93,112,132,153,174,193,214,232,252,273,292,312,332,353,374,393,412,433,453,473,493,512,532,553,572,593,612,634,653,672,693,712,734,753,772,793,812,832,853,874,893,913,933,952,973,993,1012,1032,1053,1073,1093,1112,1133,1153,1172,1192,1213,1233,1254,1273,1293,1312,1334,1352,1373,1392,1413,1433,1459,1473,1492,1512,1533,1553,1573,1592,1613,1632,1652,1673,1692,1712,1733,1752,1772,1793,1812,1833],"xSR":741.5,"ySR":469.95,"xT1":424.9,"yT1":0,"xT2":1058.1,"yT2":0,"toosoon":0,"cond_shown":"Congruent","ratio_trial":300,"L_num":9,"L_den":10,"R_num":3,"R_den":5,"correct_side":1,"subjID":"JuanDiegoBeltranVillegas36","gender":"0","school":"6","age":"12"},{"start_time":1551794057846,"click_time":1551794059432,"finger_time":1551794058913,"fix_duration":631.493171427819,"trial":25,"RT":1067,"MT":519,"sideResp":2,"stimulus":[],"xmouse":[769,769,769,769,769,769,769,769,769,769,769,768,767,766,766,766,766,765,765,765,765,765,765,765,765,765,765,765,765,765,765,765,765,765,765,765,765,765,765,765,765,765,765,765,765,765,765,765,765,765,769,774,819,846,871,889,903,906,912,920,933,972,1002,1010,1015,1018,1022,1023,1024,1027,1030,1036,1044,1046,1049,1052,1060,1075,1080,1082],"ymouse":[522,522,522,522,522,522,522,522,522,522,525,526,530,532,534,535,536,536,536,536,536,536,536,536,536,536,536,536,536,536,536,536,536,536,536,536,536,536,536,536,536,536,536,536,536,536,536,536,536,536,532,528,498,486,476,466,458,455,449,437,421,383,356,343,330,320,299,290,277,264,246,229,195,184,173,160,145,116,108,99],"timestamp_mouse":[10,34,46,66,86,107,126,148,166,187,206,227,246,267,286,307,326,347,366,386,407,426,447,467,488,507,526,546,566,588,607,626,646,666,686,706,726,747,766,786,807,826,847,866,886,908,926,946,967,986,1007,1026,1046,1067,1086,1107,1128,1146,1167,1187,1207,1228,1246,1267,1286,1307,1327,1346,1366,1387,1406,1426,1446,1467,1486,1506,1526,1547,1566,1586],"xSR":741.5,"ySR":469.95,"xT1":424.9,"yT1":0,"xT2":1058.1,"yT2":0,"toosoon":0,"cond_shown":"Incongruent","ratio_trial":200,"L_num":7,"L_den":15,"R_num":4,"R_den":6,"correct_side":2,"subjID":"JuanDiegoBeltranVillegas36","gender":"0","school":"6","age":"12"},{"start_time":1551794061356,"click_time":1551794063253,"finger_time":1551794062913,"fix_duration":562.3063450188437,"trial":26,"RT":1557,"MT":340,"sideResp":2,"stimulus":[],"xmouse":[811,811,811,811,811,811,811,811,811,811,811,811,811,811,811,811,811,811,811,811,811,811,811,811,811,811,811,811,811,811,811,811,811,811,811,811,811,811,811,811,811,811,811,811,811,811,809,798,787,782,780,780,780,780,780,780,780,780,780,780,780,780,780,780,780,780,780,780,780,780,780,780,780,781,784,789,805,818,831,842,851,861,864,869,875,903,941,971,1000,1017,1032,1059,1075,1090,1103],"ymouse":[528,528,528,528,528,528,528,528,528,528,528,528,528,528,528,528,528,528,528,528,528,528,528,528,528,528,528,528,528,528,528,528,528,528,528,528,528,528,528,528,528,528,528,528,528,528,528,528,528,528,528,528,528,528,528,528,528,528,528,528,528,528,528,528,528,528,528,528,528,528,528,528,527,526,521,516,489,468,445,426,410,392,386,376,363,321,282,259,233,213,191,152,132,112,94],"timestamp_mouse":[16,36,56,77,98,117,137,156,176,197,218,236,257,276,297,317,337,356,377,396,416,436,456,476,496,516,536,557,577,596,616,637,657,676,697,716,737,756,776,796,816,837,856,877,896,916,936,957,977,996,1016,1036,1056,1077,1096,1116,1137,1156,1178,1196,1216,1236,1257,1276,1297,1316,1336,1356,1377,1396,1416,1437,1456,1477,1498,1516,1537,1557,1576,1596,1618,1636,1657,1677,1697,1717,1736,1756,1777,1797,1817,1837,1857,1877,1897],"xSR":741.5,"ySR":469.95,"xT1":424.9,"yT1":0,"xT2":1058.1,"yT2":0,"toosoon":0,"cond_shown":"Congruent","ratio_trial":200,"L_num":5,"L_den":10,"R_num":14,"R_den":20,"correct_side":2,"subjID":"JuanDiegoBeltranVillegas36","gender":"0","school":"6","age":"12"},{"start_time":1551794066276,"click_time":1551794068272,"finger_time":1551794067752,"fix_duration":283.8472181322256,"trial":27,"RT":1476,"MT":520,"sideResp":2,"stimulus":[],"xmouse":[787,787,787,787,787,787,787,787,787,787,787,787,787,787,787,787,787,787,787,787,787,787,787,787,787,787,787,787,787,787,787,787,787,787,787,787,787,787,787,787,787,787,787,787,787,787,787,787,787,787,787,787,787,787,787,787,787,787,787,787,787,787,787,787,787,787,787,787,787,789,805,811,815,817,822,836,845,859,874,911,929,948,958,967,974,985,989,993,997,1006,1015,1018,1023,1028,1034,1044,1047,1051,1056,1060],"ymouse":[524,524,524,524,524,524,524,524,524,524,524,524,524,524,524,524,524,524,524,524,524,524,524,524,524,524,524,524,524,524,524,524,524,524,524,524,524,524,524,524,524,524,524,524,524,524,524,524,524,524,524,524,524,524,524,524,524,524,524,524,524,524,524,524,524,524,524,524,524,522,500,490,479,469,458,428,411,388,366,315,290,259,241,222,206,180,172,163,151,124,103,90,80,70,63,51,48,45,42,39],"timestamp_mouse":[34,37,56,76,98,116,136,158,177,196,217,236,257,276,298,317,336,356,376,397,416,436,457,476,496,516,538,556,576,596,617,636,656,676,696,716,736,756,776,797,816,836,857,876,896,917,938,957,976,996,1016,1037,1056,1077,1097,1116,1137,1156,1176,1198,1217,1237,1256,1277,1296,1318,1336,1357,1377,1397,1416,1437,1457,1476,1496,1517,1536,1557,1576,1597,1616,1637,1656,1677,1698,1717,1736,1757,1776,1798,1816,1836,1856,1876,1896,1916,1936,1958,1976,1996],"xSR":741.5,"ySR":469.95,"xT1":424.9,"yT1":0,"xT2":1058.1,"yT2":0,"toosoon":0,"cond_shown":"Congruent","ratio_trial":100,"L_num":6,"L_den":12,"R_num":15,"R_den":25,"correct_side":2,"subjID":"JuanDiegoBeltranVillegas36","gender":"0","school":"6","age":"12"},{"start_time":1551794071629,"click_time":1551794072893,"finger_time":1551794072452,"fix_duration":1095.443190534888,"trial":28,"RT":823,"MT":441,"sideResp":1,"stimulus":[],"xmouse":[798,798,798,798,798,798,798,798,798,798,798,798,798,798,798,798,798,798,798,798,798,798,798,798,798,798,798,798,798,798,798,798,798,798,798,798,798,792,780,776,767,761,738,710,691,673,659,640,597,572,550,530,499,486,482,478,476,475,474,474,473,473,473,473],"ymouse":[517,517,517,517,517,517,517,517,517,517,517,517,517,517,517,517,517,517,517,517,517,517,517,517,517,517,517,517,517,517,517,517,517,517,517,517,517,515,499,494,481,468,442,419,400,378,357,335,293,271,253,235,209,194,185,175,167,161,152,147,140,130,118,75],"timestamp_mouse":[10,32,43,64,84,103,124,144,164,183,203,223,244,265,283,304,324,343,363,384,405,423,444,464,484,503,524,544,564,583,604,623,643,664,684,704,724,744,766,783,804,823,844,863,884,903,923,943,963,984,1003,1023,1045,1063,1084,1103,1124,1143,1164,1184,1204,1225,1243,1264],"xSR":741.5,"ySR":469.95,"xT1":424.9,"yT1":0,"xT2":1058.1,"yT2":0,"toosoon":0,"cond_shown":"Congruent","ratio_trial":300,"L_num":24,"L_den":30,"R_num":2,"R_den":4,"correct_side":1,"subjID":"JuanDiegoBeltranVillegas36","gender":"0","school":"6","age":"12"},{"start_time":1551794075138,"click_time":1551794077053,"finger_time":1551794076513,"fix_duration":1443.2713665288939,"trial":29,"RT":1375,"MT":540,"sideResp":1,"stimulus":[],"xmouse":[822,822,822,822,822,822,822,822,822,822,822,822,822,822,822,822,822,822,822,822,822,822,822,822,822,822,822,822,822,822,822,822,822,822,822,822,822,822,822,822,822,822,822,822,822,822,822,822,822,822,822,822,822,822,822,822,822,822,822,822,820,817,808,805,802,799,798,785,771,758,745,730,703,690,678,667,645,634,633,633,632,630,627,624,619,617,615,609,603,594,584,573,551,540,532,520],"ymouse":[495,495,495,495,495,495,495,495,495,495,495,495,495,495,495,495,495,495,495,495,495,495,495,495,495,495,495,495,495,495,495,495,495,495,495,495,495,495,495,495,495,495,495,495,495,495,495,495,495,495,495,495,495,495,495,495,495,495,495,495,495,495,495,495,495,495,495,480,464,447,428,407,364,343,324,304,269,259,254,249,244,239,226,217,207,203,199,189,181,166,148,130,93,80,72,65],"timestamp_mouse":[16,36,54,74,94,114,134,155,175,195,215,234,254,274,296,315,334,354,374,396,416,434,455,474,494,514,534,554,574,595,614,634,654,674,694,714,734,755,774,794,814,834,855,874,894,915,936,955,974,995,1014,1034,1056,1075,1094,1115,1134,1154,1174,1195,1215,1234,1255,1274,1294,1315,1334,1354,1375,1396,1414,1434,1454,1474,1495,1514,1535,1554,1574,1596,1614,1634,1654,1674,1695,1714,1734,1754,1774,1794,1814,1834,1854,1874,1894,1915],"xSR":741.5,"ySR":469.95,"xT1":424.9,"yT1":0,"xT2":1058.1,"yT2":0,"toosoon":0,"cond_shown":"Incongruent","ratio_trial":300,"L_num":3,"L_den":6,"R_num":4,"R_den":20,"correct_side":1,"subjID":"JuanDiegoBeltranVillegas36","gender":"0","school":"6","age":"12"},{"start_time":1551794082158,"click_time":1551794083653,"finger_time":1551794083373,"fix_duration":643.5444240650903,"trial":30,"RT":1215,"MT":280,"sideResp":1,"stimulus":[],"xmouse":[794,794,794,794,794,794,794,794,794,794,794,794,794,794,794,794,794,794,794,794,794,794,794,794,794,794,794,794,794,794,794,794,794,794,794,794,794,794,794,794,794,794,794,794,794,794,794,794,794,794,794,794,794,794,794,792,775,764,752,743,724,715,705,693,678,657,604,582,558,535,513,478,464,457,454],"ymouse":[522,522,522,522,522,522,522,522,522,522,522,522,522,522,522,522,522,522,522,522,522,522,522,522,522,522,522,522,522,522,522,522,522,522,522,522,522,522,522,522,522,522,522,522,522,522,522,522,522,522,522,522,522,522,521,521,518,517,513,507,492,484,474,462,447,427,375,349,320,282,245,171,135,106,79],"timestamp_mouse":[15,43,54,75,94,114,134,155,175,195,214,234,254,274,294,314,335,354,374,394,414,434,454,474,495,516,534,554,575,595,615,634,654,674,696,714,734,754,774,794,815,834,854,875,894,915,934,954,974,994,1014,1034,1055,1074,1094,1114,1135,1155,1175,1194,1215,1234,1255,1275,1294,1315,1334,1355,1374,1394,1414,1435,1455,1474,1495],"xSR":741.5,"ySR":469.95,"xT1":424.9,"yT1":0,"xT2":1058.1,"yT2":0,"toosoon":0,"cond_shown":"Incongruent","ratio_trial":300,"L_num":7,"L_den":10,"R_num":8,"R_den":20,"correct_side":1,"subjID":"JuanDiegoBeltranVillegas36","gender":"0","school":"6","age":"12"},{"start_time":1551794085695,"click_time":1551794087234,"finger_time":1551794086833,"fix_duration":681.8244654975424,"trial":31,"RT":1138,"MT":401,"sideResp":1,"stimulus":[],"xmouse":[767,767,767,767,768,772,774,774,774,774,774,774,774,774,774,774,774,774,774,774,774,774,774,774,774,774,774,774,774,774,774,774,774,774,774,774,774,774,774,774,774,774,774,774,774,774,774,774,774,774,774,774,774,771,767,763,757,752,739,728,719,710,700,679,670,661,652,642,629,598,586,576,566,556,534,525,515],"ymouse":[492,492,492,492,492,492,492,492,492,492,492,492,492,492,492,492,492,492,492,492,492,492,492,492,492,492,492,492,492,492,492,492,492,492,492,492,492,492,492,492,492,492,492,492,492,492,492,492,492,492,492,492,492,490,482,471,458,447,424,410,400,392,382,363,351,336,320,302,281,228,207,184,165,144,102,87,70],"timestamp_mouse":[34,38,58,78,98,117,137,157,178,199,217,237,257,278,298,317,339,359,378,398,419,437,459,478,498,517,537,557,578,598,617,639,658,677,698,718,737,758,779,797,817,838,858,878,898,917,937,957,978,999,1019,1038,1058,1078,1098,1117,1138,1157,1179,1197,1217,1237,1258,1279,1297,1318,1337,1357,1377,1397,1418,1437,1459,1477,1497,1517,1539],"xSR":741.5,"ySR":469.95,"xT1":424.9,"yT1":0,"xT2":1058.1,"yT2":0,"toosoon":0,"cond_shown":"Incongruent","ratio_trial":200,"L_num":1,"L_den":2,"R_num":3,"R_den":10,"correct_side":1,"subjID":"JuanDiegoBeltranVillegas36","gender":"0","school":"6","age":"12"},{"start_time":1551794089304,"click_time":1551794090593,"finger_time":1551794090473,"fix_duration":1268.4748931492927,"trial":32,"RT":1169,"MT":120,"sideResp":1,"stimulus":[],"xmouse":[800,800,800,800,800,800,800,800,800,800,800,800,800,800,800,800,800,800,800,800,800,800,800,800,800,800,800,800,800,800,800,800,800,800,800,800,800,800,800,800,800,800,800,800,800,800,800,800,800,800,800,799,795,785,778,771,762,753,723,694,669,643,609,578,524],"ymouse":[551,551,551,551,551,551,551,551,551,551,551,551,551,551,551,551,551,551,551,551,551,551,551,551,551,551,551,551,551,551,551,554,555,556,558,558,559,559,559,559,559,559,559,559,559,559,559,559,559,559,559,559,558,545,534,517,497,475,407,348,303,260,214,169,97],"timestamp_mouse":[8,39,48,70,88,108,130,149,169,189,209,229,248,268,288,309,328,348,368,388,409,429,449,468,489,509,528,550,569,589,609,629,649,669,688,708,729,749,769,788,808,828,849,869,890,908,929,949,968,988,1009,1029,1049,1069,1088,1108,1129,1148,1169,1188,1209,1228,1248,1268,1289],"xSR":741.5,"ySR":469.95,"xT1":424.9,"yT1":0,"xT2":1058.1,"yT2":0,"toosoon":0,"cond_shown":"Congruent","ratio_trial":200,"L_num":8,"L_den":15,"R_num":2,"R_den":6,"correct_side":1,"subjID":"JuanDiegoBeltranVillegas36","gender":"0","school":"6","age":"12"},{"start_time":1551794092066,"click_time":1551794093752,"finger_time":1551794092993,"fix_duration":250,"trial":33,"RT":927,"MT":759,"sideResp":2,"stimulus":[],"xmouse":[790,790,790,790,790,790,790,790,790,790,790,790,790,790,790,790,790,790,790,790,790,790,790,790,790,790,790,790,790,790,790,790,790,790,790,790,790,790,790,790,790,790,791,794,799,822,836,853,868,881,900,916,926,938,963,1009,1169,1208,1222,1222,1222,1222,1222,1222,1222,1222,1222,1222,1222,1221,1217,1210,1205,1201,1198,1196,1190,1184,1174,1168,1161,1159,1159,1159,1157],"ymouse":[537,537,537,537,537,537,537,537,537,537,537,537,537,537,537,537,537,537,537,537,537,537,537,537,537,537,537,537,537,537,537,537,537,537,537,537,537,537,537,537,537,537,536,531,521,488,468,445,424,403,369,344,330,309,274,225,117,88,72,65,60,57,57,57,57,57,57,57,57,57,57,59,60,60,60,60,59,58,57,57,53,52,52,51,51],"timestamp_mouse":[8,41,46,67,87,106,127,146,166,186,206,226,248,268,287,306,327,346,366,386,408,427,446,467,486,506,526,546,567,586,606,626,646,666,688,706,726,746,766,786,806,827,847,866,887,907,927,946,967,986,1008,1026,1047,1068,1086,1106,1126,1147,1167,1187,1206,1226,1246,1266,1287,1306,1326,1346,1366,1386,1408,1426,1446,1466,1486,1507,1526,1547,1567,1586,1607,1626,1646,1667,1686],"xSR":741.5,"ySR":469.95,"xT1":424.9,"yT1":0,"xT2":1058.1,"yT2":0,"toosoon":0,"cond_shown":"Incongruent","ratio_trial":200,"L_num":11,"L_den":20,"R_num":3,"R_den":4,"correct_side":2,"subjID":"JuanDiegoBeltranVillegas36","gender":"0","school":"6","age":"12"},{"start_time":1551794098090,"click_time":1551794099312,"finger_time":1551794098993,"fix_duration":1455.727583200989,"trial":34,"RT":903,"MT":319,"sideResp":2,"stimulus":[],"xmouse":[810,810,810,810,810,810,810,810,810,810,810,810,810,810,810,810,810,810,810,810,810,810,810,810,810,810,810,810,810,810,810,810,810,810,810,810,810,810,810,810,810,810,811,813,822,838,848,860,877,929,974,1005,1034,1058,1074,1097,1101,1101,1102,1102,1103,1107],"ymouse":[504,504,504,504,504,504,504,504,504,504,504,504,504,504,504,504,504,504,504,504,504,504,504,504,504,504,504,504,504,504,504,504,504,504,504,504,504,504,504,504,504,504,503,499,488,465,451,433,412,356,308,266,227,189,163,129,120,118,117,115,101,91],"timestamp_mouse":[8,22,52,62,83,102,123,142,162,183,202,222,243,262,282,304,322,343,362,383,403,422,444,462,482,502,522,542,562,582,603,623,642,662,683,704,723,742,762,783,802,822,842,862,883,903,922,943,963,983,1002,1023,1042,1063,1082,1103,1123,1143,1163,1183,1202,1222],"xSR":741.5,"ySR":469.95,"xT1":424.9,"yT1":0,"xT2":1058.1,"yT2":0,"toosoon":0,"cond_shown":"Congruent","ratio_trial":300,"L_num":1,"L_den":30,"R_num":8,"R_den":24,"correct_side":2,"subjID":"JuanDiegoBeltranVillegas36","gender":"0","school":"6","age":"12"},{"start_time":1551794103496,"click_time":1551794104932,"finger_time":1551794104554,"fix_duration":1481.4924679844269,"trial":35,"RT":1058,"MT":378,"sideResp":2,"stimulus":[],"xmouse":[785,785,785,785,785,785,785,785,785,785,785,785,785,785,785,785,785,785,785,785,785,785,785,785,785,785,785,785,785,785,785,785,785,785,785,785,785,785,785,785,785,785,785,785,785,785,785,785,785,785,791,799,810,826,847,851,854,857,869,882,890,897,902,908,922,933,947,965,988,1033,1046,1059],"ymouse":[549,549,549,549,549,549,549,549,549,549,549,549,549,549,549,549,549,549,549,549,549,549,549,549,549,549,549,549,549,549,549,549,549,549,549,549,549,549,549,549,549,549,549,549,549,549,549,549,549,534,513,484,446,403,352,340,330,320,296,277,265,256,247,239,217,205,190,175,159,119,103,87],"timestamp_mouse":[33,37,58,76,96,116,136,157,176,198,216,237,256,276,296,316,336,356,376,397,416,437,456,476,496,516,537,556,577,596,616,636,657,676,696,716,736,756,776,796,816,836,856,876,896,917,936,956,976,996,1016,1036,1058,1076,1096,1117,1137,1156,1177,1196,1217,1236,1257,1276,1297,1316,1336,1357,1376,1396,1416,1436],"xSR":741.5,"ySR":469.95,"xT1":424.9,"yT1":0,"xT2":1058.1,"yT2":0,"toosoon":0,"cond_shown":"Incongruent","ratio_trial":100,"L_num":13,"L_den":26,"R_num":6,"R_den":10,"correct_side":2,"subjID":"JuanDiegoBeltranVillegas36","gender":"0","school":"6","age":"12"},{"start_time":1551794106544,"click_time":1551794108072,"finger_time":1551794107473,"fix_duration":250,"trial":36,"RT":929,"MT":599,"sideResp":1,"stimulus":[],"xmouse":[818,818,818,818,818,818,818,818,818,818,818,818,818,818,818,818,818,818,818,818,818,818,818,818,818,818,818,818,818,818,818,818,818,818,818,818,818,818,818,818,818,818,818,815,808,798,773,755,741,723,708,695,680,674,668,662,655,637,630,621,615,608,600,598,595,593,589,579,573,567,561,553,546,542,534,527,515],"ymouse":[517,517,517,517,517,517,517,517,517,517,517,517,517,517,517,517,517,517,517,517,517,517,517,517,517,517,517,517,517,517,517,517,517,517,517,517,517,517,517,517,517,517,517,516,510,500,466,439,419,395,372,350,319,304,291,278,263,220,205,190,178,169,156,152,149,145,140,128,123,120,120,119,117,114,110,103,93],"timestamp_mouse":[10,30,49,69,89,110,128,149,168,188,208,229,248,268,288,308,328,348,368,389,409,429,448,468,488,509,529,548,568,588,608,629,649,668,688,709,729,749,768,790,810,828,849,868,888,908,929,948,969,988,1008,1028,1049,1068,1089,1108,1128,1149,1168,1188,1208,1228,1248,1268,1289,1308,1328,1348,1369,1388,1408,1429,1448,1469,1488,1509,1528],"xSR":741.5,"ySR":469.95,"xT1":424.9,"yT1":0,"xT2":1058.1,"yT2":0,"toosoon":0,"cond_shown":"Congruent","ratio_trial":200,"L_num":20,"L_den":25,"R_num":9,"R_den":15,"correct_side":1,"subjID":"JuanDiegoBeltranVillegas36","gender":"0","school":"6","age":"12"},{"start_time":1551794110325,"click_time":1551794111792,"finger_time":1551794111292,"fix_duration":849.5016235353229,"trial":37,"RT":967,"MT":500,"sideResp":2,"stimulus":[],"xmouse":[753,753,753,753,753,753,753,753,753,753,753,753,753,753,753,753,753,753,753,753,753,753,753,753,753,753,753,753,753,753,753,753,753,753,753,753,753,753,753,753,753,753,753,753,756,758,764,790,826,846,865,881,897,919,929,941,955,986,998,999,1000,1000,1001,1003,1006,1011,1016,1030,1037,1041,1047,1052,1056,1060],"ymouse":[538,538,538,538,538,538,538,538,538,538,538,538,538,538,538,538,538,538,538,538,538,538,538,538,538,538,538,538,538,538,538,538,538,538,538,538,538,538,538,538,538,538,538,538,532,527,516,487,453,425,393,364,337,294,273,247,214,153,124,117,115,114,113,107,103,96,90,75,67,63,59,56,53,51],"timestamp_mouse":[10,34,48,68,88,107,128,148,168,188,207,228,249,268,287,309,328,347,368,388,407,429,447,468,488,508,527,548,567,588,608,627,648,668,687,708,727,748,768,787,808,827,848,868,888,908,928,949,967,987,1007,1029,1047,1067,1088,1108,1129,1149,1167,1188,1207,1227,1248,1267,1288,1307,1327,1348,1367,1388,1407,1428,1447,1467],"xSR":741.5,"ySR":469.95,"xT1":424.9,"yT1":0,"xT2":1058.1,"yT2":0,"toosoon":0,"cond_shown":"Incongruent","ratio_trial":100,"L_num":6,"L_den":12,"R_num":3,"R_den":5,"correct_side":2,"subjID":"JuanDiegoBeltranVillegas36","gender":"0","school":"6","age":"12"},{"start_time":1551794113601,"click_time":1551794114773,"finger_time":1551794114572,"fix_duration":606.287768563791,"trial":38,"RT":971,"MT":201,"sideResp":2,"stimulus":[],"xmouse":[809,809,809,809,809,809,809,809,809,809,809,809,809,809,809,809,809,809,809,809,809,809,809,809,809,809,809,809,809,809,809,809,809,809,809,809,809,809,809,809,809,809,809,809,809,811,820,834,850,913,935,951,958,974,992,1008,1024,1043,1059],"ymouse":[526,526,526,526,526,526,526,526,526,526,526,526,526,526,526,526,526,526,526,526,526,526,526,526,526,526,526,526,526,526,526,526,526,526,526,526,526,526,526,526,526,526,526,526,526,520,506,485,457,351,302,264,236,185,152,132,115,99,84],"timestamp_mouse":[11,37,51,72,92,111,131,153,172,192,213,231,252,272,291,312,332,353,372,392,411,431,452,471,492,512,532,551,571,592,611,632,651,671,692,711,732,752,771,792,813,831,852,872,891,912,931,952,971,992,1012,1032,1052,1073,1092,1112,1131,1151,1172],"xSR":741.5,"ySR":469.95,"xT1":424.9,"yT1":0,"xT2":1058.1,"yT2":0,"toosoon":0,"cond_shown":"Congruent","ratio_trial":300,"L_num":1,"L_den":5,"R_num":6,"R_den":12,"correct_side":2,"subjID":"JuanDiegoBeltranVillegas36","gender":"0","school":"6","age":"12"},{"start_time":1551794116244,"click_time":1551794117852,"finger_time":1551794117212,"fix_duration":250,"trial":39,"RT":968,"MT":640,"sideResp":2,"stimulus":[],"xmouse":[819,819,819,819,819,819,819,819,819,819,819,819,819,819,819,819,819,820,820,820,821,821,821,821,821,822,822,823,823,823,823,823,823,823,823,823,823,823,823,823,823,823,823,823,823,823,823,833,846,861,869,879,885,890,898,904,911,923,934,944,951,956,958,958,958,959,963,992,1007,1018,1028,1042,1046,1048,1050,1052,1052,1052,1053,1054,1060],"ymouse":[554,554,554,554,554,554,554,554,554,554,554,554,554,554,554,553,552,551,551,551,551,551,550,550,550,550,550,550,550,550,550,550,550,550,550,550,550,550,550,550,550,550,548,547,543,538,526,484,450,408,379,330,298,278,254,230,206,131,90,61,42,30,26,26,26,25,25,20,18,16,16,18,18,18,18,17,17,17,17,17,18],"timestamp_mouse":[20,28,49,69,88,109,128,150,169,189,209,228,249,268,289,308,328,349,368,390,408,429,449,468,490,508,528,549,569,589,608,628,649,668,689,709,728,750,768,788,808,830,848,868,888,908,928,949,968,989,1008,1030,1048,1069,1089,1108,1128,1148,1168,1189,1208,1229,1248,1268,1288,1308,1328,1348,1369,1389,1409,1430,1448,1468,1489,1508,1529,1549,1569,1588,1608],"xSR":741.5,"ySR":469.95,"xT1":424.9,"yT1":0,"xT2":1058.1,"yT2":0,"toosoon":0,"cond_shown":"Incongruent","ratio_trial":300,"L_num":13,"L_den":26,"R_num":12,"R_den":15,"correct_side":2,"subjID":"JuanDiegoBeltranVillegas36","gender":"0","school":"6","age":"12"},{"start_time":1551794119125,"click_time":1551794120274,"finger_time":1551794119893,"fix_duration":250,"trial":40,"RT":768,"MT":381,"sideResp":1,"stimulus":[],"xmouse":[761,761,761,761,761,761,761,761,761,761,761,761,761,761,761,761,761,761,761,761,761,761,761,761,761,761,761,761,761,761,761,761,761,761,761,761,761,749,712,679,649,622,588,574,564,557,553,548,543,536,530,521,505,496,491,483,475,456],"ymouse":[518,518,518,518,518,518,518,518,518,518,518,518,518,518,518,518,518,518,518,518,518,518,518,518,518,518,518,518,518,518,518,518,518,518,518,518,518,502,461,431,404,380,350,337,328,320,314,304,291,281,270,253,217,194,171,145,118,66],"timestamp_mouse":[10,32,47,67,87,107,127,149,167,187,207,227,249,267,288,309,327,348,367,388,407,428,447,467,487,507,527,548,567,587,607,627,649,669,687,708,727,748,768,787,808,828,848,867,888,908,928,948,967,988,1007,1027,1048,1067,1087,1107,1127,1148],"xSR":741.5,"ySR":469.95,"xT1":424.9,"yT1":0,"xT2":1058.1,"yT2":0,"toosoon":0,"cond_shown":"Congruent","ratio_trial":300,"L_num":24,"L_den":30,"R_num":8,"R_den":16,"correct_side":1,"subjID":"JuanDiegoBeltranVillegas36","gender":"0","school":"6","age":"12"},{"start_time":1551794125776,"click_time":1551794127013,"finger_time":1551794126553,"fix_duration":722.5715709092378,"trial":41,"RT":777,"MT":460,"sideResp":2,"stimulus":[],"xmouse":[788,788,788,788,788,788,788,788,788,788,788,788,788,788,788,788,788,788,788,788,788,788,788,788,788,788,788,788,788,788,788,788,788,788,788,788,789,796,815,844,915,934,942,945,950,965,972,976,977,977,977,977,977,977,977,978,986,1002,1018,1034,1055,1061],"ymouse":[528,528,528,528,528,528,528,528,528,528,528,528,528,528,528,528,528,528,528,528,528,528,528,528,528,528,528,528,528,528,528,528,528,528,528,528,528,505,455,388,258,215,190,166,143,84,66,54,48,46,46,46,46,46,46,46,49,55,58,58,57,53],"timestamp_mouse":[16,39,56,76,98,117,137,158,177,197,216,238,256,277,296,316,336,356,376,396,416,438,457,477,496,517,536,556,577,596,616,637,657,676,698,716,737,757,777,796,817,837,856,877,896,916,936,956,976,997,1016,1038,1056,1077,1097,1117,1136,1156,1177,1196,1216,1237],"xSR":741.5,"ySR":469.95,"xT1":424.9,"yT1":0,"xT2":1058.1,"yT2":0,"toosoon":0,"cond_shown":"Congruent","ratio_trial":300,"L_num":2,"L_den":20,"R_num":10,"R_den":25,"correct_side":2,"subjID":"JuanDiegoBeltranVillegas36","gender":"0","school":"6","age":"12"},{"start_time":1551794129622,"click_time":1551794131192,"finger_time":1551794130812,"fix_duration":1468.0352279272595,"trial":42,"RT":1190,"MT":380,"sideResp":1,"stimulus":[],"xmouse":[818,818,818,818,818,818,818,818,818,818,817,816,816,816,816,816,816,816,816,816,816,816,816,816,816,816,816,816,816,816,816,816,816,816,816,816,816,816,816,816,816,816,816,816,816,816,816,816,816,816,816,816,816,816,816,816,816,814,789,748,710,670,611,576,547,526,505,486,456,445,436,430,428,428,428,430,432,438,451],"ymouse":[513,513,513,513,513,513,513,513,513,513,513,514,514,514,514,514,514,514,514,514,514,514,514,514,514,514,514,514,514,514,514,514,514,514,514,514,514,514,514,514,514,514,514,514,514,514,514,514,514,514,514,514,514,514,514,514,514,513,489,455,420,386,337,309,284,264,244,222,190,175,165,156,151,142,138,132,123,110,89],"timestamp_mouse":[11,33,51,70,90,110,131,150,172,190,211,230,251,271,290,310,331,350,370,390,410,432,450,470,490,510,530,550,570,590,610,630,650,670,690,710,730,750,770,792,812,832,852,872,891,911,932,950,971,990,1010,1032,1051,1070,1091,1110,1131,1150,1171,1190,1211,1231,1252,1270,1291,1311,1332,1350,1371,1390,1411,1431,1450,1471,1491,1510,1530,1550,1570],"xSR":741.5,"ySR":469.95,"xT1":424.9,"yT1":0,"xT2":1058.1,"yT2":0,"toosoon":0,"cond_shown":"Incongruent","ratio_trial":300,"L_num":7,"L_den":10,"R_num":8,"R_den":20,"correct_side":1,"subjID":"JuanDiegoBeltranVillegas36","gender":"0","school":"6","age":"12"},{"start_time":1551794132741,"click_time":1551794133992,"finger_time":1551794133513,"fix_duration":267.0297633962625,"trial":43,"RT":772,"MT":479,"sideResp":2,"stimulus":[],"xmouse":[779,779,779,779,779,779,779,779,779,779,779,779,779,779,779,779,779,779,779,779,779,779,779,779,779,779,779,779,779,779,779,779,779,779,779,779,782,793,806,820,841,876,889,902,911,921,938,952,961,968,975,981,992,999,1008,1014,1019,1034,1042,1046,1047,1050,1059],"ymouse":[490,490,490,490,490,490,490,490,490,490,490,490,490,490,490,490,490,490,490,490,490,490,490,490,490,490,490,490,490,490,490,490,490,490,490,490,491,471,448,425,389,326,300,271,248,225,191,172,160,151,144,137,120,107,95,85,79,68,65,64,64,64,64],"timestamp_mouse":[11,46,51,72,91,111,131,151,172,192,211,232,253,271,292,313,331,352,373,391,412,432,452,472,491,512,532,551,571,592,611,631,652,672,692,712,732,752,772,792,812,832,851,872,891,911,933,952,972,991,1012,1031,1052,1071,1091,1112,1131,1152,1172,1192,1211,1232,1251],"xSR":741.5,"ySR":469.95,"xT1":424.9,"yT1":0,"xT2":1058.1,"yT2":0,"toosoon":0,"cond_shown":"Congruent","ratio_trial":200,"L_num":3,"L_den":10,"R_num":14,"R_den":28,"correct_side":2,"subjID":"JuanDiegoBeltranVillegas36","gender":"0","school":"6","age":"12"},{"start_time":1551794135685,"click_time":1551794137733,"finger_time":1551794137233,"fix_duration":250,"trial":44,"RT":1548,"MT":500,"sideResp":1,"stimulus":[],"xmouse":[773,773,773,773,773,773,773,773,773,773,773,773,773,773,773,773,773,773,773,773,773,773,773,773,773,773,773,773,773,773,773,773,773,773,773,773,773,773,773,773,773,773,773,773,773,773,773,773,773,773,773,773,773,773,773,773,773,773,773,773,773,773,773,773,773,773,773,773,773,773,773,773,772,770,760,755,747,734,720,690,676,661,650,638,630,613,602,591,583,573,565,561,553,548,545,541,541,541,541,541,537,532,521],"ymouse":[535,535,535,535,535,535,535,535,535,535,535,535,535,535,535,535,535,535,535,535,535,535,535,535,535,535,535,535,535,535,535,535,535,535,535,535,535,535,535,535,535,535,535,535,535,535,535,535,535,535,535,535,535,535,535,535,535,535,535,535,535,535,535,535,535,535,535,535,535,535,535,535,532,527,500,487,474,457,442,413,399,381,367,354,343,319,300,277,249,175,126,99,75,55,43,30,29,29,29,29,28,31,37],"timestamp_mouse":[11,36,48,69,87,107,127,147,167,187,207,228,247,268,287,308,327,347,367,387,408,427,448,467,488,508,528,548,568,587,607,627,649,668,687,707,728,748,768,787,807,827,847,868,889,909,928,948,967,987,1007,1028,1047,1067,1087,1107,1128,1148,1167,1187,1208,1228,1248,1267,1287,1308,1327,1347,1367,1388,1409,1427,1448,1469,1489,1508,1528,1548,1568,1589,1607,1627,1648,1667,1688,1707,1727,1748,1769,1789,1807,1828,1847,1867,1888,1907,1928,1948,1968,1988,2007,2027,2048],"xSR":741.5,"ySR":469.95,"xT1":424.9,"yT1":0,"xT2":1058.1,"yT2":0,"toosoon":0,"cond_shown":"Incongruent","ratio_trial":300,"L_num":3,"L_den":6,"R_num":4,"R_den":20,"correct_side":1,"subjID":"JuanDiegoBeltranVillegas36","gender":"0","school":"6","age":"12"},{"start_time":1551794139124,"click_time":1551794140873,"finger_time":1551794140652,"fix_duration":250,"trial":45,"RT":1528,"MT":221,"sideResp":1,"stimulus":[],"xmouse":[816,816,816,816,816,816,816,816,816,816,816,816,816,816,816,816,816,816,816,816,816,816,816,816,816,816,816,816,816,816,816,816,816,816,816,816,816,816,816,816,816,816,816,816,816,816,816,816,816,816,816,816,816,816,816,816,816,816,816,816,816,816,816,816,816,816,816,816,816,816,816,816,810,793,771,750,735,723,678,654,626,595,561,504,484,467,454,433],"ymouse":[521,521,521,521,521,521,521,521,521,521,521,521,521,521,521,521,521,521,521,521,521,521,521,521,521,521,521,521,521,521,521,521,521,521,521,521,521,521,521,521,521,521,521,521,521,521,521,521,521,521,521,521,521,521,521,521,521,521,521,521,521,521,521,521,521,521,521,521,521,521,521,521,520,507,492,473,458,441,383,354,322,284,246,179,155,132,113,79],"timestamp_mouse":[11,34,48,68,88,108,129,149,169,188,209,228,249,268,288,310,328,349,368,389,409,429,448,469,489,508,528,550,569,590,608,630,648,668,689,708,728,750,768,788,808,829,848,869,888,910,929,949,970,989,1009,1030,1049,1068,1088,1109,1129,1148,1169,1189,1209,1229,1248,1269,1290,1309,1328,1349,1369,1390,1408,1428,1449,1469,1488,1508,1528,1548,1568,1589,1610,1628,1648,1669,1689,1710,1728,1749],"xSR":741.5,"ySR":469.95,"xT1":424.9,"yT1":0,"xT2":1058.1,"yT2":0,"toosoon":0,"cond_shown":"Incongruent","ratio_trial":200,"L_num":7,"L_den":10,"R_num":14,"R_den":28,"correct_side":1,"subjID":"JuanDiegoBeltranVillegas36","gender":"0","school":"6","age":"12"},{"start_time":1551794142943,"click_time":1551794144573,"finger_time":1551794144073,"fix_duration":1048.4076814319026,"trial":46,"RT":1130,"MT":500,"sideResp":2,"stimulus":[],"xmouse":[779,779,779,779,779,779,779,779,779,779,779,779,779,779,779,779,779,779,779,779,779,779,779,779,779,779,779,779,779,779,779,779,779,779,779,779,779,779,779,779,779,779,779,779,779,779,779,779,779,779,779,779,779,781,785,799,822,833,835,836,839,844,867,881,898,914,929,962,967,972,976,980,987,992,996,1002,1011,1038,1045,1052,1057,1062],"ymouse":[501,501,501,501,501,501,501,501,501,501,501,501,501,501,501,501,501,501,501,501,501,501,501,501,501,501,501,501,501,501,501,501,501,501,501,501,501,501,501,501,501,501,501,501,501,501,501,501,501,501,501,501,501,501,500,487,468,457,453,448,440,430,395,375,349,320,292,231,211,195,183,174,160,153,143,128,113,78,71,62,58,54],"timestamp_mouse":[11,33,49,69,89,109,129,149,169,191,209,230,250,270,289,310,331,349,369,390,409,430,451,469,489,510,531,549,569,590,609,630,649,669,690,710,730,750,771,789,809,830,849,869,889,909,929,950,971,990,1011,1029,1050,1071,1090,1110,1130,1149,1170,1189,1209,1229,1249,1270,1289,1309,1329,1349,1369,1390,1410,1429,1449,1469,1489,1510,1529,1549,1570,1590,1610,1630],"xSR":741.5,"ySR":469.95,"xT1":424.9,"yT1":0,"xT2":1058.1,"yT2":0,"toosoon":0,"cond_shown":"Incongruent","ratio_trial":100,"L_num":2,"L_den":4,"R_num":8,"R_den":20,"correct_side":1,"subjID":"JuanDiegoBeltranVillegas36","gender":"0","school":"6","age":"12"},{"start_time":1551794148916,"click_time":1551794150534,"finger_time":1551794150293,"fix_duration":541.8244407117937,"trial":47,"RT":1377,"MT":241,"sideResp":1,"stimulus":[],"xmouse":[782,782,782,782,782,782,782,782,782,782,782,782,782,782,782,782,782,782,782,782,782,782,782,782,782,782,782,782,782,782,782,782,782,782,782,782,782,782,782,782,782,782,782,782,782,782,782,782,782,782,782,782,782,782,782,782,782,782,782,782,782,782,782,782,782,782,778,770,717,697,679,658,639,604,590,579,569,557,531,526,523],"ymouse":[512,512,512,512,512,512,512,512,512,512,512,512,512,512,512,512,512,512,512,512,512,512,512,512,512,512,512,512,512,512,512,512,512,512,512,512,512,512,512,512,512,512,512,512,512,512,512,512,512,512,512,512,512,512,512,512,512,512,512,512,512,512,512,512,512,512,507,496,410,364,319,275,234,177,156,141,126,113,83,78,77],"timestamp_mouse":[17,38,57,77,96,116,137,156,176,196,216,236,256,276,297,317,338,357,377,396,416,436,458,476,497,516,536,556,576,596,617,636,656,676,696,716,736,757,777,796,817,837,857,876,896,917,937,956,977,997,1017,1038,1056,1077,1097,1116,1138,1156,1176,1198,1217,1236,1256,1277,1296,1316,1338,1357,1377,1397,1418,1436,1456,1477,1496,1518,1537,1557,1576,1596,1618],"xSR":741.5,"ySR":469.95,"xT1":424.9,"yT1":0,"xT2":1058.1,"yT2":0,"toosoon":0,"cond_shown":"Congruent","ratio_trial":200,"L_num":11,"L_den":22,"R_num":3,"R_den":10,"correct_side":1,"subjID":"JuanDiegoBeltranVillegas36","gender":"0","school":"6","age":"12"},{"start_time":1551794155360,"click_time":1551794156892,"finger_time":1551794156453,"fix_duration":1207.676058461622,"trial":48,"RT":1093,"MT":439,"sideResp":2,"stimulus":[],"xmouse":[796,796,796,796,796,796,796,796,796,796,796,796,796,796,796,796,796,796,796,796,796,796,796,796,796,796,796,796,796,796,796,796,796,796,796,796,796,796,796,796,796,796,796,796,796,796,796,796,796,796,796,796,800,811,831,860,921,933,942,949,956,973,979,985,991,995,1003,1004,1006,1008,1011,1023,1031,1037,1045,1054,1075],"ymouse":[527,527,527,527,527,527,527,527,527,527,527,527,527,527,527,527,527,527,527,527,527,527,527,527,527,527,527,527,527,527,527,527,527,527,527,527,527,527,527,527,527,527,527,527,527,527,527,527,527,527,527,524,506,482,445,406,317,295,276,259,242,214,202,189,179,169,150,146,142,138,132,118,111,104,94,85,64],"timestamp_mouse":[13,32,52,72,93,114,133,153,172,193,214,232,252,272,292,312,333,352,373,393,413,432,452,472,492,514,533,552,573,593,612,632,652,673,692,712,733,752,773,794,812,832,853,873,893,913,932,953,972,992,1014,1033,1053,1073,1093,1113,1132,1153,1173,1192,1212,1232,1252,1272,1293,1312,1332,1352,1372,1394,1412,1432,1452,1472,1494,1512,1532],"xSR":741.5,"ySR":469.95,"xT1":424.9,"yT1":0,"xT2":1058.1,"yT2":0,"toosoon":0,"cond_shown":"Incongruent","ratio_trial":300,"L_num":4,"L_den":20,"R_num":2,"R_den":4,"correct_side":2,"subjID":"JuanDiegoBeltranVillegas36","gender":"0","school":"6","age":"12"},{"start_time":1551794160881,"click_time":1551794162473,"finger_time":1551794162073,"fix_duration":1327.8228355466063,"trial":49,"RT":1192,"MT":400,"sideResp":1,"stimulus":[],"xmouse":[787,787,787,787,787,787,787,787,787,787,787,787,787,787,787,787,787,787,787,787,787,787,787,787,787,787,787,787,787,787,787,787,787,787,787,787,787,787,787,787,787,787,787,787,787,787,787,787,787,787,787,787,787,786,784,777,770,763,757,748,724,712,699,686,675,655,646,638,629,608,592,580,570,561,554,539,528,517,505,493],"ymouse":[533,533,533,533,533,533,533,533,533,533,533,533,533,533,533,533,533,533,533,533,533,533,533,533,533,533,533,533,533,533,533,533,533,533,533,533,533,533,533,533,533,533,533,533,533,533,533,533,533,533,533,533,533,528,525,513,501,487,470,449,399,377,356,337,321,294,281,270,259,237,221,210,198,184,171,145,131,119,106,92],"timestamp_mouse":[19,43,51,73,92,112,131,152,173,191,212,231,251,272,293,311,333,351,371,391,411,432,451,471,493,512,532,553,571,593,611,631,653,671,692,712,733,751,773,792,812,831,851,872,891,911,932,952,972,991,1011,1032,1051,1072,1092,1112,1132,1151,1171,1192,1211,1231,1252,1271,1291,1312,1331,1353,1371,1392,1411,1432,1451,1471,1491,1512,1531,1551,1571,1592],"xSR":741.5,"ySR":469.95,"xT1":424.9,"yT1":0,"xT2":1058.1,"yT2":0,"toosoon":0,"cond_shown":"Congruent","ratio_trial":200,"L_num":12,"L_den":20,"R_num":6,"R_den":15,"correct_side":1,"subjID":"JuanDiegoBeltranVillegas36","gender":"0","school":"6","age":"12"},{"start_time":1551794164749,"click_time":1551794165773,"finger_time":1551794165612,"fix_duration":1374.8709522499475,"trial":50,"RT":863,"MT":161,"sideResp":2,"stimulus":[],"xmouse":[794,794,794,794,794,794,794,794,794,794,794,794,795,804,806,808,808,808,808,808,808,808,808,808,808,808,808,808,808,808,808,808,808,808,808,808,808,808,808,808,808,818,837,862,892,923,967,1001,1029,1064,1111,1153],"ymouse":[559,559,559,559,559,559,559,559,559,559,559,559,559,559,559,559,559,559,559,559,559,559,559,559,559,559,559,559,559,559,559,559,559,559,559,559,559,559,559,559,559,540,503,468,428,393,329,278,239,194,140,94],"timestamp_mouse":[11,23,43,64,83,104,124,143,165,183,203,223,244,263,284,305,323,344,363,383,404,425,443,463,485,503,524,544,563,583,605,624,644,663,684,704,724,743,763,784,803,824,844,863,883,904,924,944,964,983,1004,1024],"xSR":741.5,"ySR":469.95,"xT1":424.9,"yT1":0,"xT2":1058.1,"yT2":0,"toosoon":0,"cond_shown":"Congruent","ratio_trial":100,"L_num":6,"L_den":20,"R_num":5,"R_den":25,"correct_side":1,"subjID":"JuanDiegoBeltranVillegas36","gender":"0","school":"6","age":"12"},{"start_time":1551794168429,"click_time":1551794170392,"finger_time":1551794168492,"fix_duration":353.35228531295826,"trial":51,"RT":63,"MT":1900,"sideResp":1,"stimulus":[],"xmouse":[771,756,756,741,741,741,741,738,732,729,728,728,728,728,728,728,728,728,728,728,728,730,734,751,760,765,770,773,778,780,782,782,782,782,782,782,782,782,782,782,782,782,782,782,782,782,782,782,782,782,782,782,782,782,782,782,782,782,782,782,782,782,782,782,782,782,782,782,782,782,782,782,782,761,716,662,607,552,464,437,417,408,399,399,399,399,399,399,400,400,400,400,403,405,408,413,418,424,430],"ymouse":[541,538,538,536,536,535,535,528,504,498,496,496,496,496,496,496,496,496,496,496,496,496,497,504,507,509,511,512,514,515,516,516,516,516,516,516,516,516,516,516,516,516,516,516,516,516,516,516,516,516,516,516,516,516,516,516,516,516,516,516,516,516,516,516,516,516,516,516,516,516,516,516,516,505,472,427,372,316,193,138,97,75,55,53,53,53,52,50,50,50,50,50,49,48,47,45,44,42,40],"timestamp_mouse":[4,33,44,63,83,105,123,144,164,184,204,223,243,263,283,303,324,343,363,384,403,423,443,463,484,504,523,544,563,584,604,625,644,663,683,703,723,744,763,783,803,824,844,864,883,904,924,943,963,983,1005,1024,1043,1065,1084,1103,1123,1143,1165,1184,1203,1223,1243,1263,1284,1305,1323,1343,1364,1383,1403,1423,1444,1464,1483,1503,1523,1543,1564,1584,1603,1624,1645,1663,1683,1703,1723,1744,1763,1783,1803,1823,1844,1863,1883,1903,1924,1944,1963],"xSR":741.5,"ySR":469.95,"xT1":424.9,"yT1":0,"xT2":1058.1,"yT2":0,"toosoon":0,"cond_shown":"Incongruent","ratio_trial":200,"L_num":1,"L_den":2,"R_num":3,"R_den":10,"correct_side":1,"subjID":"JuanDiegoBeltranVillegas36","gender":"0","school":"6","age":"12"},{"start_time":1551794173357,"click_time":1551794174892,"finger_time":1551794174153,"fix_duration":1423.2167853426608,"trial":52,"RT":796,"MT":739,"sideResp":1,"stimulus":[],"xmouse":[796,796,796,796,796,796,796,796,796,796,796,796,796,796,796,796,796,796,796,796,796,796,796,796,796,796,796,796,796,796,796,796,796,796,796,796,796,796,789,778,771,759,751,744,739,738,736,736,735,729,722,701,688,678,671,666,658,656,654,652,650,646,643,639,635,629,611,605,597,587,575,557,546,539,531,527,518],"ymouse":[513,513,513,513,513,513,513,513,513,513,513,513,513,513,513,513,513,513,513,513,513,513,513,513,513,513,513,513,513,513,513,513,513,513,513,513,513,512,484,457,439,408,391,378,369,368,367,367,366,354,337,295,273,256,242,235,220,213,208,203,198,192,187,179,172,162,133,121,109,94,78,54,41,32,24,19,13],"timestamp_mouse":[17,39,56,75,96,116,135,155,176,196,216,236,255,275,297,315,337,356,375,397,415,436,457,475,496,516,536,555,576,596,615,636,655,676,697,717,735,755,777,796,815,835,855,876,897,916,935,955,975,996,1015,1036,1056,1076,1096,1116,1136,1155,1176,1196,1216,1236,1256,1276,1295,1316,1335,1355,1375,1396,1415,1435,1456,1475,1495,1515,1535],"xSR":741.5,"ySR":469.95,"xT1":424.9,"yT1":0,"xT2":1058.1,"yT2":0,"toosoon":0,"cond_shown":"Congruent","ratio_trial":300,"L_num":20,"L_den":25,"R_num":8,"R_den":16,"correct_side":1,"subjID":"JuanDiegoBeltranVillegas36","gender":"0","school":"6","age":"12"},{"start_time":1551794177359,"click_time":1551794179012,"finger_time":1551794178233,"fix_duration":1486.9013787774586,"trial":53,"RT":874,"MT":779,"sideResp":1,"stimulus":[],"xmouse":[758,758,758,758,758,758,758,758,758,758,758,758,758,758,758,758,758,758,758,758,758,758,758,758,758,7