[{"start_time":1551794546055,"click_time":1551794549399,"finger_time":1551794546060,"fix_duration":251.50039660244482,"trial":0,"RT":5,"MT":3339,"sideResp":1,"stimulus":"img/900/equaldotanddens/R/14_Ratio_900_L_18_R_20.png","xmouse":[784,784,784,784,784,784,784,784,784,784,784,784,784,784,784,784,784,784,784,784,784,784,784,784,784,784,784,784,783,783,783,783,783,783,783,783,783,783,783,783,783,783,783,783,783,783,783,783,783,783,783,783,783,783,783,783,783,783,783,783,783,783,783,783,783,783,783,783,783,783,783,783,783,783,783,783,783,783,783,783,783,783,783,783,783,783,783,783,783,783,783,783,783,783,783,783,783,783,783,783,783,783,783,783,783,783,783,783,783,783,783,783,783,783,783,783,783,783,783,783,783,783,783,783,783,783,783,783,783,783,783,783,783,783,783,783,783,783,783,783,783,783,783,783,783,783,781,774,765,754,727,715,700,690,681,670,665,661,655,650,633,616,604,589,573,540,526,512],"ymouse":[573,573,573,573,573,573,573,573,573,573,573,573,573,573,573,573,573,573,573,573,573,573,573,573,573,573,573,573,573,573,554,549,548,548,548,548,548,547,546,546,546,546,546,546,546,546,546,546,546,546,546,544,542,541,541,541,541,541,541,541,541,541,541,541,541,541,541,541,541,541,541,541,541,541,541,541,541,541,541,541,541,541,541,541,541,541,541,541,541,541,541,541,541,541,541,541,541,541,541,541,541,541,541,541,541,541,541,541,541,541,541,541,541,541,541,541,541,541,541,541,541,541,541,541,541,541,541,541,541,541,541,541,541,541,541,541,541,541,541,541,541,541,541,541,535,522,507,490,468,445,395,370,340,326,313,299,295,291,285,277,244,205,178,154,134,94,77,63],"timestamp_mouse":[4,23,43,63,84,104,123,143,164,183,203,223,243,264,283,303,323,344,363,384,403,425,443,463,484,504,524,543,563,583,604,624,643,664,685,704,723,744,763,783,803,823,844,865,884,903,923,943,964,983,1003,1023,1043,1063,1083,1104,1125,1143,1164,1183,1204,1224,1245,1263,1284,1303,1324,1344,1363,1383,1404,1424,1444,1463,1483,1503,1523,1544,1564,1584,1604,1623,1644,1663,1684,1703,1725,1744,1764,1784,1803,1823,1845,1865,1883,1904,1924,1944,1964,1983,2003,2025,2044,2063,2083,2103,2123,2143,2164,2184,2204,2224,2243,2263,2284,2304,2323,2343,2363,2383,2403,2423,2444,2464,2483,2504,2523,2544,2563,2583,2603,2624,2644,2663,2684,2704,2724,2744,2764,2783,2804,2825,2844,2864,2883,2903,2923,2945,2963,2984,3003,3023,3044,3063,3083,3103,3123,3143,3164,3183,3203,3223,3244,3264,3283,3303,3323,3344],"xSR":741.5,"ySR":501.8,"xT1":424.9,"yT1":0,"xT2":1058.1,"yT2":0,"toosoon":0,"cond_shown":"equaldotanddens","ratio_trial":900,"smaller_num":"18","larger_num":"20","correct_side":2,"subjID":"JuanDiegoBeltranVILLEGAS36","gender":"0","age":"12","school":"6","test":{"fix_dur":[250,1500],"timestim":300,"targets_dim":[100,100],"targets_relative_coord":[0.3,0.7],"size_stim":[880,420],"start_dim":[100,100],"size_start":[300,300],"size_fix":60,"samplingrate":20,"img_types":["equaldotsize","equaldotanddens","randomdotsizeEA"],"ratios":[250,500,750,900],"rep_conds":9,"nTrials":120,"trials_to_rest":500,"Trials_order":[34,119,55,41,4,75,108,32,56,61,81,35,8,78,15,62,1,114,115,100,43,63,90,22,69,49,58,83,47,26,21,40,51,65,70,105,107,37,57,118,6,66,52,80,82,87,112,96,95,76,77,85,25,16,91,99,28,27,23,54,30,73,113,31,44,88,103,33,116,20,60,14,72,39,110,84,94,12,2,74,59,0,29,53,42,18,13,38,64,7,9,3,11,67,106,50,71,117,79,111,19,102,5,104,17,86,45,89,68,92,48,109,97,10,36,98,46,93,101,24],"cond_shown":["equaldotanddens","randomdotsizeEA","equaldotanddens","randomdotsizeEA","equaldotanddens","equaldotsize","equaldotsize","randomdotsizeEA","randomdotsizeEA","equaldotanddens","equaldotsize","randomdotsizeEA","randomdotsizeEA","equaldotsize","equaldotsize","randomdotsizeEA","equaldotanddens","equaldotsize","equaldotanddens","equaldotanddens","equaldotanddens","equaldotsize","equaldotsize","equaldotanddens","equaldotsize","equaldotanddens","equaldotanddens","randomdotsizeEA","randomdotsizeEA","randomdotsizeEA","equaldotsize","equaldotanddens","equaldotsize","randomdotsizeEA","equaldotanddens","equaldotsize","randomdotsizeEA","equaldotanddens","equaldotsize","equaldotanddens","equaldotsize","equaldotsize","equaldotanddens","randomdotsizeEA","equaldotanddens","equaldotsize","equaldotanddens","equaldotsize","randomdotsizeEA","equaldotanddens","randomdotsizeEA","equaldotanddens","equaldotanddens","equaldotanddens","equaldotanddens","equaldotsize","equaldotanddens","equaldotsize","randomdotsizeEA","equaldotsize","equaldotsize","equaldotanddens","randomdotsizeEA","equaldotanddens","randomdotsizeEA","equaldotanddens","equaldotanddens","equaldotsize","randomdotsizeEA","randomdotsizeEA","equaldotsize","randomdotsizeEA","equaldotsize","equaldotsize","randomdotsizeEA","equaldotsize","equaldotanddens","equaldotsize","randomdotsizeEA","randomdotsizeEA","randomdotsizeEA","equaldotsize","randomdotsizeEA","randomdotsizeEA","equaldotsize","equaldotsize","equaldotanddens","randomdotsizeEA","equaldotanddens","equaldotanddens","equaldotsize","equaldotsize","randomdotsizeEA","equaldotanddens","equaldotanddens","randomdotsizeEA","randomdotsizeEA","equaldotsize","equaldotanddens","equaldotsize","equaldotanddens","equaldotsize","randomdotsizeEA","randomdotsizeEA","randomdotsizeEA","randomdotsizeEA","equaldotsize","randomdotsizeEA","randomdotsizeEA","randomdotsizeEA","equaldotsize","equaldotanddens","equaldotanddens","equaldotanddens","equaldotsize","randomdotsizeEA","equaldotanddens","equaldotsize","randomdotsizeEA","equaldotsize"],"ratio_trial":[900,900,750,500,500,500,250,750,750,250,900,900,750,750,500,250,250,750,750,500,750,500,750,900,900,250,900,900,900,250,900,500,500,500,900,900,900,250,900,900,750,750,500,750,900,500,500,250,900,500,500,250,250,500,750,500,500,500,900,750,750,250,500,750,750,500,750,900,750,750,250,250,250,500,250,250,900,250,250,250,900,250,500,500,750,750,250,250,500,750,900,500,900,750,900,250,900,900,750,500,750,750,500,750,500,250,900,500,750,750,250,250,250,900,250,250,900,900,500,250],"smaller_num":["18","9","15","6","4","5","3","15","6","2","18","18","3","15","6","4","2","6","9","3","3","9","6","9","18","2","18","9","18","2","18","1","4","6","18","18","18","3","9","18","3","3","3","18","18","6","1","2","9","5","4","1","3","1","18","10","5","9","9","9","6","2","6","3","3","2","12","9","3","9","2","2","4","2","3","3","18","3","2","3","18","6","3","1","3","3","3","3","10","9","9","6","18","6","18","3","18","18","15","2","15","6","3","6","2","6","18","9","12","3","3","3","1","18","3","3","18","9","3","1"],"larger_num":["20","10","20","12","8","10","12","20","8","8","20","20","4","20","12","16","8","8","12","6","4","18","8","10","20","8","20","10","20","8","20","2","8","12","20","20","20","12","10","20","4","4","6","24","20","12","2","8","10","10","8","4","12","2","24","20","10","18","10","12","8","8","12","4","4","4","16","10","4","12","8","8","16","4","12","12","20","12","8","12","20","24","6","2","4","4","12","12","20","12","10","12","20","8","20","12","20","20","20","4","20","8","6","8","4","24","20","18","16","4","12","12","4","20","12","12","20","10","6","4"],"correct_side":[2,2,2,1,1,1,2,2,2,2,2,1,1,2,1,1,2,1,2,2,2,2,1,1,1,2,1,2,1,2,1,2,1,1,1,1,2,1,2,2,1,2,2,1,2,1,2,2,2,2,1,2,2,2,1,2,1,1,2,2,2,1,1,2,1,1,2,1,1,2,1,1,1,1,2,1,2,1,1,1,1,1,2,2,1,1,2,1,2,2,1,1,1,1,1,1,1,2,2,2,2,1,2,2,1,1,1,2,2,1,2,2,2,2,2,1,2,2,2,2],"img_shown":["img/900/equaldotanddens/R/14_Ratio_900_L_18_R_20.png","img/900/randomdotsizeEA/R/6_Ratio_900_L_9_R_10.png","img/750/equaldotanddens/R/3_Ratio_750_L_15_R_20.png","img/500/randomdotsizeEA/L/11_Ratio_500_L_12_R_6.png","img/500/equaldotanddens/L/8_Ratio_500_L_8_R_4.png","img/500/equaldotsize/L/7_Ratio_500_L_10_R_5.png","img/250/equaldotsize/R/9_Ratio_250_L_3_R_12.png","img/750/randomdotsizeEA/R/5_Ratio_750_L_15_R_20.png","img/750/randomdotsizeEA/R/2_Ratio_750_L_6_R_8.png","img/250/equaldotanddens/R/13_Ratio_250_L_2_R_8.png","img/900/equaldotsize/R/9_Ratio_900_L_18_R_20.png","img/900/randomdotsizeEA/L/8_Ratio_900_L_20_R_18.png","img/750/randomdotsizeEA/L/8_Ratio_750_L_4_R_3.png","img/750/equaldotsize/R/4_Ratio_750_L_15_R_20.png","img/500/equaldotsize/L/13_Ratio_500_L_12_R_6.png","img/250/randomdotsizeEA/L/2_Ratio_250_L_16_R_4.png","img/250/equaldotanddens/R/13_Ratio_250_L_2_R_8.png","img/750/equaldotsize/L/14_Ratio_750_L_8_R_6.png","img/750/equaldotanddens/R/15_Ratio_750_L_9_R_12.png","img/500/equaldotanddens/R/2_Ratio_500_L_3_R_6.png","img/750/equaldotanddens/R/7_Ratio_750_L_3_R_4.png","img/500/equaldotsize/R/1_Ratio_500_L_9_R_18.png","img/750/equaldotsize/L/13_Ratio_750_L_8_R_6.png","img/900/equaldotanddens/L/1_Ratio_900_L_10_R_9.png","img/900/equaldotsize/L/8_Ratio_900_L_20_R_18.png","img/250/equaldotanddens/R/13_Ratio_250_L_2_R_8.png","img/900/equaldotanddens/L/8_Ratio_900_L_20_R_18.png","img/900/randomdotsizeEA/R/7_Ratio_900_L_9_R_10.png","img/900/randomdotsizeEA/L/4_Ratio_900_L_20_R_18.png","img/250/randomdotsizeEA/R/13_Ratio_250_L_2_R_8.png","img/900/equaldotsize/L/8_Ratio_900_L_20_R_18.png","img/500/equaldotanddens/R/15_Ratio_500_L_1_R_2.png","img/500/equaldotsize/L/8_Ratio_500_L_8_R_4.png","img/500/randomdotsizeEA/L/11_Ratio_500_L_12_R_6.png","img/900/equaldotanddens/L/4_Ratio_900_L_20_R_18.png","img/900/equaldotsize/L/10_Ratio_900_L_20_R_18.png","img/900/randomdotsizeEA/R/11_Ratio_900_L_18_R_20.png","img/250/equaldotanddens/L/15_Ratio_250_L_12_R_3.png","img/900/equaldotsize/R/3_Ratio_900_L_9_R_10.png","img/900/equaldotanddens/R/12_Ratio_900_L_18_R_20.png","img/750/equaldotsize/L/9_Ratio_750_L_4_R_3.png","img/750/equaldotsize/R/7_Ratio_750_L_3_R_4.png","img/500/equaldotanddens/R/2_Ratio_500_L_3_R_6.png","img/750/randomdotsizeEA/L/6_Ratio_750_L_24_R_18.png","img/900/equaldotanddens/R/11_Ratio_900_L_18_R_20.png","img/500/equaldotsize/L/11_Ratio_500_L_12_R_6.png","img/500/equaldotanddens/R/12_Ratio_500_L_1_R_2.png","img/250/equaldotsize/R/13_Ratio_250_L_2_R_8.png","img/900/randomdotsizeEA/R/7_Ratio_900_L_9_R_10.png","img/500/equaldotanddens/R/14_Ratio_500_L_5_R_10.png","img/500/randomdotsizeEA/L/8_Ratio_500_L_8_R_4.png","img/250/equaldotanddens/R/8_Ratio_250_L_1_R_4.png","img/250/equaldotanddens/R/11_Ratio_250_L_3_R_12.png","img/500/equaldotanddens/R/12_Ratio_500_L_1_R_2.png","img/750/equaldotanddens/L/6_Ratio_750_L_24_R_18.png","img/500/equaldotsize/R/3_Ratio_500_L_10_R_20.png","img/500/equaldotanddens/L/7_Ratio_500_L_10_R_5.png","img/500/equaldotsize/L/4_Ratio_500_L_18_R_9.png","img/900/randomdotsizeEA/R/3_Ratio_900_L_9_R_10.png","img/750/equaldotsize/R/15_Ratio_750_L_9_R_12.png","img/750/equaldotsize/R/2_Ratio_750_L_6_R_8.png","img/250/equaldotanddens/L/1_Ratio_250_L_8_R_2.png","img/500/randomdotsizeEA/L/11_Ratio_500_L_12_R_6.png","img/750/equaldotanddens/R/12_Ratio_750_L_3_R_4.png","img/750/randomdotsizeEA/L/8_Ratio_750_L_4_R_3.png","img/500/equaldotanddens/L/10_Ratio_500_L_4_R_2.png","img/750/equaldotanddens/R/11_Ratio_750_L_12_R_16.png","img/900/equaldotsize/L/1_Ratio_900_L_10_R_9.png","img/750/randomdotsizeEA/L/9_Ratio_750_L_4_R_3.png","img/750/randomdotsizeEA/R/15_Ratio_750_L_9_R_12.png","img/250/equaldotsize/L/7_Ratio_250_L_8_R_2.png","img/250/randomdotsizeEA/L/7_Ratio_250_L_8_R_2.png","img/250/equaldotsize/L/2_Ratio_250_L_16_R_4.png","img/500/equaldotsize/L/5_Ratio_500_L_4_R_2.png","img/250/randomdotsizeEA/R/9_Ratio_250_L_3_R_12.png","img/250/equaldotsize/L/14_Ratio_250_L_12_R_3.png","img/900/equaldotanddens/R/14_Ratio_900_L_18_R_20.png","img/250/equaldotsize/L/14_Ratio_250_L_12_R_3.png","img/250/randomdotsizeEA/L/7_Ratio_250_L_8_R_2.png","img/250/randomdotsizeEA/L/15_Ratio_250_L_12_R_3.png","img/900/randomdotsizeEA/L/2_Ratio_900_L_20_R_18.png","img/250/equaldotsize/L/5_Ratio_250_L_24_R_6.png","img/500/randomdotsizeEA/R/2_Ratio_500_L_3_R_6.png","img/500/randomdotsizeEA/R/15_Ratio_500_L_1_R_2.png","img/750/equaldotsize/L/9_Ratio_750_L_4_R_3.png","img/750/equaldotsize/L/9_Ratio_750_L_4_R_3.png","img/250/equaldotanddens/R/9_Ratio_250_L_3_R_12.png","img/250/randomdotsizeEA/L/14_Ratio_250_L_12_R_3.png","img/500/equaldotanddens/R/3_Ratio_500_L_10_R_20.png","img/750/equaldotanddens/R/15_Ratio_750_L_9_R_12.png","img/900/equaldotsize/L/1_Ratio_900_L_10_R_9.png","img/500/equaldotsize/L/13_Ratio_500_L_12_R_6.png","img/900/randomdotsizeEA/L/2_Ratio_900_L_20_R_18.png","img/750/equaldotanddens/L/13_Ratio_750_L_8_R_6.png","img/900/equaldotanddens/L/8_Ratio_900_L_20_R_18.png","img/250/randomdotsizeEA/L/15_Ratio_250_L_12_R_3.png","img/900/randomdotsizeEA/L/2_Ratio_900_L_20_R_18.png","img/900/equaldotsize/R/11_Ratio_900_L_18_R_20.png","img/750/equaldotanddens/R/5_Ratio_750_L_15_R_20.png","img/500/equaldotsize/R/9_Ratio_500_L_2_R_4.png","img/750/equaldotanddens/R/4_Ratio_750_L_15_R_20.png","img/750/equaldotsize/L/14_Ratio_750_L_8_R_6.png","img/500/randomdotsizeEA/R/2_Ratio_500_L_3_R_6.png","img/750/randomdotsizeEA/R/2_Ratio_750_L_6_R_8.png","img/500/randomdotsizeEA/L/5_Ratio_500_L_4_R_2.png","img/250/randomdotsizeEA/L/5_Ratio_250_L_24_R_6.png","img/900/equaldotsize/L/10_Ratio_900_L_20_R_18.png","img/500/randomdotsizeEA/R/6_Ratio_500_L_9_R_18.png","img/750/randomdotsizeEA/R/11_Ratio_750_L_12_R_16.png","img/750/randomdotsizeEA/L/8_Ratio_750_L_4_R_3.png","img/250/equaldotsize/R/4_Ratio_250_L_3_R_12.png","img/250/equaldotanddens/R/11_Ratio_250_L_3_R_12.png","img/250/equaldotanddens/R/8_Ratio_250_L_1_R_4.png","img/900/equaldotanddens/R/11_Ratio_900_L_18_R_20.png","img/250/equaldotsize/R/4_Ratio_250_L_3_R_12.png","img/250/randomdotsizeEA/L/14_Ratio_250_L_12_R_3.png","img/900/equaldotanddens/R/12_Ratio_900_L_18_R_20.png","img/900/equaldotsize/R/7_Ratio_900_L_9_R_10.png","img/500/randomdotsizeEA/R/2_Ratio_500_L_3_R_6.png","img/250/equaldotsize/R/8_Ratio_250_L_1_R_4.png"],"Rat0":[["12_Ratio_0_L_9_R_0.png","13_Ratio_0_L_6_R_0.png","5_Ratio_0_L_2_R_0.png","6_Ratio_0_L_4_R_0.png","8_Ratio_0_L_6_R_0.png"],["1_Ratio_0_L_0_R_17.png","10_Ratio_0_L_0_R_22.png","11_Ratio_0_L_0_R_1.png","14_Ratio_0_L_0_R_24.png","15_Ratio_0_L_0_R_4.png","2_Ratio_0_L_0_R_5.png","3_Ratio_0_L_0_R_17.png","4_Ratio_0_L_0_R_7.png","7_Ratio_0_L_0_R_19.png","9_Ratio_0_L_0_R_15.png"]],"Rat250":[["1_Ratio_250_L_8_R_2.png","14_Ratio_250_L_12_R_3.png","15_Ratio_250_L_12_R_3.png","2_Ratio_250_L_16_R_4.png","3_Ratio_250_L_8_R_2.png","5_Ratio_250_L_24_R_6.png","7_Ratio_250_L_8_R_2.png"],["10_Ratio_250_L_4_R_16.png","11_Ratio_250_L_3_R_12.png","12_Ratio_250_L_5_R_20.png","13_Ratio_250_L_2_R_8.png","4_Ratio_250_L_3_R_12.png","6_Ratio_250_L_6_R_24.png","8_Ratio_250_L_1_R_4.png","9_Ratio_250_L_3_R_12.png"]],"Rat500":[["10_Ratio_500_L_4_R_2.png","11_Ratio_500_L_12_R_6.png","13_Ratio_500_L_12_R_6.png","4_Ratio_500_L_18_R_9.png","5_Ratio_500_L_4_R_2.png","7_Ratio_500_L_10_R_5.png","8_Ratio_500_L_8_R_4.png"],["1_Ratio_500_L_9_R_18.png","12_Ratio_500_L_1_R_2.png","14_Ratio_500_L_5_R_10.png","15_Ratio_500_L_1_R_2.png","2_Ratio_500_L_3_R_6.png","3_Ratio_500_L_10_R_20.png","6_Ratio_500_L_9_R_18.png","9_Ratio_500_L_2_R_4.png"]],"Rat750":[["1_Ratio_750_L_20_R_15.png","10_Ratio_750_L_4_R_3.png","13_Ratio_750_L_8_R_6.png","14_Ratio_750_L_8_R_6.png","6_Ratio_750_L_24_R_18.png","8_Ratio_750_L_4_R_3.png","9_Ratio_750_L_4_R_3.png"],["11_Ratio_750_L_12_R_16.png","12_Ratio_750_L_3_R_4.png","15_Ratio_750_L_9_R_12.png","2_Ratio_750_L_6_R_8.png","3_Ratio_750_L_15_R_20.png","4_Ratio_750_L_15_R_20.png","5_Ratio_750_L_15_R_20.png","7_Ratio_750_L_3_R_4.png"]],"Rat900":[["1_Ratio_900_L_10_R_9.png","10_Ratio_900_L_20_R_18.png","2_Ratio_900_L_20_R_18.png","4_Ratio_900_L_20_R_18.png","8_Ratio_900_L_20_R_18.png"],["11_Ratio_900_L_18_R_20.png","12_Ratio_900_L_18_R_20.png","13_Ratio_900_L_18_R_20.png","14_Ratio_900_L_18_R_20.png","15_Ratio_900_L_9_R_10.png","3_Ratio_900_L_9_R_10.png","5_Ratio_900_L_9_R_10.png","6_Ratio_900_L_9_R_10.png","7_Ratio_900_L_9_R_10.png","9_Ratio_900_L_18_R_20.png"]],"Rat1000":[["10_Ratio_1000_L_16_R_16.png","11_Ratio_1000_L_6_R_6.png","12_Ratio_1000_L_14_R_14.png","13_Ratio_1000_L_20_R_20.png","15_Ratio_1000_L_15_R_15.png","2_Ratio_1000_L_17_R_17.png","4_Ratio_1000_L_9_R_9.png","5_Ratio_1000_L_6_R_6.png","6_Ratio_1000_L_19_R_19.png","8_Ratio_1000_L_14_R_14.png","9_Ratio_1000_L_25_R_25.png"],["1_Ratio_1000_L_1_R_1.png","14_Ratio_1000_L_17_R_17.png","3_Ratio_1000_L_17_R_17.png","7_Ratio_1000_L_6_R_6.png"]]}},{"start_time":1551794552065,"click_time":1551794553239,"finger_time":1551794552818,"fix_duration":1386.5420426888822,"trial":1,"RT":753,"MT":421,"sideResp":2,"stimulus":"img/900/randomdotsizeEA/R/6_Ratio_900_L_9_R_10.png","xmouse":[792,792,792,792,792,792,792,792,792,792,792,792,792,792,792,792,792,792,792,792,792,792,792,792,792,792,792,792,792,792,792,792,792,791,792,796,802,808,817,824,830,836,847,876,888,898,908,918,939,960,972,985,997,1020,1031,1044,1055,1064],"ymouse":[505,505,505,505,505,505,505,505,505,505,505,505,505,505,505,505,505,505,505,505,505,505,505,505,505,505,505,505,505,505,505,505,505,502,489,473,453,434,400,378,364,347,328,293,278,268,259,249,228,210,198,184,168,138,122,104,87,73],"timestamp_mouse":[14,53,74,93,113,133,154,173,193,213,234,253,273,293,313,333,353,374,393,413,433,454,474,493,513,533,554,574,594,613,633,654,673,693,713,733,753,774,793,813,833,854,873,893,913,933,954,973,993,1013,1033,1055,1073,1093,1114,1134,1153,1174],"xSR":741.5,"ySR":469.95,"xT1":424.9,"yT1":0,"xT2":1058.1,"yT2":0,"toosoon":0,"cond_shown":"randomdotsizeEA","ratio_trial":900,"smaller_num":"9","larger_num":"10","correct_side":2,"subjID":"JuanDiegoBeltranVILLEGAS36","gender":"0","age":"12","school":"6"},{"start_time":1551794555182,"click_time":1551794556219,"finger_time":1551794555778,"fix_duration":822.624258350507,"trial":2,"RT":596,"MT":441,"sideResp":2,"stimulus":"img/750/equaldotanddens/R/3_Ratio_750_L_15_R_20.png","xmouse":[812,812,812,812,812,812,812,812,812,812,812,812,812,812,812,812,812,812,812,812,812,812,812,812,812,812,812,811,821,839,855,872,883,896,901,904,906,909,915,919,921,923,923,924,931,945,961,982,1018,1032,1047,1060],"ymouse":[527,527,527,527,527,527,527,527,527,527,527,527,527,527,527,527,527,527,527,527,527,527,527,527,527,527,527,527,488,430,371,311,275,227,206,196,186,175,156,149,145,143,143,142,138,128,117,102,77,67,57,50],"timestamp_mouse":[23,40,56,76,96,117,137,156,176,197,216,237,257,278,298,316,338,357,376,397,416,437,457,478,496,517,537,556,576,596,617,636,656,676,697,716,736,756,776,796,816,837,856,876,898,917,936,956,977,996,1016,1036],"xSR":741.5,"ySR":469.95,"xT1":424.9,"yT1":0,"xT2":1058.1,"yT2":0,"toosoon":0,"cond_shown":"equaldotanddens","ratio_trial":750,"smaller_num":"15","larger_num":"20","correct_side":2,"subjID":"JuanDiegoBeltranVILLEGAS36","gender":"0","age":"12","school":"6"},{"start_time":1551794558454,"click_time":1551794559439,"finger_time":1551794559098,"fix_duration":1374.3173253908549,"trial":3,"RT":644,"MT":341,"sideResp":1,"stimulus":"img/500/randomdotsizeEA/L/11_Ratio_500_L_12_R_6.png","xmouse":[786,786,786,786,786,786,786,786,786,786,786,786,786,786,786,786,786,786,786,786,786,786,786,786,786,786,786,786,786,786,785,770,734,702,668,603,574,552,533,519,494,491,486,484,483,483,483,483,483,483],"ymouse":[523,523,523,523,523,523,523,523,523,523,523,523,523,523,523,523,523,523,523,523,523,523,523,523,523,523,523,523,523,523,523,513,488,462,433,375,347,318,295,274,235,229,212,199,188,164,149,132,114,97],"timestamp_mouse":[8,41,44,64,84,104,124,144,164,184,205,225,245,264,284,305,324,344,365,384,406,425,444,465,485,505,524,544,565,584,604,624,644,664,685,705,724,744,764,786,805,825,844,864,885,905,925,945,964,984],"xSR":741.5,"ySR":469.95,"xT1":424.9,"yT1":0,"xT2":1058.1,"yT2":0,"toosoon":0,"cond_shown":"randomdotsizeEA","ratio_trial":500,"smaller_num":"6","larger_num":"12","correct_side":1,"subjID":"JuanDiegoBeltranVILLEGAS36","gender":"0","age":"12","school":"6"},{"start_time":1551794561581,"click_time":1551794562798,"finger_time":1551794562178,"fix_duration":1020.3424902572352,"trial":4,"RT":597,"MT":620,"sideResp":1,"stimulus":"img/500/equaldotanddens/L/8_Ratio_500_L_8_R_4.png","xmouse":[785,785,785,785,785,785,785,785,785,785,785,785,785,785,785,785,785,785,785,785,785,785,785,785,785,785,785,785,782,760,721,682,645,603,584,577,572,566,555,549,544,539,537,536,536,536,536,536,533,530,528,526,525,520,515,512,509,508,507,506,503],"ymouse":[482,482,482,482,482,482,482,482,482,482,482,482,482,482,482,482,482,482,482,482,482,482,482,482,482,482,482,482,479,459,422,383,344,304,286,277,267,253,218,198,182,167,159,157,157,157,157,155,153,152,151,149,148,138,126,120,114,110,107,104,97],"timestamp_mouse":[17,40,59,79,99,118,138,158,178,199,217,238,258,277,299,318,337,358,377,399,419,438,458,477,497,517,538,558,577,597,618,637,658,677,698,718,737,757,777,798,818,838,857,877,898,917,938,957,978,997,1017,1037,1057,1077,1097,1117,1139,1157,1177,1198,1217],"xSR":741.5,"ySR":469.95,"xT1":424.9,"yT1":0,"xT2":1058.1,"yT2":0,"toosoon":0,"cond_shown":"equaldotanddens","ratio_trial":500,"smaller_num":"4","larger_num":"8","correct_side":1,"subjID":"JuanDiegoBeltranVILLEGAS36","gender":"0","age":"12","school":"6"},{"start_time":1551794564493,"click_time":1551794565720,"finger_time":1551794565198,"fix_duration":532.9016659160936,"trial":5,"RT":705,"MT":522,"sideResp":1,"stimulus":"img/500/equaldotsize/L/7_Ratio_500_L_10_R_5.png","xmouse":[788,788,788,788,788,788,788,788,788,788,788,788,788,788,788,788,788,788,788,788,788,788,788,788,788,788,788,788,788,788,786,776,764,748,742,737,733,727,710,694,683,667,650,625,616,606,591,577,568,560,553,546,543,543,542,542,542,541,537,529,520,508],"ymouse":[545,545,545,545,545,545,545,545,545,545,545,545,545,545,545,545,545,545,545,545,545,545,545,545,545,545,545,545,545,545,545,542,534,508,501,497,494,491,476,457,439,418,397,362,340,313,276,232,168,138,127,118,114,112,111,111,111,111,110,107,101,92],"timestamp_mouse":[9,25,48,65,85,105,126,145,165,185,205,225,245,265,287,305,325,345,365,386,406,425,447,465,485,506,525,547,566,585,606,626,645,666,686,705,725,747,765,786,805,826,846,865,886,906,925,946,965,985,1005,1026,1046,1065,1085,1106,1126,1145,1165,1187,1205,1227],"xSR":741.5,"ySR":469.95,"xT1":424.9,"yT1":0,"xT2":1058.1,"yT2":0,"toosoon":0,"cond_shown":"equaldotsize","ratio_trial":500,"smaller_num":"5","larger_num":"10","correct_side":1,"subjID":"JuanDiegoBeltranVILLEGAS36","gender":"0","age":"12","school":"6"},{"start_time":1551794568139,"click_time":1551794569558,"finger_time":1551794568759,"fix_duration":1478.163605960174,"trial":6,"RT":620,"MT":799,"sideResp":2,"stimulus":"img/250/equaldotsize/R/9_Ratio_250_L_3_R_12.png","xmouse":[811,811,811,811,811,811,811,811,811,811,811,811,811,811,811,811,811,811,811,811,811,811,811,811,811,811,811,811,811,814,822,851,879,904,921,931,939,948,957,969,981,999,1004,1008,1012,1017,1029,1036,1041,1044,1047,1050,1051,1051,1051,1051,1051,1051,1051,1051,1051,1051,1051,1051,1051,1051,1051,1051,1051,1051,1052,1063],"ymouse":[505,505,505,505,505,505,505,505,505,505,505,505,505,505,505,505,505,505,505,505,505,505,505,505,505,505,505,505,500,493,473,417,380,350,330,317,298,282,266,248,230,199,188,174,159,142,110,91,81,74,67,59,59,59,59,59,59,59,59,59,59,59,59,59,59,59,59,59,59,59,58,53],"timestamp_mouse":[1,32,39,60,79,100,119,140,161,179,200,220,241,259,279,300,319,341,359,380,399,420,440,459,480,499,519,540,560,579,600,620,639,660,680,701,720,740,759,781,800,819,840,859,879,900,919,939,959,980,999,1019,1039,1060,1079,1099,1120,1139,1159,1180,1201,1219,1240,1259,1279,1299,1320,1339,1360,1380,1399,1419],"xSR":741.5,"ySR":469.95,"xT1":424.9,"yT1":0,"xT2":1058.1,"yT2":0,"toosoon":0,"cond_shown":"equaldotsize","ratio_trial":250,"smaller_num":"3","larger_num":"12","correct_side":2,"subjID":"JuanDiegoBeltranVILLEGAS36","gender":"0","age":"12","school":"6"},{"start_time":1551794572017,"click_time":1551794573578,"finger_time":1551794572759,"fix_duration":1357.518599205631,"trial":7,"RT":742,"MT":819,"sideResp":1,"stimulus":"img/750/randomdotsizeEA/R/5_Ratio_750_L_15_R_20.png","xmouse":[776,776,776,776,776,776,776,776,776,776,776,776,776,776,776,776,776,776,776,776,776,776,776,776,776,776,776,776,776,776,776,776,777,778,781,782,784,792,800,805,809,814,833,845,868,889,913,991,1021,1032,1036,1036,1036,1036,1036,1035,1031,1003,979,953,920,884,816,760,717,673,634,602,597,594,591,590,585,577,564,552,541,526,524],"ymouse":[515,515,515,515,515,515,515,515,515,515,515,515,515,515,515,515,515,515,515,515,515,515,515,515,515,515,515,515,515,515,515,515,514,511,501,495,486,458,442,431,420,411,391,382,366,352,331,275,249,236,228,227,227,227,227,226,226,220,213,205,196,186,166,147,131,116,104,96,96,96,98,98,98,90,79,71,63,53,52],"timestamp_mouse":[8,21,41,62,82,101,122,143,161,182,202,222,242,262,282,303,322,341,362,382,402,423,441,463,481,503,522,543,563,582,601,622,642,662,681,701,721,742,762,781,801,823,841,861,881,903,921,941,961,981,1002,1021,1041,1061,1081,1101,1122,1141,1162,1181,1202,1223,1241,1261,1281,1302,1322,1341,1362,1381,1402,1421,1441,1462,1481,1502,1521,1541,1561],"xSR":741.5,"ySR":469.95,"xT1":424.9,"yT1":0,"xT2":1058.1,"yT2":0,"toosoon":0,"cond_shown":"randomdotsizeEA","ratio_trial":750,"smaller_num":"15","larger_num":"20","correct_side":2,"subjID":"JuanDiegoBeltranVILLEGAS36","gender":"0","age":"12","school":"6"},{"start_time":1551794577311,"click_time":1551794578798,"finger_time":1551794578278,"fix_duration":250,"trial":8,"RT":967,"MT":520,"sideResp":2,"stimulus":"img/750/randomdotsizeEA/R/2_Ratio_750_L_6_R_8.png","xmouse":[793,793,793,793,793,793,793,793,793,793,793,793,793,793,793,793,793,793,793,793,793,793,793,793,793,793,793,793,793,793,793,793,793,793,793,793,793,793,793,793,793,793,793,793,793,796,798,808,830,849,867,877,884,887,891,898,911,937,952,958,963,966,976,984,991,1004,1016,1033,1042,1048,1053,1059,1076,1083,1090],"ymouse":[526,526,526,526,526,526,526,526,526,526,526,526,526,526,526,526,526,526,526,526,526,526,526,526,526,526,526,526,526,526,526,526,526,526,526,526,526,526,526,526,526,526,526,526,526,524,520,496,459,432,412,399,385,378,362,347,321,275,247,233,223,218,203,194,186,175,165,146,133,126,121,115,107,103,98],"timestamp_mouse":[10,33,48,67,88,107,128,147,169,188,208,228,247,267,287,308,327,347,368,388,409,428,448,467,488,508,528,547,569,587,607,628,647,667,687,707,727,747,767,787,807,827,847,867,887,908,927,947,967,987,1008,1027,1048,1068,1087,1107,1127,1148,1167,1187,1208,1228,1248,1268,1287,1307,1327,1347,1367,1388,1407,1427,1447,1467,1487],"xSR":741.5,"ySR":469.95,"xT1":424.9,"yT1":0,"xT2":1058.1,"yT2":0,"toosoon":0,"cond_shown":"randomdotsizeEA","ratio_trial":750,"smaller_num":"6","larger_num":"8","correct_side":2,"subjID":"JuanDiegoBeltranVILLEGAS36","gender":"0","age":"12","school":"6"},{"start_time":1551794580538,"click_time":1551794581458,"finger_time":1551794581200,"fix_duration":556.637466263463,"trial":9,"RT":662,"MT":258,"sideResp":2,"stimulus":"img/250/equaldotanddens/R/13_Ratio_250_L_2_R_8.png","xmouse":[809,809,809,809,809,809,809,809,809,809,809,809,809,809,809,809,809,809,809,809,809,809,809,809,809,809,809,809,809,809,809,817,823,839,873,915,986,1015,1025,1032,1037,1047,1053,1058,1063,1069,1072],"ymouse":[521,521,521,521,521,521,521,521,521,521,521,521,521,521,521,521,521,521,521,521,521,521,521,521,521,521,521,521,521,521,521,509,487,453,394,336,244,206,191,178,165,144,133,122,112,101,91],"timestamp_mouse":[8,36,40,61,81,102,120,141,160,182,200,220,241,260,282,300,321,340,360,381,401,421,441,461,480,500,520,540,561,580,600,620,640,662,681,700,720,740,761,780,800,820,841,860,881,902,920],"xSR":741.5,"ySR":469.95,"xT1":424.9,"yT1":0,"xT2":1058.1,"yT2":0,"toosoon":0,"cond_shown":"equaldotanddens","ratio_trial":250,"smaller_num":"2","larger_num":"8","correct_side":2,"subjID":"JuanDiegoBeltranVILLEGAS36","gender":"0","age":"12","school":"6"},{"start_time":1551794584078,"click_time":1551794585478,"finger_time":1551794585038,"fix_duration":1437.2552127547071,"trial":10,"RT":960,"MT":440,"sideResp":1,"stimulus":"img/900/equaldotsize/R/9_Ratio_900_L_18_R_20.png","xmouse":[805,805,805,805,805,804,804,804,804,804,804,804,804,804,804,804,804,804,804,804,804,804,804,804,804,804,804,804,804,804,804,804,804,804,804,804,804,804,804,804,804,802,798,798,795,792,790,784,775,737,700,680,662,647,617,595,568,543,525,515,514,512,511,509,507,505,503,500,497,483,469],"ymouse":[507,507,507,507,507,507,507,507,507,507,507,507,507,507,507,507,507,507,507,507,507,507,507,507,507,507,507,507,507,507,507,507,507,507,507,507,507,507,507,507,507,504,497,494,489,486,483,478,469,447,429,417,401,386,344,314,275,241,216,198,192,186,177,167,146,139,134,129,124,112,99],"timestamp_mouse":[8,31,41,61,81,101,122,141,160,181,202,220,240,261,281,300,321,340,362,380,401,420,442,461,480,501,520,542,561,581,600,621,642,660,681,702,722,740,761,780,802,821,840,860,880,900,920,941,960,980,1000,1020,1042,1060,1082,1102,1120,1140,1162,1180,1200,1221,1241,1260,1280,1302,1321,1341,1360,1380,1400],"xSR":741.5,"ySR":469.95,"xT1":424.9,"yT1":0,"xT2":1058.1,"yT2":0,"toosoon":0,"cond_shown":"equaldotsize","ratio_trial":900,"smaller_num":"18","larger_num":"20","correct_side":2,"subjID":"JuanDiegoBeltranVILLEGAS36","gender":"0","age":"12","school":"6"},{"start_time":1551794588091,"click_time":1551794589679,"finger_time":1551794589378,"fix_duration":250,"trial":11,"RT":1287,"MT":301,"sideResp":2,"stimulus":"img/900/randomdotsizeEA/L/8_Ratio_900_L_20_R_18.png","xmouse":[793,793,793,793,793,793,793,793,793,793,793,793,793,793,793,793,793,793,793,793,793,793,793,793,793,793,793,793,793,793,793,793,793,793,793,793,793,793,793,793,793,793,793,793,793,793,793,793,793,793,793,793,793,793,793,793,793,793,793,793,794,800,811,834,844,853,863,872,891,905,917,931,949,981,995,1007,1018,1028,1064,1075],"ymouse":[507,507,507,507,507,507,507,507,507,507,507,507,507,507,507,507,507,507,507,507,507,507,507,507,507,507,507,507,507,507,507,507,507,507,507,507,507,507,507,507,507,507,507,507,507,507,507,507,507,507,507,507,507,507,507,507,507,507,507,507,507,503,493,472,461,450,437,423,392,369,351,331,311,273,255,238,217,194,102,78],"timestamp_mouse":[10,35,47,69,88,108,128,148,168,187,209,227,248,268,287,309,329,347,368,387,407,428,448,467,487,509,527,547,567,588,607,628,648,667,689,707,727,748,767,788,807,828,847,867,889,909,928,948,968,988,1008,1027,1047,1068,1088,1109,1128,1147,1168,1187,1207,1227,1248,1268,1287,1309,1328,1347,1367,1388,1407,1429,1447,1467,1488,1507,1528,1547,1568,1587],"xSR":741.5,"ySR":469.95,"xT1":424.9,"yT1":0,"xT2":1058.1,"yT2":0,"toosoon":0,"cond_shown":"randomdotsizeEA","ratio_trial":900,"smaller_num":"18","larger_num":"20","correct_side":1,"subjID":"JuanDiegoBeltranVILLEGAS36","gender":"0","age":"12","school":"6"},{"start_time":1551794591295,"click_time":1551794592798,"finger_time":1551794592378,"fix_duration":294.34113376091796,"trial":12,"RT":1083,"MT":420,"sideResp":1,"stimulus":"img/750/randomdotsizeEA/L/8_Ratio_750_L_4_R_3.png","xmouse":[767,767,767,767,767,767,767,767,768,769,769,769,769,769,769,769,769,769,769,769,769,769,769,769,769,769,769,769,769,769,769,769,769,769,769,769,769,769,769,769,769,769,769,769,769,769,769,769,769,769,766,764,757,742,736,728,717,706,677,657,644,630,615,585,573,564,555,549,534,525,516,512,510,493,479,463],"ymouse":[542,542,542,542,542,542,544,545,548,549,550,550,550,550,550,550,550,550,550,550,550,550,550,550,550,550,550,550,550,550,550,550,550,550,550,550,550,550,550,550,550,550,550,550,550,550,550,550,550,550,547,545,538,521,516,509,500,489,459,433,413,393,372,330,313,296,279,261,221,201,181,172,167,134,108,78],"timestamp_mouse":[9,31,43,63,84,104,123,143,163,184,204,224,243,263,284,303,323,344,363,384,405,424,443,464,483,504,525,543,563,585,604,624,645,664,684,703,724,743,764,784,805,825,843,863,884,903,924,944,964,983,1004,1024,1044,1063,1083,1104,1123,1145,1163,1183,1203,1223,1244,1263,1283,1304,1323,1345,1363,1384,1403,1424,1444,1463,1483,1503],"xSR":741.5,"ySR":469.95,"xT1":424.9,"yT1":0,"xT2":1058.1,"yT2":0,"toosoon":0,"cond_shown":"randomdotsizeEA","ratio_trial":750,"smaller_num":"3","larger_num":"4","correct_side":1,"subjID":"JuanDiegoBeltranVILLEGAS36","gender":"0","age":"12","school":"6"},{"start_time":1551794594462,"click_time":1551794595799,"finger_time":1551794595159,"fix_duration":443.7432875367585,"trial":13,"RT":697,"MT":640,"sideResp":2,"stimulus":"img/750/equaldotsize/R/4_Ratio_750_L_15_R_20.png","xmouse":[817,817,817,817,817,817,817,817,817,817,817,817,817,817,817,817,817,817,816,817,817,817,817,817,817,817,817,817,817,817,817,819,823,829,847,858,870,881,891,909,927,941,958,973,993,1002,1016,1034,1070,1070,1070,1070,1070,1070,1070,1070,1070,1070,1070,1070,1070,1070,1070,1070,1070,1070,1109],"ymouse":[553,553,553,553,553,553,553,553,553,553,553,553,553,553,553,553,553,553,553,554,554,554,554,554,554,554,554,554,554,554,554,551,537,519,476,454,433,409,383,320,271,241,212,186,140,118,89,57,0,0,0,0,0,0,0,0,0,0,0,0,0,0,0,0,0,0,4],"timestamp_mouse":[21,45,58,77,97,117,137,156,177,198,217,236,257,278,298,317,337,357,376,396,417,436,458,477,497,517,536,557,578,596,616,636,657,676,697,716,736,756,777,796,817,837,858,877,896,917,937,957,977,997,1018,1037,1056,1076,1096,1116,1136,1156,1177,1197,1217,1236,1257,1277,1297,1316,1337],"xSR":741.5,"ySR":469.95,"xT1":424.9,"yT1":0,"xT2":1058.1,"yT2":0,"toosoon":0,"cond_shown":"equaldotsize","ratio_trial":750,"smaller_num":"15","larger_num":"20","correct_side":2,"subjID":"JuanDiegoBeltranVILLEGAS36","gender":"0","age":"12","school":"6"},{"start_time":1551794599442,"click_time":1551794600640,"finger_time":1551794600338,"fix_duration":941.6616472509056,"trial":14,"RT":896,"MT":302,"sideResp":1,"stimulus":"img/500/equaldotsize/L/13_Ratio_500_L_12_R_6.png","xmouse":[801,801,801,801,801,801,801,801,801,801,801,801,801,801,801,801,801,801,801,801,801,801,801,801,801,801,801,801,801,801,801,801,801,801,801,801,801,801,801,801,801,786,759,737,707,695,682,668,654,628,607,591,578,568,546,532,521,511,499],"ymouse":[537,535,535,535,535,535,535,535,535,535,535,535,535,535,535,535,535,535,535,535,535,535,535,535,535,535,535,535,535,535,535,535,535,535,535,535,535,535,535,535,534,515,492,473,447,433,415,395,375,338,311,293,273,251,189,159,134,113,92],"timestamp_mouse":[37,57,76,97,117,137,156,176,197,217,236,256,278,296,316,337,356,376,396,418,436,457,477,496,517,536,556,577,596,616,638,657,676,696,717,736,757,777,796,816,836,857,877,896,917,938,956,977,996,1017,1036,1057,1076,1096,1116,1137,1158,1176,1197],"xSR":741.5,"ySR":469.95,"xT1":424.9,"yT1":0,"xT2":1058.1,"yT2":0,"toosoon":0,"cond_shown":"equaldotsize","ratio_trial":500,"smaller_num":"6","larger_num":"12","correct_side":1,"subjID":"JuanDiegoBeltranVILLEGAS36","gender":"0","age":"12","school":"6"},{"start_time":1551794603081,"click_time":1551794604339,"finger_time":1551794603818,"fix_duration":1281.7774521454755,"trial":15,"RT":737,"MT":521,"sideResp":1,"stimulus":"img/250/randomdotsizeEA/L/2_Ratio_250_L_16_R_4.png","xmouse":[811,811,811,811,811,811,811,811,811,811,811,811,811,811,811,811,811,811,811,811,811,811,811,811,811,811,811,811,811,811,811,811,810,800,790,772,754,731,689,670,642,626,608,578,560,545,528,514,492,475,465,456,449,438,436,435,434,434,434,434,439,442,446],"ymouse":[501,501,501,501,501,501,501,501,501,501,501,501,501,501,501,501,501,501,501,501,501,501,501,501,501,501,501,501,501,501,501,501,501,492,486,476,467,454,426,410,387,373,360,334,316,301,282,265,239,219,208,196,186,169,161,156,151,148,139,131,115,105,95],"timestamp_mouse":[18,43,57,78,99,119,138,159,177,198,217,237,258,277,299,317,338,359,379,397,418,439,457,478,499,518,539,557,577,599,618,637,658,678,697,718,737,759,777,798,817,837,857,879,897,917,938,957,978,997,1017,1039,1057,1078,1098,1119,1137,1158,1177,1197,1217,1238,1258],"xSR":741.5,"ySR":469.95,"xT1":424.9,"yT1":0,"xT2":1058.1,"yT2":0,"toosoon":0,"cond_shown":"randomdotsizeEA","ratio_trial":250,"smaller_num":"4","larger_num":"16","correct_side":1,"subjID":"JuanDiegoBeltranVILLEGAS36","gender":"0","age":"12","school":"6"},{"start_time":1551794605802,"click_time":1551794606778,"finger_time":1551794606479,"fix_duration":400.585277585076,"trial":16,"RT":677,"MT":299,"sideResp":2,"stimulus":"img/250/equaldotanddens/R/13_Ratio_250_L_2_R_8.png","xmouse":[763,763,763,763,763,763,763,763,763,763,763,763,763,763,763,763,763,763,763,763,763,763,763,763,763,763,763,763,763,764,765,768,799,852,902,950,977,991,1000,1007,1015,1022,1027,1033,1039,1044,1051,1064,1069],"ymouse":[497,497,497,497,497,497,497,497,497,497,497,497,497,497,497,497,497,497,497,497,497,497,497,497,497,497,497,497,497,497,497,496,471,440,410,383,363,329,312,297,283,266,229,203,184,165,143,101,81],"timestamp_mouse":[18,36,57,77,96,116,136,158,176,196,216,237,256,276,296,317,336,357,377,398,417,436,456,477,496,516,536,557,577,597,617,637,656,677,696,717,736,756,776,797,817,836,857,877,896,918,936,956,976],"xSR":741.5,"ySR":469.95,"xT1":424.9,"yT1":0,"xT2":1058.1,"yT2":0,"toosoon":0,"cond_shown":"equaldotanddens","ratio_trial":250,"smaller_num":"2","larger_num":"8","correct_side":2,"subjID":"JuanDiegoBeltranVILLEGAS36","gender":"0","age":"12","school":"6"},{"start_time":1551794610681,"click_time":1551794611858,"finger_time":1551794611359,"fix_duration":1199.349507837405,"trial":17,"RT":678,"MT":499,"sideResp":1,"stimulus":"img/750/equaldotsize/L/14_Ratio_750_L_8_R_6.png","xmouse":[806,806,806,806,806,806,806,806,806,806,806,805,804,804,804,804,804,804,804,804,804,804,804,804,804,804,804,804,799,790,774,757,742,715,696,675,654,640,628,617,612,605,596,579,567,558,549,541,531,525,522,519,515,506,504,501,497,493,488],"ymouse":[534,534,534,534,534,534,534,534,534,534,532,532,531,531,531,531,531,531,531,531,531,531,531,531,531,531,531,531,527,522,513,503,492,467,448,426,399,384,366,349,336,319,299,264,248,235,223,213,199,191,185,178,170,149,141,131,118,105,81],"timestamp_mouse":[21,41,58,77,97,118,139,157,177,198,218,237,257,278,297,318,338,357,377,398,419,438,458,477,499,517,538,557,577,597,617,637,658,678,698,718,737,759,777,798,817,838,857,878,898,918,937,958,977,998,1018,1038,1057,1077,1098,1119,1138,1159,1177],"xSR":741.5,"ySR":469.95,"xT1":424.9,"yT1":0,"xT2":1058.1,"yT2":0,"toosoon":0,"cond_shown":"equaldotsize","ratio_trial":750,"smaller_num":"6","larger_num":"8","correct_side":1,"subjID":"JuanDiegoBeltranVILLEGAS36","gender":"0","age":"12","school":"6"},{"start_time":1551794613482,"click_time":1551794614399,"finger_time":1551794614299,"fix_duration":523.85000001579,"trial":18,"RT":817,"MT":100,"sideResp":2,"stimulus":"img/750/equaldotanddens/R/15_Ratio_750_L_9_R_12.png","xmouse":[772,772,772,772,772,772,772,772,772,772,772,772,772,772,772,772,772,772,772,772,773,773,773,773,773,773,773,773,773,773,773,773,773,773,773,773,773,773,773,784,816,876,952,1077,1111,1122],"ymouse":[506,506,506,506,506,506,506,506,506,506,506,506,506,506,506,506,506,506,506,502,501,501,501,501,501,501,501,501,501,501,501,501,501,501,501,501,501,498,493,476,435,365,295,159,105,76],"timestamp_mouse":[16,41,57,76,96,116,137,158,176,196,216,237,258,276,298,316,336,356,376,397,416,436,456,476,496,517,536,557,576,596,618,636,658,676,697,717,736,757,776,796,817,836,856,876,896,917],"xSR":741.5,"ySR":469.95,"xT1":424.9,"yT1":0,"xT2":1058.1,"yT2":0,"toosoon":0,"cond_shown":"equaldotanddens","ratio_trial":750,"smaller_num":"9","larger_num":"12","correct_side":2,"subjID":"JuanDiegoBeltranVILLEGAS36","gender":"0","age":"12","school":"6"},{"start_time":1551794615930,"click_time":1551794617459,"finger_time":1551794616878,"fix_duration":250,"trial":19,"RT":948,"MT":581,"sideResp":2,"stimulus":"img/500/equaldotanddens/R/2_Ratio_500_L_3_R_6.png","xmouse":[759,759,759,759,759,759,759,759,759,759,759,759,759,759,759,759,759,759,759,759,759,759,759,759,759,759,759,759,759,759,759,759,759,759,759,759,759,759,759,759,759,759,759,759,759,760,768,787,809,828,845,868,879,893,909,923,945,948,949,949,949,949,949,949,950,952,960,971,991,1004,1013,1029,1035,1041,1050,1058,1073],"ymouse":[509,509,509,509,509,509,509,509,509,509,509,509,509,509,509,509,509,509,509,509,509,509,509,509,509,509,509,509,509,509,509,509,509,509,509,509,509,509,509,509,509,509,509,509,507,500,475,441,417,393,366,311,270,221,172,130,79,70,67,67,67,67,67,66,66,66,66,66,66,66,65,59,59,56,54,52,48],"timestamp_mouse":[10,34,50,69,88,108,128,150,169,188,208,228,249,269,288,309,328,349,368,388,408,428,448,469,489,508,529,549,569,590,609,628,648,669,688,709,729,748,768,788,809,828,849,870,889,909,928,948,969,989,1009,1028,1050,1068,1088,1108,1128,1149,1168,1189,1210,1230,1249,1268,1288,1310,1328,1349,1368,1388,1409,1428,1449,1468,1489,1508,1529],"xSR":741.5,"ySR":469.95,"xT1":424.9,"yT1":0,"xT2":1058.1,"yT2":0,"toosoon":0,"cond_shown":"equaldotanddens","ratio_trial":500,"smaller_num":"3","larger_num":"6","correct_side":2,"subjID":"JuanDiegoBeltranVILLEGAS36","gender":"0","age":"12","school":"6"},{"start_time":1551794619820,"click_time":1551794621159,"finger_time":1551794620839,"fix_duration":1200.0236054837778,"trial":20,"RT":1019,"MT":320,"sideResp":2,"stimulus":"img/750/equaldotanddens/R/7_Ratio_750_L_3_R_4.png","xmouse":[767,767,767,767,767,767,767,767,767,767,767,767,767,767,767,767,767,767,767,767,767,767,767,767,767,767,767,767,767,767,767,767,767,767,767,767,767,767,767,767,767,767,767,767,767,767,767,768,773,788,807,854,878,882,884,885,900,915,933,956,981,1028,1043,1044,1045,1047,1059],"ymouse":[543,543,543,543,543,543,543,543,543,543,543,543,543,543,543,543,543,543,543,543,543,543,543,543,543,543,543,543,543,543,543,543,543,543,543,543,543,543,543,543,543,543,543,543,543,543,543,540,531,488,421,276,213,200,196,195,192,183,164,142,111,73,65,65,65,65,54],"timestamp_mouse":[20,39,60,78,98,118,138,158,178,199,218,240,259,279,298,320,339,358,378,399,418,438,459,478,499,518,538,559,579,600,618,638,658,680,700,719,738,760,778,799,820,839,859,880,899,918,939,958,978,998,1019,1039,1059,1078,1098,1119,1138,1158,1178,1198,1218,1238,1258,1279,1298,1318,1338],"xSR":741.5,"ySR":469.95,"xT1":424.9,"yT1":0,"xT2":1058.1,"yT2":0,"toosoon":0,"cond_shown":"equaldotanddens","ratio_trial":750,"smaller_num":"3","larger_num":"4","correct_side":2,"subjID":"JuanDiegoBeltranVILLEGAS36","gender":"0","age":"12","school":"6"},{"start_time":1551794623777,"click_time":1551794624939,"finger_time":1551794624658,"fix_duration":1297.0394771577626,"trial":21,"RT":881,"MT":281,"sideResp":2,"stimulus":"img/500/equaldotsize/R/1_Ratio_500_L_9_R_18.png","xmouse":[807,807,807,807,807,807,807,807,807,807,807,807,807,807,807,807,807,807,807,807,807,807,807,807,807,807,807,807,807,807,807,807,807,807,807,807,807,807,807,807,807,807,815,831,854,880,902,922,935,957,967,976,984,994,1014,1026,1036,1047,1062],"ymouse":[547,547,547,547,547,547,547,547,547,547,547,547,547,547,547,547,547,547,547,547,547,547,547,547,547,547,547,547,547,547,547,547,547,547,547,547,547,547,547,547,547,547,543,530,497,444,402,359,327,276,255,235,217,201,167,142,120,100,80],"timestamp_mouse":[8,21,43,62,81,101,123,142,162,183,202,221,242,261,281,301,322,341,363,382,402,422,441,463,482,501,521,542,561,582,603,621,642,661,682,702,722,742,761,782,802,822,842,861,881,901,921,941,961,982,1001,1022,1042,1061,1082,1101,1121,1141,1162],"xSR":741.5,"ySR":469.95,"xT1":424.9,"yT1":0,"xT2":1058.1,"yT2":0,"toosoon":0,"cond_shown":"equaldotsize","ratio_trial":500,"smaller_num":"9","larger_num":"18","correct_side":2,"subjID":"JuanDiegoBeltranVILLEGAS36","gender":"0","age":"12","school":"6"},{"start_time":1551794629205,"click_time":1551794630499,"finger_time":1551794630238,"fix_duration":1445.7653587574032,"trial":22,"RT":1033,"MT":261,"sideResp":2,"stimulus":"img/750/equaldotsize/L/13_Ratio_750_L_8_R_6.png","xmouse":[762,762,762,762,762,762,762,764,766,767,768,769,772,777,778,778,778,778,778,778,778,778,778,778,778,778,778,778,778,778,778,778,778,778,778,778,778,778,778,778,778,778,778,778,778,778,778,779,768,756,744,737,727,725,725,725,728,745,761,792,840,907,1028,1060,1084],"ymouse":[528,528,528,528,528,528,528,528,528,528,528,529,530,532,532,532,532,532,532,532,532,532,532,532,532,532,532,532,532,532,532,532,532,532,532,532,532,532,532,532,532,532,532,532,532,532,532,532,511,491,472,458,425,402,387,377,370,358,350,338,318,289,205,158,89],"timestamp_mouse":[14,35,54,74,94,114,134,153,174,193,214,234,253,274,293,313,333,355,373,393,413,433,453,473,493,513,533,553,574,593,613,634,653,674,694,715,734,753,774,795,814,833,853,873,894,913,933,954,974,994,1013,1033,1054,1074,1093,1114,1134,1153,1173,1193,1213,1234,1253,1274,1294],"xSR":741.5,"ySR":469.95,"xT1":424.9,"yT1":0,"xT2":1058.1,"yT2":0,"toosoon":0,"cond_shown":"equaldotsize","ratio_trial":750,"smaller_num":"6","larger_num":"8","correct_side":1,"subjID":"JuanDiegoBeltranVILLEGAS36","gender":"0","age":"12","school":"6"},{"start_time":1551794633849,"click_time":1551794635359,"finger_time":1551794634978,"fix_duration":849.5526428725618,"trial":23,"RT":1129,"MT":381,"sideResp":2,"stimulus":"img/900/equaldotanddens/L/1_Ratio_900_L_10_R_9.png","xmouse":[806,806,806,806,806,806,806,806,806,806,806,806,806,806,806,806,806,806,806,806,806,806,806,806,806,806,806,806,806,806,806,806,806,806,806,804,799,799,799,799,799,799,799,799,799,799,799,799,799,799,794,780,770,768,768,768,768,770,778,790,818,855,885,906,918,940,954,976,1001,1021,1048,1049,1050,1052,1057,1075],"ymouse":[504,504,504,504,504,504,504,504,504,504,504,504,504,504,504,504,504,504,504,504,504,504,504,504,504,504,504,504,504,504,504,504,504,504,504,500,489,489,489,489,489,489,489,489,489,489,489,489,489,489,485,477,473,472,472,471,469,461,448,429,382,334,308,292,282,253,229,196,162,140,120,118,118,115,105,77],"timestamp_mouse":[9,43,50,70,90,110,130,149,171,191,210,230,249,270,289,309,329,349,371,391,409,430,450,471,490,509,530,549,569,589,610,629,660,671,691,710,731,750,769,790,809,829,850,870,890,909,930,949,970,991,1010,1029,1049,1070,1090,1109,1129,1149,1169,1190,1210,1229,1249,1269,1290,1309,1330,1349,1369,1389,1409,1429,1450,1470,1489,1510],"xSR":741.5,"ySR":469.95,"xT1":424.9,"yT1":0,"xT2":1058.1,"yT2":0,"toosoon":0,"cond_shown":"equaldotanddens","ratio_trial":900,"smaller_num":"9","larger_num":"10","correct_side":1,"subjID":"JuanDiegoBeltranVILLEGAS36","gender":"0","age":"12","school":"6"},{"start_time":1551794636649,"click_time":1551794638400,"finger_time":1551794638079,"fix_duration":250,"trial":24,"RT":1430,"MT":321,"sideResp":1,"stimulus":"img/900/equaldotsize/L/8_Ratio_900_L_20_R_18.png","xmouse":[751,751,751,751,751,751,751,751,751,751,751,751,752,753,754,754,754,754,754,756,756,757,757,757,757,757,757,757,757,757,757,757,757,757,757,757,757,758,758,759,763,766,768,770,771,775,780,788,792,795,796,796,797,797,798,798,798,798,798,798,798,798,798,798,798,798,798,798,796,791,761,725,698,674,642,579,557,544,532,523,514,513,513,513,514,519,521,523],"ymouse":[565,565,565,565,565,565,565,565,565,565,565,565,565,566,566,567,567,567,567,567,567,567,567,567,567,567,567,567,567,567,567,567,567,567,567,567,567,567,565,560,552,545,542,539,536,520,506,493,485,480,480,480,481,483,486,493,497,501,505,508,509,509,509,509,509,509,509,509,509,506,492,470,451,432,404,347,320,298,277,256,227,205,190,176,159,130,115,99],"timestamp_mouse":[11,30,49,71,89,110,130,149,169,189,210,229,249,269,289,310,329,349,369,389,409,429,449,471,489,510,530,549,569,589,609,630,649,670,689,709,729,750,769,790,809,830,849,869,890,909,930,949,969,990,1010,1030,1049,1069,1090,1109,1129,1150,1169,1190,1209,1229,1250,1269,1289,1309,1329,1349,1369,1389,1409,1430,1449,1470,1489,1509,1530,1549,1569,1590,1610,1629,1649,1670,1689,1709,1729,1751],"xSR":741.5,"ySR":469.95,"xT1":424.9,"yT1":0,"xT2":1058.1,"yT2":0,"toosoon":0,"cond_shown":"equaldotsize","ratio_trial":900,"smaller_num":"18","larger_num":"20","correct_side":1,"subjID":"JuanDiegoBeltranVILLEGAS36","gender":"0","age":"12","school":"6"},{"start_time":1551794639771,"click_time":1551794640739,"finger_time":1551794640358,"fix_duration":250,"trial":25,"RT":587,"MT":381,"sideResp":2,"stimulus":"img/250/equaldotanddens/R/13_Ratio_250_L_2_R_8.png","xmouse":[796,796,796,796,796,796,796,796,796,796,796,796,796,796,796,796,796,796,796,796,796,797,797,798,798,800,803,806,816,851,882,920,962,995,1026,1032,1035,1040,1048,1057,1057,1057,1057,1057,1057,1057,1057,1058,1063],"ymouse":[528,528,528,528,528,528,528,528,528,528,528,528,528,528,528,528,528,528,528,528,527,527,527,527,527,526,524,522,513,472,437,396,352,314,260,229,205,176,141,103,98,96,96,96,96,96,96,96,96],"timestamp_mouse":[9,37,47,68,88,108,128,147,167,187,207,228,249,267,288,307,327,348,367,388,408,427,448,468,487,508,527,549,568,587,609,627,647,669,687,707,727,748,767,787,808,827,848,869,888,907,928,947,968],"xSR":741.5,"ySR":469.95,"xT1":424.9,"yT1":0,"xT2":1058.1,"yT2":0,"toosoon":0,"cond_shown":"equaldotanddens","ratio_trial":250,"smaller_num":"2","larger_num":"8","correct_side":2,"subjID":"JuanDiegoBeltranVILLEGAS36","gender":"0","age":"12","school":"6"},{"start_time":1551794643019,"click_time":1551794644258,"finger_time":1551794643818,"fix_duration":978.0770986928645,"trial":26,"RT":799,"MT":440,"sideResp":1,"stimulus":"img/900/equaldotanddens/L/8_Ratio_900_L_20_R_18.png","xmouse":[805,805,805,805,805,805,805,805,805,805,805,805,805,805,805,805,805,805,805,805,805,805,805,805,805,805,805,805,805,805,805,805,805,805,805,805,803,798,791,781,771,757,720,685,661,639,617,591,587,584,582,576,561,547,540,534,531,529,528,525,523,521,516],"ymouse":[513,513,513,513,513,513,513,513,513,513,513,513,513,513,513,513,513,513,513,513,513,513,513,513,513,513,513,513,513,513,513,513,513,513,513,513,510,497,485,473,461,446,405,359,319,280,245,212,207,205,203,200,182,153,132,119,115,113,111,108,105,101,95],"timestamp_mouse":[1,19,40,59,79,101,119,139,160,179,200,220,239,259,280,299,319,341,360,380,399,420,440,459,479,499,520,540,560,579,599,619,640,661,680,699,719,739,759,780,799,819,839,860,880,900,919,939,959,980,999,1019,1039,1059,1079,1100,1119,1139,1159,1179,1199,1220,1239],"xSR":741.5,"ySR":469.95,"xT1":424.9,"yT1":0,"xT2":1058.1,"yT2":0,"toosoon":0,"cond_shown":"equaldotanddens","ratio_trial":900,"smaller_num":"18","larger_num":"20","correct_side":1,"subjID":"JuanDiegoBeltranVILLEGAS36","gender":"0","age":"12","school":"6"},{"start_time":1551794645510,"click_time":1551794646758,"finger_time":1551794646680,"fix_duration":250,"trial":27,"RT":1170,"MT":78,"sideResp":2,"stimulus":"img/900/randomdotsizeEA/R/7_Ratio_900_L_9_R_10.png","xmouse":[773,773,773,773,773,773,773,773,773,773,773,773,773,773,773,773,773,773,773,773,773,773,773,773,773,773,773,773,773,773,773,773,773,773,773,773,773,773,773,773,773,773,773,773,773,773,773,773,773,773,773,773,773,773,773,773,773,786,824,874,944,1018,1125],"ymouse":[492,492,492,492,492,492,492,492,492,492,492,492,492,492,492,492,492,492,492,492,492,492,492,492,492,492,492,492,492,492,492,492,492,492,492,492,492,492,492,492,492,492,492,492,492,492,492,492,492,492,492,492,492,492,492,492,492,471,398,317,219,131,18],"timestamp_mouse":[9,42,49,69,89,108,129,149,168,189,209,229,249,269,289,308,328,350,368,388,409,428,448,468,490,508,529,549,569,589,608,629,649,668,689,708,729,749,769,790,809,829,848,870,889,908,929,948,968,988,1009,1028,1049,1068,1089,1108,1129,1148,1170,1189,1209,1228,1248],"xSR":741.5,"ySR":469.95,"xT1":424.9,"yT1":0,"xT2":1058.1,"yT2":0,"toosoon":0,"cond_shown":"randomdotsizeEA","ratio_trial":900,"smaller_num":"9","larger_num":"10","correct_side":2,"subjID":"JuanDiegoBeltranVILLEGAS36","gender":"0","age":"12","school":"6"},{"start_time":1551794649259,"click_time":1551794650779,"finger_time":1551794650159,"fix_duration":1459.9518234560726,"trial":28,"RT":900,"MT":620,"sideResp":1,"stimulus":"img/900/randomdotsizeEA/L/4_Ratio_900_L_20_R_18.png","xmouse":[806,806,806,806,806,806,806,806,806,806,806,806,806,806,806,806,806,806,806,806,806,806,806,806,806,806,806,806,806,806,806,806,806,806,806,806,806,806,806,804,777,757,747,743,738,734,730,725,722,717,707,700,689,677,654,637,615,590,563,506,456,432,422,419,419,419,419,419,419,419,419,419,419,419,423,429],"ymouse":[495,495,495,495,495,495,495,495,495,495,495,495,495,495,495,495,495,495,495,495,495,495,495,495,495,495,495,495,495,495,495,495,495,495,495,495,495,495,495,495,495,495,490,477,453,448,446,444,443,439,424,410,395,379,348,333,317,298,275,212,149,120,108,104,104,104,104,103,102,94,92,92,92,92,83,74],"timestamp_mouse":[31,41,59,80,100,120,140,159,180,200,220,239,261,280,299,320,339,359,379,400,419,441,460,480,499,519,541,560,580,600,620,641,661,679,699,720,740,760,779,799,819,839,859,879,900,919,940,959,979,999,1019,1039,1061,1079,1099,1120,1139,1159,1179,1199,1219,1239,1259,1279,1300,1319,1339,1359,1379,1399,1421,1439,1459,1479,1499,1520],"xSR":741.5,"ySR":469.95,"xT1":424.9,"yT1":0,"xT2":1058.1,"yT2":0,"toosoon":0,"cond_shown":"randomdotsizeEA","ratio_trial":900,"smaller_num":"18","larger_num":"20","correct_side":1,"subjID":"JuanDiegoBeltranVILLEGAS36","gender":"0","age":"12","school":"6"},{"start_time":1551794651890,"click_time":1551794653058,"finger_time":1551794652658,"fix_duration":250,"trial":29,"RT":768,"MT":400,"sideResp":2,"stimulus":"img/250/randomdotsizeEA/R/13_Ratio_250_L_2_R_8.png","xmouse":[778,778,778,778,778,778,778,778,778,778,778,778,778,778,778,778,778,778,778,778,778,778,778,778,778,778,778,778,778,778,778,778,778,778,777,779,783,791,814,839,859,885,915,963,973,980,984,990,1002,1018,1027,1033,1038,1045,1048,1051,1052,1057,1074],"ymouse":[519,519,519,519,519,519,519,519,519,519,519,519,519,519,519,519,519,519,519,519,519,519,519,519,519,519,519,519,519,519,519,519,519,519,518,515,511,497,432,340,279,217,171,118,106,97,90,84,76,71,68,66,64,60,60,59,58,56,46],"timestamp_mouse":[10,29,48,69,89,108,129,148,168,188,210,229,250,268,290,308,329,348,369,389,408,428,448,469,489,509,529,549,569,589,608,629,649,669,688,708,729,748,768,789,809,828,848,868,888,909,928,949,968,989,1009,1029,1048,1068,1088,1109,1128,1148,1168],"xSR":741.5,"ySR":469.95,"xT1":424.9,"yT1":0,"xT2":1058.1,"yT2":0,"toosoon":0,"cond_shown":"randomdotsizeEA","ratio_trial":250,"smaller_num":"2","larger_num":"8","correct_side":2,"subjID":"JuanDiegoBeltranVILLEGAS36","gender":"0","age":"12","school":"6"},{"start_time":1551794654554,"click_time":1551794655638,"finger_time":1551794655339,"fix_duration":434.2860559138311,"trial":30,"RT":785,"MT":299,"sideResp":2,"stimulus":"img/900/equaldotsize/L/8_Ratio_900_L_20_R_18.png","xmouse":[780,780,780,780,780,780,780,780,780,780,780,780,780,780,780,780,780,780,780,780,780,780,780,780,780,780,780,780,780,780,780,780,780,780,781,787,804,819,839,860,884,893,905,920,943,1003,1040,1063,1083,1097,1119,1126,1132,1137,1142],"ymouse":[546,546,546,546,546,546,546,546,546,546,546,546,546,546,546,546,546,546,546,546,546,546,546,546,546,546,546,546,546,546,546,546,546,546,546,539,519,502,481,463,432,413,389,367,343,288,246,219,193,172,140,128,116,105,94],"timestamp_mouse":[9,35,44,64,84,104,124,144,164,186,205,224,244,265,284,304,324,344,364,385,405,424,446,465,484,504,526,544,565,585,605,625,644,664,685,704,725,745,766,785,804,825,844,865,884,904,925,944,965,984,1004,1024,1044,1065,1084],"xSR":741.5,"ySR":469.95,"xT1":424.9,"yT1":0,"xT2":1058.1,"yT2":0,"toosoon":0,"cond_shown":"equaldotsize","ratio_trial":900,"smaller_num":"18","larger_num":"20","correct_side":1,"subjID":"JuanDiegoBeltranVILLEGAS36","gender":"0","age":"12","school":"6"},{"start_time":1551794656957,"click_time":1551794658139,"finger_time":1551794657758,"fix_duration":276.80440748209344,"trial":31,"RT":801,"MT":381,"sideResp":2,"stimulus":"img/500/equaldotanddens/R/15_Ratio_500_L_1_R_2.png","xmouse":[792,792,792,792,792,792,792,792,792,792,792,792,792,792,792,792,792,792,792,792,792,792,792,792,792,792,792,792,792,792,792,792,792,792,792,792,792,791,791,800,847,880,916,938,953,966,968,970,971,975,985,990,996,998,1001,1008,1021,1033,1053,1073],"ymouse":[520,520,520,520,520,520,520,520,520,520,520,520,520,520,520,520,520,520,520,520,520,520,520,520,520,520,520,520,520,520,520,520,520,520,520,520,520,519,515,493,412,361,311,272,237,198,183,174,164,154,130,121,113,109,106,100,91,82,69,58],"timestamp_mouse":[8,35,41,62,81,101,122,141,162,183,201,222,241,262,283,301,321,341,361,383,401,421,442,461,482,501,521,543,562,581,602,623,642,662,682,701,721,742,762,782,801,822,841,861,882,901,921,942,961,981,1001,1022,1041,1062,1081,1101,1122,1141,1161,1181],"xSR":741.5,"ySR":469.95,"xT1":424.9,"yT1":0,"xT2":1058.1,"yT2":0,"toosoon":0,"cond_shown":"equaldotanddens","ratio_trial":500,"smaller_num":"1","larger_num":"2","correct_side":2,"subjID":"JuanDiegoBeltranVILLEGAS36","gender":"0","age":"12","school":"6"},{"start_time":1551794660226,"click_time":1551794661479,"finger_time":1551794660898,"fix_duration":906.6100713798958,"trial":32,"RT":672,"MT":581,"sideResp":1,"stimulus":"img/500/equaldotsize/L/8_Ratio_500_L_8_R_4.png","xmouse":[813,813,813,813,813,813,813,813,813,813,813,813,813,813,813,813,813,813,813,813,813,813,813,813,813,813,813,813,813,812,810,793,775,763,752,741,731,706,691,677,662,641,630,619,611,602,587,580,573,567,561,551,545,541,536,533,529,528,527,526,524,522,518],"ymouse":[506,506,506,506,506,506,506,506,506,506,506,506,506,506,506,506,506,506,506,506,506,506,506,506,506,506,506,506,506,506,506,497,479,466,453,442,431,395,375,355,337,309,291,277,265,251,225,214,205,196,188,173,163,156,148,142,134,132,130,124,120,107,95],"timestamp_mouse":[12,33,53,73,92,113,132,153,173,194,213,232,252,273,292,313,332,352,372,394,413,432,453,474,492,513,534,552,573,592,612,632,652,672,694,713,732,752,772,792,814,832,853,872,893,912,932,952,972,992,1012,1032,1052,1072,1092,1112,1133,1152,1172,1192,1213,1232,1253],"xSR":741.5,"ySR":469.95,"xT1":424.9,"yT1":0,"xT2":1058.1,"yT2":0,"toosoon":0,"cond_shown":"equaldotsize","ratio_trial":500,"smaller_num":"4","larger_num":"8","correct_side":1,"subjID":"JuanDiegoBeltranVILLEGAS36","gender":"0","age":"12","school":"6"},{"start_time":1551794664259,"click_time":1551794665479,"finger_time":1551794664978,"fix_duration":278.62670191777386,"trial":33,"RT":719,"MT":501,"sideResp":1,"stimulus":"img/500/randomdotsizeEA/L/11_Ratio_500_L_12_R_6.png","xmouse":[780,780,780,780,780,780,780,780,780,780,780,780,780,780,780,780,780,780,780,780,780,780,780,780,780,780,780,780,780,780,780,780,780,780,777,758,749,739,729,715,686,667,655,644,635,625,613,607,600,592,579,574,567,563,560,554,551,547,544,539,531,524],"ymouse":[498,498,498,498,498,498,498,498,498,498,498,498,498,498,498,498,498,498,498,498,498,498,498,498,498,498,498,498,498,498,498,498,498,497,493,475,464,451,437,420,383,352,330,310,293,276,250,237,226,212,184,173,158,149,142,133,129,123,118,113,103,95],"timestamp_mouse":[1,33,39,60,80,99,120,139,161,181,199,221,240,261,280,299,319,339,359,380,400,420,440,459,480,500,519,541,560,580,599,620,641,660,680,699,719,740,759,779,799,820,839,860,879,899,920,939,959,980,999,1019,1039,1059,1079,1100,1119,1140,1159,1179,1199,1220],"xSR":741.5,"ySR":469.95,"xT1":424.9,"yT1":0,"xT2":1058.1,"yT2":0,"toosoon":0,"cond_shown":"randomdotsizeEA","ratio_trial":500,"smaller_num":"6","larger_num":"12","correct_side":1,"subjID":"JuanDiegoBeltranVILLEGAS36","gender":"0","age":"12","school":"6"},{"start_time":1551794667786,"click_time":1551794669038,"finger_time":1551794668679,"fix_duration":1165.2712507286906,"trial":34,"RT":893,"MT":359,"sideResp":1,"stimulus":"img/900/equaldotanddens/L/4_Ratio_900_L_20_R_18.png","xmouse":[777,777,777,777,777,777,777,777,777,777,777,778,778,778,778,778,778,778,778,778,778,778,778,778,778,778,778,778,778,778,778,778,778,778,778,778,778,778,778,778,778,778,778,774,751,733,714,691,655,642,630,620,613,597,585,577,570,563,548,539,532,524,518],"ymouse":[496,496,496,496,496,496,496,496,496,496,497,497,497,497,498,498,498,498,498,498,498,498,498,499,499,499,499,499,499,499,499,499,499,499,499,499,499,499,499,499,499,499,498,494,467,445,421,390,338,318,301,288,277,255,239,227,212,196,160,141,122,107,93],"timestamp_mouse":[13,44,52,72,92,114,132,152,172,193,212,232,252,272,292,312,334,352,372,393,413,433,452,473,494,513,533,553,572,592,613,632,653,672,692,712,733,752,773,792,812,833,854,872,893,912,934,952,972,992,1012,1033,1052,1072,1092,1112,1134,1153,1172,1192,1212,1233,1252],"xSR":741.5,"ySR":469.95,"xT1":424.9,"yT1":0,"xT2":1058.1,"yT2":0,"toosoon":0,"cond_shown":"equaldotanddens","ratio_trial":900,"smaller_num":"18","larger_num":"20","correct_side":1,"subjID":"JuanDiegoBeltranVILLEGAS36","gender":"0","age":"12","school":"6"},{"start_time":1551794671175,"click_time":1551794672399,"finger_time":1551794671958,"fix_duration":1234.9103509197012,"trial":35,"RT":783,"MT":441,"sideResp":1,"stimulus":"img/900/equaldotsize/L/10_Ratio_900_L_20_R_18.png","xmouse":[800,800,800,800,800,800,800,800,800,800,800,800,800,800,800,800,800,800,800,800,800,800,800,800,800,800,800,800,800,800,800,800,800,800,800,800,793,784,773,747,725,701,667,635,589,572,565,562,560,556,554,553,551,548,542,537,532,529,525,520,517,515],"ymouse":[514,514,514,514,514,514,514,514,514,514,514,514,514,514,514,514,514,514,514,514,514,514,514,514,514,514,514,514,514,514,514,514,514,514,514,514,504,490,472,426,393,350,301,257,188,168,158,154,151,147,144,142,141,139,133,129,122,117,112,104,101,97],"timestamp_mouse":[10,34,43,64,83,104,125,143,164,184,203,223,243,263,284,304,323,344,363,383,403,424,443,463,483,503,524,544,564,583,603,623,645,663,683,703,724,743,764,783,803,823,843,865,883,904,923,944,964,983,1003,1024,1043,1064,1083,1103,1123,1144,1163,1183,1203,1224],"xSR":741.5,"ySR":469.95,"xT1":424.9,"yT1":0,"xT2":1058.1,"yT2":0,"toosoon":0,"cond_shown":"equaldotsize","ratio_trial":900,"smaller_num":"18","larger_num":"20","correct_side":1,"subjID":"JuanDiegoBeltranVILLEGAS36","gender":"0","age":"12","school":"6"},{"start_time":1551794674685,"click_time":1551794675918,"finger_time":1551794675378,"fix_duration":1366.6069487695638,"trial":36,"RT":693,"MT":540,"sideResp":1,"stimulus":"img/900/randomdotsizeEA/R/11_Ratio_900_L_18_R_20.png","xmouse":[775,775,775,775,775,775,775,775,775,775,775,775,775,775,775,775,775,775,775,775,775,775,775,775,775,775,775,775,775,775,775,773,772,752,740,723,709,695,666,653,634,623,612,594,587,582,573,565,545,530,520,511,502,485,478,474,470,468,465,465,463,463],"ymouse":[508,508,508,508,508,508,508,508,508,508,508,508,508,508,508,508,508,508,508,508,508,508,508,508,508,508,508,508,508,508,508,506,502,472,450,422,394,364,303,281,253,238,226,209,204,199,192,186,171,160,153,147,140,127,120,117,112,109,105,104,102,98],"timestamp_mouse":[13,39,54,73,94,113,133,154,175,193,213,234,254,274,293,315,334,354,374,393,414,434,453,474,493,513,534,553,573,594,613,633,653,674,693,713,733,754,773,793,813,835,854,873,894,913,933,955,973,993,1013,1034,1053,1074,1093,1114,1134,1154,1173,1193,1213,1233],"xSR":741.5,"ySR":469.95,"xT1":424.9,"yT1":0,"xT2":1058.1,"yT2":0,"toosoon":0,"cond_shown":"randomdotsizeEA","ratio_trial":900,"smaller_num":"18","larger_num":"20","correct_side":2,"subjID":"JuanDiegoBeltranVILLEGAS36","gender":"0","age":"12","school":"6"},{"start_time":1551794680214,"click_time":1551794681659,"finger_time":1551794680859,"fix_duration":1414.1923531788154,"trial":37,"RT":645,"MT":800,"sideResp":1,"stimulus":"img/250/equaldotanddens/L/15_Ratio_250_L_12_R_3.png","xmouse":[790,790,790,790,790,790,790,790,790,790,790,790,790,790,790,790,790,790,790,790,790,790,790,790,790,790,790,790,790,788,785,779,746,732,720,713,708,703,701,701,701,701,701,698,696,689,678,653,641,627,614,605,591,585,583,582,582,582,582,582,582,582,580,571,565,556,546,535,531,529,528,527,524],"ymouse":[546,546,546,546,546,546,546,546,546,546,546,546,546,546,546,546,546,546,546,546,546,546,546,546,546,546,546,546,546,542,536,521,445,401,357,332,313,299,297,296,295,294,292,287,283,274,259,228,213,200,189,181,168,162,160,159,159,159,159,159,159,159,156,148,141,130,119,105,99,96,94,93,87],"timestamp_mouse":[10,25,44,66,84,104,126,144,166,184,205,226,244,264,286,305,324,346,365,384,405,425,444,465,484,506,525,545,565,585,604,625,645,666,685,706,724,746,766,785,804,824,844,866,884,904,924,945,964,985,1005,1024,1044,1066,1084,1105,1125,1145,1164,1184,1205,1224,1244,1264,1284,1305,1324,1345,1365,1385,1404,1424,1444],"xSR":741.5,"ySR":469.95,"xT1":424.9,"yT1":0,"xT2":1058.1,"yT2":0,"toosoon":0,"cond_shown":"equaldotanddens","ratio_trial":250,"smaller_num":"3","larger_num":"12","correct_side":1,"subjID":"JuanDiegoBeltranVILLEGAS36","gender":"0","age":"12","school":"6"},{"start_time":1551794685530,"click_time":1551794686679,"finger_time":1551794686279,"fix_duration":1229.9702872501932,"trial":38,"RT":749,"MT":400,"sideResp":1,"stimulus":"img/900/equaldotsize/R/3_Ratio_900_L_9_R_10.png","xmouse":[787,787,787,787,787,787,787,787,787,787,787,787,787,787,787,787,787,787,787,787,787,787,787,787,787,787,787,787,787,787,787,787,787,787,787,787,777,751,732,712,689,633,611,591,575,568,563,561,553,543,534,523,518,512,506,499,492,490],"ymouse":[506,506,506,506,506,506,506,506,506,506,506,506,506,506,506,506,506,506,506,506,506,506,506,506,506,506,506,506,506,506,506,506,506,506,506,506,484,437,405,376,347,278,252,228,210,200,189,186,174,163,154,139,130,123,116,109,100,97],"timestamp_mouse":[9,41,49,69,88,109,130,148,170,188,209,228,249,268,289,308,329,348,368,389,409,429,448,469,488,508,528,549,569,588,608,629,648,668,688,709,728,749,768,788,808,829,849,869,888,909,928,950,968,988,1008,1029,1049,1068,1089,1108,1128,1149],"xSR":741.5,"ySR":469.95,"xT1":424.9,"yT1":0,"xT2":1058.1,"yT2":0,"toosoon":0,"cond_shown":"equaldotsize","ratio_trial":900,"smaller_num":"9","larger_num":"10","correct_side":2,"subjID":"JuanDiegoBeltranVILLEGAS36","gender":"0","age":"12","school":"6"},{"start_time":1551794688010,"click_time":1551794689458,"finger_time":1551794688838,"fix_duration":410.32341008329433,"trial":39,"RT":828,"MT":620,"sideResp":2,"stimulus":"img/900/equaldotanddens/R/12_Ratio_900_L_18_R_20.png","xmouse":[782,782,782,782,782,782,782,782,782,782,782,782,782,782,782,782,782,782,782,782,782,782,782,782,782,782,782,782,782,782,782,782,782,782,782,782,782,782,782,782,784,789,841,893,919,932,937,937,937,941,950,959,970,972,974,978,984,1010,1021,1025,1026,1026,1026,1026,1030,1034,1037,1039,1041,1043,1048,1055,1066],"ymouse":[487,487,487,487,487,487,487,487,487,487,487,487,487,487,487,487,487,487,487,487,487,487,487,484,483,483,483,483,483,483,483,483,483,483,483,483,483,483,483,483,471,455,353,279,243,223,210,198,157,132,110,92,75,73,72,72,72,72,72,72,72,72,72,72,72,72,70,69,69,68,67,67,67],"timestamp_mouse":[9,33,48,69,89,109,128,149,168,189,208,229,248,269,288,309,328,349,368,388,408,430,449,469,488,508,528,549,568,588,609,630,648,668,688,708,730,748,768,788,808,828,848,869,888,908,928,948,968,988,1008,1028,1048,1069,1088,1110,1129,1148,1168,1188,1209,1230,1250,1270,1289,1308,1329,1349,1370,1389,1409,1430,1448],"xSR":741.5,"ySR":469.95,"xT1":424.9,"yT1":0,"xT2":1058.1,"yT2":0,"toosoon":0,"cond_shown":"equaldotanddens","ratio_trial":900,"smaller_num":"18","larger_num":"20","correct_side":2,"subjID":"JuanDiegoBeltranVILLEGAS36","gender":"0","age":"12","school":"6"},{"start_time":1551794690689,"click_time":1551794691978,"finger_time":1551794691579,"fix_duration":250,"trial":40,"RT":890,"MT":399,"sideResp":1,"stimulus":"img/750/equaldotsize/L/9_Ratio_750_L_4_R_3.png","xmouse":[817,817,817,817,817,817,817,817,817,817,817,817,817,817,817,817,817,817,817,817,817,817,817,817,817,817,817,817,817,817,817,817,817,817,817,817,817,817,817,817,817,817,802,790,735,717,706,694,666,656,654,652,648,632,623,616,613,611,601,581,574,566,558,536,524],"ymouse":[502,502,502,502,502,502,502,502,502,502,502,502,502,502,502,502,502,502,502,502,502,502,502,502,502,502,502,502,502,502,502,502,502,502,502,502,502,502,502,502,502,502,487,472,397,372,355,333,275,241,225,215,205,175,159,148,143,140,131,118,111,106,101,88,83],"timestamp_mouse":[9,33,49,69,90,109,129,150,169,191,209,229,249,270,289,309,330,350,369,389,409,430,449,469,490,511,529,550,569,589,609,631,649,670,689,710,729,749,769,790,809,830,850,869,890,911,930,949,969,989,1009,1030,1050,1069,1091,1110,1129,1151,1169,1189,1209,1229,1249,1269,1289],"xSR":741.5,"ySR":469.95,"xT1":424.9,"yT1":0,"xT2":1058.1,"yT2":0,"toosoon":0,"cond_shown":"equaldotsize","ratio_trial":750,"smaller_num":"3","larger_num":"4","correct_side":1,"subjID":"JuanDiegoBeltranVILLEGAS36","gender":"0","age":"12","school":"6"},{"start_time":1551794694611,"click_time":1551794695818,"finger_time":1551794695359,"fix_duration":1452.400218655633,"trial":41,"RT":748,"MT":459,"sideResp":2,"stimulus":"img/750/equaldotsize/R/7_Ratio_750_L_3_R_4.png","xmouse":[804,804,804,804,804,804,804,804,804,804,804,804,804,804,804,804,804,804,804,804,804,804,804,804,804,804,804,804,804,804,804,804,804,804,804,804,807,837,860,885,901,914,939,954,966,982,997,1010,1010,1010,1010,1010,1010,1010,1010,1010,1010,1010,1010,1084,1086],"ymouse":[501,501,501,501,501,501,501,501,501,501,501,501,501,501,501,501,501,501,501,501,501,501,501,501,501,501,501,501,501,501,501,501,501,501,501,501,489,401,335,276,231,194,117,67,41,22,8,1,1,1,1,1,1,1,1,1,1,1,1,0,2],"timestamp_mouse":[8,35,47,67,87,107,127,147,169,189,207,229,248,267,288,308,328,348,367,387,408,427,449,468,488,508,527,548,568,587,609,627,648,668,688,707,727,748,767,789,808,828,847,868,887,908,927,948,968,988,1008,1029,1048,1068,1088,1107,1127,1148,1168,1188,1207],"xSR":741.5,"ySR":469.95,"xT1":424.9,"yT1":0,"xT2":1058.1,"yT2":0,"toosoon":0,"cond_shown":"equaldotsize","ratio_trial":750,"smaller_num":"3","larger_num":"4","correct_side":2,"subjID":"JuanDiegoBeltranVILLEGAS36","gender":"0","age":"12","school":"6"},{"start_time":1551794697225,"click_time":1551794698379,"finger_time":1551794698000,"fix_duration":444.5292441708373,"trial":42,"RT":775,"MT":379,"sideResp":2,"stimulus":"img/500/equaldotanddens/R/2_Ratio_500_L_3_R_6.png","xmouse":[823,823,823,823,823,823,823,823,823,823,823,823,823,823,823,823,823,823,823,823,823,823,823,823,823,823,823,823,823,823,823,823,823,826,830,831,833,835,842,856,879,938,977,997,1011,1016,1019,1020,1020,1021,1022,1026,1034,1038,1043,1051,1068,1076],"ymouse":[522,522,522,522,522,522,522,522,522,522,522,522,522,522,522,522,522,522,522,522,522,522,522,522,522,522,522,522,522,522,522,522,516,504,493,490,488,486,475,455,423,326,273,245,226,217,208,204,201,196,191,177,164,159,152,143,117,90],"timestamp_mouse":[15,38,55,73,94,114,133,154,173,193,214,234,253,273,294,314,333,353,373,393,413,434,454,473,494,513,534,554,575,593,613,634,653,674,694,713,734,753,775,794,814,834,853,873,894,914,933,953,974,994,1014,1033,1053,1073,1094,1113,1134,1154],"xSR":741.5,"ySR":469.95,"xT1":424.9,"yT1":0,"xT2":1058.1,"yT2":0,"toosoon":0,"cond_shown":"equaldotanddens","ratio_trial":500,"smaller_num":"3","larger_num":"6","correct_side":2,"subjID":"JuanDiegoBeltranVILLEGAS36","gender":"0","age":"12","school":"6"},{"start_time":1551794701643,"click_time":1551794702879,"finger_time":1551794702358,"fix_duration":983.3249788330859,"trial":43,"RT":715,"MT":521,"sideResp":1,"stimulus":"img/750/randomdotsizeEA/L/6_Ratio_750_L_24_R_18.png","xmouse":[824,824,824,824,824,824,824,824,824,824,824,824,824,824,824,824,824,824,824,824,824,824,824,824,824,824,824,824,824,824,824,824,824,824,824,813,733,639,579,547,522,516,515,513,513,511,510,510,510,510,510,510,510,510,509,509,509,509,509,508,503,500],"ymouse":[474,474,474,474,474,474,474,474,474,474,474,474,474,474,474,474,474,474,474,474,474,474,474,474,474,474,474,474,474,474,474,474,474,474,474,464,406,327,268,231,196,186,180,171,164,146,137,132,128,127,127,127,127,125,120,117,117,117,117,116,103,96],"timestamp_mouse":[16,36,65,76,95,115,136,155,176,196,216,236,256,275,297,317,336,356,377,396,416,436,456,475,496,515,536,556,575,596,615,636,655,676,695,715,736,756,776,796,815,836,855,876,896,915,935,957,976,995,1015,1035,1056,1075,1095,1116,1136,1157,1176,1195,1216,1236],"xSR":741.5,"ySR":469.95,"xT1":424.9,"yT1":0,"xT2":1058.1,"yT2":0,"toosoon":0,"cond_shown":"randomdotsizeEA","ratio_trial":750,"smaller_num":"18","larger_num":"24","correct_side":1,"subjID":"JuanDiegoBeltranVILLEGAS36","gender":"0","age":"12","school":"6"},{"start_time":1551794705688,"click_time":1551794706779,"finger_time":1551794706419,"fix_duration":1387.164202712697,"trial":44,"RT":731,"MT":360,"sideResp":2,"stimulus":"img/900/equaldotanddens/R/11_Ratio_900_L_18_R_20.png","xmouse":[770,770,770,770,770,770,770,770,770,770,770,770,770,770,770,770,770,770,770,770,770,770,770,770,770,770,770,770,770,770,770,770,770,770,770,776,791,838,925,990,1014,1023,1023,1023,1023,1023,1023,1023,1028,1035,1039,1043,1046,1054,1060],"ymouse":[487,487,487,487,487,487,487,487,487,487,487,487,487,487,487,487,487,487,487,487,487,487,487,487,487,487,487,487,487,487,487,487,487,487,487,478,454,386,255,186,164,156,156,156,156,156,155,153,146,139,135,131,128,114,98],"timestamp_mouse":[10,36,51,71,90,112,130,151,172,191,210,230,250,270,290,310,332,351,371,392,410,431,451,470,492,511,532,550,571,591,610,631,651,670,691,710,731,750,771,791,810,831,851,870,891,910,930,950,970,991,1010,1031,1050,1071,1091],"xSR":741.5,"ySR":469.95,"xT1":424.9,"yT1":0,"xT2":1058.1,"yT2":0,"toosoon":0,"cond_shown":"equaldotanddens","ratio_trial":900,"smaller_num":"18","larger_num":"20","correct_side":2,"subjID":"JuanDiegoBeltranVILLEGAS36","gender":"0","age":"12","school":"6"},{"start_time":1551794708330,"click_time":1551794709479,"finger_time":1551794708959,"fix_duration":769.6437446015236,"trial":45,"RT":629,"MT":520,"sideResp":1,"stimulus":"img/500/equaldotsize/L/11_Ratio_500_L_12_R_6.png","xmouse":[803,803,803,803,803,803,803,803,803,803,803,803,803,803,803,803,803,803,803,803,803,803,803,803,803,803,803,803,800,779,744,652,595,554,532,527,531,534,535,536,538,545,548,551,552,552,552,552,551,551,551,543,540,535,528,516,500,479],"ymouse":[513,513,513,513,513,513,513,513,513,513,513,513,513,513,513,513,513,513,513,513,513,513,513,513,513,513,513,513,513,512,503,450,387,311,252,225,198,193,192,191,187,167,157,145,138,134,131,130,128,128,128,126,125,123,120,113,101,84],"timestamp_mouse":[10,34,48,69,88,108,130,148,168,188,208,228,249,269,288,309,329,348,369,389,408,428,448,470,488,508,529,548,568,588,608,629,648,669,689,709,728,749,768,789,808,829,848,869,889,909,929,949,969,989,1008,1028,1048,1069,1089,1108,1129,1148],"xSR":741.5,"ySR":469.95,"xT1":424.9,"yT1":0,"xT2":1058.1,"yT2":0,"toosoon":0,"cond_shown":"equaldotsize","ratio_trial":500,"smaller_num":"6","larger_num":"12","correct_side":1,"subjID":"JuanDiegoBeltranVILLEGAS36","gender":"0","age":"12","school":"6"},{"start_time":1551794711029,"click_time":1551794711719,"finger_time":1551794711658,"fix_duration":250,"trial":46,"RT":629,"MT":61,"sideResp":2,"stimulus":"img/500/equaldotanddens/R/12_Ratio_500_L_1_R_2.png","xmouse":[790,790,790,790,790,790,790,790,790,790,790,790,790,790,790,790,790,790,790,790,790,790,790,790,790,790,790,790,790,790,792,870,951,1031,1099],"ymouse":[516,516,516,516,516,516,516,516,516,516,516,516,516,516,516,516,516,516,516,516,516,516,516,516,516,516,516,516,516,516,511,381,262,150,72],"timestamp_mouse":[9,37,50,70,89,110,129,150,170,191,209,230,250,270,291,309,329,349,370,389,409,429,451,469,489,509,530,550,569,590,611,629,649,669,690],"xSR":741.5,"ySR":469.95,"xT1":424.9,"yT1":0,"xT2":1058.1,"yT2":0,"toosoon":0,"cond_shown":"equaldotanddens","ratio_trial":500,"smaller_num":"1","larger_num":"2","correct_side":2,"subjID":"JuanDiegoBeltranVILLEGAS36","gender":"0","age":"12","school":"6"},{"start_time":1551794712994,"click_time":1551794714158,"finger_time":1551794713638,"fix_duration":294.49252550003956,"trial":47,"RT":644,"MT":520,"sideResp":2,"stimulus":"img/250/equaldotsize/R/13_Ratio_250_L_2_R_8.png","xmouse":[791,791,791,791,791,791,791,791,791,791,791,791,791,791,791,791,791,791,791,791,791,791,791,791,791,791,791,791,791,791,799,810,837,910,951,962,966,967,970,974,980,987,997,1009,1013,1016,1018,1020,1022,1023,1023,1023,1023,1023,1023,1026,1033,1041,1062],"ymouse":[521,521,521,521,521,521,521,521,521,521,521,521,521,521,521,521,521,521,521,521,521,521,521,521,521,521,521,521,521,521,503,486,441,330,263,246,237,233,216,202,185,170,154,137,131,127,122,120,116,115,115,115,115,115,115,112,107,101,83],"timestamp_mouse":[5,38,44,65,85,106,126,145,166,185,204,224,245,264,285,304,325,344,364,384,404,425,444,464,485,504,526,544,564,585,605,625,644,664,684,704,724,745,765,784,805,824,845,864,885,904,926,944,964,985,1005,1024,1044,1064,1084,1104,1124,1145,1164],"xSR":741.5,"ySR":469.95,"xT1":424.9,"yT1":0,"xT2":1058.1,"yT2":0,"toosoon":0,"cond_shown":"equaldotsize","ratio_trial":250,"smaller_num":"2","larger_num":"8","correct_side":2,"subjID":"JuanDiegoBeltranVILLEGAS36","gender":"0","age":"12","school":"6"},{"start_time":1551794715978,"click_time":1551794717058,"finger_time":1551794716919,"fix_duration":898.5290312975842,"trial":48,"RT":941,"MT":139,"sideResp":2,"stimulus":"img/900/randomdotsizeEA/R/7_Ratio_900_L_9_R_10.png","xmouse":[791,791,791,791,791,791,791,791,791,791,791,791,791,791,791,791,791,791,791,791,791,791,791,791,791,791,791,791,791,792,792,792,793,793,794,794,794,794,794,794,794,794,795,796,799,805,811,820,832,873,903,934,976,1020,1094],"ymouse":[537,537,537,537,537,537,537,537,537,537,537,537,537,537,537,536,536,536,536,536,536,536,536,536,536,536,536,536,534,534,534,534,533,533,532,532,532,532,532,532,532,532,532,531,522,502,484,465,440,366,320,259,192,127,51],"timestamp_mouse":[8,31,41,60,81,101,121,141,161,181,200,220,241,261,280,301,321,341,361,382,400,421,442,460,481,501,522,540,560,580,601,620,642,661,680,700,721,741,761,781,801,821,841,861,880,902,920,941,961,980,1000,1021,1041,1062,1080],"xSR":741.5,"ySR":469.95,"xT1":424.9,"yT1":0,"xT2":1058.1,"yT2":0,"toosoon":0,"cond_shown":"randomdotsizeEA","ratio_trial":900,"smaller_num":"9","larger_num":"10","correct_side":2,"subjID":"JuanDiegoBeltranVILLEGAS36","gender":"0","age":"12","school":"6"},{"start_time":1551794721404,"click_time":1551794722819,"finger_time":1551794722378,"fix_duration":1243.922093049685,"trial":49,"RT":974,"MT":441,"sideResp":2,"stimulus":"img/500/equaldotanddens/R/14_Ratio_500_L_5_R_10.png","xmouse":[785,785,785,785,785,785,785,785,785,785,785,785,785,785,785,785,785,785,785,785,785,785,785,785,785,785,785,785,785,785,785,785,785,785,785,785,785,785,785,785,785,785,785,785,785,785,787,815,842,891,936,974,1010,1016,1018,1018,1018,1018,1018,1018,1021,1026,1043,1049,1051,1052,1053,1059,1065,1070,1077],"ymouse":[526,526,526,526,526,526,526,526,526,526,526,526,526,526,526,526,526,526,526,526,526,526,526,526,526,526,526,526,526,526,526,526,526,526,526,526,526,526,526,526,526,526,526,526,526,524,517,482,450,394,331,276,212,202,199,199,199,199,195,187,179,168,145,138,136,135,134,126,115,106,96],"timestamp_mouse":[15,38,55,76,94,115,135,156,175,194,216,234,255,275,295,315,336,354,374,396,414,436,456,474,496,515,534,555,574,595,616,635,654,675,694,714,734,755,775,794,816,834,855,874,894,916,935,954,974,995,1015,1036,1054,1075,1094,1115,1134,1155,1174,1194,1214,1234,1254,1274,1294,1315,1334,1354,1374,1395,1415],"xSR":741.5,"ySR":469.95,"xT1":424.9,"yT1":0,"xT2":1058.1,"yT2":0,"toosoon":0,"cond_shown":"equaldotanddens","ratio_trial":500,"smaller_num":"5","larger_num":"10","correct_side":2,"subjID":"JuanDiegoBeltranVILLEGAS36","gender":"0","age":"12","school":"6"},{"start_time":1551794725438,"click_time":1551794726938,"finger_time":1551794726758,"fix_duration":597.7053256734837,"trial":50,"RT":1320,"MT":180,"sideResp":2,"stimulus":"img/500/randomdotsizeEA/L/8_Ratio_500_L_8_R_4.png","xmouse":[790,790,790,790,790,790,790,790,790,790,790,790,790,790,790,790,790,790,790,790,790,790,790,790,790,790,790,790,790,790,790,790,790,790,790,790,790,790,790,790,790,790,790,790,790,790,790,790,790,790,790,790,790,790,790,790,790,790,790,790,790,790,790,790,804,814,865,903,941,974,998,1031,1041,1046,1051,1059],"ymouse":[500,500,500,500,500,500,500,500,500,500,500,500,500,500,500,500,500,500,500,500,500,500,500,500,500,500,500,500,500,500,500,500,500,500,500,500,500,500,500,500,500,500,500,500,500,500,500,500,500,500,500,500,500,500,500,500,500,500,500,500,500,500,500,500,489,479,393,324,248,172,108,54,38,31,28,23],"timestamp_mouse":[9,33,40,62,80,100,121,141,162,180,200,220,240,261,281,300,321,341,362,380,400,421,442,460,481,500,520,541,561,580,601,621,640,661,682,701,721,741,761,780,801,820,842,861,880,901,921,942,960,981,1001,1020,1042,1061,1080,1102,1120,1140,1160,1180,1201,1220,1241,1260,1280,1301,1320,1341,1360,1380,1401,1421,1440,1460,1480,1500],"xSR":741.5,"ySR":469.95,"xT1":424.9,"yT1":0,"xT2":1058.1,"yT2":0,"toosoon":0,"cond_shown":"randomdotsizeEA","ratio_trial":500,"smaller_num":"4","larger_num":"8","correct_side":1,"subjID":"JuanDiegoBeltranVILLEGAS36","gender":"0","age":"12","school":"6"},{"start_time":1551794728754,"click_time":1551794729499,"finger_time":1551794729258,"fix_duration":555.744395988005,"trial":51,"RT":504,"MT":241,"sideResp":2,"stimulus":"img/250/equaldotanddens/R/8_Ratio_250_L_1_R_4.png","xmouse":[818,818,818,818,818,818,818,818,818,818,818,818,818,818,818,818,818,818,818,818,818,818,818,817,820,845,890,926,957,984,1010,1021,1032,1047,1057,1075,1082,1084],"ymouse":[519,519,519,519,519,519,519,519,519,519,519,519,519,519,519,519,519,519,519,519,519,519,519,518,513,479,421,371,327,291,247,228,206,180,155,115,100,96],"timestamp_mouse":[9,38,44,64,85,105,125,144,165,184,204,224,245,264,284,305,324,345,364,384,405,424,445,465,486,504,525,545,565,585,606,624,644,664,685,705,725,745],"xSR":741.5,"ySR":469.95,"xT1":424.9,"yT1":0,"xT2":1058.1,"yT2":0,"toosoon":0,"cond_shown":"equaldotanddens","ratio_trial":250,"smaller_num":"1","larger_num":"4","correct_side":2,"subjID":"JuanDiegoBeltranVILLEGAS36","gender":"0","age":"12","school":"6"},{"start_time":1551794732826,"click_time":1551794733820,"finger_time":1551794733440,"fix_duration":666.3059975186583,"trial":52,"RT":614,"MT":380,"sideResp":2,"stimulus":"img/250/equaldotanddens/R/11_Ratio_250_L_3_R_12.png","xmouse":[794,794,794,794,794,794,794,794,794,794,794,794,794,794,794,794,794,794,794,794,794,794,794,794,794,794,794,794,794,804,816,897,951,1019,1052,1074,1083,1083,1083,1083,1083,1083,1084,1084,1084,1084,1084,1085,1086,1087],"ymouse":[505,505,505,505,505,505,505,505,505,505,505,505,505,505,505,505,505,505,505,505,505,505,505,505,505,505,505,505,505,487,468,358,291,207,163,132,114,114,114,114,114,112,109,107,107,107,107,104,101,98],"timestamp_mouse":[14,40,53,72,92,112,134,152,172,193,212,233,253,272,293,313,332,354,372,394,413,434,452,473,492,514,533,552,573,592,614,633,654,672,692,712,733,754,773,792,812,832,854,872,893,913,932,952,973,994],"xSR":741.5,"ySR":469.95,"xT1":424.9,"yT1":0,"xT2":1058.1,"yT2":0,"toosoon":0,"cond_shown":"equaldotanddens","ratio_trial":250,"smaller_num":"3","larger_num":"12","correct_side":2,"subjID":"JuanDiegoBeltranVILLEGAS36","gender":"0","age":"12","school":"6"},{"start_time":1551794736022,"click_time":1551794736958,"finger_time":1551794736658,"fix_duration":1063.5114071510209,"trial":53,"RT":636,"MT":300,"sideResp":2,"stimulus":"img/500/equaldotanddens/R/12_Ratio_500_L_1_R_2.png","xmouse":[790,790,790,790,790,790,790,790,790,790,790,790,790,790,790,790,790,790,790,790,790,790,790,790,790,790,790,790,790,794,814,873,891,891,891,891,891,891,891,891,891,891,891,891,891,891,1113],"ymouse":[547,547,547,547,547,547,547,547,547,547,547,547,547,547,547,547,547,547,547,547,547,547,547,547,547,547,547,547,548,542,479,117,55,55,55,55,55,55,55,55,55,55,55,55,55,55,5],"timestamp_mouse":[17,36,57,78,96,117,138,156,176,197,217,236,257,277,296,316,336,356,376,396,418,437,456,476,498,517,536,556,577,597,617,636,657,677,696,716,737,756,776,796,816,837,856,877,897,916,936],"xSR":741.5,"ySR":469.95,"xT1":424.9,"yT1":0,"xT2":1058.1,"yT2":0,"toosoon":0,"cond_shown":"equaldotanddens","ratio_trial":500,"smaller_num":"1","larger_num":"2","correct_side":2,"subjID":"JuanDiegoBeltranVILLEGAS36","gender":"0","age":"12","school":"6"},{"start_time":1551794739120,"click_time":1551794740398,"finger_time":1551794739838,"fix_duration":900.8718190263211,"trial":54,"RT":718,"MT":560,"sideResp":1,"stimulus":"img/750/equaldotanddens/L/6_Ratio_750_L_24_R_18.png","xmouse":[785,785,785,785,785,785,785,785,785,785,785,785,785,785,785,785,785,785,785,785,785,785,785,785,785,785,785,785,785,785,785,785,785,769,755,720,659,625,613,604,597,595,594,594,594,594,594,590,578,563,546,524,521,520,520,520,519,517,517,516,515,512,510,507],"ymouse":[503,503,503,503,503,503,503,503,503,503,503,503,503,503,503,503,503,503,503,503,503,503,503,503,503,503,503,503,503,503,503,503,503,493,482,462,417,390,375,362,354,343,330,322,321,321,321,307,285,254,216,152,140,138,138,137,131,121,116,112,110,105,100,94],"timestamp_mouse":[19,38,58,78,100,119,138,160,178,199,219,240,260,278,300,318,338,360,379,399,420,440,459,478,498,519,539,559,578,599,619,639,659,678,698,718,738,758,778,799,818,839,858,878,898,918,938,959,978,998,1019,1038,1058,1079,1098,1118,1138,1159,1178,1198,1218,1238,1259,1278],"xSR":741.5,"ySR":469.95,"xT1":424.9,"yT1":0,"xT2":1058.1,"yT2":0,"toosoon":0,"cond_shown":"equaldotanddens","ratio_trial":750,"smaller_num":"18","larger_num":"24","correct_side":1,"subjID":"JuanDiegoBeltranVILLEGAS36","gender":"0","age":"12","school":"6"},{"start_time":1551794743514,"click_time":1551794744719,"finger_time":1551794744358,"fix_duration":1494.7287127058353,"trial":55,"RT":844,"MT":361,"sideResp":2,"stimulus":"img/500/equaldotsize/R/3_Ratio_500_L_10_R_20.png","xmouse":[779,779,779,779,779,779,779,779,779,779,779,779,779,779,779,779,779,779,779,779,779,779,779,779,779,779,779,779,779,779,779,779,779,779,779,779,779,791,807,813,818,820,834,847,865,891,920,961,978,985,990,993,998,999,1002,1009,1018,1039,1051,1058,1062],"ymouse":[532,532,532,532,532,532,532,532,532,532,532,532,532,532,532,532,532,532,532,532,532,532,532,532,532,532,532,532,532,532,532,532,532,532,532,532,529,514,499,494,490,487,468,449,428,395,353,286,251,236,224,216,209,206,203,194,180,143,113,97,90],"timestamp_mouse":[9,25,44,64,84,104,124,145,165,185,205,226,244,264,285,304,326,344,365,384,404,424,445,464,484,504,526,544,566,585,605,624,646,664,686,704,724,744,764,784,806,825,844,865,885,905,925,944,964,984,1005,1026,1044,1064,1085,1104,1124,1145,1164,1184,1205],"xSR":741.5,"ySR":469.95,"xT1":424.9,"yT1":0,"xT2":1058.1,"yT2":0,"toosoon":0,"cond_shown":"equaldotsize","ratio_trial":500,"smaller_num":"10","larger_num":"20","correct_side":2,"subjID":"JuanDiegoBeltranVILLEGAS36","gender":"0","age":"12","school":"6"},{"start_time":1551794746800,"click_time":1551794748199,"finger_time":1551794747558,"fix_duration":879.5363796463131,"trial":56,"RT":758,"MT":641,"sideResp":1,"stimulus":"img/500/equaldotanddens/L/7_Ratio_500_L_10_R_5.png","xmouse":[795,795,795,795,795,795,795,795,795,795,795,795,795,795,795,795,795,795,795,795,795,795,795,795,795,795,795,795,795,795,795,795,795,795,795,789,776,735,701,673,653,637,607,597,586,579,572,563,559,553,549,545,532,502,461,411,383,379,378,378,378,378,378,378,378,378,378,378,430,446],"ymouse":[504,504,504,504,504,504,504,504,504,504,504,504,504,504,504,504,504,504,504,504,504,504,504,504,504,504,504,504,504,504,504,504,504,504,504,504,499,469,446,424,411,398,370,360,346,335,322,307,299,290,285,277,254,186,112,41,11,7,6,6,6,4,0,0,0,0,0,0,0,4],"timestamp_mouse":[18,38,59,79,100,119,139,159,179,199,219,240,258,279,300,318,338,358,379,399,419,439,458,479,498,519,538,558,578,599,619,638,659,679,698,719,739,758,779,798,818,839,858,879,898,918,939,958,978,998,1019,1039,1058,1079,1098,1118,1138,1159,1178,1198,1218,1239,1258,1279,1298,1318,1338,1359,1378,1399],"xSR":741.5,"ySR":469.95,"xT1":424.9,"yT1":0,"xT2":1058.1,"yT2":0,"toosoon":0,"cond_shown":"equaldotanddens","ratio_trial":500,"smaller_num":"5","larger_num":"10","correct_side":1,"subjID":"JuanDiegoBeltranVILLEGAS36","gender":"0","age":"12","school":"6"},{"start_time":1551794750365,"click_time":1551794751678,"finger_time":1551794751098,"fix_duration":886.6236794215655,"trial":57,"RT":733,"MT":580,"sideResp":1,"stimulus":"img/500/equaldotsize/L/4_Ratio_500_L_18_R_9.png","xmouse":[784,784,784,784,784,784,784,784,784,784,784,784,784,784,784,784,784,784,784,784,784,784,784,784,784,784,784,784,784,784,784,784,784,784,783,748,698,645,604,581,557,546,531,514,482,466,457,447,438,424,421,417,414,411,407,407,407,407,407,408,409,410,412,415,423,428],"ymouse":[513,513,513,513,513,513,513,513,513,513,513,513,513,513,513,513,513,513,513,513,513,513,513,513,513,513,513,513,513,513,513,513,513,513,513,489,451,408,370,339,310,303,292,278,248,232,220,205,191,173,165,156,146,134,118,108,102,97,95,89,88,86,82,78,71,69],"timestamp_mouse":[14,41,53,73,94,113,134,153,174,194,215,234,253,273,294,314,334,354,373,395,414,434,455,473,494,513,533,553,573,593,614,634,654,674,693,714,733,753,773,793,813,833,854,873,893,914,933,955,973,993,1013,1033,1053,1073,1093,1113,1133,1153,1174,1194,1213,1233,1253,1274,1293,1313],"xSR":741.5,"ySR":469.95,"xT1":424.9,"yT1":0,"xT2":1058.1,"yT2":0,"toosoon":0,"cond_shown":"equaldotsize","ratio_trial":500,"smaller_num":"9","larger_num":"18","correct_side":1,"subjID":"JuanDiegoBeltranVILLEGAS36","gender":"0","age":"12","school":"6"},{"start_time":1551794753227,"click_time":1551794755619,"finger_time":1551794753959,"fix_duration":728.7299910642884,"trial":58,"RT":732,"MT":1660,"sideResp":1,"stimulus":"img/900/randomdotsizeEA/R/3_Ratio_900_L_9_R_10.png","xmouse":[760,760,760,760,760,760,760,760,760,760,760,760,760,760,760,760,760,760,760,760,760,760,760,760,760,760,760,760,760,760,760,760,760,760,760,763,784,794,810,827,846,877,895,895,895,895,895,895,895,895,895,895,895,895,895,895,895,895,895,895,895,895,895,895,895,895,895,895,895,895,895,895,895,895,895,895,895,895,895,895,895,895,895,895,895,895,895,905,832,760,685,587,581,576,571,563,543,529,514,503,499,496,481,471,464,459,457,457,457,457,456,455,454,454,454,454,452,451,450,450],"ymouse":[511,511,511,511,511,511,511,511,511,511,511,511,511,511,511,511,511,511,511,511,511,511,511,511,511,511,511,511,511,511,511,511,511,511,510,488,412,369,315,253,188,76,13,13,13,13,13,13,13,13,13,13,13,13,13,13,13,13,13,13,13,13,13,13,13,13,13,13,13,13,13,13,13,13,13,13,13,13,13,13,13,13,13,13,13,13,13,3,29,56,89,145,150,153,156,160,166,167,167,167,167,167,159,152,146,142,141,141,141,141,140,139,135,135,135,135,128,118,104,92],"timestamp_mouse":[12,33,53,72,92,112,132,152,171,192,212,232,251,272,292,312,331,352,372,392,411,432,452,472,492,512,532,552,573,593,612,632,651,671,692,711,732,751,771,791,813,831,851,871,892,912,932,951,971,992,1011,1031,1052,1072,1091,1111,1131,1152,1172,1191,1211,1232,1251,1272,1292,1313,1331,1352,1372,1392,1411,1431,1451,1472,1492,1512,1532,1552,1571,1592,1611,1632,1651,1671,1692,1712,1732,1751,1772,1791,1811,1832,1851,1871,1892,1911,1931,1952,1972,1991,2011,2031,2052,2072,2091,2111,2132,2152,2172,2191,2211,2231,2251,2273,2293,2312,2332,2351,2372,2392],"xSR":741.5,"ySR":469.95,"xT1":424.9,"yT1":0,"xT2":1058.1,"yT2":0,"toosoon":0,"cond_shown":"randomdotsizeEA","ratio_trial":900,"smaller_num":"9","larger_num":"10","correct_side":2,"subjID":"JuanDiegoBeltranVILLEGAS36","gender":"0","age":"12","school":"6"},{"start_time":1551794758645,"click_time":1551794759858,"finger_time":1551794759440,"fix_duration":1466.1809326212995,"trial":59,"RT":795,"MT":418,"sideResp":1,"stimulus":"img/750/equaldotsize/R/15_Ratio_750_L_9_R_12.png","xmouse":[809,809,809,809,809,809,809,809,809,809,809,809,809,809,809,809,809,809,809,809,809,809,809,809,809,809,809,809,809,809,809,809,809,809,809,809,809,799,791,774,733,704,693,684,678,671,666,657,644,629,603,589,578,564,549,497,462,446,439,438,437],"ymouse":[497,497,497,497,497,497,497,497,497,497,497,497,497,497,497,497,497,497,497,497,497,497,497,497,497,497,497,497,497,497,497,497,497,497,497,497,497,489,481,461,410,377,364,355,349,339,334,323,310,295,272,259,251,239,225,186,157,137,116,104,99],"timestamp_mouse":[14,35,54,74,93,113,133,153,173,194,214,234,254,273,293,314,334,354,374,394,413,433,453,473,493,513,534,553,573,594,613,633,653,673,694,713,735,753,773,795,813,833,853,874,893,913,935,953,974,994,1013,1035,1053,1075,1094,1113,1133,1154,1174,1193,1213],"xSR":741.5,"ySR":469.95,"xT1":424.9,"yT1":0,"xT2":1058.1,"yT2":0,"toosoon":0,"cond_shown":"equaldotsize","ratio_trial":750,"smaller_num":"9","larger_num":"12","correct_side":2,"subjID":"JuanDiegoBeltranVILLEGAS36","gender":"0","age":"12","school":"6"},{"start_time":1551794761651,"click_time":1551794762859,"finger_time":1551794762419,"fix_duration":491.18003275925804,"trial":60,"RT":768,"MT":440,"sideResp":2,"stimulus":"img/750/equaldotsize/R/2_Ratio_750_L_6_R_8.png","xmouse":[816,816,816,816,816,816,816,816,816,816,816,816,816,816,816,816,816,816,816,816,816,816,816,816,816,816,816,816,816,816,816,816,816,816,816,816,816,812,805,804,821,827,828,828,828,833,843,863,884,904,930,939,945,954,967,991,1002,1012,1025,1037,1070],"ymouse":[522,522,522,522,522,522,522,522,522,522,522,522,522,522,522,522,522,522,522,522,522,522,522,522,522,522,522,522,522,522,522,522,522,522,522,522,522,488,427,380,323,309,308,308,307,301,292,278,266,250,226,215,206,195,178,141,121,103,87,72,32],"timestamp_mouse":[8,33,48,68,88,108,128,147,168,189,209,227,247,267,288,308,327,348,369,387,407,428,447,467,487,508,528,549,567,588,608,628,648,667,687,708,727,747,767,788,807,827,847,869,888,908,927,948,967,987,1007,1027,1047,1068,1088,1107,1127,1147,1167,1187,1207],"xSR":741.5,"ySR":469.95,"xT1":424.9,"yT1":0,"xT2":1058.1,"yT2":0,"toosoon":0,"cond_shown":"equaldotsize","ratio_trial":750,"smaller_num":"6","larger_num":"8","correct_side":2,"subjID":"JuanDiegoBeltranVILLEGAS36","gender":"0","age":"12","school":"6"},{"start_time":1551794765498,"click_time":1551794766539,"finger_time":1551794766139,"fix_duration":1337.105388185882,"trial":61,"RT":641,"MT":400,"sideResp":1,"stimulus":"img/250/equaldotanddens/L/1_Ratio_250_L_8_R_2.png","xmouse":[782,782,782,782,782,782,782,782,782,782,782,782,782,782,782,782,782,782,782,782,782,782,782,782,782,782,782,782,782,782,782,763,729,639,622,617,615,614,613,609,606,605,603,594,586,577,567,556,536,527,516,504,493],"ymouse":[505,505,505,505,505,505,505,505,505,505,505,505,505,505,505,505,505,505,505,505,505,505,505,505,505,505,505,505,505,505,503,485,456,376,356,346,344,342,339,334,330,327,323,306,293,277,260,239,183,159,136,116,96],"timestamp_mouse":[8,21,42,61,81,100,121,140,161,181,201,221,241,261,282,301,320,341,361,382,400,421,441,460,481,502,521,541,561,580,600,620,641,660,680,701,721,742,760,781,800,820,841,860,880,901,920,940,961,980,1000,1020,1041],"xSR":741.5,"ySR":469.95,"xT1":424.9,"yT1":0,"xT2":1058.1,"yT2":0,"toosoon":0,"cond_shown":"equaldotanddens","ratio_trial":250,"smaller_num":"2","larger_num":"8","correct_side":1,"subjID":"JuanDiegoBeltranVILLEGAS36","gender":"0","age":"12","school":"6"},{"start_time":1551794768055,"click_time":1551794769840,"finger_time":1551794768999,"fix_duration":495.9093131535314,"trial":62,"RT":944,"MT":841,"sideResp":1,"stimulus":"img/500/randomdotsizeEA/L/11_Ratio_500_L_12_R_6.png","xmouse":[808,808,808,808,808,808,808,808,808,808,808,808,808,808,808,808,808,808,808,808,808,808,808,808,808,808,808,808,808,808,808,808,808,808,808,808,808,808,808,808,808,808,808,808,807,808,817,830,846,859,875,875,875,875,875,875,875,875,875,875,875,874,853,819,790,727,705,684,664,647,621,602,590,582,574,567,564,560,555,549,542,538,536,533,528,518,517,514,512,510],"ymouse":[538,538,538,538,538,538,538,538,538,538,538,538,538,538,538,538,538,538,538,538,538,538,538,538,538,538,538,538,538,538,538,538,538,538,538,538,538,538,538,538,538,538,538,538,535,502,474,439,412,390,369,369,369,369,369,369,369,369,369,369,369,367,363,356,346,329,319,310,300,292,271,255,245,237,229,221,218,213,206,195,179,171,166,160,150,128,118,109,103,96],"timestamp_mouse":[9,34,43,64,83,104,125,144,164,184,204,225,243,263,285,303,324,343,364,383,404,423,443,463,484,504,523,544,565,583,604,624,643,664,684,704,723,743,763,784,803,824,844,863,883,904,923,944,964,983,1003,1024,1043,1064,1084,1104,1123,1144,1165,1183,1205,1224,1243,1263,1283,1303,1324,1343,1363,1383,1404,1423,1443,1465,1484,1503,1524,1544,1563,1583,1604,1625,1643,1663,1683,1703,1723,1743,1763,1784],"xSR":741.5,"ySR":469.95,"xT1":424.9,"yT1":0,"xT2":1058.1,"yT2":0,"toosoon":0,"cond_shown":"randomdotsizeEA","ratio_trial":500,"smaller_num":"6","larger_num":"12","correct_side":1,"subjID":"JuanDiegoBeltranVILLEGAS36","gender":"0","age":"12","school":"6"},{"start_time":1551794772316,"click_time":1551794773438,"finger_time":1551794773238,"fix_duration":1436.563838557968,"trial":63,"RT":922,"MT":200,"sideResp":2,"stimulus":"img/750/equaldotanddens/R/12_Ratio_750_L_3_R_4.png","xmouse":[774,774,774,774,774,774,774,774,774,774,774,774,774,774,774,774,774,774,774,774,774,774,774,774,774,774,774,774,774,774,774,774,774,774,774,774,774,774,774,774,774,774,775,775,779,784,790,799,804,806,808,814,873,936,993,1037,1074],"ymouse":[512,512,512,512,512,512,512,512,512,512,512,512,512,512,512,512,512,512,512,512,512,512,512,512,512,512,512,512,512,512,512,512,512,512,512,512,512,512,512,512,512,512,512,504,487,471,459,446,440,438,431,418,321,250,188,137,98],"timestamp_mouse":[10,23,42,64,83,102,122,142,162,183,202,223,243,262,282,302,323,342,362,382,402,422,442,462,482,502,523,543,562,582,602,622,643,664,683,703,723,742,764,783,802,823,843,862,883,902,922,942,962,982,1003,1022,1042,1062,1082,1103,1122],"xSR":741.5,"ySR":469.95,"xT1":424.9,"yT1":0,"xT2":1058.1,"yT2":0,"toosoon":0,"cond_shown":"equaldotanddens","ratio_trial":750,"smaller_num":"3","larger_num":"4","correct_side":2,"subjID":"JuanDiegoBeltranVILLEGAS36","gender":"0","age":"12","school":"6"},{"start_time":1551794774985,"click_time":1551794776658,"finger_time":1551794776018,"fix_duration":306.69765210440323,"trial":64,"RT":1033,"MT":640,"sideResp":1,"stimulus":"img/750/randomdotsizeEA/L/8_Ratio_750_L_4_R_3.png","xmouse":[761,761,761,761,761,761,761,761,761,761,761,761,761,761,761,761,761,761,761,761,761,761,761,761,761,761,761,761,761,761,761,761,761,761,761,761,761,761,761,761,761,761,761,761,761,761,761,761,761,760,766,781,797,818,825,827,827,826,807,782,733,680,649,605,591,577,563,554,544,542,540,539,537,535,532,530,529,524,516,514,512,510,509,506],"ymouse":[499,499,499,499,499,499,499,499,499,499,499,499,499,499,499,499,499,499,499,499,499,499,499,499,499,499,499,499,499,499,499,499,499,499,499,499,499,499,499,499,499,499,499,499,499,499,499,499,499,497,488,469,449,415,396,389,381,372,348,332,312,289,276,250,241,232,222,215,206,203,199,193,187,173,162,158,152,145,124,116,109,107,104,99],"timestamp_mouse":[13,37,54,74,94,113,133,153,174,194,213,234,253,273,294,314,333,354,374,394,413,433,453,474,494,514,533,553,575,594,614,633,654,673,693,713,735,754,773,794,813,834,853,874,893,913,933,954,974,994,1015,1033,1053,1074,1095,1113,1133,1153,1174,1193,1213,1234,1253,1274,1294,1313,1333,1353,1373,1393,1413,1433,1454,1473,1493,1513,1535,1553,1573,1594,1613,1633,1655,1673],"xSR":741.5,"ySR":469.95,"xT1":424.9,"yT1":0,"xT2":1058.1,"yT2":0,"toosoon":0,"cond_shown":"randomdotsizeEA","ratio_trial":750,"smaller_num":"3","larger_num":"4","correct_side":1,"subjID":"JuanDiegoBeltranVILLEGAS36","gender":"0","age":"12","school":"6"},{"start_time":1551794779222,"click_time":1551794780658,"finger_time":1551794779919,"fix_duration":1443.8608673396318,"trial":65,"RT":697,"MT":739,"sideResp":1,"stimulus":"img/500/equaldotanddens/L/10_Ratio_500_L_4_R_2.png","xmouse":[749,749,749,749,749,749,749,749,749,749,749,749,749,749,749,749,749,749,749,749,749,749,749,749,749,749,749,749,749,749,749,749,749,749,737,692,608,589,578,571,565,552,547,546,544,542,540,537,534,529,523,514,507,503,501,496,488,486,484,482,480,479,479,479,478,476,470,468,466,465,463,461],"ymouse":[523,523,523,523,523,523,523,523,523,523,523,523,523,523,523,523,523,523,523,523,523,523,523,523,523,523,523,523,523,523,523,523,523,523,522,496,436,417,404,394,386,360,348,342,333,323,306,295,282,268,250,214,192,184,181,173,156,151,148,144,142,140,140,139,138,134,122,117,111,106,101,97],"timestamp_mouse":[16,36,57,77,97,116,136,156,176,196,216,236,257,276,296,316,336,357,378,396,416,436,456,477,496,516,536,557,576,597,616,638,657,676,697,717,736,756,777,796,817,836,858,876,898,916,936,956,976,996,1017,1037,1057,1076,1096,1117,1138,1156,1176,1196,1218,1236,1256,1276,1296,1317,1336,1357,1378,1398,1417,1436],"xSR":741.5,"ySR":469.95,"xT1":424.9,"yT1":0,"xT2":1058.1,"yT2":0,"toosoon":0,"cond_shown":"equaldotanddens","ratio_trial":500,"smaller_num":"2","larger_num":"4","correct_side":1,"subjID":"JuanDiegoBeltranVILLEGAS36","gender":"0","age":"12","school":"