[{"start_time":1551800621276,"click_time":1551800623069,"finger_time":1551800622588,"fix_duration":444.9992409987464,"trial":0,"RT":1312,"MT":481,"sideResp":1,"stimulus":[],"xmouse":[794,794,794,794,794,794,794,794,794,794,794,794,794,794,794,794,794,794,794,794,794,794,794,794,794,794,794,794,794,794,794,794,794,794,794,794,794,794,794,794,794,794,794,794,794,794,794,794,794,794,794,794,794,794,794,794,794,794,794,794,794,794,792,790,767,739,714,702,695,662,644,625,608,589,549,537,530,520,508,502,500,499,498,496,485,480,479,478,477,469],"ymouse":[545,545,545,545,545,545,545,545,545,545,545,545,545,545,545,545,545,545,545,545,545,545,545,545,545,545,545,545,545,545,545,545,545,545,545,545,545,545,545,545,545,545,545,545,545,545,545,545,545,545,545,545,545,545,545,545,545,545,545,545,545,545,544,543,530,507,483,465,452,411,388,365,348,332,299,286,273,256,236,206,192,180,164,146,119,115,114,113,112,95],"timestamp_mouse":[14,33,52,72,93,112,133,153,173,192,212,233,253,272,293,313,333,352,372,392,413,433,452,472,492,512,533,552,572,592,613,632,653,672,693,712,732,752,772,793,812,832,852,872,892,912,933,952,972,993,1013,1033,1053,1072,1092,1112,1133,1152,1172,1192,1213,1233,1252,1272,1292,1312,1332,1352,1373,1392,1413,1432,1452,1472,1492,1512,1532,1552,1572,1592,1613,1632,1652,1672,1693,1712,1732,1752,1773,1792],"xSR":741.5,"ySR":469.95,"xT1":424.9,"yT1":0,"xT2":1058.1,"yT2":0,"toosoon":0,"cond_shown":"Congruent","ratio_trial":300,"L_num":24,"L_den":30,"R_num":8,"R_den":16,"correct_side":1,"subjID":"juandiegoricaurtemesa7","gender":"0","age":"12","school":"6","test":{"fix_dur":[250,1500],"timestim":1000,"targets_dim":[100,100],"targets_relative_coord":[0.3,0.7],"size_stim":[880,420],"start_dim":[100,100],"size_start":[300,300],"size_fix":60,"samplingrate":20,"img_types":["Congruent","Incongruent"],"ratios":[100,200,300],"rep_conds":19,"nTrials":120,"trials_to_rest":500,"Trials_order":[58,96,24,62,72,25,8,48,79,21,84,106,5,19,113,91,17,116,26,78,97,93,36,0,51,49,94,13,55,104,28,4,102,88,40,67,45,1,90,52,16,22,64,32,50,43,77,15,68,83,31,109,2,12,39,54,63,3,46,98,86,87,117,14,82,76,95,53,20,73,56,115,57,18,110,59,71,7,30,23,111,37,47,44,42,114,27,85,34,38,61,6,100,118,11,75,9,33,89,41,74,70,103,29,92,35,65,60,81,108,101,119,69,112,107,66,80,105,10,99],"cond_shown":["Congruent","Congruent","Congruent","Congruent","Congruent","Incongruent","Congruent","Congruent","Incongruent","Incongruent","Congruent","Congruent","Incongruent","Incongruent","Incongruent","Incongruent","Incongruent","Congruent","Congruent","Congruent","Incongruent","Incongruent","Congruent","Congruent","Incongruent","Incongruent","Congruent","Incongruent","Incongruent","Congruent","Congruent","Congruent","Congruent","Congruent","Congruent","Incongruent","Incongruent","Incongruent","Congruent","Congruent","Congruent","Congruent","Congruent","Congruent","Congruent","Incongruent","Incongruent","Incongruent","Congruent","Incongruent","Incongruent","Incongruent","Congruent","Congruent","Incongruent","Congruent","Incongruent","Incongruent","Congruent","Congruent","Congruent","Incongruent","Incongruent","Congruent","Congruent","Congruent","Incongruent","Incongruent","Congruent","Incongruent","Congruent","Incongruent","Incongruent","Congruent","Congruent","Incongruent","Incongruent","Incongruent","Congruent","Incongruent","Incongruent","Incongruent","Incongruent","Congruent","Congruent","Congruent","Incongruent","Incongruent","Congruent","Congruent","Incongruent","Congruent","Congruent","Congruent","Incongruent","Incongruent","Incongruent","Incongruent","Incongruent","Incongruent","Congruent","Congruent","Incongruent","Incongruent","Congruent","Incongruent","Incongruent","Congruent","Incongruent","Congruent","Incongruent","Incongruent","Incongruent","Congruent","Incongruent","Congruent","Congruent","Incongruent","Congruent","Incongruent"],"ratio_trial":[300,100,100,200,100,100,200,100,100,200,100,300,300,100,300,100,300,200,200,100,100,200,100,100,200,100,300,100,100,200,300,300,100,300,300,100,200,100,100,300,300,300,300,200,200,100,300,200,200,300,100,100,200,100,200,100,200,200,300,200,200,200,200,200,300,300,300,300,200,100,200,100,200,100,200,300,300,100,100,300,200,100,300,200,100,100,200,100,300,200,100,100,300,300,300,200,200,200,300,300,200,300,100,300,200,300,300,100,200,100,300,300,200,300,300,100,200,200,300,200],"left_num":[24,6,11,6,1,9,3,6,2,1,1,12,4,12,4,17,4,14,6,1,3,7,2,3,4,8,20,13,10,13,5,1,8,4,24,6,14,11,9,24,1,7,5,1,8,9,4,14,3,3,3,8,9,9,7,3,1,4,2,20,16,14,4,7,8,1,13,4,4,9,13,13,14,11,9,4,2,10,7,2,4,2,1,3,15,11,4,10,20,3,10,6,9,24,7,7,1,3,4,13,6,4,3,8,3,3,13,4,4,11,7,13,7,20,8,11,15,7,20,4],"right_num":[8,15,4,7,18,20,7,15,6,2,18,2,2,9,6,10,8,6,11,3,8,8,11,2,14,6,13,6,8,14,7,6,2,2,2,11,6,9,8,8,7,20,7,21,3,13,2,6,14,4,11,1,13,8,8,4,3,14,12,9,12,12,1,18,10,3,12,8,3,14,14,12,6,6,13,2,6,8,15,6,1,8,2,7,13,4,6,9,14,9,9,5,3,2,8,12,3,1,8,12,7,13,7,14,14,4,12,6,6,4,8,12,4,13,14,4,4,12,13,6],"left_den":[30,12,22,12,2,10,10,12,4,3,2,24,20,24,5,30,5,28,20,2,5,10,5,6,6,16,25,26,25,26,25,5,16,5,30,10,30,22,15,30,20,14,25,2,15,15,20,30,6,6,5,20,30,15,10,20,2,6,10,25,20,30,30,15,15,5,26,5,10,15,26,26,30,22,30,20,4,25,14,4,30,4,2,10,25,22,5,25,25,12,25,20,10,30,10,10,2,10,5,26,12,20,9,10,10,6,26,8,5,22,10,26,15,25,10,22,25,10,25,5],"right_den":[16,25,10,10,30,25,14,25,15,15,30,10,4,15,12,15,16,20,22,5,16,16,22,5,30,10,26,10,16,20,14,12,5,4,4,22,9,15,16,16,20,25,14,30,9,26,4,9,20,20,22,2,26,16,16,16,10,30,24,15,20,18,3,27,12,6,15,16,15,28,20,20,9,15,26,4,30,16,25,30,3,20,10,14,26,10,10,18,28,20,18,25,5,4,20,24,10,2,16,15,10,26,30,28,28,20,15,10,10,10,20,15,6,26,28,10,10,24,26,10],"correct_side":[1,2,1,2,2,1,2,2,1,1,2,1,2,2,1,2,1,1,2,2,1,1,2,1,1,2,1,2,2,2,2,2,1,1,1,1,2,2,1,1,2,2,2,2,1,1,2,2,2,1,1,2,2,1,1,2,1,1,2,1,1,2,2,2,2,2,2,1,1,1,2,2,2,1,2,2,1,2,2,1,2,1,1,2,1,1,1,2,1,2,2,1,1,1,1,1,1,2,1,2,2,2,1,1,2,1,2,2,1,1,1,2,2,1,1,1,1,1,1,1],"img_shown":["img2/300/Congruent/L/C_Dist_300_LN_24_LD_30_RN_8_RD_16_0.png","img2/100/Congruent/R/C_Dist_100_LN_6_LD_12_RN_15_RD_25_1.png","img2/100/Congruent/L/C_Dist_100_LN_11_LD_22_RN_4_RD_10_0.png","img2/200/Congruent/R/C_Dist_200_LN_6_LD_12_RN_7_RD_10_1.png","img2/100/Congruent/R/C_Dist_100_LN_1_LD_2_RN_18_RD_30_1.png","img2/100/Incongruent/L/I_Dist_100_LN_9_LD_10_RN_20_RD_25_0.png","img2/200/Congruent/R/C_Dist_200_LN_3_LD_10_RN_7_RD_14_1.png","img2/100/Congruent/R/C_Dist_100_LN_6_LD_12_RN_15_RD_25_1.png","img2/100/Incongruent/L/I_Dist_100_LN_2_LD_4_RN_6_RD_15_0.png","img2/200/Incongruent/L/I_Dist_200_LN_1_LD_3_RN_2_RD_15_0.png","img2/100/Congruent/R/C_Dist_100_LN_1_LD_2_RN_18_RD_30_1.png","img2/300/Congruent/L/C_Dist_300_LN_12_LD_24_RN_2_RD_10_0.png","img2/300/Incongruent/R/I_Dist_300_LN_4_LD_20_RN_2_RD_4_1.png","img2/100/Incongruent/R/I_Dist_100_LN_12_LD_24_RN_9_RD_15_1.png","img2/300/Incongruent/L/I_Dist_300_LN_4_LD_5_RN_6_RD_12_0.png","img2/100/Incongruent/R/I_Dist_100_LN_17_LD_30_RN_10_RD_15_1.png","img2/300/Incongruent/L/I_Dist_300_LN_4_LD_5_RN_8_RD_16_0.png","img2/200/Congruent/L/C_Dist_200_LN_14_LD_28_RN_6_RD_20_0.png","img2/200/Congruent/R/C_Dist_200_LN_6_LD_20_RN_11_RD_22_1.png","img2/100/Congruent/R/C_Dist_100_LN_1_LD_2_RN_3_RD_5_1.png","img2/100/Incongruent/L/I_Dist_100_LN_3_LD_5_RN_8_RD_16_0.png","img2/200/Incongruent/L/I_Dist_200_LN_7_LD_10_RN_8_RD_16_0.png","img2/100/Congruent/R/C_Dist_100_LN_2_LD_5_RN_11_RD_22_1.png","img2/100/Congruent/L/C_Dist_100_LN_3_LD_6_RN_2_RD_5_0.png","img2/200/Incongruent/L/I_Dist_200_LN_4_LD_6_RN_14_RD_30_0.png","img2/100/Incongruent/R/I_Dist_100_LN_8_LD_16_RN_6_RD_10_1.png","img2/300/Congruent/L/C_Dist_300_LN_20_LD_25_RN_13_RD_26_0.png","img2/100/Incongruent/R/I_Dist_100_LN_13_LD_26_RN_6_RD_10_1.png","img2/100/Incongruent/R/I_Dist_100_LN_10_LD_25_RN_8_RD_16_1.png","img2/200/Congruent/R/C_Dist_200_LN_13_LD_26_RN_14_RD_20_1.png","img2/300/Congruent/R/C_Dist_300_LN_5_LD_25_RN_7_RD_14_1.png","img2/300/Congruent/R/C_Dist_300_LN_1_LD_5_RN_6_RD_12_1.png","img2/100/Congruent/L/C_Dist_100_LN_8_LD_16_RN_2_RD_5_0.png","img2/300/Congruent/L/C_Dist_300_LN_4_LD_5_RN_2_RD_4_0.png","img2/300/Congruent/L/C_Dist_300_LN_24_LD_30_RN_2_RD_4_0.png","img2/100/Incongruent/L/I_Dist_100_LN_6_LD_10_RN_11_RD_22_0.png","img2/200/Incongruent/R/I_Dist_200_LN_14_LD_30_RN_6_RD_9_1.png","img2/100/Incongruent/R/I_Dist_100_LN_11_LD_22_RN_9_RD_15_1.png","img2/100/Congruent/L/C_Dist_100_LN_9_LD_15_RN_8_RD_16_0.png","img2/300/Congruent/L/C_Dist_300_LN_24_LD_30_RN_8_RD_16_0.png","img2/300/Congruent/R/C_Dist_300_LN_1_LD_20_RN_7_RD_20_1.png","img2/300/Congruent/R/C_Dist_300_LN_7_LD_14_RN_20_RD_25_1.png","img2/300/Congruent/R/C_Dist_300_LN_5_LD_25_RN_7_RD_14_1.png","img2/200/Congruent/R/C_Dist_200_LN_1_LD_2_RN_21_RD_30_1.png","img2/200/Congruent/L/C_Dist_200_LN_8_LD_15_RN_3_RD_9_0.png","img2/100/Incongruent/L/I_Dist_100_LN_9_LD_15_RN_13_RD_26_0.png","img2/300/Incongruent/R/I_Dist_300_LN_4_LD_20_RN_2_RD_4_1.png","img2/200/Incongruent/R/I_Dist_200_LN_14_LD_30_RN_6_RD_9_1.png","img2/200/Congruent/R/C_Dist_200_LN_3_LD_6_RN_14_RD_20_1.png","img2/300/Incongruent/L/I_Dist_300_LN_3_LD_6_RN_4_RD_20_0.png","img2/100/Incongruent/L/I_Dist_100_LN_3_LD_5_RN_11_RD_22_0.png","img2/100/Incongruent/R/I_Dist_100_LN_8_LD_20_RN_1_RD_2_1.png","img2/200/Congruent/R/C_Dist_200_LN_9_LD_30_RN_13_RD_26_1.png","img2/100/Congruent/L/C_Dist_100_LN_9_LD_15_RN_8_RD_16_0.png","img2/200/Incongruent/L/I_Dist_200_LN_7_LD_10_RN_8_RD_16_0.png","img2/100/Congruent/R/C_Dist_100_LN_3_LD_20_RN_4_RD_16_1.png","img2/200/Incongruent/L/I_Dist_200_LN_1_LD_2_RN_3_RD_10_0.png","img2/200/Incongruent/L/I_Dist_200_LN_4_LD_6_RN_14_RD_30_0.png","img2/300/Congruent/R/C_Dist_300_LN_2_LD_10_RN_12_RD_24_1.png","img2/200/Congruent/L/C_Dist_200_LN_20_LD_25_RN_9_RD_15_0.png","img2/200/Congruent/L/C_Dist_200_LN_16_LD_20_RN_12_RD_20_0.png","img2/200/Incongruent/R/I_Dist_200_LN_14_LD_30_RN_12_RD_18_1.png","img2/200/Incongruent/R/I_Dist_200_LN_4_LD_30_RN_1_RD_3_1.png","img2/200/Congruent/R/C_Dist_200_LN_7_LD_15_RN_18_RD_27_1.png","img2/300/Congruent/R/C_Dist_300_LN_8_LD_15_RN_10_RD_12_1.png","img2/300/Congruent/R/C_Dist_300_LN_1_LD_5_RN_3_RD_6_1.png","img2/300/Incongruent/R/I_Dist_300_LN_13_LD_26_RN_12_RD_15_1.png","img2/300/Incongruent/L/I_Dist_300_LN_4_LD_5_RN_8_RD_16_0.png","img2/200/Congruent/L/C_Dist_200_LN_4_LD_10_RN_3_RD_15_0.png","img2/100/Incongruent/L/I_Dist_100_LN_9_LD_15_RN_14_RD_28_0.png","img2/200/Congruent/R/C_Dist_200_LN_13_LD_26_RN_14_RD_20_1.png","img2/100/Incongruent/R/I_Dist_100_LN_13_LD_26_RN_12_RD_20_1.png","img2/200/Incongruent/R/I_Dist_200_LN_14_LD_30_RN_6_RD_9_1.png","img2/100/Congruent/L/C_Dist_100_LN_11_LD_22_RN_6_RD_15_0.png","img2/200/Congruent/R/C_Dist_200_LN_9_LD_30_RN_13_RD_26_1.png","img2/300/Incongruent/R/I_Dist_300_LN_4_LD_20_RN_2_RD_4_1.png","img2/300/Incongruent/L/I_Dist_300_LN_2_LD_4_RN_6_RD_30_0.png","img2/100/Incongruent/R/I_Dist_100_LN_10_LD_25_RN_8_RD_16_1.png","img2/100/Congruent/R/C_Dist_100_LN_7_LD_14_RN_15_RD_25_1.png","img2/300/Incongruent/L/I_Dist_300_LN_2_LD_4_RN_6_RD_30_0.png","img2/200/Incongruent/R/I_Dist_200_LN_4_LD_30_RN_1_RD_3_1.png","img2/100/Incongruent/L/I_Dist_100_LN_2_LD_4_RN_8_RD_20_0.png","img2/300/Incongruent/L/I_Dist_300_LN_1_LD_2_RN_2_RD_10_0.png","img2/200/Congruent/R/C_Dist_200_LN_3_LD_10_RN_7_RD_14_1.png","img2/100/Congruent/L/C_Dist_100_LN_15_LD_25_RN_13_RD_26_0.png","img2/100/Congruent/L/C_Dist_100_LN_11_LD_22_RN_4_RD_10_0.png","img2/200/Incongruent/L/I_Dist_200_LN_4_LD_5_RN_6_RD_10_0.png","img2/100/Incongruent/R/I_Dist_100_LN_10_LD_25_RN_9_RD_18_1.png","img2/300/Congruent/L/C_Dist_300_LN_20_LD_25_RN_14_RD_28_0.png","img2/200/Congruent/R/C_Dist_200_LN_3_LD_12_RN_9_RD_20_1.png","img2/100/Incongruent/R/I_Dist_100_LN_10_LD_25_RN_9_RD_18_1.png","img2/100/Congruent/L/C_Dist_100_LN_6_LD_20_RN_5_RD_25_0.png","img2/300/Congruent/L/C_Dist_300_LN_9_LD_10_RN_3_RD_5_0.png","img2/300/Congruent/L/C_Dist_300_LN_24_LD_30_RN_2_RD_4_0.png","img2/300/Incongruent/L/I_Dist_300_LN_7_LD_10_RN_8_RD_20_0.png","img2/200/Incongruent/L/I_Dist_200_LN_7_LD_10_RN_12_RD_24_0.png","img2/200/Incongruent/L/I_Dist_200_LN_1_LD_2_RN_3_RD_10_0.png","img2/200/Incongruent/R/I_Dist_200_LN_3_LD_10_RN_1_RD_2_1.png","img2/300/Incongruent/L/I_Dist_300_LN_4_LD_5_RN_8_RD_16_0.png","img2/300/Incongruent/R/I_Dist_300_LN_13_LD_26_RN_12_RD_15_1.png","img2/200/Congruent/R/C_Dist_200_LN_6_LD_12_RN_7_RD_10_1.png","img2/300/Congruent/R/C_Dist_300_LN_4_LD_20_RN_13_RD_26_1.png","img2/100/Incongruent/L/I_Dist_100_LN_3_LD_9_RN_7_RD_30_0.png","img2/300/Incongruent/L/I_Dist_300_LN_8_LD_10_RN_14_RD_28_0.png","img2/200/Congruent/R/C_Dist_200_LN_3_LD_10_RN_14_RD_28_1.png","img2/300/Incongruent/L/I_Dist_300_LN_3_LD_6_RN_4_RD_20_0.png","img2/300/Incongruent/R/I_Dist_300_LN_13_LD_26_RN_12_RD_15_1.png","img2/100/Congruent/R/C_Dist_100_LN_4_LD_8_RN_6_RD_10_1.png","img2/200/Incongruent/L/I_Dist_200_LN_4_LD_5_RN_6_RD_10_0.png","img2/100/Congruent/L/C_Dist_100_LN_11_LD_22_RN_4_RD_10_0.png","img2/300/Incongruent/L/I_Dist_300_LN_7_LD_10_RN_8_RD_20_0.png","img2/300/Incongruent/R/I_Dist_300_LN_13_LD_26_RN_12_RD_15_1.png","img2/200/Incongruent/R/I_Dist_200_LN_7_LD_15_RN_4_RD_6_1.png","img2/300/Congruent/L/C_Dist_300_LN_20_LD_25_RN_13_RD_26_0.png","img2/300/Incongruent/L/I_Dist_300_LN_8_LD_10_RN_14_RD_28_0.png","img2/100/Congruent/L/C_Dist_100_LN_11_LD_22_RN_4_RD_10_0.png","img2/200/Congruent/L/C_Dist_200_LN_15_LD_25_RN_4_RD_10_0.png","img2/200/Incongruent/L/I_Dist_200_LN_7_LD_10_RN_12_RD_24_0.png","img2/300/Congruent/L/C_Dist_300_LN_20_LD_25_RN_13_RD_26_0.png","img2/200/Incongruent/L/I_Dist_200_LN_4_LD_5_RN_6_RD_10_0.png"],"dist100_C":[["C_Dist_100_LN_10_LD_25_RN_3_RD_10_0.png","C_Dist_100_LN_11_LD_22_RN_4_RD_10_0.png","C_Dist_100_LN_11_LD_22_RN_6_RD_15_0.png","C_Dist_100_LN_15_LD_25_RN_13_RD_26_0.png","C_Dist_100_LN_3_LD_6_RN_2_RD_5_0.png","C_Dist_100_LN_6_LD_20_RN_5_RD_25_0.png","C_Dist_100_LN_8_LD_16_RN_2_RD_5_0.png","C_Dist_100_LN_9_LD_15_RN_8_RD_16_0.png"],["C_Dist_100_LN_1_LD_2_RN_18_RD_30_1.png","C_Dist_100_LN_1_LD_2_RN_3_RD_5_1.png","C_Dist_100_LN_12_LD_30_RN_13_RD_26_1.png","C_Dist_100_LN_2_LD_5_RN_11_RD_22_1.png","C_Dist_100_LN_2_LD_5_RN_6_RD_12_1.png","C_Dist_100_LN_3_LD_20_RN_4_RD_16_1.png","C_Dist_100_LN_4_LD_10_RN_15_RD_30_1.png","C_Dist_100_LN_4_LD_8_RN_6_RD_10_1.png","C_Dist_100_LN_6_LD_12_RN_15_RD_25_1.png","C_Dist_100_LN_7_LD_14_RN_15_RD_25_1.png","C_Dist_100_LN_7_LD_14_RN_9_RD_15_1.png"]],"dist100_I":[["I_Dist_100_LN_1_LD_2_RN_8_RD_20_0.png","I_Dist_100_LN_2_LD_4_RN_6_RD_15_0.png","I_Dist_100_LN_2_LD_4_RN_8_RD_20_0.png","I_Dist_100_LN_3_LD_5_RN_11_RD_22_0.png","I_Dist_100_LN_3_LD_5_RN_8_RD_16_0.png","I_Dist_100_LN_3_LD_6_RN_4_RD_10_0.png","I_Dist_100_LN_3_LD_9_RN_7_RD_30_0.png","I_Dist_100_LN_4_LD_8_RN_8_RD_20_0.png","I_Dist_100_LN_6_LD_10_RN_11_RD_22_0.png","I_Dist_100_LN_6_LD_10_RN_13_RD_26_0.png","I_Dist_100_LN_6_LD_10_RN_7_RD_14_0.png","I_Dist_100_LN_9_LD_10_RN_20_RD_25_0.png","I_Dist_100_LN_9_LD_15_RN_13_RD_26_0.png","I_Dist_100_LN_9_LD_15_RN_14_RD_28_0.png"],["I_Dist_100_LN_10_LD_25_RN_8_RD_16_1.png","I_Dist_100_LN_10_LD_25_RN_9_RD_18_1.png","I_Dist_100_LN_11_LD_22_RN_9_RD_15_1.png","I_Dist_100_LN_12_LD_24_RN_9_RD_15_1.png","I_Dist_100_LN_12_LD_30_RN_2_RD_4_1.png","I_Dist_100_LN_13_LD_26_RN_12_RD_20_1.png","I_Dist_100_LN_13_LD_26_RN_6_RD_10_1.png","I_Dist_100_LN_17_LD_30_RN_10_RD_15_1.png","I_Dist_100_LN_6_LD_12_RN_3_RD_5_1.png","I_Dist_100_LN_8_LD_16_RN_6_RD_10_1.png","I_Dist_100_LN_8_LD_20_RN_1_RD_2_1.png","I_Dist_100_LN_9_LD_18_RN_6_RD_10_1.png"]],"dist100_S":[["E_Dist_100_LN_2_LD_12_RN_2_RD_30_0.png","E_Dist_100_LN_6_LD_10_RN_6_RD_12_0.png"],["E_Dist_100_LN_6_LD_12_RN_6_RD_10_1.png"]],"dist200_C":[["C_Dist_200_LN_11_LD_22_RN_3_RD_10_0.png","C_Dist_200_LN_12_LD_15_RN_6_RD_10_0.png","C_Dist_200_LN_12_LD_20_RN_6_RD_15_0.png","C_Dist_200_LN_14_LD_28_RN_6_RD_20_0.png","C_Dist_200_LN_15_LD_25_RN_4_RD_10_0.png","C_Dist_200_LN_16_LD_20_RN_12_RD_20_0.png","C_Dist_200_LN_16_LD_30_RN_9_RD_27_0.png","C_Dist_200_LN_20_LD_25_RN_9_RD_15_0.png","C_Dist_200_LN_21_LD_30_RN_2_RD_4_0.png","C_Dist_200_LN_4_LD_10_RN_3_RD_15_0.png","C_Dist_200_LN_4_LD_8_RN_3_RD_10_0.png","C_Dist_200_LN_6_LD_15_RN_3_RD_15_0.png","C_Dist_200_LN_7_LD_21_RN_2_RD_15_0.png","C_Dist_200_LN_8_LD_15_RN_2_RD_6_0.png","C_Dist_200_LN_8_LD_15_RN_3_RD_9_0.png","C_Dist_200_LN_8_LD_15_RN_7_RD_21_0.png","C_Dist_200_LN_9_LD_20_RN_4_RD_16_0.png"],["C_Dist_200_LN_1_LD_2_RN_21_RD_30_1.png","C_Dist_200_LN_13_LD_26_RN_14_RD_20_1.png","C_Dist_200_LN_3_LD_10_RN_11_RD_22_1.png","C_Dist_200_LN_3_LD_10_RN_14_RD_28_1.png","C_Dist_200_LN_3_LD_10_RN_7_RD_14_1.png","C_Dist_200_LN_3_LD_12_RN_9_RD_20_1.png","C_Dist_200_LN_3_LD_6_RN_14_RD_20_1.png","C_Dist_200_LN_5_LD_10_RN_14_RD_20_1.png","C_Dist_200_LN_6_LD_12_RN_7_RD_10_1.png","C_Dist_200_LN_6_LD_20_RN_11_RD_22_1.png","C_Dist_200_LN_7_LD_15_RN_18_RD_27_1.png","C_Dist_200_LN_9_LD_30_RN_13_RD_26_1.png"]],"dist200_I":[["I_Dist_200_LN_1_LD_2_RN_3_RD_10_0.png","I_Dist_200_LN_1_LD_3_RN_2_RD_15_0.png","I_Dist_200_LN_3_LD_4_RN_11_RD_20_0.png","I_Dist_200_LN_4_LD_5_RN_6_RD_10_0.png","I_Dist_200_LN_4_LD_6_RN_14_RD_30_0.png","I_Dist_200_LN_7_LD_10_RN_12_RD_24_0.png","I_Dist_200_LN_7_LD_10_RN_14_RD_28_0.png","I_Dist_200_LN_7_LD_10_RN_8_RD_16_0.png"],["I_Dist_200_LN_11_LD_20_RN_3_RD_4_1.png","I_Dist_200_LN_14_LD_30_RN_12_RD_18_1.png","I_Dist_200_LN_14_LD_30_RN_6_RD_9_1.png","I_Dist_200_LN_3_LD_10_RN_1_RD_2_1.png","I_Dist_200_LN_4_LD_30_RN_1_RD_3_1.png","I_Dist_200_LN_6_LD_20_RN_3_RD_6_1.png","I_Dist_200_LN_7_LD_15_RN_4_RD_6_1.png","I_Dist_200_LN_7_LD_15_RN_6_RD_9_1.png","I_Dist_200_LN_9_LD_15_RN_8_RD_10_1.png"]],"dist200_S":[["E_Dist_200_LN_3_LD_6_RN_3_RD_10_0.png"],["E_Dist_200_LN_3_LD_10_RN_3_RD_6_1.png"]],"dist300_C":[["C_Dist_300_LN_11_LD_22_RN_1_RD_5_0.png","C_Dist_300_LN_11_LD_22_RN_2_RD_10_0.png","C_Dist_300_LN_11_LD_22_RN_4_RD_20_0.png","C_Dist_300_LN_12_LD_24_RN_2_RD_10_0.png","C_Dist_300_LN_18_LD_20_RN_9_RD_15_0.png","C_Dist_300_LN_20_LD_25_RN_13_RD_26_0.png","C_Dist_300_LN_20_LD_25_RN_14_RD_28_0.png","C_Dist_300_LN_20_LD_25_RN_5_RD_10_0.png","C_Dist_300_LN_20_LD_25_RN_8_RD_16_0.png","C_Dist_300_LN_20_LD_25_RN_9_RD_18_0.png","C_Dist_300_LN_24_LD_30_RN_2_RD_4_0.png","C_Dist_300_LN_24_LD_30_RN_8_RD_16_0.png","C_Dist_300_LN_3_LD_6_RN_2_RD_10_0.png","C_Dist_300_LN_4_LD_10_RN_1_RD_10_0.png","C_Dist_300_LN_4_LD_5_RN_2_RD_4_0.png","C_Dist_300_LN_8_LD_16_RN_1_RD_5_0.png","C_Dist_300_LN_9_LD_10_RN_3_RD_5_0.png"],["C_Dist_300_LN_1_LD_20_RN_7_RD_20_1.png","C_Dist_300_LN_1_LD_3_RN_19_RD_30_1.png","C_Dist_300_LN_1_LD_30_RN_8_RD_24_1.png","C_Dist_300_LN_1_LD_5_RN_11_RD_22_1.png","C_Dist_300_LN_1_LD_5_RN_3_RD_6_1.png","C_Dist_300_LN_1_LD_5_RN_6_RD_12_1.png","C_Dist_300_LN_2_LD_10_RN_12_RD_24_1.png","C_Dist_300_LN_2_LD_20_RN_10_RD_25_1.png","C_Dist_300_LN_3_LD_12_RN_11_RD_20_1.png","C_Dist_300_LN_3_LD_6_RN_4_RD_5_1.png","C_Dist_300_LN_4_LD_20_RN_13_RD_26_1.png","C_Dist_300_LN_5_LD_25_RN_6_RD_12_1.png","C_Dist_300_LN_5_LD_25_RN_7_RD_14_1.png","C_Dist_300_LN_7_LD_14_RN_20_RD_25_1.png","C_Dist_300_LN_8_LD_15_RN_10_RD_12_1.png"]],"dist300_I":[["I_Dist_300_LN_1_LD_2_RN_2_RD_10_0.png","I_Dist_300_LN_1_LD_2_RN_3_RD_15_0.png","I_Dist_300_LN_2_LD_4_RN_6_RD_30_0.png","I_Dist_300_LN_3_LD_6_RN_4_RD_20_0.png","I_Dist_300_LN_4_LD_5_RN_6_RD_12_0.png","I_Dist_300_LN_4_LD_5_RN_8_RD_16_0.png","I_Dist_300_LN_7_LD_10_RN_8_RD_20_0.png","I_Dist_300_LN_8_LD_10_RN_14_RD_28_0.png","I_Dist_300_LN_8_LD_10_RN_9_RD_18_0.png"],["I_Dist_300_LN_13_LD_26_RN_12_RD_15_1.png","I_Dist_300_LN_4_LD_20_RN_2_RD_4_1.png"]],"dist300_S":[["E_Dist_300_LN_9_LD_12_RN_9_RD_20_0.png"],["E_Dist_300_LN_18_LD_30_RN_18_RD_20_1.png","E_Dist_300_LN_3_LD_10_RN_3_RD_5_1.png","E_Dist_300_LN_9_LD_20_RN_9_RD_12_1.png"]],"dist500_C":[["C_Dist_500_LN_10_LD_13_RN_7_RD_26_0.png","C_Dist_500_LN_10_LD_15_RN_4_RD_24_0.png","C_Dist_500_LN_12_LD_16_RN_3_RD_12_0.png","C_Dist_500_LN_12_LD_18_RN_4_RD_24_0.png","C_Dist_500_LN_15_LD_18_RN_5_RD_15_0.png","C_Dist_500_LN_15_LD_20_RN_1_RD_4_0.png","C_Dist_500_LN_18_LD_27_RN_1_RD_6_0.png","C_Dist_500_LN_20_LD_24_RN_1_RD_3_0.png","C_Dist_500_LN_20_LD_24_RN_3_RD_9_0.png","C_Dist_500_LN_20_LD_24_RN_7_RD_21_0.png","C_Dist_500_LN_20_LD_28_RN_3_RD_14_0.png","C_Dist_500_LN_21_LD_28_RN_6_RD_24_0.png","C_Dist_500_LN_22_LD_28_RN_2_RD_7_0.png","C_Dist_500_LN_25_LD_30_RN_9_RD_27_0.png","C_Dist_500_LN_4_LD_6_RN_1_RD_6_0.png","C_Dist_500_LN_5_LD_6_RN_2_RD_6_0.png","C_Dist_500_LN_6_LD_9_RN_1_RD_6_0.png","C_Dist_500_LN_7_LD_10_RN_1_RD_5_0.png","C_Dist_500_LN_8_LD_12_RN_1_RD_6_0.png","C_Dist_500_LN_8_LD_12_RN_4_RD_24_0.png"],["C_Dist_500_LN_1_LD_4_RN_12_RD_16_1.png","C_Dist_500_LN_1_LD_4_RN_9_RD_12_1.png","C_Dist_500_LN_1_LD_9_RN_11_RD_18_1.png","C_Dist_500_LN_10_LD_24_RN_22_RD_24_1.png","C_Dist_500_LN_2_LD_12_RN_10_RD_15_1.png","C_Dist_500_LN_2_LD_12_RN_12_RD_18_1.png","C_Dist_500_LN_2_LD_12_RN_4_RD_6_1.png","C_Dist_500_LN_2_LD_24_RN_7_RD_12_1.png","C_Dist_500_LN_2_LD_5_RN_18_RD_20_1.png","C_Dist_500_LN_2_LD_5_RN_9_RD_10_1.png","C_Dist_500_LN_2_LD_8_RN_12_RD_16_1.png","C_Dist_500_LN_2_LD_8_RN_21_RD_28_1.png","C_Dist_500_LN_3_LD_10_RN_4_RD_5_1.png","C_Dist_500_LN_3_LD_12_RN_15_RD_20_1.png","C_Dist_500_LN_3_LD_30_RN_6_RD_10_1.png","C_Dist_500_LN_3_LD_8_RN_14_RD_16_1.png","C_Dist_500_LN_4_LD_16_RN_15_RD_20_1.png","C_Dist_500_LN_4_LD_24_RN_12_RD_18_1.png","C_Dist_500_LN_5_LD_14_RN_6_RD_7_1.png","C_Dist_500_LN_7_LD_21_RN_20_RD_24_1.png","C_Dist_500_LN_7_LD_28_RN_12_RD_16_1.png","C_Dist_500_LN_7_LD_28_RN_9_RD_12_1.png","C_Dist_500_LN_9_LD_27_RN_20_RD_24_1.png"]],"dist500_I":[["I_Dist_500_LN_2_LD_3_RN_4_RD_24_0.png","I_Dist_500_LN_5_LD_6_RN_6_RD_18_0.png","I_Dist_500_LN_7_LD_8_RN_9_RD_24_0.png"],["I_Dist_500_LN_7_LD_21_RN_5_RD_6_1.png"]],"dist500_S":[["E_Dist_500_LN_6_LD_8_RN_6_RD_24_0.png"],["E_Dist_500_LN_2_LD_12_RN_2_RD_3_1.png","E_Dist_500_LN_6_LD_24_RN_6_RD_8_1.png"]]}},{"start_time":1551800625297,"click_time":1551800627008,"finger_time":1551800626468,"fix_duration":1408.2546144781218,"trial":1,"RT":1171,"MT":540,"sideResp":2,"stimulus":[],"xmouse":[790,790,790,790,790,790,790,790,790,790,790,790,790,790,790,790,790,790,790,790,790,790,790,790,790,790,790,790,790,790,790,790,790,790,790,790,790,790,790,790,790,790,790,790,790,790,790,790,790,790,790,790,790,790,793,799,809,813,829,830,830,832,840,853,853,853,856,862,888,903,920,931,944,981,1014,1074,1139,1175,1190,1190,1190,1190,1190,1180,1168,1156],"ymouse":[532,532,532,532,532,532,532,532,532,532,532,532,532,532,532,532,532,532,532,532,532,532,532,532,532,532,532,532,532,532,532,532,532,532,532,532,532,532,532,532,532,532,532,532,532,532,532,532,532,532,532,532,532,532,524,513,489,471,429,412,389,361,327,268,243,224,209,191,162,154,148,145,141,135,130,120,103,92,87,87,87,87,87,72,66,64],"timestamp_mouse":[11,37,51,71,91,111,131,151,171,191,212,231,251,271,291,311,331,351,371,391,411,431,451,471,491,511,531,551,571,591,611,633,652,672,691,711,732,751,771,791,811,831,852,871,892,911,931,952,971,991,1011,1031,1051,1071,1091,1111,1131,1151,1171,1191,1211,1231,1251,1271,1292,1311,1331,1351,1371,1392,1411,1431,1451,1472,1491,1511,1531,1551,1572,1592,1611,1631,1651,1671,1691,1711],"xSR":741.5,"ySR":469.95,"xT1":424.9,"yT1":0,"xT2":1058.1,"yT2":0,"toosoon":0,"cond_shown":"Congruent","ratio_trial":100,"L_num":6,"L_den":12,"R_num":15,"R_den":25,"correct_side":2,"subjID":"juandiegoricaurtemesa7","gender":"0","school":"6","age":"12"},{"start_time":1551800628354,"click_time":1551800630068,"finger_time":1551800629668,"fix_duration":445.8711089628139,"trial":2,"RT":1314,"MT":400,"sideResp":1,"stimulus":[],"xmouse":[825,825,825,825,825,825,825,825,825,825,825,825,825,825,825,825,825,825,825,825,825,825,825,825,825,825,825,825,825,825,825,825,825,825,824,816,808,801,798,798,798,798,798,798,798,798,798,798,798,798,798,798,798,798,798,798,798,798,798,798,798,798,798,798,798,789,767,739,722,704,645,597,554,518,492,466,465,465,465,465,465,465,468,470,474,485],"ymouse":[514,514,514,514,514,514,514,514,514,514,514,514,514,514,514,514,514,514,514,514,514,514,514,514,514,514,514,514,514,514,514,514,514,514,514,506,497,486,482,482,482,482,482,482,482,482,482,482,482,482,482,482,482,482,482,482,482,482,482,482,482,482,482,482,481,460,422,379,354,329,270,234,206,188,174,156,156,156,156,154,145,124,120,115,110,86],"timestamp_mouse":[16,45,54,74,95,114,134,154,175,195,214,234,254,275,295,315,334,354,374,395,415,434,454,475,494,514,535,554,575,595,614,634,654,674,695,714,734,755,774,795,814,835,855,874,895,914,935,955,974,994,1015,1035,1054,1074,1094,1114,1134,1155,1174,1194,1215,1234,1255,1275,1294,1314,1335,1354,1375,1394,1414,1434,1454,1474,1494,1514,1534,1555,1574,1594,1614,1635,1654,1674,1694,1714],"xSR":741.5,"ySR":469.95,"xT1":424.9,"yT1":0,"xT2":1058.1,"yT2":0,"toosoon":0,"cond_shown":"Congruent","ratio_trial":100,"L_num":11,"L_den":22,"R_num":4,"R_den":10,"correct_side":1,"subjID":"juandiegoricaurtemesa7","gender":"0","school":"6","age":"12"},{"start_time":1551800632318,"click_time":1551800633567,"finger_time":1551800633087,"fix_duration":1228.358822355818,"trial":3,"RT":769,"MT":480,"sideResp":2,"stimulus":[],"xmouse":[795,795,795,795,795,795,795,795,795,795,795,795,795,795,795,795,795,795,795,795,795,795,795,795,795,795,795,795,795,795,795,795,795,795,795,795,797,800,819,828,838,857,898,910,919,924,930,943,959,975,990,1001,1017,1024,1028,1033,1037,1042,1042,1042,1044,1052,1068],"ymouse":[492,492,492,492,492,492,492,492,492,492,492,492,492,492,492,492,492,492,492,492,492,492,492,492,492,492,492,492,492,492,492,492,492,492,492,492,491,487,459,442,418,377,319,309,299,292,282,254,225,205,188,178,156,144,136,126,120,112,112,112,110,98,76],"timestamp_mouse":[10,33,49,69,89,109,129,150,171,190,209,229,249,269,289,309,329,350,370,389,411,430,450,470,491,511,530,550,570,589,611,630,650,670,690,710,729,749,769,789,809,829,849,870,890,909,929,949,969,990,1010,1029,1049,1070,1089,1110,1130,1149,1169,1189,1209,1230,1249],"xSR":741.5,"ySR":469.95,"xT1":424.9,"yT1":0,"xT2":1058.1,"yT2":0,"toosoon":0,"cond_shown":"Congruent","ratio_trial":200,"L_num":6,"L_den":12,"R_num":7,"R_den":10,"correct_side":2,"subjID":"juandiegoricaurtemesa7","gender":"0","school":"6","age":"12"},{"start_time":1551800634973,"click_time":1551800637668,"finger_time":1551800635767,"fix_duration":705.487471443498,"trial":4,"RT":794,"MT":1901,"sideResp":2,"stimulus":[],"xmouse":[798,798,798,798,798,798,798,798,798,798,798,798,798,798,798,798,798,798,798,798,798,798,798,798,798,798,798,798,798,798,798,798,798,798,798,793,786,777,767,753,751,751,751,751,751,751,751,751,751,750,748,746,745,744,737,728,711,687,658,614,598,587,583,582,582,582,580,578,574,568,565,562,557,553,545,542,539,537,537,537,537,537,537,537,538,576,604,627,643,651,660,665,671,681,716,748,810,878,934,957,957,957,957,958,959,971,976,979,983,1006,1020,1029,1034,1034,1034,1036,1044,1051,1056,1058,1058,1058,1058,1058,1058,1058,1058,1058,1058,1058,1058,1058,1058,1058,1060],"ymouse":[515,515,515,515,515,515,515,515,515,515,515,515,515,515,515,515,515,515,515,515,515,515,515,515,515,515,515,515,515,515,515,515,515,515,514,506,495,483,470,457,456,456,456,456,456,456,456,456,456,454,450,446,444,443,427,408,379,344,309,256,235,219,211,208,202,200,196,187,176,161,154,148,141,137,127,125,122,121,121,121,121,121,121,121,121,131,135,140,144,145,146,147,148,148,149,146,138,138,139,146,146,146,146,146,146,141,132,128,124,105,95,87,84,84,84,84,82,79,78,77,77,77,77,77,77,77,77,77,77,77,77,77,77,77,77],"timestamp_mouse":[14,40,54,75,94,114,134,156,175,195,215,234,256,275,294,314,334,355,375,395,415,434,455,474,494,514,535,555,574,594,616,634,656,675,694,714,734,754,774,794,815,836,854,874,894,916,935,954,974,994,1014,1034,1055,1074,1094,1114,1135,1154,1175,1194,1215,1235,1255,1275,1294,1314,1334,1355,1374,1394,1415,1434,1454,1475,1494,1516,1535,1554,1574,1595,1615,1635,1654,1674,1694,1714,1734,1756,1774,1794,1814,1835,1855,1875,1894,1915,1936,1954,1974,1994,2014,2034,2055,2074,2094,2114,2135,2154,2174,2194,2214,2235,2256,2276,2295,2315,2334,2354,2374,2395,2415,2434,2454,2475,2494,2515,2535,2554,2575,2595,2614,2634,2654,2676,2695],"xSR":741.5,"ySR":469.95,"xT1":424.9,"yT1":0,"xT2":1058.1,"yT2":0,"toosoon":0,"cond_shown":"Congruent","ratio_trial":100,"L_num":1,"L_den":2,"R_num":18,"R_den":30,"correct_side":2,"subjID":"juandiegoricaurtemesa7","gender":"0","school":"6","age":"12"},{"start_time":1551800639452,"click_time":1551800640428,"finger_time":1551800640067,"fix_duration":1042.3590113403504,"trial":5,"RT":615,"MT":361,"sideResp":1,"stimulus":[],"xmouse":[759,759,759,759,759,759,759,759,759,759,759,759,759,759,759,759,759,759,759,759,759,759,759,759,759,756,753,752,752,749,736,709,675,633,580,515,508,503,498,491,480,477,476,476,476,476,476,479,483],"ymouse":[533,533,533,533,533,533,533,533,533,533,533,533,533,533,533,533,533,533,533,533,533,533,533,533,533,533,533,534,533,529,502,451,397,337,275,216,204,192,176,157,130,121,117,116,115,115,112,102,91],"timestamp_mouse":[33,35,55,75,96,116,135,155,175,196,215,236,256,276,296,316,335,355,375,395,415,436,456,475,496,515,535,557,576,596,615,636,656,675,695,715,737,755,775,795,815,836,855,875,895,915,935,955,975],"xSR":741.5,"ySR":469.95,"xT1":424.9,"yT1":0,"xT2":1058.1,"yT2":0,"toosoon":0,"cond_shown":"Incongruent","ratio_trial":100,"L_num":9,"L_den":10,"R_num":20,"R_den":25,"correct_side":1,"subjID":"juandiegoricaurtemesa7","gender":"0","school":"6","age":"12"},{"start_time":1551800642065,"click_time":1551800643629,"finger_time":1551800643087,"fix_duration":1055.4543419081588,"trial":6,"RT":1022,"MT":542,"sideResp":2,"stimulus":[],"xmouse":[765,765,765,765,765,765,765,765,765,765,765,765,765,765,765,765,765,765,765,765,765,765,765,765,765,765,765,765,765,765,765,765,765,765,765,765,765,765,765,765,765,767,767,767,767,767,768,768,768,768,769,776,782,795,813,863,882,891,895,899,906,908,912,918,927,940,942,943,946,951,971,1008,1031,1048,1053,1055,1055,1056,1059],"ymouse":[483,483,483,483,483,483,483,483,483,483,483,483,483,483,483,483,483,483,483,483,483,483,483,483,483,483,483,483,483,483,483,483,483,483,483,483,483,483,483,483,483,483,481,480,480,480,476,476,476,476,476,459,435,404,363,269,237,220,213,207,189,185,177,166,152,136,134,134,132,130,119,99,86,80,77,76,76,76,74],"timestamp_mouse":[8,32,42,62,83,102,122,142,162,183,203,222,242,262,282,302,322,342,362,382,402,423,442,462,482,502,522,542,563,583,603,623,644,662,683,703,722,743,763,783,802,822,842,862,882,902,922,943,962,983,1002,1022,1042,1062,1082,1102,1123,1143,1162,1182,1202,1222,1243,1262,1282,1302,1322,1343,1362,1382,1402,1424,1442,1462,1483,1503,1522,1544,1564],"xSR":741.5,"ySR":469.95,"xT1":424.9,"yT1":0,"xT2":1058.1,"yT2":0,"toosoon":0,"cond_shown":"Congruent","ratio_trial":200,"L_num":3,"L_den":10,"R_num":7,"R_den":14,"correct_side":2,"subjID":"juandiegoricaurtemesa7","gender":"0","school":"6","age":"12"},{"start_time":1551800645308,"click_time":1551800646827,"finger_time":1551800646247,"fix_duration":919.3166967924766,"trial":7,"RT":939,"MT":580,"sideResp":2,"stimulus":[],"xmouse":[787,787,787,787,787,787,787,787,787,787,787,787,787,787,787,787,787,787,787,787,787,787,787,787,787,787,787,787,787,787,787,787,787,787,787,787,787,787,787,787,787,787,787,787,791,807,858,967,1013,1037,1047,1056,1091,1117,1143,1158,1167,1171,1172,1173,1173,1173,1167,1158,1151,1150,1149,1147,1144,1143,1140,1137,1135,1132,1130,1129],"ymouse":[544,544,544,544,544,544,544,544,544,544,544,544,544,544,544,544,544,544,544,544,544,544,544,544,544,544,544,544,544,544,544,544,544,544,544,544,544,544,544,544,544,544,544,544,544,544,532,493,474,460,451,439,391,363,334,309,291,263,252,238,221,202,168,155,147,144,144,135,126,123,119,115,110,105,100,98],"timestamp_mouse":[20,42,60,80,100,120,140,159,180,200,221,240,260,280,300,319,341,359,379,400,420,439,460,480,500,520,540,560,579,600,620,640,660,681,699,719,739,759,779,799,821,840,859,881,900,919,939,960,979,999,1019,1040,1059,1079,1099,1119,1140,1159,1180,1199,1219,1240,1259,1279,1299,1319,1340,1359,1379,1400,1420,1440,1459,1480,1499,1519],"xSR":741.5,"ySR":469.95,"xT1":424.9,"yT1":0,"xT2":1058.1,"yT2":0,"toosoon":0,"cond_shown":"Congruent","ratio_trial":100,"L_num":6,"L_den":12,"R_num":15,"R_den":25,"correct_side":2,"subjID":"juandiegoricaurtemesa7","gender":"0","school":"6","age":"12"},{"start_time":1551800649111,"click_time":1551800651687,"finger_time":1551800650467,"fix_duration":1442.3868425186745,"trial":8,"RT":1356,"MT":1220,"sideResp":1,"stimulus":[],"xmouse":[770,770,770,770,770,770,770,770,770,770,770,770,770,770,770,770,770,770,770,770,770,770,770,770,770,770,770,770,770,770,770,770,770,770,770,770,770,770,770,770,770,770,770,770,770,770,770,770,770,770,770,770,770,770,770,770,770,770,770,770,770,770,770,770,770,769,765,724,686,641,601,578,559,557,557,557,557,557,557,557,557,557,557,557,557,557,557,557,557,557,557,557,557,557,560,574,629,845,893,911,912,912,912,912,912,912,912,912,912,912,912,912,900,880,851,817,784,743,733,716,700,687,673,664,650,632,608,538,499],"ymouse":[507,507,507,507,507,507,507,507,507,507,507,507,507,507,507,507,507,507,507,507,507,507,507,507,507,507,507,507,507,507,507,507,507,507,507,507,507,507,507,507,507,507,507,507,507,507,507,507,507,507,507,507,507,507,507,507,507,507,507,507,507,507,507,507,507,503,497,410,341,280,232,207,195,193,193,193,193,193,193,193,193,193,193,193,193,193,193,193,193,193,193,193,193,193,196,200,215,273,287,290,290,290,290,290,290,290,290,290,290,290,290,291,292,292,292,290,281,264,254,234,211,193,174,162,143,123,98,46,21],"timestamp_mouse":[16,36,57,76,98,117,137,157,176,196,217,237,256,276,296,317,337,356,377,396,416,436,456,477,496,517,537,556,576,597,617,636,656,678,697,717,737,757,778,797,817,837,857,876,898,917,937,957,978,997,1016,1037,1057,1078,1097,1116,1137,1156,1177,1197,1217,1237,1256,1276,1297,1316,1336,1356,1376,1397,1416,1437,1457,1476,1497,1517,1536,1557,1576,1597,1617,1637,1657,1677,1696,1716,1736,1757,1776,1796,1818,1837,1857,1876,1896,1916,1937,1957,1977,1996,2017,2037,2056,2078,2096,2116,2137,2157,2176,2196,2217,2236,2256,2276,2297,2316,2337,2356,2376,2396,2416,2438,2456,2476,2497,2516,2537,2556,2576],"xSR":741.5,"ySR":469.95,"xT1":424.9,"yT1":0,"xT2":1058.1,"yT2":0,"toosoon":0,"cond_shown":"Incongruent","ratio_trial":100,"L_num":2,"L_den":4,"R_num":6,"R_den":15,"correct_side":1,"subjID":"juandiegoricaurtemesa7","gender":"0","school":"6","age":"12"},{"start_time":1551800653665,"click_time":1551800655567,"finger_time":1551800654507,"fix_duration":1196.9918579730738,"trial":9,"RT":842,"MT":1060,"sideResp":1,"stimulus":[],"xmouse":[793,793,793,793,793,793,793,793,793,793,793,793,793,793,793,793,793,793,793,793,793,793,793,793,793,793,793,793,793,793,793,793,793,793,793,793,793,793,793,793,795,800,820,836,845,854,866,880,905,934,958,958,958,958,958,958,958,958,957,957,915,892,869,847,830,804,798,794,793,791,783,780,778,776,771,764,758,749,736,723,712,710,708,704,695,670,655,640,624,606,569,538,523,510,503,493],"ymouse":[524,524,524,524,524,524,524,524,524,524,524,524,524,524,524,524,524,524,524,524,524,524,524,524,524,524,524,524,524,524,524,524,524,524,524,524,524,524,524,523,501,491,454,428,417,407,390,365,331,292,261,260,260,260,260,260,260,260,260,260,286,299,312,322,329,340,343,345,345,347,353,354,356,357,358,358,357,349,335,317,303,302,302,300,296,281,270,255,238,226,202,176,154,132,114,82],"timestamp_mouse":[10,32,43,63,82,102,123,142,162,183,202,222,242,262,282,303,323,342,363,384,402,422,443,462,482,502,522,542,562,582,602,622,642,662,682,703,722,742,764,782,802,824,842,862,882,902,923,942,963,982,1003,1023,1042,1063,1083,1103,1123,1142,1162,1184,1202,1223,1243,1262,1283,1303,1323,1342,1362,1382,1403,1423,1443,1462,1483,1502,1523,1542,1563,1583,1602,1623,1643,1662,1682,1702,1722,1743,1762,1783,1802,1823,1842,1863,1883,1902],"xSR":741.5,"ySR":469.95,"xT1":424.9,"yT1":0,"xT2":1058.1,"yT2":0,"toosoon":0,"cond_shown":"Incongruent","ratio_trial":200,"L_num":1,"L_den":3,"R_num":2,"R_den":15,"correct_side":1,"subjID":"juandiegoricaurtemesa7","gender":"0","school":"6","age":"12"},{"start_time":1551800656659,"click_time":1551800658507,"finger_time":1551800658087,"fix_duration":250,"trial":10,"RT":1428,"MT":420,"sideResp":2,"stimulus":[],"xmouse":[799,799,799,799,799,799,799,799,799,799,799,799,799,798,797,795,795,795,795,795,795,795,795,795,795,795,795,795,795,795,795,795,795,795,795,795,795,795,795,795,795,795,795,795,795,795,795,795,795,795,795,795,795,795,795,795,795,795,795,795,795,795,795,795,795,795,795,795,795,795,802,859,934,997,1034,1062,1065,1067,1072,1084,1138,1169,1182,1185,1187,1189,1190,1191,1191,1190,1189,1179,1156],"ymouse":[540,540,540,540,540,540,540,540,540,540,540,540,540,540,540,540,540,540,540,540,540,540,540,540,540,540,540,540,540,540,540,540,540,540,540,540,540,540,540,540,540,540,540,540,540,540,540,540,540,540,540,540,540,540,540,540,540,540,540,540,540,540,540,540,540,540,540,540,540,540,539,515,482,451,423,386,379,374,361,331,204,133,103,85,75,59,52,38,23,15,12,15,27],"timestamp_mouse":[10,38,48,68,88,108,128,150,169,189,208,228,249,268,288,308,330,348,369,388,408,428,448,468,488,509,528,548,568,589,609,629,650,669,689,708,728,748,768,788,808,828,849,868,888,908,928,948,968,988,1009,1029,1048,1069,1089,1109,1130,1149,1169,1189,1208,1228,1248,1269,1288,1308,1328,1350,1369,1389,1408,1428,1449,1468,1488,1508,1529,1548,1568,1589,1608,1628,1648,1669,1688,1708,1728,1748,1768,1788,1808,1829,1848],"xSR":741.5,"ySR":469.95,"xT1":424.9,"yT1":0,"xT2":1058.1,"yT2":0,"toosoon":0,"cond_shown":"Congruent","ratio_trial":100,"L_num":1,"L_den":2,"R_num":18,"R_den":30,"correct_side":2,"subjID":"juandiegoricaurtemesa7","gender":"0","school":"6","age":"12"},{"start_time":1551800659809,"click_time":1551800661488,"finger_time":1551800661007,"fix_duration":500.4461522554126,"trial":11,"RT":1198,"MT":481,"sideResp":1,"stimulus":[],"xmouse":[805,805,805,805,805,805,805,805,805,805,805,805,805,805,805,805,805,805,805,805,805,805,805,805,805,805,805,805,805,805,805,805,805,805,805,805,805,805,805,805,805,805,805,805,805,805,805,805,805,805,805,805,805,805,805,806,807,808,806,797,788,778,767,761,754,741,725,678,655,639,624,611,579,573,565,558,552,548,544,541,541,541,530,506],"ymouse":[507,507,507,507,507,507,507,507,507,507,507,507,507,507,507,507,507,507,507,507,507,507,507,507,507,507,507,507,507,507,507,507,507,507,507,507,507,507,507,507,507,507,507,507,507,507,507,507,507,507,507,507,507,507,507,507,507,491,472,450,430,413,389,376,359,334,305,238,211,191,172,150,87,72,56,44,30,11,4,1,1,1,0,13],"timestamp_mouse":[20,39,59,79,98,120,139,159,178,199,219,239,258,278,298,318,338,358,378,398,418,438,459,478,498,518,539,559,578,599,619,639,658,678,699,719,739,758,778,798,818,838,858,879,899,919,938,958,979,998,1018,1039,1058,1078,1098,1119,1139,1158,1178,1198,1218,1238,1258,1278,1298,1319,1338,1358,1378,1398,1418,1439,1459,1480,1498,1518,1539,1558,1578,1599,1619,1648,1658,1678],"xSR":741.5,"ySR":469.95,"xT1":424.9,"yT1":0,"xT2":1058.1,"yT2":0,"toosoon":0,"cond_shown":"Congruent","ratio_trial":300,"L_num":12,"L_den":24,"R_num":2,"R_den":10,"correct_side":1,"subjID":"juandiegoricaurtemesa7","gender":"0","school":"6","age":"12"},{"start_time":1551800665384,"click_time":1551800667188,"finger_time":1551800666767,"fix_duration":1393.920563699279,"trial":12,"RT":1383,"MT":421,"sideResp":2,"stimulus":[],"xmouse":[811,811,811,811,811,811,811,811,811,811,811,811,811,811,811,811,811,811,811,811,811,811,811,811,811,811,811,811,811,811,811,811,811,811,811,811,811,811,811,811,811,811,811,811,811,811,811,811,811,811,811,811,811,811,811,811,811,811,811,811,811,811,811,811,811,811,811,811,812,872,914,937,947,949,950,956,965,975,986,1003,1006,1007,1008,1012,1024,1028,1030,1032,1034,1054,1065],"ymouse":[507,507,507,507,507,507,507,507,507,507,507,507,507,507,507,507,507,507,507,507,507,507,507,507,507,507,507,507,507,507,507,507,507,507,507,507,507,507,507,507,507,507,507,507,507,507,507,507,507,507,507,507,507,507,507,507,507,507,507,507,507,507,507,507,507,507,507,507,509,476,452,438,429,425,407,367,331,305,281,237,221,211,199,186,159,150,146,141,137,106,93],"timestamp_mouse":[10,30,44,63,83,103,123,144,164,184,205,224,244,264,283,304,323,344,363,383,403,423,443,464,483,503,523,543,563,583,605,623,644,663,683,704,723,744,763,785,803,824,844,863,883,904,923,943,964,983,1004,1024,1043,1064,1084,1103,1123,1143,1164,1183,1203,1225,1243,1264,1283,1303,1323,1343,1363,1383,1403,1423,1443,1464,1483,1503,1523,1544,1563,1584,1603,1623,1643,1663,1684,1704,1723,1743,1763,1783,1804],"xSR":741.5,"ySR":469.95,"xT1":424.9,"yT1":0,"xT2":1058.1,"yT2":0,"toosoon":0,"cond_shown":"Incongruent","ratio_trial":300,"L_num":4,"L_den":20,"R_num":2,"R_den":4,"correct_side":2,"subjID":"juandiegoricaurtemesa7","gender":"0","school":"6","age":"12"},{"start_time":1551800668949,"click_time":1551800670527,"finger_time":1551800669928,"fix_duration":901.5489275462442,"trial":13,"RT":979,"MT":599,"sideResp":2,"stimulus":[],"xmouse":[769,769,769,769,769,769,769,769,769,769,769,769,769,769,769,769,769,769,769,769,769,769,769,769,769,769,769,769,769,769,769,769,769,769,769,769,769,769,769,769,769,769,772,778,795,823,828,833,850,868,883,896,899,900,904,914,915,917,918,923,941,956,975,995,1017,1053,1063,1069,1075,1082,1097,1102,1104,1104,1104,1104,1104,1110,1116],"ymouse":[530,530,530,530,530,530,530,530,530,530,530,530,530,530,530,530,530,530,530,530,530,530,530,530,530,530,530,530,530,530,530,530,530,530,530,530,530,530,530,530,530,530,531,530,525,522,521,518,505,488,466,438,426,420,407,381,374,370,366,360,341,326,308,290,271,237,228,220,211,199,163,151,147,145,145,144,129,110,87],"timestamp_mouse":[36,39,59,78,99,119,139,158,179,199,218,238,260,278,298,318,338,359,379,399,418,438,459,480,498,518,540,558,579,598,618,640,659,679,699,719,738,759,780,799,820,838,859,878,899,918,939,958,979,998,1018,1038,1058,1079,1100,1118,1138,1159,1178,1199,1218,1239,1259,1279,1298,1318,1338,1358,1379,1398,1419,1439,1458,1478,1499,1518,1538,1558,1578],"xSR":741.5,"ySR":469.95,"xT1":424.9,"yT1":0,"xT2":1058.1,"yT2":0,"toosoon":0,"cond_shown":"Incongruent","ratio_trial":100,"L_num":12,"L_den":24,"R_num":9,"R_den":15,"correct_side":2,"subjID":"juandiegoricaurtemesa7","gender":"0","school":"6","age":"12"},{"start_time":1551800671859,"click_time":1551800674248,"finger_time":1551800672527,"fix_duration":250,"trial":14,"RT":668,"MT":1721,"sideResp":1,"stimulus":[],"xmouse":[787,787,787,787,787,787,787,787,787,787,787,787,787,787,787,787,787,787,787,787,787,787,787,787,787,787,787,787,787,787,773,750,750,747,744,703,674,660,650,642,625,618,610,598,588,580,580,577,572,571,571,571,571,571,569,543,534,533,533,533,533,533,533,532,532,532,532,532,532,532,532,532,532,532,532,532,532,532,532,556,601,601,601,601,601,601,601,601,601,601,601,601,601,601,601,601,601,601,601,601,603,600,580,549,533,518,511,508,503,495,475,467,465,465,465,466,469,473,478,480],"ymouse":[480,480,480,480,480,480,480,480,480,480,480,480,480,480,480,480,480,480,480,480,480,480,480,480,480,480,480,480,480,480,480,481,481,465,447,321,272,252,241,231,208,198,185,168,153,141,140,136,129,128,128,128,128,128,128,128,128,128,128,128,128,128,128,128,128,126,126,126,126,126,126,126,126,126,126,126,126,126,143,224,430,430,430,430,430,430,430,430,430,430,430,430,430,430,430,430,430,430,430,430,420,381,350,309,282,251,239,233,222,204,163,144,141,140,138,135,121,112,101,95],"timestamp_mouse":[8,38,48,70,89,109,130,148,168,188,210,228,249,269,288,308,328,349,370,388,409,430,448,468,488,510,530,549,569,588,608,629,648,668,688,708,729,748,768,790,808,828,848,869,888,908,928,948,968,989,1009,1029,1048,1068,1088,1108,1128,1148,1168,1189,1209,1229,1248,1268,1289,1309,1329,1348,1369,1388,1409,1428,1450,1468,1489,1509,1528,1548,1568,1588,1608,1629,1648,1668,1690,1709,1728,1748,1768,1788,1809,1829,1848,1868,1888,1909,1930,1948,1968,1988,2008,2030,2049,2069,2088,2109,2129,2148,2168,2188,2208,2229,2248,2269,2288,2308,2328,2348,2368,2389],"xSR":741.5,"ySR":469.95,"xT1":424.9,"yT1":0,"xT2":1058.1,"yT2":0,"toosoon":0,"cond_shown":"Incongruent","ratio_trial":300,"L_num":4,"L_den":5,"R_num":6,"R_den":12,"correct_side":1,"subjID":"juandiegoricaurtemesa7","gender":"0","school":"6","age":"12"},{"start_time":1551800675504,"click_time":1551800676767,"finger_time":1551800676347,"fix_duration":274.35379439144447,"trial":15,"RT":843,"MT":420,"sideResp":2,"stimulus":[],"xmouse":[823,823,823,823,823,823,823,823,823,823,823,823,823,823,823,823,823,823,823,823,823,823,823,823,823,823,823,823,823,823,823,823,823,823,823,823,823,823,823,823,823,829,843,895,930,970,1002,1021,1047,1049,1049,1049,1050,1058,1060,1060,1060,1060,1060,1057,1057,1057,1057,1063],"ymouse":[531,531,531,531,531,531,531,531,531,531,531,531,531,531,531,531,531,531,531,531,531,531,531,531,531,531,531,531,531,531,531,531,531,531,531,531,531,531,531,531,530,521,502,418,363,306,262,236,197,186,182,182,181,166,160,156,154,149,146,118,107,91,69,29],"timestamp_mouse":[14,24,45,64,83,103,123,143,163,184,204,223,243,264,283,303,323,343,363,383,404,423,444,463,483,504,523,544,563,584,604,623,644,664,684,704,723,744,763,783,803,824,843,863,885,903,923,943,963,983,1003,1023,1043,1064,1084,1104,1124,1143,1163,1183,1203,1223,1243,1263],"xSR":741.5,"ySR":469.95,"xT1":424.9,"yT1":0,"xT2":1058.1,"yT2":0,"toosoon":0,"cond_shown":"Incongruent","ratio_trial":100,"L_num":17,"L_den":30,"R_num":10,"R_den":15,"correct_side":2,"subjID":"juandiegoricaurtemesa7","gender":"0","school":"6","age":"12"},{"start_time":1551800678642,"click_time":1551800679688,"finger_time":1551800679267,"fix_duration":951.3692816134546,"trial":16,"RT":625,"MT":421,"sideResp":1,"stimulus":[],"xmouse":[777,777,777,777,777,777,777,777,777,777,777,777,777,777,777,777,777,777,777,777,777,777,777,777,777,777,777,777,777,777,777,759,742,730,721,711,683,672,666,662,657,639,632,625,620,614,583,564,548,534,527,520,518],"ymouse":[496,496,496,496,496,496,496,496,496,496,496,496,496,496,496,496,496,496,496,496,496,496,496,496,496,496,496,496,496,496,489,408,370,347,332,318,291,276,264,254,242,207,195,186,179,172,146,132,120,111,104,100,97],"timestamp_mouse":[9,38,46,65,86,105,125,146,166,185,205,225,247,265,286,305,325,346,366,385,405,426,445,465,485,505,525,546,566,585,605,625,645,665,685,705,726,745,765,785,805,826,845,865,885,905,926,946,966,985,1007,1025,1046],"xSR":741.5,"ySR":469.95,"xT1":424.9,"yT1":0,"xT2":1058.1,"yT2":0,"toosoon":0,"cond_shown":"Incongruent","ratio_trial":300,"L_num":4,"L_den":5,"R_num":8,"R_den":16,"correct_side":1,"subjID":"juandiegoricaurtemesa7","gender":"0","school":"6","age":"12"},{"start_time":1551800683482,"click_time":1551800684967,"finger_time":1551800684627,"fix_duration":892.1400100028721,"trial":17,"RT":1145,"MT":340,"sideResp":1,"stimulus":[],"xmouse":[802,802,802,802,802,802,802,802,802,802,802,802,802,802,802,802,802,802,802,802,802,802,802,802,802,802,802,802,801,799,799,798,798,798,798,798,798,798,798,798,798,798,798,798,798,798,798,798,798,798,798,798,798,798,798,785,776,754,741,736,730,727,722,711,668,640,613,590,571,559,553,545,533,526,518],"ymouse":[542,542,542,542,542,542,542,542,542,542,542,542,542,542,542,542,542,542,542,542,542,542,542,542,542,542,542,542,542,542,542,542,542,542,542,542,542,542,542,542,542,542,542,542,542,542,542,542,542,542,542,542,542,542,542,519,499,457,433,420,397,380,360,339,266,213,165,114,73,44,35,23,11,6,2],"timestamp_mouse":[15,39,45,65,85,105,126,145,166,185,205,226,245,266,285,306,326,346,365,386,405,426,446,466,485,506,526,545,565,585,606,626,646,666,686,706,725,745,765,786,806,825,845,866,885,905,925,945,965,985,1006,1025,1046,1066,1085,1105,1125,1145,1165,1185,1206,1225,1246,1265,1285,1306,1326,1345,1365,1385,1405,1426,1445,1465,1485],"xSR":741.5,"ySR":469.95,"xT1":424.9,"yT1":0,"xT2":1058.1,"yT2":0,"toosoon":0,"cond_shown":"Congruent","ratio_trial":200,"L_num":14,"L_den":28,"R_num":6,"R_den":20,"correct_side":1,"subjID":"juandiegoricaurtemesa7","gender":"0","school":"6","age":"12"},{"start_time":1551800686424,"click_time":1551800688207,"finger_time":1551800687767,"fix_duration":695.8521625395877,"trial":18,"RT":1343,"MT":440,"sideResp":2,"stimulus":[],"xmouse":[794,794,794,794,794,794,794,794,794,794,794,794,794,794,794,794,794,794,794,794,794,794,794,794,794,794,794,794,794,794,794,794,794,794,794,794,794,794,794,794,794,794,794,794,794,794,794,794,794,794,794,794,794,794,794,794,794,794,794,794,794,794,799,813,824,833,841,855,870,906,960,1022,1116,1129,1134,1138,1144,1153,1156,1157,1157,1151,1127,1109,1098,1091,1089,1088,1087,1085],"ymouse":[530,530,530,530,530,530,530,530,530,530,530,530,530,530,530,530,530,530,530,530,530,530,530,530,530,530,530,530,530,530,530,530,530,530,530,530,530,530,530,530,530,530,530,530,530,530,530,530,530,530,530,530,530,530,530,530,530,530,530,530,530,530,525,514,503,495,489,474,457,416,356,303,252,247,245,243,241,234,230,226,216,198,163,142,132,125,123,118,104,91],"timestamp_mouse":[8,23,43,64,83,103,123,143,163,184,203,225,244,263,283,305,323,343,364,383,403,423,444,463,484,505,524,543,565,584,604,623,644,663,683,703,723,743,763,784,805,824,844,863,884,903,923,944,964,984,1003,1023,1044,1063,1083,1103,1123,1143,1163,1184,1205,1224,1244,1263,1283,1304,1324,1343,1363,1383,1403,1424,1444,1463,1483,1503,1523,1543,1563,1583,1603,1624,1643,1664,1683,1704,1724,1743,1763,1783],"xSR":741.5,"ySR":469.95,"xT1":424.9,"yT1":0,"xT2":1058.1,"yT2":0,"toosoon":0,"cond_shown":"Congruent","ratio_trial":200,"L_num":6,"L_den":20,"R_num":11,"R_den":22,"correct_side":2,"subjID":"juandiegoricaurtemesa7","gender":"0","school":"6","age":"12"},{"start_time":1551800690053,"click_time":1551800691667,"finger_time":1551800691328,"fix_duration":964.1528656879163,"trial":19,"RT":1275,"MT":339,"sideResp":2,"stimulus":[],"xmouse":[762,762,762,762,763,763,763,763,763,763,763,763,763,763,763,763,763,763,763,763,763,763,763,763,763,763,763,763,763,763,763,763,763,763,763,763,763,763,763,763,763,763,763,763,763,763,763,763,763,763,764,765,765,765,765,765,765,766,767,771,787,795,806,834,908,1057,1112,1142,1151,1154,1170,1191,1204,1215,1221,1222,1222,1217,1208,1195,1135],"ymouse":[497,497,497,497,497,497,497,497,497,497,497,497,497,497,497,497,497,497,497,497,497,497,497,497,497,497,497,497,497,497,497,497,497,497,497,497,497,497,497,497,497,497,497,497,497,497,497,497,497,497,497,497,497,497,497,497,497,497,497,497,494,490,481,465,427,339,299,278,271,269,252,229,214,201,190,171,164,149,134,120,95],"timestamp_mouse":[14,34,55,74,94,114,134,154,174,195,215,234,255,274,294,314,334,354,374,395,414,434,455,476,495,514,535,555,576,595,614,634,654,674,695,715,735,755,775,795,814,834,855,875,895,914,934,954,974,995,1014,1036,1054,1074,1095,1115,1135,1154,1174,1194,1214,1235,1254,1275,1294,1314,1335,1354,1374,1394,1414,1435,1454,1474,1496,1515,1534,1561,1574,1595,1614],"xSR":741.5,"ySR":469.95,"xT1":424.9,"yT1":0,"xT2":1058.1,"yT2":0,"toosoon":0,"cond_shown":"Congruent","ratio_trial":100,"L_num":1,"L_den":2,"R_num":3,"R_den":5,"correct_side":2,"subjID":"juandiegoricaurtemesa7","gender":"0","school":"6","age":"12"},{"start_time":1551800693178,"click_time":1551800694888,"finger_time":1551800694447,"fix_duration":769.896747547652,"trial":20,"RT":1269,"MT":441,"sideResp":2,"stimulus":[],"xmouse":[790,790,790,790,790,790,790,790,790,790,790,790,790,790,790,790,790,790,790,790,790,790,790,790,790,790,790,790,790,790,790,790,790,790,790,790,790,790,790,790,790,790,790,790,790,790,790,790,790,790,790,790,790,790,790,790,790,790,790,790,790,791,800,848,992,1022,1041,1051,1056,1063,1072,1085,1103,1119,1125,1125,1124,1123,1118,1116,1111,1110,1109,1108,1106,1103],"ymouse":[508,508,508,508,508,508,508,508,508,508,508,508,508,508,508,508,508,508,508,508,508,508,508,508,508,508,508,508,508,508,508,508,508,508,508,508,508,508,508,508,508,508,508,508,508,508,508,508,508,508,508,508,508,508,508,508,508,508,508,508,508,508,499,457,333,313,304,300,295,288,275,254,225,196,178,176,172,167,159,147,125,119,116,113,104,97],"timestamp_mouse":[10,35,50,70,89,111,129,149,170,189,210,230,250,269,290,309,329,349,369,389,409,429,449,470,489,509,529,549,569,589,609,629,649,669,689,709,729,750,770,789,810,830,849,870,889,910,930,949,969,990,1009,1029,1050,1069,1089,1109,1129,1150,1170,1189,1210,1229,1249,1269,1289,1309,1330,1349,1369,1389,1409,1429,1449,1470,1489,1509,1529,1549,1569,1589,1610,1629,1649,1669,1689,1710],"xSR":741.5,"ySR":469.95,"xT1":424.9,"yT1":0,"xT2":1058.1,"yT2":0,"toosoon":0,"cond_shown":"Incongruent","ratio_trial":100,"L_num":3,"L_den":5,"R_num":8,"R_den":16,"correct_side":1,"subjID":"juandiegoricaurtemesa7","gender":"0","school":"6","age":"12"},{"start_time":1551800700980,"click_time":1551800702967,"finger_time":1551800702367,"fix_duration":370.04316402897797,"trial":21,"RT":1387,"MT":600,"sideResp":1,"stimulus":[],"xmouse":[788,788,788,788,788,788,788,788,788,788,788,788,788,788,788,788,788,788,788,788,788,788,788,788,788,788,788,788,788,788,788,788,788,788,788,788,788,788,788,788,788,788,788,788,788,788,788,788,788,788,788,788,788,788,788,788,788,788,788,788,788,788,788,788,788,788,788,784,772,677,614,569,534,518,511,510,510,510,510,525,539,548,551,552,552,551,547,544,539,534,531,528,522,514,493,488,485,483,481,476],"ymouse":[542,542,542,542,542,542,542,542,542,542,542,542,542,542,542,542,542,542,542,542,542,542,542,542,542,542,542,542,542,542,542,542,542,542,542,542,542,542,542,542,542,542,542,542,542,542,542,542,542,542,542,542,542,542,542,542,542,542,542,542,542,542,542,542,542,542,542,542,523,410,351,307,276,262,255,252,252,252,249,233,216,199,189,186,181,178,176,175,175,173,171,168,164,158,135,127,123,119,115,98],"timestamp_mouse":[10,36,47,68,87,107,128,147,168,188,207,227,247,267,287,308,327,348,367,388,408,428,448,468,487,508,528,547,567,588,607,628,648,668,687,707,728,748,769,788,808,827,848,868,887,907,927,948,967,987,1008,1028,1047,1067,1088,1108,1127,1148,1168,1187,1207,1228,1247,1267,1288,1307,1327,1347,1367,1387,1407,1427,1447,1467,1487,1508,1527,1547,1567,1587,1607,1627,1647,1667,1687,1708,1727,1747,1768,1787,1808,1827,1848,1868,1887,1907,1927,1948,1968,1987],"xSR":741.5,"ySR":469.95,"xT1":424.9,"yT1":0,"xT2":1058.1,"yT2":0,"toosoon":0,"cond_shown":"Incongruent","ratio_trial":200,"L_num":7,"L_den":10,"R_num":8,"R_den":16,"correct_side":1,"subjID":"juandiegoricaurtemesa7","gender":"0","school":"6","age":"12"},{"start_time":1551800704848,"click_time":1551800706627,"finger_time":1551800705968,"fix_duration":1059.0025337383943,"trial":22,"RT":1120,"MT":659,"sideResp":2,"stimulus":[],"xmouse":[746,746,746,746,746,746,746,746,746,746,746,746,746,746,746,746,746,746,746,746,746,746,746,746,746,746,746,746,746,746,746,746,746,746,746,746,746,746,746,746,746,746,746,746,746,746,746,746,746,746,746,746,746,754,763,783,791,801,812,821,846,866,878,892,898,904,908,911,915,919,929,932,937,941,946,951,956,963,971,981,1009,1019,1024,1026,1027,1028,1034,1050,1066],"ymouse":[487,487,487,487,487,487,487,487,487,487,487,487,487,487,487,487,487,487,487,487,487,487,487,487,487,487,487,487,487,487,487,487,487,487,487,487,487,487,487,487,487,487,487,487,487,487,487,487,487,487,487,487,488,482,473,457,450,441,432,423,403,384,370,349,331,308,296,284,274,264,240,234,224,215,204,187,175,155,134,112,58,37,24,21,20,19,18,13,10],"timestamp_mouse":[32,40,60,79,100,120,140,161,179,199,219,239,260,279,300,319,339,359,380,399,419,439,459,479,499,519,539,559,579,599,619,640,659,679,699,720,739,759,779,799,819,840,860,879,899,919,939,959,979,1000,1020,1039,1059,1079,1099,1120,1140,1160,1179,1199,1219,1240,1260,1279,1299,1319,1340,1360,1380,1399,1419,1439,1459,1480,1499,1520,1539,1559,1580,1599,1619,1640,1659,1679,1700,1719,1739,1759,1779],"xSR":741.5,"ySR":469.95,"xT1":424.9,"yT1":0,"xT2":1058.1,"yT2":0,"toosoon":0,"cond_shown":"Congruent","ratio_trial":100,"L_num":2,"L_den":5,"R_num":11,"R_den":22,"correct_side":2,"subjID":"juandiegoricaurtemesa7","gender":"0","school":"6","age":"12"},{"start_time":1551800708518,"click_time":1551800710848,"finger_time":1551800709607,"fix_duration":250,"trial":23,"RT":1089,"MT":1241,"sideResp":1,"stimulus":[],"xmouse":[794,794,794,794,794,794,794,794,794,794,794,794,794,794,794,794,794,794,794,794,794,794,794,794,794,794,794,794,794,794,794,794,794,794,794,794,794,794,794,794,794,794,794,794,794,794,794,794,794,794,794,794,794,794,794,778,743,682,671,658,644,627,609,607,607,606,606,606,606,606,606,606,606,606,606,606,606,606,606,606,606,606,606,606,606,606,606,606,606,606,606,606,606,606,606,606,606,606,606,606,606,605,599,589,575,562,552,546,546,546,546,546,546,545,540,530,520],"ymouse":[487,487,487,487,487,487,487,487,487,487,487,487,487,487,487,487,487,487,487,487,487,487,487,487,487,487,487,487,487,487,487,487,487,487,487,487,487,487,487,487,487,487,487,487,487,487,487,487,487,487,487,487,487,479,461,379,293,207,194,179,164,146,128,126,126,125,125,125,125,125,125,125,125,125,125,125,125,125,125,125,125,125,125,125,125,125,125,125,125,125,125,125,125,125,125,125,125,125,125,125,125,124,121,117,111,106,101,97,97,97,97,97,97,95,91,82,75],"timestamp_mouse":[10,33,50,70,89,109,130,150,170,190,210,230,249,270,289,309,329,349,369,389,409,429,449,470,489,510,530,549,569,590,610,629,649,670,689,709,730,749,770,790,810,829,850,869,889,910,929,949,970,989,1009,1029,1049,1069,1089,1109,1130,1149,1169,1189,1209,1231,1249,1270,1289,1309,1329,1349,1370,1389,1410,1430,1450,1470,1489,1510,1530,1549,1570,1589,1609,1629,1649,1670,1689,1710,1730,1750,1769,1790,1809,1830,1849,1869,1889,1909,1929,1950,1969,1990,2010,2030,2049,2069,2089,2109,2130,2149,2169,2189,2209,2231,2250,2270,2289,2309,2330],"xSR":741.5,"ySR":469.95,"xT1":424.9,"yT1":0,"xT2":1058.1,"yT2":0,"toosoon":0,"cond_shown":"Congruent","ratio_trial":100,"L_num":3,"L_den":6,"R_num":2,"R_den":5,"correct_side":1,"subjID":"juandiegoricaurtemesa7","gender":"0","school":"6","age":"12"},{"start_time":1551800714068,"click_time":1551800715427,"finger_time":1551800714967,"fix_duration":1019.8203370749047,"trial":24,"RT":899,"MT":460,"sideResp":1,"stimulus":[],"xmouse":[784,784,784,784,784,784,784,784,784,784,784,784,784,784,784,784,784,784,784,784,784,784,784,784,784,784,784,784,784,784,784,784,784,784,784,784,784,784,784,784,784,784,782,774,761,748,719,701,678,661,612,579,567,561,557,556,553,552,552,552,552,552,552,551,551,548,539,528,521],"ymouse":[499,499,499,499,499,499,499,499,499,499,499,499,499,499,499,499,499,499,499,499,499,499,499,499,499,499,499,499,499,499,499,499,499,499,499,499,499,499,499,499,499,499,499,486,470,455,420,396,365,331,270,232,216,205,196,188,177,175,173,169,151,133,128,127,127,123,115,105,97],"timestamp_mouse":[1,32,39,60,80,99,120,140,160,180,199,220,240,260,280,299,319,341,360,380,399,420,440,461,479,499,519,539,560,580,599,621,639,659,679,699,719,740,760,779,799,819,839,860,879,899,920,939,959,980,999,1019,1039,1059,1079,1099,1119,1140,1159,1180,1199,1219,1240,1259,1280,1299,1320,1340,1359],"xSR":741.5,"ySR":469.95,"xT1":424.9,"yT1":0,"xT2":1058.1,"yT2":0,"toosoon":0,"cond_shown":"Incongruent","ratio_trial":200,"L_num":4,"L_den":6,"R_num":14,"R_den":30,"correct_side":1,"subjID":"juandiegoricaurtemesa7","gender":"0","school":"6","age":"12"},{"start_time":1551800717162,"click_time":1551800719147,"finger_time":1551800718847,"fix_duration":913.8032519623143,"trial":25,"RT":1685,"MT":300,"sideResp":1,"stimulus":[],"xmouse":[774,774,774,774,774,774,774,774,774,774,774,774,774,774,774,774,774,774,774,774,774,774,774,774,774,774,774,774,774,774,774,774,774,774,774,774,774,774,774,774,774,774,774,774,774,774,774,774,774,774,774,774,774,774,774,774,774,774,774,774,774,774,774,774,774,774,774,774,774,774,774,774,774,774,774,774,774,774,774,774,774,774,774,768,736,662,635,622,612,605,592,581,570,556,544,525,510,498,490,484],"ymouse":[525,525,525,525,525,525,525,525,525,525,525,525,525,525,525,525,525,525,525,525,525,525,525,525,525,525,525,525,525,525,525,525,525,525,525,525,525,525,525,525,525,525,525,525,525,525,525,525,525,525,525,525,525,525,525,525,525,525,525,525,525,525,525,525,525,525,525,525,525,525,525,525,525,525,525,525,525,525,525,525,525,525,524,511,456,360,332,320,309,299,276,259,241,221,200,163,139,119,104,93],"timestamp_mouse":[10,37,45,65,85,105,125,146,165,185,205,225,245,265,285,305,325,346,365,385,405,425,445,465,486,505,526,545,565,585,606,626,647,666,686,706,726,746,766,785,805,825,845,865,886,905,925,945,965,985,1005,1025,1045,1066,1085,1105,1125,1146,1165,1185,1205,1225,1246,1265,1285,1306,1325,1345,1365,1385,1406,1426,1445,1465,1486,1506,1526,1545,1566,1586,1605,1625,1645,1665,1685,1705,1725,1745,1766,1785,1805,1825,1845,1865,1885,1906,1925,1945,1967,1985],"xSR":741.5,"ySR":469.95,"xT1":424.9,"yT1":0,"xT2":1058.1,"yT2":0,"toosoon":0,"cond_shown":"Incongruent","ratio_trial":100,"L_num":8,"L_den":16,"R_num":6,"R_den":10,"correct_side":2,"subjID":"juandiegoricaurtemesa7","gender":"0","school":"6","age":"12"},{"start_time":1551800720783,"click_time":1551800722168,"finger_time":1551800721527,"fix_duration":874.6842076642305,"trial":26,"RT":744,"MT":641,"sideResp":1,"stimulus":[],"xmouse":[819,819,819,819,819,819,819,819,819,819,819,819,819,819,819,819,819,819,819,819,819,819,819,819,819,819,819,819,819,819,819,819,819,819,819,820,838,870,879,878,874,865,847,822,760,734,721,714,704,670,644,623,608,592,571,571,571,571,571,563,557,553,548,544,537,535,532,528,525,520],"ymouse":[525,525,525,525,525,525,525,525,525,525,525,525,525,525,525,525,525,525,525,525,525,525,525,525,525,525,525,525,525,525,525,525,525,525,525,526,514,469,432,388,368,342,309,268,198,170,158,149,136,100,77,62,52,43,31,31,31,31,31,39,47,53,59,65,72,72,72,72,72,73],"timestamp_mouse":[19,36,44,64,85,105,125,145,164,184,205,224,244,265,284,305,324,345,365,385,405,425,445,464,484,504,524,544,565,584,605,624,645,664,684,704,724,744,764,785,804,824,844,865,884,904,925,944,965,984,1004,1024,1044,1064,1084,1104,1125,1144,1164,1184,1204,1224,1244,1265,1285,1305,1324,1344,1364,1384],"xSR":741.5,"ySR":469.95,"xT1":424.9,"yT1":0,"xT2":1058.1,"yT2":0,"toosoon":0,"cond_shown":"Congruent","ratio_trial":300,"L_num":20,"L_den":25,"R_num":13,"R_den":26,"correct_side":1,"subjID":"juandiegoricaurtemesa7","gender":"0","school":"6","age":"12"},{"start_time":1551800723711,"click_time":1551800725487,"finger_time":1551800725187,"fix_duration":862.6278547196833,"trial":27,"RT":1476,"MT":300,"sideResp":2,"stimulus":[],"xmouse":[783,783,783,783,783,783,783,783,783,783,783,783,783,783,783,783,783,783,783,783,783,783,783,783,783,783,783,783,783,783,783,783,783,783,783,783,783,783,783,783,783,783,783,783,783,783,783,783,783,783,783,783,783,783,783,783,783,783,783,783,783,783,783,783,783,783,783,783,783,783,783,784,814,841,867,891,920,1016,1079,1123,1146,1157,1163,1163,1163,1163,1163,1159,1155],"ymouse":[516,516,516,516,516,516,516,516,516,516,516,516,516,516,516,516,516,516,516,516,516,516,516,516,516,516,516,516,516,516,516,516,516,516,516,516,516,516,516,516,516,516,516,516,516,516,516,516,516,516,516,516,516,516,516,516,516,516,516,516,516,516,516,516,516,516,516,516,516,516,516,518,478,444,407,365,324,235,190,158,142,129,113,108,102,91,79,55,51],"timestamp_mouse":[16,38,57,77,96,116,136,157,177,197,216,237,256,276,296,316,337,357,376,396,416,436,456,476,496,516,536,556,576,597,616,636,657,677,697,716,737,757,777,797,816,837,857,876,896,917,936,956,976,996,1016,1037,1056,1076,1097,1116,1136,1156,1176,1197,1217,1236,1256,1276,1296,1317,1336,1356,1377,1396,1416,1436,1456,1476,1496,1516,1536,1556,1577,1596,1616,1637,1656,1676,1696,1716,1737,1756,1776],"xSR":741.5,"ySR":469.95,"xT1":424.9,"yT1":0,"xT2":1058.1,"yT2":0,"toosoon":0,"cond_shown":"Incongruent","ratio_trial":100,"L_num":13,"L_den":26,"R_num":6,"R_den":10,"correct_side":2,"subjID":"juandiegoricaurtemesa7","gender":"0","school":"6","age":"12"},{"start_time":1551800727674,"click_time":1551800729327,"finger_time":1551800729047,"fix_duration":1465.5125115890462,"trial":28,"RT":1373,"MT":280,"sideResp":2,"stimulus":[],"xmouse":[796,796,796,796,796,796,796,796,796,796,796,796,796,796,796,796,796,796,796,796,796,796,796,796,796,796,796,796,796,796,796,796,796,796,796,796,796,796,796,796,796,796,796,796,796,796,796,796,796,796,796,796,796,796,796,796,796,796,796,796,796,796,796,796,796,796,801,821,883,1053,1106,1127,1133,1133,1133,1133,1133,1137,1140,1140,1138,1135,1133],"ymouse":[530,530,530,530,530,530,530,530,530,530,530,530,530,530,530,530,530,530,530,530,530,530,530,530,530,530,530,530,530,530,530,530,530,530,530,530,530,530,530,530,530,530,530,530,530,530,530,530,530,530,530,530,530,530,530,530,530,530,530,530,530,530,530,530,530,530,526,506,453,325,286,268,256,251,241,229,210,187,162,120,109,101,94],"timestamp_mouse":[13,40,53,74,93,113,134,153,173,193,213,234,254,273,294,313,333,353,373,393,413,433,454,473,493,513,534,553,574,593,613,633,653,674,694,714,733,753,774,794,814,835,854,874,894,913,934,953,973,994,1013,1034,1054,1074,1093,1114,1134,1154,1173,1194,1214,1240,1254,1273,1293,1313,1334,1353,1373,1393,1413,1433,1453,1473,1493,1514,1533,1553,1574,1593,1614,1634,1653],"xSR":741.5,"ySR":469.95,"xT1":424.9,"yT1":0,"xT2":1058.1,"yT2":0,"toosoon":0,"cond_shown":"Incongruent","ratio_trial":100,"L_num":10,"L_den":25,"R_num":8,"R_den":16,"correct_side":2,"subjID":"juandiegoricaurtemesa7","gender":"0","school":"6","age":"12"},{"start_time":1551800730231,"click_time":1551800731527,"finger_time":1551800731248,"fix_duration":321.559734481214,"trial":29,"RT":1017,"MT":279,"sideResp":2,"stimulus":[],"xmouse":[812,812,812,812,812,812,812,812,812,812,812,812,812,812,812,812,812,812,812,812,812,812,812,812,812,812,812,812,812,812,812,812,812,812,812,812,812,812,812,812,812,812,812,812,812,812,812,812,812,824,862,969,1040,1081,1102,1120,1143,1152,1159,1162,1165,1165,1165,1161,1157],"ymouse":[549,549,549,549,549,549,549,549,549,549,549,549,549,549,549,549,549,549,549,549,549,549,549,549,549,549,549,549,549,549,549,549,549,549,549,549,549,549,549,549,549,549,549,549,549,549,549,549,548,537,504,414,353,317,293,272,235,213,192,176,160,123,108,95,87],"timestamp_mouse":[16,36,56,76,96,117,136,156,176,197,216,238,258,277,297,317,336,356,377,396,416,436,457,476,496,516,536,556,576,597,616,636,656,676,696,717,736,758,776,796,816,837,856,876,896,916,936,956,976,996,1017,1036,1057,1076,1096,1116,1137,1156,1176,1196,1217,1236,1256,1276,1296],"xSR":741.5,"ySR":469.95,"xT1":424.9,"yT1":0,"xT2":1058.1,"yT2":0,"toosoon":0,"cond_shown":"Congruent","ratio_trial":200,"L_num":13,"L_den":26,"R_num":14,"R_den":20,"correct_side":2,"subjID":"juandiegoricaurtemesa7","gender":"0","school":"6","age":"12"},{"start_time":1551800733314,"click_time":1551800734429,"finger_time":1551800734167,"fix_duration":566.2085425824274,"trial":30,"RT":853,"MT":262,"sideResp":2,"stimulus":[],"xmouse":[791,791,791,791,791,791,791,791,791,791,791,791,791,791,791,791,791,791,791,791,791,791,791,791,791,791,791,791,791,791,791,791,791,791,791,791,791,791,791,792,803,827,882,909,925,939,953,986,1011,1024,1034,1041,1053,1057,1058,1059],"ymouse":[491,491,491,491,491,491,491,491,491,491,491,491,491,491,491,491,491,491,491,491,491,491,491,491,491,491,491,491,491,491,491,491,491,491,491,491,491,491,491,492,488,473,431,407,382,355,322,242,183,154,132,114,90,82,80,80],"timestamp_mouse":[13,33,53,73,93,113,133,153,173,194,213,233,254,273,294,313,334,354,373,393,413,433,453,473,494,513,534,553,573,593,613,634,653,674,693,713,733,753,773,793,814,834,853,873,893,913,933,953,973,993,1013,1033,1054,1074,1093,1114],"xSR":741.5,"ySR":469.95,"xT1":424.9,"yT1":0,"xT2":1058.1,"yT2":0,"toosoon":0,"cond_shown":"Congruent","ratio_trial":300,"L_num":5,"L_den":25,"R_num":7,"R_den":14,"correct_side":2,"subjID":"juandiegoricaurtemesa7","gender":"0","school":"6","age":"12"},{"start_time":1551800736101,"click_time":1551800737287,"finger_time":1551800736967,"fix_duration":1132.9464179657543,"trial":31,"RT":866,"MT":320,"sideResp":2,"stimulus":[],"xmouse":[752,752,752,752,752,752,752,752,752,752,752,752,752,752,752,752,752,752,752,752,752,752,752,752,752,752,752,752,752,752,752,752,752,752,752,752,752,752,752,752,752,754,766,852,901,939,963,977,987,1009,1020,1028,1035,1045,1048,1053,1060,1069,1098,1108],"ymouse":[546,546,546,546,546,546,546,546,546,546,546,546,546,546,546,546,546,546,546,546,546,546,546,546,546,546,546,546,546,546,546,546,546,546,546,546,546,546,546,546,546,546,540,505,483,467,455,442,425,336,296,268,244,205,191,180,165,148,103,88],"timestamp_mouse":[15,39,46,66,87,106,126,147,167,187,207,227,247,267,286,306,327,346,366,386,407,427,446,466,486,507,527,546,566,586,606,627,646,666,686,707,726,746,766,787,806,827,846,866,886,906,926,947,966,987,1006,1026,1046,1066,1087,1106,1126,1147,1166,1186],"xSR":741.5,"ySR":469.95,"xT1":424.9,"yT1":0,"xT2":1058.1,"yT2":0,"toosoon":0,"cond_shown":"Congruent","ratio_trial":300,"L_num":1,"L_den":5,"R_num":6,"R_den":12,"correct_side":2,"subjID":"juandiegoricaurtemesa7","gender":"0","school":"6","age":"12"},{"start_time":1551800739639,"click_time":1551800741229,"finger_time":1551800740807,"fix_duration":250,"trial":32,"RT":1168,"MT":422,"sideResp":1,"stimulus":[],"xmouse":[807,807,807,807,807,807,807,807,807,807,807,807,807,807,807,807,807,807,807,807,807,807,807,807,807,807,807,804,802,802,802,802,802,802,802,802,802,802,802,802,802,802,802,802,802,802,802,802,802,802,802,802,802,802,802,802,800,790,765,719,664,551,532,520,505,489,449,429,421,417,417,417,417,417,417,420,423,423,423,426],"ymouse":[492,492,492,492,492,492,492,492,492,492,492,492,492,492,492,492,492,492,492,492,492,492,492,492,492,492,492,492,492,492,492,492,492,492,492,492,492,492,492,492,492,492,492,492,492,492,492,492,492,492,492,492,492,492,492,492,491,478,453,414,374,293,279,266,247,219,157,129,113,100,89,64,43,31,20,10,4,4,4,4],"timestamp_mouse":[9,30,49,68,89,109,129,148,168,188,208,228,249,270,289,309,329,348,368,388,409,429,448,468,488,508,529,548,568,589,608,628,648,668,688,708,728,748,768,789,808,828,848,868,888,908,929,949,968,988,1009,1028,1048,1068,1089,1108,1128,1148,1168,1189,1208,1230,1248,1268,1288,1309,1328,1349,1368,1388,1409,1428,1449,1468,1489,1508,1528,1548,1568,1589],"xSR":741.5,"ySR":469.95,"xT1":424.9,"yT1":0,"xT2":1058.1,"yT2":0,"toosoon":0,"cond_shown":"Congruent","ratio_trial":100,"L_num":8,"L_den":16,"R_num":2,"R_den":5,"correct_side":1,"subjID":"juandiegoricaurtemesa7","gender":"0","school":"6","age":"12"},{"start_time":1551800744002,"click_time":1551800745107,"finger_time":1551800744728,"fix_duration":653.5242883486609,"trial":33,"RT":726,"MT":379,"sideResp":1,"stimulus":[],"xmouse":[768,768,768,768,768,768,768,768,768,768,768,768,768,768,768,768,768,768,768,768,768,768,768,768,768,768,768,768,768,768,768,768,768,768,768,767,758,743,689,656,631,615,606,598,586,572,560,550,546,546,546,546,546,538,525,512],"ymouse":[528,528,528,528,528,528,528,528,528,528,528,528,528,528,528,528,528,528,528,528,528,528,528,528,528,528,528,528,528,528,528,528,528,528,526,497,432,367,241,196,169,156,148,143,132,117,106,99,97,97,97,97,97,92,84,77],"timestamp_mouse":[9,33,45,65,85,106,126,145,165,185,205,226,246,265,285,306,327,346,365,385,406,425,445,465,497,506,525,545,566,585,606,625,645,666,685,705,726,745,766,785,805,825,846,865,885,906,925,945,966,985,1006,1026,1046,1065,1086,1105],"xSR":741.5,"ySR":469.95,"xT1":424.9,"yT1":0,"xT2":1058.1,"yT2":0,"toosoon":0,"cond_shown":"Congruent","ratio_trial":300,"L_num":4,"L_den":5,"R_num":2,"R_den":4,"correct_side":1,"subjID":"juandiegoricaurtemesa7","gender":"0","school":"6","age":"12"},{"start_time":1551800747077,"click_time":1551800747847,"finger_time":1551800747627,"fix_duration":1107.0787311727665,"trial":34,"RT":550,"MT":220,"sideResp":1,"stimulus":[],"xmouse":[777,777,777,777,777,777,777,777,777,777,777,777,777,777,777,777,777,777,777,777,777,777,777,777,777,777,775,753,691,607,596,593,593,593,581,568,550,535,523],"ymouse":[487,487,487,487,487,487,487,487,487,487,487,487,487,487,487,487,487,487,487,487,487,487,487,487,487,487,474,434,345,227,213,209,208,206,179,158,133,114,98],"timestamp_mouse":[11,38,50,70,90,110,130,150,170,190,210,230,250,271,290,310,331,350,370,390,411,430,450,470,491,510,530,550,570,590,610,631,650,670,690,710,730,751,770],"xSR":741.5,"ySR":469.95,"xT1":424.9,"yT1":0,"xT2":1058.1,"yT2":0,"toosoon":0,"cond_shown":"Congruent","ratio_trial":300,"L_num":24,"L_den":30,"R_num":2,"R_den":4,"correct_side":1,"subjID":"juandiegoricaurtemesa7","gender":"0","school":"6","age":"12"},{"start_time":1551800749325,"click_time":1551800750928,"finger_time":1551800750267,"fix_duration":736.9291810830947,"trial":35,"RT":942,"MT":661,"sideResp":1,"stimulus":[],"xmouse":[780,780,780,780,780,780,780,780,780,780,780,780,780,780,780,780,780,780,780,780,780,780,780,780,780,780,780,780,780,780,780,780,780,780,780,780,780,780,780,780,780,780,780,780,780,780,779,755,742,732,727,724,723,723,722,721,719,716,716,716,716,716,716,716,716,719,723,754,764,769,771,771,771,771,771,766,739,655,578,525,496],"ymouse":[517,517,517,517,517,517,517,517,517,517,517,517,517,517,517,517,517,517,517,517,517,517,517,517,517,517,517,517,517,517,517,517,517,517,517,517,517,517,517,517,517,517,517,517,517,517,507,461,442,430,421,415,414,413,413,411,408,402,402,402,402,402,402,402,402,406,410,441,452,458,460,460,460,460,458,447,397,265,166,113,82],"timestamp_mouse":[11,22,42,63,83,102,122,142,162,182,202,222,242,262,283,302,323,342,364,383,402,422,442,463,483,502,523,542,562,582,602,623,642,663,683,702,722,743,762,782,803,823,842,862,883,902,922,942,963,982,1003,1022,1043,1062,1082,1103,1123,1142,1163,1182,1203,1223,1243,1262,1283,1303,1322,1342,1362,1382,1402,1422,1443,1462,1482,1503,1522,1543,1563,1582,1603],"xSR":741.5,"ySR":469.95,"xT1":424.9,"yT1":0,"xT2":1058.1,"yT2":0,"toosoon":0,"cond_shown":"Incongruent","ratio_trial":100,"L_num":6,"L_den":10,"R_num":11,"R_den":22,"correct_side":1,"subjID":"juandiegoricaurtemesa7","gender":"0","school":"6","age":"12"},{"start_time":1551800753280,"click_time":1551800754427,"finger_time":1551800754066,"fix_duration":250,"trial":36,"RT":786,"MT":361,"sideResp":2,"stimulus":[],"xmouse":[793,793,793,793,793,793,793,793,793,793,793,793,793,793,793,793,793,793,793,793,793,793,793,793,793,793,793,793,793,793,793,793,793,793,793,793,793,795,798,840,875,907,942,973,995,1004,1017,1029,1038,1056,1068,1070,1072,1073,1074,1078,1088,1097],"ymouse":[491,491,491,491,491,491,491,491,491,491,491,491,491,491,491,491,491,491,491,491,491,491,491,491,491,491,491,491,491,491,491,491,491,491,491,491,491,491,489,447,419,389,347,305,267,248,219,189,167,132,118,115,113,112,111,106,101,96],"timestamp_mouse":[10,34,47,68,87,107,127,147,167,187,207,227,247,268,287,307,327,347,367,387,407,427,447,467,487,507,527,547,567,587,607,627,647,668,687,708,728,747,767,786,808,827,847,868,886,908,927,947,967,987,1007,1028,1048,1067,1087,1108,1127,1147],"xSR":741.5,"ySR":469.95,"xT1":424.9,"yT1":0,"xT2":1058.1,"yT2":0,"toosoon":0,"cond_shown":"Incongruent","ratio_trial":200,"L_num":14,"L_den":30,"R_num":6,"R_den":9,"correct_side":2,"subjID":"juandiegoricaurtemesa7","gender":"0","school":"6","age":"12"},{"start_time":1551800756129,"click_time":1551800757707,"finger_time":1551800757287,"fix_duration":961.9178143978662,"trial":37,"RT":1158,"MT":420,"sideResp":2,"stimulus":[],"xmouse":[775,775,775,775,775,775,775,775,775,775,775,775,775,775,775,775,775,775,775,775,775,775,775,775,775,775,775,775,775,775,775,775,775,775,775,775,775,775,775,775,775,775,775,775,775,775,775,775,775,775,775,775,775,775,790,838,861,881,898,916,940,950,961,973,983,1012,1024,1033,1040,1046,1055,1059,1061,1067,1077,1094,1103,1106],"ymouse":[559,559,559,559,559,559,559,559,559,559,559,559,559,559,559,559,559,559,559,559,559,559,559,559,559,559,559,559,559,559,559,559,559,559,559,559,559,559,559,559,559,559,559,559,559,559,559,559,559,559,559,559,559,559,545,500,477,461,445,430,403,388,373,356,339,298,276,254,230,209,181,173,169,160,147,119,104,98],"timestamp_mouse":[39,58,79,99,118,139,158,178,198,219,238,259,279,299,318,338,358,379,399,418,438,459,479,499,518,539,559,579,599,619,638,658,679,698,718,738,759,779,799,818,838,858,878,899,919,938,959,979,998,1019,1038,1059,1079,1097,1118,1138,1158,1178,1198,1218,1239,1259,1278,1298,1318,1338,1359,1378,1399,1418,1438,1458,1479,1499,1519,1538,1559,1578],"xSR":741.5,"ySR":469.95,"xT1":424.9,"yT1":0,"xT2":1058.1,"yT2":0,"toosoon":0,"cond_shown":"Incongruent","ratio_trial":100,"L_num":11,"L_den":22,"R_num":9,"R_den":15,"correct_side":2,"subjID":"juandiegoricaurtemesa7","gender":"0","school":"6","age":"12"},{"start_time":1551800761420,"click_time":1551800763027,"finger_time":1551800762466,"fix_duration":1411.4690211595819,"trial":38,"RT":1046,"MT":561,"sideResp":1,"stimulus":[],"xmouse":[775,775,775,775,775,775,775,775,775,775,775,775,775,775,775,775,775,775,775,775,775,775,775,775,775,775,775,775,775,775,775,775,775,775,775,775,775,775,775,775,775,775,775,775,775,775,775,775,775,775,764,756,724,705,694,682,671,645,635,629,625,621,608,601,598,595,590,585,585,585,585,585,581,579,576,573,568,541,518,494,482],"ymouse":[520,520,520,520,520,520,520,520,520,520,520,520,520,520,520,520,520,520,520,520,520,520,520,520,520,520,520,520,520,520,520,520,520,520,520,520,520,520,520,520,520,520,520,520,520,520,520,520,520,520,516,512,502,495,488,478,465,414,390,375,367,358,322,300,279,260,246,233,229,221,210,201,188,185,181,177,172,151,130,104,84],"timestamp_mouse":[9,32,48,67,87,108,127,147,168,187,208,228,247,267,287,307,327,347,368,387,407,428,447,467,487,508,528,547,567,587,608,627,648,667,687,707,728,747,767,787,807,827,847,868,887,908,928,947,967,988,1007,1028,1046,1068,1087,1107,1127,1147,1168,1187,1207,1227,1247,1267,1287,1307,1327,1347,1368,1387,1407,1428,1447,1468,1488,1508,1527,1547,1568,1587,1607],"xSR":741.5,"ySR":469.95,"xT1":424.9,"yT1":0,"xT2":1058.1,"yT2":0,"toosoon":0,"cond_shown":"Congruent","ratio_trial":100,"L_num":9,"L_den":15,"R_num":8,"R_den":16,"correct_side":1,"subjID":"juandiegoricaurtemesa7","gender":"0","school":"6","age":"12"},{"start_time":1551800763819,"click_time":1551800764967,"finger_time":1551800764567,"fix_duration":250,"trial":39,"RT":748,"MT":400,"sideResp":1,"stimulus":[],"xmouse":[810,810,810,810,810,810,810,810,810,810,810,810,810,810,810,810,810,810,810,810,809,807,801,801,801,801,801,801,801,801,801,801,800,800,800,799,796,781,770,758,749,741,726,677,658,635,621,598,586,571,554,537,514,504,500,498,495,490],"ymouse":[543,543,543,543,543,543,543,543,543,543,543,543,543,543,543,543,543,543,543,543,543,544,550,550,550,550,550,550,550,550,550,550,551,551,551,539,524,469,445,416,391,370,347,289,269,253,244,229,221,209,194,176,148,130,121,115,108,95],"timestamp_mouse":[11,35,48,68,88,109,128,148,169,188,208,228,248,269,289,308,329,348,369,388,408,428,448,468,489,509,528,549,569,589,609,628,649,669,688,709,728,748,768,788,808,829,848,868,888,908,928,948,969,988,1008,1029,1048,1068,1088,1108,1129,1148],"xSR":741.5,"ySR":469.95,"xT1":424.9,"yT1":0,"xT2":1058.1,"yT2":0,"toosoon":0,"cond_shown":"Congruent","ratio_trial":300,"L_num":24,"L_den":30,"R_num":8,"R_den":16,"correct_side":1,"subjID":"juandiegoricaurtemesa7","gender":"0","school":"6","age":"12"},{"start_time":1551800767788,"click_time":1551800769027,"finger_time":1551800768367,"fix_duration":1459.343268265166,"trial":40,"RT":579,"MT":660,"sideResp":2,"stimulus":[],"xmouse":[773,773,773,773,773,773,773,773,773,773,773,773,773,773,773,773,773,773,773,773,773,773,773,773,773,773,773,773,775,798,814,825,829,830,830,830,830,830,834,844,854,865,876,890,923,943,953,963,975,1022,1047,1071,1083,1083,1084,1084,1084,1086,1089,1093,1095,1097,1099],"ymouse":[474,474,474,474,474,474,474,474,474,474,474,474,474,474,474,474,474,474,474,474,474,474,474,474,474,474,474,474,472,466,459,451,441,433,427,400,383,360,336,293,273,257,242,230,206,190,181,171,160,135,130,127,125,125,125,125,124,121,116,108,104,101,98],"timestamp_mouse":[1,33,39,60,80,100,119,140,159,180,200,219,239,260,280,300,320,339,359,379,399,421,439,459,479,500,520,539,559,579,600,619,640,660,679,700,719,739,759,779,799,819,839,860,879,899,919,940,959,980,999,1019,1040,1060,1080,1099,1120,1138,1159,1179,1199,1220,1239],"xSR":741.5,"ySR":469.95,"xT1":424.9,"yT1":0,"xT2":1058.1,"yT2":0,"toosoon":0,"cond_shown":"Congruent","ratio_trial":300,"L_num":1,"L_den":20,"R_num":7,"R_den":20,"correct_side":2,"subjID":"juandiegoricaurtemesa7","gender":"0","school":"6","age":"12"},{"start_time":1551800769959,"click_time":1551800771268,"finger_time":1551800770628,"fix_duration":250,"trial":41,"RT":669,"MT":640,"sideResp":2,"stimulus":[],"xmouse":[803,803,803,803,803,803,803,803,803,803,803,803,803,803,803,803,803,803,803,803,803,803,803,803,803,803,803,803,803,803,803,804,816,855,898,956,973,979,981,985,995,1002,1009,1012,1016,1019,1024,1027,1035,1046,1064,1067,1069,1069,1069,1069,1073,1076,1081,1084,1088,1089,1089,1089,1089,1102],"ymouse":[560,560,560,560,560,560,560,560,560,560,560,560,560,560,560,560,560,560,560,560,560,560,560,560,560,560,560,560,560,560,560,560,560,552,539,517,512,507,503,495,462,438,411,384,360,315,282,261,238,214,174,166,162,160,160,160,155,151,146,143,133,132,131,128,115,72],"timestamp_mouse":[8,41,49,68,88,108,128,148,168,189,208,228,248,268,288,308,328,348,369,388,408,428,449,468,489,508,529,549,568,588,608,629,648,669,688,708,729,748,769,788,808,828,848,868,889,909,929,947,968,988,1009,1028,1048,1068,1088,1109,1128,1148,1168,1189,1208,1228,1248,1268,1288,1309],"xSR":741.5,"ySR":469.95,"xT1":424.9,"yT1":0,"xT2":1058.1,"yT2":0,"toosoon":0,"cond_shown":"Congruent","ratio_trial":300,"L_num":7,"L_den":14,"R_num":20,"R_den":25,"correct_side":2,"subjID":"juandiegoricaurtemesa7","gender":"0","school":"6","age":"12"},{"start_time":1551800772199,"click_time":1551800773267,"finger_time":1551800772967,"fix_duration":250,"trial":42,"RT":768,"MT":300,"sideResp":2,"stimulus":[],"xmouse":[794,794,794,794,794,794,794,794,794,794,794,794,794,794,794,794,794,794,794,794,794,794,794,794,794,794,794,794,794,794,794,794,794,794,794,794,794,801,862,885,904,915,920,924,926,931,938,947,972,989,1007,1024,1039,1060],"ymouse":[497,497,497,497,497,497,497,497,497,497,497,497,497,497,497,497,497,497,497,497,497,497,497,497,497,497,497,497,497,497,497,497,497,497,497,497,493,480,414,402,392,385,382,349,333,316,299,280,223,182,142,110,88,67],"timestamp_mouse":[7,32,48,68,88,108,128,148,168,188,208,229,248,268,288,308,328,348,368,388,408,428,449,469,488,508,528,548,568,588,608,628,649,669,689,708,728,748,768,788,808,828,848,868,889,908,929,948,968,989,1008,1028,1048,1068],"xSR":741.5,"ySR":469.95,"xT1":424.9,"yT1":0,"xT2":1058.1,"yT2":0,"toosoon":0,"cond_shown":"Congruent","ratio_trial":300,"L_num":5,"L_den":25,"R_num":7,"R_den":14,"correct_side":2,"subjID":"juandiegoricaurtemesa7","gender":"0","school":"6","age":"12"},{"start_time":1551800774611,"click_time":1551800775367,"finger_time":1551800775167,"fix_duration":403.47778157871807,"trial":43,"RT":556,"MT":200,"sideResp":2,"stimulus":[],"xmouse":[788,788,788,788,788,788,788,788,788,788,788,788,788,788,788,788,788,788,788,788,788,788,788,788,788,793,803,903,959,993,1009,1018,1035,1047,1063,1078,1095,1123],"ymouse":[528,528,528,528,528,528,528,528,528,528,528,528,528,528,528,528,528,528,528,528,528,528,528,528,528,527,517,432,390,365,345,326,273,232,190,152,125,89],"timestamp_mouse":[16,39,56,76,96,116,137,157,176,197,216,236,256,276,296,317,337,356,376,396,417,436,456,476,496,516,536,556,577,597,616,636,656,677,696,716,736,756],"xSR":741.5,"ySR":469.95,"xT1":424.9,"yT1":0,"xT2":1058.1,"yT2":0,"toosoon":0,"cond_shown":"Congruent","ratio_trial":200,"L_num":1,"L_den":2,"R_num":21,"R_den":30,"correct_side":2,"subjID":"juandiegoricaurtemesa7","gender":"0","school":"6","age":"12"},{"start_time":1551800778177,"click_time":1551800779047,"finger_time":1551800778627,"fix_duration":686.9727050237777,"trial":44,"RT":450,"MT":420,"sideResp":1,"stimulus":[],"xmouse":[787,787,787,787,787,787,787,787,787,787,787,787,787,787,787,787,787,787,787,786,768,746,732,726,724,724,728,735,742,743,736,724,715,700,667,630,595,569,552,531,523,515,502,477],"ymouse":[532,532,532,532,532,532,532,532,532,532,532,532,532,532,532,532,532,532,532,533,543,556,560,560,560,560,558,553,545,535,524,511,494,473,427,361,307,264,238,202,180,149,105,18],"timestamp_mouse":[10,38,51,71,90,111,131,150,171,190,211,230,251,270,290,311,331,350,370,391,410,431,450,470,490,510,530,551,570,590,610,630,651,671,690,711,730,750,770,790,810,830,850,870],"xSR":741.5,"ySR":469.95,"xT1":424.9,"yT1":0,"xT2":1058.1,"yT2":0,"toosoon":0,"cond_shown":"Congruent","ratio_trial":200,"L_num":8,"L_den":15,"R_num":3,"R_den":9,"correct_side":1,"subjID":"juandiegoricaurtemesa7","gender":"0","school":"6","age":"12"},{"start_time":1551800780537,"click_time":1551800781687,"finger_time":1551800781088,"fix_duration":708.7991111418308,"trial":45,"RT":551,"MT":599,"sideResp":2,"stimulus":[],"xmouse":[771,771,771,771,771,771,771,771,771,771,771,771,771,771,771,771,773,785,786,786,786,786,786,787,789,792,805,816,823,832,841,858,864,872,881,890,902,903,904,910,932,1054,1086,1100,1108,1110,1110,1110,1110,1110,1110,1110,1110,1110,1110,1110,1112,1114],"ymouse":[523,523,523,523,523,523,523,523,523,523,523,523,523,523,523,523,523,523,523,523,523,523,523,523,523,518,492,459,437,416,398,375,367,356,344,332,314,312,309,302,276,169,144,134,127,123,123,123,123,123,123,123,123,123,123,122,107,93],"timestamp_mouse":[10,34,51,70,90,111,131,150,171,191,210,230,250,270,291,310,330,350,370,391,411,430,451,470,490,510,530,551,570,590,610,630,650,670,690,710,730,750,770,790,810,831,851,870,890,911,931,951,971,990,1010,1030,1051,1070,1091,1111,1130,1150],"xSR":741.5,"ySR":469.95,"xT1":424.9,"yT1":0,"xT2":1058.1,"yT2":0,"toosoon":0,"cond_shown":"Incongruent","ratio_trial":100,"L_num":9,"L_den":15,"R_num":13,"R_den":26,"correct_side":1,"subjID":"juandiegoricaurtemesa7","gender":"0","school":"6","age":"12"},{"start_time":1551800790541,"click_time":1551800792027,"finger_time":1551800791667,"fix_duration":250,"trial":46,"RT":1126,"MT":360,"sideResp":2,"stimulus":[],"xmouse":[795,795,795,795,795,795,795,795,795,795,795,795,795,795,795,795,795,795,795,795,795,795,795,795,795,795,795,795,795,795,795,795,795,795,795,795,795,795,795,795,795,795,795,795,795,795,795,795,795,795,795,795,795,797,801,817,844,888,919,947,964,977,992,997,1002,1008,1018,1020,1023,1023,1027,1036,1042,1051,1061],"ymouse":[507,507,507,507,507,507,507,507,507,507,507,507,507,507,507,507,507,507,507,507,507,507,507,507,507,507,507,507,507,507,507,507,507,507,507,507,507,507,507,507,507,507,507,507,507,507,507,507,507,507,507,507,507,507,503,486,468,443,420,395,376,361,321,303,288,269,203,179,160,144,121,81,71,63,60],"timestamp_mouse":[10,40,46,66,86,106,126,146,166,186,206,226,246,266,286,307,326,346,366,386,406,426,446,466,486,506,526,546,566,586,606,626,647,666,686,706,726,746,766,786,806,826,847,866,887,907,926,947,967,987,1006,1026,1047,1067,1086,1107,1126,1145,1166,1187,1206,1226,1246,1266,1286,1307,1326,1346,1366,1386,1406,1426,1446,1466,1486],"xSR":741.5,"ySR":469.95,"xT1":424.9,"yT1":0,"xT2":1058.1,"yT2":0,"toosoon":0,"cond_shown":"Incongruent","ratio_trial":300,"L_num":4,"L_den":20,"R_num":2,"R_den":4,"correct_side":2,"subjID":"juandiegoricaurtemesa7","gender":"0","school":"6","age":"12"},{"start_time":1551800793699,"click_time":1551800795167,"finger_time":1551800794767,"fix_duration":749.2543188824004,"trial":47,"RT":1068,"MT":400,"sideResp":2,"stimulus":[],"xmouse":[814,814,814,814,814,814,814,814,814,814,814,814,814,814,814,814,814,814,814,814,814,814,814,814,814,814,814,814,814,814,814,814,814,814,814,814,814,814,814,814,814,814,814,814,814,814,814,814,814,814,814,816,821,842,859,880,906,948,970,991,1003,1014,1021,1030,1032,1033,1033,1033,1032,1032,1033,1040,1051,1069],"ymouse":[498,498,498,498,498,498,498,498,498,498,498,498,498,498,498,498,498,498,498,498,498,498,498,498,498,498,498,498,498,498,498,498,498,498,498,498,498,498,498,498,498,498,498,498,498,498,498,498,498,498,498,491,479,458,449,439,424,396,368,331,306,281,256,218,195,170,135,108,85,83,79,72,64,54],"timestamp_mouse":[10,35,48,69,89,109,128,148,168,188,208,229,248,269,288,308,328,348,368,389,409,428,448,468,489,508,529,549,568,589,609,628,648,669,689,708,729,749,769,789,809,829,849,868,888,908,928,949,969,989,1008,1028,1048,1068,1088,1108,1128,1149,1168,1188,1208,1228,1248,1269,1288,1308,1328,1349,1368,1387,1408,1428,1448,1468],"xSR":741.5,"ySR":469.95,"xT1":424.9,"yT1":0,"xT2":1058.1,"yT2":0,"toosoon":0,"cond_shown":"Incongruent","ratio_trial":200,"L_num":14,"L_den":30,"R_num":6,"R_den":9,"correct_side":2,"subjID":"juandiegoricaurtemesa7","gender":"0","school":"6","age":"12"},{"start_time":1551800796082,"click_time":1551800797867,"finger_time":1551800796867,"fix_duration":253.54856938401505,"trial":48,"RT":785,"MT":1000,"sideResp":2,"stimulus":[],"xmouse":[786,786,786,786,786,786,786,786,786,786,786,786,786,786,786,786,786,786,786,786,786,787,787,787,787,787,787,787,787,787,787,787,787,787,787,787,787,786,780,746,730,718,712,710,710,710,710,710,710,710,710,711,712,716,724,748,762,770,771,772,772,772,772,772,772,772,772,772,772,772,772,773,780,799,865,898,930,960,993,1033,1042,1043,1043,1043,1044,1045,1047,1050,1051,1060],"ymouse":[519,519,519,519,519,519,519,519,519,519,519,519,519,519,519,519,519,519,519,519,519,517,516,515,514,514,514,514,514,514,514,514,514,514,514,514,514,508,498,457,443,433,430,429,429,429,429,429,429,429,429,429,431,435,443,470,486,497,500,500,500,500,500,500,500,500,500,500,500,500,500,501,501,490,421,372,314,246,171,87,72,71,71,71,70,69,68,67,67,67],"timestamp_mouse":[7,33,45,65,85,105,125,146,166,185,205,226,245,265,286,306,325,345,366,385,405,425,445,465,485,505,525,545,565,586,605,625,646,666,685,705,726,745,765,785,806,825,846,866,886,906,925,946,965,985,1006,1025,1045,1065,1085,1105,1125,1145,1165,1185,1206,1225,1246,1265,1286,1305,1325,1346,1365,1385,1405,1425,1445,1465,1485,1505,1525,1545,1565,1585,1605,1625,1645,1666,1686,1704,1725,1745,1766,1785],"xSR":741.5,"ySR":469.95,"xT1":424.9,"yT1":0,"xT2":1058.1,"yT2":0,"toosoon":0,"cond_shown":"Congruent","ratio_trial":200,"L_num":3,"L_den":6,"R_num":14,"R_den":20,"correct_side":2,"subjID":"juandiegoricaurtemesa7","gender":"0","school":"6","age":"12"},{"start_time":1551800799260,"click_time":1551800800848,"finger_time":1551800800288,"fix_duration":892.174565826126,"trial":49,"RT":1028,"MT":560,"sideResp":1,"stimulus":[],"xmouse":[799,799,799,799,799,799,799,799,799,799,799,799,799,799,799,799,799,799,799,799,799,799,799,799,799,799,799,799,799,799,799,799,799,799,799,799,799,799,799,799,799,799,799,799,799,799,799,799,799,797,771,742,708,674,659,648,648,648,648,648,629,617,605,590,573,546,541,539,536,534,533,534,541,547,550,548,542,534,528,524],"ymouse":[531,531,531,531,531,531,531,531,531,531,531,531,531,531,531,531,531,531,531,531,531,531,531,531,531,531,531,531,531,531,531,531,531,531,531,531,531,531,531,531,531,531,531,531,531,531,531,531,531,528,498,464,430,404,396,392,392,392,392,392,366,347,325,304,283,252,242,237,228,217,198,185,168,153,143,124,113,102,95,87],"timestamp_mouse":[12,27,47,67,87,107,127,147,167,188,207,228,247,268,287,307,327,348,368,388,407,427,447,468,487,507,528,547,568,588,607,627,647,668,687,708,727,748,768,787,808,828,847,868,887,907,927,947,967,987,1007,1028,1047,1067,1087,1108,1127,1147,1167,1187,1207,1227,1247,1267,1287,1307,1327,1347,1367,1387,1407,1427,1447,1468,1487,1507,1527,1547,1567,1588],"xSR":741.5,"ySR":469.95,"xT1":424.9,"yT1":0,"xT2":1058.1,"yT2":0,"toosoon":0,"cond_shown":"Incongruent","ratio_trial":300,"L_num":3,"L_den":6,"R_num":4,"R_den":20,"correct_side":1,"subjID":"juandiegoricaurtemesa7","gender":"0","school":"6","age":"12"},{"start_time":1551800802753,"click_time":1551800804327,"finger_time":1551800804067,"fix_duration":1064.9326490649912,"trial":50,"RT":1314,"MT":260,"sideResp":1,"stimulus":[],"xmouse":[813,813,813,813,813,813,813,813,813,813,813,813,813,813,813,813,813,813,813,813,813,813,813,813,813,813,813,813,813,813,813,813,813,813,813,813,813,813,813,813,813,813,813,813,813,813,813,813,813,813,813,813,813,813,813,813,813,813,813,813,813,813,813,799,789,694,652,628,613,601,580,574,566,559,552,533,521,506,489],"ymouse":[513,513,513,513,513,513,513,513,513,513,513,513,513,513,513,513,513,513,513,513,513,513,513,513,513,513,513,513,513,513,513,513,513,513,513,513,513,513,513,513,513,513,513,513,513,513,513,513,513,513,513,513,513,513,513,513,513,513,513,513,513,513,513,492,478,392,361,343,327,306,267,250,233,214,197,153,135,114,97],"timestamp_mouse":[16,44,54,75,94,114,134,154,175,194,214,234,254,274,294,314,334,354,374,394,414,434,454,474,495,514,534,554,574,594,614,635,654,674,694,714,734,754,775,794,814,835,855,875,895,914,935,954,975,994,1014,1034,1054,1075,1094,1115,1135,1154,1174,1194,1214,1234,1255,1274,1294,1314,1333,1354,1374,1394,1414,1434,1454,1474,1494,1514,1534,1555,1574],"xSR":741.5,"ySR":469.95,"xT1":424.9,"yT1":0,"xT2":1058.1,"yT2":0,"toosoon":0,"cond_shown":"Incongruent","ratio_trial":100,"L_num":3,"L_den":5,"R_num":11,"R_den":22,"correct_side":1,"subjID":"juandiegoricaurtemesa7","gender":"0","school":"6","age":"12"},{"start_time":1551800805936,"click_time":1551800808067,"finger_time":1551800807208,"fix_duration":1067.788054061727,"trial":51,"RT":1272,"MT":859,"sideResp":1,"stimulus":[],"xmouse":[789,789,789,789,789,789,789,789,789,789,789,789,789,789,789,789,789,789,789,789,789,789,789,789,789,789,789,789,789,789,789,789,789,789,789,789,789,789,789,789,789,789,789,789,789,789,789,789,789,789,789,789,789,789,789,789,789,789,789,789,789,789,778,751,691,607,492,456,438,428,422,410,403,400,398,398,398,401,403,405,405,405,405,405,405,405,405,405,405,405,405,405,405,405,405,405,405,405,405,405,405,405,405,406,408,415,470],"ymouse":[515,515,515,515,515,515,515,515,515,515,515,515,515,515,515,515,515,515,515,515,515,515,515,515,515,515,515,515,515,515,515,515,515,515,515,515,515,515,515,515,515,515,515,515,515,515,515,515,515,515,515,515,515,515,515,515,515,515,515,515,515,515,503,467,390,315,219,184,159,146,136,121,113,108,105,105,104,92,87,82,81,81,81,81,81,81,81,81,81,81,81,81,81,81,81,81,81,81,81,81,81,81,81,80,77,74,59],"timestamp_mouse":[11,34,51,71,91,112,132,152,172,192,211,231,251,272,292,312,332,351,371,391,411,432,452,472,491,512,532,551,571,591,612,631,651,672,692,712,731,751,772,792,812,831,852,872,891,911,931,952,972,992,1011,1031,1051,1071,1091,1112,1131,1152,1171,1191,1212,1231,1251,1272,1291,1311,1331,1351,1371,1392,1411,1432,1451,1471,1492,1512,1531,1552,1571,1592,1611,1632,1651,1671,1691,1712,1731,1751,1771,1791,1811,1832,1852,1871,1891,1911,1932,1952,1972,1991,2011,2031,2052,2071,2092,2112,2131],"xSR":741.5,"ySR":469.95,"xT1":424.9,"yT1":0,"xT2":1058.1,"yT2":0,"toosoon":0,"cond_shown":"Incongruent","ratio_trial":100,"L_num":8,"L_den":20,"R_num":1,"R_den":2,"correct_side":2,"subjID":"juandiegoricaurtemesa7","gender":"0","school":"6","age":"12"},{"start_time":1551800815696,"click_time":1551800817668,"finger_time":1551800817207,"fix_duration":327.8355368691456,"trial":52,"RT":1511,"MT":461,"sideResp":2,"stimulus":[],"xmouse":[759,759,759,759,759,759,759,759,759,759,759,759,759,759,759,759,759,759,759,759,759,759,759,759,759,759,759,759,759,759,759,759,759,759,759,759,759,759,759,759,759,759,759,759,759,759,759,759,759,759,759,759,759,759,759,759,759,759,759,759,759,759,759,759,759,759,759,759,759,759,759,759,759,774,796,819,844,860,877,878,878,877,871,866,866,866,869,873,886,901,924,957,984,1019,1033,1044,1052,1057,1061],"ymouse":[534,534,534,534,534,534,534,534,534,534,534,534,534,534,534,534,534,534,534,534,534,534,534,534,534,534,534,534,534,534,534,534,534,534,534,534,534,534,534,534,534,534,534,534,534,534,534,534,534,534,534,534,534,534,534,534,534,534,534,534,534,534,534,534,534,534,534,534,534,534,534,534,533,517,492,468,438,414,364,353,342,331,310,258,229,206,190,180,168,160,144,126,116,99,93,87,81,77,72],"timestamp_mouse":[10,35,52,71,91,112,132,151,172,192,211,231,252,272,292,312,331,352,371,392,412,431,452,472,492,512,531,551,572,592,611,632,651,671,691,712,732,752,770,792,812,832,852,871,891,912,932,952,971,991,1011,1031,1050,1072,1091,1111,1131,1152,1171,1191,1211,1232,1251,1272,1290,1312,1332,1350,1372,1392,1412,1431,1451,1471,1491,1511,1532,1551,1571,1591,1611,1632,1651,1672,1692,1711,1731,1752,1771,1792,1812,1831,1851,1870,1891,1912,1931,1952,1971],"xSR":741.5,"ySR":469.95,"xT1":424.9,"yT1":0,"xT2":1058.1,"yT2":0,"toosoon":0,"cond_shown":"Congruent","ratio_trial":200,"L_num":9,"L_den":30,"R_num":13,"R_den":26,"correct_side":2,"subjID":"juandiegoricaurtemesa7","gender":"0","school":"6","age":"12"},{"start_time":1551800819346,"click_time":1551800821067,"finger_time":1551800820466,"fix_duration":357.6047547050306,"trial":53,"RT":1120,"MT":601,"sideResp":1,"stimulus":[],"xmouse":[810,810,810,810,810,810,810,810,810,810,810,810,810,810,810,810,810,810,810,810,810,810,810,810,810,810,810,810,810,810,810,810,810,810,810,810,810,810,810,810,810,810,810,810,810,810,810,810,810,809,808,797,786,775,763,755,740,739,736,734,732,730,728,727,725,721,704,669,641,617,597,569,555,541,524,507,462,449,442,435,428,421,420,419,419,420,428],"ymouse":[533,533,533,533,533,533,533,533,533,533,533,533,533,533,533,533,533,533,533,533,533,533,533,533,533,533,533,533,533,533,533,533,533,533,533,533,533,533,533,533,533,533,533,533,533,533,533,533,533,533,533,533,532,529,525,522,515,514,512,510,509,507,505,504,502,493,447,391,352,322,294,253,229,211,195,187,158,147,140,133,125,115,113,111,106,99,80],"timestamp_mouse":[8,38,41,61,80,101,122,142,160,182,201,221,242,261,280,301,321,342,362,381,402,420,442,462,481,502,522,541,560,582,602,620,641,661,682,702,722,742,761,782,801,822,842,861,881,901,920,942,961,982,1001,1021,1041,1061,1082,1101,1120,1142,1162,1181,1202,1221,1241,1261,1281,1301,1320,1341,1361,1381,1401,1421,1441,1461,1481,1501,1521,1541,1561,1581,1601,1621,1642,1661,1681,1701,1721],"xSR":741.5,"ySR":469.95,"xT1":424.9,"yT1":0,"xT2":1058.1,"yT2":0,"toosoon":0,"cond_shown":"Congruent","ratio_trial":100,"L_num":9,"L_den":15,"R_num":8,"R_den":16,"correct_side":1,"subjID":"juandiegoricaurtemesa7","gender":"0","school":"6","age":"12"},{"start_time":1551800822757,"click_time":1551800824367,"finger_time":1551800823827,"fix_duration":528.1940667087434,"trial":54,"RT":1070,"MT":540,"sideResp":1,"stimulus":[],"xmouse":[793,793,793,793,793,793,793,793,793,793,793,793,793,793,793,793,793,793,793,793,793,793,793,793,793,793,793,793,793,793,793,793,793,793,793,793,793,793,793,793,793,793,793,793,793,793,793,793,793,792,784,767,748,735,725,706,694,672,645,620,603,599,594,586,573,533,523,519,517,517,517,516,509,501,496,495,495,495,495,495,493],"ymouse":[534,534,534,534,534,534,534,534,534,534,534,534,534,534,534,534,534,534,534,534,534,534,534,534,534,534,534,534,534,534,534,534,534,534,534,534,534,534,534,534,534,534,534,534,534,534,534,534,534,533,532,530,522,513,504,464,445,415,376,343,305,291,277,262,244,198,187,182,179,179,179,177,168,157,147,138,127,117,111,106,94],"timestamp_mouse":[19,40,51,70,90,109,130,150,170,191,210,230,250,270,291,311,330,350,370,390,410,430,450,470,489,509,530,550,571,590,610,630,650,671,690,710,731,750,770,790,810,830,851,869,891,910,930,951,971,990,1011,1030,1049,1070,1090,1110,1131,1150,1171,1190,1211,1230,1250,1269,1290,1310,1329,1350,1370,1389,1411,1431,1451,1470,1489,1510,1531,1550,1571,1590,1610],"xSR":741.5,"ySR":469.95,"xT1":424.9,"yT1":0,"xT2":1058.1,"yT2":0,"toosoon":0,"cond_shown":"Incongruent","ratio_trial":200,"L_num":7,"L_den":10,"R_num":8,"R_den":16,"correct_side":1,"subjID":"juandiegoricaurtemesa7","gender":"0","school":"6","age":"12"},{"start_time":1551800826678,"click_time":1551800828607,"finger_time":1551800827986,"fix_duration":1309.8027207837981,"trial":55,"RT":1308,"MT":621,"sideResp":2,"stimulus":[],"xmouse":[760,760,760,760,760,760,760,760,760,760,760,760,760,760,760,760,760,760,760,760,760,760,760,760,760,760,760,760,760,760,760,760,760,760,760,760,760,760,760,760,760,760,760,760,760,761,763,770,779,798,801,801,802,803,807,810,810,810,810,812,815,820,824,828,839,846,857,871,890,917,917,917,917,917,928,944,962,979,991,1000,1006,1009,1015,1024,1031,1033,1035,1038,1040,1050,1052,1052,1052,1052,1052,1058,1063],"ymouse":[551,551,551,551,551,551,551,551,551,551,551,551,551,551,551,551,551,551,551,551,551,551,551,551,551,551,551,551,551,551,551,551,551,551,551,551,551,551,551,551,551,551,551,551,551,550,549,545,541,535,534,534,533,533,531,529,529,529,529,528,527,525,522,520,511,502,484,457,416,336,314,298,283,268,228,206,185,1