[{"start_time":1551794668469,"click_time":1551794672850,"finger_time":1551794672228,"fix_duration":1475.342152471147,"trial":0,"RT":3759,"MT":622,"sideResp":2,"stimulus":"img/750/equaldotanddens/R/15_Ratio_750_L_9_R_12.png","xmouse":[793,793,793,793,793,793,793,793,793,793,793,793,793,793,793,793,793,793,793,793,793,793,793,793,793,793,793,793,793,793,793,793,793,793,793,793,793,793,793,793,793,793,793,793,793,793,793,793,793,793,793,793,793,793,793,793,793,793,793,793,793,793,793,793,793,793,793,793,793,793,793,793,793,793,793,793,793,793,793,793,793,793,793,793,793,793,793,793,793,793,793,793,793,793,793,793,793,793,793,793,793,793,793,793,793,793,793,793,793,793,793,793,793,793,793,793,793,793,793,793,793,793,793,793,793,793,793,793,793,793,793,793,793,793,793,793,793,793,793,793,793,793,793,793,793,793,793,793,793,793,793,793,793,793,793,793,793,793,793,793,793,793,793,793,793,793,793,793,793,793,793,793,793,793,793,793,793,793,793,793,793,793,793,793,793,793,816,831,843,877,929,948,966,978,989,1008,1022,1028,1034,1042,1048,1051,1052,1052,1055,1056,1056,1056,1056,1056,1056,1056,1056,1056,1056,1056,1056,1056,1057,1064],"ymouse":[534,534,534,534,534,534,534,534,534,534,534,534,534,534,534,534,534,534,534,534,534,534,534,534,534,534,534,534,534,534,534,534,534,534,534,534,534,534,534,534,534,534,534,534,534,534,534,534,534,534,534,534,534,534,534,534,534,534,534,534,534,534,534,534,534,534,534,534,534,534,534,534,534,534,534,534,534,534,534,534,534,534,534,534,534,534,534,534,534,534,534,534,534,534,534,534,534,534,534,534,534,534,534,534,534,534,534,534,534,534,534,534,534,534,534,534,534,534,534,534,534,534,534,534,534,534,534,534,534,534,534,534,534,534,534,534,534,534,534,534,534,534,534,534,534,534,534,534,534,534,534,534,534,534,534,534,534,534,534,534,534,534,534,534,534,534,534,534,534,534,534,534,534,534,534,534,534,534,534,534,534,534,534,534,534,534,523,506,481,434,385,375,361,351,340,313,291,277,262,241,196,174,150,126,102,68,61,58,58,58,58,58,58,58,58,58,58,58,56,55],"timestamp_mouse":[9,34,39,60,79,99,121,139,159,179,199,220,240,260,280,299,319,340,359,381,400,419,440,459,481,500,520,539,559,580,599,620,639,659,681,699,720,739,759,779,799,819,840,859,880,900,919,939,960,980,999,1019,1040,1060,1081,1099,1120,1139,1161,1179,1200,1219,1239,1259,1280,1299,1320,1339,1359,1381,1400,1421,1439,1459,1480,1500,1521,1539,1560,1581,1601,1620,1640,1659,1679,1700,1719,1739,1759,1780,1799,1820,1839,1861,1880,1901,1920,1940,1961,1980,2000,2020,2041,2059,2080,2099,2120,2140,2159,2180,2200,2220,2239,2261,2280,2299,2320,2339,2360,2379,2399,2420,2439,2459,2480,2501,2520,2539,2559,2581,2599,2620,2641,2660,2680,2700,2720,2739,2761,2779,2799,2820,2840,2861,2880,2900,2921,2939,2959,2980,3000,3021,3039,3060,3079,3099,3120,3140,3160,3179,3199,3220,3241,3259,3279,3301,3319,3340,3361,3379,3400,3419,3439,3460,3481,3500,3520,3540,3559,3580,3599,3620,3639,3659,3680,3700,3719,3740,3759,3780,3799,3819,3839,3859,3879,3900,3919,3940,3960,3979,3999,4019,4040,4060,4079,4100,4119,4140,4159,4180,4200,4220,4241,4259,4280,4299,4319,4340,4360,4380],"xSR":741.5,"ySR":490.1,"xT1":424.9,"yT1":0,"xT2":1058.1,"yT2":0,"toosoon":0,"cond_shown":"equaldotanddens","ratio_trial":750,"smaller_num":"9","larger_num":"12","correct_side":2,"subjID":"juandiegorodriguezamarillo9","gender":"0","age":"11","school":"6","test":{"fix_dur":[250,1500],"timestim":300,"targets_dim":[100,100],"targets_relative_coord":[0.3,0.7],"size_stim":[880,420],"start_dim":[100,100],"size_start":[300,300],"size_fix":60,"samplingrate":20,"img_types":["equaldotsize","equaldotanddens","randomdotsizeEA"],"ratios":[250,500,750,900],"rep_conds":9,"nTrials":120,"trials_to_rest":500,"Trials_order":[19,68,34,118,59,72,39,18,107,71,90,46,40,53,27,9,16,103,76,43,66,94,14,119,29,45,87,70,48,115,106,10,50,117,93,88,63,89,112,77,98,86,54,6,65,1,5,101,78,4,25,35,97,11,23,79,17,99,51,31,60,28,108,13,74,15,91,44,85,32,61,8,111,38,7,2,20,0,33,67,114,62,95,58,104,83,80,47,12,26,69,81,102,57,100,110,92,41,22,105,82,75,64,36,96,42,30,109,24,116,21,49,37,55,84,56,113,73,52,3],"cond_shown":["equaldotanddens","randomdotsizeEA","equaldotanddens","equaldotanddens","randomdotsizeEA","equaldotsize","equaldotsize","equaldotsize","randomdotsizeEA","randomdotsizeEA","equaldotsize","equaldotanddens","equaldotanddens","randomdotsizeEA","equaldotsize","equaldotsize","equaldotanddens","equaldotanddens","equaldotanddens","equaldotanddens","equaldotsize","equaldotanddens","randomdotsizeEA","randomdotsizeEA","randomdotsizeEA","equaldotsize","equaldotsize","equaldotanddens","equaldotsize","equaldotanddens","equaldotanddens","equaldotanddens","randomdotsizeEA","equaldotsize","equaldotsize","equaldotanddens","equaldotsize","randomdotsizeEA","equaldotanddens","randomdotsizeEA","randomdotsizeEA","randomdotsizeEA","equaldotsize","equaldotsize","randomdotsizeEA","equaldotanddens","randomdotsizeEA","randomdotsizeEA","equaldotsize","equaldotanddens","equaldotanddens","randomdotsizeEA","equaldotanddens","randomdotsizeEA","randomdotsizeEA","equaldotanddens","randomdotsizeEA","equaldotsize","equaldotsize","equaldotanddens","equaldotsize","equaldotanddens","equaldotsize","equaldotanddens","randomdotsizeEA","equaldotsize","equaldotanddens","randomdotsizeEA","equaldotanddens","randomdotsizeEA","equaldotanddens","randomdotsizeEA","equaldotsize","randomdotsizeEA","equaldotanddens","randomdotsizeEA","randomdotsizeEA","equaldotsize","equaldotsize","equaldotanddens","equaldotsize","randomdotsizeEA","randomdotsizeEA","equaldotanddens","randomdotsizeEA","randomdotsizeEA","randomdotsizeEA","randomdotsizeEA","equaldotsize","randomdotsizeEA","equaldotsize","equaldotsize","equaldotsize","equaldotsize","equaldotanddens","randomdotsizeEA","randomdotsizeEA","randomdotsizeEA","equaldotanddens","equaldotsize","equaldotanddens","equaldotsize","equaldotanddens","equaldotsize","equaldotsize","equaldotsize","equaldotsize","equaldotanddens","equaldotsize","randomdotsizeEA","equaldotsize","equaldotanddens","equaldotanddens","equaldotanddens","equaldotsize","randomdotsizeEA","randomdotsizeEA","equaldotanddens","equaldotanddens","equaldotsize"],"ratio_trial":[750,750,900,900,900,250,500,750,900,900,750,900,500,500,500,900,500,750,500,750,750,900,250,900,500,900,500,900,250,750,900,900,250,900,900,500,500,500,500,500,250,250,750,750,500,250,500,500,750,500,250,900,250,900,900,750,500,500,500,750,250,500,250,250,250,500,750,750,250,750,250,750,500,250,750,250,750,250,900,750,750,250,900,900,750,900,750,900,250,250,900,900,750,900,500,250,750,500,900,900,900,500,500,250,250,750,750,250,250,750,900,250,250,750,250,750,500,250,500,500],"smaller_num":["9","15","9","9","9","3","5","6","18","18","3","18","1","6","5","9","10","15","1","15","3","18","6","18","1","18","4","18","3","6","18","18","4","18","18","6","6","5","4","1","2","5","6","15","1","5","9","9","15","9","1","18","2","9","18","9","2","2","6","6","3","1","2","2","2","5","3","3","6","15","1","3","2","1","6","6","3","2","9","3","15","3","18","9","6","18","15","9","2","1","18","9","3","18","4","4","6","9","9","9","18","6","4","3","2","6","15","5","4","3","18","6","3","6","3","6","3","3","2","2"],"larger_num":["12","20","10","10","10","12","10","8","20","20","4","20","2","12","10","10","20","20","2","20","4","20","24","20","2","20","8","20","12","8","20","20","16","20","20","12","12","10","8","2","8","20","8","20","2","20","18","18","20","18","4","20","8","10","20","12","4","4","12","8","12","2","8","8","8","10","4","4","24","20","4","4","4","4","8","24","4","8","10","4","20","12","20","10","8","20","20","10","8","4","20","10","4","20","8","16","8","18","10","10","20","12","8","12","8","8","20","20","16","4","20","24","12","8","12","8","6","12","4","4"],"correct_side":[2,1,1,2,1,1,2,1,1,1,1,1,2,1,2,1,2,2,2,2,2,1,2,2,2,1,1,1,2,1,2,2,2,1,1,1,1,2,1,2,1,2,1,2,2,2,2,1,2,1,2,1,1,2,1,2,1,1,1,2,1,2,2,1,2,1,1,2,2,1,2,1,1,2,2,2,2,1,2,1,2,2,2,2,1,2,2,1,1,2,1,1,1,1,1,1,1,1,2,2,1,1,1,2,1,2,2,2,1,1,2,1,1,1,2,1,2,1,1,1],"img_shown":["img/750/equaldotanddens/R/15_Ratio_750_L_9_R_12.png","img/750/randomdotsizeEA/L/1_Ratio_750_L_20_R_15.png","img/900/equaldotanddens/L/1_Ratio_900_L_10_R_9.png","img/900/equaldotanddens/R/3_Ratio_900_L_9_R_10.png","img/900/randomdotsizeEA/L/1_Ratio_900_L_10_R_9.png","img/250/equaldotsize/L/15_Ratio_250_L_12_R_3.png","img/500/equaldotsize/R/14_Ratio_500_L_5_R_10.png","img/750/equaldotsize/L/14_Ratio_750_L_8_R_6.png","img/900/randomdotsizeEA/L/10_Ratio_900_L_20_R_18.png","img/900/randomdotsizeEA/L/2_Ratio_900_L_20_R_18.png","img/750/equaldotsize/L/10_Ratio_750_L_4_R_3.png","img/900/equaldotanddens/L/2_Ratio_900_L_20_R_18.png","img/500/equaldotanddens/R/12_Ratio_500_L_1_R_2.png","img/500/randomdotsizeEA/L/11_Ratio_500_L_12_R_6.png","img/500/equaldotsize/R/14_Ratio_500_L_5_R_10.png","img/900/equaldotsize/L/1_Ratio_900_L_10_R_9.png","img/500/equaldotanddens/R/3_Ratio_500_L_10_R_20.png","img/750/equaldotanddens/R/3_Ratio_750_L_15_R_20.png","img/500/equaldotanddens/R/12_Ratio_500_L_1_R_2.png","img/750/equaldotanddens/R/4_Ratio_750_L_15_R_20.png","img/750/equaldotsize/R/7_Ratio_750_L_3_R_4.png","img/900/equaldotanddens/L/10_Ratio_900_L_20_R_18.png","img/250/randomdotsizeEA/R/6_Ratio_250_L_6_R_24.png","img/900/randomdotsizeEA/R/12_Ratio_900_L_18_R_20.png","img/500/randomdotsizeEA/R/15_Ratio_500_L_1_R_2.png","img/900/equaldotsize/L/4_Ratio_900_L_20_R_18.png","img/500/equaldotsize/L/8_Ratio_500_L_8_R_4.png","img/900/equaldotanddens/L/4_Ratio_900_L_20_R_18.png","img/250/equaldotsize/R/9_Ratio_250_L_3_R_12.png","img/750/equaldotanddens/L/14_Ratio_750_L_8_R_6.png","img/900/equaldotanddens/R/13_Ratio_900_L_18_R_20.png","img/900/equaldotanddens/R/9_Ratio_900_L_18_R_20.png","img/250/randomdotsizeEA/R/10_Ratio_250_L_4_R_16.png","img/900/equaldotsize/L/4_Ratio_900_L_20_R_18.png","img/900/equaldotsize/L/8_Ratio_900_L_20_R_18.png","img/500/equaldotanddens/L/13_Ratio_500_L_12_R_6.png","img/500/equaldotsize/L/11_Ratio_500_L_12_R_6.png","img/500/randomdotsizeEA/R/14_Ratio_500_L_5_R_10.png","img/500/equaldotanddens/L/8_Ratio_500_L_8_R_4.png","img/500/randomdotsizeEA/R/12_Ratio_500_L_1_R_2.png","img/250/randomdotsizeEA/L/3_Ratio_250_L_8_R_2.png","img/250/randomdotsizeEA/R/12_Ratio_250_L_5_R_20.png","img/750/equaldotsize/L/14_Ratio_750_L_8_R_6.png","img/750/equaldotsize/R/4_Ratio_750_L_15_R_20.png","img/500/randomdotsizeEA/R/15_Ratio_500_L_1_R_2.png","img/250/equaldotanddens/R/12_Ratio_250_L_5_R_20.png","img/500/randomdotsizeEA/R/6_Ratio_500_L_9_R_18.png","img/500/randomdotsizeEA/L/4_Ratio_500_L_18_R_9.png","img/750/equaldotsize/R/4_Ratio_750_L_15_R_20.png","img/500/equaldotanddens/L/4_Ratio_500_L_18_R_9.png","img/250/equaldotanddens/R/8_Ratio_250_L_1_R_4.png","img/900/randomdotsizeEA/L/4_Ratio_900_L_20_R_18.png","img/250/equaldotanddens/L/7_Ratio_250_L_8_R_2.png","img/900/randomdotsizeEA/R/5_Ratio_900_L_9_R_10.png","img/900/randomdotsizeEA/L/2_Ratio_900_L_20_R_18.png","img/750/equaldotanddens/R/15_Ratio_750_L_9_R_12.png","img/500/randomdotsizeEA/L/5_Ratio_500_L_4_R_2.png","img/500/equaldotsize/L/5_Ratio_500_L_4_R_2.png","img/500/equaldotsize/L/13_Ratio_500_L_12_R_6.png","img/750/equaldotanddens/R/2_Ratio_750_L_6_R_8.png","img/250/equaldotsize/L/15_Ratio_250_L_12_R_3.png","img/500/equaldotanddens/R/15_Ratio_500_L_1_R_2.png","img/250/equaldotsize/R/13_Ratio_250_L_2_R_8.png","img/250/equaldotanddens/L/7_Ratio_250_L_8_R_2.png","img/250/randomdotsizeEA/R/13_Ratio_250_L_2_R_8.png","img/500/equaldotsize/L/7_Ratio_500_L_10_R_5.png","img/750/equaldotanddens/L/8_Ratio_750_L_4_R_3.png","img/750/randomdotsizeEA/R/12_Ratio_750_L_3_R_4.png","img/250/equaldotanddens/R/6_Ratio_250_L_6_R_24.png","img/750/randomdotsizeEA/L/1_Ratio_750_L_20_R_15.png","img/250/equaldotanddens/R/8_Ratio_250_L_1_R_4.png","img/750/randomdotsizeEA/L/8_Ratio_750_L_4_R_3.png","img/500/equaldotsize/L/5_Ratio_500_L_4_R_2.png","img/250/randomdotsizeEA/R/8_Ratio_250_L_1_R_4.png","img/750/equaldotanddens/R/2_Ratio_750_L_6_R_8.png","img/250/randomdotsizeEA/R/6_Ratio_250_L_6_R_24.png","img/750/randomdotsizeEA/R/12_Ratio_750_L_3_R_4.png","img/250/equaldotsize/L/7_Ratio_250_L_8_R_2.png","img/900/equaldotsize/R/15_Ratio_900_L_9_R_10.png","img/750/equaldotanddens/L/8_Ratio_750_L_4_R_3.png","img/750/equaldotsize/R/3_Ratio_750_L_15_R_20.png","img/250/randomdotsizeEA/R/4_Ratio_250_L_3_R_12.png","img/900/randomdotsizeEA/R/9_Ratio_900_L_18_R_20.png","img/900/equaldotanddens/R/7_Ratio_900_L_9_R_10.png","img/750/randomdotsizeEA/L/13_Ratio_750_L_8_R_6.png","img/900/randomdotsizeEA/R/12_Ratio_900_L_18_R_20.png","img/750/randomdotsizeEA/R/4_Ratio_750_L_15_R_20.png","img/900/randomdotsizeEA/L/1_Ratio_900_L_10_R_9.png","img/250/equaldotsize/L/7_Ratio_250_L_8_R_2.png","img/250/randomdotsizeEA/R/8_Ratio_250_L_1_R_4.png","img/900/equaldotsize/L/2_Ratio_900_L_20_R_18.png","img/900/equaldotsize/L/1_Ratio_900_L_10_R_9.png","img/750/equaldotsize/L/8_Ratio_750_L_4_R_3.png","img/900/equaldotsize/L/4_Ratio_900_L_20_R_18.png","img/500/equaldotanddens/L/8_Ratio_500_L_8_R_4.png","img/250/randomdotsizeEA/L/2_Ratio_250_L_16_R_4.png","img/750/randomdotsizeEA/L/14_Ratio_750_L_8_R_6.png","img/500/randomdotsizeEA/L/4_Ratio_500_L_18_R_9.png","img/900/equaldotanddens/R/3_Ratio_900_L_9_R_10.png","img/900/equaldotsize/R/5_Ratio_900_L_9_R_10.png","img/900/equaldotanddens/L/4_Ratio_900_L_20_R_18.png","img/500/equaldotsize/L/11_Ratio_500_L_12_R_6.png","img/500/equaldotanddens/L/8_Ratio_500_L_8_R_4.png","img/250/equaldotsize/R/11_Ratio_250_L_3_R_12.png","img/250/equaldotsize/L/1_Ratio_250_L_8_R_2.png","img/750/equaldotsize/R/2_Ratio_750_L_6_R_8.png","img/750/equaldotsize/R/4_Ratio_750_L_15_R_20.png","img/250/equaldotanddens/R/12_Ratio_250_L_5_R_20.png","img/250/equaldotsize/L/2_Ratio_250_L_16_R_4.png","img/750/randomdotsizeEA/L/8_Ratio_750_L_4_R_3.png","img/900/equaldotsize/R/11_Ratio_900_L_18_R_20.png","img/250/equaldotanddens/L/5_Ratio_250_L_24_R_6.png","img/250/equaldotanddens/L/15_Ratio_250_L_12_R_3.png","img/750/equaldotanddens/L/14_Ratio_750_L_8_R_6.png","img/250/equaldotsize/R/11_Ratio_250_L_3_R_12.png","img/750/randomdotsizeEA/L/13_Ratio_750_L_8_R_6.png","img/500/randomdotsizeEA/R/2_Ratio_500_L_3_R_6.png","img/250/equaldotanddens/L/14_Ratio_250_L_12_R_3.png","img/500/equaldotanddens/L/5_Ratio_500_L_4_R_2.png","img/500/equaldotsize/L/5_Ratio_500_L_4_R_2.png"],"Rat0":[["12_Ratio_0_L_9_R_0.png","13_Ratio_0_L_6_R_0.png","5_Ratio_0_L_2_R_0.png","6_Ratio_0_L_4_R_0.png","8_Ratio_0_L_6_R_0.png"],["1_Ratio_0_L_0_R_17.png","10_Ratio_0_L_0_R_22.png","11_Ratio_0_L_0_R_1.png","14_Ratio_0_L_0_R_24.png","15_Ratio_0_L_0_R_4.png","2_Ratio_0_L_0_R_5.png","3_Ratio_0_L_0_R_17.png","4_Ratio_0_L_0_R_7.png","7_Ratio_0_L_0_R_19.png","9_Ratio_0_L_0_R_15.png"]],"Rat250":[["1_Ratio_250_L_8_R_2.png","14_Ratio_250_L_12_R_3.png","15_Ratio_250_L_12_R_3.png","2_Ratio_250_L_16_R_4.png","3_Ratio_250_L_8_R_2.png","5_Ratio_250_L_24_R_6.png","7_Ratio_250_L_8_R_2.png"],["10_Ratio_250_L_4_R_16.png","11_Ratio_250_L_3_R_12.png","12_Ratio_250_L_5_R_20.png","13_Ratio_250_L_2_R_8.png","4_Ratio_250_L_3_R_12.png","6_Ratio_250_L_6_R_24.png","8_Ratio_250_L_1_R_4.png","9_Ratio_250_L_3_R_12.png"]],"Rat500":[["10_Ratio_500_L_4_R_2.png","11_Ratio_500_L_12_R_6.png","13_Ratio_500_L_12_R_6.png","4_Ratio_500_L_18_R_9.png","5_Ratio_500_L_4_R_2.png","7_Ratio_500_L_10_R_5.png","8_Ratio_500_L_8_R_4.png"],["1_Ratio_500_L_9_R_18.png","12_Ratio_500_L_1_R_2.png","14_Ratio_500_L_5_R_10.png","15_Ratio_500_L_1_R_2.png","2_Ratio_500_L_3_R_6.png","3_Ratio_500_L_10_R_20.png","6_Ratio_500_L_9_R_18.png","9_Ratio_500_L_2_R_4.png"]],"Rat750":[["1_Ratio_750_L_20_R_15.png","10_Ratio_750_L_4_R_3.png","13_Ratio_750_L_8_R_6.png","14_Ratio_750_L_8_R_6.png","6_Ratio_750_L_24_R_18.png","8_Ratio_750_L_4_R_3.png","9_Ratio_750_L_4_R_3.png"],["11_Ratio_750_L_12_R_16.png","12_Ratio_750_L_3_R_4.png","15_Ratio_750_L_9_R_12.png","2_Ratio_750_L_6_R_8.png","3_Ratio_750_L_15_R_20.png","4_Ratio_750_L_15_R_20.png","5_Ratio_750_L_15_R_20.png","7_Ratio_750_L_3_R_4.png"]],"Rat900":[["1_Ratio_900_L_10_R_9.png","10_Ratio_900_L_20_R_18.png","2_Ratio_900_L_20_R_18.png","4_Ratio_900_L_20_R_18.png","8_Ratio_900_L_20_R_18.png"],["11_Ratio_900_L_18_R_20.png","12_Ratio_900_L_18_R_20.png","13_Ratio_900_L_18_R_20.png","14_Ratio_900_L_18_R_20.png","15_Ratio_900_L_9_R_10.png","3_Ratio_900_L_9_R_10.png","5_Ratio_900_L_9_R_10.png","6_Ratio_900_L_9_R_10.png","7_Ratio_900_L_9_R_10.png","9_Ratio_900_L_18_R_20.png"]],"Rat1000":[["10_Ratio_1000_L_16_R_16.png","11_Ratio_1000_L_6_R_6.png","12_Ratio_1000_L_14_R_14.png","13_Ratio_1000_L_20_R_20.png","15_Ratio_1000_L_15_R_15.png","2_Ratio_1000_L_17_R_17.png","4_Ratio_1000_L_9_R_9.png","5_Ratio_1000_L_6_R_6.png","6_Ratio_1000_L_19_R_19.png","8_Ratio_1000_L_14_R_14.png","9_Ratio_1000_L_25_R_25.png"],["1_Ratio_1000_L_1_R_1.png","14_Ratio_1000_L_17_R_17.png","3_Ratio_1000_L_17_R_17.png","7_Ratio_1000_L_6_R_6.png"]]}},{"start_time":1551794674485,"click_time":1551794676069,"finger_time":1551794675269,"fix_duration":495.936013608508,"trial":1,"RT":784,"MT":800,"sideResp":1,"stimulus":"img/750/randomdotsizeEA/L/1_Ratio_750_L_20_R_15.png","xmouse":[805,805,805,805,805,805,805,805,805,805,805,805,805,805,805,805,805,805,805,805,805,805,805,805,805,805,805,805,805,805,805,805,805,805,805,805,805,805,802,781,761,738,717,694,655,651,651,651,651,651,651,651,651,651,650,651,652,652,652,650,644,635,629,625,622,603,586,571,563,561,561,561,561,561,560,555,550,544,537,509],"ymouse":[489,489,489,489,489,489,489,489,489,489,489,489,489,489,489,489,489,489,489,489,489,489,489,489,489,489,489,489,489,489,489,489,489,489,489,489,489,489,485,438,406,377,351,324,293,290,290,290,290,290,290,290,290,290,290,286,281,280,277,266,252,236,224,213,195,98,50,19,9,7,7,7,7,7,7,9,18,33,48,78],"timestamp_mouse":[9,39,44,65,84,103,125,145,163,183,203,224,244,263,283,303,323,345,364,384,403,424,444,463,484,503,524,543,563,584,603,623,643,664,684,703,723,744,764,784,803,823,844,863,884,903,923,944,965,984,1004,1023,1044,1063,1083,1103,1123,1144,1164,1183,1203,1223,1244,1264,1283,1304,1323,1345,1364,1384,1404,1423,1443,1463,1484,1504,1524,1544,1564,1584],"xSR":741.5,"ySR":458.25,"xT1":424.9,"yT1":0,"xT2":1058.1,"yT2":0,"toosoon":0,"cond_shown":"randomdotsizeEA","ratio_trial":750,"smaller_num":"15","larger_num":"20","correct_side":1,"subjID":"juandiegorodriguezamarillo9","gender":"0","age":"11","school":"6"},{"start_time":1551794677242,"click_time":1551794678288,"finger_time":1551794678188,"fix_duration":250,"trial":2,"RT":946,"MT":100,"sideResp":2,"stimulus":"img/900/equaldotanddens/L/1_Ratio_900_L_10_R_9.png","xmouse":[792,792,792,792,792,792,792,792,792,792,792,792,792,792,792,792,792,792,792,792,792,792,792,792,792,792,792,792,792,792,792,792,792,792,792,792,792,792,792,792,792,792,792,792,792,792,792,832,863,952,1000,1029,1062],"ymouse":[459,459,459,459,459,459,459,459,459,459,459,459,459,459,459,459,459,459,459,459,459,459,459,459,459,459,459,459,459,459,459,459,459,459,459,459,459,459,459,459,459,459,459,459,459,459,459,400,347,174,94,52,19],"timestamp_mouse":[21,42,47,66,86,107,126,146,168,186,206,226,246,267,286,306,327,346,366,386,407,426,446,466,486,507,526,546,566,586,607,627,647,666,686,706,727,746,767,786,807,828,846,866,887,907,926,946,966,986,1006,1026,1046],"xSR":741.5,"ySR":458.25,"xT1":424.9,"yT1":0,"xT2":1058.1,"yT2":0,"toosoon":0,"cond_shown":"equaldotanddens","ratio_trial":900,"smaller_num":"9","larger_num":"10","correct_side":1,"subjID":"juandiegorodriguezamarillo9","gender":"0","age":"11","school":"6"},{"start_time":1551794681317,"click_time":1551794682309,"finger_time":1551794682110,"fix_duration":1306.560252953,"trial":3,"RT":793,"MT":199,"sideResp":2,"stimulus":"img/900/equaldotanddens/R/3_Ratio_900_L_9_R_10.png","xmouse":[788,788,788,788,788,788,788,788,788,788,788,788,788,788,788,788,788,788,788,788,788,788,788,788,788,788,788,788,788,788,788,788,788,788,788,788,788,788,796,818,841,849,849,848,859,881,914,998,1049,1084],"ymouse":[488,488,488,488,488,488,488,488,488,488,488,488,488,488,488,488,488,488,488,488,488,488,488,488,488,488,488,488,488,488,488,488,488,488,488,488,488,488,465,390,293,189,115,82,80,80,80,69,49,24],"timestamp_mouse":[11,32,52,72,91,112,133,152,171,193,212,231,251,271,291,312,332,351,372,391,411,431,451,471,491,512,531,551,573,593,612,631,651,671,691,711,731,751,771,793,811,831,851,871,892,911,932,951,971,992],"xSR":741.5,"ySR":458.25,"xT1":424.9,"yT1":0,"xT2":1058.1,"yT2":0,"toosoon":0,"cond_shown":"equaldotanddens","ratio_trial":900,"smaller_num":"9","larger_num":"10","correct_side":2,"subjID":"juandiegorodriguezamarillo9","gender":"0","age":"11","school":"6"},{"start_time":1551794683973,"click_time":1551794685149,"finger_time":1551794684748,"fix_duration":703.6272284981923,"trial":4,"RT":775,"MT":401,"sideResp":1,"stimulus":"img/900/randomdotsizeEA/L/1_Ratio_900_L_10_R_9.png","xmouse":[774,774,774,774,774,774,774,774,774,774,774,774,774,774,774,774,774,774,774,774,774,774,774,774,774,774,774,774,774,774,774,774,774,774,774,774,772,767,754,719,684,664,648,634,616,610,609,608,604,584,566,554,544,535,529,514,506,497,494],"ymouse":[500,500,500,500,500,500,500,500,500,500,500,500,500,500,500,500,500,500,500,500,500,500,500,500,500,500,500,500,500,500,500,500,500,500,500,500,495,483,451,388,338,314,297,284,271,267,266,265,261,236,213,196,178,164,153,127,112,100,93],"timestamp_mouse":[15,35,55,77,97,116,136,156,177,196,217,235,255,275,295,317,337,355,376,395,415,436,455,475,495,515,537,555,577,595,615,635,655,676,695,717,736,757,775,795,815,836,855,876,895,915,937,955,976,995,1015,1035,1056,1077,1096,1115,1136,1155,1176],"xSR":741.5,"ySR":458.25,"xT1":424.9,"yT1":0,"xT2":1058.1,"yT2":0,"toosoon":0,"cond_shown":"randomdotsizeEA","ratio_trial":900,"smaller_num":"9","larger_num":"10","correct_side":1,"subjID":"juandiegorodriguezamarillo9","gender":"0","age":"11","school":"6"},{"start_time":1551794686412,"click_time":1551794687329,"finger_time":1551794687068,"fix_duration":423.9492295544193,"trial":5,"RT":656,"MT":261,"sideResp":1,"stimulus":"img/250/equaldotsize/L/15_Ratio_250_L_12_R_3.png","xmouse":[783,783,783,783,783,783,783,783,783,783,783,783,783,783,783,783,783,783,783,783,783,783,783,783,783,783,783,783,783,783,784,778,762,711,688,679,677,670,663,647,636,628,600,573,532,492],"ymouse":[521,521,521,521,521,521,521,521,521,521,521,521,521,521,521,521,521,521,521,521,521,521,521,521,521,521,521,521,521,521,519,490,447,326,272,252,240,216,202,181,170,160,140,125,106,88],"timestamp_mouse":[16,37,56,77,96,116,138,157,178,197,216,236,257,277,297,316,338,356,377,398,416,436,456,477,497,517,538,557,576,596,617,637,656,676,696,716,736,757,776,796,817,836,856,876,896,917],"xSR":741.5,"ySR":458.25,"xT1":424.9,"yT1":0,"xT2":1058.1,"yT2":0,"toosoon":0,"cond_shown":"equaldotsize","ratio_trial":250,"smaller_num":"3","larger_num":"12","correct_side":1,"subjID":"juandiegorodriguezamarillo9","gender":"0","age":"11","school":"6"},{"start_time":1551794688804,"click_time":1551794689670,"finger_time":1551794689428,"fix_duration":635.5299997789103,"trial":6,"RT":624,"MT":242,"sideResp":2,"stimulus":"img/500/equaldotsize/R/14_Ratio_500_L_5_R_10.png","xmouse":[768,768,768,768,768,768,768,768,768,768,768,768,768,768,768,768,768,768,768,768,768,768,768,768,768,768,768,769,774,777,791,821,852,917,939,953,963,974,981,1007,1023,1042,1060,1080],"ymouse":[513,513,513,513,513,513,513,513,513,513,513,513,513,513,513,513,513,513,513,513,513,513,513,513,513,513,513,513,510,507,481,423,350,236,196,175,163,155,152,142,133,120,106,93],"timestamp_mouse":[8,35,44,64,85,105,126,145,164,186,205,225,245,265,285,304,324,345,365,385,405,425,444,464,484,504,525,545,565,585,605,624,646,665,684,704,726,745,764,785,805,824,845,865],"xSR":741.5,"ySR":458.25,"xT1":424.9,"yT1":0,"xT2":1058.1,"yT2":0,"toosoon":0,"cond_shown":"equaldotsize","ratio_trial":500,"smaller_num":"5","larger_num":"10","correct_side":2,"subjID":"juandiegorodriguezamarillo9","gender":"0","age":"11","school":"6"},{"start_time":1551794691259,"click_time":1551794692189,"finger_time":1551794691889,"fix_duration":449.66043385399655,"trial":7,"RT":630,"MT":300,"sideResp":1,"stimulus":"img/750/equaldotsize/L/14_Ratio_750_L_8_R_6.png","xmouse":[780,780,780,780,780,780,780,780,780,780,780,780,780,780,780,780,780,780,780,780,780,780,780,780,780,780,780,780,780,780,768,748,718,682,649,615,609,608,608,608,598,592,586,581,575,562,517],"ymouse":[515,515,515,515,515,515,515,515,515,515,516,516,516,516,516,516,516,516,516,516,516,516,516,516,516,516,516,516,516,516,481,433,380,323,281,241,232,229,223,212,177,158,145,137,127,110,64],"timestamp_mouse":[9,41,50,71,89,109,131,150,169,189,210,229,250,270,289,310,329,349,369,391,409,430,451,469,489,511,530,549,570,590,609,630,649,669,690,710,729,750,770,790,809,829,850,869,891,909,930],"xSR":741.5,"ySR":458.25,"xT1":424.9,"yT1":0,"xT2":1058.1,"yT2":0,"toosoon":0,"cond_shown":"equaldotsize","ratio_trial":750,"smaller_num":"6","larger_num":"8","correct_side":1,"subjID":"juandiegorodriguezamarillo9","gender":"0","age":"11","school":"6"},{"start_time":1551794695118,"click_time":1551794696188,"finger_time":1551794695788,"fix_duration":708.8775021039734,"trial":8,"RT":670,"MT":400,"sideResp":2,"stimulus":"img/900/randomdotsizeEA/L/10_Ratio_900_L_20_R_18.png","xmouse":[775,775,775,775,775,775,775,775,775,775,775,775,775,775,775,775,775,775,775,775,775,775,775,775,775,775,775,775,775,775,775,776,791,797,800,800,797,789,789,788,788,789,792,803,810,820,832,865,888,912,936,963,1016,1072],"ymouse":[513,513,513,513,513,513,513,513,513,513,513,513,513,513,513,513,513,513,513,513,513,513,513,513,513,513,513,513,513,513,513,513,487,457,435,414,395,369,363,360,358,356,353,344,337,327,314,265,234,205,180,157,120,85],"timestamp_mouse":[11,36,51,70,90,110,130,150,170,190,210,230,251,270,290,310,331,350,370,391,411,431,450,470,490,510,530,550,571,590,611,631,650,670,690,710,731,750,770,791,811,830,851,870,891,910,931,951,970,990,1011,1030,1050,1070],"xSR":741.5,"ySR":458.25,"xT1":424.9,"yT1":0,"xT2":1058.1,"yT2":0,"toosoon":0,"cond_shown":"randomdotsizeEA","ratio_trial":900,"smaller_num":"18","larger_num":"20","correct_side":1,"subjID":"juandiegorodriguezamarillo9","gender":"0","age":"11","school":"6"},{"start_time":1551794697773,"click_time":1551794698608,"finger_time":1551794698309,"fix_duration":802.0120718740826,"trial":9,"RT":536,"MT":299,"sideResp":1,"stimulus":"img/900/randomdotsizeEA/L/2_Ratio_900_L_20_R_18.png","xmouse":[805,805,805,805,805,805,805,805,805,805,805,805,805,805,805,805,805,805,805,805,805,805,805,805,804,800,788,747,688,631,557,547,531,528,527,527,527,527,527,527,527,523],"ymouse":[469,469,469,469,469,469,469,469,469,469,469,469,469,469,469,469,469,469,469,469,469,469,469,469,469,461,425,336,235,148,78,76,75,75,75,72,60,48,45,45,45,51],"timestamp_mouse":[15,36,56,77,95,116,136,156,177,195,215,236,255,276,295,315,335,355,376,395,417,435,456,476,497,516,536,556,577,595,616,636,657,675,695,715,735,755,776,796,816,835],"xSR":741.5,"ySR":458.25,"xT1":424.9,"yT1":0,"xT2":1058.1,"yT2":0,"toosoon":0,"cond_shown":"randomdotsizeEA","ratio_trial":900,"smaller_num":"18","larger_num":"20","correct_side":1,"subjID":"juandiegorodriguezamarillo9","gender":"0","age":"11","school":"6"},{"start_time":1551794701421,"click_time":1551794702348,"finger_time":1551794702008,"fix_duration":331.0582250873557,"trial":10,"RT":587,"MT":340,"sideResp":1,"stimulus":"img/750/equaldotsize/L/10_Ratio_750_L_4_R_3.png","xmouse":[804,804,804,804,804,804,804,804,804,804,804,804,804,804,804,804,804,804,804,804,804,804,804,804,804,804,804,804,803,803,803,801,796,792,786,780,774,750,718,695,672,653,613,589,563,533,510],"ymouse":[490,490,490,490,490,490,490,490,490,490,490,490,490,490,490,490,490,490,490,490,490,490,490,490,490,490,491,491,471,433,373,318,244,221,206,196,189,167,147,136,127,123,105,93,76,58,46],"timestamp_mouse":[11,35,47,68,88,107,127,148,168,188,208,228,248,269,287,307,328,347,368,388,407,428,448,468,487,508,528,548,567,587,608,627,648,667,688,708,727,747,767,788,808,827,847,867,887,908,927],"xSR":741.5,"ySR":458.25,"xT1":424.9,"yT1":0,"xT2":1058.1,"yT2":0,"toosoon":0,"cond_shown":"equaldotsize","ratio_trial":750,"smaller_num":"3","larger_num":"4","correct_side":1,"subjID":"juandiegorodriguezamarillo9","gender":"0","age":"11","school":"6"},{"start_time":1551794704259,"click_time":1551794705648,"finger_time":1551794705069,"fix_duration":1150.2530790295014,"trial":11,"RT":810,"MT":579,"sideResp":2,"stimulus":"img/900/equaldotanddens/L/2_Ratio_900_L_20_R_18.png","xmouse":[772,772,772,772,772,772,772,772,772,772,772,772,772,772,772,772,772,772,772,772,772,772,772,772,772,772,772,772,772,772,772,772,772,772,772,772,772,772,765,752,693,678,674,674,674,669,665,664,663,663,664,674,684,700,725,800,887,928,956,973,983,986,991,1004,1028,1086,1115,1123,1129,1130],"ymouse":[479,479,479,479,479,479,479,479,479,479,479,479,479,479,479,479,479,479,479,479,479,479,479,479,479,479,479,479,479,479,479,479,479,479,479,479,479,479,477,471,451,449,449,449,449,444,437,431,425,417,396,377,362,341,303,234,198,181,168,156,148,148,145,142,136,120,111,105,101,98],"timestamp_mouse":[9,41,50,70,91,109,129,150,171,189,209,231,250,270,290,310,330,349,370,389,409,430,451,470,489,510,530,549,569,590,610,630,650,670,691,710,729,750,770,790,810,829,850,869,889,909,929,950,970,989,1010,1029,1049,1070,1089,1109,1129,1149,1169,1189,1209,1229,1249,1270,1290,1309,1329,1350,1369,1389],"xSR":741.5,"ySR":458.25,"xT1":424.9,"yT1":0,"xT2":1058.1,"yT2":0,"toosoon":0,"cond_shown":"equaldotanddens","ratio_trial":900,"smaller_num":"18","larger_num":"20","correct_side":1,"subjID":"juandiegorodriguezamarillo9","gender":"0","age":"11","school":"6"},{"start_time":1551794709125,"click_time":1551794710168,"finger_time":1551794709868,"fix_duration":1193.199922074255,"trial":12,"RT":743,"MT":300,"sideResp":2,"stimulus":"img/500/equaldotanddens/R/12_Ratio_500_L_1_R_2.png","xmouse":[769,770,770,770,770,770,770,770,770,770,770,770,770,770,770,770,770,770,770,770,770,770,770,770,770,770,770,770,770,770,770,770,770,770,770,770,774,787,806,841,884,936,984,995,1001,1003,1004,1006,1010,1017,1028,1044,1079],"ymouse":[477,477,477,477,477,477,477,477,477,477,477,477,477,477,477,477,477,477,477,477,477,477,477,477,477,477,477,477,477,477,477,477,477,477,477,477,476,456,422,360,283,207,137,118,110,107,106,103,100,97,92,86,75],"timestamp_mouse":[4,35,43,63,84,103,123,143,163,183,204,223,244,264,284,304,323,343,364,383,405,423,443,464,485,503,524,544,564,583,605,623,643,665,684,703,724,743,763,783,803,823,844,863,883,903,923,944,963,984,1003,1023,1043],"xSR":741.5,"ySR":458.25,"xT1":424.9,"yT1":0,"xT2":1058.1,"yT2":0,"toosoon":0,"cond_shown":"equaldotanddens","ratio_trial":500,"smaller_num":"1","larger_num":"2","correct_side":2,"subjID":"juandiegorodriguezamarillo9","gender":"0","age":"11","school":"6"},{"start_time":1551794711464,"click_time":1551794713069,"finger_time":1551794712229,"fix_duration":514.9766263029554,"trial":13,"RT":765,"MT":840,"sideResp":1,"stimulus":"img/500/randomdotsizeEA/L/11_Ratio_500_L_12_R_6.png","xmouse":[749,749,749,749,750,753,753,756,758,762,766,771,772,773,773,773,773,773,773,773,773,773,773,773,773,773,773,773,773,773,773,773,773,773,773,773,773,760,743,721,697,687,675,658,646,637,618,611,604,596,584,562,554,547,542,529,523,520,520,518,516,514,509,502,495,489,489,489,489,489,489,489,489,489,489,489,489,489,489,488,486],"ymouse":[501,501,501,501,501,502,502,503,504,507,508,510,511,511,511,511,511,511,511,511,511,511,511,511,511,511,511,511,511,511,511,511,511,511,511,511,505,473,443,408,375,364,351,338,329,323,307,301,294,283,267,235,223,212,205,182,172,167,164,162,156,150,140,125,113,103,103,103,103,103,103,103,103,103,103,103,103,103,103,102,88],"timestamp_mouse":[11,35,45,64,85,105,124,145,164,184,204,225,245,264,285,305,324,345,364,384,405,425,446,464,484,504,524,544,564,585,604,624,645,664,684,705,725,744,765,786,805,824,844,864,885,905,925,944,964,984,1004,1024,1044,1065,1086,1105,1124,1145,1164,1184,1205,1224,1245,1265,1284,1304,1324,1345,1364,1384,1405,1425,1444,1464,1485,1506,1525,1545,1565,1585,1605],"xSR":741.5,"ySR":458.25,"xT1":424.9,"yT1":0,"xT2":1058.1,"yT2":0,"toosoon":0,"cond_shown":"randomdotsizeEA","ratio_trial":500,"smaller_num":"6","larger_num":"12","correct_side":1,"subjID":"juandiegorodriguezamarillo9","gender":"0","age":"11","school":"6"},{"start_time":1551794714279,"click_time":1551794715169,"finger_time":1551794714828,"fix_duration":250,"trial":14,"RT":549,"MT":341,"sideResp":2,"stimulus":"img/500/equaldotsize/R/14_Ratio_500_L_5_R_10.png","xmouse":[808,808,808,808,808,808,808,808,808,808,808,808,808,808,808,808,808,808,808,808,808,808,808,808,808,808,808,829,872,952,975,993,1005,1007,1009,1009,1009,1011,1013,1015,1021,1027,1039,1056,1098],"ymouse":[481,481,481,481,481,481,481,481,481,481,481,481,481,481,481,481,481,481,481,481,481,481,481,481,481,481,478,451,388,240,169,123,97,88,82,80,79,75,71,65,59,59,58,57,57],"timestamp_mouse":[10,38,49,70,89,109,129,149,170,189,209,229,249,270,290,310,329,350,371,389,409,430,449,470,489,509,529,549,570,589,609,630,649,670,690,709,730,749,769,789,809,829,849,870,890],"xSR":741.5,"ySR":458.25,"xT1":424.9,"yT1":0,"xT2":1058.1,"yT2":0,"toosoon":0,"cond_shown":"equaldotsize","ratio_trial":500,"smaller_num":"5","larger_num":"10","correct_side":2,"subjID":"juandiegorodriguezamarillo9","gender":"0","age":"11","school":"6"},{"start_time":1551794717630,"click_time":1551794718668,"finger_time":1551794718368,"fix_duration":300.6993897781591,"trial":15,"RT":738,"MT":300,"sideResp":1,"stimulus":"img/900/equaldotsize/L/1_Ratio_900_L_10_R_9.png","xmouse":[801,801,801,801,801,801,801,801,801,801,801,801,801,801,801,801,801,801,801,801,801,801,801,801,801,801,801,801,801,801,801,801,801,801,801,799,766,680,608,530,474,411,390,376,372,371,370,370,370,376,384,425],"ymouse":[490,490,490,490,490,490,490,490,490,490,490,490,490,490,490,490,490,490,490,490,490,490,490,490,490,490,490,490,490,490,490,490,490,490,490,482,427,297,211,149,113,86,78,73,72,71,71,71,71,73,74,75],"timestamp_mouse":[18,39,58,78,98,119,140,158,179,198,219,239,259,279,299,318,338,358,378,398,419,438,458,478,500,518,539,558,580,598,618,639,659,678,698,718,738,758,778,798,818,838,859,878,898,919,940,958,978,999,1018,1038],"xSR":741.5,"ySR":458.25,"xT1":424.9,"yT1":0,"xT2":1058.1,"yT2":0,"toosoon":0,"cond_shown":"equaldotsize","ratio_trial":900,"smaller_num":"9","larger_num":"10","correct_side":1,"subjID":"juandiegorodriguezamarillo9","gender":"0","age":"11","school":"6"},{"start_time":1551794720930,"click_time":1551794721869,"finger_time":1551794721589,"fix_duration":1420.9027544008834,"trial":16,"RT":659,"MT":280,"sideResp":2,"stimulus":"img/500/equaldotanddens/R/3_Ratio_500_L_10_R_20.png","xmouse":[809,809,809,809,809,809,809,809,809,809,809,809,808,806,801,799,796,796,796,796,796,796,796,796,796,796,796,796,796,796,799,816,899,936,971,1002,1037,1045,1050,1051,1053,1061,1069,1075,1080,1084,1087],"ymouse":[499,499,499,499,499,499,499,499,499,499,499,499,500,500,498,497,496,496,496,496,496,496,496,496,496,496,496,496,496,495,490,463,331,279,237,201,169,164,160,158,156,144,133,122,111,100,91],"timestamp_mouse":[18,40,58,79,98,118,138,159,178,198,218,238,259,279,299,320,338,359,380,398,418,439,459,479,498,518,538,559,578,598,618,638,659,678,698,718,738,758,778,799,818,838,858,879,898,919,939],"xSR":741.5,"ySR":458.25,"xT1":424.9,"yT1":0,"xT2":1058.1,"yT2":0,"toosoon":0,"cond_shown":"equaldotanddens","ratio_trial":500,"smaller_num":"10","larger_num":"20","correct_side":2,"subjID":"juandiegorodriguezamarillo9","gender":"0","age":"11","school":"6"},{"start_time":1551794723060,"click_time":1551794724069,"finger_time":1551794723728,"fix_duration":250,"trial":17,"RT":668,"MT":341,"sideResp":2,"stimulus":"img/750/equaldotanddens/R/3_Ratio_750_L_15_R_20.png","xmouse":[806,806,806,806,806,806,806,806,806,806,806,806,806,806,806,806,806,806,806,806,806,806,806,806,806,806,806,806,806,806,806,806,823,853,890,948,987,1008,1024,1034,1044,1045,1045,1045,1045,1045,1045,1045,1045,1045,1103],"ymouse":[480,480,480,480,480,480,480,480,480,480,480,480,480,480,480,480,480,480,480,480,480,480,480,480,480,480,480,480,480,480,480,482,460,402,314,144,75,48,33,20,4,1,1,1,1,1,1,1,1,1,7],"timestamp_mouse":[10,38,50,68,89,109,128,148,169,188,208,228,248,268,288,309,328,349,369,388,408,428,448,469,488,509,528,548,570,589,609,628,649,668,690,708,728,748,768,788,808,828,848,869,889,909,929,948,968,989,1009],"xSR":741.5,"ySR":458.25,"xT1":424.9,"yT1":0,"xT2":1058.1,"yT2":0,"toosoon":0,"cond_shown":"equaldotanddens","ratio_trial":750,"smaller_num":"15","larger_num":"20","correct_side":2,"subjID":"juandiegorodriguezamarillo9","gender":"0","age":"11","school":"6"},{"start_time":1551794725442,"click_time":1551794726429,"finger_time":1551794726168,"fix_duration":512.5981520572034,"trial":18,"RT":726,"MT":261,"sideResp":2,"stimulus":"img/500/equaldotanddens/R/12_Ratio_500_L_1_R_2.png","xmouse":[775,775,775,775,775,775,775,775,775,775,775,775,775,775,775,775,775,775,775,775,775,775,775,775,775,775,775,774,774,774,774,774,774,766,758,750,735,703,682,669,662,661,661,663,677,709,833,909,1027,1101],"ymouse":[508,508,508,508,508,508,508,508,508,508,508,508,508,508,508,508,508,508,508,508,508,508,508,508,508,508,508,509,507,507,507,507,507,502,497,483,404,325,288,268,260,258,258,258,258,254,210,177,130,93],"timestamp_mouse":[10,42,46,66,88,107,127,146,167,187,208,227,246,266,286,307,327,346,366,388,407,427,446,466,487,506,528,546,566,586,607,626,646,667,687,706,726,746,766,786,807,828,847,867,887,906,927,947,966,987],"xSR":741.5,"ySR":458.25,"xT1":424.9,"yT1":0,"xT2":1058.1,"yT2":0,"toosoon":0,"cond_shown":"equaldotanddens","ratio_trial":500,"smaller_num":"1","larger_num":"2","correct_side":2,"subjID":"juandiegorodriguezamarillo9","gender":"0","age":"11","school":"6"},{"start_time":1551794732809,"click_time":1551794733648,"finger_time":1551794733488,"fix_duration":1098.779706234774,"trial":19,"RT":679,"MT":160,"sideResp":2,"stimulus":"img/750/equaldotanddens/R/4_Ratio_750_L_15_R_20.png","xmouse":[784,784,784,784,784,784,784,784,784,784,784,784,784,784,784,784,784,784,784,784,784,784,784,784,784,784,784,784,784,784,784,784,784,807,854,913,960,997,1057,1079,1107,1118,1123],"ymouse":[499,499,499,499,499,499,499,499,499,499,499,499,499,499,499,499,499,499,499,499,499,499,499,499,499,499,499,499,499,499,499,499,499,476,413,331,275,236,183,159,123,105,91],"timestamp_mouse":[1,20,40,59,80,99,119,139,159,180,200,219,240,259,279,299,320,340,359,379,399,419,440,460,479,500,521,540,560,579,600,619,639,659,679,699,719,739,760,781,799,819,839],"xSR":741.5,"ySR":458.25,"xT1":424.9,"yT1":0,"xT2":1058.1,"yT2":0,"toosoon":0,"cond_shown":"equaldotanddens","ratio_trial":750,"smaller_num":"15","larger_num":"20","correct_side":2,"subjID":"juandiegorodriguezamarillo9","gender":"0","age":"11","school":"6"},{"start_time":1551794735309,"click_time":1551794736268,"finger_time":1551794736088,"fix_duration":1058.5364620117516,"trial":20,"RT":779,"MT":180,"sideResp":2,"stimulus":"img/750/equaldotsize/R/7_Ratio_750_L_3_R_4.png","xmouse":[811,811,811,811,811,811,811,811,811,811,811,811,811,811,811,811,811,811,811,811,811,811,811,811,811,811,811,811,811,811,811,811,811,811,811,811,811,811,825,846,871,905,947,1032,1088,1107,1119,1124,1127],"ymouse":[511,511,511,511,511,511,511,511,511,511,511,511,511,511,511,511,511,511,511,511,511,511,511,511,511,511,511,511,511,511,511,511,511,511,511,511,511,511,487,456,425,385,334,232,164,137,119,108,89],"timestamp_mouse":[1,19,42,60,79,99,119,139,160,179,199,219,239,259,279,299,319,339,359,380,400,420,440,459,479,500,520,539,560,580,599,619,640,659,679,699,719,739,759,779,800,820,839,860,879,899,919,940,959],"xSR":741.5,"ySR":458.25,"xT1":424.9,"yT1":0,"xT2":1058.1,"yT2":0,"toosoon":0,"cond_shown":"equaldotsize","ratio_trial":750,"smaller_num":"3","larger_num":"4","correct_side":2,"subjID":"juandiegorodriguezamarillo9","gender":"0","age":"11","school":"6"},{"start_time":1551794738191,"click_time":1551794739469,"finger_time":1551794738968,"fix_duration":1140.4459124075627,"trial":21,"RT":777,"MT":501,"sideResp":1,"stimulus":"img/900/equaldotanddens/L/10_Ratio_900_L_20_R_18.png","xmouse":[813,813,813,813,813,813,813,813,813,813,813,813,813,813,813,813,813,813,813,813,813,813,813,813,813,813,813,813,813,813,817,819,819,819,819,820,820,818,762,719,666,619,575,490,445,401,378,366,362,357,353,352,352,352,352,354,356,358,363,374,383,390,399,426],"ymouse":[509,509,509,509,509,509,509,509,509,509,509,509,509,509,509,509,509,509,509,509,509,509,509,509,509,509,509,509,509,509,510,512,512,512,512,512,504,498,418,371,326,293,263,215,197,183,177,173,169,159,149,135,118,84,73,67,63,61,59,56,55,54,54,61],"timestamp_mouse":[29,37,58,77,98,117,137,158,177,198,217,237,258,278,297,317,337,357,377,398,419,438,458,477,498,519,537,558,578,597,617,638,657,677,697,718,737,758,777,798,817,837,857,877,897,917,938,957,977,998,1017,1037,1057,1078,1097,1117,1137,1157,1177,1197,1217,1237,1257,1278],"xSR":741.5,"ySR":458.25,"xT1":424.9,"yT1":0,"xT2":1058.1,"yT2":0,"toosoon":0,"cond_shown":"equaldotanddens","ratio_trial":900,"smaller_num":"18","larger_num":"20","correct_side":1,"subjID":"juandiegorodriguezamarillo9","gender":"0","age":"11","school":"6"},{"start_time":1551794741210,"click_time":1551794742368,"finger_time":1551794741888,"fix_duration":860.8136583732232,"trial":22,"RT":678,"MT":480,"sideResp":2,"stimulus":"img/250/randomdotsizeEA/R/6_Ratio_250_L_6_R_24.png","xmouse":[793,793,793,793,793,793,793,793,793,793,793,793,793,793,793,793,793,793,793,793,793,793,793,793,793,793,793,793,793,793,793,793,810,819,820,820,826,856,885,903,917,926,933,935,935,935,935,942,965,981,991,1004,1017,1021,1028,1038,1056,1094],"ymouse":[483,483,483,483,483,483,483,483,483,483,483,483,483,483,483,483,483,483,483,483,483,483,483,483,483,483,483,483,483,483,483,483,466,444,423,392,360,290,228,185,146,111,87,71,71,71,71,67,58,51,45,40,36,36,36,36,34,28],"timestamp_mouse":[18,41,59,79,98,118,138,159,179,198,218,238,258,279,298,318,339,358,379,399,419,438,458,479,498,519,539,559,580,598,619,638,658,678,698,718,738,758,779,798,818,838,859,878,898,918,939,958,978,998,1018,1039,1058,1078,1099,1120,1138,1158],"xSR":741.5,"ySR":458.25,"xT1":424.9,"yT1":0,"xT2":1058.1,"yT2":0,"toosoon":0,"cond_shown":"randomdotsizeEA","ratio_trial":250,"smaller_num":"6","larger_num":"24","correct_side":2,"subjID":"juandiegorodriguezamarillo9","gender":"0","age":"11","school":"6"},{"start_time":1551794744021,"click_time":1551794745148,"finger_time":1551794744808,"fix_duration":752.3758673397929,"trial":23,"RT":787,"MT":340,"sideResp":2,"stimulus":"img/900/randomdotsizeEA/R/12_Ratio_900_L_18_R_20.png","xmouse":[775,775,775,775,775,775,775,775,775,775,775,775,775,775,775,775,775,775,775,775,775,775,775,775,775,775,775,775,775,775,775,775,775,775,775,785,800,827,837,843,846,849,868,885,900,908,915,924,925,929,935,944,958,1000,1024,1052,1073],"ymouse":[499,499,499,499,499,499,499,499,499,499,499,499,499,499,499,499,499,499,499,499,499,499,499,499,499,499,499,499,499,499,499,499,499,499,502,506,513,513,508,498,481,455,374,324,289,268,251,223,218,204,192,180,166,138,125,110,98],"timestamp_mouse":[10,32,48,67,87,107,127,147,167,187,207,227,247,267,287,307,327,347,367,387,408,427,447,467,487,508,528,548,568,588,607,628,648,667,687,707,727,747,767,787,808,828,847,867,887,907,927,949,968,987,1007,1027,1047,1067,1087,1108,1127],"xSR":741.5,"ySR":458.25,"xT1":424.9,"yT1":0,"xT2":1058.1,"yT2":0,"toosoon":0,"cond_shown":"randomdotsizeEA","ratio_trial":900,"smaller_num":"18","larger_num":"20","correct_side":2,"subjID":"juandiegorodriguezamarillo9","gender":"0","age":"11","school":"6"},{"start_time":1551794746120,"click_time":1551794747069,"finger_time":1551794746668,"fix_duration":250,"trial":24,"RT":548,"MT":401,"sideResp":2,"stimulus":"img/500/randomdotsizeEA/R/15_Ratio_500_L_1_R_2.png","xmouse":[775,775,775,775,775,775,775,775,775,775,775,775,775,775,775,775,775,775,775,775,775,775,775,775,775,775,775,788,817,843,858,865,879,897,909,919,925,927,927,927,927,927,940,962,983,1008,1035,1074],"ymouse":[495,495,495,495,495,495,495,495,495,495,495,495,495,495,495,495,495,495,495,495,495,495,495,495,495,495,495,457,397,345,310,293,270,241,224,209,199,191,190,190,190,190,178,158,142,122,105,82],"timestamp_mouse":[8,32,49,68,88,108,128,148,168,188,208,228,249,269,288,308,328,348,368,388,409,428,448,469,488,508,528,548,568,588,609,628,649,668,688,708,728,748,768,788,808,828,848,868,888,909,929,949],"xSR":741.5,"ySR":458.25,"xT1":424.9,"yT1":0,"xT2":1058.1,"yT2":0,"toosoon":0,"cond_shown":"randomdotsizeEA","ratio_trial":500,"smaller_num":"1","larger_num":"2","correct_side":2,"subjID":"juandiegorodriguezamarillo9","gender":"0","age":"11","school":"6"},{"start_time":1551794748543,"click_time":1551794750148,"finger_time":1551794749248,"fix_duration":434.86135060456564,"trial":25,"RT":705,"MT":900,"sideResp":1,"stimulus":"img/900/equaldotsize/L/4_Ratio_900_L_20_R_18.png","xmouse":[774,774,774,774,774,774,774,774,774,774,774,774,774,774,774,774,774,774,774,774,774,774,774,774,774,774,774,774,774,774,774,774,774,774,774,766,713,673,635,613,603,597,591,580,576,576,576,576,576,576,576,576,576,576,539,544,549,549,549,549,549,548,539,538,536,535,535,536,554,577,599,606,606,606,606,606,605,589,565,537,509],"ymouse":[521,521,521,521,521,521,521,521,521,521,521,521,521,521,521,521,521,521,521,521,521,521,521,521,521,521,521,521,521,521,521,521,521,521,509,455,248,147,78,51,40,31,22,8,1,1,1,1,1,1,1,1,1,1,10,16,21,21,21,22,27,36,50,50,52,53,55,61,76,84,85,85,85,85,85,85,85,87,87,87,88],"timestamp_mouse":[11,26,46,66,85,105,125,145,165,185,205,225,246,266,285,305,345,345,366,386,406,426,445,466,485,505,525,546,566,585,606,625,645,665,685,705,726,745,766,785,805,826,846,865,886,905,925,945,965,985,1005,1025,1045,1066,1087,1106,1125,1145,1165,1185,1205,1225,1246,1265,1286,1305,1325,1345,1365,1386,1405,1425,1446,1465,1486,1506,1525,1545,1566,1586,1605],"xSR":741.5,"ySR":458.25,"xT1":424.9,"yT1":0,"xT2":1058.1,"yT2":0,"toosoon":0,"cond_shown":"equaldotsize","ratio_trial":900,"smaller_num":"18","larger_num":"20","correct_side":1,"subjID":"juandiegorodriguezamarillo9","gender":"0","age":"11","school":"6"},{"start_time":1551794752986,"click_time":1551794753908,"finger_time":1551794753629,"fix_duration":337.93679985199043,"trial":26,"RT":643,"MT":279,"sideResp":1,"stimulus":"img/500/equaldotsize/L/8_Ratio_500_L_8_R_4.png","xmouse":[812,812,812,812,812,812,812,812,812,812,812,812,812,812,812,812,812,812,812,812,812,812,812,812,812,812,812,812,812,812,812,812,798,763,641,612,612,612,612,612,612,612,612,612,612,501,495],"ymouse":[497,497,497,497,497,497,497,497,497,497,497,497,497,497,497,497,497,497,497,497,497,497,497,497,497,497,497,497,497,497,497,497,423,291,47,9,9,9,9,9,9,9,9,9,9,0,36],"timestamp_mouse":[10,34,42,63,83,103,123,142,164,182,203,222,243,263,282,302,323,342,362,382,403,422,443,462,483,503,522,542,564,583,603,622,643,662,683,704,722,743,762,783,803,822,842,862,882,902,922],"xSR":741.5,"ySR":458.25,"xT1":424.9,"yT1":0,"xT2":1058.1,"yT2":0,"toosoon":0,"cond_shown":"equaldotsize","ratio_trial":500,"smaller_num":"4","larger_num":"8","correct_side":1,"subjID":"juandiegorodriguezamarillo9","gender":"0","age":"11","school":"6"},{"start_time":1551794756399,"click_time":1551794757229,"finger_time":1551794756988,"fix_duration":250,"trial":27,"RT":589,"MT":241,"sideResp":2,"stimulus":"img/900/equaldotanddens/L/4_Ratio_900_L_20_R_18.png","xmouse":[789,789,789,789,789,789,789,789,789,789,789,789,789,789,789,789,789,789,789,789,789,789,789,789,789,789,789,789,794,844,887,924,955,998,1013,1025,1037,1046,1069,1089,1104,1119],"ymouse":[496,496,496,496,496,496,496,496,496,496,496,496,496,496,496,496,496,496,496,496,496,496,496,496,496,496,496,496,479,408,345,286,235,175,162,155,150,146,134,117,101,80],"timestamp_mouse":[9,37,49,69,89,109,129,149,170,189,211,229,249,269,289,309,330,349,369,389,409,430,450,469,489,509,529,551,569,589,609,629,649,669,689,709,729,749,770,789,809,830],"xSR":741.5,"ySR":458.25,"xT1":424.9,"yT1":0,"xT2":1058.1,"yT2":0,"toosoon":0,"cond_shown":"equaldotanddens","ratio_trial":900,"smaller_num":"18","larger_num":"20","correct_side":1,"subjID":"juandiegorodriguezamarillo9","gender":"0","age":"11","school":"6"},{"start_time":1551794761531,"click_time":1551794762368,"finger_time":1551794761948,"fix_duration":1162.531283406742,"trial":28,"RT":417,"MT":420,"sideResp":2,"stimulus":"img/250/equaldotsize/R/9_Ratio_250_L_3_R_12.png","xmouse":[774,774,774,774,774,774,774,774,774,774,774,774,774,774,774,774,774,774,774,789,809,884,892,899,913,930,953,1059,1125,1193,1261,1343,1360,1361,1357,1357,1357,1357,1357,1230,1199,1138],"ymouse":[480,480,480,480,480,480,480,480,480,480,480,480,480,480,480,480,480,480,480,468,451,396,387,380,373,363,352,307,272,224,164,58,18,5,0,0,0,0,0,3,8,27],"timestamp_mouse":[18,39,57,78,98,117,137,159,177,199,218,237,258,277,298,318,337,357,377,397,417,439,457,477,501,518,537,557,578,597,618,638,658,677,697,718,737,757,777,798,818,837],"xSR":741.5,"ySR":458.25,"xT1":424.9,"yT1":0,"xT2":1058.1,"yT2":0,"toosoon":0,"cond_shown":"equaldotsize","ratio_trial":250,"smaller_num":"3","larger_num":"12","correct_side":2,"subjID":"juandiegorodriguezamarillo9","gender":"0","age":"11","school":"6"},{"start_time":1551794763600,"click_time":1551794764668,"finger_time":1551794764248,"fix_duration":629.6686501341663,"trial":29,"RT":648,"MT":420,"sideResp":1,"stimulus":"img/750/equaldotanddens/L/14_Ratio_750_L_8_R_6.png","xmouse":[762,762,762,762,762,762,762,762,762,762,762,762,762,762,762,762,762,762,762,762,762,762,762,762,762,762,762,762,762,762,760,755,749,720,698,680,668,656,631,618,601,593,584,550,529,511,502,499,496,495,494,490,485,480],"ymouse":[490,490,490,490,490,490,490,490,490,490,490,490,490,490,490,490,490,490,490,490,490,490,490,490,490,490,490,490,490,490,486,472,454,367,325,300,283,267,242,230,217,212,206,184,170,159,154,152,151,148,144,132,117,97],"timestamp_mouse":[8,38,48,68,89,108,128,148,168,189,208,228,248,268,289,309,330,348,368,389,409,428,449,468,488,509,528,548,569,588,608,629,648,669,688,708,728,748,768,789,808,828,848,868,888,908,929,948,968,988,1008,1029,1049,1068],"xSR":741.5,"ySR":458.25,"xT1":424.9,"yT1":0,"xT2":1058.1,"yT2":0,"toosoon":0,"cond_shown":"equaldotanddens","ratio_trial":750,"smaller_num":"6","larger_num":"8","correct_side":1,"subjID":"juandiegorodriguezamarillo9","gender":"0","age":"11","school":"6"},{"start_time":1551794766628,"click_time":1551794767728,"finger_time":1551794767368,"fix_duration":979.9490046123198,"trial":30,"RT":740,"MT":360,"sideResp":2,"stimulus":"img/900/equaldotanddens/R/13_Ratio_900_L_18_R_20.png","xmouse":[789,789,789,789,789,789,789,789,789,789,789,789,789,789,789,789,789,789,789,789,789,789,789,789,789,789,789,789,789,789,789,789,789,789,789,790,795,812,894,920,941,957,988,1003,1016,1027,1034,1040,1044,1045,1048,1052,1056,1058,1060,1061],"ymouse":[501,501,501,501,501,501,501,501,501,501,501,501,501,501,501,501,501,501,501,501,501,501,501,501,501,501,501,501,501,501,501,501,501,501,501,497,485,444,310,273,247,229,206,199,191,182,175,159,148,140,130,121,111,107,102,97],"timestamp_mouse":[1,20,41,61,80,102,120,141,161,180,200,220,240,260,282,300,321,340,360,381,401,420,441,460,480,501,520,540,562,580,601,620,641,660,680,700,721,740,761,780,800,820,840,860,880,900,920,941,960,980,1000,1020,1040,1060,1080,1100],"xSR":741.5,"ySR":458.25,"xT1":424.9,"yT1":0,"xT2":1058.1,"yT2":0,"toosoon":0,"cond_shown":"equaldotanddens","ratio_trial":900,"smaller_num":"18","larger_num":"20","correct_side":2,"subjID":"juandiegorodriguezamarillo9","gender":"0","age":"11","school":"6"},{"start_time":1551794769617,"click_time":1551794770769,"finger_time":1551794770488,"fix_duration":1146.2250462551463,"trial":31,"RT":871,"MT":281,"sideResp":2,"stimulus":"img/900/equaldotanddens/R/9_Ratio_900_L_18_R_20.png","xmouse":[792,792,792,792,792,792,792,792,792,792,792,792,792,792,792,792,792,792,792,792,792,792,792,792,792,792,792,792,792,792,792,792,792,792,792,792,792,798,804,805,806,807,807,808,808,808,808,808,808,808,812,819,850,874,913,955,1007,1106],"ymouse":[492,492,492,492,492,492,492,492,492,492,492,492,492,492,492,492,492,492,492,492,492,492,492,492,492,492,492,492,492,492,492,492,492,492,492,492,492,488,479,478,475,473,468,456,450,445,439,433,429,420,405,379,298,256,204,155,105,37],"timestamp_mouse":[13,37,52,71,91,111,132,151,173,191,211,232,252,271,292,311,331,352,372,391,411,431,451,472,491,511,532,552,572,591,612,631,651,671,691,711,731,751,772,791,811,831,851,871,891,911,931,951,972,991,1011,1031,1051,1071,1091,1111,1131,1151],"xSR":741.5,"ySR":458.25,"xT1":424.9,"yT1":0,"xT2":1058.1,"yT2":0,"toosoon":0,"cond_shown":"equaldotanddens","ratio_trial":900,"smaller_num":"18","larger_num":"20","correct_side":2,"subjID":"juandiegorodriguezamarillo9","gender":"0","age":"11","school":"6"},{"start_time":1551794771899,"click_time":1551794773028,"finger_time":1551794772668,"fix_duration":250,"trial":32,"RT":769,"MT":360,"sideResp":2,"stimulus":"img/250/randomdotsizeEA/R/10_Ratio_250_L_4_R_16.png","xmouse":[806,805,803,803,803,803,803,803,803,803,803,803,803,803,803,803,803,803,803,803,803,803,803,803,803,803,803,803,803,803,803,803,801,787,779,774,774,776,777,775,771,771,771,769,769,769,769,769,772,782,800,840,895,997,1038,1054,1064],"ymouse":[502,502,502,502,502,502,502,502,502,502,502,502,502,502,502,502,502,502,502,502,502,502,502,502,502,502,502,502,502,502,502,502,502,495,492,490,487,476,429,405,386,379,376,372,372,372,372,371,365,356,336,281,207,95,62,48,38],"timestamp_mouse":[9,29,53,69,90,109,129,149,169,189,209,230,250,269,289,309,331,349,369,390,409,429,450,469,489,510,530,549,570,589,609,630,650,670,690,709,729,749,769,789,809,830,849,870,890,909,929,949,969,989,1009,1029,1049,1069,1089,1109,1129],"xSR":741.5,"ySR":458.25,"xT1":424.9,"yT1":0,"xT2":1058.1,"yT2":0,"toosoon":0,"cond_shown":"randomdotsizeEA","ratio_trial":250,"smaller_num":"4","larger_num":"16","correct_side":2,"subjID":"juandiegorodriguezamarillo9","gender":"0","age":"11","school":"6"},{"start_time":1551794775205,"click_time":1551794777208,"finger_time":1551794775929,"fix_duration":1274.808024843229,"trial":33,"RT":724,"MT":1279,"sideResp":2,"stimulus":"img/900/equaldotsize/L/4_Ratio_900_L_20_R_18.png","xmouse":[808,808,808,808,808,808,808,808,808,808,808,808,808,808,808,808,808,808,808,808,808,808,808,808,808,808,808,808,808,808,808,808,808,808,808,829,865,896,931,937,937,936,934,932,930,926,921,915,902,882,857,820,782,680,604,534,482,454,436,436,435,435,435,435,435,435,435,437,454,462,470,473,474,475,475,475,475,473,472,472,472,472,472,472,472,472,472,473,478,484,489,495,500,515,527,545,578,643,832,992,1081],"ymouse":[481,481,481,481,481,481,481,481,481,481,481,481,481,481,481,481,481,481,481,481,481,481,481,481,481,481,481,481,481,481,481,481,481,481,481,465,424,380,311,269,248,233,228,226,225,225,225,225,225,225,225,222,217,215,215,215,215,215,213,213,212,210,208,203,200,200,200,198,194,190,182,177,172,167,164,161,155,147,140,138,138,136,135,134,134,134,134,134,133,132,130,128,127,123,120,116,112,102,83,79,79],"timestamp_mouse":[10,32,45,64,83,104,124,143,164,184,203,224,244,264,285,303,324,343,365,383,403,423,443,463,483,503,524,543,564,583,604,625,643,663,683,705,724,744,763,784,803,823,844,863,883,903,924,944,963,983,1003,1023,1044,1063,1083,1104,1124,1143,1163,1183,1203,1224,1243,1263,1283,1304,1324,1343,1363,1384,1403,1423,1443,1463,1483,1503,1523,1543,1563,1583,1603,1623,1643,1664,1683,1704,1723,1744,1763,1783,1803,1823,1845,1863,1883,1905,1923,1943,1963,1983,2003],"xSR":741.5,"ySR":458.25,"xT1":424.9,"yT1":0,"xT2":1058.1,"yT2":0,"toosoon":0,"cond_shown":"equaldotsize","ratio_trial":900,"smaller_num":"18","larger_num":"20","correct_side":1,"subjID":"juandiegorodriguezamarillo9","gender":"0","age":"11","school":"6"},{"start_time":1551794780572,"click_time":1551794782048,"finger_time":1551794781188,"fix_duration":1043.2291505038982,"trial":34,"RT":616,"MT":860,"sideResp":1,"stimulus":"img/900/equaldotsize/L/8_Ratio_900_L_20_R_18.png","xmouse":[770,769,769,769,769,769,769,769,769,769,769,769,769,769,769,769,769,769,769,769,769,769,769,769,769,769,768,767,766,765,765,771,779,787,795,795,791,783,775,772,772,772,772,772,772,772,772,772,772,777,786,803,813,822,827,827,827,827,827,826,822,804,770,711,574,532,532,532,532,532,532,532,532,490],"ymouse":[490,491,491,491,491,491,491,491,491,491,491,491,491,491,491,491,491,491,491,491,491,491,491,491,491,491,491,490,486,469,433,389,332,277,209,189,175,162,153,150,150,150,150,150,147,145,145,145,145,142,139,135,132,131,130,130,130,130,130,129,126,116,99,72,17,0,0,0,0,0,0,0,0,3],"timestamp_mouse":[22,47,56,76,96,117,137,156,176,197,217,237,256,277,297,317,337,357,377,397,417,437,457,477,497,516,537,556,577,596,616,636,656,677,696,716,736,756,777,797,816,836,856,876,897,916,936,956,976,996,1017,1036,1056,1076,1096,1117,1137,1156,1176,1196,1216,1236,1256,1278,1297,1317,1337,1357,1377,1396,1416,1437,1458,1476],"xSR":741.5,"ySR":458.25,"xT1":424.9,"yT1":0,"xT2":1058.1,"yT2":0,"toosoon":0,"cond_shown":"equaldotsize","ratio_trial":900,"smaller_num":"18","larger_num":"20","correct_side":1,"subjID":"juandiegorodriguezamarillo9","gender":"0","age":"11","school":"6"},{"start_time":1551794783534,"click_time":1551794784509,"finger_time":1551794784329,"fix_duration":564.6733127776045,"trial":35,"RT":795,"MT":180,"sideResp":1,"stimulus":"img/500/equaldotanddens/L/13_Ratio_500_L_12_R_6.png","xmouse":[819,819,819,819,819,819,819,819,819,819,819,819,819,819,819,819,819,819,819,819,819,819,819,819,819,819,819,819,819,819,819,819,819,819,819,815,810,806,796,772,732,639,591,536,518,503,483,477,470],"ymouse":[501,501,501,501,501,501,501,501,501,501,501,501,501,501,501,501,501,501,501,501,501,501,501,501,501,501,501,501,501,501,501,501,501,501,501,500,497,488,468,428,371,265,225,182,166,150,122,109,91],"timestamp_mouse":[15,35,55,74,94,115,135,155,174,194,214,234,254,274,295,314,334,355,375,394,415,434,455,475,494,514,534,556,576,594,614,635,655,675,694,714,734,754,776,795,814,834,854,874,894,915,934,954,974],"xSR":741.5,"ySR":458.25,"xT1":424.9,"yT1":0,"xT2":1058.1,"yT2":0,"toosoon":0,"cond_shown":"equaldotanddens","ratio_trial":500,"smaller_num":"6","larger_num":"12","correct_side":1,"subjID":"juandiegorodriguezamarillo9","gender":"0","age":"11","school":"6"},{"start_time":1551794786298,"click_time":1551794787788,"finger_time":1551794786969,"fix_duration":1127.0574457342252,"trial":36,"RT":671,"MT":819,"sideResp":1,"stimulus":"img/500/equaldotsize/L/11_Ratio_500_L_12_R_6.png","xmouse":[797,797,797,797,797,797,797,797,797,797,797,797,797,797,797,797,797,797,797,797,797,797,797,797,797,797,797,797,797,797,797,797,794,767,759,725,698,668,643,643,643,643,643,643,643,643,643,575,571,571,571,571,571,570,570,571,571,572,572,572,572,572,569,562,562,561,561,561,561,561,561,561,561,541,482],"ymouse":[528,528,528,528,528,528,528,528,528,528,528,528,528,528,528,528,528,528,528,528,528,528,528,528,528,528,528,528,528,528,528,528,525,440,405,284,178,78,4,4,4,4,4,4,4,4,4,8,14,17,17,19,23,40,59,71,76,77,77,77,77,78,81,83,83,83,80,78,77,77,77,77,75,67,45],"timestamp_mouse":[10,36,51,70,91,111,131,151,171,191,211,230,250,271,290,310,331,351,370,390,410,430,451,470,490,511,530,550,571,591,610,630,650,671,692,710,731,751,770,791,810,831,851,871,890,911,930,951,970,990,1011,1031,1050,1070,1090,1110,1130,1150,1171,1190,1212,1231,1250,1270,1291,1310,1330,1351,1370,1391,1410,1430,1450,1470,1490],"xSR":741.5,"ySR":458.25,"xT1":424.9,"yT1":0,"xT2":1058.1,"yT2":0,"toosoon":0,"cond_shown":"equaldotsize","ratio_trial":500,"smaller_num":"6","larger_num":"12","correct_side":1,"subjID":"juandiegorodriguezamarillo9","gender":"0","age":"11","school":"6"},{"start_time":1551794790018,"click_time":1551794791370,"finger_time":1551794790889,"fix_duration":1027.8899181278912,"trial":37,"RT":871,"MT":481,"sideResp":2,"stimulus":"img/500/randomdotsizeEA/R/14_Ratio_500_L_5_R_10.png","xmouse":[765,765,765,765,765,765,765,765,765,765,765,765,765,765,765,765,765,765,765,765,765,765,765,765,765,765,765,765,765,765,765,765,765,765,765,765,765,765,765,765,765,765,767,773,776,781,786,804,817,827,838,852,878,888,894,897,902,928,946,963,974,985,1007,1019,1032,1044,1052,1059],"ymouse":[491,491,491,491,491,491,491,491,491,491,491,491,491,491,491,491,491,491,491,491,491,491,491,491,491,491,491,491,491,491,491,491,491,491,491,491,491,491,491,491,491,491,476,440,421,403,381,339,308,287,268,251,226,218,213,209,204,183,172,163,153,144,126,117,110,103,97,93],"timestamp_mouse":[11,32,51,71,92,111,131,150,171,191,210,232,252,271,292,311,331,351,372,390,411,431,452,471,490,512,531,550,572,592,611,632,652,672,692,711,732,752,772,790,812,831,851,871,891,912,931,952,972,991,1011,1032,1051,1071,1091,1112,1131,1152,1171,1191,1211,1232,1252,1270,1291,1311,1331,1351],"xSR":741.5,"ySR":458.25,"xT1":424.9,"yT1":0,"xT2":1058.1,"yT2":0,"toosoon":0,"cond_shown":"randomdotsizeEA","ratio_trial":500,"smaller_num":"5","larger_num":"10","correct_side":2,"subjID":"juandiegorodriguezamarillo9","gender":"0","age":"11","school":"6"},{"start_time":1551794792426,"click_time":1551794793209,"finger_time":1551794793049,"fix_duration":255.74814102178678,"trial":38,"RT":623,"MT":160,"sideResp":1,"stimulus":"img/500/equaldotanddens/L/8_Ratio_500_L_8_R_4.png","xmouse":[749,749,749,749,749,749,749,749,749,749,749,749,749,749,749,749,749,749,749,749,749,749,749,749,749,749,749,749,750,750,743,721,667,643,623,604,588,554,533,522],"ymouse":[538,538,538,538,538,538,538,538,538,538,538,538,538,538,538,538,538,538,538,538,538,538,538,538,538,538,538,538,534,512,462,396,267,224,192,169,149,107,77,56],"timestamp_mouse":[4,23,43,64,82,103,122,142,163,183,202,223,243,263,283,303,324,343,363,383,402,424,444,463,484,503,524,542,564,583,603,623,643,663,683,703,723,742,763,783],"xSR":741.5,"ySR":458.25,"xT1":424.9,"yT1":0,"xT2":1058.1,"yT2":0,"toosoon":0,"cond_shown":"equaldotanddens","ratio_trial":500,"smaller_num":"4","larger_num":"8","correct_side":1,"subjID":"juandiegorodriguezamarillo9","gender":"0","age":"11","school":"6"},{"start_time":1551794795141,"click_time":1551794795769,"finger_time":1551794795730,"fix_duration":1070.598041521236,"trial":39,"RT":589,"MT":39,"sideResp":2,"stimulus":"img/500/randomdotsizeEA/R/12_Ratio_500_L_1_R_2.png","xmouse":[779,779,779,779,779,779,779,779,779,779,779,779,779,779,779,779,779,779,779,779,779,779,779,779,779,779,779,782,822,896,975,1067],"ymouse":[517,517,517,517,517,517,517,517,517,517,517,517,517,517,517,517,517,517,517,517,517,517,517,517,517,517,517,517,461,358,232,60],"timestamp_mouse":[9,32,49,69,88,108,129,149,169,189,209,228,247,268,288,308,329,348,369,388,408,428,449,469,489,509,529,548,571,589,608,627],"xSR":741.5,"ySR":458.25,"xT1":424.9,"yT1":0,"xT2":1058.1,"yT2":0,"toosoon":0,"cond_shown":"randomdotsizeEA","ratio_trial":500,"smaller_num":"1","larger_num":"2","correct_side":2,"subjID":"juandiegorodriguezamarillo9","gender":"0","age":"11","school":"6"},{"start_time":1551794796980,"click_time":1551794798469,"finger_time":1551794797789,"fix_duration":250,"trial":40,"RT":809,"MT":680,"sideResp":1,"stimulus":"img/250/randomdotsizeEA/L/3_Ratio_250_L_8_R_2.png","xmouse":[787,787,787,787,787,787,787,787,787,787,787,787,787,787,787,787,787,787,787,787,787,787,787,787,787,787,787,787,787,787,787,787,787,787,787,787,787,787,785,775,762,752,740,730,689,656,609,551,485,393,367,359,359,359,359,359,359,359,359,359,359,359,359,359,359,359,359,359,359,359,359,393,409,423,449],"ymouse":[506,506,506,506,506,506,506,506,506,506,506,506,506,506,506,506,506,506,506,506,506,506,506,506,506,506,506,506,506,506,506,506,506,506,506,506,506,506,505,483,451,431,410,393,341,304,252,192,128,32,8,2,2,2,2,2,2,2,2,2,2,2,2,2,2,2,2,2,2,2,2,3,26,42,62],"timestamp_mouse":[9,38,49,70,90,110,130,148,170,189,210,229,250,269,290,309,330,348,370,390,408,430,450,469,488,509,529,550,570,590,610,630,650,670,688,710,729,749,769,789,809,829,850,869,888,908,928,949,969,989,1009,1029,1049,1069,1089,1109,1129,1149,1170,1189,1209,1229,1249,1268,1289,1310,1329,1348,1369,1389,1409,1428,1449,1470,1489],"xSR":741.5,"ySR":458.25,"xT1":424.9,"yT1":0,"xT2":1058.1,"yT2":0,"toosoon":0,"cond_shown":"randomdotsizeEA","ratio_trial":250,"smaller_num":"2","larger_num":"8","correct_side":1,"subjID":"juandiegorodriguezamarillo9","gender":"0","age":"11","school":"6"},{"start_time":1551794799623,"click_time":1551794800650,"finger_time":1551794800288,"fix_duration":292.876584811444,"trial":41,"RT":665,"MT":362,"sideResp":2,"stimulus":"img/250/randomdotsizeEA/R/12_Ratio_250_L_5_R_20.png","xmouse":[810,810,810,810,810,810,810,810,810,810,810,810,810,810,810,810,810,810,810,810,810,810,810,810,810,810,810,810,803,802,802,802,814,860,906,942,964,992,999,999,999,999,1003,1010,1021,1032,1044,1063,1078,1085,1089,1093],"ymouse":[497,497,497,497,497,497,497,497,497,497,497,497,497,497,497,497,497,497,497,497,497,497,497,497,497,497,497,497,486,484,483,483,470,432,380,324,284,236,225,225,225,225,220,214,205,193,178,151,128,116,108,99],"timestamp_mouse":[9,32,45,66,87,105,127,147,165,187,207,225,246,267,286,306,327,347,367,386,406,426,446,466,486,507,527,546,566,586,606,626,647,665,686,707,727,745,767,785,806,826,846,866,886,906,926,946,967,985,1007,1026],"xSR":741.5,"ySR":458.25,"xT1":424.9,"yT1":0,"xT2":1058.1,"yT2":0,"toosoon":0,"cond_shown":"randomdotsizeEA","ratio_trial":250,"smaller_num":"5","larger_num":"20","correct_side":2,"subjID":"juandiegorodriguezamarillo9","gender":"0","age":"11","school":"6"},{"start_time":1551794801586,"click_time":1551794803969,"finger_time":1551794802170,"fix_duration":395.05924025660966,"trial":42,"RT":584,"MT":1799,"sideResp":2,"stimulus":"img/750/equaldotsize/L/14_Ratio_750_L_8_R_6.png","xmouse":[806,806,806,806,806,806,806,806,806,806,806,806,806,806,806,806,806,806,806,806,806,806,804,801,787,783,775,766,757,746,742,738,731,726,711,706,705,705,705,705,705,705,708,714,730,738,746,753,755,758,750,734,708,673,588,555,525,509,504,502,498,496,493,491,491,491,491,493,498,529,578,619,671,734,878,959,1043,1125,1206,1293,1302,1302,1302,1302,1281,1272,1265,1257,1242,1204,1188,1187,1187,1187,1187,1187,1187,1187,1187,1187,1187,1187,1187,1187,1187,1187,1187,1187,1187,1187,1187,1186,1185,1185,1185,1185,1185,1185,1185,1123],"ymouse":[514,514,514,514,514,514,514,514,514,514,514,514,514,514,514,514,514,514,514,514,514,514,515,515,506,501,492,478,464,443,437,425,411,393,354,342,337,337,337,337,337,336,338,342,350,353,353,353,351,332,306,283,257,233,191,177,164,159,157,156,154,153,151,149,148,146,145,144,144,148,156,162,170,178,179,179,179,179,179,179,178,178,178,176,161,154,149,144,139,134,134,134,134,134,134,134,134,134,134,134,134,134,134,134,134,134,134,134,134,134,134,134,133,133,133,133,133,131,129,95],"timestamp_mouse":[7,37,44,62,84,103,123,144,163,183,203,223,242,263,283,303,322,343,363,383,403,424,443,463,483,503,523,542,563,584,604,623,643,662,683,702,723,743,764,783,803,823,843,863,884,902,923,944,963,984,1002,1023,1043,1064,1083,1103,1123,1142,1162,1182,1204,1222,1243,1263,1283,1303,1322,1343,1363,1383,1402,1423,1443,1463,1483,1504,1523,1543,1564,1583,1602,1623,1643,1662,1682,1702,1723,1743,1764,1783,1803,1824,1844,1862,1884,1903,1924,1944,1963,1983,2004,2023,2044,2063,2083,2103,2124,2143,2164,2183,2203,2222,2243,2264,2283,2304,2324,2342,2364,2383],"xSR":741.5,"ySR":458.25,"xT1":424.9,"yT1":0,"xT2":1058.1,"yT2":0,"toosoon":0,"cond_shown":"equaldotsize","ratio_trial":750,"smaller_num":"6","larger_num":"8","correct_side":1,"subjID":"juandiegorodriguezamarillo9","gender":"0","age":"11","school":"6"},{"start_time":1551794806906,"click_time":1551794808229,"finger_time":1551794807568,"fix_duration":1234.9383162787924,"trial":43,"RT":662,"MT":661,"sideResp":2,"stimulus":"img/750/equaldotsize/R/4_Ratio_750_L_15_R_20.png","xmouse":[792,792,792,792,792,792,792,792,792,792,792,792,792,792,792,792,792,792,792,792,792,792,792,792,792,792,792,792,792,792,792,794,803,843,926,941,947,947,922,912,909,909,909,909,909,913,926,945,988,1018,1048,1072,1091,1109,1110,1110,1110,1111,1111,1111,1111,1111,1111,1111,1111,1111,1112],"ymouse":[478,478,478,478,478,478,478,478,478,478,478,478,478,478,478,478,478,478,478,478,478,478,478,478,478,478,478,478,478,478,478,474,459,401,262,228,203,181,140,129,125,125,125,125,125,124,122,121,114,114,114,114,111,108,108,108,108,108,108,108,108,108,108,108,108,106,94],"timestamp_mouse":[8,39,43,64,82,104,124,143,163,184,203,223,243,263,284,303,323,342,364,384,403,423,444,463,482,503,522,543,564,584,603,623,644,662,684,703,724,743,762,783,803,823,842,864,883,903,923,943,963,982,1003,1023,1044,1063,1083,1103,1123,1144,1163,1183,1202,1224,1244,1264,1284,1302,1323],"xSR":741.5,"ySR":458.25,"xT1":424.9,"yT1":0,"xT2":1058.1,"yT2":0,"toosoon":0,"cond_shown":"equaldotsize","ratio_trial":750,"smaller_num":"15","larger_num":"20","correct_side":2,"subjID":"juandiegorodriguezamarillo9","gender":"0","age":"11","school":"6"},{"start_time":1551794809874,"click_time":1551794810909,"finger_time":1551794810629,"fix_duration":742.4141646660375,"trial":44,"RT":755,"MT":280,"sideResp":2,"stimulus":"img/500/randomdotsizeEA/R/15_Ratio_500_L_1_R_2.png","xmouse":[798,798,798,798,798,798,798,798,798,798,798,798,798,798,798,798,798,798,798,798,798,798,798,798,798,798,798,798,798,798,798,798,798,798,798,798,838,914,999,1074,1085,1093,1097,1099,1107,1120,1132,1139,1142,1137,1130,1125],"ymouse":[515,515,515,515,515,515,515,515,515,515,515,515,515,515,515,515,515,515,515,515,515,515,515,515,515,515,515,515,515,515,515,515,515,515,515,516,491,436,368,295,278,263,256,252,243,229,212,193,173,133,111,95],"timestamp_mouse":[15,34,54,75,95,115,135,155,175,195,215,236,254,274,294,315,335,355,375,395,416,434,455,476,496,516,536,555,575,596,614,636,655,676,695,715,735,755,774,795,814,834,855,875,896,915,934,955,975,995,1014,1035],"xSR":741.5,"ySR":458.25,"xT1":424.9,"yT1":0,"xT2":1058.1,"yT2":0,"toosoon":0,"cond_shown":"randomdotsizeEA","ratio_trial":500,"smaller_num":"1","larger_num":"2","correct_side":2,"subjID":"juandiegorodriguezamarillo9","gender":"0","age":"11","school":"6"},{"start_time":1551794811981,"click_time":1551794813009,"finger_time":1551794812589,"fix_duration":250,"trial":45,"RT":608,"MT":420,"sideResp":2,"stimulus":"img/250/equaldotanddens/R/12_Ratio_250_L_5_R_20.png","xmouse":[778,778,778,778,778,778,778,778,778,778,778,778,778,778,778,778,778,778,778,778,778,778,778,778,778,778,778,778,779,789,854,887,920,949,1029,1078,1121,1149,1164,1179,1182,1185,1188,1189,1192,1192,1192,1192,1192,1187,1161,1143],"ymouse":[504,504,504,504,504,504,504,504,504,504,504,504,504,504,504,504,504,504,504,504,504,504,504,504,504,504,504,504,500,490,431,397,362,331,240,196,161,139,125,112,107,100,93,87,74,68,63,63,63,63,80,90],"timestamp_mouse":[10,36,48,68,88,109,129,147,168,189,208,229,248,269,289,308,328,347,369,387,409,429,448,468,489,508,528,548,569,588,608,628,649,669,688,708,728,748,767,788,808,828,848,867,888,908,929,948,968,987,1009,1027],"xSR":741.5,"ySR":458.25,"xT1":424.9,"yT1":0,"xT2":1058.1,"yT2":0,"toosoon":0,"cond_shown":"equaldotanddens","ratio_trial":250,"smaller_num":"5","larger_num":"20","correct_side":2,"subjID":"juandiegorodriguezamarillo9","gender":"0","age":"11","school":"6"},{"start_time":1551794814178,"click_time":1551794815330,"finger_time":1551794814969,"fix_duration":307.19185091535974,"trial":46,"RT":791,"MT":361,"sideResp":2,"stimulus":"img/500/randomdotsizeEA/R/6_Ratio_500_L_9_R_18.png","xmouse":[761,761,761,761,761,761,761,761,761,761,761,761,761,761,761,761,761,761,761,761,761,761,761,761,761,761,761,761,761,761,761,761,761,761,761,761,761,762,769,781,820,868,902,935,984,1001,1014,1020,1023,1024,1027,1031,1036,1046,1058,1065,1073,1081],"ymouse":[494,494,494,494,494,494,494,494,494,494,494,494,494,494,494,494,494,494,494,494,494,494,494,494,494,494,494,494,494,494,494,494,494,494,494,494,491,485,467,447,389,320,278,248,211,201,194,190,187,181,175,168,158,146,125,113,100,86],"timestamp_mouse":[10,40,51,71,90,112,131,151,172,191,211,231,252,272,291,311,331,351,371,391,410,430,451,471,491,512,531,551,572,591,611,631,651,672,690,711,730,751,771,791,811,831,852,872,891,911,931,951,972,991,1012,1031,1051,1071,1091,1111,1132,1152],"xSR":741.5,"ySR":458.25,"xT1":424.9,"yT1":0,"xT2":1058.1,"yT2":0,"toosoon":0,"cond_shown":"randomdotsizeEA","ratio_trial":500,"smaller_num":"9","larger_num":"18","correct_side":2,"subjID":"juandiegorodriguezamarillo9","gender":"0","age":"11","school":"6"},{"start_time":1551794816945,"click_time":1551794817769,"finger_time":1551794817668,"fix_duration":954.6052544832366,"trial":47,"RT":723,"MT":101,"sideResp":1,"stimulus":"img/500/randomdotsizeEA/L/4_Ratio_500_L_18_R_9.png","xmouse":[821,821,821,821,821,821,821,821,821,821,821,821,821,821,821,821,821,821,821,821,821,821,821,821,821,821,821,821,821,821,821,821,820,817,809,796,770,672,613,562,522,485],"ymouse":[489,489,489,489,489,489,489,489,489,489,489,489,489,489,489,489,489,489,489,489,489,489,489,489,489,489,489,489,489,489,489,489,490,490,482,460,415,278,208,154,110,67],"timestamp_mouse":[9,24,44,63,84,104,124,143,163,184,204,224,243,263,283,304,325,344,364,384,404,424,445,464,484,504,524,545,565,584,604,624,645,664,684,703,723,744,764,784,803,823],"xSR":741.5,"ySR":458.25,"xT1":424.9,"yT1":0,"xT2":1058.1,"yT2":0,"toosoon":0,"cond_shown":"randomdotsizeEA","ratio_trial":500,"smaller_num":"9","larger_num":"18","correct_side":1,"subjID":"juandiegorodriguezamarillo9","gender":"0","age":"11","school":"6"},{"start_time":1551794818743,"click_time":1551794819669,"finger_time":1551794819389,"fix_duration":292.00273518947307,"trial":48,"RT":646,"MT":280,"sideResp":2,"stimulus":"img/750/equaldotsize/R/4_Ratio_750_L_15_R_20.png","xmouse":[778,778,778,778,778,778,778,778,778,778,778,778,778,778,778,778,778,778,778,778,778,778,778,778,778,778,778,778,778,778,778,778,802,841,884,919,983,1007,1028,1045,1057,1075,1081,1086,1093,1100,1110],"ymouse":[467,467,467,467,467,467,467,467,467,467,467,467,467,467,467,467,467,467,467,467,467,467,467,467,467,467,467,467,467,467,467,467,418,353,300,263,229,219,206,196,184,155,144,135,123,110,78],"timestamp_mouse":[7,27,47,67,86,106,127,145,166,187,205,225,246,266,286,306,326,346,367,385,406,427,445,467,487,506,527,546,565,586,607,626,646,666,687,706,725,746,765,787,806,827,845,866,886,905,925],"xSR":741.5,"ySR":458.25,"xT1":424.9,"yT1":0,"xT2":1058.1,"yT2":0,"toosoon":0,"cond_shown":"equaldotsize","ratio_trial":750,"smaller_num":"15","larger_num":"20","correct_side":2,"subjID":"juandiegorodriguezamarillo9","gender":"0","age":"11","school":"6"},{"start_time":1551794820832,"click_time":1551794821648,"finger_time":1551794821569,"fix_duration":622.1508931366144,"trial":49,"RT":737,"MT":79,"sideResp":1,"stimulus":"img/500/equaldotanddens/L/4_Ratio_500_L_18_R_9.png","xmouse":[807,807,807,807,807,807,807,807,807,807,807,807,807,807,807,807,807,807,807,807,807,807,807,807,807,807,807,807,807,807,807,807,807,807,807,805,780,703,629,558,507],"ymouse":[488,488,488,488,488,488,488,488,488,488,488,488,488,488,488,488,488,488,488,488,488,488,488,488,488,488,488,488,488,488,488,488,488,488,488,476,386,250,178,126,95],"timestamp_mouse":[18,38,58,78,98,117,138,158,177,197,216,237,256,278,297,317,336,357,377,398,418,437,458,477,498,517,537,557,577,598,618,637,656,677,697,718,737,756,777,797,816],"xSR":741.5,"ySR":458.25,"xT1":424.9,"yT1":0,"xT2":1058.1,"yT2":0,"toosoon":0,"cond_shown":"equaldotanddens","ratio_trial":500,"smaller_num":"9","larger_num":"18","correct_side":1,"subjID":"juandiegorodriguezamarillo9","gender":"0","age":"11","school":"6"},{"start_time":1551794824492,"click_time":1551794825169,"finger_time":1551794825069,"fix_duration":740.1989828850342,"trial":50,"RT":577,"MT":100,"sideResp":2,"stimulus":"img/250/equaldotanddens/R/8_Ratio_250_L_1_R_4.png","xmouse":[781,781,781,781,781,781,781,781,781,781,781,781,781,781,781,781,781,781,781,781,781,781,781,781,781,781,781,783,824,869,922,974,1021,1102],"ymouse":[504,504,504,504,504,504,504,504,504,504,504,504,504,504,504,504,504,504,504,504,504,504,504,504,504,504,504,490,428,365,299,239,186,68],"timestamp_mouse":[17,43,57,76,97,117,137,157,178,196,217,237,257,278,297,317,337,358,377,398,418,437,457,477,496,517,537,557,577,597,617,638,657,677],"xSR":741.5,"ySR":458.25,"xT1":424.9,"yT1":0,"xT2":1058.1,"yT2":0,"toosoon":0,"cond_shown":"equaldotanddens","ratio_trial":250,"smaller_num":"1","larger_num":"4","correct_side":2,"subjID":"juandiegorodriguezamarillo9","gender":"0","age":"11","school":"6"},{"start_time":1551794826497,"click_time":1551794827689,"finger_time":1551794827350,"fix_duration":606.7320748424302,"trial":51,"RT":853,"MT":339,"sideResp":2,"stimulus":"img/900/randomdotsizeEA/L/4_Ratio_900_L_20_R_18.png","xmouse":[822,822,822,822,822,822,822,822,822,822,822,822,822,822,822,822,822,822,822,822,822,822,822,822,822,822,822,822,822,822,822,822,822,822,822,822,822,822,822,822,822,828,835,842,861,871,884,899,929,933,937,939,940,945,950,962,973,991,1041,1064],"ymouse":[498,498,498,498,498,498,498,498,498,498,498,498,498,498,498,498,498,498,498,498,498,498,498,498,498,498,498,498,498,498,498,498,498,498,498,498,498,498,498,490,478,459,437,412,347,325,298,267,200,173,150,132,124,113,104,94,87,81,69,62],"timestamp_mouse":[13,36,52,72,91,113,133,151,172,191,211,231,253,271,292,313,331,353,372,391,413,433,453,473,492,513,532,552,573,592,612,631,652,672,691,713,732,752,773,792,812,832,853,872,892,911,932,952,971,991,1012,1033,1052,1072,1092,1111,1132,1151,1172,1192],"xSR":741.5,"ySR":458.25,"xT1":424.9,"yT1":0,"xT2":1058.1,"yT2":0,"toosoon":0,"cond_shown":"randomdotsizeEA","ratio_trial":900,"smaller_num":"18","larger_num":"20","correct_side":1,"subjID":"juandiegorodriguezamarillo9","gender":"0","age":"11","school":"6"},{"start_time":1551794830501,"click_time":1551794831569,"finger_time":1551794831209,"fix_duration":250,"trial":52,"RT":708,"MT":360,"sideResp":1,"stimulus":"img/250/equaldotanddens/L/7_Ratio_250_L_8_R_2.png","xmouse":[747,747,747,747,747,747,747,747,747,747,747,747,747,747,747,747,747,747,747,747,747,747,747,747,747,747,747,747,747,747,747,747,747,747,746,733,716,695,675,638,622,606,592,573,568,568,568,567,563,560,552,541,532,517],"ymouse":[520,520,520,520,520,520,520,520,520,520,520,520,520,520,520,520,520,520,520,520,520,520,520,520,520,520,520,520,520,520,520,520,520,520,489,448,407,368,340,307,296,284,274,260,256,256,256,254,218,194,158,107,57,4],"timestamp_mouse":[8,28,49,68,88,108,128,147,168,189,208,229,248,267,289,309,329,347,368,389,407,429,448,468,488,508,528,549,568,588,608,627,649,667,688,708,729,748,768,788,808,828,847,868,889,908,928,948,968,988,1008,1028,1048,1068],"xSR":741.5,"ySR":458.25,"xT1":424.9,"yT1":0,"xT2":1058.1,"yT2":0,"toosoon":0,"cond_shown":"equaldotanddens","ratio_trial":250,"smaller_num":"2","larger_num":"8","correct_side":1,"subjID":"juandiegorodriguezamarillo9","gender":"0","age":"11","school":"6"},{"start_time":1551794834444,"click_time":1551794836930,"finger_time":1551794835248,"fix_duration":712.1890141673949,"trial":53,"RT":804,"MT":1682,"sideResp":2,"stimulus":"img/900/randomdotsizeEA/R/5_Ratio_900_L_9_R_10.png","xmouse":[770,770,770,770,770,770,770,770,770,770,770,770,770,770,770,770,770,770,770,770,770,770,770,770,770,770,770,770,770,770,770,770,770,770,770,771,773,774,774,774,774,774,773,766,760,752,719,671,633,633,633,633,633,633,633,633,633,633,633,633,633,633,633,633,633,633,633,633,633,633,633,633,633,633,661,725,848,928,966,991,1005,1011,1013,1016,1021,1029,1046,1053,1054,1054,1054,1054,1054,1054,1054,1054,1054,1054,1054,1054,1054,1054,1054,1054,1054,1054,1054,1054,1054,1054,1054,1054,1054,1054,1054,1054,1054,1054,1054,1054,1054,1054,1054,1056,1060],"ymouse":[509,509,509,509,509,509,509,509,509,509,509,509,509,509,509,509,509,509,509,509,509,509,509,509,509,509,509,509,509,509,509,509,509,509,509,505,489,474,467,462,457,441,432,421,411,392,271,117,30,30,30,30,30,30,30,30,30,30,30,30,30,30,30,30,30,30,30,30,30,30,30,30,30,30,3,25,62,79,85,87,87,87,85,83,78,71,56,53,53,53,53,53,53,53,53,53,53,53,53,53,53,53,53,53,53,53,53,53,53,53,53,53,53,53,53,53,53,53,53,53,53,53,53,52,52],"timestamp_mouse":[8,25,46,65,85,105,124,146,166,185,205,226,245,265,285,305,325,344,365,385,406,425,445,465,485,505,526,546,566,586,605,626,646,665,685,705,725,745,765,786,804,825,844,865,884,905,925,946,965,985,1005,1025,1045,1065,1085,1105,1126,1145,1165,1185,1206,1225,1246,1266,1285,1304,1325,1346,1366,1385,1406,1425,1444,1465,1485,1504,1525,1546,1565,1586,1605,1625,1644,1665,1684,1705,1725,1745,1766,1784,1806,1826,1845,1866,1885,1906,1925,1945,1964,1985,2005,2024,2046,2065,2085,2106,2126,2145,2166,2185,2205,2225,2245,2264,2284,2304,2325,2345,2366,2385,2406,2425,2446,2466,2486],"xSR":741.5,"ySR":458.25,"xT1":424.9,"yT1":0,"xT2":1058.1,"yT2":0,"toosoon":0,"cond_shown":"randomdotsizeEA","ratio_trial":900,"smaller_num":"9","larger_num":"10","correct_side":2,"subjID":"juandiegorodriguezamarillo9","gender":"0","age":"11","school":"6"},{"start_time":1551794838740,"click_time":1551794840869,"finger_time":1551794839489,"fix_duration":250,"trial":54,"RT":749,"MT":1380,"sideResp":1,"stimulus":"img/900/randomdotsizeEA/L/2_Ratio_900_L_20_R_18.png","xmouse":[795,795,795,795,795,795,795,795,795,795,795,795,795,795,795,795,795,795,795,795,795,795,795,795,795,795,795,795,795,795,795,795,796,798,799,799,797,765,741,711,680,647,636,625,622,618,617,617,617,617,617,617,617,617,621,625,636,642,653,668,683,725,763,789,813,833,859,863,865,865,865,865,846,827,808,788,752,739,725,716,705,682,668,662,654,646,617,600,584,570,559,542,530,519,512,508,506,506,505,504,501,500,501,510,519,520,502],"ymouse":[525,525,525,525,525,525,525,525,525,525,525,525,525,525,525,525,525,525,525,525,525,525,525,525,525,525,525,525,525,525,525,525,525,521,505,486,466,415,390,368,347,320,306,288,277,270,262,258,254,250,247,245,245,245,247,249,251,251,247,240,231,208,191,179,169,161,147,143,141,140,140,137,132,130,128,128,128,128,128,128,128,128,128,128,128,128,128,128,128,127,123,117,112,111,111,111,111,111,111,111,108,107,108,113,115,115,85],"timestamp_mouse":[10,34,48,70,90,109,129,150,170,189,210,228,249,270,288,309,329,349,369,390,409,428,450,470,489,509,530,550,570,589,610,630,649,669,690,710,729,749,769,789,809,829,849,868,890,909,929,948,969,990,1009,1029,1050,1068,1089,1109,1129,1148,1169,1188,1209,1229,1249,1269,1289,1309,1328,1350,1369,1389,1409,1429,1450,1469,1489,1510,1529,1548,1569,1589,1608,1629,1649,1669,1689,1710,1730,1748,1768,1790,1810,1829,1849,1868,1890,1909,1929,1949,1969,1988,2009,2029,2049,2069,2088,2109,2129],"xSR":741.5,"ySR":458.25,"xT1":424.9,"yT1":0,"xT2":1058.1,"yT2":0,"toosoon":0,"cond_shown":"randomdotsizeEA","ratio_trial":900,"smaller_num":"18","larger_num":"20","correct_side":1,"subjID":"juandiegorodriguezamarillo9","gender":"0","age":"11","school":"6"},{"start_time":1551794841870,"click_time":1551794842809,"finger_time":1551794842669,"fix_duration":359.39856159059445,"trial":55,"RT":799,"MT":140,"sideResp":2,"stimulus":"img/750/equaldotanddens/R/15_Ratio_750_L_9_R_12.png","xmouse":[755,755,755,755,755,755,755,755,755,755,755,755,755,755,755,755,755,755,755,755,755,755,755,755,755,755,755,755,755,755,755,755,755,755,755,755,755,755,755,762,807,846,890,940,983,1035,1056,1063],"ymouse":[512,512,512,512,512,512,512,512,512,512,512,512,512,512,512,512,512,512,512,512,512,512,512,512,512,512,512,512,512,512,512,512,512,512,512,512,512,512,506,484,399,327,255,179,114,46,30,29],"timestamp_mouse":[1,29,39,58,80,100,118,139,160,180,198,219,239,259,279,298,319,339,359,378,399,419,439,459,480,499,520,540,559,579,599,618,639,659,680,699,719,739,759,779,799,819,839,859,880,900,919,939],"xSR":741.5,"ySR":458.25,"xT1":424.9,"yT1":0,"xT2":1058.1,"yT2":0,"toosoon":0,"cond_shown":"equaldotanddens","ratio_trial":750,"smaller_num":"9","larger_num":"12","correct_side":2,"subjID":"juandiegorodriguezamarillo9","gender":"0","age":"11","school":"6"},{"start_time":1551794844163,"click_time":1551794845489,"finger_time":1551794844869,"fix_duration":492.28464296429564,"trial":56,"RT":706,"MT":620,"sideResp":1,"stimulus":"img/500/randomdotsizeEA/L/5_Ratio_500_L_4_R_2.png","xmouse":[817,817,817,817,817,817,817,817,817,817,817,817,817,817,817,817,817,817,817,817,817,817,817,817,817,817,817,817,817,817,817,815,811,806,799,773,756,739,721,695,644,616,562,520,474,344,312,312,312,312,312,312,312,312,313,365,385,385,385,385,385,385,385,385,385,385,468],"ymouse":[501,501,501,501,501,501,501,501,501,501,501,501,501,501,501,501,501,501,501,501,501,501,501,501,501,501,501,501,501,501,501,501,499,491,473,418,384,353,323,291,248,227,187,152,111,26,9,9,9,9,9,9,9,9,2,3,2,2,2,2,2,2,2,2,2,2,7],"timestamp_mouse":[12,40,46,67,87,106,126,146,166,187,205,226,246,266,286,306,326,347,366,386,406,425,445,466,486,506,527,547,566,586,606,625,646,666,686,706,725,746,766,786,806,826,846,866,887,906,926,946,965,986,1007,1026,1046,1067,1087,1106,1126,1147,1166,1186,1207,1226,1246,1267,1287,1306,1326],"xSR":741.5,"ySR":458.25,"xT1":424.9,"yT1":0,"xT2":1058.1,"yT2":0,"toosoon":0,"cond_shown":"randomdotsizeEA","ratio_trial":500,"smaller_num":"2","larger_num":"4","correct_side":1,"subjID":"juandiegorodriguezamarillo9","gender":"0","age":"11","school":"6"},{"start_time":1551794848563,"click_time":1551794849849,"finger_time":1551794849229,"fix_duration":672.2565071891038,"trial":57,"RT":666,"MT":620,"sideResp":1,"stimulus":"img/500/equaldotsize/L/5_Ratio_500_L_4_R_2.png","xmouse":[797,797,797,797,797,797,797,797,797,797,797,797,797,797,797,797,797,797,797,797,797,797,797,797,797,797,797,797,797,796,789,781,772,758,739,715,656,618,582,546,443,367,324,302,292,281,277,276,276,276,279,282,285,293,309,355,377,394,406,415,423,426,427,428,431],"ymouse":[500,500,500,500,500,500,500,500,500,500,500,500,500,500,500,500,500,500,500,500,500,500,500,500,500,500,500,500,500,500,487,477,467,451,434,414,369,346,328,316,297,276,258,244,233,201,182,170,160,151,139,134,132,130,128,128,128,124,121,116,109,107,105,102,97],"timestamp_mouse":[8,36,45,66,86,107,127,146,167,187,206,227,247,267,286,306,327,345,366,387,407,427,447,465,485,506,527,547,566,587,606,626,646,666,686,705,726,746,766,786,805,825,846,866,886,907,926,946,967,986,1006,1026,1045,1066,1086,1106,1126,1146,1166,1186,1205,1226,1246,1266,1286],"xSR":741.5,"ySR":458.25,"xT1":424.9,"yT1":0,"xT2":1058.1,"yT2":0,"toosoon":0,"cond_shown":"equaldotsize","ratio_trial":500,"smaller_num":"2","larger_num":"4","correct_side":1,"subjID":"juandiegorodriguezamarillo9","gender":"0","age":"11","school":"6"},{"start_time":1551794850809,"click_time":1551794851949,"finger_time":1551794851389,"fix_duration":277.9497395873942,"trial":58,"RT":580,"MT":560,"sideResp":1,"stimulus":"img/500/equaldotsize/L/13_Ratio_500_L_12_R_6.png","xmouse":[787,787,787,787,787,787,787,787,787,787,787,787,787,787,787,787,787,787,787,787,787,787,787,787,787,787,786,786,786,771,750,720,693,675,674,674,674,674,674,674,666,654,634,581,551,527,506,490,471,469,469,469,469,469,469,469,469,468],"ymouse":[505,505,505,505,505,505,505,505,505,505,505,505,505,505,505,505,505,505,505,505,505,505,505,505,505,505,505,504,467,392,321,253,208,173,172,172,172,172,172,171,169,165,160,142,134,129,122,117,109,107,107,107,107,107,107,105,101,93],"timestamp_mouse":[5,29,42,60,81,102,120,140,161,180,200,222,240,260,280,301,321,341,360,381,400,420,440,462,480,501,520,542,560,580,600,621,640,660,680,700,721,740,760,781,800,821,840,860,880,900,921,940,960,980,1000,1021,1040,1061,1081,1100,1120,1140],"xSR":741.5,"ySR":458.25,"xT1":424.9,"yT1":0,"xT2":1058.1,"yT2":0,"toosoon":0,"cond_shown":"equaldotsize","ratio_trial":500,"smaller_num":"6","larger_num":"12","correct_side":1,"subjID":"juandiegorodriguezamarillo9","gender":"0","age":"11","school":"6"},{"start_time":1551794853445,"click_time":1551794854390,"finger_time":1551794854249,"fix_duration":274.75359141122914,"trial":59,"RT":804,"MT":141,"sideResp":2,"stimulus":"img/750/equaldotanddens/R/2_Ratio_750_L_6_R_8.png","xmouse":[756,756,756,756,756,756,756,756,756,756,756,756,756,756,756,756,756,756,756,756,756,756,756,756,756,756,756,756,756,756,756,756,756,756,756,756,756,758,767,786,815,903,954,1002,1036,1057,1074,1077],"ymouse":[509,509,509,509,509,509,509,509,509,509,509,509,509,509,509,509,509,509,509,509,509,509,509,509,509,509,509,509,509,509,509,509,509,509,509,509,509,509,498,474,435,328,272,215,166,131,101,96],"timestamp_mouse":[9,37,44,65,86,104,125,145,165,184,204,225,244,265,285,305,324,344,364,384,405,424,445,465,484,504,524,544,564,584,604,625,644,665,684,706,725,745,764,785,804,825,844,864,884,904,925,945],"xSR":741.5,"ySR":458.25,"xT1":424.9,"yT1":0,"xT2":1058.1,"yT2":0,"toosoon":0,"cond_shown":"equaldotanddens","ratio_trial":750,"smaller_num":"6","larger_num":"8","correct_side":2,"subjID":"juandiegorodriguezamarillo9","gender":"0","age":"11","school":"6"},{"start_time":1551794855831,"click_time":1551794857011,"finger_time":1551794856409,"fix_duration":541.942006415876,"trial":60,"RT":578,"MT":602,"sideResp":1,"stimulus":"img/250/equaldotsize/L/15_Ratio_250_L_12_R_3.png","xmouse":[823,823,823,823,823,823,823,823,823,823,823,823,823,823,823,823,823,823,823,823,823,823,823,823,823,823,823,827,826,797,771,733,717,704,698,696,691,682,676,665,656,634,620,607,590,570,530,513,511,510,509,509,509,509,509,509,509,509,510],"ymouse":[521,521,521,521,521,521,521,521,521,521,521,521,521,521,521,521,521,521,521,521,521,521,521,521,521,521,521,488,455,414,392,356,338,319,306,296,277,261,250,234,219,189,172,160,150,142,130,123,122,121,121,120,120,120,120,119,111,104,98],"timestamp_mouse":[19,38,58,78,98,119,138,158,178,198,220,238,259,279,298,318,338,359,378,398,420,439,459,478,498,518,538,558,578,598,618,639,658,679,698,718,739,758,778,798,819,838,858,878,898,920,938,958,978,998,1018,1039,1059,1079,1099,1119,1138,1158,1180],"xSR":741.5,"ySR":458.25,"xT1":424.9,"yT1":0,"xT2":1058.1,"yT2":0,"toosoon":0,"cond_shown":"equaldotsize","ratio_trial":250,"smaller_num":"3","larger_num":"12","correct_side":1,"subjID":"juandiegorodriguezamarillo9","gender":"0","age":"11","school":"6"},{"start_time":1551794858580,"click_time":1551794859509,"finger_time":1551794859069,"fix_duration":749.0344140425382,"trial":61,"RT":489,"MT":440,"sideResp":2,"stimulus":"img/500/equaldotanddens/R/15_Ratio_500_L_1_R_2.png","xmouse":[824,824,824,824,824,824,824,824,824,824,824,824,824,824,824,824,824,824,824,824,824,824,825,829,842,857,877,914,963,1073,1130,1147,1155,1158,1158,1154,1148,1141,1132,1117,1112,1110,1110,1110,1108,1107,1107],"ymouse":[484,484,484,484,484,484,484,484,484,484,484,484,484,484,484,484,484,484,484,484,484,480,471,462,435,416,398,370,336,245,197,179,162,149,132,126,121,118,113,110,110,110,110,110,109,103,98],"timestamp_mouse":[10,37,50,69,90,110,130,150,169,190,209,229,250,270,289,310,329,349,369,390,411,429,450,470,489,509,530,550,569,589,609,629,650,670,691,709,729,750,769,790,809,829,851,870,889,909,929],"xSR":741.5,"ySR":458.25,"xT1":424.9,"yT1":0,"xT2":1058.1,"yT2":0,"toosoon":0,"cond_shown":"equaldotanddens","ratio_trial":500,"smaller_num":"1","larger_num":"2","correct_side":2,"subjID":"juandiegorodriguezamarillo9","gender":"0","age":"11","school":"6"},{"start_time":1551794861300,"click_time":1551794862029,"finger_time":1551794861830,"fix_duration":909.0565540025831,"trial":62,"RT":530,"MT":199,"sideResp":2,"stimulus":"img/250/equaldotsize/R/13_Ratio_250_L_2_R_8.png","xmouse":[786,786,786,786,786,786,786,786,786,786,786,786,786,786,786,786,786,786,786,786,786,786,786,786,786,793,821,852,931,971,1005,1028,1040,1050,1051,1054,1060],"ymouse":[487,487,487,487,487,487,487,487,487,487,487,487,487,487,487,487,487,487,487,487,487,487,487,487,487,481,437,364,189,114,70,41,28,17,15,11,4],"timestamp_mouse":[9,35,49,69,89,109,129,149,170,191,210,229,249,269,289,310,329,349,370,390,409,429,451,469,490,509,530,549,570,589,609,629,649,669,689,709,729],"xSR":741.5,"ySR":458.25,"xT1":424.9,"yT1":0,"xT2":1058.1,"yT2":0,"toosoon":0,"cond_shown":"equaldotsize","ratio_trial":250,"smaller_num":"2","larger_num":"8","correct_side":2,"subjID":"juandiegorodriguezamarillo9","gender":"0","age":"11","school":"6"},{"start_time":1551794865189,"click_time":1551794866029,"finger_time":1551794865709,"fix_duration":477.25207128627324,"trial":63,"RT":520,"MT":320,"sideResp":1,"stimulus":"img/250/equaldotanddens/L/7_Ratio_250_L_8_R_2.png","xmouse":[792,792,792,792,792,792,792,792,792,792,792,792,792,792,792,792,792,792,792,792,792,792,792,792,792,788,758,716,674,618,587,570,551,551,551,551,551,551,551,551,551,551,492],"ymouse":[493,493,493,493,493,493,493,493,493,493,493,493,493,493,493,493,493,493,493,493,493,493,493,493,493,465,395,318,246,150,86,48,9,9,9,9,9,9,9,9,9,9,7],"timestamp_mouse":[9,32,41,62,81,101,121,140,160,192,200,221,240,260,280,300,322,340,361,380,400,422,441,460,480,500,520,540,560,580,600,620,640,660,680,701,720,740,760,782,801,820,840],"xSR":741.5,"ySR":458.25,"xT1":424.9,"yT1":0,"xT2":1058.1,"yT2":0,"toosoon":0,"cond_shown":"equaldotanddens","ratio_trial":250,"smaller_num":"2","larger_num":"8","correct_side":1,"subjID":"juandiegorodriguezamarillo9","gender":"0","age":"11","school":"6"},{"start_time":1551794868369,"click_time":1551794869349,"finger_time":1551794868869,"fix_duration":1479.5079908643845,"trial":64,"RT":500,"MT":480,"sideResp":2,"stimulus":"img/250/randomdotsizeEA/R/13_Ratio_250_L_2_R_8.png","xmouse":[791,791,791,791,791,791,791,791,791,791,791,791,791,791,791,791,791,791,791,791,791,791,791,796,818,927,980,1029,1069,1099,1151,1187,1204,1218,1229,1240,1242,1244,1244,1244,1237,1231,1223,1218,1213,1190,1179,1170,1161,1150],"ymouse":[522,522,522,522,522,522,522,522,522,522,522,522,522,522,522,522,522,522,522,522,522,522,522,517,498,396,334,278,232,203,163,137,122,108,96,77,71,65,59,49,29,22,18,17,17,25,30,35,45,65],"timestamp_mouse":[1,35,42,61,81,101,122,140,161,181,200,220,241,260,281,300,321,340,361,381,400,420,440,460,481,500,521,540,560,580,600,620,640,661,680,701,720,740,760,780,800,821,840,861,881,900,920,940,961,980],"xSR":741.5,"ySR":458.25,"xT1":424.9,"yT1":0,"xT2":1058.1,"yT2":0,"toosoon":0,"cond_shown":"randomdotsizeEA","ratio_trial":250,"smaller_num":"2","larger_num":"8","correct_side":2,"subjID":"juandiegorodriguezamarillo9","gender":"0","age":"11","school":"6"},{"start_time":1551794872415,"click_time":1551794873209,"finger_time":1551794872869,"fix_duration":844.6252296609131,"trial":65,"RT":454,"MT":340,"sideResp":1,"stimulus":"img/500/equaldotsize/L/7_Ratio_500_L_10_R_5.png","xmouse":[799,799,799,799,799,799,799,799,799,799,799,799,799,799,799,799,799,799,799,799,799,791,756,717,681,643,604,555,529,517,510,508,508,507,507,507,507,507,505,504],"ymouse":[497,497,497,497,497,497,497,497,497,497,497,497,497,497,497,497,497,497,497,497,497,476,408,358,318,277,237,184,153,137,122,117,113,111,110,110,110,105,101,92],"timestamp_mouse":[15,34,55,75,96,115,135,156,174,195,214,234,256,275,295,314,334,355,374,394,414,434,454,474,494,515,535,554,574,594,615,634,654,674,694,714,734,754,775,794],"xSR":741.5,"ySR":458.25,"xT1":424.9,"yT1":0,"xT2":1058.1,"yT2":0,"toosoon":0,"cond_shown":"equaldotsize","ratio_trial":500,"smaller_num":"5","larger_num":"10","correct_side":1,"subjID":"juandiegorodriguezamarillo9","gender":"0","age":"11","school":"6"},{"start_time":1551794874121,"click_time":1551794875050,"finger_time":1551794874969,"fix_duration":250,"trial":66,"RT":848,"MT":81,"sideResp":2,"stimulus":"img/750/equaldotanddens/L/8_Ratio_750_L_4_R_3.png","xmouse":[789,789,789,789,789,789,789,789,789,789,789,789,789,789,789,789,789,789,789,789,789,789,789,777,766,765,764,764,764,763,763,763,763,763,763,763,763,763,763,765,768,779,805,959,1029,1093,1132],"ymouse":[495,495,495,495,495,495,495,495,495,495,495,495,495,495,495,495,495,495,495,495,495,495,495,491,489,489,488,486,483,483,481,480,480,480,480,480,480,480,480,477,474,466,447,302,223,148,93],"timestamp_mouse":[9,32,48,69,88,108,128,148,168,188,210,228,249,268,289,308,328,349,369,388,409,428,448,468,488,508,528,548,568,588,608,628,648,669,690,708,728,748,768,789,809,828,848,868,888,908,929],"xSR":741.5,"ySR":458.25,"xT1":424.9,"yT1":0,"xT2":1058.1,"yT2":0,"toosoon":0,"cond_shown":"equaldotanddens","ratio_trial":750,"smaller_num":"3","larger_num":"4","correct_side":1,"subjID":"juandiegorodriguezamarillo9","gender":"0","age":"11","school":"6"},{"start_time":1551794880082,"click_time":1551794881129,"finger_time":1551794880709,"fix_duration":311.22727439261047,"trial":67,"RT":627,"MT":420,"sideResp":2,"stimulus":"img/750/randomdotsizeEA/R/12_Ratio_750_L_3_R_4.png","xmouse":[783,783,783,783,783,783,783,783,783,783,783,783,783,783,783,783,783,783,783,783,783,783,783,783,783,783,785,787,787,795,807,821,844,867,902,917,925,936,946,974,987,1002,1017,1030,1055,1066,1070,1073,1075,1077,1079,1081,1082],"ymouse":[491,491,491,491,491,491,491,491,491,491,491,491,491,491,491,491,491,491,491,491,491,491,491,491,491,491,490,490,489,481,466,443,410,373,327,307,297,285,273,242,226,205,183,167,139,129,124,122,120,114,110,105,97],"timestamp_mouse":[8,35,47,67,88,108,129,148,167,187,207,227,247,267,287,307,328,347,367,387,408,427,447,467,488,508,528,547,567,587,607,627,648,668,687,707,727,749,768,787,807,827,847,868,888,907,927,948,967,987,1007,1027,1047],"xSR":741.5,"ySR":458.25,"xT1":424.9,"yT1":0,"xT2":1058.1,"yT2":0,"toosoon":0,"cond_shown":"randomdotsizeEA","ratio_trial":750,"smaller_num":"3","larger_num":"4","correct_side":2,"subjID":"juandiegorodriguezamarillo9","gender":"0","age":"11","school":"6"},{"start_time":1551794882386,"click_time":1551794883390,"finger_time":1551794882969,"fix_duration":455.9475254191482,"trial":68,"RT":583,"MT":421,"sideResp":2,"stimulus":"img/250/equaldotanddens/R/6_Ratio_250_L_6_R_24.png","xmouse":[780,780,780,780,780,780,780,780,780,780,780,780,780,780,780,780,780,780,780,780,780,780,780,780,780,780,780,780,784,856,976,1041,1092,1124,1143,1143,1143,1144,1146,1156,1168,1171,1172,1172,1168,1167,1167,1167,1167,1167,1138],"ymouse":[484,484,484,484,484,484,484,484,484,484,484,484,484,484,484,484,484,484,484,484,484,484,484,484,484,484,484,484,484,436,335,262,198,164,152,152,152,151,145,117,84,69,60,53,40,39,39,39,39,39,80],"timestamp_mouse":[9,39,43,63,83,104,123,143,163,184,203,225,244,264,284,303,324,344,365,384,404,423,444,467,483,504,523,544,564,583,603,623,644,663,683,703,724,743,763,783,804,823,844,864,883,903,923,944,964,983,1004],"xSR":741.5,"ySR":458.25,"xT1":424.9,"yT1":0,"xT2":1058.1,"yT2":0,"toosoon":0,"cond_shown":"equaldotanddens","ratio_trial":250,"smaller_num":"6","larger_num":"24","correct_side":2,"subjID":"juandiegorodriguezamarillo9","gender":"0","age":"11","school":"6"},{"start_time":1551794885341,"click_time":1551794886890,"finger_time":1551794886169,"fix_duration":1370.9608138644473,"trial":69,"RT":828,"MT":721,"sideResp":1,"stimulus":"img/750/randomdotsizeEA/L/1_Ratio_750_L_20_R_15.png","xmouse":[786,786,786,786,786,786,786,786,786,786,786,786,786,786,786,786,786,786,786,786,786,786,786,786,786,786,786,786,786,786,786,786,786,786,786,786,786,786,786,787,789,794,796,796,796,796,793,792,790,789,788,781,776,776,776,774,772,769,762,754,743,719,703,677,656,635,611,607,604,598,591,577,568,561,556,550,534,523],"ymouse":[510,510,510,510,510,510,510,510,510,510,510,510,510,510,510,510,510,510,510,510,510,510,510,510,510,510,510,510,510,510,510,510,510,510,510,510,510,510,507,500,484,449,427,415,405,398,387,381,374,367,357,324,303,297,291,286,262,240,214,187,156,107,87,61,49,38,31,31,34,47,60,71,74,75,75,76,78,78],"timestamp_mouse":[9,30,48,68,88,109,129,148,168,188,208,228,248,268,289,308,328,349,368,388,409,429,448,470,489,508,528,548,568,588,608,629,649,668,688,709,729,748,769,789,808,828,848,868,888,908,928,948,968,988,1009,1028,1048,1068,1088,1109,1129,1148,1168,1188,1210,1229,1248,1268,1289,1308,1329,1348,1368,1388,1408,1428,1448,1468,1488,1508,1528,1549],"xSR":741.5,"ySR":458.25,"xT1":424.9,"yT1":0,"xT2":1058.1,"yT2":0,"toosoon":0,"cond_shown":"randomdotsizeEA","ratio_trial":750,"smaller_num":"15","larger_num":"20","correct_side":1,"subjID":"juandiegorodriguezamarillo9","gender":"0","age":"11","school":"6"},{"start_time":1551794888780,"click_time":1551794889730,"finger_time":1551794889409,"fix_duration":1009.5763265194395,"trial":7