[{"start_time":1551793997174,"click_time":1551794017760,"finger_time":1551793997179,"fix_duration":250,"trial":0,"RT":5,"MT":20581,"sideResp":2,"stimulus":[],"xmouse":[851,855,856,852,849,845,841,840,839,839,839,839,840,841,844,846,846,846,846,846,846,846,846,846,846,846,846,846,846,846,846,846,846,846,843,838,836,834,831,827,824,823,821,820,820,816,814,807,805,802,802,802,802,802,802,810,822,859,875,885,890,893,895,895,895,896,895,861,833,804,785,773,767,766,765,765,765,765,766,769,773,776,782,782,782,782,782,782,782,782,782,782,782,782,782,782,782,782,782,782,782,782,782,782,782,782,782,782,782,782,782,782,782,782,782,782,782,782,782,782,782,782,782,782,782,782,782,782,782,782,782,782,782,782,782,782,782,782,782,782,782,782,782,782,782,782,782,782,782,782,782,782,782,782,782,782,782,782,782,782,782,782,782,782,782,782,782,782,782,782,782,782,782,782,782,782,782,782,782,782,782,782,782,782,782,782,782,782,782,782,782,782,782,782,782,782,782,787,796,807,810,817,820,821,821,821,821,821,821,821,821,821,821,822,822,823,823,816,813,813,813,812,806,804,795,784,779,771,770,770,773,778,790,796,802,806,811,815,819,820,821,822,822,822,822,822,823,824,825,826,826,826,826,825,821,818,817,816,816,816,816,816,816,816,816,816,816,816,816,816,816,816,816,816,816,816,816,816,816,816,816,816,816,816,816,816,816,816,816,816,816,816,816,816,816,816,816,816,816,816,816,816,816,816,816,816,816,816,816,816,816,816,816,816,816,816,816,816,816,816,816,816,816,816,816,816,816,816,816,816,816,816,816,816,816,816,816,816,816,816,816,816,816,816,816,816,816,816,816,816,816,816,816,816,816,816,816,816,816,816,816,816,816,816,816,816,816,816,816,816,816,816,816,816,816,816,816,816,816,816,816,816,816,816,816,816,816,816,816,816,816,816,816,816,816,816,816,816,816,816,816,816,816,816,816,816,816,816,816,816,816,816,816,816,816,816,816,816,816,816,816,816,816,816,816,816,816,816,816,816,816,816,816,816,816,816,816,816,816,816,816,816,816,816,816,816,816,816,816,816,816,816,816,816,816,816,816,816,816,816,816,816,816,816,816,816,816,816,816,816,816,816,816,816,816,816,816,816,816,816,816,816,816,816,816,816,816,816,816,816,816,816,816,816,816,816,816,816,816,816,816,816,816,816,816,816,816,816,816,816,816,816,816,816,816,816,816,816,816,816,816,816,816,816,816,816,816,816,816,816,816,816,816,816,816,816,816,816,816,816,816,816,816,816,816,816,816,816,816,816,816,816,816,816,816,816,816,816,816,816,816,816,816,816,816,816,816,816,816,816,816,816,816,816,816,816,816,816,816,816,816,816,816,816,816,816,816,816,816,816,816,816,816,816,816,816,816,816,816,816,816,816,816,816,816,816,816,816,816,816,816,816,816,816,816,816,816,816,816,816,816,816,816,816,816,816,816,816,816,816,816,816,816,816,816,816,816,816,816,816,816,816,816,816,816,816,816,816,816,816,816,816,816,816,816,816,816,816,816,816,816,816,816,816,816,816,816,816,816,816,816,816,816,816,816,816,816,816,816,816,816,816,816,816,816,816,816,816,816,816,816,816,816,816,816,816,816,816,816,816,816,816,816,816,816,816,816,816,816,816,816,816,816,816,816,816,816,816,816,816,816,816,816,816,816,816,816,816,816,816,816,816,816,816,816,816,816,816,816,816,816,816,816,816,816,816,816,816,816,816,816,816,816,816,816,816,816,816,816,816,816,816,816,816,816,816,816,816,816,816,816,816,816,816,816,816,816,816,816,816,816,816,816,816,816,816,816,816,816,816,816,816,816,816,816,816,816,816,816,816,816,816,816,816,816,816,816,816,816,816,816,816,816,816,816,816,816,816,816,816,816,816,816,826,853,871,887,895,902,909,910,910,910,910,910,910,910,910,910,910,910,903,890,875,836,827,822,819,816,809,807,807,807,807,807,807,807,807,807,804,800,794,788,774,765,752,729,699,614,574,543,533,533,533,533,536,538,538,538,534,531,530,528,527,524,524,523,523,523,520,520,519,518,517,516,514,512,510,509,509,509,509,509,509,522,525,525,525,525,525,525,525,525,525,525,525,525,525,525,525,536,552,560,561,561,565,574,589,602,625,636,643,646,649,679,708,743,784,810,826,827,827,827,827,827,827,827,827,827,827,827,827,827,827,827,827,827,827,827,827,827,827,827,827,827,827,827,827,827,827,827,827,827,827,827,827,827,827,827,827,827,827,827,827,827,827,827,827,827,827,827,827,827,827,830,833,834,834,835,839,840,845,850,851,844,838,835,832,828,822,822,822,823,825,827,827,828,831,833,839,846,853,863,881,914,936,962,990,1023,1098],"ymouse":[657,653,629,617,611,603,599,597,597,597,597,597,600,601,602,603,603,603,603,603,603,603,603,603,603,603,603,603,603,603,603,603,603,603,603,601,599,594,585,571,559,550,544,543,543,543,546,561,567,570,570,572,576,587,605,636,663,700,708,711,713,713,713,713,713,710,700,673,659,641,628,616,598,592,589,586,586,583,577,571,564,559,547,547,547,547,547,547,547,547,546,546,546,545,545,545,545,545,545,545,545,545,545,545,545,545,545,545,545,545,545,545,545,545,545,545,545,545,545,545,545,545,545,545,545,545,545,545,545,545,545,545,545,545,545,545,545,545,545,545,545,545,545,545,545,545,545,545,545,545,545,545,545,545,545,545,545,545,545,545,545,545,545,545,545,545,545,545,545,545,545,545,545,545,545,545,545,545,545,545,545,545,545,545,545,545,545,545,545,545,545,545,545,545,545,545,540,519,500,466,456,430,415,411,409,409,409,409,409,409,409,409,409,406,398,387,373,346,338,336,336,336,337,337,328,313,303,276,265,254,239,227,203,194,180,166,154,145,137,130,125,123,116,111,101,87,76,62,43,37,36,36,35,36,48,53,57,57,57,57,57,57,57,57,57,57,57,57,57,57,57,57,57,57,57,57,57,57,57,57,57,57,57,57,57,57,57,57,57,57,57,57,57,57,57,57,57,57,57,57,57,57,57,57,57,57,57,57,57,57,57,57,57,57,57,57,57,57,57,57,57,57,57,57,57,57,57,57,57,57,57,57,57,57,57,57,57,57,57,57,57,57,57,57,57,57,57,57,57,57,57,57,57,57,57,57,57,57,57,57,57,57,57,57,57,57,57,57,57,57,57,57,57,57,57,57,57,57,57,57,57,57,57,57,57,57,57,57,57,57,57,57,57,57,57,57,57,57,57,57,57,57,57,57,57,57,57,57,57,57,57,57,57,57,57,57,57,57,57,57,57,57,57,57,57,57,57,57,57,57,57,57,57,57,57,57,57,57,57,57,57,57,57,57,57,57,57,57,57,57,57,57,57,57,57,57,57,57,57,57,57,57,57,57,57,57,57,57,57,57,57,57,57,57,57,57,57,57,57,57,57,57,57,57,57,57,57,57,57,57,57,57,57,57,57,57,57,57,57,57,57,57,57,57,57,57,57,57,57,57,57,57,57,57,57,57,57,57,57,57,57,57,57,57,57,57,57,57,57,57,57,57,57,57,57,57,57,57,57,57,57,57,57,57,57,57,57,57,57,57,57,57,57,57,57,57,57,57,57,57,57,57,57,57,57,57,57,57,57,57,57,57,57,57,57,57,57,57,57,57,57,57,57,57,57,57,57,57,57,57,57,57,57,57,57,57,57,57,57,57,57,57,57,57,57,57,57,57,57,57,57,57,57,57,57,57,57,57,57,57,57,57,57,57,57,57,57,57,57,57,57,57,57,57,57,57,57,57,57,57,57,57,57,57,57,57,57,57,57,57,57,57,57,57,57,57,57,57,57,57,57,57,57,57,57,57,57,57,57,57,57,57,57,57,57,57,57,57,57,57,57,57,57,57,57,57,57,57,57,57,57,57,57,57,57,57,57,57,57,57,57,57,57,57,57,57,57,57,57,57,57,57,57,57,57,57,57,57,57,57,57,57,57,57,57,57,57,57,57,57,57,57,57,57,57,57,57,57,57,57,57,57,57,57,57,57,57,57,57,57,57,57,57,57,57,57,57,57,57,57,57,57,57,57,57,57,57,57,57,57,57,57,57,57,57,57,57,57,57,57,57,57,57,57,57,57,57,57,57,57,57,57,57,57,57,57,57,57,57,57,57,57,57,57,57,57,57,57,57,57,57,57,57,57,57,57,57,57,57,57,57,57,62,138,231,293,360,425,464,489,490,490,490,490,490,490,490,490,490,490,490,495,505,516,538,541,544,545,546,550,551,551,551,551,551,551,551,551,551,548,537,527,518,500,491,481,468,450,408,391,378,374,374,374,366,344,324,306,289,252,237,226,219,212,201,200,198,198,197,189,186,181,177,169,155,147,138,132,129,129,129,129,129,141,180,183,183,183,183,183,183,183,183,183,183,183,183,183,183,185,194,205,210,210,210,212,217,225,234,271,288,300,306,310,337,361,391,431,461,490,491,491,491,491,491,491,491,491,491,491,491,491,491,491,491,491,491,491,491,491,491,491,491,491,491,491,491,491,491,491,491,491,491,491,491,491,491,491,491,491,491,491,491,491,491,491,491,491,491,491,491,491,491,491,487,479,476,470,462,448,442,431,413,384,348,331,320,310,297,275,270,266,261,253,244,241,235,224,216,203,194,185,173,157,132,122,114,109,104,97],"timestamp_mouse":[5,26,46,66,85,107,126,145,166,187,206,226,246,266,285,305,327,347,366,387,406,426,446,466,486,506,527,546,566,585,605,626,646,666,687,707,726,746,766,786,806,825,845,865,886,905,926,946,966,985,1005,1025,1047,1066,1085,1106,1126,1146,1166,1186,1207,1225,1246,1266,1285,1305,1327,1345,1367,1386,1407,1426,1447,1465,1486,1506,1526,1546,1567,1586,1606,1625,1645,1667,1686,1705,1727,1747,1766,1786,1806,1826,1845,1865,1887,1906,1927,1946,1966,1985,2006,2027,2047,2067,2085,2107,2127,2147,2165,2186,2206,2226,2247,2265,2286,2306,2325,2347,2366,2387,2405,2426,2446,2465,2487,2507,2525,2546,2567,2585,2607,2627,2647,2666,2687,2707,2727,2745,2767,2787,2805,2826,2846,2866,2886,2907,2926,2947,2967,2986,3007,3025,3045,3066,3086,3106,3127,3147,3166,3186,3205,3226,3246,3266,3285,3305,3326,3345,3367,3387,3406,3427,3446,3465,3485,3506,3525,3546,3565,3587,3607,3626,3647,3665,3686,3705,3727,3747,3767,3786,3807,3827,3845,3866,3887,3906,3925,3946,3966,3986,4005,4026,4046,4066,4086,4105,4127,4146,4166,4187,4206,4225,4246,4265,4286,4307,4326,4346,4365,4386,4406,4427,4445,4466,4485,4505,4525,4545,4566,4585,4605,4625,4645,4666,4686,4706,4727,4746,4767,4785,4806,4825,4846,4865,4885,4905,4926,4946,4967,4986,5005,5025,5046,5066,5086,5107,5125,5146,5165,5185,5206,5226,5246,5266,5287,5305,5325,5347,5366,5385,5406,5426,5446,5466,5486,5507,5526,5546,5566,5586,5606,5627,5647,5666,5685,5705,5725,5746,5765,5785,5806,5826,5846,5867,5885,5906,5925,5947,5967,5986,6006,6025,6046,6067,6087,6106,6127,6146,6166,6187,6206,6227,6246,6266,6285,6306,6326,6347,6367,6386,6405,6425,6446,6467,6486,6507,6526,6547,6567,6587,6606,6626,6647,6665,6685,6707,6726,6745,6766,6787,6807,6827,6847,6866,6885,6905,6926,6947,6967,6986,7006,7025,7047,7066,7086,7105,7125,7147,7166,7186,7206,7226,7246,7267,7286,7306,7327,7346,7367,7385,7405,7425,7446,7466,7487,7506,7526,7546,7566,7586,7606,7626,7646,7666,7687,7707,7727,7746,7767,7786,7806,7826,7846,7866,7886,7906,7926,7946,7966,7986,8006,8026,8046,8066,8086,8105,8127,8147,8167,8187,8206,8226,8245,8267,8286,8306,8326,8346,8366,8386,8406,8425,8446,8467,8486,8507,8526,8546,8565,8585,8607,8626,8646,8667,8686,8707,8726,8745,8766,8786,8806,8826,8846,8865,8885,8907,8927,8947,8967,8986,9006,9026,9046,9067,9086,9106,9126,9146,9165,9186,9207,9227,9247,9267,9286,9307,9326,9345,9366,9385,9405,9426,9447,9465,9486,9507,9526,9545,9566,9587,9607,9626,9646,9666,9686,9705,9726,9747,9766,9786,9807,9825,9846,9867,9886,9907,9925,9946,9965,9985,10005,10025,10046,10065,10086,10107,10125,10147,10166,10186,10206,10226,10247,10265,10285,10306,10326,10347,10366,10386,10406,10426,10446,10465,10486,10507,10527,10547,10567,10586,10605,10625,10647,10666,10686,10707,10725,10746,10767,10786,10805,10825,10847,10866,10886,10905,10925,10945,10967,10986,11006,11025,11046,11067,11086,11106,11126,11146,11167,11187,11205,11226,11247,11267,11286,11306,11327,11345,11366,11385,11405,11425,11447,11467,11486,11506,11527,11547,11565,11587,11606,11627,11646,11667,11686,11706,11725,11746,11766,11787,11805,11825,11847,11866,11886,11907,11925,11945,11966,11986,12007,12027,12045,12066,12086,12107,12126,12147,12167,12187,12205,12226,12247,12266,12287,12307,12326,12346,12366,12386,12406,12427,12447,12466,12486,12506,12527,12546,12566,12587,12606,12626,12645,12665,12686,12707,12726,12745,12765,12785,12806,12826,12847,12866,12887,12905,12926,12946,12966,12987,13005,13026,13045,13066,13086,13106,13127,13146,13166,13186,13206,13227,13246,13267,13286,13306,13325,13346,13366,13387,13406,13426,13445,13465,13487,13507,13526,13547,13565,13586,13605,13627,13647,13666,13686,13707,13726,13745,13766,13785,13806,13827,13847,13866,13886,13906,13926,13947,13966,13987,14006,14026,14046,14066,14086,14106,14127,14147,14166,14185,14205,14225,14247,14266,14287,14306,14327,14347,14367,14385,14406,14426,14446,14466,14485,14506,14527,14546,14567,14586,14606,14626,14645,14666,14686,14707,14726,14746,14766,14786,14805,14826,14846,14866,14886,14906,14926,14946,14965,14987,15005,15025,15046,15065,15086,15106,15126,15146,15165,15186,15206,15227,15247,15266,15287,15307,15327,15347,15367,15385,15406,15425,15447,15467,15486,15507,15527,15546,15567,15586,15606,15625,15645,15667,15687,15707,15727,15746,15767,15785,15806,15827,15847,15866,15887,15907,15927,15947,15966,15986,16005,16027,16047,16067,16087,16106,16127,16147,16166,16186,16205,16226,16245,16267,16285,16305,16326,16346,16365,16386,16406,16426,16446,16466,16485,16505,16527,16546,16565,16586,16605,16627,16647,16666,16687,16707,16727,16746,16767,16785,16806,16826,16847,16866,16886,16905,16926,16946,16966,16985,17005,17026,17046,17066,17086,17106,17125,17147,17167,17187,17207,17226,17246,17267,17287,17306,17326,17346,17367,17386,17406,17427,17446,17467,17486,17507,17527,17545,17565,17586,17606,17626,17645,17666,17687,17706,17725,17746,17765,17786,17805,17826,17846,17867,17887,17905,17926,17946,17966,17986,18007,18026,18046,18065,18086,18107,18126,18146,18166,18187,18207,18225,18245,18265,18287,18306,18327,18345,18365,18385,18406,18426,18447,18467,18487,18506,18526,18545,18566,18586,18605,18627,18646,18666,18685,18706,18725,18745,18766,18786,18806,18825,18846,18866,18887,18907,18927,18945,18966,18986,19005,19025,19046,19066,19086,19106,19126,19147,19167,19187,19206,19227,19245,19265,19286,19305,19327,19347,19365,19386,19407,19427,19446,19467,19487,19507,19525,19547,19566,19587,19606,19626,19645,19666,19685,19705,19727,19745,19765,19787,19807,19825,19847,19865,19886,19905,19926,19947,19966,19986,20006,20025,20046,20067,20086,20106,20125,20146,20166,20186,20206,20226,20247,20266,20286,20306,20325,20346,20366,20386,20405,20425,20446,20466,20486,20505,20526,20547,20567,20586],"xSR":741.5,"ySR":501.8,"xT1":424.9,"yT1":0,"xT2":1058.1,"yT2":0,"toosoon":0,"cond_shown":"Congruent","ratio_trial":300,"L_num":1,"L_den":5,"R_num":11,"R_den":22,"correct_side":2,"subjID":"Juanestebancabastorres31","gender":"0","age":"12","school":"6","test":{"fix_dur":[250,1500],"timestim":1000,"targets_dim":[100,100],"targets_relative_coord":[0.3,0.7],"size_stim":[880,420],"start_dim":[100,100],"size_start":[300,300],"size_fix":60,"samplingrate":20,"img_types":["Congruent","Incongruent"],"ratios":[100,200,300],"rep_conds":19,"nTrials":120,"trials_to_rest":500,"Trials_order":[34,55,93,106,5,37,35,80,8,19,75,48,18,65,42,105,79,90,82,28,31,56,45,47,116,84,44,26,115,7,2,110,68,0,12,117,96,43,87,101,6,9,50,53,60,41,119,10,114,61,59,86,21,22,62,81,89,76,95,88,67,20,17,102,69,27,103,111,91,71,108,39,49,1,72,78,4,33,66,25,70,64,51,73,98,77,11,24,46,52,113,29,118,109,104,32,85,40,23,74,99,100,94,97,16,14,57,54,107,38,36,13,92,3,58,83,112,15,30,63],"cond_shown":["Congruent","Incongruent","Incongruent","Congruent","Incongruent","Incongruent","Incongruent","Congruent","Congruent","Incongruent","Incongruent","Congruent","Congruent","Incongruent","Congruent","Incongruent","Incongruent","Congruent","Congruent","Congruent","Incongruent","Congruent","Incongruent","Incongruent","Congruent","Congruent","Congruent","Congruent","Incongruent","Incongruent","Congruent","Congruent","Congruent","Congruent","Congruent","Incongruent","Congruent","Incongruent","Incongruent","Incongruent","Congruent","Incongruent","Congruent","Incongruent","Congruent","Incongruent","Incongruent","Congruent","Congruent","Incongruent","Incongruent","Congruent","Incongruent","Congruent","Congruent","Incongruent","Incongruent","Congruent","Incongruent","Congruent","Incongruent","Congruent","Incongruent","Congruent","Incongruent","Incongruent","Incongruent","Incongruent","Incongruent","Incongruent","Congruent","Incongruent","Incongruent","Incongruent","Congruent","Congruent","Congruent","Incongruent","Congruent","Incongruent","Congruent","Congruent","Incongruent","Incongruent","Congruent","Incongruent","Incongruent","Congruent","Congruent","Congruent","Incongruent","Incongruent","Congruent","Incongruent","Congruent","Congruent","Incongruent","Congruent","Incongruent","Congruent","Incongruent","Congruent","Congruent","Incongruent","Congruent","Congruent","Incongruent","Congruent","Incongruent","Congruent","Congruent","Incongruent","Congruent","Incongruent","Congruent","Incongruent","Congruent","Incongruent","Congruent","Incongruent"],"ratio_trial":[300,100,200,300,300,100,300,200,200,100,200,100,100,300,100,200,100,100,300,300,100,200,200,300,200,100,200,200,100,100,200,200,200,100,100,200,100,100,200,300,100,200,200,300,100,300,300,300,100,100,300,200,200,300,200,200,300,300,300,300,100,200,300,100,200,200,100,200,100,300,100,200,100,100,100,100,300,200,100,100,300,300,200,100,200,300,300,100,300,300,300,300,300,100,200,200,100,300,300,200,200,300,300,100,300,200,200,100,300,200,100,100,200,200,300,300,300,200,100,200],"left_num":[1,9,6,5,4,3,4,8,4,12,4,6,11,4,1,14,10,6,4,1,6,7,7,4,9,11,6,4,9,3,7,8,20,11,1,4,2,10,3,7,1,1,20,4,6,4,4,7,7,10,4,6,3,1,9,7,7,8,13,1,12,6,7,3,4,3,6,4,10,2,12,6,8,17,4,11,2,14,10,13,4,4,1,6,6,8,4,9,8,1,13,2,1,6,14,20,4,2,4,9,7,11,11,1,20,8,7,6,4,13,9,11,1,1,5,2,4,14,2,1],"right_num":[11,20,3,7,8,4,8,7,3,9,1,5,6,6,3,6,8,5,13,6,13,18,14,2,13,4,7,3,13,8,18,7,9,4,18,14,6,9,1,8,18,3,9,2,15,2,2,20,15,9,2,3,11,11,13,14,8,10,12,7,2,11,8,2,6,11,13,14,9,6,13,3,1,10,15,4,12,12,3,12,13,13,2,3,7,9,2,8,1,19,12,6,8,3,6,9,8,12,2,13,4,4,1,8,9,7,8,5,2,14,8,9,21,3,6,6,13,6,11,2],"left_den":[5,10,20,25,5,6,5,15,10,24,30,20,22,5,2,30,25,20,20,5,10,15,10,20,30,22,12,10,15,5,15,15,25,22,2,6,5,25,10,10,2,2,25,20,12,20,20,14,14,25,20,15,4,5,30,10,10,15,26,20,30,20,10,6,5,4,10,6,25,4,30,20,20,30,10,22,10,30,25,26,20,20,3,12,12,10,20,15,16,3,26,4,30,12,28,25,8,10,20,30,15,22,22,2,25,15,10,20,20,26,15,22,2,2,25,4,20,30,5,3],"right_den":[22,25,6,14,16,10,16,21,15,15,3,25,15,12,5,9,16,25,26,12,26,27,28,4,26,10,10,15,26,16,27,21,15,10,30,30,12,18,2,20,30,10,15,4,25,4,4,25,25,18,4,15,20,22,26,28,20,12,15,20,4,22,20,5,10,20,26,30,18,30,26,6,2,15,30,10,24,18,10,20,26,26,15,5,10,18,4,16,5,30,15,30,24,5,20,15,20,24,4,26,6,20,5,20,18,21,16,25,4,20,16,15,30,10,12,30,26,9,22,15],"correct_side":[2,1,2,2,1,1,1,1,1,2,2,1,1,1,2,2,2,1,2,2,1,2,1,2,2,1,2,1,1,1,2,1,1,1,2,1,2,2,2,1,2,1,1,2,2,2,2,2,2,2,2,1,1,2,2,1,1,2,2,2,2,2,1,1,1,1,1,1,2,1,2,2,2,2,2,1,2,2,1,2,2,2,1,2,2,1,2,1,1,2,2,1,2,2,1,1,1,2,2,2,2,1,1,1,1,1,1,1,2,2,1,2,2,1,2,1,2,2,2,1],"img_shown":["img2/300/Congruent/R/C_Dist_300_LN_1_LD_5_RN_11_RD_22_1.png","img2/100/Incongruent/L/I_Dist_100_LN_9_LD_10_RN_20_RD_25_0.png","img2/200/Incongruent/R/I_Dist_200_LN_6_LD_20_RN_3_RD_6_1.png","img2/300/Congruent/R/C_Dist_300_LN_5_LD_25_RN_7_RD_14_1.png","img2/300/Incongruent/L/I_Dist_300_LN_4_LD_5_RN_8_RD_16_0.png","img2/100/Incongruent/L/I_Dist_100_LN_3_LD_6_RN_4_RD_10_0.png","img2/300/Incongruent/L/I_Dist_300_LN_4_LD_5_RN_8_RD_16_0.png","img2/200/Congruent/L/C_Dist_200_LN_8_LD_15_RN_7_RD_21_0.png","img2/200/Congruent/L/C_Dist_200_LN_4_LD_10_RN_3_RD_15_0.png","img2/100/Incongruent/R/I_Dist_100_LN_12_LD_24_RN_9_RD_15_1.png","img2/200/Incongruent/R/I_Dist_200_LN_4_LD_30_RN_1_RD_3_1.png","img2/100/Congruent/L/C_Dist_100_LN_6_LD_20_RN_5_RD_25_0.png","img2/100/Congruent/L/C_Dist_100_LN_11_LD_22_RN_6_RD_15_0.png","img2/300/Incongruent/L/I_Dist_300_LN_4_LD_5_RN_6_RD_12_0.png","img2/100/Congruent/R/C_Dist_100_LN_1_LD_2_RN_3_RD_5_1.png","img2/200/Incongruent/R/I_Dist_200_LN_14_LD_30_RN_6_RD_9_1.png","img2/100/Incongruent/R/I_Dist_100_LN_10_LD_25_RN_8_RD_16_1.png","img2/100/Congruent/L/C_Dist_100_LN_6_LD_20_RN_5_RD_25_0.png","img2/300/Congruent/R/C_Dist_300_LN_4_LD_20_RN_13_RD_26_1.png","img2/300/Congruent/R/C_Dist_300_LN_1_LD_5_RN_6_RD_12_1.png","img2/100/Incongruent/L/I_Dist_100_LN_6_LD_10_RN_13_RD_26_0.png","img2/200/Congruent/R/C_Dist_200_LN_7_LD_15_RN_18_RD_27_1.png","img2/200/Incongruent/L/I_Dist_200_LN_7_LD_10_RN_14_RD_28_0.png","img2/300/Incongruent/R/I_Dist_300_LN_4_LD_20_RN_2_RD_4_1.png","img2/200/Congruent/R/C_Dist_200_LN_9_LD_30_RN_13_RD_26_1.png","img2/100/Congruent/L/C_Dist_100_LN_11_LD_22_RN_4_RD_10_0.png","img2/200/Congruent/R/C_Dist_200_LN_6_LD_12_RN_7_RD_10_1.png","img2/200/Congruent/L/C_Dist_200_LN_4_LD_10_RN_3_RD_15_0.png","img2/100/Incongruent/L/I_Dist_100_LN_9_LD_15_RN_13_RD_26_0.png","img2/100/Incongruent/L/I_Dist_100_LN_3_LD_5_RN_8_RD_16_0.png","img2/200/Congruent/R/C_Dist_200_LN_7_LD_15_RN_18_RD_27_1.png","img2/200/Congruent/L/C_Dist_200_LN_8_LD_15_RN_7_RD_21_0.png","img2/200/Congruent/L/C_Dist_200_LN_20_LD_25_RN_9_RD_15_0.png","img2/100/Congruent/L/C_Dist_100_LN_11_LD_22_RN_4_RD_10_0.png","img2/100/Congruent/R/C_Dist_100_LN_1_LD_2_RN_18_RD_30_1.png","img2/200/Incongruent/L/I_Dist_200_LN_4_LD_6_RN_14_RD_30_0.png","img2/100/Congruent/R/C_Dist_100_LN_2_LD_5_RN_6_RD_12_1.png","img2/100/Incongruent/R/I_Dist_100_LN_10_LD_25_RN_9_RD_18_1.png","img2/200/Incongruent/R/I_Dist_200_LN_3_LD_10_RN_1_RD_2_1.png","img2/300/Incongruent/L/I_Dist_300_LN_7_LD_10_RN_8_RD_20_0.png","img2/100/Congruent/R/C_Dist_100_LN_1_LD_2_RN_18_RD_30_1.png","img2/200/Incongruent/L/I_Dist_200_LN_1_LD_2_RN_3_RD_10_0.png","img2/200/Congruent/L/C_Dist_200_LN_20_LD_25_RN_9_RD_15_0.png","img2/300/Incongruent/R/I_Dist_300_LN_4_LD_20_RN_2_RD_4_1.png","img2/100/Congruent/R/C_Dist_100_LN_6_LD_12_RN_15_RD_25_1.png","img2/300/Incongruent/R/I_Dist_300_LN_4_LD_20_RN_2_RD_4_1.png","img2/300/Incongruent/R/I_Dist_300_LN_4_LD_20_RN_2_RD_4_1.png","img2/300/Congruent/R/C_Dist_300_LN_7_LD_14_RN_20_RD_25_1.png","img2/100/Congruent/R/C_Dist_100_LN_7_LD_14_RN_15_RD_25_1.png","img2/100/Incongruent/R/I_Dist_100_LN_10_LD_25_RN_9_RD_18_1.png","img2/300/Incongruent/R/I_Dist_300_LN_4_LD_20_RN_2_RD_4_1.png","img2/200/Congruent/L/C_Dist_200_LN_6_LD_15_RN_3_RD_15_0.png","img2/200/Incongruent/L/I_Dist_200_LN_3_LD_4_RN_11_RD_20_0.png","img2/300/Congruent/R/C_Dist_300_LN_1_LD_5_RN_11_RD_22_1.png","img2/200/Congruent/R/C_Dist_200_LN_9_LD_30_RN_13_RD_26_1.png","img2/200/Incongruent/L/I_Dist_200_LN_7_LD_10_RN_14_RD_28_0.png","img2/300/Incongruent/L/I_Dist_300_LN_7_LD_10_RN_8_RD_20_0.png","img2/300/Congruent/R/C_Dist_300_LN_8_LD_15_RN_10_RD_12_1.png","img2/300/Incongruent/R/I_Dist_300_LN_13_LD_26_RN_12_RD_15_1.png","img2/300/Congruent/R/C_Dist_300_LN_1_LD_20_RN_7_RD_20_1.png","img2/100/Incongruent/R/I_Dist_100_LN_12_LD_30_RN_2_RD_4_1.png","img2/200/Congruent/R/C_Dist_200_LN_6_LD_20_RN_11_RD_22_1.png","img2/300/Incongruent/L/I_Dist_300_LN_7_LD_10_RN_8_RD_20_0.png","img2/100/Congruent/L/C_Dist_100_LN_3_LD_6_RN_2_RD_5_0.png","img2/200/Incongruent/L/I_Dist_200_LN_4_LD_5_RN_6_RD_10_0.png","img2/200/Incongruent/L/I_Dist_200_LN_3_LD_4_RN_11_RD_20_0.png","img2/100/Incongruent/L/I_Dist_100_LN_6_LD_10_RN_13_RD_26_0.png","img2/200/Incongruent/L/I_Dist_200_LN_4_LD_6_RN_14_RD_30_0.png","img2/100/Incongruent/R/I_Dist_100_LN_10_LD_25_RN_9_RD_18_1.png","img2/300/Incongruent/L/I_Dist_300_LN_2_LD_4_RN_6_RD_30_0.png","img2/100/Congruent/R/C_Dist_100_LN_12_LD_30_RN_13_RD_26_1.png","img2/200/Incongruent/R/I_Dist_200_LN_6_LD_20_RN_3_RD_6_1.png","img2/100/Incongruent/R/I_Dist_100_LN_8_LD_20_RN_1_RD_2_1.png","img2/100/Incongruent/R/I_Dist_100_LN_17_LD_30_RN_10_RD_15_1.png","img2/100/Congruent/R/C_Dist_100_LN_4_LD_10_RN_15_RD_30_1.png","img2/100/Congruent/L/C_Dist_100_LN_11_LD_22_RN_4_RD_10_0.png","img2/300/Congruent/R/C_Dist_300_LN_2_LD_10_RN_12_RD_24_1.png","img2/200/Incongruent/R/I_Dist_200_LN_14_LD_30_RN_12_RD_18_1.png","img2/100/Congruent/L/C_Dist_100_LN_10_LD_25_RN_3_RD_10_0.png","img2/100/Incongruent/R/I_Dist_100_LN_13_LD_26_RN_12_RD_20_1.png","img2/300/Congruent/R/C_Dist_300_LN_4_LD_20_RN_13_RD_26_1.png","img2/300/Congruent/R/C_Dist_300_LN_4_LD_20_RN_13_RD_26_1.png","img2/200/Incongruent/L/I_Dist_200_LN_1_LD_3_RN_2_RD_15_0.png","img2/100/Incongruent/R/I_Dist_100_LN_6_LD_12_RN_3_RD_5_1.png","img2/200/Congruent/R/C_Dist_200_LN_6_LD_12_RN_7_RD_10_1.png","img2/300/Incongruent/L/I_Dist_300_LN_8_LD_10_RN_9_RD_18_0.png","img2/300/Incongruent/R/I_Dist_300_LN_4_LD_20_RN_2_RD_4_1.png","img2/100/Congruent/L/C_Dist_100_LN_9_LD_15_RN_8_RD_16_0.png","img2/300/Congruent/L/C_Dist_300_LN_8_LD_16_RN_1_RD_5_0.png","img2/300/Congruent/R/C_Dist_300_LN_1_LD_3_RN_19_RD_30_1.png","img2/300/Incongruent/R/I_Dist_300_LN_13_LD_26_RN_12_RD_15_1.png","img2/300/Incongruent/L/I_Dist_300_LN_2_LD_4_RN_6_RD_30_0.png","img2/300/Congruent/R/C_Dist_300_LN_1_LD_30_RN_8_RD_24_1.png","img2/100/Incongruent/R/I_Dist_100_LN_6_LD_12_RN_3_RD_5_1.png","img2/200/Congruent/L/C_Dist_200_LN_14_LD_28_RN_6_RD_20_0.png","img2/200/Congruent/L/C_Dist_200_LN_20_LD_25_RN_9_RD_15_0.png","img2/100/Incongruent/L/I_Dist_100_LN_4_LD_8_RN_8_RD_20_0.png","img2/300/Congruent/R/C_Dist_300_LN_2_LD_10_RN_12_RD_24_1.png","img2/300/Incongruent/R/I_Dist_300_LN_4_LD_20_RN_2_RD_4_1.png","img2/200/Congruent/R/C_Dist_200_LN_9_LD_30_RN_13_RD_26_1.png","img2/200/Incongruent/R/I_Dist_200_LN_7_LD_15_RN_4_RD_6_1.png","img2/300/Congruent/L/C_Dist_300_LN_11_LD_22_RN_4_RD_20_0.png","img2/300/Congruent/L/C_Dist_300_LN_11_LD_22_RN_1_RD_5_0.png","img2/100/Incongruent/L/I_Dist_100_LN_1_LD_2_RN_8_RD_20_0.png","img2/300/Congruent/L/C_Dist_300_LN_20_LD_25_RN_9_RD_18_0.png","img2/200/Congruent/L/C_Dist_200_LN_8_LD_15_RN_7_RD_21_0.png","img2/200/Incongruent/L/I_Dist_200_LN_7_LD_10_RN_8_RD_16_0.png","img2/100/Congruent/L/C_Dist_100_LN_6_LD_20_RN_5_RD_25_0.png","img2/300/Incongruent/R/I_Dist_300_LN_4_LD_20_RN_2_RD_4_1.png","img2/200/Congruent/R/C_Dist_200_LN_13_LD_26_RN_14_RD_20_1.png","img2/100/Congruent/L/C_Dist_100_LN_9_LD_15_RN_8_RD_16_0.png","img2/100/Incongruent/R/I_Dist_100_LN_11_LD_22_RN_9_RD_15_1.png","img2/200/Congruent/R/C_Dist_200_LN_1_LD_2_RN_21_RD_30_1.png","img2/200/Incongruent/L/I_Dist_200_LN_1_LD_2_RN_3_RD_10_0.png","img2/300/Congruent/R/C_Dist_300_LN_5_LD_25_RN_6_RD_12_1.png","img2/300/Incongruent/L/I_Dist_300_LN_2_LD_4_RN_6_RD_30_0.png","img2/300/Congruent/R/C_Dist_300_LN_4_LD_20_RN_13_RD_26_1.png","img2/200/Incongruent/R/I_Dist_200_LN_14_LD_30_RN_6_RD_9_1.png","img2/100/Congruent/R/C_Dist_100_LN_2_LD_5_RN_11_RD_22_1.png","img2/200/Incongruent/L/I_Dist_200_LN_1_LD_3_RN_2_RD_15_0.png"],"dist100_C":[["C_Dist_100_LN_10_LD_25_RN_3_RD_10_0.png","C_Dist_100_LN_11_LD_22_RN_4_RD_10_0.png","C_Dist_100_LN_11_LD_22_RN_6_RD_15_0.png","C_Dist_100_LN_15_LD_25_RN_13_RD_26_0.png","C_Dist_100_LN_3_LD_6_RN_2_RD_5_0.png","C_Dist_100_LN_6_LD_20_RN_5_RD_25_0.png","C_Dist_100_LN_8_LD_16_RN_2_RD_5_0.png","C_Dist_100_LN_9_LD_15_RN_8_RD_16_0.png"],["C_Dist_100_LN_1_LD_2_RN_18_RD_30_1.png","C_Dist_100_LN_1_LD_2_RN_3_RD_5_1.png","C_Dist_100_LN_12_LD_30_RN_13_RD_26_1.png","C_Dist_100_LN_2_LD_5_RN_11_RD_22_1.png","C_Dist_100_LN_2_LD_5_RN_6_RD_12_1.png","C_Dist_100_LN_3_LD_20_RN_4_RD_16_1.png","C_Dist_100_LN_4_LD_10_RN_15_RD_30_1.png","C_Dist_100_LN_4_LD_8_RN_6_RD_10_1.png","C_Dist_100_LN_6_LD_12_RN_15_RD_25_1.png","C_Dist_100_LN_7_LD_14_RN_15_RD_25_1.png","C_Dist_100_LN_7_LD_14_RN_9_RD_15_1.png"]],"dist100_I":[["I_Dist_100_LN_1_LD_2_RN_8_RD_20_0.png","I_Dist_100_LN_2_LD_4_RN_6_RD_15_0.png","I_Dist_100_LN_2_LD_4_RN_8_RD_20_0.png","I_Dist_100_LN_3_LD_5_RN_11_RD_22_0.png","I_Dist_100_LN_3_LD_5_RN_8_RD_16_0.png","I_Dist_100_LN_3_LD_6_RN_4_RD_10_0.png","I_Dist_100_LN_3_LD_9_RN_7_RD_30_0.png","I_Dist_100_LN_4_LD_8_RN_8_RD_20_0.png","I_Dist_100_LN_6_LD_10_RN_11_RD_22_0.png","I_Dist_100_LN_6_LD_10_RN_13_RD_26_0.png","I_Dist_100_LN_6_LD_10_RN_7_RD_14_0.png","I_Dist_100_LN_9_LD_10_RN_20_RD_25_0.png","I_Dist_100_LN_9_LD_15_RN_13_RD_26_0.png","I_Dist_100_LN_9_LD_15_RN_14_RD_28_0.png"],["I_Dist_100_LN_10_LD_25_RN_8_RD_16_1.png","I_Dist_100_LN_10_LD_25_RN_9_RD_18_1.png","I_Dist_100_LN_11_LD_22_RN_9_RD_15_1.png","I_Dist_100_LN_12_LD_24_RN_9_RD_15_1.png","I_Dist_100_LN_12_LD_30_RN_2_RD_4_1.png","I_Dist_100_LN_13_LD_26_RN_12_RD_20_1.png","I_Dist_100_LN_13_LD_26_RN_6_RD_10_1.png","I_Dist_100_LN_17_LD_30_RN_10_RD_15_1.png","I_Dist_100_LN_6_LD_12_RN_3_RD_5_1.png","I_Dist_100_LN_8_LD_16_RN_6_RD_10_1.png","I_Dist_100_LN_8_LD_20_RN_1_RD_2_1.png","I_Dist_100_LN_9_LD_18_RN_6_RD_10_1.png"]],"dist100_S":[["E_Dist_100_LN_2_LD_12_RN_2_RD_30_0.png","E_Dist_100_LN_6_LD_10_RN_6_RD_12_0.png"],["E_Dist_100_LN_6_LD_12_RN_6_RD_10_1.png"]],"dist200_C":[["C_Dist_200_LN_11_LD_22_RN_3_RD_10_0.png","C_Dist_200_LN_12_LD_15_RN_6_RD_10_0.png","C_Dist_200_LN_12_LD_20_RN_6_RD_15_0.png","C_Dist_200_LN_14_LD_28_RN_6_RD_20_0.png","C_Dist_200_LN_15_LD_25_RN_4_RD_10_0.png","C_Dist_200_LN_16_LD_20_RN_12_RD_20_0.png","C_Dist_200_LN_16_LD_30_RN_9_RD_27_0.png","C_Dist_200_LN_20_LD_25_RN_9_RD_15_0.png","C_Dist_200_LN_21_LD_30_RN_2_RD_4_0.png","C_Dist_200_LN_4_LD_10_RN_3_RD_15_0.png","C_Dist_200_LN_4_LD_8_RN_3_RD_10_0.png","C_Dist_200_LN_6_LD_15_RN_3_RD_15_0.png","C_Dist_200_LN_7_LD_21_RN_2_RD_15_0.png","C_Dist_200_LN_8_LD_15_RN_2_RD_6_0.png","C_Dist_200_LN_8_LD_15_RN_3_RD_9_0.png","C_Dist_200_LN_8_LD_15_RN_7_RD_21_0.png","C_Dist_200_LN_9_LD_20_RN_4_RD_16_0.png"],["C_Dist_200_LN_1_LD_2_RN_21_RD_30_1.png","C_Dist_200_LN_13_LD_26_RN_14_RD_20_1.png","C_Dist_200_LN_3_LD_10_RN_11_RD_22_1.png","C_Dist_200_LN_3_LD_10_RN_14_RD_28_1.png","C_Dist_200_LN_3_LD_10_RN_7_RD_14_1.png","C_Dist_200_LN_3_LD_12_RN_9_RD_20_1.png","C_Dist_200_LN_3_LD_6_RN_14_RD_20_1.png","C_Dist_200_LN_5_LD_10_RN_14_RD_20_1.png","C_Dist_200_LN_6_LD_12_RN_7_RD_10_1.png","C_Dist_200_LN_6_LD_20_RN_11_RD_22_1.png","C_Dist_200_LN_7_LD_15_RN_18_RD_27_1.png","C_Dist_200_LN_9_LD_30_RN_13_RD_26_1.png"]],"dist200_I":[["I_Dist_200_LN_1_LD_2_RN_3_RD_10_0.png","I_Dist_200_LN_1_LD_3_RN_2_RD_15_0.png","I_Dist_200_LN_3_LD_4_RN_11_RD_20_0.png","I_Dist_200_LN_4_LD_5_RN_6_RD_10_0.png","I_Dist_200_LN_4_LD_6_RN_14_RD_30_0.png","I_Dist_200_LN_7_LD_10_RN_12_RD_24_0.png","I_Dist_200_LN_7_LD_10_RN_14_RD_28_0.png","I_Dist_200_LN_7_LD_10_RN_8_RD_16_0.png"],["I_Dist_200_LN_11_LD_20_RN_3_RD_4_1.png","I_Dist_200_LN_14_LD_30_RN_12_RD_18_1.png","I_Dist_200_LN_14_LD_30_RN_6_RD_9_1.png","I_Dist_200_LN_3_LD_10_RN_1_RD_2_1.png","I_Dist_200_LN_4_LD_30_RN_1_RD_3_1.png","I_Dist_200_LN_6_LD_20_RN_3_RD_6_1.png","I_Dist_200_LN_7_LD_15_RN_4_RD_6_1.png","I_Dist_200_LN_7_LD_15_RN_6_RD_9_1.png","I_Dist_200_LN_9_LD_15_RN_8_RD_10_1.png"]],"dist200_S":[["E_Dist_200_LN_3_LD_6_RN_3_RD_10_0.png"],["E_Dist_200_LN_3_LD_10_RN_3_RD_6_1.png"]],"dist300_C":[["C_Dist_300_LN_11_LD_22_RN_1_RD_5_0.png","C_Dist_300_LN_11_LD_22_RN_2_RD_10_0.png","C_Dist_300_LN_11_LD_22_RN_4_RD_20_0.png","C_Dist_300_LN_12_LD_24_RN_2_RD_10_0.png","C_Dist_300_LN_18_LD_20_RN_9_RD_15_0.png","C_Dist_300_LN_20_LD_25_RN_13_RD_26_0.png","C_Dist_300_LN_20_LD_25_RN_14_RD_28_0.png","C_Dist_300_LN_20_LD_25_RN_5_RD_10_0.png","C_Dist_300_LN_20_LD_25_RN_8_RD_16_0.png","C_Dist_300_LN_20_LD_25_RN_9_RD_18_0.png","C_Dist_300_LN_24_LD_30_RN_2_RD_4_0.png","C_Dist_300_LN_24_LD_30_RN_8_RD_16_0.png","C_Dist_300_LN_3_LD_6_RN_2_RD_10_0.png","C_Dist_300_LN_4_LD_10_RN_1_RD_10_0.png","C_Dist_300_LN_4_LD_5_RN_2_RD_4_0.png","C_Dist_300_LN_8_LD_16_RN_1_RD_5_0.png","C_Dist_300_LN_9_LD_10_RN_3_RD_5_0.png"],["C_Dist_300_LN_1_LD_20_RN_7_RD_20_1.png","C_Dist_300_LN_1_LD_3_RN_19_RD_30_1.png","C_Dist_300_LN_1_LD_30_RN_8_RD_24_1.png","C_Dist_300_LN_1_LD_5_RN_11_RD_22_1.png","C_Dist_300_LN_1_LD_5_RN_3_RD_6_1.png","C_Dist_300_LN_1_LD_5_RN_6_RD_12_1.png","C_Dist_300_LN_2_LD_10_RN_12_RD_24_1.png","C_Dist_300_LN_2_LD_20_RN_10_RD_25_1.png","C_Dist_300_LN_3_LD_12_RN_11_RD_20_1.png","C_Dist_300_LN_3_LD_6_RN_4_RD_5_1.png","C_Dist_300_LN_4_LD_20_RN_13_RD_26_1.png","C_Dist_300_LN_5_LD_25_RN_6_RD_12_1.png","C_Dist_300_LN_5_LD_25_RN_7_RD_14_1.png","C_Dist_300_LN_7_LD_14_RN_20_RD_25_1.png","C_Dist_300_LN_8_LD_15_RN_10_RD_12_1.png"]],"dist300_I":[["I_Dist_300_LN_1_LD_2_RN_2_RD_10_0.png","I_Dist_300_LN_1_LD_2_RN_3_RD_15_0.png","I_Dist_300_LN_2_LD_4_RN_6_RD_30_0.png","I_Dist_300_LN_3_LD_6_RN_4_RD_20_0.png","I_Dist_300_LN_4_LD_5_RN_6_RD_12_0.png","I_Dist_300_LN_4_LD_5_RN_8_RD_16_0.png","I_Dist_300_LN_7_LD_10_RN_8_RD_20_0.png","I_Dist_300_LN_8_LD_10_RN_14_RD_28_0.png","I_Dist_300_LN_8_LD_10_RN_9_RD_18_0.png"],["I_Dist_300_LN_13_LD_26_RN_12_RD_15_1.png","I_Dist_300_LN_4_LD_20_RN_2_RD_4_1.png"]],"dist300_S":[["E_Dist_300_LN_9_LD_12_RN_9_RD_20_0.png"],["E_Dist_300_LN_18_LD_30_RN_18_RD_20_1.png","E_Dist_300_LN_3_LD_10_RN_3_RD_5_1.png","E_Dist_300_LN_9_LD_20_RN_9_RD_12_1.png"]],"dist500_C":[["C_Dist_500_LN_10_LD_13_RN_7_RD_26_0.png","C_Dist_500_LN_10_LD_15_RN_4_RD_24_0.png","C_Dist_500_LN_12_LD_16_RN_3_RD_12_0.png","C_Dist_500_LN_12_LD_18_RN_4_RD_24_0.png","C_Dist_500_LN_15_LD_18_RN_5_RD_15_0.png","C_Dist_500_LN_15_LD_20_RN_1_RD_4_0.png","C_Dist_500_LN_18_LD_27_RN_1_RD_6_0.png","C_Dist_500_LN_20_LD_24_RN_1_RD_3_0.png","C_Dist_500_LN_20_LD_24_RN_3_RD_9_0.png","C_Dist_500_LN_20_LD_24_RN_7_RD_21_0.png","C_Dist_500_LN_20_LD_28_RN_3_RD_14_0.png","C_Dist_500_LN_21_LD_28_RN_6_RD_24_0.png","C_Dist_500_LN_22_LD_28_RN_2_RD_7_0.png","C_Dist_500_LN_25_LD_30_RN_9_RD_27_0.png","C_Dist_500_LN_4_LD_6_RN_1_RD_6_0.png","C_Dist_500_LN_5_LD_6_RN_2_RD_6_0.png","C_Dist_500_LN_6_LD_9_RN_1_RD_6_0.png","C_Dist_500_LN_7_LD_10_RN_1_RD_5_0.png","C_Dist_500_LN_8_LD_12_RN_1_RD_6_0.png","C_Dist_500_LN_8_LD_12_RN_4_RD_24_0.png"],["C_Dist_500_LN_1_LD_4_RN_12_RD_16_1.png","C_Dist_500_LN_1_LD_4_RN_9_RD_12_1.png","C_Dist_500_LN_1_LD_9_RN_11_RD_18_1.png","C_Dist_500_LN_10_LD_24_RN_22_RD_24_1.png","C_Dist_500_LN_2_LD_12_RN_10_RD_15_1.png","C_Dist_500_LN_2_LD_12_RN_12_RD_18_1.png","C_Dist_500_LN_2_LD_12_RN_4_RD_6_1.png","C_Dist_500_LN_2_LD_24_RN_7_RD_12_1.png","C_Dist_500_LN_2_LD_5_RN_18_RD_20_1.png","C_Dist_500_LN_2_LD_5_RN_9_RD_10_1.png","C_Dist_500_LN_2_LD_8_RN_12_RD_16_1.png","C_Dist_500_LN_2_LD_8_RN_21_RD_28_1.png","C_Dist_500_LN_3_LD_10_RN_4_RD_5_1.png","C_Dist_500_LN_3_LD_12_RN_15_RD_20_1.png","C_Dist_500_LN_3_LD_30_RN_6_RD_10_1.png","C_Dist_500_LN_3_LD_8_RN_14_RD_16_1.png","C_Dist_500_LN_4_LD_16_RN_15_RD_20_1.png","C_Dist_500_LN_4_LD_24_RN_12_RD_18_1.png","C_Dist_500_LN_5_LD_14_RN_6_RD_7_1.png","C_Dist_500_LN_7_LD_21_RN_20_RD_24_1.png","C_Dist_500_LN_7_LD_28_RN_12_RD_16_1.png","C_Dist_500_LN_7_LD_28_RN_9_RD_12_1.png","C_Dist_500_LN_9_LD_27_RN_20_RD_24_1.png"]],"dist500_I":[["I_Dist_500_LN_2_LD_3_RN_4_RD_24_0.png","I_Dist_500_LN_5_LD_6_RN_6_RD_18_0.png","I_Dist_500_LN_7_LD_8_RN_9_RD_24_0.png"],["I_Dist_500_LN_7_LD_21_RN_5_RD_6_1.png"]],"dist500_S":[["E_Dist_500_LN_6_LD_8_RN_6_RD_24_0.png"],["E_Dist_500_LN_2_LD_12_RN_2_RD_3_1.png","E_Dist_500_LN_6_LD_24_RN_6_RD_8_1.png"]]}},{"start_time":1551794023800,"click_time":1551794026020,"finger_time":1551794025360,"fix_duration":1179.1135396571012,"trial":1,"RT":1560,"MT":660,"sideResp":1,"stimulus":[],"xmouse":[789,789,789,789,789,789,789,789,789,789,789,789,789,789,789,789,789,789,789,789,789,789,789,789,789,789,789,789,789,789,789,789,789,789,789,789,789,789,789,789,789,789,789,789,789,789,789,789,789,789,789,789,789,789,789,789,789,789,789,789,789,789,789,789,789,789,789,789,789,789,789,788,788,788,788,788,788,787,783,772,771,771,771,771,770,769,768,768,768,763,752,740,726,715,711,711,711,711,710,705,704,704,703,699,681,663,640,620,585,546,532,519],"ymouse":[500,500,500,500,500,500,500,500,500,500,500,500,500,500,500,500,500,500,500,500,500,500,500,500,500,500,500,500,500,500,500,500,500,500,500,500,500,500,500,500,500,500,500,500,500,500,500,500,500,500,500,500,500,500,500,500,500,500,500,500,500,500,500,500,500,500,500,500,500,500,500,499,499,499,499,499,498,494,465,433,429,429,429,429,430,438,439,439,439,435,418,399,378,360,345,342,340,337,331,316,314,313,310,301,268,243,210,181,132,65,41,23],"timestamp_mouse":[2,20,53,60,79,101,119,139,161,179,199,220,239,261,281,301,320,340,359,381,401,420,440,461,480,500,520,540,561,580,600,621,641,659,681,701,721,740,760,779,800,820,840,859,880,901,921,940,959,981,1001,1020,1041,1061,1079,1100,1120,1141,1159,1181,1199,1219,1241,1259,1280,1300,1320,1340,1359,1379,1399,1421,1440,1461,1480,1501,1520,1541,1560,1580,1600,1620,1640,1660,1679,1699,1721,1741,1760,1780,1800,1820,1840,1860,1879,1899,1919,1941,1960,1980,2000,2020,2039,2060,2080,2099,2120,2140,2160,2179,2199,2219],"xSR":741.5,"ySR":469.95,"xT1":424.9,"yT1":0,"xT2":1058.1,"yT2":0,"toosoon":0,"cond_shown":"Incongruent","ratio_trial":100,"L_num":9,"L_den":10,"R_num":20,"R_den":25,"correct_side":1,"subjID":"Juanestebancabastorres31","gender":"0","school":"6","age":"12"},{"start_time":1551794028698,"click_time":1551794030600,"finger_time":1551794030239,"fix_duration":1456.8912125863258,"trial":2,"RT":1541,"MT":361,"sideResp":1,"stimulus":[],"xmouse":[795,795,795,795,795,795,795,795,795,795,795,795,795,795,795,795,795,795,795,795,795,795,795,795,795,795,795,795,795,795,795,795,795,795,795,795,795,795,795,795,795,795,795,795,795,795,795,795,795,795,795,795,795,795,795,795,795,795,795,795,795,795,795,795,795,795,795,795,795,795,795,795,795,795,795,794,788,782,772,753,693,655,643,638,635,632,625,613,601,591,576,572,568,556,537,511],"ymouse":[490,490,490,490,490,490,490,490,490,490,490,490,490,490,490,490,490,490,490,490,490,490,490,490,490,490,490,490,490,490,490,490,490,490,490,490,490,490,490,490,490,490,490,490,490,490,490,490,490,490,490,490,490,490,490,490,490,490,490,490,490,490,490,490,490,490,490,490,490,490,490,490,490,490,490,486,473,456,423,368,243,185,168,161,154,151,146,140,134,130,125,124,121,109,95,72],"timestamp_mouse":[12,37,41,63,82,102,123,142,163,181,202,222,242,263,282,302,323,341,362,382,401,421,442,463,481,503,523,542,563,582,601,621,643,663,682,703,722,743,762,781,802,823,843,863,881,902,923,941,962,981,1001,1023,1042,1062,1081,1102,1122,1141,1162,1181,1202,1223,1243,1263,1282,1301,1322,1342,1363,1382,1401,1422,1442,1461,1482,1502,1522,1541,1561,1581,1602,1622,1642,1662,1683,1701,1722,1742,1762,1781,1803,1822,1842,1863,1882,1902],"xSR":741.5,"ySR":469.95,"xT1":424.9,"yT1":0,"xT2":1058.1,"yT2":0,"toosoon":0,"cond_shown":"Incongruent","ratio_trial":200,"L_num":6,"L_den":20,"R_num":3,"R_den":6,"correct_side":2,"subjID":"Juanestebancabastorres31","gender":"0","school":"6","age":"12"},{"start_time":1551794034333,"click_time":1551794038860,"finger_time":1551794036142,"fix_duration":410.4978681449929,"trial":3,"RT":1809,"MT":2718,"sideResp":2,"stimulus":[],"xmouse":[749,749,749,749,749,749,749,749,749,749,749,749,749,749,749,749,749,749,749,749,749,749,749,749,749,749,749,749,749,749,749,749,749,749,749,749,749,749,749,749,749,749,749,749,749,749,749,749,749,749,749,749,749,749,749,749,749,749,749,749,749,749,749,749,749,749,749,749,749,749,749,749,749,749,749,749,749,749,749,749,749,749,749,749,749,749,749,749,758,768,780,792,804,827,837,843,850,865,887,894,897,903,907,919,923,925,925,925,925,925,925,925,925,925,925,925,925,925,925,925,925,926,929,931,931,931,931,931,932,936,940,942,947,952,952,952,952,955,961,965,969,979,988,1000,1001,1001,1002,1002,1002,1002,1002,1003,1003,1004,1006,1009,1011,1011,1012,1014,1015,1016,1018,1022,1024,1027,1028,1030,1031,1033,1033,1033,1033,1034,1037,1041,1044,1048,1052,1053,1054,1054,1054,1054,1054,1054,1054,1054,1054,1055,1055,1056,1056,1057,1058,1058,1058,1059,1059,1059,1059,1059,1059,1059,1059,1060,1060,1060,1061,1061,1061,1061,1061,1061,1061,1061,1061,1061,1061,1061,1061,1061,1061,1061,1061,1062,1062],"ymouse":[518,518,518,518,518,518,518,518,518,518,518,518,518,518,518,518,518,518,518,518,518,518,518,518,518,518,518,518,518,518,518,518,518,518,518,518,518,518,518,518,518,518,518,518,518,518,518,518,518,518,518,518,518,518,518,518,518,518,518,518,518,518,518,518,518,518,518,518,518,518,518,518,518,518,518,518,518,518,518,518,518,518,518,518,518,518,518,518,490,475,459,441,421,364,333,309,288,261,238,228,222,213,208,199,196,196,196,196,196,196,196,196,196,196,196,196,196,196,196,196,196,195,194,193,193,193,193,193,193,192,190,189,188,185,185,185,185,183,180,178,175,169,166,161,160,160,160,160,160,160,160,159,159,158,156,152,150,149,147,145,143,141,140,135,132,129,128,127,126,125,125,125,125,124,124,123,122,119,117,116,116,116,116,116,116,116,116,116,116,115,114,113,113,112,111,111,109,109,109,107,107,107,107,107,106,105,105,104,103,103,103,103,103,103,103,103,103,103,103,103,103,103,103,103,102,100,99],"timestamp_mouse":[9,38,48,67,87,107,127,148,167,187,208,228,248,268,287,307,327,347,368,389,407,427,447,467,488,507,527,547,567,587,607,628,648,667,687,707,727,747,767,788,808,827,847,867,887,908,928,948,967,987,1008,1028,1049,1067,1087,1107,1128,1148,1167,1187,1209,1228,1247,1269,1287,1308,1327,1348,1368,1389,1408,1428,1448,1469,1488,1508,1527,1548,1567,1587,1608,1627,1648,1667,1687,1707,1728,1748,1767,1788,1809,1828,1848,1867,1888,1908,1927,1947,1968,1987,2007,2028,2047,2067,2087,2107,2127,2149,2167,2188,2207,2228,2248,2268,2287,2307,2327,2348,2368,2387,2407,2427,2448,2468,2488,2509,2527,2547,2567,2587,2607,2628,2648,2667,2688,2707,2728,2748,2767,2787,2808,2828,2847,2868,2887,2907,2927,2947,2967,2988,3008,3027,3048,3067,3087,3112,3127,3148,3167,3188,3208,3228,3248,3267,3288,3308,3327,3348,3368,3388,3408,3427,3448,3467,3488,3508,3527,3547,3567,3587,3607,3627,3648,3667,3688,3707,3727,3747,3768,3787,3807,3827,3848,3867,3887,3907,3927,3948,3967,3988,4008,4028,4048,4068,4087,4108,4128,4147,4167,4187,4208,4227,4247,4267,4288,4309,4327,4348,4368,4387,4408,4427,4447,4469,4487,4507,4527],"xSR":741.5,"ySR":469.95,"xT1":424.9,"yT1":0,"xT2":1058.1,"yT2":0,"toosoon":0,"cond_shown":"Congruent","ratio_trial":300,"L_num":5,"L_den":25,"R_num":7,"R_den":14,"correct_side":2,"subjID":"Juanestebancabastorres31","gender":"0","school":"6","age":"12"},{"start_time":1551794043789,"click_time":1551794045780,"finger_time":1551794045420,"fix_duration":1166.4981500339345,"trial":4,"RT":1631,"MT":360,"sideResp":2,"stimulus":[],"xmouse":[792,792,792,792,792,792,792,792,792,792,792,792,792,792,792,792,792,792,792,792,792,792,792,792,792,792,792,792,792,792,792,792,792,792,792,792,792,792,792,792,792,792,792,792,792,792,792,792,792,792,792,792,792,792,792,792,792,792,792,792,792,792,792,792,792,792,792,792,792,792,792,792,792,792,792,792,792,792,792,792,792,850,904,940,955,964,977,985,992,997,1003,1011,1015,1018,1021,1031,1066,1086,1103,1106],"ymouse":[513,513,513,513,513,513,513,513,513,513,513,513,513,513,513,513,513,513,513,513,513,513,513,513,513,513,513,513,513,513,513,513,513,513,513,513,513,513,513,513,513,513,513,513,513,513,513,513,513,513,513,513,513,513,513,513,513,513,513,513,513,513,513,513,513,513,513,513,513,513,513,513,513,513,513,513,513,513,513,513,512,394,325,290,276,263,235,220,209,196,185,165,158,154,150,144,124,113,100,97],"timestamp_mouse":[12,31,52,73,92,111,131,151,171,191,212,231,252,272,291,312,331,352,371,391,411,432,451,471,491,511,531,551,572,591,611,631,651,671,691,712,731,751,772,791,811,831,852,873,892,912,931,951,972,992,1012,1031,1051,1072,1091,1113,1131,1152,1172,1191,1213,1231,1252,1272,1292,1312,1331,1353,1371,1392,1411,1431,1452,1472,1491,1511,1531,1551,1572,1591,1612,1631,1651,1671,1692,1711,1731,1751,1772,1791,1811,1832,1852,1873,1892,1911,1931,1952,1972,1991],"xSR":741.5,"ySR":469.95,"xT1":424.9,"yT1":0,"xT2":1058.1,"yT2":0,"toosoon":0,"cond_shown":"Incongruent","ratio_trial":300,"L_num":4,"L_den":5,"R_num":8,"R_den":16,"correct_side":1,"subjID":"Juanestebancabastorres31","gender":"0","school":"6","age":"12"},{"start_time":1551794049510,"click_time":1551794051261,"finger_time":1551794050921,"fix_duration":1387.0096972737308,"trial":5,"RT":1411,"MT":340,"sideResp":1,"stimulus":[],"xmouse":[781,781,781,781,781,781,781,781,781,781,781,781,781,781,781,781,781,781,781,781,781,781,781,781,781,781,781,781,781,781,781,781,781,781,781,781,781,781,781,781,781,781,781,781,781,781,781,781,781,781,781,781,781,781,781,781,774,770,766,766,766,766,766,766,766,766,766,766,766,765,757,748,738,726,709,668,631,597,561,527,507,485,478,471,463,461,469,480],"ymouse":[478,478,478,478,478,478,478,478,478,478,478,478,478,478,478,478,478,478,478,478,478,478,478,478,478,478,478,478,478,478,478,478,478,478,478,478,478,478,478,478,478,478,478,478,478,478,478,478,478,478,478,478,478,478,478,477,478,478,480,480,480,480,480,480,480,480,480,480,480,480,441,421,398,379,360,327,307,288,270,253,240,223,212,199,182,141,113,77],"timestamp_mouse":[10,32,50,71,90,111,130,151,170,191,211,230,250,271,291,310,331,351,371,390,410,431,450,470,490,511,531,550,570,591,611,630,651,670,691,710,731,750,770,790,811,830,850,872,890,910,931,950,971,990,1010,1030,1050,1071,1090,1111,1131,1150,1170,1190,1210,1231,1250,1271,1290,1311,1330,1350,1371,1390,1411,1430,1450,1470,1490,1511,1530,1551,1571,1590,1611,1630,1651,1670,1690,1712,1731,1751],"xSR":741.5,"ySR":469.95,"xT1":424.9,"yT1":0,"xT2":1058.1,"yT2":0,"toosoon":0,"cond_shown":"Incongruent","ratio_trial":100,"L_num":3,"L_den":6,"R_num":4,"R_den":10,"correct_side":1,"subjID":"Juanestebancabastorres31","gender":"0","school":"6","age":"12"},{"start_time":1551794053147,"click_time":1551794054880,"finger_time":1551794054141,"fix_duration":364.95907645581735,"trial":6,"RT":994,"MT":739,"sideResp":1,"stimulus":[],"xmouse":[768,768,770,770,770,770,770,770,770,770,770,770,770,770,770,770,770,770,770,770,770,770,770,770,770,770,770,770,770,770,770,770,770,770,770,770,770,770,770,765,763,763,763,763,763,773,774,774,773,770,770,777,786,787,776,766,753,725,706,706,706,706,706,706,706,706,632,624,617,611,606,599,589,579,574,574,574,574,573,565,556,554,554,554,550,541,524],"ymouse":[511,511,511,511,511,511,511,511,511,511,511,511,511,511,511,511,511,511,511,511,511,511,511,511,511,511,511,511,511,511,511,511,511,511,511,511,511,511,511,514,515,515,515,515,510,486,483,477,475,463,444,415,376,318,176,116,72,22,4,4,4,4,4,4,4,4,33,49,60,68,71,75,79,83,85,85,85,85,85,78,75,74,74,74,74,74,74],"timestamp_mouse":[30,34,53,73,94,113,134,154,173,194,213,233,254,273,294,313,333,354,373,393,413,435,454,475,493,513,535,554,573,593,613,633,653,675,694,713,733,754,774,793,813,833,853,873,894,913,933,953,973,994,1013,1034,1053,1074,1093,1113,1133,1153,1175,1194,1213,1233,1253,1273,1293,1314,1334,1354,1373,1393,1413,1434,1454,1473,1494,1514,1533,1554,1573,1593,1613,1635,1654,1674,1693,1714,1733],"xSR":741.5,"ySR":469.95,"xT1":424.9,"yT1":0,"xT2":1058.1,"yT2":0,"toosoon":0,"cond_shown":"Incongruent","ratio_trial":300,"L_num":4,"L_den":5,"R_num":8,"R_den":16,"correct_side":1,"subjID":"Juanestebancabastorres31","gender":"0","school":"6","age":"12"},{"start_time":1551794056309,"click_time":1551794057880,"finger_time":1551794057441,"fix_duration":368.69947710600223,"trial":7,"RT":1132,"MT":439,"sideResp":1,"stimulus":[],"xmouse":[783,783,783,783,783,783,783,783,783,782,782,782,782,782,782,782,781,775,772,767,765,765,765,765,765,765,765,765,765,765,765,765,765,765,765,765,765,765,764,764,764,764,764,764,764,764,763,755,750,747,746,746,745,745,743,742,741,740,740,739,737,727,720,710,699,684,618,546,513,496,492,491,491,489,484,479,478,483,486],"ymouse":[494,494,494,494,494,494,494,496,497,498,499,501,501,501,501,501,501,501,498,494,492,491,489,488,488,488,488,488,488,488,488,488,488,488,488,488,488,488,487,487,487,487,487,487,487,487,487,487,485,484,483,482,479,478,478,477,477,476,476,475,470,452,441,425,409,387,305,244,221,210,208,208,208,204,185,164,136,111,95],"timestamp_mouse":[12,43,51,72,92,111,131,152,171,192,212,232,251,271,291,311,331,352,372,391,411,431,452,472,492,511,531,552,571,592,611,633,652,671,692,712,732,752,771,791,812,831,851,872,891,911,931,951,971,991,1012,1032,1052,1072,1091,1111,1132,1151,1171,1192,1212,1233,1251,1273,1291,1311,1332,1351,1371,1392,1411,1431,1452,1471,1492,1511,1532,1551,1571],"xSR":741.5,"ySR":469.95,"xT1":424.9,"yT1":0,"xT2":1058.1,"yT2":0,"toosoon":0,"cond_shown":"Congruent","ratio_trial":200,"L_num":8,"L_den":15,"R_num":7,"R_den":21,"correct_side":1,"subjID":"Juanestebancabastorres31","gender":"0","school":"6","age":"12"},{"start_time":1551794059325,"click_time":1551794061260,"finger_time":1551794060741,"fix_duration":403.9044261167226,"trial":8,"RT":1416,"MT":519,"sideResp":1,"stimulus":[],"xmouse":[768,767,767,767,767,767,767,767,767,767,767,767,767,767,767,767,767,765,763,762,761,761,761,761,761,761,761,761,761,761,761,761,761,760,759,758,758,758,758,758,758,758,758,758,758,758,758,758,758,758,758,758,758,758,758,758,758,758,758,758,758,758,758,756,756,756,756,756,751,746,739,721,711,701,691,664,621,601,586,576,569,547,530,506,485,468,468,468,468,468,467,467,468,472,477,479,479],"ymouse":[524,524,524,524,524,524,524,524,524,524,524,524,524,524,524,524,524,524,523,522,522,522,522,522,522,522,522,522,522,522,522,522,522,522,522,522,522,522,522,522,522,522,522,522,522,522,522,522,522,522,522,522,522,522,522,522,522,522,522,522,522,522,522,523,523,523,523,523,521,517,511,494,477,450,417,361,291,265,247,237,231,206,185,163,147,135,135,135,135,135,135,134,131,125,113,104,90],"timestamp_mouse":[18,48,55,75,95,115,135,155,175,196,215,235,255,276,295,315,335,355,375,395,415,435,455,475,496,516,535,555,576,595,616,636,655,675,696,715,736,755,776,796,815,836,855,876,896,916,935,955,975,995,1015,1035,1055,1075,1095,1115,1135,1156,1176,1195,1215,1236,1255,1275,1295,1317,1335,1356,1376,1397,1416,1435,1456,1476,1495,1516,1535,1555,1575,1595,1615,1635,1657,1675,1695,1716,1735,1755,1775,1796,1816,1835,1856,1875,1897,1915,1935],"xSR":741.5,"ySR":469.95,"xT1":424.9,"yT1":0,"xT2":1058.1,"yT2":0,"toosoon":0,"cond_shown":"Congruent","ratio_trial":200,"L_num":4,"L_den":10,"R_num":3,"R_den":15,"correct_side":1,"subjID":"Juanestebancabastorres31","gender":"0","school":"6","age":"12"},{"start_time":1551794067412,"click_time":1551794068980,"finger_time":1551794068561,"fix_duration":250,"trial":9,"RT":1149,"MT":419,"sideResp":2,"stimulus":[],"xmouse":[827,822,820,819,819,819,819,819,819,818,818,818,818,818,818,818,818,818,818,818,818,818,818,818,818,818,818,818,818,818,818,818,818,818,818,818,819,822,823,824,824,824,824,824,824,824,824,824,824,824,824,824,824,824,824,830,836,848,866,883,905,923,935,963,970,979,989,998,1009,1009,1009,1009,1012,1022,1026,1032,1038,1045,1090],"ymouse":[527,524,522,522,522,522,522,522,522,522,522,522,522,522,522,522,522,522,522,522,522,522,522,522,522,522,522,522,522,522,522,522,522,522,522,522,518,513,511,510,509,508,508,508,508,508,508,508,508,508,508,508,508,508,508,506,504,495,471,458,442,428,412,362,334,302,266,233,163,141,122,107,95,76,69,60,54,51,56],"timestamp_mouse":[9,28,51,68,88,109,129,148,168,189,208,228,249,268,288,308,329,349,368,388,408,429,449,468,489,509,528,548,569,588,609,629,649,672,689,709,729,749,769,788,809,829,848,869,889,908,928,949,968,988,1009,1029,1048,1068,1089,1108,1129,1148,1169,1188,1210,1228,1249,1268,1288,1309,1328,1348,1368,1388,1408,1428,1449,1468,1489,1509,1529,1549,1568],"xSR":741.5,"ySR":469.95,"xT1":424.9,"yT1":0,"xT2":1058.1,"yT2":0,"toosoon":0,"cond_shown":"Incongruent","ratio_trial":100,"L_num":12,"L_den":24,"R_num":9,"R_den":15,"correct_side":2,"subjID":"Juanestebancabastorres31","gender":"0","school":"6","age":"12"},{"start_time":1551794070036,"click_time":1551794071260,"finger_time":1551794070760,"fix_duration":254.0810822291365,"trial":10,"RT":724,"MT":500,"sideResp":2,"stimulus":[],"xmouse":[785,785,783,773,773,773,779,788,788,788,788,790,796,798,800,800,800,800,801,807,811,814,817,817,817,819,819,824,825,825,825,825,825,825,828,834,843,862,868,876,881,883,888,894,897,899,902,902,903,903,904,905,909,912,918,934,947,983,1007,1032,1059,1083],"ymouse":[538,538,541,546,546,546,543,532,532,532,532,532,538,540,540,540,540,540,540,538,532,527,518,514,512,508,505,491,488,483,481,481,481,481,478,472,464,446,435,426,418,415,408,403,400,399,397,397,396,395,394,392,387,384,376,354,335,280,235,180,123,81],"timestamp_mouse":[9,24,45,65,85,105,125,144,164,184,205,225,244,265,285,306,324,345,365,385,404,425,444,464,485,504,524,544,565,584,605,625,644,664,684,704,724,744,764,785,805,825,845,864,885,904,925,945,965,985,1004,1025,1044,1064,1085,1105,1125,1144,1164,1184,1205,1224],"xSR":741.5,"ySR":469.95,"xT1":424.9,"yT1":0,"xT2":1058.1,"yT2":0,"toosoon":0,"cond_shown":"Incongruent","ratio_trial":200,"L_num":4,"L_den":30,"R_num":1,"R_den":3,"correct_side":2,"subjID":"Juanestebancabastorres31","gender":"0","school":"6","age":"12"},{"start_time":1551794072976,"click_time":1551794074300,"finger_time":1551794074001,"fix_duration":675.6009396506615,"trial":11,"RT":1025,"MT":299,"sideResp":1,"stimulus":[],"xmouse":[818,818,818,818,818,818,818,818,818,818,818,818,818,818,818,818,818,818,818,818,818,818,818,818,818,818,818,818,818,818,818,818,818,818,818,818,818,818,818,818,818,818,818,818,818,818,818,818,817,813,806,789,780,771,760,750,704,681,661,638,592,576,562,548,539,525,519],"ymouse":[512,512,512,512,512,512,512,512,512,512,512,512,512,512,512,510,501,501,501,501,501,501,501,501,501,501,501,501,501,501,501,501,501,501,501,501,501,501,501,501,501,501,501,501,501,501,501,501,500,491,476,452,441,433,421,406,329,298,274,251,195,169,143,120,103,77,68],"timestamp_mouse":[10,38,45,64,84,104,125,144,164,185,204,224,245,266,284,304,324,345,365,384,404,424,444,465,485,504,524,544,564,585,605,624,645,666,684,705,724,744,764,784,804,824,844,865,885,904,924,944,965,984,1004,1025,1045,1064,1085,1105,1124,1145,1164,1185,1204,1224,1244,1265,1284,1305,1324],"xSR":741.5,"ySR":469.95,"xT1":424.9,"yT1":0,"xT2":1058.1,"yT2":0,"toosoon":0,"cond_shown":"Congruent","ratio_trial":100,"L_num":6,"L_den":20,"R_num":5,"R_den":25,"correct_side":1,"subjID":"Juanestebancabastorres31","gender":"0","school":"6","age":"12"},{"start_time":1551794076999,"click_time":1551794078682,"finger_time":1551794078181,"fix_duration":1297.3670699742565,"trial":12,"RT":1182,"MT":501,"sideResp":2,"stimulus":[],"xmouse":[769,769,769,769,769,769,769,769,769,769,769,769,769,769,769,769,769,769,769,769,769,769,769,769,769,769,769,769,769,769,769,769,769,769,769,769,769,769,769,769,769,769,769,769,769,769,769,769,769,769,769,769,769,769,769,769,769,779,788,808,855,869,875,880,885,893,899,904,914,927,954,963,971,975,988,1008,1015,1021,1026,1029,1034,1039,1043,1053,1059],"ymouse":[500,500,500,500,500,500,500,500,500,500,500,500,500,500,500,500,500,500,500,500,500,500,500,500,500,500,500,500,500,500,500,500,500,500,500,500,500,500,500,500,500,500,500,500,500,500,500,500,500,500,500,500,500,500,500,500,500,485,472,437,373,354,343,335,329,319,311,302,286,270,248,242,235,232,212,178,165,154,142,132,113,105,98,87,81],"timestamp_mouse":[8,31,41,63,81,102,122,142,161,181,202,221,241,261,282,301,321,341,361,381,401,421,441,462,481,501,521,541,561,582,602,621,642,662,681,702,721,741,762,782,802,821,841,862,882,902,921,941,961,982,1002,1022,1041,1061,1081,1102,1121,1142,1162,1182,1202,1222,1241,1262,1282,1302,1321,1341,1361,1382,1401,1421,1442,1461,1482,1501,1521,1541,1562,1581,1601,1622,1642,1662,1682],"xSR":741.5,"ySR":469.95,"xT1":424.9,"yT1":0,"xT2":1058.1,"yT2":0,"toosoon":0,"cond_shown":"Congruent","ratio_trial":100,"L_num":11,"L_den":22,"R_num":6,"R_den":15,"correct_side":1,"subjID":"Juanestebancabastorres31","gender":"0","school":"6","age":"12"},{"start_time":1551794083236,"click_time":1551794084480,"finger_time":1551794084081,"fix_duration":373.93490734713697,"trial":13,"RT":845,"MT":399,"sideResp":1,"stimulus":[],"xmouse":[762,762,762,762,762,762,762,762,762,762,762,762,762,762,762,762,762,762,762,762,762,760,760,760,760,760,760,760,760,760,760,760,760,760,760,760,760,760,760,759,756,747,730,678,653,638,632,631,627,625,624,624,624,624,624,623,621,614,586,576,559,542,524],"ymouse":[505,505,505,505,505,505,505,505,505,505,505,505,505,505,505,505,505,505,505,505,505,506,506,506,506,506,506,506,506,506,506,506,506,506,506,506,506,506,506,506,503,478,431,297,241,208,189,178,166,162,162,162,162,162,162,161,160,156,132,125,114,104,94],"timestamp_mouse":[9,33,45,65,85,104,124,144,164,185,204,224,244,264,286,304,324,345,364,384,404,425,444,464,485,505,524,544,564,584,604,625,644,664,684,705,724,744,764,784,804,824,844,866,884,905,924,944,965,984,1005,1025,1044,1064,1085,1104,1124,1145,1165,1184,1204,1224,1244],"xSR":741.5,"ySR":469.95,"xT1":424.9,"yT1":0,"xT2":1058.1,"yT2":0,"toosoon":0,"cond_shown":"Incongruent","ratio_trial":300,"L_num":4,"L_den":5,"R_num":6,"R_den":12,"correct_side":1,"subjID":"Juanestebancabastorres31","gender":"0","school":"6","age":"12"},{"start_time":1551794085813,"click_time":1551794087520,"finger_time":1551794087381,"fix_duration":250,"trial":14,"RT":1568,"MT":139,"sideResp":1,"stimulus":[],"xmouse":[812,812,812,812,812,812,812,812,812,812,812,812,812,812,812,812,812,812,812,812,812,812,812,812,812,812,812,812,812,812,812,812,812,812,812,812,812,812,812,812,812,812,812,812,812,812,812,812,812,812,812,812,812,812,812,812,812,812,812,812,812,812,812,812,812,811,811,811,811,811,811,811,810,808,806,793,786,777,751,725,636,590,544,519,501,485],"ymouse":[561,561,561,561,561,561,561,561,561,561,561,561,561,561,561,561,561,561,561,561,561,561,561,561,561,561,561,561,561,561,561,561,561,561,561,561,561,561,561,561,561,561,561,561,561,561,561,561,561,561,561,561,561,561,561,561,561,561,561,561,561,561,561,561,561,561,561,561,561,561,561,561,561,557,553,525,504,479,417,368,247,198,156,133,115,98],"timestamp_mouse":[8,38,47,67,87,108,128,147,167,187,207,227,248,268,287,308,328,347,367,387,407,428,447,467,487,508,527,547,567,588,607,627,647,667,687,708,728,747,767,787,807,827,847,868,888,907,927,947,967,987,1008,1028,1047,1068,1087,1108,1129,1148,1168,1187,1208,1228,1247,1267,1289,1308,1327,1347,1368,1388,1408,1427,1447,1468,1487,1507,1527,1547,1568,1589,1607,1627,1648,1667,1687,1707],"xSR":741.5,"ySR":469.95,"xT1":424.9,"yT1":0,"xT2":1058.1,"yT2":0,"toosoon":0,"cond_shown":"Congruent","ratio_trial":100,"L_num":1,"L_den":2,"R_num":3,"R_den":5,"correct_side":2,"subjID":"Juanestebancabastorres31","gender":"0","school":"6","age":"12"},{"start_time":1551794089235,"click_time":1551794090660,"finger_time":1551794090180,"fix_duration":633.7826449804624,"trial":15,"RT":945,"MT":480,"sideResp":2,"stimulus":[],"xmouse":[805,805,805,805,805,805,805,805,805,805,805,803,802,800,800,800,800,799,799,799,799,799,799,799,799,799,799,799,799,799,799,799,799,799,799,799,799,799,799,799,799,799,799,798,798,798,798,802,807,824,835,848,859,869,889,904,911,920,929,938,945,949,955,962,983,998,1007,1015,1021,1043,1058,1076],"ymouse":[534,534,534,534,534,534,534,534,534,534,534,534,534,534,534,534,534,533,533,533,533,533,533,533,532,532,532,532,532,532,532,532,532,532,532,532,532,532,532,532,532,532,532,531,514,492,485,464,450,421,404,383,362,343,309,281,261,242,221,189,177,169,161,149,120,103,93,84,79,69,65,63],"timestamp_mouse":[14,37,45,65,85,105,126,145,166,186,206,225,245,267,285,306,325,346,365,385,406,426,446,465,485,505,526,546,565,587,606,625,646,665,685,706,725,746,767,786,805,826,846,866,885,906,926,945,965,986,1005,1027,1045,1065,1085,1105,1125,1146,1166,1186,1206,1226,1246,1265,1285,1305,1325,1346,1365,1385,1406,1425],"xSR":741.5,"ySR":469.95,"xT1":424.9,"yT1":0,"xT2":1058.1,"yT2":0,"toosoon":0,"cond_shown":"Incongruent","ratio_trial":200,"L_num":14,"L_den":30,"R_num":6,"R_den":9,"correct_side":2,"subjID":"Juanestebancabastorres31","gender":"0","school":"6","age":"12"},{"start_time":1551794092031,"click_time":1551794093461,"finger_time":1551794092800,"fix_duration":250,"trial":16,"RT":769,"MT":661,"sideResp":2,"stimulus":[],"xmouse":[809,809,809,809,809,809,809,809,809,809,809,809,809,809,809,809,809,809,809,809,809,809,809,809,809,809,809,809,809,809,809,809,810,815,820,825,830,840,862,938,964,975,982,984,985,988,990,994,998,1001,1006,1007,1012,1020,1036,1101,1124,1142,1157,1174,1178,1184,1189,1194,1197,1197,1197,1196,1195,1185,1160,1156],"ymouse":[523,523,523,523,523,523,523,523,523,523,523,523,523,523,523,523,523,523,523,523,523,523,523,523,523,523,523,523,523,523,523,522,521,519,515,510,506,496,470,368,332,305,279,255,226,166,152,141,133,128,124,124,124,124,124,124,124,121,115,104,99,86,70,57,51,49,49,49,49,55,66,68],"timestamp_mouse":[10,30,49,69,89,109,129,149,170,190,209,229,250,270,289,309,330,349,369,390,410,429,449,470,490,509,530,551,569,589,609,630,649,669,690,710,729,750,769,791,810,829,850,869,890,909,929,949,970,989,1009,1029,1049,1069,1090,1109,1130,1149,1169,1190,1209,1229,1249,1269,1291,1309,1329,1350,1370,1389,1409,1430],"xSR":741.5,"ySR":469.95,"xT1":424.9,"yT1":0,"xT2":1058.1,"yT2":0,"toosoon":0,"cond_shown":"Incongruent","ratio_trial":100,"L_num":10,"L_den":25,"R_num":8,"R_den":16,"correct_side":2,"subjID":"Juanestebancabastorres31","gender":"0","school":"6","age":"12"},{"start_time":1551794100916,"click_time":1551794102420,"finger_time":1551794102040,"fix_duration":1455.4986068650735,"trial":17,"RT":1124,"MT":380,"sideResp":2,"stimulus":[],"xmouse":[771,771,771,771,771,771,771,771,771,771,771,771,771,771,771,771,771,771,771,771,771,771,771,771,771,771,771,771,771,771,771,771,771,771,771,771,771,771,771,771,771,771,771,771,771,771,771,771,771,771,771,771,771,771,780,790,816,922,974,1030,1076,1127,1136,1141,1147,1151,1157,1167,1167,1167,1167,1167,1162,1159,1152,1130],"ymouse":[531,531,531,531,531,531,531,531,531,531,531,531,531,531,531,531,531,531,531,531,531,531,531,531,531,531,531,531,531,531,531,531,531,531,531,531,531,531,531,531,531,531,531,531,531,531,531,531,531,531,531,531,531,531,516,501,458,326,270,224,192,157,148,142,137,132,126,116,115,115,115,115,114,114,110,92],"timestamp_mouse":[10,23,43,65,84,105,124,143,165,183,203,225,243,265,284,303,325,344,365,384,403,424,444,465,485,503,524,544,564,585,603,625,644,663,683,705,723,743,764,784,804,823,845,864,883,903,925,944,964,983,1003,1025,1044,1063,1084,1105,1124,1143,1165,1184,1204,1225,1244,1264,1283,1304,1324,1345,1364,1384,1404,1424,1444,1465,1485,1504],"xSR":741.5,"ySR":469.95,"xT1":424.9,"yT1":0,"xT2":1058.1,"yT2":0,"toosoon":0,"cond_shown":"Congruent","ratio_trial":100,"L_num":6,"L_den":20,"R_num":5,"R_den":25,"correct_side":1,"subjID":"Juanestebancabastorres31","gender":"0","school":"6","age":"12"},{"start_time":1551794103740,"click_time":1551794105740,"finger_time":1551794105241,"fix_duration":479.8963796500446,"trial":18,"RT":1501,"MT":499,"sideResp":2,"stimulus":[],"xmouse":[781,781,781,781,781,781,781,781,781,781,781,781,781,781,781,781,781,781,781,781,781,781,781,781,781,781,781,781,781,781,781,781,781,781,781,781,781,781,781,781,781,781,781,781,781,781,781,781,781,781,781,781,781,781,781,781,781,781,781,781,781,781,781,781,781,781,781,781,781,781,781,781,781,786,794,844,932,966,1001,1022,1036,1046,1051,1055,1057,1057,1057,1057,1057,1057,1057,1057,1057,1057,1057,1057,1057,1057,1057,1057,1059],"ymouse":[518,518,518,518,518,518,518,518,518,518,518,518,518,518,518,518,518,518,518,518,518,518,518,518,518,518,518,518,518,518,518,518,518,518,518,518,518,518,518,518,518,518,518,518,518,518,518,518,518,518,518,518,514,511,509,509,508,508,508,508,508,508,508,508,508,508,508,508,508,508,508,508,508,500,488,413,290,243,191,147,110,68,59,54,51,51,51,51,51,51,51,51,51,51,51,51,51,51,51,51,51],"timestamp_mouse":[1,33,40,61,80,100,119,139,159,180,201,220,241,261,281,301,321,339,359,379,401,421,440,460,480,500,519,539,560,581,599,619,639,660,680,701,719,740,760,779,800,821,839,860,880,901,919,939,960,979,1000,1020,1041,1060,1079,1100,1121,1140,1160,1180,1201,1221,1240,1260,1279,1300,1321,1339,1359,1380,1399,1420,1441,1460,1480,1501,1520,1540,1560,1581,1601,1620,1639,1661,1680,1700,1720,1739,1761,1780,1801,1820,1839,1860,1881,1901,1919,1940,1961,1980,2000],"xSR":741.5,"ySR":469.95,"xT1":424.9,"yT1":0,"xT2":1058.1,"yT2":0,"toosoon":0,"cond_shown":"Congruent","ratio_trial":300,"L_num":4,"L_den":20,"R_num":13,"R_den":26,"correct_side":2,"subjID":"Juanestebancabastorres31","gender":"0","school":"6","age":"12"},{"start_time":1551794108254,"click_time":1551794109440,"finger_time":1551794109000,"fix_duration":1492.914692712808,"trial":19,"RT":746,"MT":440,"sideResp":2,"stimulus":[],"xmouse":[792,792,792,792,792,792,792,792,792,792,792,792,792,792,792,792,792,792,792,792,792,792,792,792,792,792,792,792,792,792,792,792,792,793,793,795,804,829,877,929,977,986,998,1008,1020,1042,1053,1069,1082,1090,1099,1101,1101,1101,1101,1099,1094,1093,1093,1092],"ymouse":[507,507,507,507,507,507,507,507,507,507,507,507,507,507,507,507,507,507,507,507,507,507,507,507,507,507,507,507,507,507,507,507,507,505,504,494,476,443,391,332,276,267,255,236,215,177,162,146,139,133,120,117,114,113,112,110,107,105,102,98],"timestamp_mouse":[10,40,45,66,87,106,126,147,165,186,206,226,245,266,285,307,327,345,367,386,406,426,447,465,486,507,525,547,567,586,606,625,646,666,686,706,725,746,766,786,806,825,847,867,886,907,926,946,967,985,1008,1025,1047,1065,1086,1107,1126,1146,1165,1185],"xSR":741.5,"ySR":469.95,"xT1":424.9,"yT1":0,"xT2":1058.1,"yT2":0,"toosoon":0,"cond_shown":"Congruent","ratio_trial":300,"L_num":1,"L_den":5,"R_num":6,"R_den":12,"correct_side":2,"subjID":"Juanestebancabastorres31","gender":"0","school":"6","age":"12"},{"start_time":1551794111434,"click_time":1551794112680,"finger_time":1551794112220,"fix_duration":933.2061748084444,"trial":20,"RT":786,"MT":460,"sideResp":2,"stimulus":[],"xmouse":[801,801,801,801,801,801,801,801,801,801,801,801,801,801,801,801,801,801,801,801,801,801,801,801,801,801,801,801,801,801,801,801,801,801,801,801,801,801,801,818,845,916,1084,1129,1140,1141,1141,1153,1165,1177,1185,1191,1201,1209,1216,1219,1221,1221,1211,1193,1165,1132,1107],"ymouse":[482,482,482,482,482,482,482,482,482,482,482,482,482,482,482,482,482,482,482,482,482,482,482,482,482,482,482,482,482,482,482,482,482,482,482,482,482,482,482,466,449,424,404,405,409,409,409,389,374,362,348,330,292,276,262,252,242,233,220,199,173,137,75],"timestamp_mouse":[10,25,45,65,86,105,126,147,165,186,207,225,247,267,285,307,325,346,366,386,406,425,446,465,487,506,526,547,566,585,607,627,647,666,687,707,726,746,765,786,807,826,846,865,886,906,926,946,967,985,1006,1025,1045,1066,1086,1105,1127,1146,1166,1186,1207,1227,1246],"xSR":741.5,"ySR":469.95,"xT1":424.9,"yT1":0,"xT2":1058.1,"yT2":0,"toosoon":0,"cond_shown":"Incongruent","ratio_trial":100,"L_num":6,"L_den":10,"R_num":13,"R_den":26,"correct_side":1,"subjID":"Juanestebancabastorres31","gender":"0","school":"6","age":"12"},{"start_time":1551794115932,"click_time":1551794117360,"finger_time":1551794116741,"fix_duration":250,"trial":21,"RT":809,"MT":619,"sideResp":2,"stimulus":[],"xmouse":[780,779,779,777,777,777,781,786,790,791,791,791,790,789,789,789,791,791,791,791,791,791,791,791,791,791,791,791,791,791,791,792,793,794,783,776,781,820,830,837,842,849,880,916,957,989,1009,1035,1056,1068,1072,1073,1073,1073,1073,1073,1073,1081,1085,1087,1088,1089,1093,1104,1110,1116,1118,1125,1128,1131,1135,1138],"ymouse":[520,521,521,523,523,523,522,518,515,514,514,514,514,514,514,514,514,514,514,514,515,515,515,515,515,515,515,515,515,515,515,515,515,517,540,558,560,555,549,540,528,514,477,445,409,381,355,309,278,262,255,253,253,253,253,253,251,241,232,228,225,220,211,186,173,160,149,126,119,110,102,94],"timestamp_mouse":[12,41,48,68,87,109,129,148,168,188,209,227,249,269,287,308,328,348,368,388,409,427,448,468,488,509,528,548,567,588,609,628,648,668,687,707,728,748,768,787,809,828,848,867,888,908,928,948,968,988,1007,1029,1049,1068,1089,1109,1128,1148,1168,1188,1208,1227,1247,1268,1287,1308,1328,1348,1368,1387,1408,1428],"xSR":741.5,"ySR":469.95,"xT1":424.9,"yT1":0,"xT2":1058.1,"yT2":0,"toosoon":0,"cond_shown":"Congruent","ratio_trial":200,"L_num":7,"L_den":15,"R_num":18,"R_den":27,"correct_side":2,"subjID":"Juanestebancabastorres31","gender":"0","school":"6","age":"12"},{"start_time":1551794119825,"click_time":1551794121581,"finger_time":1551794120800,"fix_duration":1343.98077441689,"trial":22,"RT":975,"MT":781,"sideResp":1,"stimulus":[],"xmouse":[810,810,810,810,810,810,810,810,810,810,809,809,809,809,809,808,808,808,808,808,808,808,808,808,808,808,808,808,808,808,808,808,808,808,808,808,807,807,807,807,809,810,810,811,812,813,815,821,835,837,838,838,838,831,825,819,812,804,781,767,757,747,735,688,664,645,626,610,598,596,596,596,596,596,597,600,600,600,587,579,574,572,572,566,555,543,531,522],"ymouse":[545,545,545,545,545,545,545,545,545,545,545,545,545,545,545,545,545,545,545,545,545,545,545,545,545,545,545,545,545,545,545,545,545,545,545,545,543,541,532,528,522,515,513,511,507,503,496,484,463,458,454,452,449,430,415,404,393,382,361,349,339,331,319,282,266,251,238,223,205,203,203,203,203,202,194,189,178,167,138,126,119,117,115,105,92,77,62,51],"timestamp_mouse":[15,37,55,75,96,116,134,155,175,194,215,236,256,274,295,315,336,356,375,396,415,435,456,475,494,515,536,554,576,596,615,635,655,676,695,715,735,755,775,795,815,836,854,875,895,915,935,955,975,995,1015,1034,1055,1075,1095,1114,1135,1155,1175,1195,1214,1234,1255,1275,1295,1315,1335,1355,1374,1396,1415,1434,1456,1475,1495,1514,1534,1555,1575,1595,1616,1634,1654,1674,1695,1715,1736,1756],"xSR":741.5,"ySR":469.95,"xT1":424.9,"yT1":0,"xT2":1058.1,"yT2":0,"toosoon":0,"cond_shown":"Incongruent","ratio_trial":200,"L_num":7,"L_den":10,"R_num":14,"R_den":28,"correct_side":1,"subjID":"Juanestebancabastorres31","gender":"0","school":"6","age":"12"},{"start_time":1551794124953,"click_time":1551794126801,"finger_time":1551794126640,"fix_duration":250,"trial":23,"RT":1687,"MT":161,"sideResp":1,"stimulus":[],"xmouse":[803,803,803,803,803,803,803,803,803,803,803,803,803,803,803,803,803,803,803,803,803,803,803,803,803,803,803,803,803,803,803,803,803,803,803,803,803,803,803,803,803,803,803,803,803,803,803,803,803,803,803,803,803,802,802,802,802,802,802,802,802,802,802,802,802,802,802,802,802,802,802,802,802,802,800,798,796,794,794,794,794,794,788,775,762,741,714,644,604,564,527,509,498],"ymouse":[498,498,498,498,498,498,498,498,498,498,498,498,498,498,498,498,498,498,498,498,498,498,498,498,498,498,498,498,498,498,498,498,498,498,498,498,498,498,498,497,496,496,496,496,496,496,496,496,496,496,496,496,496,494,494,494,494,494,494,494,494,494,494,494,494,494,494,494,494,494,494,494,494,494,498,504,508,512,512,512,512,513,511,485,456,415,367,271,223,175,129,105,92],"timestamp_mouse":[11,33,47,68,87,106,127,146,168,186,207,226,246,267,287,308,327,347,368,386,406,427,447,468,486,508,527,548,567,588,607,627,646,667,686,707,727,746,768,788,806,828,846,866,888,906,927,946,967,986,1007,1027,1047,1068,1088,1107,1127,1147,1167,1187,1207,1227,1248,1268,1286,1306,1326,1347,1366,1386,1408,1428,1446,1468,1486,1508,1528,1547,1567,1588,1606,1628,1647,1667,1687,1706,1727,1748,1767,1786,1808,1828,1847],"xSR":741.5,"ySR":469.95,"xT1":424.9,"yT1":0,"xT2":1058.1,"yT2":0,"toosoon":0,"cond_shown":"Incongruent","ratio_trial":300,"L_num":4,"L_den":20,"R_num":2,"R_den":4,"correct_side":2,"subjID":"Juanestebancabastorres31","gender":"0","school":"6","age":"12"},{"start_time":1551794127972,"click_time":1551794129301,"finger_time":1551794128240,"fix_duration":250,"trial":24,"RT":268,"MT":1061,"sideResp":2,"stimulus":[],"xmouse":[755,755,755,755,755,755,755,755,755,755,755,756,762,767,771,777,779,780,780,780,779,777,776,775,774,772,772,772,769,766,763,761,760,760,762,778,791,799,799,799,799,799,799,799,799,799,799,799,799,800,810,836,880,899,910,920,931,936,942,953,971,991,1030,1042,1049,1053,1068],"ymouse":[497,497,497,497,497,497,497,497,497,497,497,495,474,452,430,406,386,374,372,371,369,367,366,363,361,359,358,358,358,358,358,361,392,417,448,497,532,551,551,551,551,551,551,551,551,551,551,551,551,548,511,411,213,156,122,100,73,65,56,47,39,30,21,20,20,20,37],"timestamp_mouse":[10,32,48,67,89,109,128,148,167,189,208,228,249,268,288,307,327,347,368,388,408,429,448,468,487,508,527,548,568,588,607,628,648,668,688,707,728,748,768,789,809,828,849,868,888,908,928,949,969,988,1007,1028,1047,1069,1089,1109,1129,1147,1169,1188,1207,1229,1248,1269,1288,1308,1329],"xSR":741.5,"ySR":469.95,"xT1":424.9,"yT1":0,"xT2":1058.1,"yT2":0,"toosoon":0,"cond_shown":"Congruent","ratio_trial":200,"L_num":9,"L_den":30,"R_num":13,"R_den":26,"correct_side":2,"subjID":"Juanestebancabastorres31","gender":"0","school":"6","age":"12"},{"start_time":1551794131618,"click_time":1551794132741,"finger_time":1551794132420,"fix_duration":1335.5392622145273,"trial":25,"RT":802,"MT":321,"sideResp":2,"stimulus":[],"xmouse":[798,798,798,798,798,798,798,798,798,798,798,798,798,798,798,798,798,798,798,798,798,798,798,798,798,798,798,798,798,798,798,798,798,798,798,798,798,798,798,809,926,985,1017,1025,1026,1026,1026,1026,1026,1026,1026,1026,1029,1036,1043,1072,1088],"ymouse":[548,548,548,548,548,548,548,548,548,548,548,548,548,548,548,548,548,548,548,548,548,548,548,548,548,548,548,548,548,548,548,548,548,548,548,545,545,544,543,529,374,265,205,177,156,138,138,138,138,138,138,138,132,125,118,102,95],"timestamp_mouse":[11,39,42,63,81,102,123,142,162,182,202,221,242,262,283,301,323,342,361,383,401,421,443,461,481,501,522,542,563,582,602,622,643,662,681,702,722,742,763,782,802,822,842,863,882,902,922,943,962,982,1002,1022,1041,1062,1082,1102,1123],"xSR":741.5,"ySR":469.95,"xT1":424.9,"yT1":0,"xT2":1058.1,"yT2":0,"toosoon":0,"cond_shown":"Congruent","ratio_trial":100,"L_num":11,"L_den":22,"R_num":4,"R_den":10,"correct_side":1,"subjID":"Juanestebancabastorres31","gender":"0","school":"6","age":"12"},{"start_time":1551794134068,"click_time":1551794135399,"finger_time":1551794135180,"fix_duration":385.5649888045027,"trial":26,"RT":1112,"MT":219,"sideResp":2,"stimulus":[],"xmouse":[802,802,802,802,802,802,802,802,802,802,802,802,802,802,802,802,802,802,802,802,802,802,802,802,802,802,802,802,802,802,802,802,802,802,802,802,802,802,802,802,802,802,802,802,802,802,802,802,802,802,802,802,805,826,856,896,965,997,1024,1040,1052,1070,1080,1104,1127,1143],"ymouse":[546,546,546,546,546,546,546,546,546,546,546,546,546,546,546,546,546,546,546,546,546,546,546,546,546,546,546,546,546,546,546,546,546,546,546,546,546,546,546,546,546,546,546,546,546,546,546,546,546,546,546,546,535,487,417,352,251,207,173,155,146,137,131,118,104,94],"timestamp_mouse":[33,58,72,91,112,131,152,173,191,213,233,252,272,292,313,332,351,372,393,411,432,451,473,493,511,533,552,571,592,613,632,652,671,691,712,731,752,772,791,813,833,852,873,892,911,933,951,973,991,1012,1032,1051,1073,1091,1112,1133,1153,1172,1191,1212,1231,1253,1271,1292,1312,1331],"xSR":741.5,"ySR":469.95,"xT1":424.9,"yT1":0,"xT2":1058.1,"yT2":0,"toosoon":0,"cond_shown":"Congruent","ratio_trial":200,"L_num":6,"L_den":12,"R_num":7,"R_den":10,"correct_side":2,"subjID":"Juanestebancabastorres31","gender":"0","school":"6","age":"12"},{"start_time":1551794137589,"click_time":1551794139200,"finger_time":1551794139121,"fix_duration":1085.4583573906666,"trial":27,"RT":1532,"MT":79,"sideResp":1,"stimulus":[],"xmouse":[821,821,821,821,821,821,821,821,821,821,821,821,821,821,821,821,821,821,821,821,821,821,821,821,821,821,821,821,821,821,821,821,821,821,821,821,821,821,821,821,821,821,821,821,821,821,821,821,821,821,821,821,821,821,820,820,820,819,819,818,818,818,818,818,818,818,818,818,817,815,813,811,808,807,803,800,779,682,603,523,450],"ymouse":[526,526,526,526,526,526,526,526,526,526,526,526,526,526,526,526,526,526,526,526,526,526,526,526,526,526,526,526,526,526,526,526,526,526,526,526,526,526,526,526,526,526,526,526,526,526,526,526,526,526,526,526,526,526,524,522,521,518,517,515,515,515,514,514,514,514,514,514,513,509,500,493,485,483,478,474,454,343,251,157,64],"timestamp_mouse":[10,34,50,70,91,110,132,151,171,190,212,232,251,272,291,311,331,350,371,390,411,430,450,471,491,511,531,550,571,590,611,630,651,670,692,710,732,751,771,791,812,830,850,871,890,912,930,950,971,992,1011,1031,1052,1072,1091,1110,1131,1152,1171,1192,1210,1231,1251,1270,1291,1311,1332,1350,1371,1391,1412,1431,1451,1472,1490,1511,1532,1551,1571,1592,1611],"xSR":741.5,"ySR":469.95,"xT1":424.9,"yT1":0,"xT2":1058.1,"yT2":0,"toosoon":0,"cond_shown":"Congruent","ratio_trial":200,"L_num":4,"L_den":10,"R_num":3,"R_den":15,"correct_side":1,"subjID":"Juanestebancabastorres31","gender":"0","school":"6","age":"12"},{"start_time":1551794140938,"click_time":1551794141901,"finger_time":1551794141760,"fix_duration":616.9569914531304,"trial":28,"RT":822,"MT":141,"sideResp":1,"stimulus":[],"xmouse":[758,758,758,758,758,758,758,758,758,758,758,758,758,758,758,758,760,760,760,760,760,760,760,760,760,760,760,760,760,760,760,760,760,760,760,760,760,760,760,760,759,738,706,674,640,580,557,517,499],"ymouse":[493,493,493,493,493,493,493,493,493,493,493,493,493,493,493,493,493,493,493,493,493,493,493,493,493,493,493,493,493,493,493,493,493,493,493,493,493,493,493,493,490,476,455,427,393,275,204,125,99],"timestamp_mouse":[11,32,41,62,83,101,122,142,163,183,203,222,243,261,282,302,322,341,362,382,402,422,441,462,481,502,523,542,562,582,602,623,641,661,683,702,722,742,761,781,802,822,842,862,881,902,922,942,963],"xSR":741.5,"ySR":469.95,"xT1":424.9,"yT1":0,"xT2":1058.1,"yT2":0,"toosoon":0,"cond_shown":"Incongruent","ratio_trial":100,"L_num":9,"L_den":15,"R_num":13,"R_den":26,"correct_side":1,"subjID":"Juanestebancabastorres31","gender":"0","school":"6","age":"12"},{"start_time":1551794144456,"click_time":1551794146142,"finger_time":1551794145840,"fix_duration":1414.599918810239,"trial":29,"RT":1384,"MT":302,"sideResp":1,"stimulus":[],"xmouse":[772,772,772,772,772,772,772,772,772,772,772,772,772,773,773,773,773,773,773,773,773,773,773,773,773,773,773,773,773,773,773,773,773,773,773,773,773,773,773,773,773,773,773,773,773,773,773,773,773,773,773,773,773,773,773,773,773,773,773,772,772,772,772,772,772,772,772,771,768,742,685,649,616,595,588,586,586,586,586,585,577,569,561,548,523],"ymouse":[519,519,519,519,519,519,519,519,519,519,519,519,519,518,514,506,504,504,504,504,504,504,504,504,504,504,504,504,504,504,504,504,504,504,504,504,504,504,504,504,504,504,504,504,504,504,504,504,504,504,504,504,504,504,504,504,504,504,504,503,502,502,502,502,502,502,502,502,496,402,227,149,88,53,38,35,35,35,34,34,31,29,29,30,36],"timestamp_mouse":[8,40,43,64,84,103,124,145,164,184,204,225,243,264,284,304,324,345,363,384,405,424,445,464,483,505,524,543,563,585,604,625,644,664,685,704,724,743,765,784,804,824,844,865,884,905,925,944,964,985,1004,1024,1044,1064,1083,1105,1125,1143,1164,1185,1204,1225,1244,1263,1284,1304,1323,1344,1365,1384,1403,1424,1444,1464,1484,1504,1524,1544,1563,1584,1604,1625,1644,1665,1685],"xSR":741.5,"ySR":469.95,"xT1":424.9,"yT1":0,"xT2":1058.1,"yT2":0,"toosoon":0,"cond_shown":"Incongruent","ratio_trial":100,"L_num":3,"L_den":5,"R_num":8,"R_den":16,"correct_side":1,"subjID":"Juanestebancabastorres31","gender":"0","school":"6","age":"12"},{"start_time":1551794147807,"click_time":1551794149020,"finger_time":1551794148620,"fix_duration":446.8121820128226,"trial":30,"RT":813,"MT":400,"sideResp":1,"stimulus":[],"xmouse":[796,796,796,796,796,796,796,796,796,796,796,796,796,796,796,796,796,796,796,796,796,796,796,796,796,796,796,796,796,796,796,796,796,796,796,796,796,796,794,788,778,759,708,684,668,654,640,613,598,569,553,544,543,543,543,543,540,530,522,512,504],"ymouse":[486,486,486,486,486,486,486,486,486,486,486,486,486,486,486,486,486,486,486,486,486,486,486,486,486,486,486,486,486,486,486,486,486,486,486,486,486,486,486,471,447,406,311,266,242,223,207,188,180,169,166,163,163,163,163,163,158,142,125,108,90],"timestamp_mouse":[14,33,53,74,93,113,132,154,172,192,214,233,254,274,292,313,332,353,372,394,413,433,454,473,493,513,533,553,572,592,613,634,654,674,692,714,733,752,774,793,813,834,853,872,892,914,933,952,974,992,1012,1033,1053,1073,1093,1114,1132,1152,1173,1193,1213],"xSR":741.5,"ySR":469.95,"xT1":424.9,"yT1":0,"xT2":1058.1,"yT2":0,"toosoon":0,"cond_shown":"Congruent","ratio_trial":200,"L_num":7,"L_den":15,"R_num":18,"R_den":27,"correct_side":2,"subjID":"Juanestebancabastorres31","gender":"0","school":"6","age":"12"},{"start_time":1551794150548,"click_time":1551794151499,"finger_time":1551794151179,"fix_duration":688.5888189988482,"trial":31,"RT":631,"MT":320,"sideResp":2,"stimulus":[],"xmouse":[803,803,803,803,803,803,803,803,803,803,803,803,804,806,806,808,809,810,810,810,810,810,810,810,810,811,811,811,812,812,822,837,867,893,925,975,991,1002,1010,1012,1012,1013,1019,1025,1033,1043,1057,1062],"ymouse":[493,493,493,493,493,493,493,493,493,493,493,493,493,493,492,492,491,490,490,490,490,490,490,490,490,490,490,490,490,488,471,446,393,350,306,250,235,226,221,219,219,217,202,189,172,152,114,96],"timestamp_mouse":[13,34,52,71,91,111,133,153,171,192,211,232,252,273,292,312,331,353,373,392,411,433,453,472,492,513,533,552,572,593,613,631,651,673,693,712,732,751,772,792,812,831,852,872,893,911,932,951],"xSR":741.5,"ySR":469.95,"xT1":424.9,"yT1":0,"xT2":1058.1,"yT2":0,"toosoon":0,"cond_shown":"Congruent","ratio_trial":200,"L_num":8,"L_den":15,"R_num":7,"R_den":21,"correct_side":1,"subjID":"Juanestebancabastorres31","gender":"0","school":"6","age":"12"},{"start_time":1551794153758,"click_time":1551794155839,"finger_time":1551794153808,"fix_duration":1357.3985461321827,"trial":32,"RT":50,"MT":2031,"sideResp":1,"stimulus":[],"xmouse":[780,825,853,865,867,867,867,860,840,812,800,800,800,800,800,800,800,800,800,800,800,800,800,800,800,800,800,800,800,802,802,802,800,799,799,799,799,799,799,798,798,799,797,796,796,796,792,788,787,786,786,786,786,786,786,786,785,785,785,785,785,785,785,785,785,785,785,785,785,785,785,785,785,785,785,785,785,785,785,785,785,785,785,785,785,784,799,821,836,847,848,808,759,715,715,715,715,715,715,715,715,715,715,715,494],"ymouse":[527,513,501,496,495,495,495,499,520,565,581,581,581,581,581,581,581,581,581,581,581,581,581,581,581,581,581,581,582,576,576,576,575,575,575,575,575,575,575,574,565,535,527,526,526,526,524,523,523,523,523,523,523,523,523,523,523,523,523,523,523,523,523,523,523,523,523,523,523,523,523,523,523,523,523,523,523,523,523,523,523,523,523,523,523,517,484,436,384,333,259,133,62,2,2,2,2,2,2,2,2,2,2,2,36],"timestamp_mouse":[1,21,50,62,82,103,122,141,163,182,202,223,241,263,282,301,321,342,363,382,402,422,441,462,481,501,521,542,561,582,602,622,641,663,683,703,722,742,761,783,801,821,842,861,882,901,921,942,961,982,1002,1021,1042,1061,1083,1102,1122,1141,1162,1182,1201,1222,1241,1262,1281,1303,1323,1342,1361,1381,1401,1422,1442,1462,1481,1502,1522,1541,1561,1581,1602,1621,1642,1661,1681,1702,1721,1742,1762,1783,1801,1822,1842,1861,1881,1902,1921,1942,1962,1982,2002,2022,2041,2061,2081],"xSR":741.5,"ySR":469.95,"xT1":424.9,"yT1":0,"xT2":1058.1,"yT2":0,"toosoon":0,"cond_shown":"Congruent","ratio_trial":200,"L_num":20,"L_den":25,"R_num":9,"R_den":15,"correct_side":1,"subjID":"Juanestebancabastorres31","gender":"0","school":"6","age":"12"},{"start_time":1551794158993,"click_time":1551794161780,"finger_time":1551794161080,"fix_duration":472.145386874925,"trial":33,"RT":2087,"MT":700,"sideResp":1,"stimulus":[],"xmouse":[822,822,822,822,822,822,822,822,822,822,822,822,822,822,822,822,822,822,822,822,822,822,822,822,822,822,822,822,822,822,822,822,822,822,822,822,822,822,822,822,822,822,822,822,822,822,822,822,822,822,822,822,822,822,822,815,808,806,806,806,806,806,806,806,806,806,806,806,806,806,806,806,806,806,806,806,806,806,806,806,806,806,806,806,806,806,806,806,806,806,806,806,806,806,806,806,806,806,806,806,806,802,798,783,735,690,670,653,638,602,580,553,520,496,478,464,464,464,463,456,450,446,443,443,443,443,443,443,443,443,443,443,443,443,443,443,443,443,443,443],"ymouse":[511,511,511,511,511,511,511,511,511,511,511,511,511,511,511,511,511,511,511,511,511,511,511,511,511,511,511,511,511,511,511,511,511,511,511,511,511,511,511,511,511,511,511,511,511,511,511,511,511,511,511,511,511,511,511,511,516,517,517,517,517,517,517,517,517,517,517,517,517,517,517,517,517,517,517,517,517,517,517,517,517,517,517,517,517,517,517,517,517,517,517,517,517,517,517,517,517,517,517,517,517,513,502,475,411,365,348,336,325,297,278,254,226,204,187,174,174,174,170,145,125,109,106,105,105,105,105,105,105,105,105,105,105,105,105,105,105,105,103,95],"timestamp_mouse":[10,37,47,66,86,107,128,147,167,186,207,226,247,266,288,307,326,348,366,386,407,426,448,467,486,508,528,548,567,587,607,627,646,667,686,706,727,746,766,786,806,826,847,867,886,907,926,946,966,986,1006,1027,1047,1066,1086,1106,1126,1147,1166,1186,1207,1228,1248,1267,1286,1308,1327,1346,1366,1387,1408,1426,1448,1467,1486,1507,1526,1546,1566,1586,1606,1626,1646,1666,1686,1706,1726,1746,1766,1786,1806,1826,1846,1866,1886,1907,1927,1947,1967,1986,2006,2026,2048,2067,2087,2106,2126,2147,2166,2186,2206,2226,2246,2267,2287,2306,2326,2346,2366,2386,2406,2427,2447,2467,2487,2506,2527,2546,2567,2587,2607,2626,2647,2666,2686,2706,2728,2747,2766,2787],"xSR":741.5,"ySR":469.95,"xT1":424.9,"yT1":0,"xT2":1058.1,"yT2":0,"toosoon":0,"cond_shown":"Congruent","ratio_trial":100,"L_num":11,"L_den":22,"R_num":4,"R_den":10,"correct_side":1,"subjID":"Juanestebancabastorres31","gender":"0","school":"6","age":"12"},{"start_time":1551794163303,"click_time":1551794164659,"finger_time":1551794164319,"fix_duration":841.2768307931735,"trial":34,"RT":1016,"MT":340,"sideResp":2,"stimulus":[],"xmouse":[824,824,824,824,824,824,824,824,824,824,824,824,824,824,824,824,824,824,824,824,824,824,824,824,824,824,824,824,824,824,824,824,824,824,824,824,824,824,824,824,824,824,824,824,824,824,824,824,824,830,845,859,875,892,934,960,986,1009,1041,1070,1077,1080,1080,1082,1088,1094,1101,1106],"ymouse":[498,498,498,498,498,498,498,498,498,498,498,498,498,498,498,498,498,498,498,498,498,498,498,498,498,498,498,498,498,498,498,498,498,498,498,498,498,498,498,498,498,498,498,498,498,498,498,498,498,497,481,466,450,430,372,336,299,266,230,205,197,187,179,168,137,121,101,78],"timestamp_mouse":[31,36,56,77,96,117,138,157,176,196,217,236,256,278,296,316,336,357,378,396,416,436,458,478,496,516,538,557,576,597,616,638,657,676,696,716,736,757,777,797,816,836,856,876,897,916,936,957,978,996,1016,1036,1056,1077,1097,1116,1136,1156,1177,1196,1217,1237,1258,1277,1297,1316,1337,1356],"xSR":741.5,"ySR":469.95,"xT1":424.9,"yT1":0,"xT2":1058.1,"yT2":0,"toosoon":0,"cond_shown":"Congruent","ratio_trial":100,"L_num":1,"L_den":2,"R_num":18,"R_den":30,"correct_side":2,"subjID":"Juanestebancabastorres31","gender":"0","school":"6","age":"12"},{"start_time":1551794166078,"click_time":1551794167400,"finger_time":1551794166920,"fix_duration":378.15099178559865,"trial":35,"RT":842,"MT":480,"sideResp":1,"stimulus":[],"xmouse":[777,777,777,777,777,777,777,777,777,777,777,777,777,777,777,777,777,777,777,777,777,777,777,777,777,777,777,777,777,777,777,777,777,777,777,777,777,777,777,777,778,758,733,696,659,633,621,618,617,611,605,583,563,542,532,530,533,536,536,536,536,536,536,531,529,526,516],"ymouse":[533,533,533,533,533,533,533,533,533,533,533,533,533,533,533,533,533,533,533,533,533,533,533,533,533,533,533,533,533,533,533,533,533,533,533,533,533,533,533,533,529,487,449,396,344,297,255,232,224,204,188,152,128,104,88,80,71,68,66,66,66,66,65,63,62,61,60],"timestamp_mouse":[9,38,42,62,82,102,123,142,161,183,202,221,242,263,282,302,323,341,363,381,402,423,441,462,482,501,522,542,562,582,602,621,641,661,681,701,723,741,761,783,801,821,842,861,881,901,922,941,961,981,1001,1021,1041,1061,1083,1102,1121,1141,1162,1181,1201,1223,1241,1262,1281,1301,1322],"xSR":741.5,"ySR":469.95,"xT1":424.9,"yT1":0,"xT2":1058.1,"yT2":0,"toosoon":0,"cond_shown":"Incongruent","ratio_trial":200,"L_num":4,"L_den":6,"R_num":14,"R_den":30,"correct_side":1,"subjID":"Juanestebancabastorres31","gender":"0","school":"6","age":"12"},{"start_time":1551794168803,"click_time":1551794170060,"finger_time":1551794169540,"fix_duration":782.5792356743561,"trial":36,"RT":737,"MT":520,"sideResp":1,"stimulus":[],"xmouse":[802,802,802,802,802,802,802,802,802,801,801,801,801,801,801,801,801,801,801,801,801,801,801,801,801,801,801,801,801,801,801,801,800,799,792,780,777,776,776,776,776,776,776,768,698,637,584,558,554,554,551,541,537,536,536,537,537,537,536,527,527,527,523],"ymouse":[524,524,524,524,524,524,524,524,524,524,524,524,524,524,524,524,524,524,524,524,524,524,524,524,524,524,524,524,524,524,524,524,523,516,498,476,467,463,463,463,463,463,462,450,347,267,201,167,155,151,147,139,132,125,110,106,103,102,98,88,88,88,87],"timestamp_mouse":[16,37,57,76,97,116,137,156,177,196,217,237,257,276,296,316,336,357,376,396,416,436,456,477,497,516,536,557,578,596,616,637,657,677,696,717,737,757,776,796,818,836,856,877,896,916,936,957,976,997,1016,1037,1057,1078,1097,1116,1137,1156,1176,1196,1217,1237,1257],"xSR":741.5,"ySR":469.95,"xT1":424.9,"yT1":0,"xT2":1058.1,"yT2":0,"toosoon":0,"cond_shown":"Congruent","ratio_trial":100,"L_num":2,"L_den":5,"R_num":6,"R_den":12,"correct_side":2,"subjID":"Juanestebancabastorres31","gender":"0","school":"6","age":"12"},{"start_time":1551794173408,"click_time":1551794174219,"finger_time":1551794173780,"fix_duration":1487.055877782518,"trial":37,"RT":372,"MT":439,"sideResp":2,"stimulus":[],"xmouse":[777,777,777,777,777,777,777,777,777,777,777,777,777,777,777,777,779,796,822,872,928,951,974,992,1002,1015,1018,1022,1032,1039,1049,1052,1053,1054,1054,1057,1062,1066,1073,1083,1098],"ymouse":[499,499,499,499,499,499,499,499,499,499,499,499,499,499,499,499,492,476,460,431,397,380,362,347,335,312,303,289,264,249,224,215,206,198,192,167,152,140,127,109,84],"timestamp_mouse":[11,44,52,71,92,111,132,151,171,191,211,232,251,271,291,312,332,353,372,392,411,432,452,471,493,511,531,553,572,591,612,631,651,672,691,712,732,752,771,792,811],"xSR":741.5,"ySR":469.95,"xT1":424.9,"yT1":0,"xT2":1058.1,"yT2":0,"toosoon":0,"cond_shown":"Incongruent","ratio_trial":100,"L_num":10,"L_den":25,"R_num":9,"R_den":18,"correct_side":2,"subjID":"Juanestebancabastorres31","gender":"0","school":"6","age":"12"},{"start_time":1551794176777,"click_time":1551794178141,"finger_time":1551794177539,"fix_duration":1357.374004969718,"trial":38,"RT":762,"MT":602,"sideResp":1,"stimulus":[],"xmouse":[797,797,797,797,797,797,797,797,797,797,797,797,797,797,797,797,797,797,797,797,797,797,797,797,797,797,797,797,797,797,797,797,797,797,797,796,795,782,773,769,769,768,768,768,770,770,770,765,745,723,708,695,668,655,642,628,617,596,593,590,588,584,578,576,575,574,566,524,493],"ymouse":[483,483,483,483,483,483,483,483,483,483,483,483,483,483,483,483,483,483,483,483,483,483,483,483,483,483,483,483,483,483,483,483,483,483,483,482,481,471,464,461,461,460,451,440,429,418,406,391,353,322,304,290,264,252,240,228,215,195,191,187,184,180,170,168,166,163,153,110,87],"timestamp_mouse":[10,24,42,63,82,102,124,142,162,183,202,222,244,264,282,303,323,344,362,383,404,422,443,462,483,503,523,542,562,583,602,623,642,664,683,702,723,743,762,782,804,822,843,863,883,903,922,943,963,983,1003,1023,1043,1062,1082,1103,1122,1143,1162,1183,1202,1222,1243,1262,1283,1302,1323,1342,1363],"xSR":741.5,"ySR":469.95,"xT1":424.9,"yT1":0,"xT2":1058.1,"yT2":0,"toosoon":0,"cond_shown":"Incongruent","ratio_trial":200,"L_num":3,"L_den":10,"R_num":1,"R_den":2,"correct_side":2,"subjID":"Juanestebancabastorres31","gender":"0","school":"6","age":"12"},{"start_time":1551794179938,"click_time":1551794181021,"finger_time":1551794180720,"fix_duration":837.2452104262615,"trial":39,"RT":782,"MT":301,"sideResp":1,"stimulus":[],"xmouse":[814,814,814,814,814,814,814,814,814,814,814,814,814,814,814,814,815,815,815,815,815,815,815,815,815,815,815,815,815,815,815,815,815,815,815,816,815,809,801,792,778,778,771,761,745,738,736,734,727,714,647,604,567,536,491],"ymouse":[487,487,487,487,487,487,487,487,487,487,487,487,487,487,487,487,487,487,487,487,487,487,487,487,487,487,487,487,487,487,487,487,487,487,487,487,483,478,471,457,372,302,216,156,114,100,99,97,93,88,71,59,51,46,40],"timestamp_mouse":[1,29,42,62,82,101,121,141,162,182,201,221,242,262,282,302,321,342,363,381,401,421,441,462,481,501,521,541,561,581,601,623,643,661,681,702,721,742,762,782,801,822,842,861,883,901,921,942,961,982,1001,1021,1042,1063,1082],"xSR":741.5,"ySR":469.95,"xT1":424.9,"yT1":0,"xT2":1058.1,"yT2":0,"toosoon":0,"cond_shown":"Incongruent","ratio_trial":300,"L_num":7,"L_den":10,"R_num":8,"R_den":20,"correct_side":1,"subjID":"Juanestebancabastorres31","gender":"0","school":"6","age":"12"},{"start_time":1551794183092,"click_time":1551794184419,"finger_time":1551794183879,"fix_duration":1110.5779107380004,"trial":40,"RT":787,"MT":540,"sideResp":2,"stimulus":[],"xmouse":[769,769,769,769,769,769,769,769,769,769,769,769,769,769,769,769,769,769,769,769,769,769,769,769,769,769,769,769,769,769,769,769,769,769,769,769,769,771,777,787,815,850,929,962,986,1006,1022,1052,1060,1067,1072,1074,1076,1076,1076,1075,1072,1070,1070,1070,1070,1070,1070,1070,1073,1079,1093],"ymouse":[486,486,486,486,486,486,486,486,486,486,486,486,486,486,486,486,486,486,486,486,486,486,486,486,486,486,486,486,486,486,486,486,486,486,486,486,484,480,471,460,436,415,369,346,325,305,285,252,240,223,194,179,156,146,133,128,123,119,119,119,119,119,119,115,110,102,85],"timestamp_mouse":[10,31,48,68,89,108,129,149,167,188,207,227,247,269,288,307,328,347,368,387,407,428,447,468,487,509,527,547,567,588,607,627,647,667,688,708,727,747,768,787,807,827,848,867,887,908,928,947,969,988,1008,1028,1047,1067,1087,1107,1128,1148,1168,1188,1207,1227,1248,1268,1288,1308,1327],"xSR":741.5,"ySR":469.95,"xT1":424.9,"yT1":0,"xT2":1058.1,"yT2":0,"toosoon":0,"cond_shown":"Congruent","ratio_trial":100,"L_num":1,"L_den":2,"R_num":18,"R_den":30,"correct_side":2,"subjID":"Juanestebancabastorres31","gender":"0","school":"6","age":"12"},{"start_time":1551794186688,"click_time":1551794188040,"finger_time":1551794187740,"fix_duration":1406.9625312397554,"trial":41,"RT":1052,"MT":300,"sideResp":2,"stimulus":[],"xmouse":[819,819,819,819,819,819,819,819,819,819,819,819,819,819,819,819,819,819,819,819,819,819,819,819,819,819,819,819,819,819,819,819,819,819,819,819,819,819,819,819,819,819,819,819,819,819,819,819,819,819,819,820,976,1064,1131,1164,1182,1192,1211,1219,1225,1230,1232,1232,1223,1209,1188,1154],"ymouse":[495,495,495,495,495,495,495,495,495,495,495,495,495,495,495,495,495,495,495,495,495,495,495,495,495,495,495,495,495,495,495,495,495,495,495,495,495,495,495,495,495,495,495,495,495,495,495,495,495,495,495,495,411,360,319,289,261,238,185,166,153,143,135,121,107,93,81,71],"timestamp_mouse":[15,39,52,73,91,112,132,151,171,191,212,231,252,272,292,313,331,352,372,391,413,431,452,472,492,512,533,551,572,591,611,632,652,672,692,711,731,752,771,792,811,832,851,871,891,912,932,951,973,992,1013,1031,1052,1071,1091,1113,1133,1151,1172,1191,1212,1231,1253,1271,1291,1313,1332,1352],"xSR":741.5,"ySR":469.95,"xT1":424.9,"yT1":0,"xT2":1058.1,"yT2":0,"toosoon":0,"cond_shown":"Incongruent","ratio_trial":200,"L_num":1,"L_den":2,"R_num":3,"R_den":10,"correct_side":1,"subjID":"Juanestebancabastorres31","gender":"0","school":"6","age":"12"},{"start_time":1551794191080,"click_time":1551794193060,"finger_time":1551794192759,"fix_duration":1359.4874108004287,"trial":42,"RT":1679,"MT":301,"sideResp":2,"stimulus":[],"xmouse":[799,799,799,799,799,799,799,799,799,799,799,799,799,799,799,799,799,799,799,799,799,799,799,799,800,800,800,800,800,800,800,800,800,800,800,800,800,800,800,800,800,800,800,800,800,800,800,800,800,800,800,800,800,800,800,800,800,800,800,800,800,800,800,800,800,800,800,800,800,800,800,800,800,800,800,800,800,800,800,800,800,800,801,821,854,929,973,1005,1031,1041,1052,1064,1076,1089,1098,1109,1119,1123,1125],"ymouse":[495,495,495,495,495,495,494,494,494,494,493,493,493,493,493,493,493,493,493,493,493,493,493,493,492,492,492,492,492,492,492,492,492,492,492,492,492,492,492,492,492,492,492,492,492,492,492,492,492,492,492,492,492,492,492,492,492,492,492,492,492,492,492,492,492,492,492,492,492,492,492,492,492,492,492,492,492,492,492,492,492,492,485,445,384,288,247,219,193,181,172,166,161,152,144,134,117,108,97],"timestamp_mouse":[20,42,60,80,99,120,139,160,179,200,219,241,260,279,299,319,340,360,381,399,419,439,459,480,499,521,539,559,579,599,620,639,659,680,699,719,740,760,779,800,819,841,860,880,901,920,940,961,979,1000,1020,1039,1059,1079,1099,1120,1139,1159,1180,1200,1219,1239,1260,1280,1300,1319,1340,1361,1379,1399,1419,1440,1460,1479,1499,1519,1540,1559,1579,1601,1619,1640,1660,1679,1700,1719,1740,1760,1780,1799,1819,1841,1861,1879,1900,1920,1939,1959,1979],"xSR":741.5,"ySR":469.95,"xT1":424.9,"yT1":0,"xT2":1058.1,"yT2":0,"toosoon":0,"cond_shown":"Congruent","ratio_trial":200,"L_num":20,"L_den":25,"R_num":9,"R_den":15,"correct_side":1,"subjID":"Juanestebancabastorres31","gender":"0","school":"6","age":"12"},{"start_time":1551794195242,"click_time":1551794197379,"finger_time":1551794195980,"fix_duration":301.854760124037,"trial":43,"RT":738,"MT":1399,"sideResp":2,"stimulus":[],"xmouse":[798,798,798,798,798,798,798,798,798,798,798,798,798,798,798,798,798,798,798,798,798,798,798,798,798,798,798,798,798,798,798,798,798,798,799,799,776,764,752,748,748,748,748,747,744,741,741,741,738,728,688,675,673,673,673,673,673,680,689,698,707,719,721,724,727,736,741,745,748,749,749,749,749,749,740,720,636,622,622,622,622,622,624,629,649,706,778,792,800,817,846,945,994,1010,1010,1010,1010,1010,1010,1010,1010,1010,1010,1010,1010,1010,1101],"ymouse":[494,494,494,494,494,494,494,494,494,494,494,494,494,494,494,494,494,494,494,494,494,494,494,494,494,494,494,494,494,494,494,494,494,494,494,484,410,389,371,364,364,364,364,363,363,363,363,363,362,332,261,238,234,234,234,234,241,267,292,318,342,376,387,395,406,437,451,464,472,473,473,474,467,445,415,362,206,184,178,177,176,176,176,176,188,235,282,286,286,271,238,97,26,2,2,2,2,2,2,2,2,2,2,2,2,2,6],"timestamp_mouse":[17,37,58,77,97,117,138,157,179,197,217,238,257,278,298,317,337,359,377,398,417,439,457,477,497,517,538,559,579,598,617,637,658,678,697,718,738,758,777,799,818,837,857,877,897,918,938,957,978,997,1018,1037,1057,1077,1097,1117,1137,1157,1178,1199,1217,1237,1259,1278,1297,1318,1337,1357,1377,1397,1418,1437,1457,1478,1497,1517,1538,1557,1577,1597,1618,1639,1658,1677,1698,1717,1738,1758,1777,1798,1818,1837,1858,1877,1898,1918,1937,1957,1978,1999,2017,2037,2057,2077,2097,2117,2137],"xSR":741.5,"ySR":469.95,"xT1":424.9,"yT1":0,"xT2":1058.1,"yT2":0,"toosoon":0,"cond_shown":"Incongruent","ratio_trial":300,"L_num":4,"L_den":20,"R_num":2,"R_den":4,"correct_side":2,"subjID":"Juanestebancabastorres31","gender":"0","school":"6","age":"12"},{"start_time":1551794199965,"click_time":1551794201259,"finger_time":1551794200819,"fix_duration":1484.7963724069607,"trial":44,"RT":854,"MT":440,"sideResp":1,"stimulus":[],"xmouse":[784,784,784,784,784,784,784,784,784,784,784,784,784,784,784,784,784,784,784,784,784,784,784,784,784,784,784,784,784,784,784,784,784,784,784,784,784,784,784,784,781,761,725,685,652,626,625,625,624,611,553,534,525,522,520,517,505,488,469,469,469,469,470,473,475],"ymouse":[521,521,521,521,521,521,521,521,521,521,521,521,521,521,521,521,521,521,521,521,521,521,521,521,521,521,521,521,521,521,521,521,521,521,521,521,521,521,521,521,521,498,453,395,342,302,297,287,276,259,218,205,196,191,189,184,172,152,123,118,118,117,109,102,96],"timestamp_mouse":[15,34,54,74,95,114,134,155,174,195,215,234,254,275,296,314,334,356,375,395,415,435,455,474,495,515,534,556,574,594,615,634,654,675,694,715,734,754,774,795,814,835,854,874,895,914,934,955,975,994,1014,1034,1054,1074,1095,1114,1135,1154,1174,1196,1215,1234,1254,1274,1294],"xSR":741.5,"ySR":469.95,"xT1":424.9,"yT1":0,"xT2":1058.1,"yT2":0,"toosoon":0,"cond_shown":"Congruent","ratio_trial":100,"L_num":6,"L_den":12,"R_num":15,"R_den":25,"correct_side":2,"subjID":"Juanestebancabastorres31","gender":"0","school":"6","age":"12"},{"start_time":1551794202512,"click_time":1551794203259,"finger_time":1551794202880,"fix_duration":250,"trial":45,"RT":368,"MT":379,"sideResp":2,"stimulus":[],"xmouse":[754,754,754,754,754,754,754,754,754,754,754,754,754,754,754,754,753,756,797,808,845,859,865,867,867,867,867,867,866,866,885,913,941,970,980,998,1027,1070],"ymouse":[490,490,490,490,490,490,490,490,490,490,490,490,490,490,490,490,490,487,456,449,429,419,414,411,411,410,410,409,406,397,322,237,170,120,107,88,61,29],"timestamp_mouse":[8,28,47,67,87,107,128,147,167,187,208,228,248,267,287,307,328,347,368,389,408,427,447,468,488,507,527,549,568,589,608,627,648,668,687,707,728,747],"xSR":741.5,"ySR":469.95,"xT1":424.9,"yT1":0,"xT2":1058.1,"yT2":0,"toosoon":0,"cond_shown":"Incongruent","ratio_trial":300,"L_num":4,"L_den":20,"R_num":2,"R_den":4,"correct_side":2,"subjID":"Juanestebancabastorres31","gender":"0","school":"6","age":"12"},{"start_time":1551794207108,"click_time":1551794208539,"finger_time":1551794207959,"fix_duration":866.0429211265294,"trial":46,"RT":851,"MT":580,"sideResp":1,"stimulus":[],"xmouse":[811,811,811,811,811,811,811,811,811,811,811,811,811,811,811,811,811,811,811,811,811,811,811,811,811,811,811,812,812,812,812,812,812,812,812,812,812,812,812,808,804,797,788,781,771,770,769,767,761,754,743,730,714,701,695,695,695,692,690,680,673,667,662,661,657,651,640,615,601,555,523,481],"ymouse":[486,486,486,486,486,486,486,486,486,486,486,486,486,486,484,481,481,481,481,481,481,481,481,481,481,481,480,480,480,480,480,480,480,480,480,480,480,480,480,477,475,472,466,461,452,449,444,436,423,408,392,376,358,347,343,343,343,342,340,325,312,297,286,277,264,256,243,214,197,143,116,86],"timestamp_mouse":[11,31,51,71,91,111,131,15