[{"start_time":1551794809931,"click_time":1551794812858,"finger_time":1551794809940,"fix_duration":250,"trial":0,"RT":9,"MT":2918,"sideResp":2,"stimulus":"img/900/equaldotsize/R/15_Ratio_900_L_9_R_10.png","xmouse":[792,792,792,792,792,792,792,792,792,792,792,792,792,792,792,792,792,792,792,792,792,792,792,792,792,792,792,792,792,792,792,792,792,792,792,792,792,792,792,792,792,792,792,792,792,792,792,792,792,792,792,792,792,792,792,792,792,792,792,792,792,792,792,792,792,792,792,792,792,792,792,792,792,792,792,792,792,792,792,792,792,792,792,792,792,792,792,792,792,792,792,792,792,792,792,792,792,792,792,792,792,792,792,792,792,792,792,792,792,792,792,792,792,792,792,792,792,792,792,792,792,796,797,798,800,802,808,815,825,838,845,850,853,857,867,886,967,1006,1006,1006,1006,1006,1006,1006,1075,1075,1079],"ymouse":[587,587,587,587,587,587,587,587,587,587,587,587,587,587,587,587,587,587,587,587,587,587,587,587,587,587,587,587,587,583,573,566,566,566,566,566,566,566,560,558,553,553,553,553,553,553,553,553,553,553,551,550,548,545,541,533,533,533,533,533,533,533,531,529,529,529,529,529,529,529,518,516,515,515,515,515,515,515,515,515,515,515,515,515,515,515,515,515,515,515,515,515,515,515,515,515,515,515,515,515,515,515,515,515,515,515,515,515,515,515,515,515,515,515,515,515,515,515,515,515,513,503,499,492,481,463,380,316,242,189,169,151,147,141,130,108,32,3,3,3,3,3,3,3,0,0,2],"timestamp_mouse":[9,26,47,67,86,106,127,146,166,186,206,227,247,267,286,307,326,347,366,387,406,426,446,465,486,506,527,547,566,586,606,627,647,665,687,707,726,746,765,786,805,827,846,867,887,906,926,947,966,986,1007,1025,1046,1065,1086,1106,1125,1147,1167,1186,1207,1226,1246,1266,1286,1306,1327,1345,1366,1386,1406,1425,1447,1466,1485,1506,1526,1546,1566,1586,1606,1627,1646,1666,1686,1706,1725,1747,1766,1786,1805,1827,1847,1866,1887,1905,1927,1946,1967,1986,2006,2026,2046,2066,2087,2106,2126,2146,2167,2186,2206,2226,2247,2266,2287,2307,2326,2347,2366,2386,2406,2426,2445,2466,2486,2506,2526,2546,2566,2586,2605,2625,2646,2667,2686,2706,2726,2746,2766,2786,2806,2826,2846,2866,2887,2906,2926],"xSR":741.5,"ySR":501.8,"xT1":424.9,"yT1":0,"xT2":1058.1,"yT2":0,"toosoon":0,"cond_shown":"equaldotsize","ratio_trial":900,"smaller_num":"9","larger_num":"10","correct_side":2,"subjID":"juanestebancabastorres31","gender":"0","age":"12","school":"6","test":{"fix_dur":[250,1500],"timestim":300,"targets_dim":[100,100],"targets_relative_coord":[0.3,0.7],"size_stim":[880,420],"start_dim":[100,100],"size_start":[300,300],"size_fix":60,"samplingrate":20,"img_types":["equaldotsize","equaldotanddens","randomdotsizeEA"],"ratios":[250,500,750,900],"rep_conds":9,"nTrials":120,"trials_to_rest":500,"Trials_order":[57,31,24,114,23,36,101,46,97,110,55,70,94,62,2,111,14,7,51,59,105,30,50,67,42,115,98,76,22,49,47,48,13,91,27,89,116,77,18,5,16,117,84,35,33,53,44,25,28,0,82,92,83,100,79,81,11,96,56,12,40,107,119,21,118,58,6,9,15,112,29,93,54,19,64,20,52,90,88,26,109,17,106,65,43,8,75,99,74,95,80,3,108,103,37,72,4,69,10,68,63,102,71,85,32,60,61,87,104,66,73,34,1,78,39,38,41,86,113,45],"cond_shown":["equaldotsize","equaldotanddens","equaldotsize","equaldotsize","randomdotsizeEA","equaldotsize","randomdotsizeEA","equaldotanddens","equaldotanddens","randomdotsizeEA","equaldotanddens","equaldotanddens","equaldotanddens","randomdotsizeEA","randomdotsizeEA","equaldotsize","randomdotsizeEA","equaldotanddens","equaldotsize","randomdotsizeEA","equaldotsize","equaldotsize","randomdotsizeEA","equaldotanddens","equaldotsize","equaldotanddens","randomdotsizeEA","equaldotanddens","equaldotanddens","equaldotanddens","randomdotsizeEA","equaldotsize","equaldotanddens","equaldotanddens","equaldotsize","randomdotsizeEA","randomdotsizeEA","randomdotsizeEA","equaldotsize","randomdotsizeEA","equaldotanddens","equaldotsize","equaldotsize","randomdotsizeEA","equaldotsize","randomdotsizeEA","randomdotsizeEA","equaldotanddens","equaldotanddens","equaldotsize","equaldotanddens","randomdotsizeEA","randomdotsizeEA","equaldotanddens","equaldotanddens","equaldotsize","randomdotsizeEA","equaldotsize","randomdotsizeEA","equaldotsize","equaldotanddens","randomdotsizeEA","randomdotsizeEA","equaldotsize","equaldotanddens","equaldotanddens","equaldotsize","equaldotsize","equaldotsize","equaldotanddens","randomdotsizeEA","equaldotsize","equaldotsize","equaldotanddens","equaldotanddens","randomdotsizeEA","equaldotanddens","equaldotsize","equaldotanddens","randomdotsizeEA","equaldotanddens","randomdotsizeEA","equaldotanddens","randomdotsizeEA","equaldotanddens","randomdotsizeEA","equaldotsize","equaldotsize","randomdotsizeEA","randomdotsizeEA","randomdotsizeEA","equaldotsize","equaldotsize","equaldotanddens","equaldotanddens","equaldotsize","equaldotanddens","equaldotsize","equaldotanddens","randomdotsizeEA","equaldotsize","equaldotsize","randomdotsizeEA","equaldotanddens","randomdotsizeEA","equaldotsize","equaldotanddens","equaldotsize","randomdotsizeEA","equaldotsize","equaldotanddens","equaldotanddens","equaldotanddens","equaldotsize","equaldotsize","randomdotsizeEA","randomdotsizeEA","randomdotsizeEA","randomdotsizeEA","equaldotsize"],"ratio_trial":[900,750,250,750,900,250,500,900,250,250,750,900,900,250,250,500,250,750,500,900,900,750,250,750,750,750,250,500,900,250,900,250,250,750,500,500,750,500,750,500,500,900,250,900,900,500,750,250,500,250,900,750,900,500,750,900,900,250,750,250,500,900,900,900,900,900,750,900,500,500,500,900,750,750,500,750,500,750,500,250,250,500,900,500,750,750,500,500,250,900,750,500,250,750,250,250,500,900,900,750,500,750,900,250,750,250,250,500,750,750,250,900,250,750,500,250,500,250,500,900],"smaller_num":["9","6","2","18","9","2","1","18","3","4","9","9","18","2","3","3","3","18","2","9","18","6","4","15","6","9","2","5","18","2","18","4","6","3","9","2","15","1","15","6","1","18","6","18","18","5","6","6","1","3","9","6","9","9","18","18","18","4","3","2","5","18","18","18","18","9","12","9","2","1","2","9","18","6","9","3","9","3","4","3","3","9","18","4","15","15","6","6","3","9","3","5","6","3","2","6","4","18","18","15","1","3","9","3","6","4","1","1","18","6","2","9","3","15","2","4","9","3","2","18"],"larger_num":["10","8","8","24","10","8","2","20","12","16","12","10","20","8","12","6","12","24","4","10","20","8","16","20","8","12","8","10","20","8","20","16","24","4","18","4","20","2","20","12","2","20","24","20","20","10","8","24","2","12","10","8","10","18","24","20","20","16","4","8","10","20","20","20","20","10","16","10","4","2","4","10","24","8","18","4","18","4","8","12","12","18","20","8","20","20","12","12","12","10","4","10","24","4","8","24","8","20","20","20","2","4","10","12","8","16","4","2","24","8","8","10","12","20","4","16","18","12","4","20"],"correct_side":[2,2,1,1,1,1,2,1,2,1,2,2,2,2,1,2,2,1,1,2,2,1,2,2,2,2,2,1,2,1,2,1,2,1,2,1,1,2,1,1,2,2,2,2,1,1,1,2,2,2,1,2,2,1,1,1,1,2,1,1,1,1,1,2,1,2,2,2,2,2,1,1,1,2,2,1,2,1,1,1,1,2,1,1,2,2,1,1,2,2,1,1,2,2,1,1,1,1,2,2,2,1,2,2,2,2,2,2,1,2,1,2,1,1,1,2,1,2,2,2],"img_shown":["img/900/equaldotsize/R/15_Ratio_900_L_9_R_10.png","img/750/equaldotanddens/R/2_Ratio_750_L_6_R_8.png","img/250/equaldotsize/L/7_Ratio_250_L_8_R_2.png","img/750/equaldotsize/L/6_Ratio_750_L_24_R_18.png","img/900/randomdotsizeEA/L/1_Ratio_900_L_10_R_9.png","img/250/equaldotsize/L/7_Ratio_250_L_8_R_2.png","img/500/randomdotsizeEA/R/15_Ratio_500_L_1_R_2.png","img/900/equaldotanddens/L/2_Ratio_900_L_20_R_18.png","img/250/equaldotanddens/R/9_Ratio_250_L_3_R_12.png","img/250/randomdotsizeEA/L/2_Ratio_250_L_16_R_4.png","img/750/equaldotanddens/R/15_Ratio_750_L_9_R_12.png","img/900/equaldotanddens/R/3_Ratio_900_L_9_R_10.png","img/900/equaldotanddens/R/12_Ratio_900_L_18_R_20.png","img/250/randomdotsizeEA/R/13_Ratio_250_L_2_R_8.png","img/250/randomdotsizeEA/L/14_Ratio_250_L_12_R_3.png","img/500/equaldotsize/R/2_Ratio_500_L_3_R_6.png","img/250/randomdotsizeEA/R/4_Ratio_250_L_3_R_12.png","img/750/equaldotanddens/L/6_Ratio_750_L_24_R_18.png","img/500/equaldotsize/L/5_Ratio_500_L_4_R_2.png","img/900/randomdotsizeEA/R/5_Ratio_900_L_9_R_10.png","img/900/equaldotsize/R/11_Ratio_900_L_18_R_20.png","img/750/equaldotsize/L/13_Ratio_750_L_8_R_6.png","img/250/randomdotsizeEA/R/10_Ratio_250_L_4_R_16.png","img/750/equaldotanddens/R/5_Ratio_750_L_15_R_20.png","img/750/equaldotsize/R/2_Ratio_750_L_6_R_8.png","img/750/equaldotanddens/R/15_Ratio_750_L_9_R_12.png","img/250/randomdotsizeEA/R/13_Ratio_250_L_2_R_8.png","img/500/equaldotanddens/L/7_Ratio_500_L_10_R_5.png","img/900/equaldotanddens/R/9_Ratio_900_L_18_R_20.png","img/250/equaldotanddens/L/3_Ratio_250_L_8_R_2.png","img/900/randomdotsizeEA/R/14_Ratio_900_L_18_R_20.png","img/250/equaldotsize/L/2_Ratio_250_L_16_R_4.png","img/250/equaldotanddens/R/6_Ratio_250_L_6_R_24.png","img/750/equaldotanddens/L/8_Ratio_750_L_4_R_3.png","img/500/equaldotsize/R/1_Ratio_500_L_9_R_18.png","img/500/randomdotsizeEA/L/10_Ratio_500_L_4_R_2.png","img/750/randomdotsizeEA/L/1_Ratio_750_L_20_R_15.png","img/500/randomdotsizeEA/R/12_Ratio_500_L_1_R_2.png","img/750/equaldotsize/L/1_Ratio_750_L_20_R_15.png","img/500/randomdotsizeEA/L/11_Ratio_500_L_12_R_6.png","img/500/equaldotanddens/R/12_Ratio_500_L_1_R_2.png","img/900/equaldotsize/R/11_Ratio_900_L_18_R_20.png","img/250/equaldotsize/R/6_Ratio_250_L_6_R_24.png","img/900/randomdotsizeEA/R/13_Ratio_900_L_18_R_20.png","img/900/equaldotsize/L/2_Ratio_900_L_20_R_18.png","img/500/randomdotsizeEA/L/7_Ratio_500_L_10_R_5.png","img/750/randomdotsizeEA/L/13_Ratio_750_L_8_R_6.png","img/250/equaldotanddens/R/6_Ratio_250_L_6_R_24.png","img/500/equaldotanddens/R/12_Ratio_500_L_1_R_2.png","img/250/equaldotsize/R/4_Ratio_250_L_3_R_12.png","img/900/equaldotanddens/L/1_Ratio_900_L_10_R_9.png","img/750/randomdotsizeEA/R/2_Ratio_750_L_6_R_8.png","img/900/randomdotsizeEA/R/7_Ratio_900_L_9_R_10.png","img/500/equaldotanddens/L/4_Ratio_500_L_18_R_9.png","img/750/equaldotanddens/L/6_Ratio_750_L_24_R_18.png","img/900/equaldotsize/L/10_Ratio_900_L_20_R_18.png","img/900/randomdotsizeEA/L/4_Ratio_900_L_20_R_18.png","img/250/equaldotsize/R/10_Ratio_250_L_4_R_16.png","img/750/randomdotsizeEA/L/8_Ratio_750_L_4_R_3.png","img/250/equaldotsize/L/7_Ratio_250_L_8_R_2.png","img/500/equaldotanddens/L/7_Ratio_500_L_10_R_5.png","img/900/randomdotsizeEA/L/8_Ratio_900_L_20_R_18.png","img/900/randomdotsizeEA/L/8_Ratio_900_L_20_R_18.png","img/900/equaldotsize/R/12_Ratio_900_L_18_R_20.png","img/900/equaldotanddens/L/4_Ratio_900_L_20_R_18.png","img/900/equaldotanddens/R/15_Ratio_900_L_9_R_10.png","img/750/equaldotsize/R/11_Ratio_750_L_12_R_16.png","img/900/equaldotsize/R/5_Ratio_900_L_9_R_10.png","img/500/equaldotsize/R/9_Ratio_500_L_2_R_4.png","img/500/equaldotanddens/R/15_Ratio_500_L_1_R_2.png","img/500/randomdotsizeEA/L/10_Ratio_500_L_4_R_2.png","img/900/equaldotsize/L/1_Ratio_900_L_10_R_9.png","img/750/equaldotsize/L/6_Ratio_750_L_24_R_18.png","img/750/equaldotanddens/R/2_Ratio_750_L_6_R_8.png","img/500/equaldotanddens/R/6_Ratio_500_L_9_R_18.png","img/750/randomdotsizeEA/L/9_Ratio_750_L_4_R_3.png","img/500/equaldotanddens/R/6_Ratio_500_L_9_R_18.png","img/750/equaldotsize/L/10_Ratio_750_L_4_R_3.png","img/500/equaldotanddens/L/8_Ratio_500_L_8_R_4.png","img/250/randomdotsizeEA/L/15_Ratio_250_L_12_R_3.png","img/250/equaldotanddens/L/15_Ratio_250_L_12_R_3.png","img/500/randomdotsizeEA/R/6_Ratio_500_L_9_R_18.png","img/900/equaldotanddens/L/8_Ratio_900_L_20_R_18.png","img/500/randomdotsizeEA/L/8_Ratio_500_L_8_R_4.png","img/750/equaldotanddens/R/4_Ratio_750_L_15_R_20.png","img/750/randomdotsizeEA/R/5_Ratio_750_L_15_R_20.png","img/500/equaldotsize/L/11_Ratio_500_L_12_R_6.png","img/500/equaldotsize/L/11_Ratio_500_L_12_R_6.png","img/250/randomdotsizeEA/R/4_Ratio_250_L_3_R_12.png","img/900/randomdotsizeEA/R/3_Ratio_900_L_9_R_10.png","img/750/randomdotsizeEA/L/10_Ratio_750_L_4_R_3.png","img/500/equaldotsize/L/7_Ratio_500_L_10_R_5.png","img/250/equaldotsize/R/6_Ratio_250_L_6_R_24.png","img/750/equaldotanddens/R/7_Ratio_750_L_3_R_4.png","img/250/equaldotanddens/L/3_Ratio_250_L_8_R_2.png","img/250/equaldotsize/L/5_Ratio_250_L_24_R_6.png","img/500/equaldotanddens/L/8_Ratio_500_L_8_R_4.png","img/900/equaldotsize/L/10_Ratio_900_L_20_R_18.png","img/900/equaldotanddens/R/11_Ratio_900_L_18_R_20.png","img/750/randomdotsizeEA/R/3_Ratio_750_L_15_R_20.png","img/500/equaldotsize/R/12_Ratio_500_L_1_R_2.png","img/750/equaldotsize/L/9_Ratio_750_L_4_R_3.png","img/900/randomdotsizeEA/R/6_Ratio_900_L_9_R_10.png","img/250/equaldotanddens/R/11_Ratio_250_L_3_R_12.png","img/750/randomdotsizeEA/R/2_Ratio_750_L_6_R_8.png","img/250/equaldotsize/R/10_Ratio_250_L_4_R_16.png","img/250/equaldotanddens/R/8_Ratio_250_L_1_R_4.png","img/500/equaldotsize/R/15_Ratio_500_L_1_R_2.png","img/750/randomdotsizeEA/L/6_Ratio_750_L_24_R_18.png","img/750/equaldotsize/R/2_Ratio_750_L_6_R_8.png","img/250/equaldotanddens/L/3_Ratio_250_L_8_R_2.png","img/900/equaldotanddens/R/15_Ratio_900_L_9_R_10.png","img/250/equaldotanddens/L/15_Ratio_250_L_12_R_3.png","img/750/equaldotsize/L/1_Ratio_750_L_20_R_15.png","img/500/equaldotsize/L/5_Ratio_500_L_4_R_2.png","img/250/randomdotsizeEA/R/10_Ratio_250_L_4_R_16.png","img/500/randomdotsizeEA/L/4_Ratio_500_L_18_R_9.png","img/250/randomdotsizeEA/R/9_Ratio_250_L_3_R_12.png","img/500/randomdotsizeEA/R/9_Ratio_500_L_2_R_4.png","img/900/equaldotsize/R/12_Ratio_900_L_18_R_20.png"],"Rat0":[["12_Ratio_0_L_9_R_0.png","13_Ratio_0_L_6_R_0.png","5_Ratio_0_L_2_R_0.png","6_Ratio_0_L_4_R_0.png","8_Ratio_0_L_6_R_0.png"],["1_Ratio_0_L_0_R_17.png","10_Ratio_0_L_0_R_22.png","11_Ratio_0_L_0_R_1.png","14_Ratio_0_L_0_R_24.png","15_Ratio_0_L_0_R_4.png","2_Ratio_0_L_0_R_5.png","3_Ratio_0_L_0_R_17.png","4_Ratio_0_L_0_R_7.png","7_Ratio_0_L_0_R_19.png","9_Ratio_0_L_0_R_15.png"]],"Rat250":[["1_Ratio_250_L_8_R_2.png","14_Ratio_250_L_12_R_3.png","15_Ratio_250_L_12_R_3.png","2_Ratio_250_L_16_R_4.png","3_Ratio_250_L_8_R_2.png","5_Ratio_250_L_24_R_6.png","7_Ratio_250_L_8_R_2.png"],["10_Ratio_250_L_4_R_16.png","11_Ratio_250_L_3_R_12.png","12_Ratio_250_L_5_R_20.png","13_Ratio_250_L_2_R_8.png","4_Ratio_250_L_3_R_12.png","6_Ratio_250_L_6_R_24.png","8_Ratio_250_L_1_R_4.png","9_Ratio_250_L_3_R_12.png"]],"Rat500":[["10_Ratio_500_L_4_R_2.png","11_Ratio_500_L_12_R_6.png","13_Ratio_500_L_12_R_6.png","4_Ratio_500_L_18_R_9.png","5_Ratio_500_L_4_R_2.png","7_Ratio_500_L_10_R_5.png","8_Ratio_500_L_8_R_4.png"],["1_Ratio_500_L_9_R_18.png","12_Ratio_500_L_1_R_2.png","14_Ratio_500_L_5_R_10.png","15_Ratio_500_L_1_R_2.png","2_Ratio_500_L_3_R_6.png","3_Ratio_500_L_10_R_20.png","6_Ratio_500_L_9_R_18.png","9_Ratio_500_L_2_R_4.png"]],"Rat750":[["1_Ratio_750_L_20_R_15.png","10_Ratio_750_L_4_R_3.png","13_Ratio_750_L_8_R_6.png","14_Ratio_750_L_8_R_6.png","6_Ratio_750_L_24_R_18.png","8_Ratio_750_L_4_R_3.png","9_Ratio_750_L_4_R_3.png"],["11_Ratio_750_L_12_R_16.png","12_Ratio_750_L_3_R_4.png","15_Ratio_750_L_9_R_12.png","2_Ratio_750_L_6_R_8.png","3_Ratio_750_L_15_R_20.png","4_Ratio_750_L_15_R_20.png","5_Ratio_750_L_15_R_20.png","7_Ratio_750_L_3_R_4.png"]],"Rat900":[["1_Ratio_900_L_10_R_9.png","10_Ratio_900_L_20_R_18.png","2_Ratio_900_L_20_R_18.png","4_Ratio_900_L_20_R_18.png","8_Ratio_900_L_20_R_18.png"],["11_Ratio_900_L_18_R_20.png","12_Ratio_900_L_18_R_20.png","13_Ratio_900_L_18_R_20.png","14_Ratio_900_L_18_R_20.png","15_Ratio_900_L_9_R_10.png","3_Ratio_900_L_9_R_10.png","5_Ratio_900_L_9_R_10.png","6_Ratio_900_L_9_R_10.png","7_Ratio_900_L_9_R_10.png","9_Ratio_900_L_18_R_20.png"]],"Rat1000":[["10_Ratio_1000_L_16_R_16.png","11_Ratio_1000_L_6_R_6.png","12_Ratio_1000_L_14_R_14.png","13_Ratio_1000_L_20_R_20.png","15_Ratio_1000_L_15_R_15.png","2_Ratio_1000_L_17_R_17.png","4_Ratio_1000_L_9_R_9.png","5_Ratio_1000_L_6_R_6.png","6_Ratio_1000_L_19_R_19.png","8_Ratio_1000_L_14_R_14.png","9_Ratio_1000_L_25_R_25.png"],["1_Ratio_1000_L_1_R_1.png","14_Ratio_1000_L_17_R_17.png","3_Ratio_1000_L_17_R_17.png","7_Ratio_1000_L_6_R_6.png"]]}},{"start_time":1551794815185,"click_time":1551794817117,"finger_time":1551794816556,"fix_duration":1285.842586101911,"trial":1,"RT":1371,"MT":561,"sideResp":2,"stimulus":"img/750/equaldotanddens/R/2_Ratio_750_L_6_R_8.png","xmouse":[804,804,804,804,804,804,804,804,804,804,804,804,804,804,804,804,804,804,804,804,804,804,804,804,804,804,804,804,804,804,804,804,804,804,804,804,804,804,804,804,804,804,804,804,804,804,804,804,804,804,804,804,804,804,804,804,804,804,804,804,804,804,804,804,804,804,804,817,839,858,875,878,891,895,897,897,898,907,917,934,937,945,986,1022,1041,1044,1044,1047,1047,1047,1047,1047,1047,1047,1050,1059],"ymouse":[501,501,501,501,501,501,501,501,501,501,501,501,501,501,501,501,501,501,501,501,501,501,501,501,501,501,501,501,501,501,501,501,501,501,501,501,501,501,501,501,501,501,501,501,501,501,501,501,501,501,501,501,501,501,501,501,501,501,501,501,501,501,501,501,501,501,501,461,387,312,186,112,43,36,34,34,34,31,28,26,26,28,64,90,100,101,101,100,99,99,99,99,99,99,94,86],"timestamp_mouse":[13,53,72,93,112,132,152,173,192,212,232,252,271,293,312,331,352,373,393,413,431,452,472,492,512,531,552,572,592,613,633,652,672,692,712,732,752,773,793,813,832,853,872,892,912,932,952,973,993,1012,1032,1052,1072,1093,1112,1132,1152,1172,1192,1213,1232,1252,1272,1292,1312,1332,1352,1371,1392,1413,1432,1452,1472,1492,1512,1532,1553,1573,1593,1612,1633,1653,1672,1692,1713,1731,1753,1772,1792,1813,1831,1853,1872,1892,1912,1932],"xSR":741.5,"ySR":469.95,"xT1":424.9,"yT1":0,"xT2":1058.1,"yT2":0,"toosoon":0,"cond_shown":"equaldotanddens","ratio_trial":750,"smaller_num":"6","larger_num":"8","correct_side":2,"subjID":"juanestebancabastorres31","gender":"0","age":"12","school":"6"},{"start_time":1551794819653,"click_time":1551794820659,"finger_time":1551794820357,"fix_duration":1214.228514658889,"trial":2,"RT":704,"MT":302,"sideResp":1,"stimulus":"img/250/equaldotsize/L/7_Ratio_250_L_8_R_2.png","xmouse":[794,794,794,794,794,794,794,794,794,794,794,794,794,794,794,794,794,794,794,794,794,794,794,794,794,794,794,794,794,794,794,794,794,792,784,776,724,699,678,651,609,523,496,481,478,478,478,480,488,492,500],"ymouse":[523,523,523,523,523,523,523,523,523,523,523,523,523,523,523,523,523,523,523,523,523,523,523,523,523,523,523,523,523,523,523,523,517,506,484,461,399,381,369,352,319,255,235,224,221,221,221,216,204,188,81],"timestamp_mouse":[12,34,43,64,84,103,124,144,164,183,204,225,244,264,285,304,324,344,364,384,404,425,445,464,485,504,525,545,565,585,605,625,644,664,683,704,724,744,764,785,805,824,844,865,884,904,925,944,964,985,1005],"xSR":741.5,"ySR":469.95,"xT1":424.9,"yT1":0,"xT2":1058.1,"yT2":0,"toosoon":0,"cond_shown":"equaldotsize","ratio_trial":250,"smaller_num":"2","larger_num":"8","correct_side":1,"subjID":"juanestebancabastorres31","gender":"0","age":"12","school":"6"},{"start_time":1551794821825,"click_time":1551794822997,"finger_time":1551794822717,"fix_duration":425.6042295048857,"trial":3,"RT":892,"MT":280,"sideResp":2,"stimulus":"img/750/equaldotsize/L/6_Ratio_750_L_24_R_18.png","xmouse":[818,818,818,818,818,818,818,818,818,818,818,818,818,818,818,818,818,818,818,818,818,818,818,818,818,818,818,818,818,818,818,818,818,818,818,818,818,818,818,818,818,818,819,822,832,846,874,890,900,914,931,946,973,991,1014,1036,1061,1102,1105],"ymouse":[525,525,525,525,525,525,525,525,525,525,525,525,525,525,525,525,525,525,525,525,525,525,525,525,525,525,525,525,525,525,525,525,525,525,525,525,525,525,525,525,524,520,512,500,448,397,324,292,280,267,259,252,243,234,219,200,172,109,93],"timestamp_mouse":[12,42,52,73,93,113,133,152,172,192,212,232,252,272,292,311,333,351,372,392,413,433,453,473,491,513,533,551,573,593,613,632,651,672,693,713,733,753,772,793,812,833,852,872,892,912,933,952,972,993,1012,1032,1052,1072,1092,1113,1132,1152,1172],"xSR":741.5,"ySR":469.95,"xT1":424.9,"yT1":0,"xT2":1058.1,"yT2":0,"toosoon":0,"cond_shown":"equaldotsize","ratio_trial":750,"smaller_num":"18","larger_num":"24","correct_side":1,"subjID":"juanestebancabastorres31","gender":"0","age":"12","school":"6"},{"start_time":1551794826274,"click_time":1551794827478,"finger_time":1551794827177,"fix_duration":576.743676723064,"trial":4,"RT":903,"MT":301,"sideResp":1,"stimulus":"img/900/randomdotsizeEA/L/1_Ratio_900_L_10_R_9.png","xmouse":[816,816,816,816,816,816,816,816,816,816,816,816,816,816,816,816,816,816,816,816,816,816,816,816,816,816,816,816,816,816,816,816,816,816,816,816,816,816,816,816,816,816,816,816,816,796,769,730,672,571,571,571,571,571,571,571,571,571,571,571,508],"ymouse":[520,520,520,520,520,520,520,520,520,520,520,520,520,520,520,520,520,520,520,520,520,520,520,520,520,520,520,520,520,520,520,520,520,520,520,520,520,520,520,520,520,520,520,520,519,441,372,300,181,7,7,7,7,7,7,7,7,7,7,7,12],"timestamp_mouse":[10,24,43,64,84,102,123,144,163,183,203,224,243,264,283,303,324,343,363,383,402,423,444,463,483,504,523,543,563,583,603,623,643,663,683,703,724,743,764,783,803,823,844,863,883,903,923,944,963,984,1003,1023,1044,1063,1083,1104,1124,1143,1164,1183,1203],"xSR":741.5,"ySR":469.95,"xT1":424.9,"yT1":0,"xT2":1058.1,"yT2":0,"toosoon":0,"cond_shown":"randomdotsizeEA","ratio_trial":900,"smaller_num":"9","larger_num":"10","correct_side":1,"subjID":"juanestebancabastorres31","gender":"0","age":"12","school":"6"},{"start_time":1551794829572,"click_time":1551794830597,"finger_time":1551794830057,"fix_duration":1093.861092756194,"trial":5,"RT":485,"MT":540,"sideResp":1,"stimulus":"img/250/equaldotsize/L/7_Ratio_250_L_8_R_2.png","xmouse":[776,776,776,776,776,776,776,776,776,776,776,776,776,775,774,773,773,773,773,773,771,770,766,757,745,732,724,719,713,704,694,677,670,660,654,636,617,601,577,555,531,529,529,529,529,529,529,529,529,528,525,520],"ymouse":[554,554,554,554,554,554,554,554,554,554,554,554,553,551,543,539,538,538,538,538,532,521,502,476,449,423,400,386,373,359,348,335,330,321,313,291,265,242,206,165,115,110,110,110,110,110,110,110,110,109,99,92],"timestamp_mouse":[9,38,45,65,85,105,126,144,165,186,205,226,246,265,286,305,325,344,366,384,406,425,445,465,485,505,525,545,565,585,605,625,645,664,685,706,725,746,764,785,806,825,845,865,886,906,926,946,965,984,1006,1025],"xSR":741.5,"ySR":469.95,"xT1":424.9,"yT1":0,"xT2":1058.1,"yT2":0,"toosoon":0,"cond_shown":"equaldotsize","ratio_trial":250,"smaller_num":"2","larger_num":"8","correct_side":1,"subjID":"juanestebancabastorres31","gender":"0","age":"12","school":"6"},{"start_time":1551794832499,"click_time":1551794833697,"finger_time":1551794833357,"fix_duration":581.2137247561911,"trial":6,"RT":858,"MT":340,"sideResp":1,"stimulus":"img/500/randomdotsizeEA/R/15_Ratio_500_L_1_R_2.png","xmouse":[780,780,779,779,779,779,779,779,779,779,779,779,779,779,779,779,779,779,779,779,779,779,779,779,779,779,779,779,779,779,779,779,779,779,779,779,779,779,779,779,774,765,753,735,694,673,654,626,603,551,520,489,457,443,441,441,441,434,432,429],"ymouse":[507,507,507,507,507,507,507,507,507,507,507,507,507,507,507,507,507,507,507,507,507,507,507,507,507,507,507,507,507,507,507,507,507,507,507,507,507,507,507,507,493,473,444,412,358,339,323,304,291,268,254,236,219,210,203,187,161,122,102,90],"timestamp_mouse":[31,39,59,78,98,118,138,158,179,198,217,238,258,278,299,318,338,358,378,399,417,438,457,478,497,519,538,558,578,598,619,638,658,678,698,717,738,757,779,797,818,839,858,879,899,918,938,959,978,998,1018,1038,1059,1078,1098,1119,1138,1159,1179,1197],"xSR":741.5,"ySR":469.95,"xT1":424.9,"yT1":0,"xT2":1058.1,"yT2":0,"toosoon":0,"cond_shown":"randomdotsizeEA","ratio_trial":500,"smaller_num":"1","larger_num":"2","correct_side":2,"subjID":"juanestebancabastorres31","gender":"0","age":"12","school":"6"},{"start_time":1551794835617,"click_time":1551794836798,"finger_time":1551794836397,"fix_duration":1078.7164058046092,"trial":7,"RT":780,"MT":401,"sideResp":2,"stimulus":"img/900/equaldotanddens/L/2_Ratio_900_L_20_R_18.png","xmouse":[789,789,789,789,789,789,789,789,789,789,789,789,789,789,789,789,789,789,790,793,793,793,793,793,793,793,793,793,793,793,793,793,793,793,793,793,793,802,815,901,948,965,972,976,979,980,981,984,985,985,987,989,993,1002,1020,1032,1042,1055,1067,1082],"ymouse":[514,514,514,514,514,514,514,514,514,514,514,514,514,514,514,514,514,514,513,510,510,510,510,510,510,510,510,510,510,510,510,510,510,510,510,510,510,502,485,367,282,244,222,206,186,181,177,172,170,169,167,165,159,150,133,123,114,106,100,93],"timestamp_mouse":[8,33,40,61,81,100,121,141,160,180,201,220,240,260,280,300,320,340,360,380,400,420,440,460,480,501,520,540,561,581,600,620,641,661,680,700,719,740,760,780,800,820,841,859,880,900,920,939,961,981,1000,1020,1040,1061,1080,1100,1121,1141,1160,1181],"xSR":741.5,"ySR":469.95,"xT1":424.9,"yT1":0,"xT2":1058.1,"yT2":0,"toosoon":0,"cond_shown":"equaldotanddens","ratio_trial":900,"smaller_num":"18","larger_num":"20","correct_side":1,"subjID":"juanestebancabastorres31","gender":"0","age":"12","school":"6"},{"start_time":1551794838294,"click_time":1551794839297,"finger_time":1551794838977,"fix_duration":255.1426184168112,"trial":8,"RT":683,"MT":320,"sideResp":2,"stimulus":"img/250/equaldotanddens/R/9_Ratio_250_L_3_R_12.png","xmouse":[795,795,795,795,795,795,795,795,795,795,795,795,795,795,795,795,795,795,795,795,795,795,795,795,795,795,795,795,795,795,795,795,803,822,849,881,971,989,1001,1011,1020,1043,1057,1070,1082,1089,1092,1094,1096,1101,1103],"ymouse":[522,522,522,522,522,522,522,522,522,522,522,522,522,522,522,522,522,522,522,522,522,522,522,522,522,522,522,522,522,522,522,522,517,500,476,442,327,300,276,258,242,211,190,172,156,145,135,131,124,103,73],"timestamp_mouse":[8,36,43,63,83,104,124,143,164,184,204,223,243,263,282,303,324,343,363,383,404,423,443,463,483,504,523,543,564,584,603,623,643,663,683,703,723,743,763,783,803,823,843,863,883,903,923,943,963,983,1003],"xSR":741.5,"ySR":469.95,"xT1":424.9,"yT1":0,"xT2":1058.1,"yT2":0,"toosoon":0,"cond_shown":"equaldotanddens","ratio_trial":250,"smaller_num":"3","larger_num":"12","correct_side":2,"subjID":"juanestebancabastorres31","gender":"0","age":"12","school":"6"},{"start_time":1551794841141,"click_time":1551794845137,"finger_time":1551794841977,"fix_duration":901.4461112366689,"trial":9,"RT":836,"MT":3160,"sideResp":1,"stimulus":"img/250/randomdotsizeEA/L/2_Ratio_250_L_16_R_4.png","xmouse":[767,767,767,767,767,767,767,767,767,767,767,767,767,767,767,767,767,767,767,767,767,767,767,767,767,767,767,767,767,767,767,767,767,767,767,767,767,767,767,767,788,838,884,929,946,958,971,981,997,1002,1007,1012,1018,1028,1031,1031,1032,1034,1049,1058,1068,1074,1074,1074,1074,1074,1074,1074,1074,1074,1074,1074,1074,1074,1074,1074,1074,1074,1074,1074,1074,1074,1074,1075,1075,1075,1075,1075,1075,1075,1075,1075,1075,1075,1075,1075,1075,1075,1075,1075,1075,1075,1075,1075,1074,1073,1071,1070,1069,1069,1069,1069,1069,1069,1069,1069,1069,1069,1069,1069,1069,1069,1069,1069,1069,1069,1069,1069,1069,1069,1069,1069,1069,1069,1066,1063,1061,1060,1059,1059,1059,1056,1054,1054,1054,1054,1054,1054,1054,1054,1054,1049,1037,1022,1015,1012,1012,1012,1012,1011,1007,997,984,958,946,938,927,914,888,881,873,870,866,850,834,822,811,800,782,734,704,688,677,664,653,642,629,614,591,585,585,585,585,579,572,567,561,558,538,524],"ymouse":[514,514,514,514,514,514,514,514,514,514,514,514,514,514,514,514,514,514,514,514,514,514,514,514,514,514,514,514,514,514,514,514,514,514,514,514,514,514,514,514,503,466,436,401,386,372,357,345,322,310,294,281,267,239,227,221,215,211,190,181,171,166,166,166,166,166,166,166,166,166,166,166,166,166,166,166,166,166,166,166,166,164,161,159,159,157,155,154,151,150,150,150,150,150,150,150,150,148,143,141,141,141,141,139,135,133,130,129,128,128,128,128,128,128,128,128,128,128,128,128,128,128,128,128,128,128,128,128,128,128,128,128,128,128,122,117,115,113,112,112,112,109,108,108,108,108,108,108,108,108,108,106,100,94,91,89,89,89,89,89,89,86,82,75,73,72,70,69,65,64,64,63,63,63,63,63,64,65,66,66,66,66,65,64,64,63,60,57,50,48,48,48,48,48,48,48,48,48,53,58],"timestamp_mouse":[17,41,56,76,97,116,136,156,176,196,217,237,257,276,297,317,336,357,377,395,417,436,456,477,496,516,536,556,576,596,616,636,655,676,696,716,736,758,777,795,816,836,856,875,896,916,936,957,975,996,1015,1037,1056,1077,1096,1116,1137,1156,1176,1196,1216,1236,1257,1277,1297,1316,1336,1356,1376,1397,1416,1437,1456,1476,1496,1516,1536,1557,1576,1596,1616,1636,1656,1676,1696,1717,1737,1757,1776,1796,1816,1837,1857,1876,1896,1916,1936,1957,1976,1997,2016,2037,2056,2076,2096,2116,2136,2157,2176,2197,2215,2236,2256,2276,2296,2316,2336,2356,2376,2396,2416,2436,2455,2476,2496,2516,2537,2555,2577,2596,2616,2636,2656,2677,2696,2716,2737,2756,2777,2796,2816,2836,2856,2876,2896,2917,2936,2957,2977,2996,3016,3036,3057,3076,3096,3116,3136,3157,3177,3196,3216,3236,3256,3276,3296,3316,3336,3356,3376,3396,3416,3437,3457,3476,3495,3516,3536,3556,3576,3597,3616,3636,3657,3676,3695,3716,3736,3757,3776,3796,3816,3836,3856,3876,3896,3916,3936,3956,3976,3996],"xSR":741.5,"ySR":469.95,"xT1":424.9,"yT1":0,"xT2":1058.1,"yT2":0,"toosoon":0,"cond_shown":"randomdotsizeEA","ratio_trial":250,"smaller_num":"4","larger_num":"16","correct_side":1,"subjID":"juanestebancabastorres31","gender":"0","age":"12","school":"6"},{"start_time":1551794847056,"click_time":1551794848237,"finger_time":1551794847696,"fix_duration":816.6302244994895,"trial":10,"RT":640,"MT":541,"sideResp":2,"stimulus":"img/750/equaldotanddens/R/15_Ratio_750_L_9_R_12.png","xmouse":[818,818,818,818,818,818,818,818,818,818,818,818,818,818,818,818,818,818,818,818,818,818,818,818,818,818,818,818,818,818,829,835,845,870,895,917,938,957,977,983,998,1022,1059,1104,1112,1118,1123,1128,1135,1146,1148,1148,1148,1148,1146,1146,1145,1145,1144,1142],"ymouse":[547,547,547,547,547,547,547,547,547,547,547,547,547,547,547,547,547,547,547,547,547,547,547,547,547,547,547,547,547,547,525,515,497,456,422,396,377,360,343,338,332,325,312,273,261,249,238,225,208,178,165,150,139,128,113,107,105,103,100,95],"timestamp_mouse":[8,34,42,61,82,101,120,142,161,182,200,222,241,262,281,301,322,341,362,382,401,422,442,462,482,500,521,541,562,581,601,622,640,662,680,701,722,741,762,781,802,821,841,863,881,902,921,941,961,981,1002,1021,1041,1061,1082,1101,1122,1141,1161,1181],"xSR":741.5,"ySR":469.95,"xT1":424.9,"yT1":0,"xT2":1058.1,"yT2":0,"toosoon":0,"cond_shown":"equaldotanddens","ratio_trial":750,"smaller_num":"9","larger_num":"12","correct_side":2,"subjID":"juanestebancabastorres31","gender":"0","age":"12","school":"6"},{"start_time":1551794850795,"click_time":1551794851598,"finger_time":1551794851336,"fix_duration":1114.7608771774992,"trial":11,"RT":541,"MT":262,"sideResp":2,"stimulus":"img/900/equaldotanddens/R/3_Ratio_900_L_9_R_10.png","xmouse":[817,817,817,817,817,817,817,817,817,817,817,817,817,817,817,817,817,817,817,817,817,817,817,817,817,821,832,869,885,905,940,969,1011,1039,1047,1071,1084,1100,1108,1116,1121],"ymouse":[521,521,521,521,521,521,521,521,521,521,521,521,521,521,521,521,521,521,521,521,521,521,521,521,521,515,493,430,397,358,299,255,205,179,172,155,147,132,118,102,88],"timestamp_mouse":[8,22,43,63,82,102,122,143,162,182,202,223,242,262,283,301,323,342,363,382,401,423,443,462,482,502,522,541,563,582,602,623,641,662,682,702,722,742,762,782,803],"xSR":741.5,"ySR":469.95,"xT1":424.9,"yT1":0,"xT2":1058.1,"yT2":0,"toosoon":0,"cond_shown":"equaldotanddens","ratio_trial":900,"smaller_num":"9","larger_num":"10","correct_side":2,"subjID":"juanestebancabastorres31","gender":"0","age":"12","school":"6"},{"start_time":1551794853679,"click_time":1551794854357,"finger_time":1551794854157,"fix_duration":1058.60665559686,"trial":12,"RT":478,"MT":200,"sideResp":2,"stimulus":"img/900/equaldotanddens/R/12_Ratio_900_L_18_R_20.png","xmouse":[778,778,778,778,778,778,778,778,778,778,778,778,778,778,778,778,778,778,778,780,782,785,795,812,898,939,960,971,990,1009,1020,1030,1038,1053,1061],"ymouse":[515,515,515,515,515,515,515,515,515,515,515,515,515,515,515,515,515,515,515,511,509,506,496,476,333,261,224,202,169,142,128,117,108,90,80],"timestamp_mouse":[1,18,39,58,79,98,119,139,158,178,198,218,237,258,279,298,318,338,358,378,398,418,438,458,478,498,519,538,558,578,598,618,638,659,678],"xSR":741.5,"ySR":469.95,"xT1":424.9,"yT1":0,"xT2":1058.1,"yT2":0,"toosoon":0,"cond_shown":"equaldotanddens","ratio_trial":900,"smaller_num":"18","larger_num":"20","correct_side":2,"subjID":"juanestebancabastorres31","gender":"0","age":"12","school":"6"},{"start_time":1551794856208,"click_time":1551794857017,"finger_time":1551794856957,"fix_duration":250,"trial":13,"RT":749,"MT":60,"sideResp":2,"stimulus":"img/250/randomdotsizeEA/R/13_Ratio_250_L_2_R_8.png","xmouse":[808,808,808,808,808,808,808,808,808,808,808,808,808,808,808,808,808,808,808,808,808,808,808,808,808,808,808,808,808,808,808,808,808,808,808,809,822,944,1030,1100,1149],"ymouse":[537,537,537,537,537,537,537,537,537,537,537,537,537,537,537,537,537,537,537,537,537,537,537,537,537,537,537,537,537,537,537,537,537,537,537,534,516,372,224,101,23],"timestamp_mouse":[11,29,50,69,89,108,129,149,170,190,210,229,249,269,290,310,330,350,370,390,409,429,450,470,489,509,530,550,569,589,609,630,649,670,690,709,729,749,769,789,809],"xSR":741.5,"ySR":469.95,"xT1":424.9,"yT1":0,"xT2":1058.1,"yT2":0,"toosoon":0,"cond_shown":"randomdotsizeEA","ratio_trial":250,"smaller_num":"2","larger_num":"8","correct_side":2,"subjID":"juanestebancabastorres31","gender":"0","age":"12","school":"6"},{"start_time":1551794858209,"click_time":1551794859278,"finger_time":1551794858937,"fix_duration":250,"trial":14,"RT":728,"MT":341,"sideResp":1,"stimulus":"img/250/randomdotsizeEA/L/14_Ratio_250_L_12_R_3.png","xmouse":[806,806,806,806,806,806,806,806,806,806,806,806,806,806,806,806,806,806,806,806,806,806,806,806,806,806,806,806,806,806,806,806,798,793,781,768,756,726,710,693,664,655,650,648,643,630,605,517,486,476,476,476,474,471],"ymouse":[518,518,518,518,518,518,518,518,518,518,518,518,518,518,518,518,518,518,518,518,518,518,518,518,518,518,518,518,518,518,518,518,506,502,490,474,454,400,371,346,304,293,288,286,280,264,228,141,119,112,112,112,105,90],"timestamp_mouse":[9,31,49,68,88,108,128,148,167,188,208,229,248,268,288,308,328,349,368,388,408,428,448,469,489,509,528,548,568,589,608,628,648,668,688,708,728,747,768,789,809,829,848,868,888,908,928,948,969,988,1008,1028,1047,1068],"xSR":741.5,"ySR":469.95,"xT1":424.9,"yT1":0,"xT2":1058.1,"yT2":0,"toosoon":0,"cond_shown":"randomdotsizeEA","ratio_trial":250,"smaller_num":"3","larger_num":"12","correct_side":1,"subjID":"juanestebancabastorres31","gender":"0","age":"12","school":"6"},{"start_time":1551794860349,"click_time":1551794861397,"finger_time":1551794861057,"fix_duration":250,"trial":15,"RT":708,"MT":340,"sideResp":2,"stimulus":"img/500/equaldotsize/R/2_Ratio_500_L_3_R_6.png","xmouse":[809,809,809,809,809,809,809,809,809,809,809,809,809,809,809,809,809,809,809,809,809,809,809,809,809,809,809,809,809,809,809,809,809,809,810,843,867,899,927,948,970,979,990,996,1002,1015,1021,1023,1025,1026,1038,1046,1061],"ymouse":[531,531,531,531,531,531,531,531,531,531,531,531,531,531,531,531,531,531,531,531,531,531,531,531,531,531,531,531,531,531,531,531,531,531,531,484,430,365,300,249,199,185,166,153,140,121,110,106,103,102,95,91,85],"timestamp_mouse":[8,40,48,69,88,107,129,148,168,188,209,228,247,268,288,308,328,348,368,389,409,428,448,469,487,508,528,548,568,589,608,629,649,668,688,708,728,748,768,788,808,828,848,868,889,908,928,948,968,989,1009,1028,1048],"xSR":741.5,"ySR":469.95,"xT1":424.9,"yT1":0,"xT2":1058.1,"yT2":0,"toosoon":0,"cond_shown":"equaldotsize","ratio_trial":500,"smaller_num":"3","larger_num":"6","correct_side":2,"subjID":"juanestebancabastorres31","gender":"0","age":"12","school":"6"},{"start_time":1551794862446,"click_time":1551794863197,"finger_time":1551794863137,"fix_duration":267.4030075420569,"trial":16,"RT":691,"MT":60,"sideResp":2,"stimulus":"img/250/randomdotsizeEA/R/4_Ratio_250_L_3_R_12.png","xmouse":[813,813,813,813,813,813,813,813,813,813,813,813,813,813,813,813,813,813,813,813,813,813,813,813,813,813,813,813,813,813,813,813,813,820,847,903,1060,1156],"ymouse":[510,510,510,510,510,510,510,510,510,510,510,510,510,510,510,510,510,510,510,510,510,510,510,510,510,510,510,510,510,510,510,510,501,489,445,351,151,80],"timestamp_mouse":[11,31,51,72,91,111,131,151,172,191,211,231,251,271,292,312,331,352,372,392,412,431,452,470,491,511,531,551,572,590,611,632,651,672,691,712,731,751],"xSR":741.5,"ySR":469.95,"xT1":424.9,"yT1":0,"xT2":1058.1,"yT2":0,"toosoon":0,"cond_shown":"randomdotsizeEA","ratio_trial":250,"smaller_num":"3","larger_num":"12","correct_side":2,"subjID":"juanestebancabastorres31","gender":"0","age":"12","school":"6"},{"start_time":1551794864817,"click_time":1551794865558,"finger_time":1551794865197,"fix_duration":318.82939999919637,"trial":17,"RT":380,"MT":361,"sideResp":2,"stimulus":"img/750/equaldotanddens/L/6_Ratio_750_L_24_R_18.png","xmouse":[798,798,798,798,798,798,798,798,798,798,798,798,799,800,802,803,806,810,813,817,827,838,849,868,874,881,887,894,902,907,916,927,940,964,978,993,1011,1089],"ymouse":[478,478,478,478,478,478,478,478,478,478,478,478,478,478,478,478,477,474,473,469,463,456,449,433,425,413,402,385,367,356,339,321,301,274,262,248,227,95],"timestamp_mouse":[8,20,41,60,81,101,120,140,161,181,201,220,241,260,280,301,320,341,360,380,400,421,440,460,480,500,520,540,560,580,600,621,639,660,681,700,720,741],"xSR":741.5,"ySR":469.95,"xT1":424.9,"yT1":0,"xT2":1058.1,"yT2":0,"toosoon":0,"cond_shown":"equaldotanddens","ratio_trial":750,"smaller_num":"18","larger_num":"24","correct_side":1,"subjID":"juanestebancabastorres31","gender":"0","age":"12","school":"6"},{"start_time":1551794867000,"click_time":1551794867997,"finger_time":1551794867498,"fix_duration":440.00661058173154,"trial":18,"RT":498,"MT":499,"sideResp":1,"stimulus":"img/500/equaldotsize/L/5_Ratio_500_L_4_R_2.png","xmouse":[792,793,794,794,795,795,795,795,795,795,795,795,795,795,795,796,797,799,804,808,810,811,813,816,818,817,808,801,781,770,752,724,704,663,646,629,603,585,565,559,554,546,535,515,514,514,514,514,514,514],"ymouse":[500,499,498,498,497,497,497,497,497,497,497,497,497,497,497,496,495,493,489,487,486,485,483,475,462,430,407,391,364,352,335,314,298,268,252,239,221,209,193,186,178,164,146,113,110,110,110,110,102,91],"timestamp_mouse":[18,39,56,78,97,117,137,158,177,198,217,237,257,278,298,317,338,358,377,397,418,438,457,477,498,516,537,558,577,598,618,637,658,676,698,716,737,758,777,797,817,837,857,877,897,916,937,958,977,997],"xSR":741.5,"ySR":469.95,"xT1":424.9,"yT1":0,"xT2":1058.1,"yT2":0,"toosoon":0,"cond_shown":"equaldotsize","ratio_trial":500,"smaller_num":"2","larger_num":"4","correct_side":1,"subjID":"juanestebancabastorres31","gender":"0","age":"12","school":"6"},{"start_time":1551794869955,"click_time":1551794870998,"finger_time":1551794870758,"fix_duration":1275.6394106662215,"trial":19,"RT":803,"MT":240,"sideResp":2,"stimulus":"img/900/randomdotsizeEA/R/5_Ratio_900_L_9_R_10.png","xmouse":[775,775,775,775,775,775,775,775,775,775,775,775,775,776,777,777,777,777,778,778,778,778,778,778,778,778,778,778,778,778,778,778,779,779,779,780,783,794,809,825,842,902,922,939,951,957,964,969,987,1010,1033,1086,1109],"ymouse":[555,555,555,555,555,555,555,555,555,555,555,555,555,554,554,554,554,554,553,553,553,553,553,553,553,553,553,553,553,553,553,553,549,548,547,545,537,521,502,481,461,371,343,319,303,292,279,271,242,211,184,124,99],"timestamp_mouse":[3,38,42,63,84,102,122,143,163,183,203,222,243,263,282,303,323,342,364,383,403,423,455,462,482,503,523,543,563,582,603,622,642,662,684,704,722,742,763,783,803,823,843,863,882,902,923,943,962,983,1002,1023,1043],"xSR":741.5,"ySR":469.95,"xT1":424.9,"yT1":0,"xT2":1058.1,"yT2":0,"toosoon":0,"cond_shown":"randomdotsizeEA","ratio_trial":900,"smaller_num":"9","larger_num":"10","correct_side":2,"subjID":"juanestebancabastorres31","gender":"0","age":"12","school":"6"},{"start_time":1551794874578,"click_time":1551794875598,"finger_time":1551794875198,"fix_duration":1239.025059981542,"trial":20,"RT":620,"MT":400,"sideResp":2,"stimulus":"img/900/equaldotsize/R/11_Ratio_900_L_18_R_20.png","xmouse":[795,795,795,795,795,795,795,795,795,795,795,795,795,795,795,795,795,795,795,795,795,795,795,795,795,795,795,795,795,798,804,835,858,887,913,950,960,968,978,989,1004,1007,1007,1007,1007,1007,1007,1007,1013,1028,1047,1075],"ymouse":[523,523,523,523,523,523,523,523,523,523,523,523,523,523,523,523,523,523,523,523,523,523,523,523,523,523,523,523,523,520,512,456,412,345,280,186,164,146,128,107,81,78,78,78,78,78,78,78,77,75,69,62],"timestamp_mouse":[3,22,42,59,80,100,119,139,159,179,199,219,241,259,279,301,320,340,359,380,399,420,441,459,481,499,519,539,561,579,601,620,639,659,681,701,719,739,760,781,801,819,840,859,879,899,920,940,959,980,999,1019],"xSR":741.5,"ySR":469.95,"xT1":424.9,"yT1":0,"xT2":1058.1,"yT2":0,"toosoon":0,"cond_shown":"equaldotsize","ratio_trial":900,"smaller_num":"18","larger_num":"20","correct_side":2,"subjID":"juanestebancabastorres31","gender":"0","age":"12","school":"6"},{"start_time":1551794877222,"click_time":1551794880378,"finger_time":1551794877898,"fix_duration":962.8049087632064,"trial":21,"RT":676,"MT":2480,"sideResp":1,"stimulus":"img/750/equaldotsize/L/13_Ratio_750_L_8_R_6.png","xmouse":[777,777,777,779,781,782,782,782,782,782,782,782,782,782,782,782,782,782,782,782,782,783,784,786,788,789,790,791,793,794,800,807,821,857,868,878,893,907,940,953,973,986,998,1012,1014,1017,1020,1023,1026,1034,1044,1048,1049,1049,1049,1049,1049,1049,1049,1049,1051,1054,1055,1057,1057,1057,1057,1057,1057,1057,1057,1057,1057,1041,962,933,915,905,895,881,857,844,840,831,828,825,820,811,799,757,730,689,654,621,618,618,618,618,610,598,591,589,588,583,580,578,576,575,570,568,566,564,561,558,557,553,547,539,536,536,536,536,536,536,536,536,536,536,536,536,536,536,536,533,533,533,533,533,533,533,533,533,533,533,533,533,532,529,526,525,525,525,525,525,525,525,525,523],"ymouse":[550,550,550,551,551,551,551,551,551,551,551,551,551,551,551,551,551,551,551,551,551,551,551,549,546,545,544,543,541,540,534,521,490,401,375,352,322,298,247,228,203,189,174,151,144,136,131,126,123,115,106,103,102,102,102,102,102,102,102,102,102,100,100,99,99,99,99,99,99,99,99,99,98,95,86,87,97,103,107,110,116,120,121,123,123,123,121,117,112,94,83,66,51,39,39,39,39,39,40,44,46,47,48,51,52,53,54,54,57,58,59,60,62,63,63,65,68,71,72,72,72,72,72,72,72,72,72,72,72,72,72,72,72,74,74,74,74,74,74,74,74,74,74,74,74,74,74,75,75,75,75,75,75,75,75,76,76,77],"timestamp_mouse":[15,41,55,75,96,116,136,156,177,195,215,235,255,277,295,315,337,355,377,396,417,435,455,475,495,516,536,557,575,596,616,635,657,675,696,715,736,756,775,796,816,835,857,876,896,917,936,955,975,995,1016,1036,1057,1076,1095,1117,1136,1157,1176,1196,1216,1236,1256,1277,1295,1316,1336,1357,1376,1397,1417,1436,1455,1476,1496,1515,1536,1555,1576,1596,1616,1636,1657,1676,1696,1716,1736,1755,1776,1797,1815,1835,1857,1876,1896,1916,1936,1955,1976,1995,2016,2037,2057,2076,2095,2116,2136,2155,2175,2195,2216,2237,2256,2277,2296,2315,2335,2357,2376,2395,2416,2437,2456,2476,2496,2515,2535,2557,2576,2596,2616,2636,2655,2677,2696,2716,2735,2755,2777,2796,2816,2836,2857,2876,2895,2915,2935,2956,2976,2997,3017,3036,3057,3077,3096,3115,3136,3156],"xSR":741.5,"ySR":469.95,"xT1":424.9,"yT1":0,"xT2":1058.1,"yT2":0,"toosoon":0,"cond_shown":"equaldotsize","ratio_trial":750,"smaller_num":"6","larger_num":"8","correct_side":1,"subjID":"juanestebancabastorres31","gender":"0","age":"12","school":"6"},{"start_time":1551794881935,"click_time":1551794882878,"finger_time":1551794882638,"fix_duration":556.4107889957797,"trial":22,"RT":703,"MT":240,"sideResp":2,"stimulus":"img/250/randomdotsizeEA/R/10_Ratio_250_L_4_R_16.png","xmouse":[837,837,837,837,837,837,837,837,837,837,837,837,837,837,837,837,837,837,837,837,837,837,837,837,837,837,837,837,837,837,837,837,837,837,837,843,847,851,856,888,926,969,1003,1032,1050,1057,1063,1070],"ymouse":[515,515,515,515,515,515,515,515,515,515,515,515,515,515,515,515,515,515,515,515,515,515,515,515,515,515,515,515,515,515,515,515,515,515,515,505,488,476,456,378,312,246,200,159,126,112,101,89],"timestamp_mouse":[8,31,43,63,83,103,123,142,163,183,202,223,242,264,282,302,324,342,362,383,402,424,442,464,482,503,522,542,563,582,603,624,644,664,682,703,723,744,762,782,803,823,842,862,882,902,923,943],"xSR":741.5,"ySR":469.95,"xT1":424.9,"yT1":0,"xT2":1058.1,"yT2":0,"toosoon":0,"cond_shown":"randomdotsizeEA","ratio_trial":250,"smaller_num":"4","larger_num":"16","correct_side":2,"subjID":"juanestebancabastorres31","gender":"0","age":"12","school":"6"},{"start_time":1551794885030,"click_time":1551794885877,"finger_time":1551794885578,"fix_duration":1311.1843131844703,"trial":23,"RT":548,"MT":299,"sideResp":2,"stimulus":"img/750/equaldotanddens/R/5_Ratio_750_L_15_R_20.png","xmouse":[805,805,805,805,805,805,805,805,805,805,805,805,805,805,805,805,805,805,805,805,805,805,805,805,805,813,817,837,852,897,926,949,965,978,1001,1016,1020,1036,1047,1063,1066,1069,1072],"ymouse":[501,501,501,501,501,501,501,501,501,501,501,501,501,501,501,501,501,501,501,501,501,501,501,501,501,482,473,446,431,396,372,351,332,316,288,271,265,239,218,164,136,109,89],"timestamp_mouse":[8,36,48,67,88,109,128,149,168,188,209,227,249,267,288,308,328,348,367,387,407,427,447,469,488,508,527,548,569,587,608,628,649,669,687,708,729,747,769,787,808,828,847],"xSR":741.5,"ySR":469.95,"xT1":424.9,"yT1":0,"xT2":1058.1,"yT2":0,"toosoon":0,"cond_shown":"equaldotanddens","ratio_trial":750,"smaller_num":"15","larger_num":"20","correct_side":2,"subjID":"juanestebancabastorres31","gender":"0","age":"12","school":"6"},{"start_time":1551794888104,"click_time":1551794888978,"finger_time":1551794888557,"fix_duration":1045.7087517257528,"trial":24,"RT":453,"MT":421,"sideResp":2,"stimulus":"img/750/equaldotsize/R/2_Ratio_750_L_6_R_8.png","xmouse":[790,790,790,790,790,790,790,790,790,790,790,790,790,790,790,790,790,790,790,790,790,825,863,899,920,933,938,945,955,965,981,989,993,994,995,995,995,996,1001,1018,1051,1068,1074,1077],"ymouse":[529,529,529,529,529,529,529,529,529,529,529,529,529,529,529,529,529,529,529,529,529,472,397,314,268,239,228,215,200,189,171,168,166,166,166,166,166,166,165,164,155,135,116,99],"timestamp_mouse":[14,38,53,73,94,115,133,153,175,194,214,234,255,273,295,314,333,353,373,393,413,435,453,473,494,514,533,553,575,594,614,633,654,673,695,714,734,754,774,793,813,834,854,874],"xSR":741.5,"ySR":469.95,"xT1":424.9,"yT1":0,"xT2":1058.1,"yT2":0,"toosoon":0,"cond_shown":"equaldotsize","ratio_trial":750,"smaller_num":"6","larger_num":"8","correct_side":2,"subjID":"juanestebancabastorres31","gender":"0","age":"12","school":"6"},{"start_time":1551794893664,"click_time":1551794894957,"finger_time":1551794894178,"fix_duration":1345.724439321065,"trial":25,"RT":514,"MT":779,"sideResp":2,"stimulus":"img/750/equaldotanddens/R/15_Ratio_750_L_9_R_12.png","xmouse":[827,827,827,827,827,827,827,827,827,827,827,827,827,826,826,826,826,826,824,823,823,823,823,823,831,858,898,938,948,948,948,948,949,981,1000,1015,1028,1045,1080,1098,1103,1114,1120,1128,1129,1132,1135,1137,1140,1141,1141,1141,1141,1141,1141,1141,1141,1141,1138,1137,1136,1136,1134,1132,1131],"ymouse":[517,517,517,517,517,517,517,517,517,517,517,517,517,517,517,517,517,517,518,518,519,519,519,519,515,511,508,508,508,508,508,508,508,490,475,458,436,394,301,260,249,222,209,192,186,177,166,155,137,134,133,133,133,131,126,123,118,117,112,109,109,108,105,100,98],"timestamp_mouse":[19,35,54,75,93,114,133,153,174,194,214,235,254,275,295,313,333,354,374,394,414,434,453,473,494,514,533,553,573,594,614,635,653,674,693,714,733,753,773,793,814,834,853,873,893,914,934,954,973,993,1013,1034,1055,1074,1093,1114,1134,1154,1173,1193,1213,1234,1253,1273,1293],"xSR":741.5,"ySR":469.95,"xT1":424.9,"yT1":0,"xT2":1058.1,"yT2":0,"toosoon":0,"cond_shown":"equaldotanddens","ratio_trial":750,"smaller_num":"9","larger_num":"12","correct_side":2,"subjID":"juanestebancabastorres31","gender":"0","age":"12","school":"6"},{"start_time":1551794900631,"click_time":1551794901898,"finger_time":1551794901258,"fix_duration":250,"trial":26,"RT":627,"MT":640,"sideResp":2,"stimulus":"img/250/randomdotsizeEA/R/13_Ratio_250_L_2_R_8.png","xmouse":[804,804,804,804,804,804,804,804,804,804,804,804,804,804,804,804,804,804,804,809,811,811,811,811,811,811,811,811,811,822,840,871,884,899,910,930,943,958,976,997,1028,1061,1074,1085,1094,1103,1108,1112,1115,1116,1116,1116,1116,1116,1116,1116,1116,1116,1116,1116,1116,1116,1117,1119],"ymouse":[524,524,524,524,524,524,524,524,524,524,524,524,524,524,524,524,524,524,524,520,519,519,519,519,519,519,519,519,519,504,475,414,390,362,344,308,288,268,240,207,169,137,128,121,115,111,108,105,103,102,102,102,102,102,102,102,102,102,102,102,102,102,101,95],"timestamp_mouse":[10,33,46,67,86,107,126,148,166,187,207,228,246,266,286,307,327,346,367,387,408,428,446,468,486,507,528,547,567,587,607,627,646,666,686,708,727,747,766,787,808,827,847,867,887,908,926,947,967,987,1007,1027,1047,1066,1087,1107,1126,1146,1166,1186,1206,1226,1246,1267],"xSR":741.5,"ySR":469.95,"xT1":424.9,"yT1":0,"xT2":1058.1,"yT2":0,"toosoon":0,"cond_shown":"randomdotsizeEA","ratio_trial":250,"smaller_num":"2","larger_num":"8","correct_side":2,"subjID":"juanestebancabastorres31","gender":"0","age":"12","school":"6"},{"start_time":1551794905390,"click_time":1551794906237,"finger_time":1551794905798,"fix_duration":1030.2161085766363,"trial":27,"RT":408,"MT":439,"sideResp":1,"stimulus":"img/500/equaldotanddens/L/7_Ratio_500_L_10_R_5.png","xmouse":[792,792,792,792,792,792,792,792,792,792,792,792,792,792,792,792,792,792,792,798,807,808,808,808,808,808,808,808,808,808,808,802,780,747,742,741,740,738,707,648,603,554,508],"ymouse":[556,556,556,556,556,556,556,556,556,556,556,556,556,556,556,556,556,556,556,559,570,571,572,572,572,572,572,572,572,572,570,531,453,365,357,356,355,351,314,245,192,138,95],"timestamp_mouse":[8,27,47,68,87,109,128,147,169,187,209,228,248,268,288,307,328,347,368,389,408,429,448,468,488,507,527,549,568,587,607,627,649,668,689,707,728,747,768,787,808,827,847],"xSR":741.5,"ySR":469.95,"xT1":424.9,"yT1":0,"xT2":1058.1,"yT2":0,"toosoon":0,"cond_shown":"equaldotanddens","ratio_trial":500,"smaller_num":"5","larger_num":"10","correct_side":1,"subjID":"juanestebancabastorres31","gender":"0","age":"12","school":"6"},{"start_time":1551794908155,"click_time":1551794908878,"finger_time":1551794908659,"fix_duration":635.0705200647797,"trial":28,"RT":504,"MT":219,"sideResp":2,"stimulus":"img/900/equaldotanddens/R/9_Ratio_900_L_18_R_20.png","xmouse":[777,777,777,777,777,777,777,777,777,777,777,777,777,777,777,777,777,777,777,777,777,777,777,777,802,902,937,962,984,1003,1037,1045,1047,1049,1052,1056,1064],"ymouse":[545,545,545,545,545,545,545,545,545,545,545,545,545,545,545,545,545,545,545,545,545,545,545,540,496,317,253,206,157,112,41,30,27,25,23,18,10],"timestamp_mouse":[9,22,45,63,83,102,122,142,164,182,202,223,243,262,284,302,323,343,363,383,404,423,443,462,484,504,523,542,563,583,604,622,643,662,683,703,722],"xSR":741.5,"ySR":469.95,"xT1":424.9,"yT1":0,"xT2":1058.1,"yT2":0,"toosoon":0,"cond_shown":"equaldotanddens","ratio_trial":900,"smaller_num":"18","larger_num":"20","correct_side":2,"subjID":"juanestebancabastorres31","gender":"0","age":"12","school":"6"},{"start_time":1551794910174,"click_time":1551794911458,"finger_time":1551794910798,"fix_duration":335.99763752837566,"trial":29,"RT":624,"MT":660,"sideResp":1,"stimulus":"img/250/equaldotanddens/L/3_Ratio_250_L_8_R_2.png","xmouse":[828,828,828,828,828,828,828,828,828,828,828,828,828,828,828,828,828,828,828,828,828,828,828,828,828,828,829,829,828,819,779,719,647,595,567,555,554,554,554,551,494,435,385,356,344,343,343,345,350,353,360,364,369,373,378,387,388,388,388,388,388,390,403,421,437],"ymouse":[545,545,545,545,545,545,545,545,545,545,545,545,545,545,545,545,545,545,545,545,545,545,545,545,545,545,545,545,544,534,495,437,363,297,258,236,235,235,235,233,208,173,144,123,112,95,81,66,47,36,26,23,20,18,17,16,16,16,16,16,16,16,25,35,42],"timestamp_mouse":[15,38,45,64,83,105,123,145,164,183,204,223,243,263,285,304,323,344,364,385,403,424,443,463,484,503,524,543,565,584,603,624,644,664,684,704,724,743,763,784,803,823,845,865,884,903,923,943,965,985,1004,1023,1043,1064,1085,1103,1123,1144,1165,1185,1204,1223,1244,1264,1284],"xSR":741.5,"ySR":469.95,"xT1":424.9,"yT1":0,"xT2":1058.1,"yT2":0,"toosoon":0,"cond_shown":"equaldotanddens","ratio_trial":250,"smaller_num":"2","larger_num":"8","correct_side":1,"subjID":"juanestebancabastorres31","gender":"0","age":"12","school":"6"},{"start_time":1551794912509,"click_time":1551794913718,"finger_time":1551794913118,"fix_duration":250,"trial":30,"RT":609,"MT":600,"sideResp":2,"stimulus":"img/900/randomdotsizeEA/R/14_Ratio_900_L_18_R_20.png","xmouse":[805,805,805,805,805,805,805,805,805,805,805,805,805,805,805,805,805,805,805,805,805,805,805,805,805,805,805,805,806,839,870,905,949,1015,1034,1047,1059,1066,1075,1082,1085,1089,1092,1097,1098,1100,1104,1108,1118,1121,1123,1126,1127,1129,1129,1129,1129,1129,1129,1129,1129],"ymouse":[534,534,534,534,534,534,534,534,534,534,534,534,534,534,534,534,534,534,534,534,534,534,534,534,534,534,534,534,530,484,440,397,346,273,253,237,223,216,205,198,195,191,188,182,179,176,167,156,136,127,121,115,112,105,105,105,105,105,105,101,90],"timestamp_mouse":[9,34,49,69,89,109,129,150,169,189,210,229,248,270,289,310,328,348,369,389,408,429,449,469,488,509,529,549,569,589,609,629,649,670,689,709,729,749,769,788,809,829,849,868,889,908,929,949,969,988,1009,1030,1049,1069,1090,1109,1128,1148,1169,1190,1209],"xSR":741.5,"ySR":469.95,"xT1":424.9,"yT1":0,"xT2":1058.1,"yT2":0,"toosoon":0,"cond_shown":"randomdotsizeEA","ratio_trial":900,"smaller_num":"18","larger_num":"20","correct_side":2,"subjID":"juanestebancabastorres31","gender":"0","age":"12","school":"6"},{"start_time":1551794915255,"click_time":1551794916257,"finger_time":1551794915778,"fix_duration":776.1913598234826,"trial":31,"RT":523,"MT":479,"sideResp":1,"stimulus":"img/250/equaldotsize/L/2_Ratio_250_L_16_R_4.png","xmouse":[799,799,799,799,799,799,799,799,799,799,799,799,799,800,800,800,800,800,800,800,800,800,800,796,789,776,738,721,705,688,670,647,601,594,592,592,592,595,599,600,600,600,602,605,607,608,608,593,573,539,505],"ymouse":[566,566,566,566,566,566,566,566,566,566,566,566,566,564,564,564,564,560,556,555,554,551,540,532,519,501,465,449,434,417,393,362,289,273,267,264,257,240,217,193,178,169,165,159,152,138,126,102,89,74,63],"timestamp_mouse":[9,39,43,63,82,103,124,144,164,183,203,223,242,263,282,302,323,343,362,383,403,422,443,463,482,504,523,542,563,582,603,622,644,663,683,703,723,742,762,784,804,823,842,862,883,904,922,942,963,983,1002],"xSR":741.5,"ySR":469.95,"xT1":424.9,"yT1":0,"xT2":1058.1,"yT2":0,"toosoon":0,"cond_shown":"equaldotsize","ratio_trial":250,"smaller_num":"4","larger_num":"16","correct_side":1,"subjID":"juanestebancabastorres31","gender":"0","age":"12","school":"6"},{"start_time":1551794918674,"click_time":1551794919598,"finger_time":1551794919238,"fix_duration":1474.384446909732,"trial":32,"RT":564,"MT":360,"sideResp":2,"stimulus":"img/250/equaldotanddens/R/6_Ratio_250_L_6_R_24.png","xmouse":[799,799,799,799,799,799,799,799,799,799,799,799,799,799,799,799,799,799,799,799,799,799,799,799,799,800,807,820,847,901,933,980,988,996,1001,1007,1019,1028,1038,1049,1070,1095,1104,1107,1111,1114,1119],"ymouse":[526,526,526,526,526,526,526,526,526,526,526,526,526,526,526,526,526,526,526,526,526,526,526,526,526,525,520,509,484,421,377,302,280,262,248,236,218,207,198,184,159,128,119,114,110,106,99],"timestamp_mouse":[8,35,43,65,85,104,124,144,165,184,205,224,245,263,285,303,323,345,364,383,404,423,444,464,485,504,523,545,564,584,603,624,643,664,684,703,724,743,764,785,803,823,844,865,885,904,923],"xSR":741.5,"ySR":469.95,"xT1":424.9,"yT1":0,"xT2":1058.1,"yT2":0,"toosoon":0,"cond_shown":"equaldotanddens","ratio_trial":250,"smaller_num":"6","larger_num":"24","correct_side":2,"subjID":"juanestebancabastorres31","gender":"0","age":"12","school":"6"},{"start_time":1551794920509,"click_time":1551794921398,"finger_time":1551794920997,"fix_duration":250,"trial":33,"RT":488,"MT":401,"sideResp":1,"stimulus":"img/750/equaldotanddens/L/8_Ratio_750_L_4_R_3.png","xmouse":[788,788,788,788,788,788,788,788,788,788,788,788,788,788,788,788,788,788,788,788,788,786,780,772,739,712,677,621,587,551,541,535,529,526,524,524,524,524,524,524,524,522,515,504,466],"ymouse":[552,552,552,552,552,552,552,552,552,552,552,552,552,552,552,552,552,552,552,552,545,533,523,513,492,477,452,411,386,344,327,314,304,298,294,294,291,277,257,213,193,173,151,128,72],"timestamp_mouse":[9,38,49,68,88,109,129,148,169,189,208,230,249,269,289,309,328,349,368,389,408,429,448,469,488,509,529,548,568,588,608,629,649,668,689,709,729,748,770,788,808,828,849,868,889],"xSR":741.5,"ySR":469.95,"xT1":424.9,"yT1":0,"xT2":1058.1,"yT2":0,"toosoon":0,"cond_shown":"equaldotanddens","ratio_trial":750,"smaller_num":"3","larger_num":"4","correct_side":1,"subjID":"juanestebancabastorres31","gender":"0","age":"12","school":"6"},{"start_time":1551794923768,"click_time":1551794924878,"finger_time":1551794924398,"fix_duration":250,"trial":34,"RT":630,"MT":480,"sideResp":2,"stimulus":"img/500/equaldotsize/R/1_Ratio_500_L_9_R_18.png","xmouse":[810,810,810,810,810,810,810,810,810,810,810,810,810,810,810,810,810,810,810,810,810,810,810,810,810,810,810,810,810,810,817,843,862,888,911,929,966,985,1000,1008,1012,1017,1035,1043,1049,1055,1062,1062,1062,1064,1066,1075,1089,1097,1102,1109],"ymouse":[515,515,515,515,515,515,515,515,515,515,515,515,515,515,515,515,515,515,515,515,515,515,515,515,515,515,515,515,515,515,507,478,453,419,386,363,316,294,276,264,258,252,228,220,214,206,196,195,195,193,188,173,140,120,102,80],"timestamp_mouse":[9,40,49,69,90,110,131,149,169,190,210,229,250,270,290,309,330,349,371,390,409,430,450,470,491,510,530,549,571,589,609,630,649,670,690,709,730,749,769,791,810,829,850,869,890,910,930,951,970,990,1009,1030,1050,1070,1091,1110],"xSR":741.5,"ySR":469.95,"xT1":424.9,"yT1":0,"xT2":1058.1,"yT2":0,"toosoon":0,"cond_shown":"equaldotsize","ratio_trial":500,"smaller_num":"9","larger_num":"18","correct_side":2,"subjID":"juanestebancabastorres31","gender":"0","age":"12","school":"6"},{"start_time":1551794927446,"click_time":1551794928399,"finger_time":1551794928099,"fix_duration":946.4178712092918,"trial":35,"RT":653,"MT":300,"sideResp":1,"stimulus":"img/500/randomdotsizeEA/L/10_Ratio_500_L_4_R_2.png","xmouse":[801,801,801,801,801,801,801,801,801,801,801,801,801,801,801,801,801,801,801,801,801,801,801,801,801,801,801,801,801,801,801,792,779,750,735,715,696,687,684,683,683,677,661,608,578,550,526,501],"ymouse":[539,539,539,539,539,539,539,539,539,539,539,539,539,539,539,539,539,539,539,539,539,539,539,539,539,539,539,539,539,539,518,472,426,320,273,225,196,187,184,183,183,176,161,121,103,88,76,61],"timestamp_mouse":[12,36,53,71,93,111,133,153,173,192,212,231,253,271,292,312,332,352,371,393,411,431,452,473,492,511,531,552,571,591,612,631,653,672,691,711,732,751,772,792,812,832,853,871,892,913,932,952],"xSR":741.5,"ySR":469.95,"xT1":424.9,"yT1":0,"xT2":1058.1,"yT2":0,"toosoon":0,"cond_shown":"randomdotsizeEA","ratio_trial":500,"smaller_num":"2","larger_num":"4","correct_side":1,"subjID":"juanestebancabastorres31","gender":"0","age":"12","school":"6"},{"start_time":1551794931551,"click_time":1551794932899,"finger_time":1551794932739,"fix_duration":1030.1427939193413,"trial":36,"RT":1188,"MT":160,"sideResp":1,"stimulus":"img/750/randomdotsizeEA/L/1_Ratio_750_L_20_R_15.png","xmouse":[824,824,824,824,824,824,824,824,824,824,824,824,824,824,824,824,824,824,824,828,832,835,837,840,840,841,841,841,841,841,841,841,841,841,841,841,841,841,841,841,841,841,841,841,841,841,840,835,820,796,795,795,795,795,795,795,795,795,795,795,789,770,741,656,613,578,548,513],"ymouse":[552,552,552,552,552,552,552,552,552,552,552,552,552,552,552,552,552,552,552,546,543,541,539,537,537,537,537,537,537,537,537,537,537,537,537,537,537,537,537,537,537,537,537,537,537,537,537,534,528,516,516,516,516,516,516,516,515,512,480,369,297,229,176,103,84,80,80,85],"timestamp_mouse":[9,37,49,69,88,110,129,150,168,189,208,228,248,270,289,309,328,350,369,389,409,429,448,469,489,509,529,549,569,589,609,629,649,669,690,709,729,749,770,789,808,828,848,868,888,909,928,949,969,988,1010,1028,1048,1068,1090,1108,1128,1148,1168,1188,1212,1229,1248,1269,1288,1309,1329,1348],"xSR":741.5,"ySR":469.95,"xT1":424.9,"yT1":0,"xT2":1058.1,"yT2":0,"toosoon":0,"cond_shown":"randomdotsizeEA","ratio_trial":750,"smaller_num":"15","larger_num":"20","correct_side":1,"subjID":"juanestebancabastorres31","gender":"0","age":"12","school":"6"},{"start_time":1551794934414,"click_time":1551794935340,"finger_time":1551794934999,"fix_duration":813.6365743730422,"trial":37,"RT":585,"MT":341,"sideResp":2,"stimulus":"img/500/randomdotsizeEA/R/12_Ratio_500_L_1_R_2.png","xmouse":[801,801,801,801,801,801,801,801,801,801,801,801,801,801,801,801,801,801,801,801,801,801,801,801,801,801,801,809,840,881,926,975,992,1011,1040,1061,1091,1099,1104,1111,1120,1126,1128,1129,1130,1130,1126],"ymouse":[518,518,518,518,518,518,518,518,518,518,518,518,518,518,518,518,518,518,518,518,518,518,518,518,518,518,518,512,480,451,426,399,387,376,352,334,298,285,273,261,248,221,206,190,174,114,92],"timestamp_mouse":[8,40,45,67,86,106,126,145,166,187,206,226,246,266,287,306,327,346,366,387,406,426,446,466,486,505,526,546,566,585,606,625,647,665,686,705,725,745,766,785,805,826,847,865,887,907,926],"xSR":741.5,"ySR":469.95,"xT1":424.9,"yT1":0,"xT2":1058.1,"yT2":0,"toosoon":0,"cond_shown":"randomdotsizeEA","ratio_trial":500,"smaller_num":"1","larger_num":"2","correct_side":2,"subjID":"juanestebancabastorres31","gender":"0","age":"12","school":"6"},{"start_time":1551794938929,"click_time":1551794939959,"finger_time":1551794939600,"fix_duration":1328.9768010634114,"trial":38,"RT":671,"MT":359,"sideResp":1,"stimulus":"img/750/equaldotsize/L/1_Ratio_750_L_20_R_15.png","xmouse":[790,789,789,789,789,789,789,789,789,789,789,789,789,789,789,789,789,789,789,789,789,789,789,789,789,789,789,789,789,789,789,788,770,738,688,573,504,414,392,389,389,389,389,389,389,386,386,386,390,397,423,435],"ymouse":[522,522,522,522,522,522,522,522,522,522,522,522,522,522,522,522,522,522,522,522,522,522,522,522,522,522,522,522,522,522,522,521,479,411,340,222,170,104,88,86,86,86,86,86,83,76,76,75,72,72,71,73],"timestamp_mouse":[10,31,50,72,95,110,131,150,172,191,211,231,251,270,291,311,330,352,371,390,412,430,450,470,492,512,530,552,570,591,612,631,651,671,690,711,731,751,770,792,811,830,850,871,891,910,931,951,971,991,1011,1030],"xSR":741.5,"ySR":469.95,"xT1":424.9,"yT1":0,"xT2":1058.1,"yT2":0,"toosoon":0,"cond_shown":"equaldotsize","ratio_trial":750,"smaller_num":"15","larger_num":"20","correct_side":1,"subjID":"juanestebancabastorres31","gender":"0","age":"12","school":"6"},{"start_time":1551794942183,"click_time":1551794943280,"finger_time":1551794942720,"fix_duration":1222.7500071554439,"trial":39,"RT":537,"MT":560,"sideResp":1,"stimulus":"img/500/randomdotsizeEA/L/11_Ratio_500_L_12_R_6.png","xmouse":[794,794,794,794,794,794,794,794,794,794,794,794,794,794,794,794,794,794,794,794,794,794,794,795,796,797,797,774,746,723,713,713,729,758,782,805,822,852,861,866,866,865,846,704,620,555,531,526,526,526,526,524,517,480,465],"ymouse":[517,517,517,517,517,517,517,517,517,517,517,517,517,517,517,517,517,517,517,517,517,517,507,491,484,476,468,448,428,411,402,402,382,357,336,315,294,242,224,212,209,207,206,196,184,175,167,166,166,166,166,166,161,104,76],"timestamp_mouse":[17,41,58,76,96,117,137,156,176,197,216,236,256,277,297,318,336,358,377,397,417,437,457,478,497,517,537,558,576,597,617,636,657,676,696,718,738,758,777,797,817,837,857,876,897,917,938,957,978,997,1016,1036,1056,1077,1097],"xSR":741.5,"ySR":469.95,"xT1":424.9,"yT1":0,"xT2":1058.1,"yT2":0,"toosoon":0,"cond_shown":"randomdotsizeEA","ratio_trial":500,"smaller_num":"6","larger_num":"12","correct_side":1,"subjID":"juanestebancabastorres31","gender":"0","age":"12","school":"6"},{"start_time":1551794947384,"click_time":1551794948060,"finger_time":1551794947960,"fix_duration":1423.8434592595602,"trial":40,"RT":576,"MT":100,"sideResp":2,"stimulus":"img/500/equaldotanddens/R/12_Ratio_500_L_1_R_2.png","xmouse":[807,802,801,800,800,800,800,800,800,800,800,800,800,800,800,800,800,800,800,800,800,800,800,800,800,800,800,834,902,965,988,1052,1089,1149],"ymouse":[484,488,489,491,491,491,491,491,491,491,491,491,491,491,491,491,491,491,491,491,491,491,491,491,491,491,491,474,419,328,286,181,138,72],"timestamp_mouse":[16,36,56,76,95,117,137,155,176,196,217,236,256,276,297,316,335,356,375,396,415,437,455,475,496,516,535,555,576,596,616,635,655,676],"xSR":741.5,"ySR":469.95,"xT1":424.9,"yT1":0,"xT2":1058.1,"yT2":0,"toosoon":0,"cond_shown":"equaldotanddens","ratio_trial":500,"smaller_num":"1","larger_num":"2","correct_side":2,"subjID":"juanestebancabastorres31","gender":"0","age":"12","school":"6"},{"start_time":1551794952059,"click_time":1551794953279,"finger_time":1551794952521,"fix_duration":1378.7385436311652,"trial":41,"RT":462,"MT":758,"sideResp":2,"stimulus":"img/900/equaldotsize/R/11_Ratio_900_L_18_R_20.png","xmouse":[758,758,758,758,758,758,759,759,759,759,759,759,759,759,759,759,760,762,765,771,781,809,829,845,877,927,947,968,1001,1035,1074,1127,1144,1159,1175,1228,1259,1280,1299,1308,1313,1313,1313,1313,1313,1313,1313,1313,1313,1313,1305,1291,1271,1247,1222,1221,1219,1219,1210,1187,1166,1153],"ymouse":[548,548,548,548,548,548,548,547,547,547,547,547,547,547,547,547,546,545,542,537,529,510,497,481,454,410,391,373,349,323,301,277,266,257,243,196,166,140,108,87,75,75,75,75,75,75,75,75,75,75,75,75,75,75,76,76,76,76,76,76,76,76],"timestamp_mouse":[9,36,40,62,81,101,121,140,162,181,201,222,241,260,281,301,320,341,361,380,400,421,440,462,481,502,521,540,560,580,600,620,640,662,681,702,721,741,761,781,800,820,841,861,880,902,920,940,961,981,1002,1020,1042,1062,1081,1101,1121,1140,1161,1182,1201,1220],"xSR":741.5,"ySR":469.95,"xT1":424.9,"yT1":0,"xT2":1058.1,"yT2":0,"toosoon":0,"cond_shown":"equaldotsize","ratio_trial":900,"smaller_num":"18","larger_num":"20","correct_side":2,"subjID":"juanestebancabastorres31","gender":"0","age":"12","school":"6"},{"start_time":1551794956406,"click_time":1551794958180,"finger_time":1551794957140,"fix_duration":902.3506359487822,"trial":42,"RT":734,"MT":1040,"sideResp":1,"stimulus":"img/250/equaldotsize/R/6_Ratio_250_L_6_R_24.png","xmouse":[785,785,785,785,785,785,785,785,785,785,785,785,785,785,785,785,785,785,785,785,783,781,780,780,780,780,779,777,774,774,774,774,773,773,773,772,767,755,733,668,641,624,617,616,616,616,612,604,578,564,547,530,511,477,457,451,448,447,447,447,447,447,447,450,453,454,455,456,456,456,457,459,462,469,473,486,500,513,531,534,535,537,542,546,546,546,540,526,478],"ymouse":[510,510,510,510,510,510,510,510,510,510,510,510,510,510,510,510,510,510,510,510,509,510,511,511,511,511,502,487,473,473,473,473,473,473,473,473,469,460,440,392,375,365,360,359,359,358,351,342,326,323,321,320,317,305,295,290,287,287,287,287,287,287,286,270,253,247,242,240,240,240,238,237,233,228,225,216,204,189,171,166,164,161,152,141,133,124,110,96,68],"timestamp_mouse":[13,39,54,73,94,114,135,154,175,194,213,234,254,274,294,314,335,353,374,394,413,434,455,475,495,514,535,554,573,595,613,633,654,673,694,714,734,753,773,794,813,835,854,874,894,914,933,953,974,993,1013,1034,1054,1073,1093,1113,1135,1155,1174,1194,1214,1233,1253,1274,1293,1314,1334,1354,1373,1393,1415,1434,1454,1473,1493,1513,1533,1553,1574,1594,1614,1634,1654,1674,1693,1714,1734,1754,1773],"xSR":741.5,"ySR":469.95,"xT1":424.9,"yT1":0,"xT2":1058.1,"yT2":0,"toosoon":0,"cond_shown":"equaldotsize","ratio_trial":250,"smaller_num":"6","larger_num":"24","correct_side":2,"subjID":"juanestebancabastorres31","gender":"0","age":"12","school":"6"},{"start_time":1551794963575,"click_time":1551794964739,"finger_time":1551794964040,"fix_duration":693.8030801990267,"trial":43,"RT":465,"MT":699,"sideResp":2,"stimulus":"img/900/randomdotsizeEA/R/13_Ratio_900_L_18_R_20.png","xmouse":[807,807,807,807,807,807,807,807,807,807,807,807,807,807,807,807,807,807,807,807,807,807,807,807,807,807,807,807,807,807,807,807,807,811,819,829,849,863,889,916,934,969,983,994,1001,1004,1005,1008,1010,1010,1010,1010,1012,1017,1023,1035,1053,1090,1103],"ymouse":[517,517,517,517,517,517,517,517,517,517,517,517,517,517,517,517,517,517,517,517,517,515,488,461,417,397,382,379,378,378,378,374,366,349,329,312,283,268,247,224,207,181,171,162,153,147,143,135,131,131,131,131,128,123,119,115,110,102,97],"timestamp_mouse":[8,24,46,66,84,104,124,146,166,185,205,224,253,265,285,305,325,345,365,384,405,424,445,465,486,505,524,544,565,586,606,624,645,665,684,704,724,744,765,785,805,824,845,866,886,905,924,944,965,985,1005,1025,1044,1064,1084,1104,1124,1144,1164],"xSR":741.5,"ySR":469.95,"xT1":424.9,"yT1":0,"xT2":1058.1,"yT2":0,"toosoon":0,"cond_shown":"randomdotsizeEA","ratio_trial":900,"smaller_num":"18","larger_num":"20","correct_side":2,"subjID":"juanestebancabastorres31","gender":"0","age":"12","school":"6"},{"start_time":1551794967065,"click_time":1551794967979,"finger_time":1551794967640,"fix_duration":944.3952782838098,"trial":44,"RT":575,"MT":339,"sideResp":2,"stimulus":"img/900/equaldotsize/L/2_Ratio_900_L_20_R_18.png","xmouse":[792,792,792,792,792,792,792,792,792,792,792,792,792,792,792,792,792,792,792,792,792,792,792,792,792,792,792,809,826,852,883,940,961,971,977,979,980,980,983,988,990,993,1007,1025,1047,1071],"ymouse":[524,524,524,524,524,524,524,524,524,524,524,524,524,524,524,524,524,524,524,524,524,524,524,524,524,524,524,482,435,373,313,212,177,158,146,140,119,95,83,78,76,75,74,74,74,72],"timestamp_mouse":[15,35,55,76,94,114,135,154,175,194,214,235,256,274,295,315,335,356,375,394,416,436,454,476,494,516,535,554,575,595,615,635,654,675,695,716,735,754,774,795,815,834,854,874,894,914],"xSR":741.5,"ySR":469.95,"xT1":424.9,"yT1":0,"xT2":1058.1,"yT2":0,"toosoon":0,"cond_shown":"equaldotsize","ratio_trial":900,"smaller_num":"18","larger_num":"20","correct_side":1,"subjID":"juanestebancabastorres31","gender":"0","age":"12","school":"6"},{"start_time":1551794971600,"click_time":1551794973061,"finger_time":1551794972479,"fix_duration":698.7002440930858,"trial":45,"RT":879,"MT":582,"sideResp":1,"stimulus":"img/500/randomdotsizeEA/L/7_Ratio_500_L_10_R_5.png","xmouse":[810,810,810,810,810,810,810,810,810,810,810,810,810,810,810,810,810,810,810,810,810,810,810,810,810,810,810,810,810,810,810,810,810,810,810,810,810,810,810,810,810,810,805,791,765,741,702,688,686,685,684,679,675,672,669,665,654,649,639,628,619,600,595,594,587,577,554,543,535,533,533,532,526,514],"ymouse":[530,530,530,530,530,530,530,530,530,530,530,530,530,530,530,530,530,530,530,530,530,530,530,530,530,530,530,530,530,530,530,530,530,530,530,530,530,530,530,530,530,530,526,497,450,407,350,333,331,328,327,313,306,297,291,286,274,269,260,250,241,219,211,203,187,163,122,108,98,95,95,95,88,79],"timestamp_mouse":[8,20,40,60,80,99,120,141,159,181,200,220,240,260,281,300,320,339,360,380,400,421,439,461,479,500,519,539,559,580,599,620,640,661,679,700,719,740,761,779,800,821,839,859,879,899,919,940,960,979,1001,1020,1040,1059,1080,1100,1119,1140,1159,1180,1199,1220,1239,1259,1280,1301,1320,1340,1359,1380,1400,1419,1440,1461],"xSR":741.5,"ySR":469.95,"xT1":424.9,"yT1":0,"xT2":1058.1,"yT2":0,"toosoon":0,"cond_shown":"randomdotsizeEA","ratio_trial":500,"smaller_num":"5","larger_num":"10","correct_side":1,"subjID":"juanestebancabastorres31","gender":"0","age":"12","school":"6"},{"start_time":1551794974511,"click_time":1551794975639,"finger_time":1551794975341,"fix_duration":250,"trial":46,"RT":830,"MT":298,"sideResp":1,"stimulus":"img/750/randomdotsizeEA/L/13_Ratio_750_L_8_R_6.png","xmouse":[790,790,790,790,790,790,790,790,790,790,790,790,790,790,790,790,790,790,790,790,790,790,790,790,790,790,790,790,790,790,790,790,790,790,790,790,790,790,790,790,787,764,735,699,664,618,607,601,599,599,599,599,592,581,565,551,521],"ymouse":[542,542,542,542,542,542,542,542,542,542,542,542,542,542,542,542,542,542,542,542,542,542,542,542,542,542,542,542,542,542,542,542,542,542,542,542,542,542,542,542,523,464,391,325,273,209,194,185,182,182,182,182,172,156,136,116,75],"timestamp_mouse":[8,39,49,70,88,108,129,149,170,189,208,230,249,268,289,308,329,349,369,389,408,430,450,469,488,509,530,548,569,590,609,629,648,669,690,709,729,749,770,788,809,830,848,869,888,908,928,949,970,988,1009,1030,1048,1069,1089,1108,1128],"xSR":741.5,"ySR":469.95,"xT1":424.9,"yT1":0,"xT2":1058.1,"yT2":0,"toosoon":0,"cond_shown":"randomdotsizeEA","ratio_trial":750,"smaller_num":"6","larger_num":"8","correct_side":1,"subjID":"juanestebancabastorres31","gender":"0","age":"12","school":"6"},{"start_time":1551794978964,"click_time":1551794979799,"finger_time":1551794979680,"fix_duration":1062.0486139832926,"trial":47,"RT":716,"MT":119,"sideResp":2,"stimulus":"img/250/equaldotanddens/R/6_Ratio_250_L_6_R_24.png","xmouse":[778,778,778,778,778,778,778,778,778,778,778,778,778,778,778,778,778,778,778,778,778,778,778,778,778,778,778,778,778,778,778,778,779,799,822,850,889,907,951,993,1034,1073],"ymouse":[525,525,525,525,525,525,525,525,525,525,525,525,525,525,525,525,525,525,525,525,525,525,525,525,525,525,525,525,525,525,525,525,525,511,492,466,415,372,262,198,135,81],"timestamp_mouse":[16,41,57,76,97,117,137,157,176,195,217,235,256,275,297,317,335,356,377,396,415,436,456,475,496,516,535,556,575,597,615,637,657,675,696,716,735,755,775,795,815,835],"xSR":741.5,"ySR":469.95,"xT1":424.9,"yT1":0,"xT2":1058.1,"yT2":0,"toosoon":0,"cond_shown":"equaldotanddens","ratio_trial":250,"smaller_num":"6","larger_num":"24","correct_side":2,"subjID":"juanestebancabastorres31","gender":"0","age":"12","school":"6"},{"start_time":1551794982018,"click_time":1551794982760,"finger_time":1551794982499,"fix_duration":1217.262577730068,"trial":48,"RT":481,"MT":261,"sideResp":2,"stimulus":"img/500/equaldotanddens/R/12_Ratio_500_L_1_R_2.png","xmouse":[830,830,830,830,830,830,830,830,830,830,830,830,830,830,830,830,830,830,830,830,830,830,830,830,843,888,972,1006,1035,1060,1074,1089,1093,1095,1097,1098,1098,1098],"ymouse":[515,515,515,515,515,515,515,515,515,515,515,515,515,515,515,515,515,515,515,515,515,515,515,515,500,447,348,308,269,228,202,159,137,125,112,106,102,97],"timestamp_mouse":[9,35,42,61,81,103,121,143,163,181,202,221,241,262,282,301,323,343,362,381,402,422,441,462,481,502,522,541,561,582,601,621,642,661,681,702,721,741],"xSR":741.5,"ySR":469.95,"xT1":424.9,"yT1":0,"xT2":1058.1,"yT2":0,"toosoon":0,"cond_shown":"equaldotanddens","ratio_trial":500,"smaller_num":"1","larger_num":"2","correct_side":2,"subjID":"juanestebancabastorres31","gender":"0","age":"12","school":"6"},{"start_time":1551794985316,"click_time":1551794986240,"finger_time":1551794985879,"fix_duration":1314.4291527576218,"trial":49,"RT":563,"MT":361,"sideResp":2,"stimulus":"img/250/equaldotsize/R/4_Ratio_250_L_3_R_12.png","xmouse":[751,751,751,751,751,751,751,751,751,751,751,751,751,751,751,751,751,751,751,751,751,751,751,757,761,770,773,809,840,867,887,901,918,927,938,948,973,977,980,984,990,1005,1012,1026,1036,1048,1065],"ymouse":[519,519,519,519,519,519,519,519,519,519,519,519,519,519,519,519,519,519,519,519,519,519,519,516,513,510,509,472,421,373,341,322,303,293,279,266,223,208,195,187,178,156,147,128,114,97,76],"timestamp_mouse":[8,40,44,63,85,104,124,143,164,184,204,223,244,263,285,303,325,343,364,384,404,423,444,463,483,504,525,545,563,584,604,625,644,664,684,704,725,743,763,784,805,824,843,863,885,905,924],"xSR":741.5,"ySR":469.95,"xT1":424.9,"yT1":0,"xT2":1058.1,"yT2":0,"toosoon":0,"cond_shown":"equaldotsize","ratio_trial":250,"smaller_num":"3","larger_num":"12","correct_side":2,"subjID":"juanestebancabastorres31","gender":"0","age":"12","school":"6"},{"start_time":1551794987252,"click_time":1551794988400,"finger_time":1551794988000,"fix_duration":310.40259106594857,"trial":50,"RT":748,"MT":400,"sideResp":2,"stimulus":"img/900/equaldotanddens/L/1_Ratio_900_L_10_R_9.png","xmouse":[832,832,832,832,832,832,832,832,832,832,832,832,832,832,832,832,832,832,832,832,832,832,832,832,832,832,832,832,832,832,832,832,832,832,832,832,841,853,862,903,970,997,1018,1031,1038,1043,1044,1045,1046,1047,1048,1049,1050,1051,1051,1054,1058,1064],"ymouse":[542,542,542,542,542,542,542,542,542,542,542,542,542,542,542,542,542,542,542,542,542,542,542,542,542,542,542,542,542,542,542,542,542,542,542,542,535,520,510,454,359,313,269,232,207,171,165,161,153,145,120,110,104,102,99,95,90,86],"timestamp_mouse":[8,37,48,69,87,108,128,149,168,187,209,227,249,267,288,309,328,348,368,388,408,427,448,468,487,507,528,547,568,587,609,627,649,667,687,708,728,747,769,788,808,827,847,867,887,907,929,947,967,988,1007,1028,1047,1067,1088,1108,1128,1148],"xSR":741.5,"ySR":469.95,"xT1":424.9,"yT1":0,"xT2":1058.1,"yT2":0,"toosoon":0,"cond_shown":"equaldotanddens","ratio_trial":900,"smaller_num":"9","larger_num":"10","correct_side":1,"subjID":"juanestebancabastorres31","gender":"0","age":"12","school":"6"},{"start_time":1551794989629,"click_time":1551794991182,"finger_time":1551794990401,"fix_duration":407.3171437586801,"trial":51,"RT":772,"MT":781,"sideResp":2,"stimulus":"img/750/randomdotsizeEA/R/2_Ratio_750_L_6_R_8.png","xmouse":[800,800,800,800,800,800,800,800,800,800,800,800,800,800,800,800,800,800,800,800,800,800,800,800,800,800,800,800,800,800,800,800,800,800,801,804,813,825,844,865,882,913,923,934,945,954,978,991,1003,1016,1024,1033,1034,1036,1038,1039,1041,1047,1049,1053,1055,1058,1063,1064,1065,1065,1065,1065,1065,1067,1068,1068,1069,1071,1073,1075,1079,1081],"ymouse":[547,547,547,547,547,547,547,547,547,547,547,547,547,547,547,547,547,547,547,547,547,547,547,547,547,547,547,547,547,547,547,547,547,546,545,543,534,523,495,461,430,375,348,326,308,293,262,245,228,207,196,181,177,172,166,161,156,143,139,134,132,128,119,117,116,116,116,116,116,113,113,112,112,110,108,106,101,99],"timestamp_mouse":[11,34,51,71,90,111,132,152,172,190,210,230,251,272,290,312,331,351,370,390,412,432,451,471,492,511,531,551,572,592,611,630,651,671,690,713,732,752,772,792,813,832,852,872,892,913,932,953,973,993,1012,1032,1052,1072,1092,1112,1132,1152,1173,1192,1212,1232,1252,1272,1292,1312,1333,1352,1372,1393,1412,1433,1452,1472,1492,1512,1532,1553],"xSR":741.5,"ySR":469.95,"xT1":424.9,"yT1":0,"xT2":1058.1,"yT2":0,"toosoon":0,"cond_shown":"randomdotsizeEA","ratio_trial":750,"smaller_num":"6","larger_num":"8","correct_side":2,"subjID":"juanestebancabastorres31","gender":"0","age":"12","school":"6"},{"start_time":1551794992834,"click_time":1551794993781,"finger_time":1551794993481,"fix_duration":250,"trial":52,"RT":647,"MT":300,"sideResp":2,"stimulus":"img/900/randomdotsizeEA/R/7_Ratio_900_L_9_R_10.png","xmouse":[804,804,804,804,804,804,804,804,804,804,804,804,804,804,804,804,804,804,804,804,804,804,804,804,804,804,804,804,804,804,805,812,852,874,890,900,917,952,974,988,996,1010,1016,1021,1026,1033,1054,1063],"ymouse":[512,512,512,512,512,512,512,512,512,512,512,512,512,512,512,512,512,512,512,512,512,512,512,512,512,512,512,512,512,512,512,505,460,435,418,405,368,284,220,176,146,105,91,80,69,55,24,13],"timestamp_mouse":[8,34,47,67,88,108,127,148,167,188,207,227,247,267,288,307,327,347,367,387,408,427,447,467,487,507,528,547,568,589,607,627,647,667,687,707,727,747,767,787,807,828,847,868,887,909,928,947],"xSR":741.5,"ySR":469.95,"xT1":424.9,"yT1":0,"xT2":1058.1,"yT2":0,"toosoon":0,"cond_shown":"randomdotsizeEA","ratio_trial":900,"smaller_num":"9","larger_num":"10","correct_side":2,"subjID":"juanestebancabastorres31","gender":"0","age":"12","school":"6"},{"start_time":1551794996463,"click_time":1551794997642,"finger_time":1551794997142,"fix_duration":899.6969062261024,"trial":53,"RT":679,"MT":500,"sideResp":1,"stimulus":"img/500/equaldotanddens/L/4_Ratio_500_L_18_R_9.png","xmouse":[790,790,790,790,790,790,790,790,790,790,790,790,790,790,790,790,790,790,790,790,790,790,790,790,790,790,790,790,790,790,790,789,789,789,780,753,736,720,703,691,673,665,661,655,642,622,612,600,590,578,563,560,558,555,551,540,534,525,514],"ymouse":[495,495,495,495,495,495,495,495,495,495,495,495,495,495,495,495,495,495,495,495,495,495,495,495,495,495,495,495,495,495,495,495,478,452,427,374,346,322,305,294,278,271,269,263,249,221,202,179,157,137,118,115,113,110,109,105,103,100,96],"timestamp_mouse":[18,38,58,79,98,118,138,158,178,198,218,239,258,278,299,319,338,358,379,398,420,439,459,478,498,518,539,558,578,599,618,638,658,679,698,718,738,758,778,798,818,839,858,878,898,918,938,958,979,999,1018,1038,1058,1079,1098,1119,1138,1159,1179],"xSR":741.5,"ySR":469.95,"xT1":424.9,"yT1":0,"xT2":1058.1,"yT2":0,"toosoon":0,"cond_shown":"equaldotanddens","ratio_trial":500,"smaller_num":"9","larger_num":"18","correct_side":1,"subjID":"juanestebancabastorres31","gender":"0","age":"12","school":"6"},{"start_time":1551794998653,"click_time":1551794999901,"finger_time":1551794999381,"fix_duration":330.9459205227259,"trial":54,"RT":728,"MT":520,"sideResp":1,"stimulus":"img/750/equaldotanddens/L/6_Ratio_750_L_24_R_18.png","xmouse":[793,793,793,793,793,793,793,793,793,793,793,793,793,793,793,793,793,793,793,793,793,793,793,793,793,793,793,793,793,793,793,793,793,793,794,787,745,727,718,714,711,708,697,682,668,656,644,627,613,600,583,572,571,571,575,575,561,549,538,537,537,536,522],"ymouse":[531,531,531,531,531,531,531,531,531,531,531,531,531,531,531,531,531,531,531,531,531,531,531,531,531,531,531,531,531,531,531,531,531,531,527,505,441,416,402,396,392,388,375,362,351,343,338,326,311,284,246,215,209,203,176,152,97,76,63,60,60,60,62],"timestamp_mouse":[12,41,49,68,89,109,128,149,169,188,208,228,248,269,289,309,329,348,369,389,409,428,448,468,489,509,528,548,569,588,608,628,649,669,688,709,728,748,768,788,808,828,848,868,888,908,928,948,968,988,1008,1028,1049,1068,1089,1109,1128,1148,1168,1189,1209,1228,1248],"xSR":741.5,"ySR":469.95,"xT1":424.9,"yT1":0,"xT2":1058.1,"yT2":0,"toosoon":0,"cond_shown":"equaldotanddens","ratio_trial":750,"smaller_num":"18","larger_num":"24","correct_side":1,"subjID":"juanestebancabastorres31","gender":"0","age":"12","school":"6"},{"start_time":1551795001558,"click_time":1551795002601,"finger_time":1551795002281,"fix_duration":975.8995823644909,"trial":55,"RT":723,"MT":320,"sideResp":2,"stimulus":"img/900/equaldotsize/L/10_Ratio_900_L_20_R_18.png","xmouse":[790,790,790,790,790,790,790,790,790,790,790,790,790,790,790,790,790,790,790,790,790,790,790,790,790,790,790,790,790,790,790,790,790,802,809,833,874,909,933,965,995,1022,1054,1062,1065,1066,1071,1076,1083,1091,1100,1118,1125],"ymouse":[548,548,548,548,548,548,548,548,548,548,548,548,548,548,548,548,548,548,548,548,548,548,548,548,548,548,548,548,548,548,548,548,548,531,522,487,426,374,345,308,273,241,202,191,187,185,178,169,157,145,133,105,87],"timestamp_mouse":[9,24,45,63,83,103,123,143,164,183,203,223,243,264,285,303,324,343,364,384,404,423,444,463,483,503,524,543,564,583,603,623,643,663,683,703,723,743,763,784,803,823,843,863,883,903,924,943,963,984,1004,1024,1043],"xSR":741.5,"ySR":469.95,"xT1":424.9,"yT1":0,"xT2":1058.1,"yT2":0,"toosoon":0,"cond_shown":"equaldotsize","ratio_trial":900,"smaller_num":"18","larger_num":"20","correct_side":1,"subjID":"juanestebancabastorres31","gender":"0","age":"12","school":"6"},{"start_time":1551795007667,"click_time":1551795015481,"finger_time":1551795014861,"fix_duration":984.8067188952286,"trial":56,"RT":7194,"MT":620,"sideResp":1,"stimulus":"img/900/randomdotsizeEA/L/4_Ratio_900_L_20_R_18.png","xmouse":[808,808,808,808,808,808,808,808,808,808,808,808,808,808,808,808,808,808,808,808,808,808,808,808,808,808,808,808,808,808,808,808,808,808,808,808,808,808,808,808,808,808,808,808,808,808,808,808,808,808,808,808,808,808,808,808,808,808,808,808,808,808,808,808,808,808,808,808,808,808,808,808,808,808,808,808,808,808,808,808,808,808,808,808,808,808,808,808,808,808,808,808,808,808,808,808,808,808,808,808,808,808,808,808,808,808,808,808,808,808,808,808,808,808,808,808,808,808,808,808,808,808,808,808,808,808,808,808,808,808,808,808,808,808,808,808,808,808,808,808,808,808,808,808,808,808,808,808,808,808,808,808,808,808,808,808,808,808,808,808,808,808,808,808,808,808,808,808,808,808,808,808,808,808,808,808,808,808,808,808,808,808,808,808,808,808,808,808,808,808,808,808,808,808,808,808,808,808,808,808,808,808,808,808,808,808,808,808,808,808,808,808,808,808,808,808,808,808,808,808,808,808,808,808,808,808,808,808,808,808,808,808,808,808,808,808,808,808,808,808,808,808,808,808,808,808,808,808,808,808,808,808,808,808,808,808,808,808,808,808,808,808,808,808,808,808,808,808,808,808,808,808,808,808,808,808,808,808,808,808,808,808,808,808,808,808,808,808,808,808,808,808,808,808,808,808,808,808,808,808,808,808,808,808,808,808,808,808,808,808,808,808,808,808,808,808,808,808,808,808,808,808,808,808,808,808,808,808,808,808,808,808,808,808,808,808,808,808,808,808,808,808,808,808,808,808,808,808,808,808,808,808,808,808,808,808,808,813,817,818,818,811,790,779,777,768,752,700,656,597,537,483,407,387,372,370,362,358,357,357,357,357,357,357,357,357,357,367,387,414,442],"ymouse":[542,542,542,542,542,542,542,542,542,542,542,542,542,542,542,542,542,542,542,542,542,542,542,542,542,542,542,542,542,542,542,542,542,542,542,542,542,542,542,542,542,542,542,542,542,542,542,542,542,542,542,542,542,542,542,542,542,542,542,542,542,542,542,542,542,542,542,542,542,542,542,542,542,542,542,542,542,542,542,542,542,542,542,542,542,542,542,542,542,542,542,542,542,542,542,542,542,542,542,542,542,542,542,542,542,542,542,542,542,542,542,542,542,542,542,542,542,542,542,542,542,542,542,542,542,542,542,542,542,542,542,542,542,542,542,542,542,542,542,542,542,542,542,542,542,542,542,542,542,542,542,542,542,542,542,542,542,542,542,542,542,542,542,542,542,542,542,542,542,542,542,542,542,542,542,542,542,542,542,542,542,542,542,542,542,542,542,542,542,542,542,542,542,542,542,542,542,542,542,542,542,542,542,542,542,542,542,542,542,542,542,542,542,542,542,542,542,542,542,542,542,542,542,542,542,542,542,542,542,542,542,542,542,542,542,542,542,542,542,542,542,542,542,542,542,542,542,542,542,542,542,542,542,542,542,542,542,542,542,542,542,542,542,542,542,542,542,542,542,542,542,542,542,542,542,542,542,542,542,542,542,542,542,542,542,542,542,542,542,542,542,542,542,542,542,542,542,542,542,542,542,542,542,542,542,542,542,542,542,542,542,542,542,542,542,542,542,542,542,542,542,542,542,542,542,542,542,542,542,542,542,542,542,542,542,542,542,542,542,542,542,542,542,542,542,542,542,542,542,542,542,542,542,542,542,542,542,523,497,469,442,416,372,357,353,341,322,272,237,202,173,150,109,97,83,78,68,62,62,62,62,62,62,62,62,62,61,63,66,69,77],"timestamp_mouse":[14,35,54,74,94,114,135,156,175,195,214,234,255,274,294,315,334,354,374,395,415,435,455,474,494,514,534,554,574,596,615,634,654,674,694,716,735,754,774,795,815,834,854,874,895,914,935,954,974,994,1016,1034,1054,1075,1094,1114,1134,1154,1175,1195,1214,1234,1254,1274,1295,1314,1334,1354,1374,1395,1415,1434,1454,1474,1496,1514,1534,1555,1574,1595,1614,1634,1654,1676,1695,1714,1734,1755,1774,1794,1815,1834,1855,1874,1894,1915,1934,1955,1975,1994,2020,2034,2055,2075,2094,2114,2134,2154,2175,2194,2214,2235,2256,2275,2295,2314,2335,2354,2375,2395,2415,2434,2455,2474,2494,2515,2535,2555,2575,2595,2614,2634,2654,2674,2694,2714,2734,2756,2774,2795,2814,2835,2854,2875,2895,2915,2934,2955,2974,2994,3015,3034,3054,3075,3094,3115,3134,3155,3174,3194,3214,3234,3254,3274,3294,3315,3335,3354,3374,3395,3415,3434,3455,3475,3494,3514,3534,3554,3574,3594,3614,3634,3655,3675,3694,3714,3734,3754,3774,3794,3815,3835,3854,3874,3895,3914,3934,3954,3975,3994,4015,4034,4054,4075,4095,4114,4135,4155,4175,4194,4214,4235,4255,4275,4295,4315,4334,4355,4375,4395,4415,4434,4455,4475,4495,4514,4534,4555,4574,4595,4615,4634,4655,4675,4695,4714,4735,4755,4774,4794,4815,4834,4854,4874,4895,4915,4934,4956,4974,4995,5015,5035,5054,5075,5095,5115,5134,5155,5175,5194,5214,5234,5254,5274,5295,5315,5336,5354,5374,5394,5414,5434,5455,5474,5494,5515,5534,5554,5575,5594,5615,5634,5654,5674,5694,5714,5734,5754,5775,5795,5815,5834,5854,5874,5894,5914,5934,5954,5975,5994,6014,6035,6054,6074,6094,6115,6134,6156,6174,6194,6214,6234,6254,6274,6295,6314,6334,6355,6375,6394,6414,6434,6454,6474,6494,6514,6535,6554,6574,6594,6614,6634,6654,6675,6695,6714,6736,6754,6774,6794,6814,6834,6854,6874,6894,6915,6934,6954,6975,6994,7015,7034,7054,7074,7094,7115,7134,7154,7174,7194,7215,7235,7254,7276,7294,7314,7335,7354,7374,7394,7414,7435,7454,7475,7494,7515,7534,7554,7574,7595,7614,7635,7654,7675,7694,7714,7735,7754,7774,7794,7814],"xSR":741.5,"ySR":469.95,"xT1":424.9,"yT1":0,"xT2":1058.1,"yT2":0,"toosoon":0,"cond_shown":"randomdotsizeEA","ratio_trial":900,"smaller_num":"18","larger_num":"20","correct_side":1,"subjID":"juanestebancabastorres31","gender":"0","age":"12","school":"6"},{"start_time":1551795018501,"click_time":1551795019422,"finger_time":1551795018981,"fix_duration":257.3076768893698,"trial":57,"RT":480,"MT":441,"sideResp":2,"stimulus":"img/250/equaldotsize/R/10_Ratio_250_L_4_R_16.png","xmouse":[801,801,801,801,801,801,801,801,801,801,801,801,801,801,801,801,801,801,801,801,801,801,809,819,833,851,900,935,968,1006,1037,1071,1138,1150,1158,1160,1160,1160,1160,1160,1160,1160,1160,1153,1132,1109,1070],"ymouse":[527,527,527,527,527,527,527,527,527,527,527,527,527,527,527,527,527,527,527,527,527,527,504,481,459,432,376,338,306,275,252,225,156,141,132,130,129,129,129,129,129,129,128,121,110,102,88],"timestamp_mouse":[8,20,42,60,80,100,121,140,160,181,200,220,240,260,281,300,321,340,360,381,400,420,441,460,480,500,521,540,560,580,600,620,641,660,680,701,721,740,760,781,800,821,841,860,880,900,921],"xSR":741.5,"ySR":469.95,"xT1":424.9,"yT1":0,"xT2":1058.1,"yT2":0,"toosoon":0,"cond_shown":"equaldotsize","ratio_trial":250,"smaller_num":"4","larger_num":"16","correct_side":2,"subjID":"juanestebancabastorres31","gender":"0","age":"12","school":"6"},{"start_time":1551795023162,"click_time":1551795027982,"finger_time":1551795024142,"fix_duration":1298.4115694451884,"trial":58,"RT":980,"MT":3840,"sideResp":2,"stimulus":"img/750/randomdotsizeEA/L/8_Ratio_750_L_4_R_3.png","xmouse":[750,750,750,750,750,750,750,750,750,750,750,750,750,750,750,750,750,750,750,750,750,750,750,750,750,750,750,750,750,750,750,750,750,750,750,750,750,750,750,750,750,750,750,750,750,748,745,744,743,740,740,740,740,740,740,740,740,740,740,740,740,740,740,740,740,740,740,740,740,740,740,740,740,740,740,740,740,740,740,740,746,749,750,750,748,747,747,747,747,742,735,729,726,725,724,719,715,704,702,701,701,701,706,721,763,772,776,781,787,799,801,801,799,797,795,795,795,795,795,795,795,795,795,795,795,795,795,795,795,795,794,793,791,791,790,790,790,790,790,790,790,788,786,785,782,779,777,777,777,777,777,777,773,771,768,767,767,767,767,767,767,767,767,767,767,767,767,767,767,767,767,767,767,767,767,767,767,767,767,767,767,767,767,767,767,767,768,768,768,768,768,768,768,768,768,769,769,770,770,770,770,770,770,770,770,770,770,770,770,770,777,800,834,871,919,941,958,975,985,990,990,990,990,990,990,990,990,990,990,990,990,990,990,990,990,990,990,990,990,990,990,1070],"ymouse":[557,557,557,557,557,557,557,557,557,557,557,557,557,557,557,557,557,557,557,557,557,557,557,557,557,557,557,557,557,557,557,557,557,557,557,557,557,557,557,557,557,557,557,557,557,559,561,562,563,566,566,566,566,566,566,566,566,566,566,566,566,566,566,566,566,566,566,566,566,566,566,566,566,566,566,566,566,566,566,566,561,561,561,562,568,569,569,569,569,572,577,580,583,584,587,592,594,601,602,602,602,601,600,593,582,578,576,573,568,555,551,547,544,542,542,542,542,542,542,542,542,542,542,542,542,542,542,542,542,542,542,542,542,542,542,542,542,542,542,542,542,543,544,546,549,551,552,552,552,552,552,552,554,555,558,559,559,559,559,559,559,559,559,559,559,559,559,559,559,559,559,559,559,559,559,559,559,558,557,554,548,537,527,515,492,477,475,474,474,474,474,474,474,474,474,475,478,480,481,481,481,481,481,481,481,481,481,481,481,481,480,467,448,427,383,306,226,136,62,28,28,28,28,28,28,28,28,28,28,28,28,28,28,28,28,28,28,28,28,28,28,2],"timestamp_mouse":[1,19,41,59,79,99,119,140,159,180,199,219,239,259,280,299,320,339,359,379,400,419,439,459,479,499,519,540,560,579,600,619,639,659,679,700,720,740,759,780,799,819,840,860,879,899,919,940,959,980,1000,1019,1040,1059,1080,1099,1120,1139,1159,1179,1199,1219,1239,1260,1279,1300,1319,1339,1359,1379,1399,1419,1439,1459,1479,1500,1520,1539,1559,1579,1599,1619,1639,1660,1679,1699,1719,1740,1759,1779,1799,1819,1839,1859,1879,1899,1920,1939,1959,1979,2000,2020,2040,2059,2079,2099,2120,2139,2159,2180,2199,2219,2239,2260,2279,2299,2320,2339,2359,2379,2399,2420,2441,2460,2480,2500,2519,2539,2559,2579,2599,2619,2639,2660,2680,2699,2719,2739,2759,2779,2799,2819,2839,2859,2879,2899,2919,2939,2959,2979,3000,3019,3039,3059,3079,3099,3119,3139,3159,3179,3199,3220,3240,3259,3280,3300,3319,3339,3359,3379,3399,3420,3439,3459,3479,3499,3520,3539,3559,3579,3599,3619,3639,3659,3679,3699,3719,3739,3760,3779,3799,3819,3840,3860,3880,3900,3919,3939,3959,3979,3999,4019,4039,4059,4079,4099,4119,4140,4159,4179,4199,4219,4240,4260,4279,4300,4319,4339,4359,4380,4399,4419,4439,4459,4480,4499,4519,4539,4560,4581,4599,4620,4640,4660,4680,4699,4719,4740,4760,4779,4799,4819],"xSR":741.5,"ySR":469.95,"xT1":424.9,"yT1":0,"xT2":1058.1,"yT2":0,"toosoon":0,"cond_shown":"randomdotsizeEA","ratio_trial":750,"smaller_num":"3","larger_num":"4","correct_side":1,"subjID":"juanestebancabastorres31","gender":"0","age":"12","school":"6"},{"start_time":1551795031920,"click_time":1551795032662,"finger_time":1551795032561,"fix_duration":1377.8796645466682,"trial":59,"RT":641,"MT":101,"sideResp":1,"stimulus":"img/250/equaldotsize/L/7_Ratio_250_L_8_R_2.png","xmouse":[771,771,771,771,771,771,771,771,771,771,771,771,771,771,771,771,771,771,771,771,771,771,771,771,771,771,771,771,771,771,770,767,744,717,677,615,579,524],"ymouse":[527,527,527,527,527,527,527,527,527,527,527,527,527,527,527,527,527,527,527,527,527,527,527,527,527,527,527,527,527,527,522,511,446,369,292,198,150,90],"timestamp_mouse":[9,39,41,62,81,101,121,141,161,183,202,221,242,262,281,301,322,341,361,381,402,421,441,461,481,501,522,542,562,581,601,621,641,661,681,701,721,741],"xSR":741.5,"ySR":469.95,"xT1":424.9,"yT1":0,"xT2":1058.1,"yT2":0,"toosoon":0,"cond_shown":"equaldotsize","ratio_trial":250,"smaller_num":"2","larger_num":"8","correct_side":1,"subjID":"juanestebancabastorres31","gender":"0","age":"12","school":"6"},{"start_time":1551795034803,"click_time":1551795036041,"finger_time":1551795035422,"fix_duration":1141.9774071472439,"trial":60,"RT":619,"MT":619,"sideResp":1,"stimulus":"img/500/equaldotanddens/L/7_Ratio_500_L_10_R_5.png","xmouse":[805,805,805,805,805,805,805,805,805,805,805,805,805,805,805,805,805,805,805,805,805,805,805,805,805,805,805,802,790,778,762,746,709,689,661,630,606,579,576,573,573,571,570,565,560,551,542,536,536,536,535,535,533,533,533,533,533,533,532,529,526,523],"ymouse":[503,503,503,503,503,503,503,503,503,503,503,503,503,503,503,503,503,503,503,503,503,503,503,503,503,503,503,503,487,471,452,433,391,367,330,286,253,219,213,202,192,182,174,154,136,114,94,78,77,77,75,72,67,66,66,66,66,66,66,66,67,69],"timestamp_mouse":[18,39,60,79,98,119,139,158,179,198,218,239,258,278,298,319,338,358,378,399,419,438,458,478,499,518,538,558,579,598,619,638,659,678,698,718,739,758,778,798,818,839,858,878,899,918,938,959,978,998,1020,1039,1058,1078,1098,1118,1139,1158,1179,1198,1218,1238],"xSR":741.5,"ySR":469.95,"xT1":424.9,"yT1":0,"xT2":1058.1,"yT2":0,"toosoon":0,"cond_shown":"equaldotanddens","ratio_trial":500,"smaller_num":"5","larger_num":"10","correct_side":1,"subjID":"juanestebancabastorres31","gender":"0","age":"12","school":"6"},{"start_time":1551795037904,"click_time":1551795038681,"finger_time":1551795038502,"fix_duration":1081.3466133006932,"trial":61,"RT":598,"MT":179,"sideResp":2,"stimulus":"img/900/randomdotsizeEA/L/8_Ratio_900_L_20_R_18.png","xmouse":[790,790,790,790,790,790,790,790,790,790,790,790,790,790,790,790,790,790,790,790,790,790,790,790,790,790,790,791,803,823,844,865,926,942,955,967,987,1015,1096],"ymouse":[554,554,554,554,554,554,554,554,554,554,554,554,554,554,554,554,554,554,554,554,554,554,554,554,554,554,554,553,516,446,370,302,188,167,152,140,126,112,83],"timestamp_mouse":[18,38,57,78,97,117,138,157,178,198,217,238,257,277,298,317,337,358,378,398,417,437,458,478,497,517,537,557,577,598,617,637,658,677,697,719,737,757,777],"xSR":741.5,"ySR":469.95,"xT1":424.9,"yT1":0,"xT2":1058.1,"yT2":0,"toosoon":0,"cond_shown":"randomdotsizeEA","ratio_trial":900,"smaller_num":"18","larger_num":"20","correct_side":1,"subjID":"juanestebancabastorres31","gender":"0","age":"12","school":"6"},{"start_time":1551795044754,"click_time":1551795045861,"finger_time":1551795045542,"fix_duration":251.1773803324916,"trial":62,"RT":788,"MT":319,"sideResp":2,"stimulus":"img/900/randomdotsizeEA/L/8_Ratio_900_L_20_R_18.png","xmouse":[811,811,811,811,811,811,811,811,811,811,811,811,811,811,811,811,811,811,811,811,811,811,811,811,811,811,811,811,811,811,811,811,811,811,811,811,811,811,814,847,885,947,957,962,968,975,986,995,1002,1007,1014,1025,1032,1042,1054,1065],"ymouse":[506,506,506,506,506,506,506,506,506,506,506,506,506,506,506,506,506,506,506,506,506,506,506,506,506,506,506,506,506,506,506,506,506,506,506,506,506,506,493,429,350,236,219,210,201,187,169,152,140,131,122,110,103,94,83,73],"timestamp_mouse":[8,27,47,67,87,107,129,148,168,187,207,227,248,269,287,307,327,347,367,388,408,427,447,467,487,507,527,548,567,587,608,627,647,668,687,707,727,749,767,788,807,828,847,867,887,907,927,947,967,987,1008,1028,1047,1067,1087,1107],"xSR":741.5,"ySR":469.95,"xT1":424.9,"yT1":0,"xT2":1058.1,"yT2":0,"toosoon":0,"cond_shown":"randomdotsizeEA","ratio_trial":900,"smaller_num":"18","larger_num":"20","correct_side":1,"subjID":"juanestebancabastorres31","gender":"0","age":"12","school":"6"},{"start_time":1551795046994,"click_time":1551795047822,"finger_time":1551795047642,"fix_duration":250,"trial":63,"RT":648,"MT":180,"sideResp":2,"stimulus":"img/900/equaldotsize/R/12_Ratio_900_L_18_R_20.png","xmouse":[762,762,762,762,762,762,762,762,762,762,762,762,762,762,762,762,762,762,762,762,762,762,762,762,762,762,762,762,762,762,764,776,800,834,877,967,982,993,1007,1039,1056,1073],"ymouse":[494,494,494,494,494,494,494,494,494,494,494,494,494,494,494,494,496,496,496,496,496,496,496,496,496,496,496,496,496,496,496,475,416,345,282,183,165,153,140,115,104,94],"timestamp_mouse":[9,36,47,67,87,108,127,148,168,187,208,228,248,267,287,307,328,347,368,387,408,428,447,468,487,507,528,547,568,587,607,627,648,667,687,708,727,748,768,788,807,828],"xSR":741.5,"ySR":469.95,"xT1":424.9,"yT1":0,"xT2":1058.1,"yT2":0,"toosoon":0,"cond_shown":"equaldotsize","ratio_trial":900,"smaller_num":"18","larger_num":"20","correct_side":2,"subjID":"juanestebancabastorres31","gender":"0","age":"12","school":"6"},{"start_time":1551795049073,"click_time":1551795050364,"finger_time":1551795049721,"fix_duration":250,"trial":64,"RT":648,"MT":643,"sideResp":1,"stimulus":"img/900/equaldotanddens/L/4_Ratio_900_L_20_R_18.png","xmouse":[790,790,790,790,790,790,790,790,790,790,790,790,790,790,790,790,790,790,790,790,790,790,790,790,790,790,790,790,790,790,790,788,771,751,740,733,725,720,716,706,697,663,635,608,588,576,573,570,566,561,553,532,528,528,528,528,528,528,528,528,528,528,528,527,521],"ymouse":[491,491,491,491,491,491,491,491,491,491,491,491,491,491,491,491,491,491,491,491,491,491,491,491,491,491,491,491,491,491,491,475,427,381,356,340,316,305,295,278,266,221,188,167,150,139,136,133,128,120,110,88,86,85,85,85,85,85,85,85,85,85,85,85,79],"timestamp_mouse":[8,43,49,69,90,109,128,148,169,188,209,228,248,268,289,309,329,348,368,388,410,429,448,469,488,509,529,549,568,589,608,628,648,668,688,708,728,750,768,789,808,828,848,869,888,910,929,948,968,988,1009,1028,1048,1069,1088,1108,1129,1149,1168,1189,1208,1229,1249,1271,1291],"xSR":741.5,"ySR":469.95,"xT1":424.9,"yT1":0,"xT2":1058.1,"yT2":0,"toosoon":0,"cond_shown":"equaldotanddens","ratio_trial":900,"smaller_num":"18","larger_num":"20","correct_side":1,"subjID":"juanestebancabastorres31","gender":"0","age":"12","school":"6"},{"start_t