[{"start_time":1551793951399,"click_time":1551793953947,"finger_time":1551793951408,"fix_duration":1227.0483307161796,"trial":0,"RT":9,"MT":2539,"sideResp":1,"stimulus":[],"xmouse":[442,442,442,442,442,442,442,442,442,442,442,442,442,442,442,442,442,442,442,442,442,442,442,442,442,449,471,513,582,604,613,615,615,615,615,615,616,618,666,724,798,870,956,972,973,970,960,932,928,923,919,910,894,867,860,854,850,844,833,831,830,829,829,829,828,826,820,793,788,788,788,788,788,788,788,788,788,788,788,788,788,788,788,788,788,788,788,788,788,788,788,788,788,788,788,788,788,788,788,788,788,788,788,787,784,779,774,747,728,709,686,652,614,580,579,578,577,566,563,559,555,552,550,544,541,536,530,518],"ymouse":[499,499,499,499,499,499,499,499,499,499,499,499,499,499,499,499,499,499,499,499,499,499,499,499,499,497,492,487,480,480,480,480,480,480,480,480,480,485,530,562,599,626,628,619,612,604,596,584,581,577,573,566,557,543,540,539,539,539,541,541,541,541,541,541,541,541,540,537,536,536,536,536,536,536,536,536,536,536,536,536,536,536,536,536,536,536,536,536,536,536,536,536,536,536,536,536,536,536,536,536,536,536,536,536,533,530,528,513,504,492,475,441,381,298,278,265,261,232,210,183,161,140,125,113,109,104,91,76],"timestamp_mouse":[8,28,47,68,88,108,128,149,168,189,208,228,248,268,287,309,327,348,368,387,407,427,449,467,489,509,528,547,567,587,608,628,648,668,687,708,728,748,768,787,808,828,849,868,888,908,927,948,967,988,1008,1027,1048,1067,1087,1107,1128,1148,1168,1187,1209,1228,1248,1268,1288,1309,1327,1348,1369,1388,1407,1429,1448,1468,1489,1507,1528,1549,1567,1588,1607,1628,1649,1667,1687,1709,1728,1748,1767,1787,1809,1827,1848,1868,1888,1907,1929,1949,1967,1988,2008,2027,2047,2068,2087,2108,2129,2149,2167,2187,2208,2229,2248,2268,2288,2309,2327,2349,2367,2388,2407,2427,2448,2467,2488,2508,2527,2547],"xSR":383.5,"ySR":459.55,"xT1":210.09999999999997,"yT1":0,"xT2":556.9,"yT2":0,"toosoon":0,"cond_shown":"Congruent","ratio_trial":200,"L_num":3,"L_den":6,"R_num":14,"R_den":20,"correct_side":2,"subjID":"juanleonrodriguez17","gender":"0","age":"11","school":"6","test":{"fix_dur":[250,1500],"timestim":1000,"targets_dim":[100,100],"targets_relative_coord":[0.3,0.7],"size_stim":[880,420],"start_dim":[100,100],"size_start":[300,300],"size_fix":60,"samplingrate":20,"img_types":["Congruent","Incongruent"],"ratios":[100,200,300],"rep_conds":19,"nTrials":120,"trials_to_rest":500,"Trials_order":[50,103,74,20,62,78,60,34,40,73,90,13,49,115,48,81,83,118,54,0,66,18,86,72,107,110,116,87,94,17,46,45,44,65,61,27,35,99,52,98,68,32,30,70,10,89,112,31,77,16,95,38,2,82,79,100,22,109,97,42,85,114,47,51,9,25,76,26,28,106,63,15,80,59,43,67,21,105,96,33,75,39,117,53,8,111,55,5,12,14,23,24,113,91,92,119,37,69,56,108,1,64,104,7,88,93,29,11,3,71,57,102,84,101,41,6,4,19,36,58],"cond_shown":["Congruent","Incongruent","Congruent","Congruent","Congruent","Congruent","Congruent","Congruent","Congruent","Incongruent","Congruent","Incongruent","Incongruent","Incongruent","Congruent","Incongruent","Incongruent","Congruent","Congruent","Congruent","Congruent","Congruent","Congruent","Congruent","Incongruent","Congruent","Congruent","Incongruent","Congruent","Incongruent","Congruent","Incongruent","Congruent","Incongruent","Incongruent","Incongruent","Incongruent","Incongruent","Congruent","Congruent","Congruent","Congruent","Congruent","Congruent","Congruent","Incongruent","Congruent","Incongruent","Incongruent","Congruent","Incongruent","Congruent","Congruent","Congruent","Incongruent","Congruent","Congruent","Incongruent","Incongruent","Congruent","Incongruent","Congruent","Incongruent","Incongruent","Incongruent","Incongruent","Congruent","Congruent","Congruent","Congruent","Incongruent","Incongruent","Congruent","Incongruent","Incongruent","Incongruent","Incongruent","Incongruent","Congruent","Incongruent","Incongruent","Incongruent","Incongruent","Incongruent","Congruent","Incongruent","Incongruent","Incongruent","Congruent","Congruent","Incongruent","Congruent","Incongruent","Incongruent","Congruent","Incongruent","Incongruent","Incongruent","Congruent","Congruent","Incongruent","Congruent","Congruent","Incongruent","Congruent","Incongruent","Incongruent","Incongruent","Incongruent","Incongruent","Incongruent","Congruent","Congruent","Incongruent","Incongruent","Congruent","Congruent","Incongruent","Congruent","Congruent"],"ratio_trial":[200,100,200,200,200,100,100,300,300,100,100,100,100,100,100,200,300,300,100,100,100,100,200,100,300,200,200,200,300,300,300,200,200,300,100,200,300,200,300,200,200,200,100,300,300,300,300,100,300,300,300,200,200,300,100,300,300,100,100,100,100,100,300,200,200,100,300,200,300,300,200,200,200,300,100,100,200,200,100,200,200,200,200,300,200,200,100,300,100,200,300,100,300,100,200,300,100,200,200,100,100,300,200,100,300,200,300,300,200,300,200,100,100,300,300,100,300,100,100,300],"left_num":[3,9,3,20,9,2,4,18,1,2,2,6,9,2,11,11,4,3,9,6,1,1,1,11,4,3,3,1,3,4,4,14,9,4,2,4,4,7,8,7,6,1,11,4,24,13,9,8,4,2,3,16,5,4,6,1,1,3,3,8,2,3,13,11,1,6,2,3,18,1,7,1,3,4,8,3,14,4,9,4,7,3,3,13,7,4,3,4,11,12,4,6,4,17,1,8,13,1,1,6,4,20,21,12,2,1,4,4,14,3,3,3,9,7,3,2,7,2,15,1],"right_num":[14,20,14,9,13,6,15,9,3,6,11,3,20,6,6,3,2,4,8,15,18,18,21,4,8,14,11,3,2,2,2,6,4,8,8,6,2,6,1,18,11,21,4,2,8,12,3,1,8,10,4,12,14,2,7,7,8,4,8,2,8,4,12,3,3,7,12,9,9,8,8,2,14,2,6,7,12,6,8,14,14,1,1,12,2,6,7,2,4,6,2,15,8,10,21,14,12,3,21,5,8,13,2,2,10,2,8,6,12,4,11,2,8,8,4,6,20,6,13,3],"left_den":[6,10,6,25,30,5,10,20,5,4,5,12,10,4,22,20,20,6,15,12,2,2,2,22,5,10,10,2,6,20,5,30,20,5,4,5,20,15,16,15,20,2,22,5,30,26,10,20,5,20,6,20,10,5,10,20,30,6,5,16,4,20,26,20,2,10,10,12,20,30,10,3,6,20,16,9,30,5,15,6,10,10,10,26,21,5,9,20,22,20,20,12,5,30,2,10,26,2,2,20,8,25,30,30,20,3,5,5,30,6,4,6,15,10,6,5,14,4,25,5],"right_den":[20,25,20,15,26,12,30,15,6,15,22,5,25,15,15,4,4,5,16,25,30,30,30,10,16,28,22,10,10,4,4,9,16,16,20,10,4,9,5,27,22,30,10,4,16,15,5,2,16,25,20,20,20,4,14,20,24,10,16,5,20,16,15,4,10,14,24,20,15,24,16,15,20,4,10,30,18,10,16,30,28,2,2,15,15,10,30,4,10,15,4,25,16,15,30,28,20,10,30,25,20,26,4,4,25,15,16,12,18,20,20,5,16,20,20,12,25,15,26,6],"correct_side":[2,1,2,1,2,2,2,1,2,1,2,2,1,1,1,2,2,2,1,2,2,2,2,1,1,2,2,1,1,2,1,2,1,1,1,1,2,2,1,2,2,2,1,1,1,2,1,2,1,2,1,1,2,1,1,2,2,1,1,1,1,2,2,2,1,1,2,2,1,2,1,1,2,2,2,1,2,1,1,1,1,2,2,2,1,1,1,2,1,1,2,2,1,2,2,1,2,1,2,1,1,1,1,2,2,1,1,1,2,1,1,1,1,1,1,2,2,1,1,2],"img_shown":["img2/200/Congruent/R/C_Dist_200_LN_3_LD_6_RN_14_RD_20_1.png","img2/100/Incongruent/L/I_Dist_100_LN_9_LD_10_RN_20_RD_25_0.png","img2/200/Congruent/R/C_Dist_200_LN_3_LD_6_RN_14_RD_20_1.png","img2/200/Congruent/L/C_Dist_200_LN_20_LD_25_RN_9_RD_15_0.png","img2/200/Congruent/R/C_Dist_200_LN_9_LD_30_RN_13_RD_26_1.png","img2/100/Congruent/R/C_Dist_100_LN_2_LD_5_RN_6_RD_12_1.png","img2/100/Congruent/R/C_Dist_100_LN_4_LD_10_RN_15_RD_30_1.png","img2/300/Congruent/L/C_Dist_300_LN_18_LD_20_RN_9_RD_15_0.png","img2/300/Congruent/R/C_Dist_300_LN_1_LD_5_RN_3_RD_6_1.png","img2/100/Incongruent/L/I_Dist_100_LN_2_LD_4_RN_6_RD_15_0.png","img2/100/Congruent/R/C_Dist_100_LN_2_LD_5_RN_11_RD_22_1.png","img2/100/Incongruent/R/I_Dist_100_LN_6_LD_12_RN_3_RD_5_1.png","img2/100/Incongruent/L/I_Dist_100_LN_9_LD_10_RN_20_RD_25_0.png","img2/100/Incongruent/L/I_Dist_100_LN_2_LD_4_RN_6_RD_15_0.png","img2/100/Congruent/L/C_Dist_100_LN_11_LD_22_RN_6_RD_15_0.png","img2/200/Incongruent/R/I_Dist_200_LN_11_LD_20_RN_3_RD_4_1.png","img2/300/Incongruent/R/I_Dist_300_LN_4_LD_20_RN_2_RD_4_1.png","img2/300/Congruent/R/C_Dist_300_LN_3_LD_6_RN_4_RD_5_1.png","img2/100/Congruent/L/C_Dist_100_LN_9_LD_15_RN_8_RD_16_0.png","img2/100/Congruent/R/C_Dist_100_LN_6_LD_12_RN_15_RD_25_1.png","img2/100/Congruent/R/C_Dist_100_LN_1_LD_2_RN_18_RD_30_1.png","img2/100/Congruent/R/C_Dist_100_LN_1_LD_2_RN_18_RD_30_1.png","img2/200/Congruent/R/C_Dist_200_LN_1_LD_2_RN_21_RD_30_1.png","img2/100/Congruent/L/C_Dist_100_LN_11_LD_22_RN_4_RD_10_0.png","img2/300/Incongruent/L/I_Dist_300_LN_4_LD_5_RN_8_RD_16_0.png","img2/200/Congruent/R/C_Dist_200_LN_3_LD_10_RN_14_RD_28_1.png","img2/200/Congruent/R/C_Dist_200_LN_3_LD_10_RN_11_RD_22_1.png","img2/200/Incongruent/L/I_Dist_200_LN_1_LD_2_RN_3_RD_10_0.png","img2/300/Congruent/L/C_Dist_300_LN_3_LD_6_RN_2_RD_10_0.png","img2/300/Incongruent/R/I_Dist_300_LN_4_LD_20_RN_2_RD_4_1.png","img2/300/Congruent/L/C_Dist_300_LN_4_LD_5_RN_2_RD_4_0.png","img2/200/Incongruent/R/I_Dist_200_LN_14_LD_30_RN_6_RD_9_1.png","img2/200/Congruent/L/C_Dist_200_LN_9_LD_20_RN_4_RD_16_0.png","img2/300/Incongruent/L/I_Dist_300_LN_4_LD_5_RN_8_RD_16_0.png","img2/100/Incongruent/L/I_Dist_100_LN_2_LD_4_RN_8_RD_20_0.png","img2/200/Incongruent/L/I_Dist_200_LN_4_LD_5_RN_6_RD_10_0.png","img2/300/Incongruent/R/I_Dist_300_LN_4_LD_20_RN_2_RD_4_1.png","img2/200/Incongruent/R/I_Dist_200_LN_7_LD_15_RN_6_RD_9_1.png","img2/300/Congruent/L/C_Dist_300_LN_8_LD_16_RN_1_RD_5_0.png","img2/200/Congruent/R/C_Dist_200_LN_7_LD_15_RN_18_RD_27_1.png","img2/200/Congruent/R/C_Dist_200_LN_6_LD_20_RN_11_RD_22_1.png","img2/200/Congruent/R/C_Dist_200_LN_1_LD_2_RN_21_RD_30_1.png","img2/100/Congruent/L/C_Dist_100_LN_11_LD_22_RN_4_RD_10_0.png","img2/300/Congruent/L/C_Dist_300_LN_4_LD_5_RN_2_RD_4_0.png","img2/300/Congruent/L/C_Dist_300_LN_24_LD_30_RN_8_RD_16_0.png","img2/300/Incongruent/R/I_Dist_300_LN_13_LD_26_RN_12_RD_15_1.png","img2/300/Congruent/L/C_Dist_300_LN_9_LD_10_RN_3_RD_5_0.png","img2/100/Incongruent/R/I_Dist_100_LN_8_LD_20_RN_1_RD_2_1.png","img2/300/Incongruent/L/I_Dist_300_LN_4_LD_5_RN_8_RD_16_0.png","img2/300/Congruent/R/C_Dist_300_LN_2_LD_20_RN_10_RD_25_1.png","img2/300/Incongruent/L/I_Dist_300_LN_3_LD_6_RN_4_RD_20_0.png","img2/200/Congruent/L/C_Dist_200_LN_16_LD_20_RN_12_RD_20_0.png","img2/200/Congruent/R/C_Dist_200_LN_5_LD_10_RN_14_RD_20_1.png","img2/300/Congruent/L/C_Dist_300_LN_4_LD_5_RN_2_RD_4_0.png","img2/100/Incongruent/L/I_Dist_100_LN_6_LD_10_RN_7_RD_14_0.png","img2/300/Congruent/R/C_Dist_300_LN_1_LD_20_RN_7_RD_20_1.png","img2/300/Congruent/R/C_Dist_300_LN_1_LD_30_RN_8_RD_24_1.png","img2/100/Incongruent/L/I_Dist_100_LN_3_LD_6_RN_4_RD_10_0.png","img2/100/Incongruent/L/I_Dist_100_LN_3_LD_5_RN_8_RD_16_0.png","img2/100/Congruent/L/C_Dist_100_LN_8_LD_16_RN_2_RD_5_0.png","img2/100/Incongruent/L/I_Dist_100_LN_2_LD_4_RN_8_RD_20_0.png","img2/100/Congruent/R/C_Dist_100_LN_3_LD_20_RN_4_RD_16_1.png","img2/300/Incongruent/R/I_Dist_300_LN_13_LD_26_RN_12_RD_15_1.png","img2/200/Incongruent/R/I_Dist_200_LN_11_LD_20_RN_3_RD_4_1.png","img2/200/Incongruent/L/I_Dist_200_LN_1_LD_2_RN_3_RD_10_0.png","img2/100/Incongruent/L/I_Dist_100_LN_6_LD_10_RN_7_RD_14_0.png","img2/300/Congruent/R/C_Dist_300_LN_2_LD_10_RN_12_RD_24_1.png","img2/200/Congruent/R/C_Dist_200_LN_3_LD_12_RN_9_RD_20_1.png","img2/300/Congruent/L/C_Dist_300_LN_18_LD_20_RN_9_RD_15_0.png","img2/300/Congruent/R/C_Dist_300_LN_1_LD_30_RN_8_RD_24_1.png","img2/200/Incongruent/L/I_Dist_200_LN_7_LD_10_RN_8_RD_16_0.png","img2/200/Incongruent/L/I_Dist_200_LN_1_LD_3_RN_2_RD_15_0.png","img2/200/Congruent/R/C_Dist_200_LN_3_LD_6_RN_14_RD_20_1.png","img2/300/Incongruent/R/I_Dist_300_LN_4_LD_20_RN_2_RD_4_1.png","img2/100/Incongruent/R/I_Dist_100_LN_8_LD_16_RN_6_RD_10_1.png","img2/100/Incongruent/L/I_Dist_100_LN_3_LD_9_RN_7_RD_30_0.png","img2/200/Incongruent/R/I_Dist_200_LN_14_LD_30_RN_12_RD_18_1.png","img2/200/Incongruent/L/I_Dist_200_LN_4_LD_5_RN_6_RD_10_0.png","img2/100/Congruent/L/C_Dist_100_LN_9_LD_15_RN_8_RD_16_0.png","img2/200/Incongruent/L/I_Dist_200_LN_4_LD_6_RN_14_RD_30_0.png","img2/200/Incongruent/L/I_Dist_200_LN_7_LD_10_RN_14_RD_28_0.png","img2/200/Incongruent/R/I_Dist_200_LN_3_LD_10_RN_1_RD_2_1.png","img2/200/Incongruent/R/I_Dist_200_LN_3_LD_10_RN_1_RD_2_1.png","img2/300/Incongruent/R/I_Dist_300_LN_13_LD_26_RN_12_RD_15_1.png","img2/200/Congruent/L/C_Dist_200_LN_7_LD_21_RN_2_RD_15_0.png","img2/200/Incongruent/L/I_Dist_200_LN_4_LD_5_RN_6_RD_10_0.png","img2/100/Incongruent/L/I_Dist_100_LN_3_LD_9_RN_7_RD_30_0.png","img2/300/Incongruent/R/I_Dist_300_LN_4_LD_20_RN_2_RD_4_1.png","img2/100/Congruent/L/C_Dist_100_LN_11_LD_22_RN_4_RD_10_0.png","img2/200/Congruent/L/C_Dist_200_LN_12_LD_20_RN_6_RD_15_0.png","img2/300/Incongruent/R/I_Dist_300_LN_4_LD_20_RN_2_RD_4_1.png","img2/100/Congruent/R/C_Dist_100_LN_6_LD_12_RN_15_RD_25_1.png","img2/300/Incongruent/L/I_Dist_300_LN_4_LD_5_RN_8_RD_16_0.png","img2/100/Incongruent/R/I_Dist_100_LN_17_LD_30_RN_10_RD_15_1.png","img2/200/Congruent/R/C_Dist_200_LN_1_LD_2_RN_21_RD_30_1.png","img2/300/Incongruent/L/I_Dist_300_LN_8_LD_10_RN_14_RD_28_0.png","img2/100/Incongruent/R/I_Dist_100_LN_13_LD_26_RN_12_RD_20_1.png","img2/200/Incongruent/L/I_Dist_200_LN_1_LD_2_RN_3_RD_10_0.png","img2/200/Congruent/R/C_Dist_200_LN_1_LD_2_RN_21_RD_30_1.png","img2/100/Congruent/L/C_Dist_100_LN_6_LD_20_RN_5_RD_25_0.png","img2/100/Incongruent/L/I_Dist_100_LN_4_LD_8_RN_8_RD_20_0.png","img2/300/Congruent/L/C_Dist_300_LN_20_LD_25_RN_13_RD_26_0.png","img2/200/Congruent/L/C_Dist_200_LN_21_LD_30_RN_2_RD_4_0.png","img2/100/Incongruent/R/I_Dist_100_LN_12_LD_30_RN_2_RD_4_1.png","img2/300/Congruent/R/C_Dist_300_LN_2_LD_20_RN_10_RD_25_1.png","img2/200/Incongruent/L/I_Dist_200_LN_1_LD_3_RN_2_RD_15_0.png","img2/300/Incongruent/L/I_Dist_300_LN_4_LD_5_RN_8_RD_16_0.png","img2/300/Incongruent/L/I_Dist_300_LN_4_LD_5_RN_6_RD_12_0.png","img2/200/Incongruent/R/I_Dist_200_LN_14_LD_30_RN_12_RD_18_1.png","img2/300/Incongruent/L/I_Dist_300_LN_3_LD_6_RN_4_RD_20_0.png","img2/200/Incongruent/L/I_Dist_200_LN_3_LD_4_RN_11_RD_20_0.png","img2/100/Congruent/L/C_Dist_100_LN_3_LD_6_RN_2_RD_5_0.png","img2/100/Congruent/L/C_Dist_100_LN_9_LD_15_RN_8_RD_16_0.png","img2/300/Incongruent/L/I_Dist_300_LN_7_LD_10_RN_8_RD_20_0.png","img2/300/Incongruent/L/I_Dist_300_LN_3_LD_6_RN_4_RD_20_0.png","img2/100/Congruent/R/C_Dist_100_LN_2_LD_5_RN_6_RD_12_1.png","img2/300/Congruent/R/C_Dist_300_LN_7_LD_14_RN_20_RD_25_1.png","img2/100/Incongruent/L/I_Dist_100_LN_2_LD_4_RN_6_RD_15_0.png","img2/100/Congruent/L/C_Dist_100_LN_15_LD_25_RN_13_RD_26_0.png","img2/300/Congruent/R/C_Dist_300_LN_1_LD_5_RN_3_RD_6_1.png"],"dist100_C":[["C_Dist_100_LN_10_LD_25_RN_3_RD_10_0.png","C_Dist_100_LN_11_LD_22_RN_4_RD_10_0.png","C_Dist_100_LN_11_LD_22_RN_6_RD_15_0.png","C_Dist_100_LN_15_LD_25_RN_13_RD_26_0.png","C_Dist_100_LN_3_LD_6_RN_2_RD_5_0.png","C_Dist_100_LN_6_LD_20_RN_5_RD_25_0.png","C_Dist_100_LN_8_LD_16_RN_2_RD_5_0.png","C_Dist_100_LN_9_LD_15_RN_8_RD_16_0.png"],["C_Dist_100_LN_1_LD_2_RN_18_RD_30_1.png","C_Dist_100_LN_1_LD_2_RN_3_RD_5_1.png","C_Dist_100_LN_12_LD_30_RN_13_RD_26_1.png","C_Dist_100_LN_2_LD_5_RN_11_RD_22_1.png","C_Dist_100_LN_2_LD_5_RN_6_RD_12_1.png","C_Dist_100_LN_3_LD_20_RN_4_RD_16_1.png","C_Dist_100_LN_4_LD_10_RN_15_RD_30_1.png","C_Dist_100_LN_4_LD_8_RN_6_RD_10_1.png","C_Dist_100_LN_6_LD_12_RN_15_RD_25_1.png","C_Dist_100_LN_7_LD_14_RN_15_RD_25_1.png","C_Dist_100_LN_7_LD_14_RN_9_RD_15_1.png"]],"dist100_I":[["I_Dist_100_LN_1_LD_2_RN_8_RD_20_0.png","I_Dist_100_LN_2_LD_4_RN_6_RD_15_0.png","I_Dist_100_LN_2_LD_4_RN_8_RD_20_0.png","I_Dist_100_LN_3_LD_5_RN_11_RD_22_0.png","I_Dist_100_LN_3_LD_5_RN_8_RD_16_0.png","I_Dist_100_LN_3_LD_6_RN_4_RD_10_0.png","I_Dist_100_LN_3_LD_9_RN_7_RD_30_0.png","I_Dist_100_LN_4_LD_8_RN_8_RD_20_0.png","I_Dist_100_LN_6_LD_10_RN_11_RD_22_0.png","I_Dist_100_LN_6_LD_10_RN_13_RD_26_0.png","I_Dist_100_LN_6_LD_10_RN_7_RD_14_0.png","I_Dist_100_LN_9_LD_10_RN_20_RD_25_0.png","I_Dist_100_LN_9_LD_15_RN_13_RD_26_0.png","I_Dist_100_LN_9_LD_15_RN_14_RD_28_0.png"],["I_Dist_100_LN_10_LD_25_RN_8_RD_16_1.png","I_Dist_100_LN_10_LD_25_RN_9_RD_18_1.png","I_Dist_100_LN_11_LD_22_RN_9_RD_15_1.png","I_Dist_100_LN_12_LD_24_RN_9_RD_15_1.png","I_Dist_100_LN_12_LD_30_RN_2_RD_4_1.png","I_Dist_100_LN_13_LD_26_RN_12_RD_20_1.png","I_Dist_100_LN_13_LD_26_RN_6_RD_10_1.png","I_Dist_100_LN_17_LD_30_RN_10_RD_15_1.png","I_Dist_100_LN_6_LD_12_RN_3_RD_5_1.png","I_Dist_100_LN_8_LD_16_RN_6_RD_10_1.png","I_Dist_100_LN_8_LD_20_RN_1_RD_2_1.png","I_Dist_100_LN_9_LD_18_RN_6_RD_10_1.png"]],"dist100_S":[["E_Dist_100_LN_2_LD_12_RN_2_RD_30_0.png","E_Dist_100_LN_6_LD_10_RN_6_RD_12_0.png"],["E_Dist_100_LN_6_LD_12_RN_6_RD_10_1.png"]],"dist200_C":[["C_Dist_200_LN_11_LD_22_RN_3_RD_10_0.png","C_Dist_200_LN_12_LD_15_RN_6_RD_10_0.png","C_Dist_200_LN_12_LD_20_RN_6_RD_15_0.png","C_Dist_200_LN_14_LD_28_RN_6_RD_20_0.png","C_Dist_200_LN_15_LD_25_RN_4_RD_10_0.png","C_Dist_200_LN_16_LD_20_RN_12_RD_20_0.png","C_Dist_200_LN_16_LD_30_RN_9_RD_27_0.png","C_Dist_200_LN_20_LD_25_RN_9_RD_15_0.png","C_Dist_200_LN_21_LD_30_RN_2_RD_4_0.png","C_Dist_200_LN_4_LD_10_RN_3_RD_15_0.png","C_Dist_200_LN_4_LD_8_RN_3_RD_10_0.png","C_Dist_200_LN_6_LD_15_RN_3_RD_15_0.png","C_Dist_200_LN_7_LD_21_RN_2_RD_15_0.png","C_Dist_200_LN_8_LD_15_RN_2_RD_6_0.png","C_Dist_200_LN_8_LD_15_RN_3_RD_9_0.png","C_Dist_200_LN_8_LD_15_RN_7_RD_21_0.png","C_Dist_200_LN_9_LD_20_RN_4_RD_16_0.png"],["C_Dist_200_LN_1_LD_2_RN_21_RD_30_1.png","C_Dist_200_LN_13_LD_26_RN_14_RD_20_1.png","C_Dist_200_LN_3_LD_10_RN_11_RD_22_1.png","C_Dist_200_LN_3_LD_10_RN_14_RD_28_1.png","C_Dist_200_LN_3_LD_10_RN_7_RD_14_1.png","C_Dist_200_LN_3_LD_12_RN_9_RD_20_1.png","C_Dist_200_LN_3_LD_6_RN_14_RD_20_1.png","C_Dist_200_LN_5_LD_10_RN_14_RD_20_1.png","C_Dist_200_LN_6_LD_12_RN_7_RD_10_1.png","C_Dist_200_LN_6_LD_20_RN_11_RD_22_1.png","C_Dist_200_LN_7_LD_15_RN_18_RD_27_1.png","C_Dist_200_LN_9_LD_30_RN_13_RD_26_1.png"]],"dist200_I":[["I_Dist_200_LN_1_LD_2_RN_3_RD_10_0.png","I_Dist_200_LN_1_LD_3_RN_2_RD_15_0.png","I_Dist_200_LN_3_LD_4_RN_11_RD_20_0.png","I_Dist_200_LN_4_LD_5_RN_6_RD_10_0.png","I_Dist_200_LN_4_LD_6_RN_14_RD_30_0.png","I_Dist_200_LN_7_LD_10_RN_12_RD_24_0.png","I_Dist_200_LN_7_LD_10_RN_14_RD_28_0.png","I_Dist_200_LN_7_LD_10_RN_8_RD_16_0.png"],["I_Dist_200_LN_11_LD_20_RN_3_RD_4_1.png","I_Dist_200_LN_14_LD_30_RN_12_RD_18_1.png","I_Dist_200_LN_14_LD_30_RN_6_RD_9_1.png","I_Dist_200_LN_3_LD_10_RN_1_RD_2_1.png","I_Dist_200_LN_4_LD_30_RN_1_RD_3_1.png","I_Dist_200_LN_6_LD_20_RN_3_RD_6_1.png","I_Dist_200_LN_7_LD_15_RN_4_RD_6_1.png","I_Dist_200_LN_7_LD_15_RN_6_RD_9_1.png","I_Dist_200_LN_9_LD_15_RN_8_RD_10_1.png"]],"dist200_S":[["E_Dist_200_LN_3_LD_6_RN_3_RD_10_0.png"],["E_Dist_200_LN_3_LD_10_RN_3_RD_6_1.png"]],"dist300_C":[["C_Dist_300_LN_11_LD_22_RN_1_RD_5_0.png","C_Dist_300_LN_11_LD_22_RN_2_RD_10_0.png","C_Dist_300_LN_11_LD_22_RN_4_RD_20_0.png","C_Dist_300_LN_12_LD_24_RN_2_RD_10_0.png","C_Dist_300_LN_18_LD_20_RN_9_RD_15_0.png","C_Dist_300_LN_20_LD_25_RN_13_RD_26_0.png","C_Dist_300_LN_20_LD_25_RN_14_RD_28_0.png","C_Dist_300_LN_20_LD_25_RN_5_RD_10_0.png","C_Dist_300_LN_20_LD_25_RN_8_RD_16_0.png","C_Dist_300_LN_20_LD_25_RN_9_RD_18_0.png","C_Dist_300_LN_24_LD_30_RN_2_RD_4_0.png","C_Dist_300_LN_24_LD_30_RN_8_RD_16_0.png","C_Dist_300_LN_3_LD_6_RN_2_RD_10_0.png","C_Dist_300_LN_4_LD_10_RN_1_RD_10_0.png","C_Dist_300_LN_4_LD_5_RN_2_RD_4_0.png","C_Dist_300_LN_8_LD_16_RN_1_RD_5_0.png","C_Dist_300_LN_9_LD_10_RN_3_RD_5_0.png"],["C_Dist_300_LN_1_LD_20_RN_7_RD_20_1.png","C_Dist_300_LN_1_LD_3_RN_19_RD_30_1.png","C_Dist_300_LN_1_LD_30_RN_8_RD_24_1.png","C_Dist_300_LN_1_LD_5_RN_11_RD_22_1.png","C_Dist_300_LN_1_LD_5_RN_3_RD_6_1.png","C_Dist_300_LN_1_LD_5_RN_6_RD_12_1.png","C_Dist_300_LN_2_LD_10_RN_12_RD_24_1.png","C_Dist_300_LN_2_LD_20_RN_10_RD_25_1.png","C_Dist_300_LN_3_LD_12_RN_11_RD_20_1.png","C_Dist_300_LN_3_LD_6_RN_4_RD_5_1.png","C_Dist_300_LN_4_LD_20_RN_13_RD_26_1.png","C_Dist_300_LN_5_LD_25_RN_6_RD_12_1.png","C_Dist_300_LN_5_LD_25_RN_7_RD_14_1.png","C_Dist_300_LN_7_LD_14_RN_20_RD_25_1.png","C_Dist_300_LN_8_LD_15_RN_10_RD_12_1.png"]],"dist300_I":[["I_Dist_300_LN_1_LD_2_RN_2_RD_10_0.png","I_Dist_300_LN_1_LD_2_RN_3_RD_15_0.png","I_Dist_300_LN_2_LD_4_RN_6_RD_30_0.png","I_Dist_300_LN_3_LD_6_RN_4_RD_20_0.png","I_Dist_300_LN_4_LD_5_RN_6_RD_12_0.png","I_Dist_300_LN_4_LD_5_RN_8_RD_16_0.png","I_Dist_300_LN_7_LD_10_RN_8_RD_20_0.png","I_Dist_300_LN_8_LD_10_RN_14_RD_28_0.png","I_Dist_300_LN_8_LD_10_RN_9_RD_18_0.png"],["I_Dist_300_LN_13_LD_26_RN_12_RD_15_1.png","I_Dist_300_LN_4_LD_20_RN_2_RD_4_1.png"]],"dist300_S":[["E_Dist_300_LN_9_LD_12_RN_9_RD_20_0.png"],["E_Dist_300_LN_18_LD_30_RN_18_RD_20_1.png","E_Dist_300_LN_3_LD_10_RN_3_RD_5_1.png","E_Dist_300_LN_9_LD_20_RN_9_RD_12_1.png"]],"dist500_C":[["C_Dist_500_LN_10_LD_13_RN_7_RD_26_0.png","C_Dist_500_LN_10_LD_15_RN_4_RD_24_0.png","C_Dist_500_LN_12_LD_16_RN_3_RD_12_0.png","C_Dist_500_LN_12_LD_18_RN_4_RD_24_0.png","C_Dist_500_LN_15_LD_18_RN_5_RD_15_0.png","C_Dist_500_LN_15_LD_20_RN_1_RD_4_0.png","C_Dist_500_LN_18_LD_27_RN_1_RD_6_0.png","C_Dist_500_LN_20_LD_24_RN_1_RD_3_0.png","C_Dist_500_LN_20_LD_24_RN_3_RD_9_0.png","C_Dist_500_LN_20_LD_24_RN_7_RD_21_0.png","C_Dist_500_LN_20_LD_28_RN_3_RD_14_0.png","C_Dist_500_LN_21_LD_28_RN_6_RD_24_0.png","C_Dist_500_LN_22_LD_28_RN_2_RD_7_0.png","C_Dist_500_LN_25_LD_30_RN_9_RD_27_0.png","C_Dist_500_LN_4_LD_6_RN_1_RD_6_0.png","C_Dist_500_LN_5_LD_6_RN_2_RD_6_0.png","C_Dist_500_LN_6_LD_9_RN_1_RD_6_0.png","C_Dist_500_LN_7_LD_10_RN_1_RD_5_0.png","C_Dist_500_LN_8_LD_12_RN_1_RD_6_0.png","C_Dist_500_LN_8_LD_12_RN_4_RD_24_0.png"],["C_Dist_500_LN_1_LD_4_RN_12_RD_16_1.png","C_Dist_500_LN_1_LD_4_RN_9_RD_12_1.png","C_Dist_500_LN_1_LD_9_RN_11_RD_18_1.png","C_Dist_500_LN_10_LD_24_RN_22_RD_24_1.png","C_Dist_500_LN_2_LD_12_RN_10_RD_15_1.png","C_Dist_500_LN_2_LD_12_RN_12_RD_18_1.png","C_Dist_500_LN_2_LD_12_RN_4_RD_6_1.png","C_Dist_500_LN_2_LD_24_RN_7_RD_12_1.png","C_Dist_500_LN_2_LD_5_RN_18_RD_20_1.png","C_Dist_500_LN_2_LD_5_RN_9_RD_10_1.png","C_Dist_500_LN_2_LD_8_RN_12_RD_16_1.png","C_Dist_500_LN_2_LD_8_RN_21_RD_28_1.png","C_Dist_500_LN_3_LD_10_RN_4_RD_5_1.png","C_Dist_500_LN_3_LD_12_RN_15_RD_20_1.png","C_Dist_500_LN_3_LD_30_RN_6_RD_10_1.png","C_Dist_500_LN_3_LD_8_RN_14_RD_16_1.png","C_Dist_500_LN_4_LD_16_RN_15_RD_20_1.png","C_Dist_500_LN_4_LD_24_RN_12_RD_18_1.png","C_Dist_500_LN_5_LD_14_RN_6_RD_7_1.png","C_Dist_500_LN_7_LD_21_RN_20_RD_24_1.png","C_Dist_500_LN_7_LD_28_RN_12_RD_16_1.png","C_Dist_500_LN_7_LD_28_RN_9_RD_12_1.png","C_Dist_500_LN_9_LD_27_RN_20_RD_24_1.png"]],"dist500_I":[["I_Dist_500_LN_2_LD_3_RN_4_RD_24_0.png","I_Dist_500_LN_5_LD_6_RN_6_RD_18_0.png","I_Dist_500_LN_7_LD_8_RN_9_RD_24_0.png"],["I_Dist_500_LN_7_LD_21_RN_5_RD_6_1.png"]],"dist500_S":[["E_Dist_500_LN_6_LD_8_RN_6_RD_24_0.png"],["E_Dist_500_LN_2_LD_12_RN_2_RD_3_1.png","E_Dist_500_LN_6_LD_24_RN_6_RD_8_1.png"]]}},{"start_time":1551793955079,"click_time":1551793958467,"finger_time":1551793955547,"fix_duration":250,"trial":1,"RT":468,"MT":2920,"sideResp":1,"stimulus":[],"xmouse":[800,800,800,800,800,800,800,800,800,800,800,800,800,800,800,800,800,800,800,800,800,805,807,820,824,828,831,835,845,863,866,869,871,871,872,876,881,886,888,888,888,877,840,821,726,700,683,675,673,672,673,675,676,680,690,695,700,708,737,762,780,796,802,805,805,805,806,806,806,805,804,803,803,803,803,803,803,805,805,805,805,805,805,805,805,805,805,805,805,805,805,805,805,805,805,805,805,805,805,805,805,805,805,805,805,805,805,805,805,805,805,805,805,805,805,805,806,806,806,806,806,806,806,806,806,806,806,806,806,806,806,805,803,795,780,760,732,705,662,651,648,647,646,643,597,560,523,502,490,473,466,457,449,440,440,440,440,440,456,464,470,471,472,475,483,487,487,487,487,485],"ymouse":[493,493,493,493,493,493,493,493,493,493,493,493,493,493,493,493,493,493,493,493,493,484,479,446,438,432,428,424,420,412,409,407,405,405,405,405,404,403,403,403,409,428,488,509,568,576,581,586,588,595,599,602,603,603,596,594,591,589,576,567,561,558,558,558,558,558,557,556,552,549,546,543,535,532,527,524,522,519,519,519,519,519,519,519,519,519,519,519,519,519,519,519,519,519,519,519,519,519,519,519,519,519,519,519,519,519,519,519,519,519,519,519,519,519,518,518,518,518,518,518,518,518,518,518,518,518,518,518,518,518,518,521,523,528,532,535,535,535,535,535,535,535,535,535,490,438,384,342,296,227,199,180,167,158,158,158,158,157,149,146,143,142,141,139,124,117,112,111,101,96],"timestamp_mouse":[8,41,47,68,88,107,128,148,168,188,209,228,248,268,287,309,328,348,368,389,409,428,447,468,487,508,527,547,567,588,608,627,648,668,687,707,728,748,767,787,809,829,849,868,887,908,928,949,967,987,1009,1028,1047,1067,1089,1107,1128,1148,1169,1188,1208,1227,1247,1269,1287,1308,1328,1348,1369,1388,1407,1427,1448,1468,1488,1508,1528,1548,1567,1589,1607,1629,1649,1668,1689,1707,1729,1749,1768,1787,1808,1827,1848,1869,1888,1908,1927,1948,1968,1987,2009,2029,2047,2068,2087,2107,2129,2149,2168,2187,2209,2228,2248,2268,2289,2307,2327,2349,2368,2387,2409,2427,2449,2467,2487,2509,2528,2549,2567,2587,2608,2628,2647,2668,2689,2708,2728,2748,2769,2788,2808,2827,2848,2868,2889,2908,2929,2948,2969,2987,3007,3029,3047,3068,3088,3107,3127,3149,3168,3187,3207,3229,3248,3268,3288,3307,3328,3347,3369,3387],"xSR":741.5,"ySR":469.95,"xT1":424.9,"yT1":0,"xT2":1058.1,"yT2":0,"toosoon":0,"cond_shown":"Incongruent","ratio_trial":100,"L_num":9,"L_den":10,"R_num":20,"R_den":25,"correct_side":1,"subjID":"juanleonrodriguez17","gender":"0","school":"6","age":"11"},{"start_time":1551793960650,"click_time":1551793966627,"finger_time":1551793961347,"fix_duration":602.0303376682389,"trial":2,"RT":697,"MT":5280,"sideResp":1,"stimulus":[],"xmouse":[792,792,792,792,792,792,792,792,792,792,792,792,792,792,792,792,792,792,792,792,792,792,792,792,792,792,792,792,792,792,792,792,793,844,894,959,1020,1060,1099,1102,1102,1102,1102,1102,1102,1102,1102,1102,1098,1096,1089,1079,1071,1049,991,893,893,893,893,893,893,893,220,235,263,286,300,306,306,306,306,306,306,306,306,309,313,313,313,313,313,313,313,313,313,313,314,320,342,404,428,442,450,452,453,460,471,482,498,536,562,586,613,694,733,753,756,756,756,756,775,796,866,879,896,896,896,896,896,896,896,893,874,849,801,790,785,785,785,785,785,785,785,785,785,785,785,785,785,785,785,785,789,804,841,876,933,981,1103,1141,1164,1176,1183,1193,1195,1197,1197,1197,1197,1194,1194,1194,1194,1194,1194,1194,1194,1194,1193,1187,1178,1165,1152,1131,1097,1082,1070,1064,1061,1059,1059,1059,1059,1059,1055,1050,1035,1018,997,955,927,891,857,819,790,785,784,784,784,783,783,783,785,785,785,785,785,785,785,785,785,785,785,785,785,785,785,785,787,788,789,791,792,793,794,794,794,794,794,794,794,794,794,794,794,794,793,791,789,789,789,789,789,806,811,812,812,812,812,812,812,812,812,812,812,812,812,812,812,812,810,808,807,807,807,807,807,807,807,807,807,805,800,799,791,781,766,740,702,624,594,573,559,548,546,545,545,545,545,545,545,544,542,540,535,530,526,524],"ymouse":[549,549,549,549,549,549,549,549,549,549,549,549,549,549,549,549,549,549,549,549,549,549,549,549,549,549,549,549,549,549,549,547,543,478,419,360,301,259,210,206,206,206,214,225,227,227,227,227,245,279,352,412,432,451,526,718,718,718,718,718,718,718,717,640,597,559,533,516,513,513,513,513,508,504,499,495,492,492,492,492,492,492,492,492,492,492,492,492,489,472,464,460,458,458,458,461,470,479,490,504,505,505,505,506,506,506,506,505,505,505,517,527,539,539,531,529,529,529,529,529,528,524,519,516,518,518,518,518,518,518,518,518,518,518,518,518,518,518,518,518,519,521,531,555,579,595,610,622,635,635,636,636,636,636,636,635,635,633,631,624,622,622,622,622,622,622,622,622,622,621,621,621,621,621,618,616,616,616,616,617,617,617,617,617,619,622,622,625,629,631,630,625,621,617,614,613,612,612,612,610,602,593,585,580,579,579,579,579,583,588,589,589,590,590,590,590,591,594,598,601,604,607,608,612,612,612,612,612,612,612,612,612,612,612,612,611,605,601,591,587,581,574,565,531,518,512,511,511,511,511,511,511,511,511,511,511,511,511,511,511,511,511,511,511,511,511,511,511,511,511,511,510,509,509,507,497,464,379,295,159,116,81,61,51,51,51,51,51,51,51,51,51,52,52,54,54,55,56],"timestamp_mouse":[38,57,77,97,117,137,157,177,197,217,237,256,278,297,316,338,356,376,398,417,437,458,477,496,518,538,556,576,598,616,637,657,677,697,716,737,756,777,797,816,837,858,877,896,916,937,958,976,997,1016,1037,1058,1076,1096,1116,1138,1157,1177,1196,1217,1236,1257,1276,1298,1316,1336,1356,1378,1398,1418,1436,1456,1478,1497,1517,1537,1557,1577,1598,1617,1638,1657,1677,1696,1716,1736,1756,1776,1796,1816,1837,1857,1877,1897,1917,1937,1957,1977,1996,2016,2037,2057,2078,2098,2116,2136,2157,2176,2196,2218,2237,2258,2278,2297,2316,2337,2357,2377,2397,2417,2436,2456,2478,2498,2518,2536,2557,2576,2596,2617,2638,2657,2677,2698,2716,2736,2758,2776,2796,2816,2837,2857,2876,2897,2916,2937,2956,2976,2998,3017,3037,3056,3077,3097,3116,3138,3158,3176,3197,3216,3237,3258,3277,3298,3317,3337,3357,3377,3397,3416,3437,3457,3477,3496,3516,3537,3556,3577,3596,3617,3636,3656,3678,3696,3716,3737,3756,3776,3797,3816,3838,3857,3878,3896,3917,3937,3956,3977,3997,4016,4038,4056,4077,4096,4117,4137,4156,4177,4196,4216,4237,4257,4277,4298,4317,4336,4357,4378,4398,4417,4437,4456,4477,4498,4516,4537,4557,4576,4597,4617,4638,4657,4678,4697,4717,4736,4756,4776,4798,4817,4836,4856,4878,4897,4916,4936,4958,4976,4998,5017,5038,5057,5077,5096,5118,5138,5157,5178,5197,5217,5236,5257,5278,5296,5317,5336,5357,5377,5396,5416,5438,5456,5477,5496,5518,5537,5556,5577,5596,5616,5637,5658,5676,5697,5716,5738,5756,5776,5796,5816,5836,5856,5876,5896,5916,5936,5956,5976],"xSR":741.5,"ySR":469.95,"xT1":424.9,"yT1":0,"xT2":1058.1,"yT2":0,"toosoon":0,"cond_shown":"Congruent","ratio_trial":200,"L_num":3,"L_den":6,"R_num":14,"R_den":20,"correct_side":2,"subjID":"juanleonrodriguez17","gender":"0","school":"6","age":"11"},{"start_time":1551793968825,"click_time":1551793977567,"finger_time":1551793972826,"fix_duration":875.0506527103344,"trial":3,"RT":4001,"MT":4741,"sideResp":2,"stimulus":[],"xmouse":[783,783,783,783,783,783,783,783,783,783,783,783,783,783,783,783,783,783,783,783,783,783,783,783,783,783,783,783,783,783,783,783,783,783,783,783,783,783,783,783,783,783,783,783,783,783,783,783,783,783,783,783,783,783,783,783,783,783,783,783,783,783,783,783,783,783,783,783,783,783,783,784,784,785,785,787,787,787,787,787,787,787,787,787,787,787,787,787,787,787,787,787,787,787,787,787,787,787,787,787,787,787,787,783,779,775,773,773,772,771,768,766,766,766,766,766,766,766,766,766,766,766,766,765,764,764,763,763,763,763,763,763,763,763,763,763,763,763,763,763,763,763,763,763,763,763,763,763,763,763,763,763,763,763,763,763,763,763,763,763,763,763,763,763,763,763,763,763,763,763,763,763,763,763,763,763,763,763,763,763,763,763,763,763,763,763,763,763,763,763,763,763,763,763,763,763,763,757,751,746,739,737,737,737,737,737,737,737,737,734,730,702,676,640,599,599,599,599,599,599,599,599,599,599,599,599,599,599,599,599,599,599,599,599,599,599,599,599,599,599,599,599,541,547,552,559,567,568,568,568,568,568,571,575,580,585,590,595,595,595,595,595,599,602,607,614,619,622,622,622,622,622,622,622,622,622,622,622,622,622,622,622,622,622,622,622,622,622,622,622,622,622,622,622,622,622,622,622,622,622,622,622,622,622,622,622,622,622,622,622,622,622,622,622,622,622,622,622,622,622,622,622,622,622,622,622,622,622,622,622,622,622,622,622,622,622,622,622,622,622,622,622,622,622,622,622,622,622,622,622,622,622,622,622,622,622,622,622,622,622,622,622,622,622,622,622,622,622,622,622,622,622,622,622,622,622,622,622,623,626,627,630,631,632,632,633,635,635,635,636,637,642,646,651,660,668,678,687,692,699,712,728,785,819,856,890,951,972,990,1005,1017,1028,1041,1043,1044,1045,1045,1045,1045,1046,1047,1049,1055,1057,1060,1062,1063,1064,1064,1064,1064,1065,1066,1068,1069,1071,1071,1073],"ymouse":[532,532,532,532,532,532,532,532,532,532,532,532,532,532,532,532,532,532,532,532,532,532,532,532,532,532,532,532,532,532,532,532,532,532,532,532,532,532,532,532,532,532,532,531,531,530,530,530,530,530,530,530,530,530,530,530,530,530,530,530,530,530,530,530,530,530,530,530,530,530,530,529,528,526,526,525,525,525,525,525,525,525,525,525,525,525,525,525,525,525,525,525,525,525,525,525,525,525,525,525,525,525,525,526,531,535,537,537,533,527,521,517,517,517,517,517,517,517,517,517,517,517,516,513,510,507,507,507,507,507,507,507,507,507,507,507,507,507,507,507,507,507,507,507,507,507,507,507,507,507,507,507,507,507,507,507,507,507,507,507,507,507,507,507,507,507,507,507,507,507,507,507,507,507,507,507,507,507,507,507,507,507,507,507,507,507,507,507,507,507,507,507,507,507,507,507,507,519,535,545,556,560,561,561,561,561,561,561,561,564,567,595,626,667,706,706,706,706,706,706,706,706,706,706,706,706,706,706,706,706,706,706,706,706,706,706,706,706,706,706,706,706,719,712,702,690,669,662,656,650,641,630,612,602,592,586,580,574,574,574,574,573,569,564,557,549,544,541,541,541,541,541,541,541,541,541,541,541,541,541,541,541,541,541,541,541,541,541,541,541,541,541,541,541,541,541,541,541,541,541,541,541,541,541,541,541,541,541,541,541,541,541,541,541,541,541,541,541,541,541,541,541,541,541,541,541,541,541,541,541,541,541,541,541,541,541,541,541,541,541,541,541,541,541,541,541,541,541,541,541,541,541,541,541,541,541,541,541,541,541,541,541,541,541,541,541,541,541,541,541,541,541,541,541,541,541,541,541,541,539,538,535,532,531,529,529,525,524,524,524,524,523,521,516,507,498,482,464,453,440,428,412,367,340,310,285,235,219,206,193,183,174,163,160,158,157,157,157,157,156,156,153,144,139,134,130,127,126,126,126,126,124,122,119,115,111,106,94],"timestamp_mouse":[10,22,42,62,81,102,122,143,162,182,201,222,241,262,282,301,321,343,361,382,403,422,442,463,481,502,523,543,561,583,602,621,642,662,683,701,722,741,762,783,802,823,841,862,882,902,923,941,961,983,1001,1023,1042,1062,1081,1102,1122,1142,1163,1183,1201,1221,1242,1262,1283,1303,1321,1342,1363,1382,1402,1422,1442,1461,1482,1502,1521,1542,1561,1583,1601,1623,1641,1663,1681,1702,1721,1742,1762,1781,1803,1821,1841,1863,1882,1902,1921,1943,1962,1983,2001,2023,2043,2061,2081,2102,2122,2141,2162,2182,2203,2223,2243,2262,2283,2301,2322,2342,2363,2382,2402,2423,2442,2461,2481,2503,2521,2541,2562,2583,2601,2621,2642,2661,2682,2701,2721,2743,2763,2782,2802,2823,2842,2862,2881,2902,2922,2942,2961,2982,3003,3021,3041,3063,3083,3102,3122,3142,3162,3182,3202,3222,3242,3262,3282,3302,3323,3342,3361,3382,3403,3422,3443,3461,3482,3501,3522,3542,3562,3582,3601,3621,3643,3663,3682,3701,3722,3742,3763,3781,3801,3823,3841,3862,3881,3902,3922,3942,3962,3982,4001,4023,4042,4063,4083,4102,4122,4141,4161,4182,4203,4223,4241,4262,4282,4301,4322,4342,4361,4382,4402,4421,4441,4461,4481,4503,4523,4542,4561,4581,4602,4622,4641,4663,4682,4702,4722,4743,4761,4782,4801,4821,4841,4862,4882,4901,4923,4941,4962,4983,5003,5022,5041,5061,5082,5102,5122,5142,5162,5183,5201,5222,5241,5261,5281,5301,5322,5342,5362,5383,5401,5421,5442,5462,5481,5502,5521,5541,5562,5583,5602,5622,5642,5661,5681,5701,5722,5741,5762,5782,5802,5821,5841,5861,5882,5902,5923,5942,5962,5981,6002,6023,6041,6062,6082,6102,6123,6141,6161,6182,6203,6223,6243,6261,6282,6303,6323,6342,6362,6382,6403,6423,6442,6461,6482,6501,6523,6541,6562,6581,6601,6621,6641,6663,6682,6701,6721,6741,6761,6782,6803,6822,6841,6861,6882,6902,6922,6941,6961,6982,7003,7022,7042,7062,7081,7101,7121,7142,7162,7183,7201,7222,7241,7263,7282,7301,7321,7342,7361,7381,7402,7423,7443,7463,7482,7502,7522,7542,7561,7582,7601,7622,7641,7662,7683,7703,7722,7741,7761,7782,7801,7822,7842,7861,7881,7901,7921,7942,7962,7982,8003,8021,8041,8062,8081,8103,8123,8142,8162,8182,8202,8222,8241,8262,8282,8303,8321,8342,8363,8382,8401,8421,8441,8463,8483,8502,8521,8541,8562,8582,8601,8622,8641,8662,8682,8702,8721,8741],"xSR":741.5,"ySR":469.95,"xT1":424.9,"yT1":0,"xT2":1058.1,"yT2":0,"toosoon":0,"cond_shown":"Congruent","ratio_trial":200,"L_num":20,"L_den":25,"R_num":9,"R_den":15,"correct_side":1,"subjID":"juanleonrodriguez17","gender":"0","school":"6","age":"11"},{"start_time":1551793980300,"click_time":1551793982907,"finger_time":1551793981948,"fix_duration":732.6122328251214,"trial":4,"RT":1648,"MT":959,"sideResp":1,"stimulus":[],"xmouse":[801,801,801,801,801,801,801,801,801,801,801,801,801,801,801,801,801,801,801,801,801,801,801,801,801,801,801,801,801,801,801,801,801,801,801,801,801,801,801,801,801,801,801,801,801,801,801,801,802,802,802,802,802,802,802,802,802,802,802,802,804,804,804,804,804,804,804,804,804,805,806,806,807,807,807,807,807,807,807,803,797,790,766,761,760,760,760,759,758,756,756,756,756,756,756,756,756,749,723,704,681,662,648,632,621,607,593,589,586,585,582,578,576,576,576,576,572,560,555,548,543,539,538,538,538,536,533,533,531,526,518],"ymouse":[505,505,505,505,505,505,505,505,505,505,505,505,505,505,505,505,505,505,505,505,505,505,505,505,505,505,505,505,505,505,505,505,505,505,505,505,505,505,505,505,505,505,505,505,505,505,504,504,503,503,503,503,503,503,503,503,503,503,503,501,499,499,499,499,499,499,499,499,499,498,495,491,489,489,489,489,489,490,501,514,526,542,580,584,585,585,585,585,585,583,583,583,583,583,583,583,582,571,538,516,493,480,471,457,439,411,389,375,357,343,323,297,253,199,177,157,141,107,93,76,65,57,53,53,53,53,55,55,55,55,55],"timestamp_mouse":[9,33,47,67,86,107,128,146,167,187,207,227,246,266,286,308,328,346,367,387,406,428,446,467,487,508,526,546,566,587,607,628,647,666,687,706,728,746,766,786,806,827,846,868,886,907,927,946,966,987,1007,1027,1046,1066,1086,1108,1126,1146,1166,1187,1207,1227,1246,1267,1287,1306,1326,1346,1366,1387,1406,1427,1448,1467,1487,1506,1527,1546,1567,1587,1607,1627,1648,1667,1687,1706,1728,1748,1766,1787,1807,1826,1846,1867,1887,1908,1928,1948,1966,1987,2007,2027,2046,2066,2086,2107,2127,2147,2166,2187,2206,2226,2247,2267,2287,2306,2326,2347,2366,2386,2406,2427,2448,2468,2488,2506,2526,2548,2566,2586,2607],"xSR":741.5,"ySR":469.95,"xT1":424.9,"yT1":0,"xT2":1058.1,"yT2":0,"toosoon":0,"cond_shown":"Congruent","ratio_trial":200,"L_num":9,"L_den":30,"R_num":13,"R_den":26,"correct_side":2,"subjID":"juanleonrodriguez17","gender":"0","school":"6","age":"11"},{"start_time":1551793986279,"click_time":1551793992148,"finger_time":1551793991347,"fix_duration":1089.550909824364,"trial":5,"RT":5068,"MT":801,"sideResp":2,"stimulus":[],"xmouse":[814,814,814,814,814,814,814,814,814,814,814,814,814,814,814,814,814,814,814,814,814,814,814,814,814,814,814,814,814,814,814,814,814,814,814,814,814,814,814,814,814,814,814,814,814,814,814,814,814,814,814,814,814,814,814,814,814,814,814,814,814,814,814,814,814,814,814,814,814,814,814,814,814,814,814,814,814,814,814,814,814,814,814,814,814,814,814,814,814,814,814,814,814,814,814,814,814,814,814,814,814,814,814,814,814,814,814,814,814,814,814,814,814,814,814,814,814,814,814,814,814,814,814,814,814,814,814,814,814,814,814,814,814,814,814,814,814,814,814,814,814,814,814,814,814,814,814,814,814,814,814,814,814,814,814,814,814,814,814,814,814,814,814,814,814,814,814,814,816,816,816,816,816,816,816,816,816,816,816,816,816,816,816,816,816,816,816,816,816,816,816,816,816,816,816,816,816,816,816,816,816,816,816,816,816,816,816,816,816,816,816,816,816,816,816,816,816,816,816,816,816,816,816,816,816,816,816,818,819,819,819,819,819,819,819,819,819,819,819,819,819,819,819,819,819,819,819,819,819,819,820,825,829,862,885,903,920,937,949,971,981,991,1000,1016,1021,1025,1029,1034,1041,1042,1042,1042,1042,1042,1043,1045,1046,1047,1047,1047,1047,1047,1047,1047,1047,1047,1048,1049,1051,1054,1055,1056,1058,1061],"ymouse":[516,516,516,516,516,516,516,516,516,516,516,516,516,516,516,516,516,516,516,516,516,516,516,516,516,516,516,516,516,516,516,516,516,516,516,516,516,516,516,516,516,516,516,516,516,516,516,516,516,516,516,516,516,516,516,516,516,516,516,516,516,516,516,516,516,516,516,516,516,516,516,516,516,516,516,516,516,516,516,516,516,516,516,516,516,516,516,516,516,516,516,516,516,516,516,516,516,516,516,516,516,516,516,516,516,516,516,516,516,516,516,516,516,516,516,516,516,516,516,516,516,516,516,516,516,516,516,516,516,516,516,516,516,516,516,516,516,516,516,516,516,516,516,516,516,516,516,516,516,516,516,516,516,516,516,516,516,516,516,516,516,516,516,516,516,516,516,513,504,502,501,501,501,501,501,501,501,501,501,501,501,501,501,501,501,501,501,501,501,501,501,501,501,501,501,501,501,501,501,501,501,501,501,501,501,501,501,501,501,501,501,501,501,501,501,501,501,501,501,501,501,501,501,501,501,501,501,498,496,495,495,495,495,495,495,495,495,495,495,495,495,495,495,495,495,495,495,495,495,495,494,489,484,451,436,424,408,390,371,322,290,254,224,178,163,148,131,115,95,92,91,91,91,91,90,87,86,86,86,86,86,86,86,86,86,86,86,86,86,86,86,86,86,86],"timestamp_mouse":[10,34,48,68,88,107,129,148,167,188,208,227,249,268,288,308,327,349,367,387,408,427,447,469,487,507,529,548,568,587,608,628,648,669,689,708,729,749,767,788,808,829,848,867,887,909,927,947,969,987,1008,1027,1049,1067,1087,1109,1127,1148,1169,1187,1208,1229,1247,1267,1288,1307,1328,1347,1368,1387,1407,1427,1447,1469,1487,1508,1528,1547,1568,1588,1608,1628,1648,1667,1688,1709,1729,1748,1767,1788,1808,1829,1849,1868,1888,1909,1928,1948,1968,1989,2009,2028,2047,2069,2089,2107,2127,2148,2168,2188,2209,2229,2248,2267,2289,2307,2327,2349,2368,2387,2408,2428,2449,2469,2487,2507,2529,2548,2568,2587,2609,2627,2647,2668,2687,2708,2728,2748,2767,2787,2807,2828,2849,2868,2888,2907,2929,2947,2968,2987,3008,3027,3049,3068,3087,3107,3128,3147,3167,3188,3207,3229,3248,3268,3287,3307,3329,3348,3368,3388,3409,3427,3447,3467,3488,3507,3529,3548,3569,3587,3609,3627,3648,3667,3689,3708,3728,3749,3767,3787,3807,3829,3847,3867,3888,3908,3927,3949,3969,3987,4008,4029,4047,4069,4087,4109,4127,4147,4168,4187,4209,4228,4247,4268,4288,4309,4328,4347,4367,4389,4407,4429,4447,4469,4489,4508,4529,4547,4567,4589,4609,4628,4649,4669,4689,4709,4729,4749,4768,4787,4807,4829,4847,4867,4888,4907,4927,4948,4967,4988,5009,5028,5047,5068,5087,5107,5128,5148,5169,5187,5207,5228,5249,5269,5287,5307,5327,5348,5368,5388,5407,5428,5449,5467,5488,5507,5529,5548,5569,5587,5608,5627,5647,5669,5687,5708,5727,5748,5769,5787,5807,5827,5848,5869],"xSR":741.5,"ySR":469.95,"xT1":424.9,"yT1":0,"xT2":1058.1,"yT2":0,"toosoon":0,"cond_shown":"Congruent","ratio_trial":100,"L_num":2,"L_den":5,"R_num":6,"R_den":12,"correct_side":2,"subjID":"juanleonrodriguez17","gender":"0","school":"6","age":"11"},{"start_time":1551793994391,"click_time":1551793997548,"finger_time":1551793995567,"fix_duration":1301.8906303645947,"trial":6,"RT":1176,"MT":1981,"sideResp":2,"stimulus":[],"xmouse":[807,807,807,807,807,807,807,807,807,807,807,807,807,807,807,807,807,807,807,807,807,807,807,807,807,807,807,807,807,807,807,807,807,807,807,807,807,807,807,807,807,807,807,807,807,807,807,807,807,807,807,807,807,807,807,807,807,804,773,735,704,682,677,676,687,697,700,700,700,700,700,700,700,713,724,732,734,734,734,734,737,745,758,832,890,945,977,992,1005,1015,1031,1046,1055,1055,1046,1037,1029,1027,1027,1027,1025,1017,1010,1010,1010,1010,1010,1019,1026,1028,1030,1030,1030,1023,1020,1019,1019,1019,1018,1016,1009,1005,1004,1004,1009,1011,1012,1012,1012,1012,1012,1012,1012,1012,1012,1011,1011,1007,1005,1004,1002,999,997,994,993,993,993,993,993,993,993,993,992,992,992,1006,1031,1076],"ymouse":[516,516,516,516,516,516,516,516,516,516,516,516,516,516,516,516,516,516,516,516,516,516,516,516,516,516,516,516,516,516,516,516,516,516,516,516,516,516,516,516,516,516,516,516,516,516,516,516,516,516,516,516,516,516,516,516,516,516,589,644,674,682,682,681,669,656,650,646,646,650,654,654,654,609,589,580,577,577,577,577,573,557,541,504,484,455,437,426,426,429,434,438,442,457,472,489,502,504,504,504,507,524,537,537,537,537,535,497,482,482,486,494,504,521,525,526,526,526,527,527,527,527,527,524,517,512,512,512,512,512,512,512,511,511,511,511,511,510,509,509,509,508,508,508,508,508,508,508,508,508,508,508,484,408,324,234,145,21],"timestamp_mouse":[31,37,57,75,96,115,135,155,177,195,215,236,255,276,296,317,335,357,377,397,416,437,457,475,496,517,535,557,577,596,616,636,657,675,696,716,736,755,775,795,816,836,857,876,896,917,937,957,975,996,1015,1036,1055,1075,1097,1115,1136,1156,1176,1196,1216,1236,1256,1275,1296,1316,1336,1356,1375,1395,1415,1436,1457,1475,1497,1515,1536,1557,1576,1595,1615,1635,1656,1675,1697,1716,1736,1756,1777,1796,1815,1836,1855,1875,1897,1915,1935,1957,1977,1995,2016,2035,2056,2075,2097,2115,2135,2156,2175,2196,2217,2237,2257,2275,2296,2316,2336,2357,2377,2396,2416,2435,2456,2475,2495,2516,2537,2556,2576,2596,2615,2635,2656,2676,2696,2717,2736,2757,2775,2795,2816,2835,2855,2876,2896,2916,2935,2957,2977,2996,3015,3035,3056,3075,3097,3117,3135,3156],"xSR":741.5,"ySR":469.95,"xT1":424.9,"yT1":0,"xT2":1058.1,"yT2":0,"toosoon":0,"cond_shown":"Congruent","ratio_trial":100,"L_num":4,"L_den":10,"R_num":15,"R_den":30,"correct_side":2,"subjID":"juanleonrodriguez17","gender":"0","school":"6","age":"11"},{"start_time":1551794002425,"click_time":1551794004766,"finger_time":1551794003387,"fix_duration":1077.0816137947986,"trial":7,"RT":962,"MT":1379,"sideResp":1,"stimulus":[],"xmouse":[782,782,782,782,782,782,782,782,782,782,782,782,782,782,782,782,782,782,782,782,782,782,782,782,782,782,782,782,782,782,782,782,782,782,782,782,782,782,782,782,782,782,782,782,782,782,778,769,761,752,742,726,720,715,712,708,708,708,708,708,708,707,701,699,695,695,694,691,687,686,686,686,682,677,672,666,657,653,652,652,652,651,651,651,650,649,647,639,619,584,537,483,480,489,506,532,581,637,674,721,779,941,941,941,941,941,941,1123,1095,1074,1057,1016,973,904,827,745,546,466],"ymouse":[511,511,511,511,511,511,511,511,511,511,511,511,511,511,511,511,511,511,511,511,511,511,511,511,511,511,511,511,511,511,511,511,511,511,511,511,511,511,511,511,511,511,511,511,511,510,496,482,467,453,440,419,411,400,390,379,375,375,375,375,374,372,346,329,313,302,300,299,299,299,299,299,301,306,313,321,330,338,341,344,348,353,353,355,361,366,374,408,428,444,459,481,483,483,483,487,502,526,547,575,616,720,720,720,720,720,720,659,632,619,605,573,548,506,451,386,148,37],"timestamp_mouse":[9,23,55,63,83,101,122,141,161,182,202,221,241,263,281,301,322,342,363,383,401,422,441,462,482,501,522,542,563,583,601,623,642,662,682,702,723,743,761,782,801,823,843,862,882,901,922,943,962,981,1002,1023,1041,1062,1081,1103,1122,1143,1161,1181,1201,1221,1241,1261,1281,1301,1321,1341,1361,1383,1403,1422,1441,1461,1482,1502,1523,1542,1561,1581,1601,1623,1641,1662,1682,1701,1721,1742,1762,1782,1803,1822,1841,1862,1883,1902,1921,1942,1961,1982,2001,2023,2041,2062,2081,2101,2121,2141,2162,2183,2203,2222,2241,2262,2281,2301,2323,2341],"xSR":741.5,"ySR":469.95,"xT1":424.9,"yT1":0,"xT2":1058.1,"yT2":0,"toosoon":0,"cond_shown":"Congruent","ratio_trial":300,"L_num":18,"L_den":20,"R_num":9,"R_den":15,"correct_side":1,"subjID":"juanleonrodriguez17","gender":"0","school":"6","age":"11"},{"start_time":1551794006386,"click_time":1551794009107,"finger_time":1551794006967,"fix_duration":378.8840904770752,"trial":8,"RT":581,"MT":2140,"sideResp":1,"stimulus":[],"xmouse":[773,773,773,773,773,773,773,773,773,773,773,773,773,773,773,773,773,773,773,769,763,758,758,758,758,758,756,752,746,728,723,722,722,732,737,738,710,659,636,605,587,568,549,532,532,543,579,639,692,723,728,729,730,734,751,764,779,787,790,791,791,791,791,791,791,791,791,791,791,791,791,791,791,792,797,801,806,808,808,808,808,808,808,808,808,808,808,808,808,808,808,808,808,808,808,808,808,808,808,808,808,808,808,808,808,808,808,808,808,808,808,808,808,808,808,808,808,808,808,808,808,808,808,789,756,699,632,563,513,456,454,454,454,454,454,454,454],"ymouse":[492,492,492,492,492,492,492,492,492,492,492,492,492,492,492,492,492,492,492,499,502,504,504,504,504,504,500,494,488,469,456,442,430,408,391,366,329,297,280,280,288,290,289,288,291,306,340,386,413,418,420,420,420,426,472,519,563,588,598,599,599,595,594,594,594,594,594,593,593,593,593,593,592,592,578,562,546,534,526,523,523,523,523,523,523,523,523,523,523,523,523,523,523,523,523,523,523,523,523,523,523,523,523,523,523,523,523,523,523,523,523,523,523,523,523,523,523,523,523,523,523,523,519,493,463,409,338,258,192,111,107,107,107,107,107,102,96],"timestamp_mouse":[9,21,40,62,80,101,120,141,160,181,200,220,240,260,280,300,322,341,360,380,400,421,440,460,480,500,520,542,560,581,600,620,640,661,680,701,720,740,760,780,800,820,841,861,880,900,920,940,961,980,1000,1021,1041,1061,1080,1101,1121,1141,1161,1180,1200,1220,1240,1260,1280,1300,1320,1341,1361,1381,1401,1420,1440,1460,1480,1500,1521,1541,1561,1580,1601,1621,1640,1661,1680,1701,1720,1741,1762,1781,1800,1820,1841,1860,1880,1900,1921,1940,1960,1980,2001,2020,2040,2061,2082,2101,2120,2142,2160,2180,2200,2220,2241,2261,2281,2302,2321,2341,2362,2380,2401,2420,2440,2461,2480,2500,2520,2540,2561,2580,2601,2621,2641,2660,2680,2700,2721],"xSR":741.5,"ySR":469.95,"xT1":424.9,"yT1":0,"xT2":1058.1,"yT2":0,"toosoon":0,"cond_shown":"Congruent","ratio_trial":300,"L_num":1,"L_den":5,"R_num":3,"R_den":6,"correct_side":2,"subjID":"juanleonrodriguez17","gender":"0","school":"6","age":"11"},{"start_time":1551794010887,"click_time":1551794013647,"finger_time":1551794011547,"fix_duration":779.0462585799294,"trial":9,"RT":660,"MT":2100,"sideResp":2,"stimulus":[],"xmouse":[814,814,814,814,814,814,814,814,814,814,814,814,814,814,814,814,814,814,814,814,814,814,814,814,814,814,814,814,815,817,819,822,827,835,859,867,870,872,874,878,879,879,879,879,879,879,879,879,881,887,896,909,920,945,967,975,978,978,978,971,956,943,934,921,894,890,889,889,888,888,887,882,869,861,835,813,782,762,750,741,740,740,740,740,740,742,746,747,751,754,757,759,760,762,769,774,777,777,777,777,777,777,778,780,799,815,834,857,897,1038,1121,1209,1280,1420,1420,1420,1420,1420,1420,1420,1420,1420,1420,1420,1420,1420,1305,1281,1256,1231,1225,1219,1210,1197,1181,1178,1175,1165,1100],"ymouse":[494,494,494,494,494,494,494,494,494,494,494,494,494,494,494,494,494,494,494,494,494,494,494,494,494,494,494,494,494,488,485,479,470,457,420,406,392,376,357,319,316,316,316,316,316,316,316,316,319,339,360,385,416,491,630,682,704,711,712,707,690,681,678,675,669,667,666,664,660,652,648,643,634,630,608,586,558,542,535,531,531,531,531,531,531,531,531,531,531,531,531,531,531,531,531,531,531,531,531,531,531,531,531,531,523,517,509,496,470,375,304,219,145,7,7,7,7,7,7,7,7,7,7,7,7,7,19,32,44,54,57,62,70,81,87,87,87,84,56],"timestamp_mouse":[1,19,43,59,79,101,119,139,160,179,200,221,240,260,279,299,320,340,359,380,399,421,439,459,480,500,520,540,559,579,600,620,639,660,679,699,720,740,760,779,800,819,840,859,881,899,919,939,959,979,999,1020,1039,1059,1079,1099,1119,1139,1160,1179,1199,1220,1240,1259,1279,1299,1319,1340,1361,1379,1399,1419,1440,1459,1479,1499,1519,1539,1559,1579,1599,1619,1639,1659,1680,1699,1719,1739,1760,1779,1800,1819,1840,1859,1881,1899,1919,1939,1960,1980,1999,2020,2040,2059,2080,2099,2120,2139,2159,2179,2199,2220,2240,2260,2280,2299,2319,2339,2359,2379,2400,2420,2439,2460,2480,2499,2520,2540,2559,2579,2599,2619,2640,2660,2679,2700,2720,2739,2760],"xSR":741.5,"ySR":469.95,"xT1":424.9,"yT1":0,"xT2":1058.1,"yT2":0,"toosoon":0,"cond_shown":"Incongruent","ratio_trial":100,"L_num":2,"L_den":4,"R_num":6,"R_den":15,"correct_side":1,"subjID":"juanleonrodriguez17","gender":"0","school":"6","age":"11"},{"start_time":1551794015549,"click_time":1551794020287,"finger_time":1551794016566,"fix_duration":741.7392843375262,"trial":10,"RT":1017,"MT":3721,"sideResp":2,"stimulus":[],"xmouse":[792,792,791,791,791,785,783,781,780,780,780,779,778,778,777,777,776,776,775,775,775,776,776,777,779,780,782,782,782,783,785,786,786,786,786,786,786,786,786,786,786,786,786,786,786,787,794,807,823,838,885,923,954,977,993,993,993,993,993,993,993,993,993,993,993,993,993,993,993,993,990,987,981,976,972,961,959,955,953,948,945,941,941,941,941,941,940,939,938,938,938,938,938,937,936,936,936,936,936,936,932,929,927,925,919,915,914,914,914,914,914,914,914,914,914,914,913,913,913,913,913,913,913,912,911,911,911,911,909,903,900,900,900,900,897,895,893,891,890,888,871,854,836,821,801,798,797,794,790,786,783,783,783,783,783,783,783,783,783,783,786,790,790,790,790,790,789,788,785,781,772,770,768,768,768,768,768,768,768,769,771,771,773,774,778,780,782,783,783,783,783,783,783,783,783,785,788,799,816,838,917,956,1005,1055,1089,1122,1134,1138,1142,1157,1164,1170,1171,1185,1234,1242,1246,1246,1246,1244,1237,1236,1236,1234,1218,1202,1182,1169,1166,1166,1161,1155,1146,1138,1135,1130,1129],"ymouse":[516,516,517,517,517,515,514,513,513,513,513,513,514,514,515,517,517,517,517,517,517,517,517,517,517,517,517,517,517,517,517,517,517,517,517,517,517,517,517,517,517,517,517,517,517,516,514,510,504,499,480,460,437,417,399,398,398,398,398,398,398,398,398,398,398,398,398,398,398,398,397,400,402,406,409,413,416,418,420,426,428,431,431,431,431,431,434,439,444,447,447,447,448,453,461,465,465,465,465,466,464,455,449,442,429,419,415,415,415,415,415,415,415,415,415,413,411,410,410,410,410,410,406,401,396,395,395,395,393,385,383,383,383,383,383,383,384,384,384,384,391,399,410,422,434,434,434,431,418,401,395,395,395,395,395,395,395,395,395,402,437,448,451,453,453,455,460,470,481,502,516,522,528,532,533,533,533,533,534,534,535,535,536,536,536,536,536,536,536,536,536,536,536,536,536,536,536,536,536,536,536,536,538,538,533,522,515,512,506,487,475,463,454,428,350,330,320,308,284,274,243,237,233,229,206,188,169,157,154,154,147,139,129,117,110,101,98],"timestamp_mouse":[35,37,57,77,97,117,137,157,178,197,217,237,257,277,298,317,339,357,378,397,418,437,458,477,497,518,537,558,577,598,618,637,658,677,698,718,739,757,778,798,819,838,857,878,898,917,937,958,977,998,1017,1037,1057,1077,1099,1117,1137,1158,1178,1199,1217,1237,1258,1277,1298,1317,1337,1358,1377,1397,1418,1437,1457,1477,1497,1517,1538,1557,1577,1599,1617,1637,1658,1678,1698,1717,1738,1758,1777,1797,1818,1837,1857,1878,1898,1917,1937,1959,1977,1997,2017,2037,2058,2078,2098,2117,2138,2157,2177,2198,2217,2238,2258,2278,2298,2317,2337,2358,2377,2398,2418,2437,2457,2477,2497,2518,2537,2558,2577,2598,2617,2638,2657,2677,2698,2717,2737,2758,2777,2797,2817,2837,2857,2877,2898,2917,2938,2957,2977,2997,3017,3037,3058,3078,3097,3118,3138,3157,3178,3197,3218,3237,3258,3278,3298,3317,3338,3359,3378,3397,3417,3437,3458,3477,3497,3517,3537,3558,3578,3597,3617,3637,3657,3677,3698,3717,3737,3757,3778,3797,3817,3839,3858,3878,3897,3917,3938,3958,3978,3997,4019,4038,4058,4080,4098,4117,4137,4158,4177,4198,4217,4237,4257,4277,4298,4317,4337,4358,4377,4399,4419,4437,4457,4477,4498,4517,4538,4558,4578,4597,4618,4637,4657,4677,4698,4717,4738],"xSR":741.5,"ySR":469.95,"xT1":424.9,"yT1":0,"xT2":1058.1,"yT2":0,"toosoon":0,"cond_shown":"Congruent","ratio_trial":100,"L_num":2,"L_den":5,"R_num":11,"R_den":22,"correct_side":2,"subjID":"juanleonrodriguez17","gender":"0","school":"6","age":"11"},{"start_time":1551794022458,"click_time":1551794035406,"finger_time":1551794023607,"fix_duration":1389.3882200277178,"trial":11,"RT":1149,"MT":11799,"sideResp":2,"stimulus":[],"xmouse":[790,790,790,790,790,790,790,790,790,790,790,790,790,790,790,790,790,790,790,790,790,790,790,790,790,790,790,790,790,790,790,790,790,790,790,790,790,790,790,790,790,790,790,790,790,790,790,790,790,790,790,790,790,790,790,790,776,761,743,710,698,693,691,690,689,689,689,689,689,689,689,689,689,689,689,689,689,711,749,829,854,865,869,869,869,869,870,872,874,881,896,903,908,913,916,930,947,971,999,1079,1124,1164,1212,1270,1288,1345,1356,1358,1358,1358,1358,1358,1358,1359,1360,1371,1374,1377,1379,1380,1380,1380,1380,1380,1380,1380,1380,1380,1380,1380,1382,1384,1386,1386,1386,1386,1386,1386,1386,1386,1386,1386,1386,1386,1386,1386,1386,1386,1386,1386,1386,1386,1386,1386,1386,1386,1386,1386,1386,1386,1386,1385,1384,1384,1382,1376,1371,1366,1361,1359,1359,1359,1359,1359,1359,1359,1359,1359,1359,1359,1359,1359,1359,1359,1359,1359,1359,1359,1359,1359,1359,1359,1359,1359,1358,1357,1356,1356,1356,1356,1356,1356,1356,1355,1352,1352,1352,1352,1352,1352,1352,1352,1352,1352,1352,1352,1352,1352,1352,1352,1352,1352,1352,1352,1352,1352,1352,1352,1352,1352,1352,1352,1352,1352,1352,1352,1352,1352,1352,1352,1352,1352,1352,1352,1352,1352,1352,1352,1352,1350,1349,1349,1349,1349,1349,1349,1349,1349,1349,1349,1349,1349,1349,1349,1349,1349,1349,1349,1349,1349,1349,1349,1349,1349,1349,1349,1349,1349,1349,1349,1349,1349,1349,1349,1349,1349,1349,1349,1349,1349,1349,1349,1349,1349,1349,1349,1349,1349,1349,1349,1349,1349,1349,1349,1349,1349,1349,1349,1349,1349,1349,1349,1349,1349,1349,1349,1349,1349,1349,1349,1349,1349,1349,1349,1349,1349,1349,1349,1349,1349,1349,1349,1349,1349,1349,1349,1349,1349,1349,1349,1349,1349,1349,1349,1349,1349,1349,1349,1349,1349,1349,1349,1349,1349,1349,1349,1349,1349,1349,1349,1349,1349,1349,1349,1349,1349,1349,1349,1349,1349,1349,1349,1349,1349,1349,1349,1349,1349,1349,1349,1349,1349,1349,1349,1349,1349,1349,1349,1348,1339,1330,1325,1320,1318,1318,1318,1318,1318,1318,1318,1318,1318,1318,1318,1318,1318,1318,1318,1318,1318,1318,1318,1318,1318,1318,1318,1318,1318,1318,1318,1318,1318,1318,1318,1318,1318,1318,1318,1318,1318,1318,1318,1318,1318,1318,1318,1318,1318,1318,1318,1318,1318,1318,1318,1318,1318,1318,1318,1318,1318,1318,1318,1318,1318,1318,1318,1318,1318,1318,1318,1318,1318,1318,1318,1318,1318,1318,1318,1318,1318,1318,1318,1318,1318,1318,1318,1318,1318,1318,1318,1318,1318,1318,1318,1318,1318,1318,1318,1317,1309,1263,1234,1207,1169,1142,1121,1109,1099,1094,1089,1075,1066,1053,1024,996,922,889,863,839,819,789,783,780,780,780,780,780,780,780,780,780,780,780,780,780,780,780,780,780,780,780,780,780,780,780,780,780,780,780,780,780,780,780,780,780,780,780,780,780,780,780,780,780,780,780,780,780,780,780,780,780,780,780,780,780,780,780,780,780,781,786,791,794,795,795,795,795,795,795,795,796,796,796,796,796,795,794,793,793,793,793,793,797,800,805,805,805,805,805,805,805,805,805,806,811,894,976,1074,1179,1337,1394,1417,1421,1422,1422,1422,1423,1423,1423,1411,1392,1347,1290,1234,1195,1192,1189,1189,1189,1198,1208,1211,1211,1211,1211,1211,1211,1206,1201,1197,1195,1195,1194,1189,1176,1164,1160,1158],"ymouse":[488,488,488,488,488,488,488,488,488,488,488,488,488,488,488,488,488,488,488,488,488,488,488,488,488,488,488,488,488,488,488,488,488,488,488,488,488,488,488,488,488,488,488,488,488,488,488,488,488,488,488,488,488,488,488,488,476,463,449,425,417,413,411,411,410,410,410,410,410,410,410,410,410,410,410,410,410,429,454,485,493,496,497,497,497,497,501,508,516,525,539,542,544,545,545,545,545,545,545,545,542,539,536,529,527,513,510,510,510,510,510,510,510,510,510,510,509,508,508,508,508,508,508,508,508,508,508,508,508,508,508,508,508,508,508,508,508,508,508,508,508,508,508,508,508,508,508,508,508,508,508,508,508,508,508,508,508,508,508,508,508,508,507,507,507,507,508,510,512,512,512,512,512,512,512,512,512,512,512,512,512,512,512,512,512,512,512,512,512,512,512,512,512,512,512,507,505,505,505,505,505,505,505,508,515,515,515,515,515,515,515,515,515,515,515,515,515,515,515,515,515,515,515,515,515,515,515,515,515,515,515,515,515,515,515,515,515,515,515,515,515,515,515,515,515,515,515,515,515,526,535,538,538,538,538,538,538,538,538,538,538,538,538,538,538,538,538,538,538,538,538,538,538,538,538,538,538,538,538,538,538,538,538,538,538,538,538,538,538,538,538,538,538,538,538,538,538,538,538,538,538,538,538,538,538,538,538,538,538,538,538,538,538,538,538,538,538,538,538,538,538,538,538,538,538,538,538,538,538,538,538,538,538,538,538,538,538,538,538,538,538,538,538,538,538,538,538,538,538,538,538,538,538,538,538,538,538,538,538,538,538,538,538,538,538,538,538,538,538,538,538,538,538,538,538,538,538,538,538,538,538,538,538,538,538,538,538,538,539,539,534,532,530,530,530,530,530,530,530,530,530,530,530,530,530,530,530,530,530,530,530,530,530,530,530,530,530,530,530,530,530,530,530,530,530,530,530,530,530,530,530,530,530,530,530,530,530,530,530,530,530,530,530,530,530,530,530,530,530,530,530,530,530,530,530,530,530,530,530,530,530,530,530,530,530,530,530,530,530,530,530,530,530,530,530,530,530,530,530,530,530,530,530,530,530,530,530,530,530,529,526,521,517,510,503,500,500,500,501,504,513,518,522,526,527,527,526,521,517,512,506,505,505,505,505,505,505,505,505,505,505,505,505,505,505,505,505,505,505,505,505,505,505,505,505,505,505,505,505,505,505,505,505,505,505,505,505,505,505,505,505,505,505,505,505,505,505,505,505,505,505,505,505,505,505,505,505,505,505,505,506,509,510,511,511,511,511,511,511,511,512,512,512,512,512,512,512,512,512,512,512,512,512,512,511,511,511,511,511,511,511,511,511,511,511,506,493,480,468,466,465,465,465,465,465,465,464,463,460,441,427,401,374,353,339,335,325,304,272,237,204,199,199,199,199,184,171,156,148,143,141,141,141,134,116,99,91,89],"timestamp_mouse":[10,38,49,69,88,108,128,149,168,188,210,228,249,269,288,308,328,350,368,389,408,428,448,469,489,509,529,548,568,588,609,628,649,668,689,710,729,748,769,789,809,829,848,869,889,908,929,948,968,989,1008,1028,1048,1069,1088,1108,1128,1149,1169,1190,1208,1229,1248,1268,1289,1308,1329,1350,1369,1389,1408,1428,1449,1469,1488,1508,1528,1549,1569,1589,1608,1628,1649,1669,1690,1709,1728,1749,1768,1789,1808,1829,1848,1869,1888,1908,1928,1948,1968,1989,2008,2028,2048,2068,2088,2110,2128,2149,2170,2189,2208,2228,2248,2268,2288,2308,2328,2348,2368,2389,2408,2429,2449,2468,2488,2508,2528,2549,2568,2588,2608,2629,2648,2668,2689,2709,2729,2749,2768,2788,2809,2829,2848,2868,2889,2908,2929,2948,2969,2988,3009,3028,3048,3070,3088,3109,3129,3148,3169,3188,3209,3229,3249,3268,3288,3308,3328,3349,3368,3389,3408,3429,3450,3469,3488,3508,3528,3549,3569,3588,3609,3628,3649,3668,3689,3709,3728,3748,3768,3789,3808,3829,3850,3869,3888,3909,3929,3949,3969,3989,4008,4028,4048,4068,4089,4108,4129,4149,4168,4189,4208,4228,4248,4268,4289,4308,4328,4349,4370,4388,4409,4428,4449,4469,4489,4508,4528,4549,4568,4589,4609,4628,4648,4668,4689,4708,4729,4748,4768,4788,4808,4829,4849,4869,4889,4909,4929,4948,4968,4989,5008,5029,5048,5068,5089,5109,5129,5149,5168,5189,5208,5228,5249,5268,5289,5308,5329,5348,5368,5389,5408,5429,5449,5468,5489,5508,5529,5550,5568,5589,5608,5628,5648,5668,5689,5708,5729,5749,5768,5789,5808,5828,5849,5868,5889,5909,5929,5948,5968,5989,6008,6029,6060,6069,6089,6109,6129,6149,6170,6188,6209,6228,6248,6268,6289,6308,6328,6349,6368,6388,6408,6429,6449,6468,6489,6508,6528,6548,6568,6589,6609,6628,6648,6668,6689,6708,6729,6748,6768,6789,6808,6828,6849,6869,6890,6908,6928,6949,6968,6990,7008,7029,7048,7069,7088,7109,7128,7149,7170,7189,7209,7228,7248,7268,7288,7309,7329,7349,7368,7389,7408,7428,7449,7469,7490,7508,7528,7548,7569,7588,7610,7628,7648,7669,7690,7709,7729,7748,7768,7790,7808,7829,7848,7868,7888,7908,7928,7948,7969,7988,8009,8028,8048,8069,8088,8109,8128,8148,8168,8189,8210,8229,8249,8268,8289,8309,8328,8350,8369,8389,8408,8429,8449,8469,8488,8508,8529,8550,8569,8589,8608,8628,8648,8668,8688,8708,8728,8749,8768,8789,8809,8829,8848,8869,8888,8909,8929,8949,8968,8988,9009,9028,9048,9068,9088,9109,9128,9149,9170,9189,9209,9228,9249,9268,9288,9310,9328,9349,9368,9389,9408,9428,9448,9468,9489,9508,9529,9548,9568,9588,9609,9628,9648,9668,9689,9708,9730,9748,9768,9788,9808,9829,9848,9868,9889,9908,9928,9949,9968,9988,10008,10028,10049,10068,10090,10109,10128,10148,10168,10188,10208,10230,10250,10269,10288,10309,10328,10349,10369,10388,10409,10428,10449,10468,10489,10508,10529,10549,10568,10588,10608,10628,10649,10668,10688,10708,10728,10748,10769,10788,10808,10829,10849,10869,10888,10908,10928,10950,10968,10988,11008,11029,11049,11068,11088,11108,11129,11149,11168,11188,11208,11228,11248,11269,11288,11309,11329,11350,11369,11388,11408,11429,11448,11468,11488,11509,11528,11549,11568,11588,11609,11629,11649,11669,11689,11708,11728,11749,11769,11788,11808,11828,11848,11870,11889,11909,11928,11948,11969,11990,12008,12029,12048,12068,12089,12108,12128,12149,12168,12189,12208,12228,12249,12268,12288,12308,12328,12349,12368,12389,12408,12429,12448,12468,12490,12508,12529,12548,12569,12589,12608,12628,12649,12669,12688,12708,12728,12748,12769,12788,12808,12829,12849,12869,12888,12908,12928,12948],"xSR":741.5,"ySR":469.95,"xT1":424.9,"yT1":0,"xT2":1058.1,"yT2":0,"toosoon":0,"cond_shown":"Incongruent","ratio_trial":100,"L_num":6,"L_den":12,"R_num":3,"R_den":5,"correct_side":2,"subjID":"juanleonrodriguez17","gender":"0","school":"6","age":"11"},{"start_time":1551794037520,"click_time":1551794039347,"finger_time":1551794038986,"fix_duration":610.2892726336362,"trial":12,"RT":1466,"MT":361,"sideResp":1,"stimulus":[],"xmouse":[766,766,766,766,766,766,766,766,766,766,766,766,766,766,766,766,766,766,766,766,766,766,766,766,766,766,766,766,766,766,766,766,766,766,766,766,766,766,766,767,767,770,771,772,772,772,772,772,772,772,772,772,772,772,772,772,772,772,772,772,772,772,772,772,772,772,772,772,772,772,772,772,763,751,731,709,691,661,649,641,638,635,630,621,611,600,576,566,553,542,528,497],"ymouse":[525,525,525,525,525,525,525,525,525,525,525,525,525,525,525,525,525,525,525,525,525,525,525,525,525,525,525,525,525,525,525,525,525,525,525,525,525,525,525,525,524,523,523,523,523,523,523,523,523,523,523,523,523,523,523,523,523,523,523,523,523,523,523,523,523,523,523,523,523,523,522,519,486,459,413,364,319,254,236,225,221,208,193,175,153,134,97,87,80,77,71,54],"timestamp_mouse":[10,29,46,66,86,108,126,147,166,186,206,227,247,267,286,306,326,346,366,386,406,426,447,467,486,506,526,546,566,586,606,627,647,666,686,707,726,748,766,786,807,826,847,866,887,907,926,946,967,986,1006,1027,1046,1066,1087,1106,1126,1146,1166,1186,1206,1227,1246,1266,1287,1306,1326,1346,1367,1386,1406,1428,1447,1466,1486,1506,1527,1546,1566,1587,1607,1627,1646,1666,1686,1707,1727,1746,1766,1787,1807,1827],"xSR":741.5,"ySR":469.95,"xT1":424.9,"yT1":0,"xT2":1058.1,"yT2":0,"toosoon":0,"cond_shown":"Incongruent","ratio_trial":100,"L_num":9,"L_den":10,"R_num":20,"R_den":25,"correct_side":1,"subjID":"juanleonrodriguez17","gender":"0","school":"6","age":"11"},{"start_time":1551794042542,"click_time":1551794044026,"finger_time":1551794043246,"fix_duration":275.79396927842515,"trial":13,"RT":704,"MT":780,"sideResp":2,"stimulus":[],"xmouse":[808,808,808,808,808,808,808,808,808,808,808,808,808,808,808,808,807,807,807,807,807,807,807,807,807,807,807,805,805,806,820,827,831,834,836,837,838,840,841,844,858,864,869,874,887,942,1004,1078,1159,1228,1307,1348,1358,1359,1359,1359,1359,1359,1359,1359,1359,1359,1359,1359,1359,1359,1359,1359,1195,1185,1177,1172,1167,1159,1155],"ymouse":[495,495,495,495,495,495,495,495,495,495,495,495,495,495,495,495,495,495,495,495,495,495,495,495,495,495,495,495,493,491,485,480,476,473,471,469,468,467,467,466,466,466,465,465,463,446,421,382,327,273,208,153,112,71,40,3,3,3,3,3,3,3,3,3,3,3,3,3,3,6,9,11,12,15,18],"timestamp_mouse":[10,38,44,64,85,104,124,144,165,184,204,224,245,264,285,304,324,344,365,384,405,425,444,464,484,504,524,544,564,585,605,625,644,665,685,704,724,745,764,785,805,824,844,866,885,904,924,944,965,984,1006,1025,1044,1064,1085,1104,1125,1145,1165,1184,1204,1225,1245,1264,1284,1304,1325,1344,1364,1384,1406,1424,1444,1465,1484],"xSR":741.5,"ySR":469.95,"xT1":424.9,"yT1":0,"xT2":1058.1,"yT2":0,"toosoon":0,"cond_shown":"Incongruent","ratio_trial":100,"L_num":2,"L_den":4,"R_num":6,"R_den":15,"correct_side":1,"subjID":"juanleonrodriguez17","gender":"0","school":"6","age":"11"},{"start_time":1551794048411,"click_time":1551794050286,"finger_time":1551794050026,"fix_duration":1464.9685154670167,"trial":14,"RT":1615,"MT":260,"sideResp":1,"stimulus":[],"xmouse":[799,799,799,799,799,799,799,799,799,799,799,799,799,799,799,799,799,799,799,799,799,799,799,799,799,799,799,799,799,799,799,799,799,799,799,799,799,799,799,799,799,799,799,799,799,799,799,799,799,799,799,799,799,799,799,799,799,799,799,799,799,799,799,799,799,799,799,799,799,799,799,799,799,799,799,799,799,798,786,767,742,712,675,668,659,653,637,595,574,553,535,512,502,487],"ymouse":[512,512,512,512,512,512,512,512,512,512,512,512,512,512,512,512,512,512,512,512,512,512,512,512,512,512,512,512,512,512,512,512,512,512,512,512,512,512,512,512,512,512,512,512,512,512,512,512,512,512,512,512,512,512,512,512,512,512,512,512,512,512,512,512,512,512,512,512,512,512,512,512,512,512,512,512,512,512,504,487,466,441,408,393,378,363,328,257,224,196,171,134,109,73],"timestamp_mouse":[16,35,55,77,95,116,135,155,175,196,216,235,256,275,295,316,337,355,375,396,417,435,455,475,495,515,537,556,577,596,615,636,656,677,696,716,736,756,775,796,816,835,855,876,896,915,936,956,976,995,1017,1036,1056,1076,1096,1115,1136,1156,1175,1196,1216,1235,1256,1277,1295,1316,1336,1355,1376,1395,1416,1436,1455,1476,1496,1516,1536,1555,1575,1596,1615,1637,1655,1676,1695,1716,1735,1755,1775,1796,1815,1837,1855,1875],"xSR":741.5,"ySR":469.95,"xT1":424.9,"yT1":0,"xT2":1058.1,"yT2":0,"toosoon":0,"cond_shown":"Congruent","ratio_trial":100,"L_num":11,"L_den":22,"R_num":6,"R_den":15,"correct_side":1,"subjID":"juanleonrodriguez17","gender":"0","school":"6","age":"11"},{"start_time":1551794060367,"click_time":1551794062147,"finger_time":1551794061768,"fix_duration":1219.3064724911114,"trial":15,"RT":1401,"MT":379,"sideResp":1,"stimulus":[],"xmouse":[774,774,774,774,774,774,774,774,774,774,774,774,774,774,774,774,774,774,774,774,774,774,774,774,774,774,774,774,774,774,774,774,774,774,774,774,774,774,774,774,774,774,774,774,774,774,774,774,774,774,774,774,774,774,774,774,774,774,774,774,774,774,774,774,774,772,770,761,755,730,723,717,714,710,703,697,687,670,656,610,586,561,543,520,515,510,503,497,487],"ymouse":[530,530,530,530,530,530,530,530,530,530,530,530,530,530,530,530,530,530,530,530,530,530,530,530,530,530,530,530,530,530,530,530,530,530,530,530,530,530,530,530,530,530,530,530,530,530,530,530,530,530,530,530,530,530,530,530,530,530,530,530,530,530,530,530,530,527,525,520,517,499,492,486,483,478,468,459,443,421,398,325,287,249,215,176,162,144,127,113,71],"timestamp_mouse":[33,40,60,79,99,119,139,160,180,199,219,240,259,280,299,319,340,359,379,400,419,439,460,479,500,519,541,560,580,600,620,640,659,679,700,719,739,759,780,799,819,840,860,879,899,919,940,960,979,1000,1019,1040,1059,1079,1099,1120,1140,1159,1179,1199,1219,1239,1259,1279,1299,1319,1339,1360,1379,1401,1419,1440,1459,1479,1499,1519,1539,1559,1579,1600,1619,1640,1659,1680,1699,1719,1739,1759,1780],"xSR":741.5,"ySR":469.95,"xT1":424.9,"yT1":0,"xT2":1058.1,"yT2":0,"toosoon":0,"cond_shown":"Incongruent","ratio_trial":200,"L_num":11,"L_den":20,"R_num":3,"R_den":4,"correct_side":2,"subjID":"juanleonrodriguez17","gender":"0","school":"6","age":"11"},{"start_time":1551794063518,"click_time":1551794065987,"finger_time":1551794064466,"fix_duration":369.9308186178922,"trial":16,"RT":948,"MT":1521,"sideResp":1,"stimulus":[],"xmouse":[775,775,775,775,775,775,775,775,775,775,775,775,775,775,775,775,775,775,775,775,775,775,775,775,775,775,775,775,775,775,775,775,775,775,775,775,775,775,775,775,775,775,775,775,776,780,789,806,817,832,848,900,921,939,949,954,956,958,960,962,964,967,969,969,970,973,982,986,988,988,989,997,1004,1011,1016,1023,1034,1037,1040,1041,1042,1042,1042,1042,1042,1042,1042,1042,1039,1026,1020,1003,985,979,977,973,964,931,900,850,756,617,550,478,414,365,335,304,299,299,299,313,319,326,333,338,346,352,358,361,364,372,402,432],"ymouse":[496,496,496,496,496,496,496,496,496,496,496,496,496,496,496,496,496,496,496,496,496,496,496,496,496,496,496,496,496,496,496,496,496,496,496,496,496,496,496,496,496,496,496,496,496,493,485,469,460,447,433,392,377,359,347,339,332,318,305,292,275,251,221,208,193,179,160,155,154,154,154,150,145,139,135,130,119,116,113,112,112,112,112,112,112,112,112,112,115,127,134,151,174,185,190,198,208,228,235,245,248,248,241,225,213,200,191,176,171,164,149,102,86,74,66,62,60,60,60,60,60,64,83,98],"timestamp_mouse":[14,28,49,69,88,108,128,149,169,188,209,228,249,268,289,308,329,349,368,388,409,429,449,468,490,509,528,549,568,589,609,628,649,668,689,708,728,749,768,789,809,829,849,868,888,908,928,948,968,988,1009,1029,1048,1068,1088,1108,1128,1148,1170,1188,1208,1228,1248,1268,1289,1309,1329,1348,1369,1388,1408,1429,1448,1468,1489,1509,1529,1548,1569,1589,1609,1628,1649,1668,1688,1709,1729,1748,1769,1788,1810,1828,1848,1868,1889,1908,1929,1948,1969,1988,2008,2029,2048,2068,2089,2108,2128,2148,2169,2189,2208,2229,2248,2268,2289,2309,2329,2348,2369,2389,2408,2428,2448,2468],"xSR":741.5,"ySR":469.95,"xT1":424.9,"yT1":0,"xT2":1058.1,"yT2":0,"toosoon":0,"cond_shown":"Incongruent","ratio_trial":300,"L_num":4,"L_den":20,"R_num":2,"R_den":4,"correct_side":2,"subjID":"juanleonrodriguez17","gender":"0","school":"6","age":"11"},{"start_time":1551794068980,"click_time":1551794070948,"finger_time":1551794070608,"fix_duration":250,"trial":17,"RT":1628,"MT":340,"sideResp":2,"stimulus":[],"xmouse":[781,781,781,781,781,781,781,781,781,781,781,781,781,781,781,781,781,781,781,781,781,781,781,781,781,781,781,781,781,781,781,781,781,781,781,781,781,781,781,781,781,781,781,781,781,781,781,781,781,781,781,781,781,781,781,781,781,781,781,781,781,781,781,781,781,781,781,781,781,781,781,781,781,781,781,781,781,781,781,800,841,897,935,986,1004,1020,1039,1058,1075,1105,1109,1111,1111,1111,1111,1111,1113,1115,1119],"ymouse":[528,528,528,528,528,528,528,528,528,528,528,528,528,528,528,528,528,528,528,528,528,528,528,528,528,528,528,528,528,528,528,528,528,528,528,528,528,528,528,528,528,528,528,528,528,528,528,528,528,528,528,528,528,528,528,528,528,528,528,528,528,528,528,528,528,528,528,528,528,528,528,528,528,528,528,528,528,528,528,512,484,452,426,351,315,278,241,207,181,126,116,110,110,110,110,109,105,100,63],"timestamp_mouse":[9,34,47,67,87,107,128,148,167,187,208,227,247,267,288,308,327,347,368,388,407,427,447,468,488,507,527,548,568,588,607,628,647,668,687,708,728,747,767,788,808,827,848,868,887,907,927,947,967,988,1007,1027,1047,1067,1088,1108,1127,1148,1168,1187,1208,1228,1247,1267,1287,1308,1328,1347,1367,1387,1407,1428,1447,1467,1487,1507,1527,1547,1567,1587,1607,1628,1647,1668,1687,1707,1727,1747,1768,1787,1807,1827,1848,1868,1887,1907,1927,1947,1968],"xSR":741.5,"ySR":469.95,"xT1":424.9,"yT1":0,"xT2":1058.1,"yT2":0,"toosoon":0,"cond_shown":"Congruent","ratio_trial":300,"L_num":3,"L_den":6,"R_num":4,"R_den":5,"correct_side":2,"subjID":"juanleonrodriguez17","gender":"0","school":"6","age":"11"},{"start_time":1551794072380,"click_time":1551794076308,"finger_time":1551794075747,"fix_duration":852.5669207835847,"trial":18,"RT":3367,"MT":561,"sideResp":1,"stimulus":[],"xmouse":[785,785,785,785,785,785,785,785,785,785,785,785,785,785,785,786,787,787,787,787,787,787,787,787,787,787,787,787,787,787,787,787,787,787,787,787,787,787,787,787,787,787,787,787,787,787,787,787,787,787,787,787,787,787,787,787,787,787,787,787,787,787,787,787,787,787,787,787,787,787,787,787,787,787,787,787,787,787,789,789,789,789,789,789,789,789,789,789,789,789,789,789,789,789,789,789,789,789,790,792,794,796,796,797,797,797,797,797,797,797,797,797,797,797,797,797,797,797,797,797,797,797,797,797,797,797,797,797,797,797,797,797,797,797,797,797,797,797,797,797,797,797,797,797,797,797,797,797,797,797,797,797,797,797,797,797,797,797,797,797,797,797,797,797,797,797,797,799,812,824,821,821,821,821,821,821,821,821,821,821,821,571,552,540,531,530,530,530,525,521,519,517,516,515,514,511,506],"ymouse":[550,550,550,550,550,550,550,550,550,550,550,550,550,550,550,548,548,547,547,546,546,546,546,546,546,546,546,546,546,546,546,546,546,546,546,546,546,546,546,546,546,546,546,546,546,546,546,546,546,546,546,546,546,546,546,546,546,546,546,546,546,546,546,546,546,546,546,546,546,546,546,546,546,546,546,546,546,546,545,544,543,541,540,539,536,535,535,535,535,535,535,535,535,535,535,535,535,535,535,533,531,530,530,530,532,533,533,533,533,533,533,533,533,533,533,533,533,533,533,533,533,533,533,533,533,533,533,533,533,533,533,533,533,533,533,533,533,533,533,533,533,533,533,533,533,533,533,533,533,533,533,533,533,533,533,533,533,533,533,533,533,533,533,533,533,533,520,501,412,83,20,20,20,20,20,20,20,20,20,20,20,22,60,87,117,120,123,125,132,133,133,133,133,132,123,107,92],"timestamp_mouse":[10,31,48,68,88,107,127,147,168,187,207,228,247,268,288,307,327,347,367,388,407,428,447,467,487,507,528,547,567,588,607,628,648,667,688,707,727,748,767,787,807,827,848,868,887,907,928,947,968,988,1008,1028,1048,1067,1087,1106,1127,1148,1167,1187,1208,1227,1247,1267,1288,1307,1327,1348,1368,1387,1407,1427,1447,1468,1488,1508,1527,1546,1567,1587,1607,1627,1647,1667,1687,1708,1728,1747,1767,1788,1808,1828,1847,1867,1888,1908,1927,1947,1967,1988,2007,2028,2048,2068,2087,2107,2127,2148,2167,2187,2208,2228,2247,2268,2287,2307,2328,2348,2367,2387,2406,2427,2447,2467,2487,2507,2528,2547,2567,2587,2608,2628,2648,2667,2687,2707,2727,2747,2767,2787,2807,2827,2848,2867,2887,2908,2927,2947,2967,2987,3008,3027,3047,3068,3087,3107,3127,3148,3167,3187,3207,3228,3247,3267,3287,3308,3327,3347,3367,3387,3407,3428,3448,3467,3487,3508,3527,3548,3567,3587,3607,3627,3647,3668,3687,3707,3727,3748,3768,3786,3807,3828,3847,3866,3886,3908,3928],"xSR":741.5,"ySR":469.95,"xT1":424.9,"yT1":0,"xT2":1058.1,"yT2":0,"toosoon":0,"cond_shown":"Congruent","ratio_trial":100,"L_num":9,"L_den":15,"R_num":8,"R_den":16,"correct_side":1,"subjID":"juanleonrodriguez17","gender":"0","school":"6","age":"11"},{"start_time":1551794077604,"click_time":1551794079128,"finger_time":1551794078707,"fix_duration":376.7568371396749,"trial":19,"RT":1103,"MT":421,"sideResp":2,"stimulus":[],"xmouse":[785,785,785,785,785,785,785,785,785,785,785,785,785,785,785,785,785,785,785,785,785,785,785,785,785,785,785,785,785,785,785,785,785,785,785,785,785,785,785,785,785,785,785,785,785,785,785,785,785,785,785,785,785,787,813,870,938,1150,1243,1316,1316,1316,1316,1316,1316,1316,1316,1316,1316,1316,1316,1316,1316,1259,1204,1162,1137],"ymouse":[528,528,528,528,528,528,528,528,528,528,528,528,528,528,528,528,528,528,528,528,528,528,528,528,528,528,528,528,528,528,528,528,528,528,528,528,528,528,528,528,528,528,528,528,528,528,528,528,528,528,528,528,528,528,504,453,388,187,98,3,3,3,3,3,3,3,3,3,3,3,3,3,3,1,18,31,44],"timestamp_mouse":[8,23,45,64,83,103,123,144,164,184,203,224,244,264,284,303,324,343,363,384,403,423,444,463,483,503,523,543,564,583,603,623,643,663,684,703,723,744,764,783,804,824,843,863,883,903,924,944,963,984,1003,1024,1043,1063,1084,1103,1124,1144,1163,1183,1203,1223,1244,1262,1284,1304,1323,1345,1363,1383,1404,1423,1442,1463,1482,1503,1524],"xSR":741.5,"ySR":469.95,"xT1":424.9,"yT1":0,"xT2":1058.1,"yT2":0,"toosoon":0,"cond_shown":"Congruent","ratio_trial":100,"L_num":6,"L_den":12,"R_num":15,"R_den":25,"correct_side":2,"subjID":"juanleonrodriguez17","gender":"0","school":"6","age":"11"},{"start_time":1551794081400,"click_time":1551794082767,"finger_time":1551794082408,"fix_duration":1271.6822126985207,"trial":20,"RT":1008,"MT":359,"sideResp":2,"stimulus":[],"xmouse":[814,814,814,814,814,814,814,814,814,814,814,814,814,814,814,814,814,814,814,814,814,814,814,814,814,814,814,814,814,814,814,814,814,814,814,814,814,814,814,814,814,814,814,814,814,814,814,817,820,835,869,907,983,1001,1015,1022,1027,1041,1041,1041,1041,1041,1041,1041,1041,1041,1041,1041,1063],"ymouse":[535,535,535,535,535,535,535,535,535,535,535,535,535,535,535,535,535,535,535,535,535,535,535,535,535,535,535,535,535,535,535,535,535,535,535,535,535,535,535,535,535,535,534,533,531,531,531,522,511,480,396,295,140,101,78,56,40,0,0,0,0,0,0,0,0,0,0,0,6],"timestamp_mouse":[10,38,48,67,88,107,127,147,167,188,207,228,248,268,287,308,328,346,367,388,407,427,448,467,488,508,527,548,568,587,607,627,647,668,687,708,726,747,767,787,808,828,847,867,887,907,928,948,968,987,1008,1027,1048,1067,1087,1107,1128,1148,1167,1186,1207,1227,1248,1267,1288,1308,1327,1347,1367],"xSR":741.5,"ySR":469.95,"xT1":424.9,"yT1":0,"xT2":1058.1,"yT2":0,"toosoon":0,"cond_shown":"Congruent","ratio_trial":100,"L_num":1,"L_den":2,"R_num":18,"R_den":30,"correct_side":2,"subjID":"juanleonrodriguez17","gender":"0","school":"6","age":"11"},{"start_time":1551794092423,"click_time":1551794094647,"finger_time":1551794094207,"fix_duration":874.244221793038,"trial":21,"RT":1784,"MT":440,"sideResp":2,"stimulus":[],"xmouse":[794,794,794,794,795,796,798,798,798,798,798,798,798,798,798,798,798,798,798,798,798,798,798,798,798,798,798,798,798,798,798,798,798,798,798,798,798,798,798,798,798,798,798,798,798,798,798,798,798,798,799,799,799,799,799,799,799,799,799,799,799,799,799,799,799,799,799,799,799,799,799,799,799,799,799,799,799,799,799,799,799,799,799,799,799,799,803,805,806,807,808,809,811,814,821,836,862,877,894,908,923,943,954,965,979,988,1006,1032,1044,1056,1064,1073],"ymouse":[512,512,511,509,507,505,503,503,503,503,503,503,503,503,503,503,503,503,503,503,503,503,503,503,503,503,503,503,503,503,503,503,503,503,503,503,503,503,503,503,503,503,503,503,503,503,503,503,503,503,502,502,502,502,502,502,502,502,502,502,502,502,502,502,502,502,502,502,502,502,502,502,502,502,502,502,502,502,502,502,502,502,502,502,500,496,485,478,473,469,467,461,458,452,440,418,382,363,341,321,304,283,272,257,237,225,203,172,152,131,109,91],"timestamp_mouse":[8,24,44,65,85,104,125,144,164,185,205,224,244,265,284,305,325,345,364,385,405,425,445,464,485,504,525,544,564,585,604,625,644,664,685,704,724,745,765,784,805,825,844,864,885,904,925,945,964,985,1004,1025,1044,1064,1084,1104,1124,1145,1164,1185,1204,1224,1245,1264,1284,1304,1324,1344,1364,1385,1404,1425,1444,1465,1484,1505,1524,1544,1565,1585,1604,1625,1645,1665,1684,1705,1725,1745,1764,1784,1804,1825,1844,1864,1885,1905,1926,1944,1964,1984,2004,2025,2044,2065,2084,2104,2124,2144,2164,2184,2205,2224],"xSR":741.5,"ySR":469.95,"xT1":424.9,"yT1":0,"xT2":1058.1,"yT2":0,"toosoon":0,"cond_shown":"Congruent","ratio_trial":100,"L_num":1,"L_den":2,"R_num":18,"R_den":30,"correct_side":2,"subjID":"juanleonrodriguez17","gender":"0","school":"6","age":"11"},{"start_time":1551794096660,"click_time":1551794097767,"finger_time":1551794097387,"fix_duration":1109.4438927662472,"trial":22,"RT":727,"MT":380,"sideResp":2,"stimulus":[],"xmouse":[800,800,800,800,800,800,800,800,800,800,800,800,800,800,800,800,800,800,800,800,800,800,800,800,800,800,800,800,800,800,800,800,800,800,801,816,831,852,874,928,958,977,992,998,1004,1006,1013,1021,1031,1041,1049,1049,1050,1051,1065,1076],"ymouse":[520,520,520,520,520,520,520,520,520,520,520,520,520,520,520,520,520,520,520,520,520,520,520,520,520,520,520,520,520,520,520,520,517,516,511,481,453,411,376,307,268,247,232,224,213,209,202,193,183,174,160,157,154,153,120,99],"timestamp_mouse":[10,38,48,67,87,108,128,147,168,187,208,227,247,268,288,307,328,347,368,388,408,428,448,467,488,508,528,547,567,587,607,628,647,668,687,708,727,747,767,788,807,828,847,867,889,907,927,948,967,988,1007,1028,1047,1067,1088,1107],"xSR":741.5,"ySR":469.95,"xT1":424.9,"yT1":0,"xT2":1058.1,"yT2":0,"toosoon":0,"cond_shown":"Congruent","ratio_trial":200,"L_num":1,"L_den":2,"R_num":21,"R_den":30,"correct_side":2,"subjID":"juanleonrodriguez17","gender":"0","school":"6","age":"11"},{"start_time":1551794102420,"click_time":1551794103527,"finger_time":1551794103207,"fix_duration":250,"trial":23,"RT":787,"MT":320,"sideResp":1,"stimulus":[],"xmouse":[795,795,795,795,795,795,795,795,795,795,795,795,795,795,795,795,795,795,795,795,795,795,795,795,795,795,795,795,795,795,795,795,795,795,795,795,795,795,792,780,760,735,643,621,621,621,621,621,621,621,621,621,621,621,621,478],"ymouse":[512,512,512,512,512,512,512,512,512,512,512,512,512,512,512,512,512,512,512,512,512,512,512,512,512,512,512,512,512,512,512,512,512,512,512,512,512,512,510,468,395,306,80,25,25,25,25,25,25,25,25,25,25,25,25,4],"timestamp_mouse":[10,32,47,67,87,107,128,147,167,187,208,227,247,267,287,308,327,347,367,387,408,427,447,468,487,507,527,547,567,586,607,627,647,668,688,707,727,748,767,787,807,827,847,868,887,907,927,948,967,988,1007,1028,1047,1067,1087,1107],"xSR":741.5,"ySR":469.95,"xT1":424.9,"yT1":0,"xT2":1058.1,"yT2":0,"toosoon":0,"cond_shown":"Congruent","ratio_trial":100,"L_num":11,"L_den":22,"R_num":4,"R_den":10,"correct_side":1,"subjID":"juanleonrodriguez17","gender":"0","school":"6","age":"11"},{"start_time":1551794105033,"click_time":1551794106227,"finger_time":1551794105828,"fix_duration":484.43195639001414,"trial":24,"RT":795,"MT":399,"sideResp":2,"stimulus":[],"xmouse":[790,790,790,790,790,790,790,790,790,790,790,790,790,790,790,790,790,790,790,790,790,790,790,790,790,790,790,790,790,790,790,790,790,791,791,791,793,796,803,818,854,869,889,908,923,935,954,962,971,979,983,985,986,986,986,992,1003,1018,1039,1064],"ymouse":[502,502,502,502,502,502,502,502,502,502,502,502,502,502,502,502,502,502,502,502,502,502,502,502,502,502,502,502,502,502,502,502,501,499,498,497,492,488,478,461,411,385,359,325,299,271,229,210,192,169,157,149,145,144,143,135,126,115,99,80],"timestamp_mouse":[14,34,54,75,94,114,134,155,174,195,214,234,254,275,295,315,334,354,374,394,415,435,454,474,494,514,534,554,575,594,615,634,654,673,694,714,734,754,775,795,815,834,855,874,895,914,934,953,974,994,1015,1034,1054,1074,1095,1115,1134,1154,1174,1194],"xSR":741.5,"ySR":469.95,"xT1":424.9,"yT1":0,"xT2":1058.1,"yT2":0,"toosoon":0,"cond_shown":"Incongruent","ratio_trial":300,"L_num":4,"L_den":5,"R_num":8,"R_den":16,"correct_side":1,"subjID":"juanleonrodriguez17","gender":"0","school":"6","age":"11"},{"start_time":1551794111415,"click_time":1551794112729,"finger_time":1551794112087,"fix_duration":546.7616935027191,"trial":25,"RT":672,"MT":642,"sideResp":2,"stimulus":[],"xmouse":[808,808,808,808,808,808,808,808,808,808,808,808,808,808,808,808,808,808,808,808,808,808,808,808,808,808,808,808,808,808,808,809,826,873,953,1060,1178,1357,1357,1357,1357,1357,1357,1357,1357,1357,1357,1357,1357,1357,1357,1357,1357,1357,1357,1357,1357,1357,1357,1182,1179,1177,1171,1168,1163,1153],"ymouse":[517,517,517,517,517,517,517,517,517,517,517,517,517,517,517,517,517,517,517,517,517,517,517,517,517,517,517,517,517,517,517,515,493,452,386,298,195,39,39,39,39,39,39,39,39,39,39,39,39,39,39,39,39,39,39,39,39,39,39,4,11,16,26,30,35,42],"timestamp_mouse":[12,32,53,72,92,112,133,153,173,192,212,233,253,273,293,312,333,353,372,392,412,433,452,473,492,513,532,552,572,593,612,633,652,672,692,712,732,753,772,792,812,834,852,872,893,913,933,952,973,993,1013,1033,1052,1073,1093,1113,1133,1153,1172,1193,1213,1233,1252,1273,1292,1313],"xSR":741.5,"ySR":469.95,"xT1":424.9,"yT1":0,"xT2":1058.1,"yT2":0,"toosoon":0,"cond_shown":"Congruent","ratio_trial":200,"L_num":3,"L_den":10,"R_num":14,"R_den":28,"correct_side":2,"subjID":"juanleonrodriguez17","gender":"0","school":"6","age":"11"},{"start_time":1551794114450,"click_time":1551794115408,"finger_time":1551794115087,"fix_duration":680.6007281237886,"trial":26,"RT":637,"MT":321,"sideResp":2,"stimulus":[],"xmouse":[759,759,759,759,759,759,759,759,759,759,759,759,759,759,759,761,762,763,763,763,763,763,763,763,763,764,765,766,768,770,785,799,821,857,885,937,955,967,974,992,1005,1015,1023,1034,1046,1051,1056,1060],"ymouse":[509,509,509,509,509,509,509,509,509,509,509,509,509,509,508,503,501,499,499,499,499,499,499,499,498,497,496,495,492,490,471,457,433,395,370,298,253,207,165,122,110,105,102,102,101,100,98,96],"timestamp_mouse":[17,40,58,78,97,117,137,157,177,197,217,237,257,278,297,318,337,357,378,398,418,437,457,478,498,517,536,557,576,597,617,637,657,676,697,716,737,757,777,797,817,838,857,877,898,917,937,958],"xSR":741.5,"ySR":469.95,"xT1":424.9,"yT1":0,"xT2":1058.1,"yT2":0,"toosoon":0,"cond_shown":"Congruent","ratio_trial":200,"L_num":3,"L_den":10,"R_num":11,"R_den":22,"correct_side":2,"subjID":"juanleonrodriguez17","gender":"0","school":"6","age":"11"},{"start_time":1551794116837,"click_time":1551794118908,"finger_time":1551794118387,"fix_duration":426.2710300158704,"trial":27,"RT":1550,"MT":521,"sideResp":1,"stimulus":[],"xmouse":[799,799,799,799,799,799,799,799,799,799,799,799,799,799,799,799,799,799,799,799,799,799,799,799,799,799,799,800,801,801,801,801,801,801,801,801,801,801,801,801,801,801,801,801,801,801,801,801,801,801,801,801,801,801,801,801,801,801,801,801,801,801,801,801,801,801,801,801,801,801,801,801,801,801,801,801,798,785,761,727,682,571,538,538,538,538,538,538,538,538,538,538,295,299,302,314,322,332,344,351,371,387,409,440],"ymouse":[496,496,496,496,496,496,496,496,496,496,496,496,496,496,496,496,496,496,496,496,496,496,496,496,496,496,494,490,489,487,486,486,486,486,486,486,486,486,486,486,486,486,486,486,486,486,486,486,486,486,486,486,486,486,486,486,485,485,485,485,485,485,485,485,485,485,485,485,485,485,485,485,485,485,485,483,475,460,437,395,320,122,63,63,63,63,63,63,63,63,63,63,6,11,14,39,52,65,73,78,85,89,89,89],"timestamp_mouse":[10,42,50,71,91,110,130,150,170,190,211,230,250,271,290,311,331,350,370,390,411,429,450,470,491,510,531,550,570,590,610,631,649,671,690,710,729,750,771,790,811,831,850,871,890,910,930,950,970,991,1010,1031,1051,1070,1090,1112,1131,1151,1170,1190,1210,1230,1250,1271,1291,1311,1330,1350,1370,1391,1410,1430,1451,1470,1490,1510,1531,1550,1571,1589,1610,1629,1651,1670,1690,1711,1730,1751,1770,1791,1811,1830,1849,1869,1890,1911,1930,1950,1971,1989,2011,2029,2050,2071],"xSR":741.5,"ySR":469.95,"xT1":424.9,"yT1":0,"xT2":1058.1,"yT2":0,"toosoon":0,"cond_shown":"Incongruent","ratio_trial":200,"L_num":1,"L_den":2,"R_num":3,"R_den":10,"correct_side":1,"subjID":"juanleonrodriguez17","gender":"0","school":"6","age":"11"},{"start_time":1551794120580,"click_time":1551794122508,"finger_time":1551794122167,"fix_duration":631.3112392203974,"trial":28,"RT":1587,"MT":341,"sideResp":1,"stimulus":[],"xmouse":[807,807,807,807,807,807,807,807,807,807,807,807,807,807,807,807,807,807,807,807,807,807,807,807,807,807,807,807,807,807,807,807,807,807,807,807,807,807,807,807,807,807,807,807,807,807,807,807,807,807,807,807,807,807,807,808,808,808,808,808,808,807,806,806,806,805,805,805,805,805,805,805,805,805,805,805,802,797,784,713,649,582,519,439,425,418,417,417,425,429,433,437,442,459,470,481,488],"ymouse":[537,537,537,537,537,537,537,537,537,537,537,537,537,537,537,537,537,537,537,537,537,537,537,537,537,537,537,537,537,537,537,537,537,537,537,537,537,537,537,537,537,537,537,537,537,537,537,537,537,537,537,537,537,537,537,536,535,534,533,531,530,530,529,529,529,529,528,528,528,528,528,528,528,528,528,528,525,521,512,471,433,395,360,313,300,290,282,275,255,243,229,215,202,163,138,112,91],"timestamp_mouse":[8,37,47,66,88,108,127,147,167,187,208,227,247,268,287,306,328,347,367,388,407,427,447,467,488,507,527,547,567,588,606,627,647,667,688,708,727,747,768,787,807,827,847,868,888,907,928,947,967,988,1008,1027,1047,1067,1087,1107,1128,1148,1167,1187,1208,1227,1247,1267,1287,1307,1327,1347,1367,1387,1407,1427,1447,1467,1487,1507,1527,1547,1567,1587,1606,1627,1647,1668,1687,1707,1727,1748,1768,1787,1807,1827,1847,1867,1887,1907,1927],"xSR":741.5,"ySR":469.95,"xT1":424.9,"yT1":0,"xT2":1058.1,"yT2":0,"toosoon":0,"cond_shown":"Congruent","ratio_trial":300,"L_num":3,"L_den":6,"R_num":2,"R_den":10,"correct_side":1,"subjID":"juanleonrodriguez17","gender":"0","school":"6","age":"11"},{"start_time":1551794123991,"click_time":1551794124888,"finger_time":1551794124568,"fix_duration":723.0454702591885,"trial":29,"RT":577,"MT":320,"sideResp":1,"stimulus":[],"xmouse":[761,761,761,761,761,761,761,761,761,761,761,761,761,761,761,761,761,761,761,761,761,761,761,761,762,762,762,761,737,706,672,632,571,554,545,540,540,537,536,533,529,527,525,525,524],"ymouse":[520,520,520,520,520,520,520,520,520,520,520,520,520,520,520,520,520,520,520,520,520,520,520,520,519,518,516,509,451,393,335,277,196,172,157,145,132,118,112,107,99,96,94,94,94],"timestamp_mouse":[16,38,56,76,96,117,136,157,176,196,217,236,257,277,297,317,337,357,377,396,417,436,456,476,496,516,537,556,577,596,617,636,658,676,696,716,737,758,776,796,817,836,857,877,897],"xSR":741.5,"ySR":469.95,"xT1":424.9,"yT1":0,"xT2":1058.1,"yT2":0,"toosoon":0,"cond_shown":"Incongruent","ratio_trial":300,"L_num":4,"L_den":20,"R_num":2,"R_den":4,"correct_side":2,"subjID":"juanleonrodriguez17","gender":"0","school":"6","age":"11"},{"start_time":1551794126587,"click_time":1551794128188,"finger_time":1551794127768,"fix_duration":536.7072154218025,"trial":30,"RT":1181,"MT":420,"sideResp":1,"stimulus":[],"xmouse":[767,767,767,767,767,767,767,767,767,767,767,767,767,767,767,767,767,767,767,767,767,767,767,767,767,767,767,767,767,767,767,767,767,767,767,767,767,767,768,768,768,768,768,768,768,768,768,768,768,768,768,768,768,768,768,768,768,768,768,745,716,667,611,490,436,382,356,356,356,356,356,356,356,356,356,356,356,356,356,421,427],"ymouse":[485,485,485,485,485,485,485,485,485,485,485,485,485,485,485,485,485,485,485,485,485,485,485,485,485,485,485,485,485,485,485,485,485,485,485,485,485,485,483,483,482,482,482,482,482,482,482,482,482,482,482,482,482,482,482,482,482,482,481,461,436,390,332,192,123,57,21,21,21,21,21,21,21,21,21,21,21,21,21,7,13],"timestamp_mouse":[1,20,44,61,80,101,120,141,161,180,201,221,241,260,281,300,320,340,360,380,400,421,440,461,481,500,521,540,561,580,600,621,641,661,680,700,720,740,761,781,801,820,841,861,880,901,921,941,959,980,999,1020,1041,1061,1081,1101,1120,1141,1160,1181,1200,1221,1241,1261,1279,1300,1321,1340,1360,1380,1400,1421,1440,1461,1481,1500,1520,1541,1561,1580,1601],"xSR":741.5,"ySR":469.95,"xT1":424.9,"yT1":0,"xT2":1058.1,"yT2":0,"toosoon":0,"cond_shown":"Congruent","ratio_trial":300,"L_num":4,"L_den":5,"R_num":2,"R_den":4,"correct_side":1,"subjID":"juanleonrodriguez17","gender":"0","school":"6","age":"11"},{"start_time":1551794130483,"click_time":1551794131528,"finger_time":1551794131166,"fix_duration":1034.0193923538131,"trial":31,"RT":683,"MT":362,"sideResp":1,"stimulus":[],"xmouse":[798,798,798,798,798,798,798,798,798,798,798,798,798,798,798,798,798,798,798,798,798,798,798,798,798,798,798,798,798,798,798,797,796,786,771,742,709,658,594,471,449,441,439,439,454,462,468,474,483,497,503,510,514],"ymouse":[493,493,493,493,493,493,493,493,493,493,493,493,493,493,493,493,493,493,493,493,494,494,494,494,494,494,494,494,494,494,494,494,491,481,469,450,420,373,308,180,153,144,143,143,146,147,147,145,138,121,113,103,97],"timestamp_mouse":[9,24,44,64,85,104,124,145,165,185,205,223,244,264,284,305,324,345,364,384,404,424,444,464,485,504,525,545,565,585,605,624,645,665,683,704,723,745,764,784,806,824,844,864,885,904,924,943,964,984,1004,1024,1045],"xSR":741.5,"ySR":469.95,"xT1":424.9,"yT1":0,"xT2":1058.1,"yT2":0,"toosoon":0,"cond_shown":"Incongruent","ratio_trial":200,"L_num":14,"L_den":30,"R_num":6,"R_den":9,"correct_side":2,"subjID":"juanleonrodriguez17","gender":"0","school":"6","age":"11"},{"start_time":1551794133496,"click_time":1551794134367,"finger_time":1551794134007,"fix_duration":826.2885335549295,"trial":32,"RT":511,"MT":360,"sideResp":2,"stimulus":[],"xmouse":[817,817,817,817,817,817,817,817,817,817,817,817,817,817,817,818,818,818,818,818,818,818,818,820,824,831,843,876,893,905,918,928,938,954,959,966,973,988,997,1004,1013,1031,1055,1078],"ymouse":[506,506,506,506,506,506,506,506,506,506,506,506,506,506,506,506,504,502,498,495,494,493,492,485,476,458,428,350,312,285,268,256,245,219,207,196,182,155,144,137,131,121,109,97],"timestamp_mouse":[11,40,52,71,91,112,131,152,172,191,211,231,252,271,292,311,331,351,371,391,411,432,450,471,491,511,531,552,570,591,611,631,651,671,691,712,731,753,770,792,811,831,851,870],"xSR":741.5,"ySR":469.95,"xT1":424.9,"yT1":0,"xT2":1058.1,"yT2":0,"toosoon":0,"cond_shown":"Congruent","ratio_trial":200,"L_num":9,"L_den":20,"R_num":4,"R_den":16,"correct_side":1,"subjID":"juanleonrodriguez17","gender":"0","school":"6","age":"11"},{"start_time":1551794137468,"click_time":1551794138128,"finger_time":1551794137768,"fix_duration":1138.782798654111,"trial":33,"RT":300,"MT":360,"sideResp":1,"stimulus":[],"xmouse":[806,806,806,806,806,807,804,798,795,791,791,790,788,781,759,697,676,668,661,658,658,657,651,636,571,559,551,549,546,545,529,519,509,500],"ymouse":[533,533,533,533,533,532,529,525,523,520,520,519,516,506,475,393,363,348,334,325,325,323,320,307,236,214,197,185,178,174,148,127,101,76],"timestamp_mouse":[1,31,39,59,79,98,119,139,160,180,200,219,239,258,279,300,319,340,359,380,399,419,440,459,480,499,519,539,559,579,599,619,639,660],"xSR":741.5,"ySR":469.95,"xT1":424.9,"yT1":0,"xT2":1058.1,"yT2":0,"toosoon":0,"cond_shown":"Incongruent","ratio_trial":300,"L_num":4,"L_den":5,"R_num":8,"R_den":16,"correct_side":1,"subjID":"juanleonrodriguez17","gender":"0","school":"6","age":"11"},{"start_time":1551794139369,"click_time":1551794141349,"finger_time":1551794140568,"fix_duration":381.0626964621593,"trial":34,"RT":1199,"MT":781,"sideResp":2,"stimulus":[],"xmouse":[783,783,783,783,783,783,783,783,783,783,783,783,783,783,783,783,783,783,783,783,783,783,783,783,783,783,783,783,784,784,784,784,784,784,784,784,784,784,779,773,767,764,762,762,762,762,762,762,762,762,762,762,762,762,762,762,762,761,761,757,746,729,716,708,708,708,708,708,718,725,738,748,759,772,797,811,833,854,913,935,953,962,972,983,995,1002,1007,1011,1032,1040,1049,1061,1061,1061,1061,1061,1061,1061,1115],"ymouse":[527,527,527,527,527,527,527,527,527,527,527,527,527,527,527,527,527,527,527,527,527,527,527,527,527,527,527,527,526,522,519,517,516,514,514,514,514,514,511,507,504,502,502,502,502,502,502,502,502,502,502,502,502,502,502,502,502,498,480,459,435,403,381,365,365,365,365,365,383,392,399,400,399,385,340,321,289,263,207,196,191,187,185,183,177,166,152,138,96,68,39,0,0,0,0,0,0,0,20],"timestamp_mouse":[33,38,58,79,99,118,138,158,178,198,218,239,259,278,298,319,338,359,378,398,419,438,459,478,499,518,538,558,578,598,618,638,658,678,698,718,739,758,778,799,818,838,858,879,899,919,939,959,978,998,1018,1039,1059,1077,1098,1119,1138,1158,1179,1199,1218,1238,1259,1279,1298,1319,1339,1359,1379,1398,1418,1438,1459,1478,1498,1519,1538,1558,1579,1598,1618,1639,1658,1678,1698,1718,1738,1759,1778,1798,1818,1838,1858,1879,1898,1919,1938,1958,1980],"xSR":741.5,"ySR":469.95,"xT1":424.9,"yT1":0,"xT2":1058.1,"yT2":0,"toosoon":0,"cond_shown":"Incongruent","ratio_trial":100,"L_num":2,"L_den":4,"R_num":8,"R_den":20,"correct_side":1,"subjID":"juanleonrodriguez17","gender":"0","school":"6","age":"11"},{"start_time":1551794143753,"click_time":1551794145648,"finger_time":1551794145307,"fix_duration":1384.2802823565262,"trial":35,"RT":1554,"MT":341,"sideResp":1,"stimulus":[],"xmouse":[765,765,765,765,765,765,765,765,765,765,765,765,765,765,765,765,765,765,765,765,765,765,765,765,765,765,765,765,765,765,765,765,765,765,765,765,765,765,765,765,765,765,765,765,765,765,765,765,765,765,765,765,765,765,765,765,765,765,765,765,765,765,765,765,765,765,765,765,765,765,765,765,765,761,757,750,744,736,724,678,657,637,620,609,600,598,598,597,593,575,546,531,516,499,462],"ymouse":[539,539,539,539,539,539,539,539,539,539,539,539,539,539,539,539,539,539,539,539,539,539,539,539,539,539,539,539,538,538,538,538,538,538,538,538,538,538,538,538,538,538,538,538,538,538,538,538,538,538,538,538,538,538,538,538,538,538,538,538,538,538,538,538,538,538,538,538,538,538,538,538,528,520,511,491,480,461,439,363,332,308,284,269,254,253,252,252,248,229,185,161,136,112,67],"timestamp_mouse":[15,35,55,74,94,114,135,155,174,195,214,234,255,275,294,315,334,354,374,394,415,434,454,475,494,514,533,554,575,594,615,634,655,674,693,715,734,754,775,794,815,834,854,874,894,915,935,954,974,994,1014,1034,1054,1074,1094,1115,1134,1155,1175,1195,1215,1234,1254,1275,1295,1315,1334,1355,1374,1395,1415,1434,1455,1474,1494,1513,1534,1554,1574,1594,1613,1634,1655,1674,1694,1714,1735,1755,1775,1794,1814,1834,1854,1873,1895],"xSR":741.5,"ySR":469.95,"xT1":424.9,"yT1":0,"xT2":1058.1,"yT2":0,"toosoon":0,"cond_shown":"Incongruent","ratio_trial":200,"L_num":4,"L_den":5,"R_num":6,"R_den":10,"correct_side":1,"subjID":"juanleonrodriguez17","gender":"0","school":"6","age":"11"},{"start_time":1551794146644,"click_time":1551794148248,"finger_time":1551794147728,"fix_duration":273.4359231891689,"trial":36,"RT":1084,"MT":520,"sideResp":1,"stimulus":[],"xmouse":[786,786,786,786,786,786,786,786,786,786,786,786,786,786,786,786,786,786,786,786,786,786,786,786,786,786,786,786,786,786,786,786,786,786,786,786,786,786,786,786,786,786,786,786,786,785,785,785,786,787,790,793,796,800,802,804,804,804,804,804,804,804,804,805,794,765,672,639,607,586,572,570,570,570,570,570,567,564,561,552,523],"ymouse":[515,515,515,515,515,515,515,515,515,515,515,515,515,515,515,515,515,515,515,515,515,515,515,515,515,515,515,515,515,515,515,515,515,515,514,512,509,509,509,509,509,509,509,509,507,505,503,502,500,495,487,482,476,471,465,452,445,440,434,431,423,418,413,408,392,372,327,313,300,291,279,264,243,206,189,152,117,108,103,92,61],"timestamp_mouse":[6,37,43,63,83,103,124,143,163,183,203,224,243,263,284,303,324,343,363,383,404,423,443,464,484,504,524,543,564,583,603,624,644,662,684,703,724,744,763,784,802,824,845,864,884,903,924,943,963,983,1005,1023,1043,1064,1084,1104,1122,1143,1164,1183,1204,1223,1244,1264,1283,1304,1323,1343,1364,1383,1404,1423,1443,1463,1483,1503,1523,1542,1563,1583,1604],"xSR":741.5,"ySR":469.95,"xT1":424.9,"yT1":0,"xT2":1058.1,"yT2":0,"toosoon":0,"cond_shown":"Incongruent","ratio_trial":300,"L_num":4,"L_den":20,"R_num":2,"R_den":4,"correct_side":2,"subjID":"juanleonrodriguez17","ge