[{"start_time":1551899677161,"click_time":1551899679295,"finger_time":1551899678514,"fix_duration":1161.4306011318129,"trial":0,"RT":1353,"MT":781,"sideResp":1,"stimulus":[],"xmouse":[798,798,798,798,798,798,798,798,798,798,798,798,798,798,798,798,798,798,798,798,798,798,798,798,798,798,798,798,798,798,798,798,798,798,798,798,798,798,798,798,798,798,798,798,797,797,797,797,797,797,797,797,797,797,797,797,797,797,797,797,797,797,797,797,796,796,805,815,840,847,851,852,852,852,852,852,850,842,780,724,632,466,265,265,265,265,265,265,265,265,265,265,265,265,297,328,343,349,353,354,354,354,376,394,408,421,429],"ymouse":[527,527,527,527,527,527,527,527,527,527,527,527,527,527,527,527,527,527,527,527,527,527,527,527,527,527,527,527,527,527,527,527,527,527,527,527,527,527,527,527,527,527,527,527,527,527,527,527,527,527,527,527,527,527,527,527,527,527,527,527,527,527,527,527,523,513,494,472,428,415,404,399,399,399,399,399,397,392,360,326,262,143,4,4,4,4,4,4,4,4,4,4,4,4,28,63,90,103,112,112,113,113,106,98,89,82,78],"timestamp_mouse":[14,40,54,73,94,114,134,154,175,193,214,233,254,273,294,314,333,353,374,393,414,433,454,474,494,514,533,553,573,593,615,633,653,673,694,713,734,754,774,793,813,834,853,873,894,914,934,954,975,995,1014,1034,1054,1074,1093,1115,1134,1154,1174,1193,1213,1234,1254,1273,1293,1313,1334,1353,1373,1394,1413,1433,1455,1474,1493,1513,1534,1555,1573,1595,1614,1633,1655,1675,1693,1714,1733,1755,1773,1795,1815,1834,1855,1874,1894,1915,1933,1954,1974,1995,2014,2034,2056,2074,2095,2114,2134],"xSR":741.5,"ySR":481,"xT1":424.9,"yT1":0,"xT2":1058.1,"yT2":0,"toosoon":0,"cond_shown":"Congruent","ratio_trial":100,"L_num":3,"L_den":6,"R_num":2,"R_den":5,"correct_side":1,"subjID":"JuanMorales26","gender":"0","age":"13","school":"sexto","test":{"fix_dur":[250,1500],"timestim":1000,"targets_dim":[100,100],"targets_relative_coord":[0.3,0.7],"size_stim":[880,420],"start_dim":[100,100],"size_start":[300,300],"size_fix":60,"samplingrate":20,"img_types":["Congruent","Incongruent"],"ratios":[100,200,300],"rep_conds":19,"nTrials":120,"trials_to_rest":500,"Trials_order":[42,27,28,94,78,50,38,100,10,21,66,61,70,59,1,9,19,81,40,30,89,93,63,118,80,20,77,62,76,8,74,85,13,53,98,11,54,105,108,3,71,46,95,110,60,117,25,82,114,12,67,92,90,64,65,29,45,106,88,16,23,2,52,87,75,68,83,18,5,15,102,73,7,41,79,48,36,26,101,33,99,4,111,6,104,24,34,69,112,0,57,58,35,32,97,39,56,96,91,84,47,22,43,49,107,17,119,44,86,113,55,51,109,31,115,72,37,116,14,103],"cond_shown":["Congruent","Incongruent","Congruent","Congruent","Congruent","Congruent","Congruent","Congruent","Congruent","Incongruent","Congruent","Incongruent","Congruent","Incongruent","Incongruent","Incongruent","Incongruent","Incongruent","Congruent","Congruent","Incongruent","Incongruent","Incongruent","Congruent","Congruent","Congruent","Incongruent","Congruent","Congruent","Congruent","Congruent","Incongruent","Incongruent","Incongruent","Congruent","Incongruent","Congruent","Incongruent","Congruent","Incongruent","Incongruent","Congruent","Incongruent","Congruent","Congruent","Incongruent","Incongruent","Congruent","Congruent","Congruent","Incongruent","Congruent","Congruent","Congruent","Incongruent","Incongruent","Incongruent","Congruent","Congruent","Congruent","Incongruent","Congruent","Congruent","Incongruent","Incongruent","Congruent","Incongruent","Congruent","Incongruent","Incongruent","Congruent","Incongruent","Incongruent","Incongruent","Incongruent","Congruent","Congruent","Congruent","Incongruent","Incongruent","Incongruent","Congruent","Incongruent","Congruent","Congruent","Congruent","Congruent","Incongruent","Congruent","Congruent","Incongruent","Congruent","Incongruent","Congruent","Incongruent","Incongruent","Congruent","Congruent","Incongruent","Congruent","Incongruent","Congruent","Incongruent","Incongruent","Incongruent","Incongruent","Incongruent","Congruent","Congruent","Incongruent","Incongruent","Incongruent","Incongruent","Incongruent","Incongruent","Congruent","Incongruent","Congruent","Congruent","Incongruent"],"ratio_trial":[100,200,300,300,100,200,200,300,300,200,100,100,300,300,100,200,100,200,300,100,300,200,200,300,200,200,300,200,300,200,200,100,100,300,200,300,100,200,100,200,300,300,300,200,100,200,100,300,100,100,100,200,100,300,300,300,200,300,300,300,300,200,300,200,200,200,300,100,300,200,100,100,100,300,100,100,100,200,300,200,200,300,200,100,200,100,300,200,300,100,200,300,300,200,100,200,200,100,100,100,300,300,100,100,300,300,300,200,200,300,100,200,100,100,100,100,100,200,200,100],"left_num":[3,7,11,11,3,3,1,5,5,7,6,17,7,13,11,11,13,7,1,9,4,7,7,24,3,21,2,6,5,15,3,12,9,1,12,13,4,14,3,9,4,5,7,8,4,7,12,20,11,11,9,3,1,8,8,13,14,3,20,11,4,7,7,4,9,3,8,9,4,7,6,6,11,3,3,7,7,3,2,3,9,24,1,4,9,8,11,9,4,1,4,20,8,4,3,14,3,10,4,7,4,20,10,6,13,3,8,1,15,4,3,4,6,2,6,6,12,6,13,6],"right_num":[2,6,4,1,2,7,21,6,7,12,15,10,20,12,9,3,12,8,19,8,2,8,4,8,7,2,6,7,7,4,9,2,6,2,6,12,6,6,2,8,2,7,8,3,15,6,2,14,6,6,6,7,3,10,9,12,6,4,13,1,6,18,20,14,8,11,9,8,2,4,5,13,9,4,11,15,9,14,6,1,8,2,3,6,4,2,4,8,13,3,6,5,14,3,4,12,7,3,8,9,2,14,9,11,12,4,14,21,4,2,11,6,11,6,11,5,2,11,14,11],"left_den":[6,15,22,22,6,10,2,25,25,10,12,30,14,26,22,20,26,10,3,15,20,10,15,30,10,30,4,12,25,25,12,30,18,2,20,26,8,30,6,15,20,25,10,15,10,15,30,25,22,22,18,10,2,15,10,26,30,6,25,22,5,15,14,6,15,10,10,15,20,15,20,10,22,6,5,14,14,6,4,10,15,30,2,8,20,16,22,15,20,2,5,25,10,10,6,30,10,25,8,14,20,25,25,10,26,6,10,2,25,20,5,5,10,4,10,20,30,20,26,10],"right_den":[5,9,20,5,5,14,30,12,14,24,25,15,25,15,15,4,20,16,30,16,4,16,6,16,14,4,30,10,14,10,20,4,10,10,15,15,10,9,5,10,4,14,20,9,30,9,4,28,15,15,10,14,5,12,18,15,9,5,26,5,12,27,25,30,10,22,18,16,4,6,25,26,15,20,22,25,15,20,30,2,10,4,10,10,16,5,20,10,26,5,10,10,28,15,10,18,14,10,20,15,4,28,18,22,15,20,28,30,10,4,22,10,22,15,22,25,4,22,20,22],"correct_side":[1,2,1,1,1,2,2,2,2,1,2,2,2,2,2,2,2,1,2,1,2,1,2,1,2,1,1,2,2,1,2,2,2,1,1,2,2,2,1,2,2,2,1,1,2,2,2,1,1,1,2,2,2,2,1,2,2,2,1,1,1,2,2,1,2,2,1,1,2,2,1,1,2,1,1,2,2,2,1,2,2,1,1,2,1,1,1,2,2,2,1,1,1,1,1,2,2,1,1,2,2,1,2,1,2,1,1,2,1,2,1,1,1,1,1,1,2,2,2,1],"img_shown":["img2/100/Congruent/L/C_Dist_100_LN_3_LD_6_RN_2_RD_5_0.png","img2/200/Incongruent/R/I_Dist_200_LN_7_LD_15_RN_6_RD_9_1.png","img2/300/Congruent/L/C_Dist_300_LN_11_LD_22_RN_4_RD_20_0.png","img2/300/Congruent/L/C_Dist_300_LN_11_LD_22_RN_1_RD_5_0.png","img2/100/Congruent/L/C_Dist_100_LN_3_LD_6_RN_2_RD_5_0.png","img2/200/Congruent/R/C_Dist_200_LN_3_LD_10_RN_7_RD_14_1.png","img2/200/Congruent/R/C_Dist_200_LN_1_LD_2_RN_21_RD_30_1.png","img2/300/Congruent/R/C_Dist_300_LN_5_LD_25_RN_6_RD_12_1.png","img2/300/Congruent/R/C_Dist_300_LN_5_LD_25_RN_7_RD_14_1.png","img2/200/Incongruent/L/I_Dist_200_LN_7_LD_10_RN_12_RD_24_0.png","img2/100/Congruent/R/C_Dist_100_LN_6_LD_12_RN_15_RD_25_1.png","img2/100/Incongruent/R/I_Dist_100_LN_17_LD_30_RN_10_RD_15_1.png","img2/300/Congruent/R/C_Dist_300_LN_7_LD_14_RN_20_RD_25_1.png","img2/300/Incongruent/R/I_Dist_300_LN_13_LD_26_RN_12_RD_15_1.png","img2/100/Incongruent/R/I_Dist_100_LN_11_LD_22_RN_9_RD_15_1.png","img2/200/Incongruent/R/I_Dist_200_LN_11_LD_20_RN_3_RD_4_1.png","img2/100/Incongruent/R/I_Dist_100_LN_13_LD_26_RN_12_RD_20_1.png","img2/200/Incongruent/L/I_Dist_200_LN_7_LD_10_RN_8_RD_16_0.png","img2/300/Congruent/R/C_Dist_300_LN_1_LD_3_RN_19_RD_30_1.png","img2/100/Congruent/L/C_Dist_100_LN_9_LD_15_RN_8_RD_16_0.png","img2/300/Incongruent/R/I_Dist_300_LN_4_LD_20_RN_2_RD_4_1.png","img2/200/Incongruent/L/I_Dist_200_LN_7_LD_10_RN_8_RD_16_0.png","img2/200/Incongruent/R/I_Dist_200_LN_7_LD_15_RN_4_RD_6_1.png","img2/300/Congruent/L/C_Dist_300_LN_24_LD_30_RN_8_RD_16_0.png","img2/200/Congruent/R/C_Dist_200_LN_3_LD_10_RN_7_RD_14_1.png","img2/200/Congruent/L/C_Dist_200_LN_21_LD_30_RN_2_RD_4_0.png","img2/300/Incongruent/L/I_Dist_300_LN_2_LD_4_RN_6_RD_30_0.png","img2/200/Congruent/R/C_Dist_200_LN_6_LD_12_RN_7_RD_10_1.png","img2/300/Congruent/R/C_Dist_300_LN_5_LD_25_RN_7_RD_14_1.png","img2/200/Congruent/L/C_Dist_200_LN_15_LD_25_RN_4_RD_10_0.png","img2/200/Congruent/R/C_Dist_200_LN_3_LD_12_RN_9_RD_20_1.png","img2/100/Incongruent/R/I_Dist_100_LN_12_LD_30_RN_2_RD_4_1.png","img2/100/Incongruent/R/I_Dist_100_LN_9_LD_18_RN_6_RD_10_1.png","img2/300/Incongruent/L/I_Dist_300_LN_1_LD_2_RN_2_RD_10_0.png","img2/200/Congruent/L/C_Dist_200_LN_12_LD_20_RN_6_RD_15_0.png","img2/300/Incongruent/R/I_Dist_300_LN_13_LD_26_RN_12_RD_15_1.png","img2/100/Congruent/R/C_Dist_100_LN_4_LD_8_RN_6_RD_10_1.png","img2/200/Incongruent/R/I_Dist_200_LN_14_LD_30_RN_6_RD_9_1.png","img2/100/Congruent/L/C_Dist_100_LN_3_LD_6_RN_2_RD_5_0.png","img2/200/Incongruent/R/I_Dist_200_LN_9_LD_15_RN_8_RD_10_1.png","img2/300/Incongruent/R/I_Dist_300_LN_4_LD_20_RN_2_RD_4_1.png","img2/300/Congruent/R/C_Dist_300_LN_5_LD_25_RN_7_RD_14_1.png","img2/300/Incongruent/L/I_Dist_300_LN_7_LD_10_RN_8_RD_20_0.png","img2/200/Congruent/L/C_Dist_200_LN_8_LD_15_RN_3_RD_9_0.png","img2/100/Congruent/R/C_Dist_100_LN_4_LD_10_RN_15_RD_30_1.png","img2/200/Incongruent/R/I_Dist_200_LN_7_LD_15_RN_6_RD_9_1.png","img2/100/Incongruent/R/I_Dist_100_LN_12_LD_30_RN_2_RD_4_1.png","img2/300/Congruent/L/C_Dist_300_LN_20_LD_25_RN_14_RD_28_0.png","img2/100/Congruent/L/C_Dist_100_LN_11_LD_22_RN_6_RD_15_0.png","img2/100/Congruent/L/C_Dist_100_LN_11_LD_22_RN_6_RD_15_0.png","img2/100/Incongruent/R/I_Dist_100_LN_9_LD_18_RN_6_RD_10_1.png","img2/200/Congruent/R/C_Dist_200_LN_3_LD_10_RN_7_RD_14_1.png","img2/100/Congruent/R/C_Dist_100_LN_1_LD_2_RN_3_RD_5_1.png","img2/300/Congruent/R/C_Dist_300_LN_8_LD_15_RN_10_RD_12_1.png","img2/300/Incongruent/L/I_Dist_300_LN_8_LD_10_RN_9_RD_18_0.png","img2/300/Incongruent/R/I_Dist_300_LN_13_LD_26_RN_12_RD_15_1.png","img2/200/Incongruent/R/I_Dist_200_LN_14_LD_30_RN_6_RD_9_1.png","img2/300/Congruent/R/C_Dist_300_LN_3_LD_6_RN_4_RD_5_1.png","img2/300/Congruent/L/C_Dist_300_LN_20_LD_25_RN_13_RD_26_0.png","img2/300/Congruent/L/C_Dist_300_LN_11_LD_22_RN_1_RD_5_0.png","img2/300/Incongruent/L/I_Dist_300_LN_4_LD_5_RN_6_RD_12_0.png","img2/200/Congruent/R/C_Dist_200_LN_7_LD_15_RN_18_RD_27_1.png","img2/300/Congruent/R/C_Dist_300_LN_7_LD_14_RN_20_RD_25_1.png","img2/200/Incongruent/L/I_Dist_200_LN_4_LD_6_RN_14_RD_30_0.png","img2/200/Incongruent/R/I_Dist_200_LN_9_LD_15_RN_8_RD_10_1.png","img2/200/Congruent/R/C_Dist_200_LN_3_LD_10_RN_11_RD_22_1.png","img2/300/Incongruent/L/I_Dist_300_LN_8_LD_10_RN_9_RD_18_0.png","img2/100/Congruent/L/C_Dist_100_LN_9_LD_15_RN_8_RD_16_0.png","img2/300/Incongruent/R/I_Dist_300_LN_4_LD_20_RN_2_RD_4_1.png","img2/200/Incongruent/R/I_Dist_200_LN_7_LD_15_RN_4_RD_6_1.png","img2/100/Congruent/L/C_Dist_100_LN_6_LD_20_RN_5_RD_25_0.png","img2/100/Incongruent/L/I_Dist_100_LN_6_LD_10_RN_13_RD_26_0.png","img2/100/Incongruent/R/I_Dist_100_LN_11_LD_22_RN_9_RD_15_1.png","img2/300/Incongruent/L/I_Dist_300_LN_3_LD_6_RN_4_RD_20_0.png","img2/100/Incongruent/L/I_Dist_100_LN_3_LD_5_RN_11_RD_22_0.png","img2/100/Congruent/R/C_Dist_100_LN_7_LD_14_RN_15_RD_25_1.png","img2/100/Congruent/R/C_Dist_100_LN_7_LD_14_RN_9_RD_15_1.png","img2/200/Congruent/R/C_Dist_200_LN_3_LD_6_RN_14_RD_20_1.png","img2/300/Incongruent/L/I_Dist_300_LN_2_LD_4_RN_6_RD_30_0.png","img2/200/Incongruent/R/I_Dist_200_LN_3_LD_10_RN_1_RD_2_1.png","img2/200/Incongruent/R/I_Dist_200_LN_9_LD_15_RN_8_RD_10_1.png","img2/300/Congruent/L/C_Dist_300_LN_24_LD_30_RN_2_RD_4_0.png","img2/200/Incongruent/L/I_Dist_200_LN_1_LD_2_RN_3_RD_10_0.png","img2/100/Congruent/R/C_Dist_100_LN_4_LD_8_RN_6_RD_10_1.png","img2/200/Congruent/L/C_Dist_200_LN_9_LD_20_RN_4_RD_16_0.png","img2/100/Congruent/L/C_Dist_100_LN_8_LD_16_RN_2_RD_5_0.png","img2/300/Congruent/L/C_Dist_300_LN_11_LD_22_RN_4_RD_20_0.png","img2/200/Incongruent/R/I_Dist_200_LN_9_LD_15_RN_8_RD_10_1.png","img2/300/Congruent/R/C_Dist_300_LN_4_LD_20_RN_13_RD_26_1.png","img2/100/Congruent/R/C_Dist_100_LN_1_LD_2_RN_3_RD_5_1.png","img2/200/Incongruent/L/I_Dist_200_LN_4_LD_5_RN_6_RD_10_0.png","img2/300/Congruent/L/C_Dist_300_LN_20_LD_25_RN_5_RD_10_0.png","img2/300/Incongruent/L/I_Dist_300_LN_8_LD_10_RN_14_RD_28_0.png","img2/200/Congruent/L/C_Dist_200_LN_4_LD_10_RN_3_RD_15_0.png","img2/100/Incongruent/L/I_Dist_100_LN_3_LD_6_RN_4_RD_10_0.png","img2/200/Incongruent/R/I_Dist_200_LN_14_LD_30_RN_12_RD_18_1.png","img2/200/Congruent/R/C_Dist_200_LN_3_LD_10_RN_7_RD_14_1.png","img2/100/Congruent/L/C_Dist_100_LN_10_LD_25_RN_3_RD_10_0.png","img2/100/Incongruent/L/I_Dist_100_LN_4_LD_8_RN_8_RD_20_0.png","img2/100/Congruent/R/C_Dist_100_LN_7_LD_14_RN_9_RD_15_1.png","img2/300/Incongruent/R/I_Dist_300_LN_4_LD_20_RN_2_RD_4_1.png","img2/300/Congruent/L/C_Dist_300_LN_20_LD_25_RN_14_RD_28_0.png","img2/100/Incongruent/R/I_Dist_100_LN_10_LD_25_RN_9_RD_18_1.png","img2/100/Incongruent/L/I_Dist_100_LN_6_LD_10_RN_11_RD_22_0.png","img2/300/Incongruent/R/I_Dist_300_LN_13_LD_26_RN_12_RD_15_1.png","img2/300/Incongruent/L/I_Dist_300_LN_3_LD_6_RN_4_RD_20_0.png","img2/300/Incongruent/L/I_Dist_300_LN_8_LD_10_RN_14_RD_28_0.png","img2/200/Congruent/R/C_Dist_200_LN_1_LD_2_RN_21_RD_30_1.png","img2/200/Congruent/L/C_Dist_200_LN_15_LD_25_RN_4_RD_10_0.png","img2/300/Incongruent/R/I_Dist_300_LN_4_LD_20_RN_2_RD_4_1.png","img2/100/Incongruent/L/I_Dist_100_LN_3_LD_5_RN_11_RD_22_0.png","img2/200/Incongruent/L/I_Dist_200_LN_4_LD_5_RN_6_RD_10_0.png","img2/100/Incongruent/L/I_Dist_100_LN_6_LD_10_RN_11_RD_22_0.png","img2/100/Incongruent/L/I_Dist_100_LN_2_LD_4_RN_6_RD_15_0.png","img2/100/Incongruent/L/I_Dist_100_LN_6_LD_10_RN_11_RD_22_0.png","img2/100/Congruent/L/C_Dist_100_LN_6_LD_20_RN_5_RD_25_0.png","img2/100/Incongruent/R/I_Dist_100_LN_12_LD_30_RN_2_RD_4_1.png","img2/200/Congruent/R/C_Dist_200_LN_6_LD_20_RN_11_RD_22_1.png","img2/200/Congruent/R/C_Dist_200_LN_13_LD_26_RN_14_RD_20_1.png","img2/100/Incongruent/L/I_Dist_100_LN_6_LD_10_RN_11_RD_22_0.png"],"dist100_C":[["C_Dist_100_LN_10_LD_25_RN_3_RD_10_0.png","C_Dist_100_LN_11_LD_22_RN_4_RD_10_0.png","C_Dist_100_LN_11_LD_22_RN_6_RD_15_0.png","C_Dist_100_LN_15_LD_25_RN_13_RD_26_0.png","C_Dist_100_LN_3_LD_6_RN_2_RD_5_0.png","C_Dist_100_LN_6_LD_20_RN_5_RD_25_0.png","C_Dist_100_LN_8_LD_16_RN_2_RD_5_0.png","C_Dist_100_LN_9_LD_15_RN_8_RD_16_0.png"],["C_Dist_100_LN_1_LD_2_RN_18_RD_30_1.png","C_Dist_100_LN_1_LD_2_RN_3_RD_5_1.png","C_Dist_100_LN_12_LD_30_RN_13_RD_26_1.png","C_Dist_100_LN_2_LD_5_RN_11_RD_22_1.png","C_Dist_100_LN_2_LD_5_RN_6_RD_12_1.png","C_Dist_100_LN_3_LD_20_RN_4_RD_16_1.png","C_Dist_100_LN_4_LD_10_RN_15_RD_30_1.png","C_Dist_100_LN_4_LD_8_RN_6_RD_10_1.png","C_Dist_100_LN_6_LD_12_RN_15_RD_25_1.png","C_Dist_100_LN_7_LD_14_RN_15_RD_25_1.png","C_Dist_100_LN_7_LD_14_RN_9_RD_15_1.png"]],"dist100_I":[["I_Dist_100_LN_1_LD_2_RN_8_RD_20_0.png","I_Dist_100_LN_2_LD_4_RN_6_RD_15_0.png","I_Dist_100_LN_2_LD_4_RN_8_RD_20_0.png","I_Dist_100_LN_3_LD_5_RN_11_RD_22_0.png","I_Dist_100_LN_3_LD_5_RN_8_RD_16_0.png","I_Dist_100_LN_3_LD_6_RN_4_RD_10_0.png","I_Dist_100_LN_3_LD_9_RN_7_RD_30_0.png","I_Dist_100_LN_4_LD_8_RN_8_RD_20_0.png","I_Dist_100_LN_6_LD_10_RN_11_RD_22_0.png","I_Dist_100_LN_6_LD_10_RN_13_RD_26_0.png","I_Dist_100_LN_6_LD_10_RN_7_RD_14_0.png","I_Dist_100_LN_9_LD_10_RN_20_RD_25_0.png","I_Dist_100_LN_9_LD_15_RN_13_RD_26_0.png","I_Dist_100_LN_9_LD_15_RN_14_RD_28_0.png"],["I_Dist_100_LN_10_LD_25_RN_8_RD_16_1.png","I_Dist_100_LN_10_LD_25_RN_9_RD_18_1.png","I_Dist_100_LN_11_LD_22_RN_9_RD_15_1.png","I_Dist_100_LN_12_LD_24_RN_9_RD_15_1.png","I_Dist_100_LN_12_LD_30_RN_2_RD_4_1.png","I_Dist_100_LN_13_LD_26_RN_12_RD_20_1.png","I_Dist_100_LN_13_LD_26_RN_6_RD_10_1.png","I_Dist_100_LN_17_LD_30_RN_10_RD_15_1.png","I_Dist_100_LN_6_LD_12_RN_3_RD_5_1.png","I_Dist_100_LN_8_LD_16_RN_6_RD_10_1.png","I_Dist_100_LN_8_LD_20_RN_1_RD_2_1.png","I_Dist_100_LN_9_LD_18_RN_6_RD_10_1.png"]],"dist100_S":[["E_Dist_100_LN_2_LD_12_RN_2_RD_30_0.png","E_Dist_100_LN_6_LD_10_RN_6_RD_12_0.png"],["E_Dist_100_LN_6_LD_12_RN_6_RD_10_1.png"]],"dist200_C":[["C_Dist_200_LN_11_LD_22_RN_3_RD_10_0.png","C_Dist_200_LN_12_LD_15_RN_6_RD_10_0.png","C_Dist_200_LN_12_LD_20_RN_6_RD_15_0.png","C_Dist_200_LN_14_LD_28_RN_6_RD_20_0.png","C_Dist_200_LN_15_LD_25_RN_4_RD_10_0.png","C_Dist_200_LN_16_LD_20_RN_12_RD_20_0.png","C_Dist_200_LN_16_LD_30_RN_9_RD_27_0.png","C_Dist_200_LN_20_LD_25_RN_9_RD_15_0.png","C_Dist_200_LN_21_LD_30_RN_2_RD_4_0.png","C_Dist_200_LN_4_LD_10_RN_3_RD_15_0.png","C_Dist_200_LN_4_LD_8_RN_3_RD_10_0.png","C_Dist_200_LN_6_LD_15_RN_3_RD_15_0.png","C_Dist_200_LN_7_LD_21_RN_2_RD_15_0.png","C_Dist_200_LN_8_LD_15_RN_2_RD_6_0.png","C_Dist_200_LN_8_LD_15_RN_3_RD_9_0.png","C_Dist_200_LN_8_LD_15_RN_7_RD_21_0.png","C_Dist_200_LN_9_LD_20_RN_4_RD_16_0.png"],["C_Dist_200_LN_1_LD_2_RN_21_RD_30_1.png","C_Dist_200_LN_13_LD_26_RN_14_RD_20_1.png","C_Dist_200_LN_3_LD_10_RN_11_RD_22_1.png","C_Dist_200_LN_3_LD_10_RN_14_RD_28_1.png","C_Dist_200_LN_3_LD_10_RN_7_RD_14_1.png","C_Dist_200_LN_3_LD_12_RN_9_RD_20_1.png","C_Dist_200_LN_3_LD_6_RN_14_RD_20_1.png","C_Dist_200_LN_5_LD_10_RN_14_RD_20_1.png","C_Dist_200_LN_6_LD_12_RN_7_RD_10_1.png","C_Dist_200_LN_6_LD_20_RN_11_RD_22_1.png","C_Dist_200_LN_7_LD_15_RN_18_RD_27_1.png","C_Dist_200_LN_9_LD_30_RN_13_RD_26_1.png"]],"dist200_I":[["I_Dist_200_LN_1_LD_2_RN_3_RD_10_0.png","I_Dist_200_LN_1_LD_3_RN_2_RD_15_0.png","I_Dist_200_LN_3_LD_4_RN_11_RD_20_0.png","I_Dist_200_LN_4_LD_5_RN_6_RD_10_0.png","I_Dist_200_LN_4_LD_6_RN_14_RD_30_0.png","I_Dist_200_LN_7_LD_10_RN_12_RD_24_0.png","I_Dist_200_LN_7_LD_10_RN_14_RD_28_0.png","I_Dist_200_LN_7_LD_10_RN_8_RD_16_0.png"],["I_Dist_200_LN_11_LD_20_RN_3_RD_4_1.png","I_Dist_200_LN_14_LD_30_RN_12_RD_18_1.png","I_Dist_200_LN_14_LD_30_RN_6_RD_9_1.png","I_Dist_200_LN_3_LD_10_RN_1_RD_2_1.png","I_Dist_200_LN_4_LD_30_RN_1_RD_3_1.png","I_Dist_200_LN_6_LD_20_RN_3_RD_6_1.png","I_Dist_200_LN_7_LD_15_RN_4_RD_6_1.png","I_Dist_200_LN_7_LD_15_RN_6_RD_9_1.png","I_Dist_200_LN_9_LD_15_RN_8_RD_10_1.png"]],"dist200_S":[["E_Dist_200_LN_3_LD_6_RN_3_RD_10_0.png"],["E_Dist_200_LN_3_LD_10_RN_3_RD_6_1.png"]],"dist300_C":[["C_Dist_300_LN_11_LD_22_RN_1_RD_5_0.png","C_Dist_300_LN_11_LD_22_RN_2_RD_10_0.png","C_Dist_300_LN_11_LD_22_RN_4_RD_20_0.png","C_Dist_300_LN_12_LD_24_RN_2_RD_10_0.png","C_Dist_300_LN_18_LD_20_RN_9_RD_15_0.png","C_Dist_300_LN_20_LD_25_RN_13_RD_26_0.png","C_Dist_300_LN_20_LD_25_RN_14_RD_28_0.png","C_Dist_300_LN_20_LD_25_RN_5_RD_10_0.png","C_Dist_300_LN_20_LD_25_RN_8_RD_16_0.png","C_Dist_300_LN_20_LD_25_RN_9_RD_18_0.png","C_Dist_300_LN_24_LD_30_RN_2_RD_4_0.png","C_Dist_300_LN_24_LD_30_RN_8_RD_16_0.png","C_Dist_300_LN_3_LD_6_RN_2_RD_10_0.png","C_Dist_300_LN_4_LD_10_RN_1_RD_10_0.png","C_Dist_300_LN_4_LD_5_RN_2_RD_4_0.png","C_Dist_300_LN_8_LD_16_RN_1_RD_5_0.png","C_Dist_300_LN_9_LD_10_RN_3_RD_5_0.png"],["C_Dist_300_LN_1_LD_20_RN_7_RD_20_1.png","C_Dist_300_LN_1_LD_3_RN_19_RD_30_1.png","C_Dist_300_LN_1_LD_30_RN_8_RD_24_1.png","C_Dist_300_LN_1_LD_5_RN_11_RD_22_1.png","C_Dist_300_LN_1_LD_5_RN_3_RD_6_1.png","C_Dist_300_LN_1_LD_5_RN_6_RD_12_1.png","C_Dist_300_LN_2_LD_10_RN_12_RD_24_1.png","C_Dist_300_LN_2_LD_20_RN_10_RD_25_1.png","C_Dist_300_LN_3_LD_12_RN_11_RD_20_1.png","C_Dist_300_LN_3_LD_6_RN_4_RD_5_1.png","C_Dist_300_LN_4_LD_20_RN_13_RD_26_1.png","C_Dist_300_LN_5_LD_25_RN_6_RD_12_1.png","C_Dist_300_LN_5_LD_25_RN_7_RD_14_1.png","C_Dist_300_LN_7_LD_14_RN_20_RD_25_1.png","C_Dist_300_LN_8_LD_15_RN_10_RD_12_1.png"]],"dist300_I":[["I_Dist_300_LN_1_LD_2_RN_2_RD_10_0.png","I_Dist_300_LN_1_LD_2_RN_3_RD_15_0.png","I_Dist_300_LN_2_LD_4_RN_6_RD_30_0.png","I_Dist_300_LN_3_LD_6_RN_4_RD_20_0.png","I_Dist_300_LN_4_LD_5_RN_6_RD_12_0.png","I_Dist_300_LN_4_LD_5_RN_8_RD_16_0.png","I_Dist_300_LN_7_LD_10_RN_8_RD_20_0.png","I_Dist_300_LN_8_LD_10_RN_14_RD_28_0.png","I_Dist_300_LN_8_LD_10_RN_9_RD_18_0.png"],["I_Dist_300_LN_13_LD_26_RN_12_RD_15_1.png","I_Dist_300_LN_4_LD_20_RN_2_RD_4_1.png"]],"dist300_S":[["E_Dist_300_LN_9_LD_12_RN_9_RD_20_0.png"],["E_Dist_300_LN_18_LD_30_RN_18_RD_20_1.png","E_Dist_300_LN_3_LD_10_RN_3_RD_5_1.png","E_Dist_300_LN_9_LD_20_RN_9_RD_12_1.png"]],"dist500_C":[["C_Dist_500_LN_10_LD_13_RN_7_RD_26_0.png","C_Dist_500_LN_10_LD_15_RN_4_RD_24_0.png","C_Dist_500_LN_12_LD_16_RN_3_RD_12_0.png","C_Dist_500_LN_12_LD_18_RN_4_RD_24_0.png","C_Dist_500_LN_15_LD_18_RN_5_RD_15_0.png","C_Dist_500_LN_15_LD_20_RN_1_RD_4_0.png","C_Dist_500_LN_18_LD_27_RN_1_RD_6_0.png","C_Dist_500_LN_20_LD_24_RN_1_RD_3_0.png","C_Dist_500_LN_20_LD_24_RN_3_RD_9_0.png","C_Dist_500_LN_20_LD_24_RN_7_RD_21_0.png","C_Dist_500_LN_20_LD_28_RN_3_RD_14_0.png","C_Dist_500_LN_21_LD_28_RN_6_RD_24_0.png","C_Dist_500_LN_22_LD_28_RN_2_RD_7_0.png","C_Dist_500_LN_25_LD_30_RN_9_RD_27_0.png","C_Dist_500_LN_4_LD_6_RN_1_RD_6_0.png","C_Dist_500_LN_5_LD_6_RN_2_RD_6_0.png","C_Dist_500_LN_6_LD_9_RN_1_RD_6_0.png","C_Dist_500_LN_7_LD_10_RN_1_RD_5_0.png","C_Dist_500_LN_8_LD_12_RN_1_RD_6_0.png","C_Dist_500_LN_8_LD_12_RN_4_RD_24_0.png"],["C_Dist_500_LN_1_LD_4_RN_12_RD_16_1.png","C_Dist_500_LN_1_LD_4_RN_9_RD_12_1.png","C_Dist_500_LN_1_LD_9_RN_11_RD_18_1.png","C_Dist_500_LN_10_LD_24_RN_22_RD_24_1.png","C_Dist_500_LN_2_LD_12_RN_10_RD_15_1.png","C_Dist_500_LN_2_LD_12_RN_12_RD_18_1.png","C_Dist_500_LN_2_LD_12_RN_4_RD_6_1.png","C_Dist_500_LN_2_LD_24_RN_7_RD_12_1.png","C_Dist_500_LN_2_LD_5_RN_18_RD_20_1.png","C_Dist_500_LN_2_LD_5_RN_9_RD_10_1.png","C_Dist_500_LN_2_LD_8_RN_12_RD_16_1.png","C_Dist_500_LN_2_LD_8_RN_21_RD_28_1.png","C_Dist_500_LN_3_LD_10_RN_4_RD_5_1.png","C_Dist_500_LN_3_LD_12_RN_15_RD_20_1.png","C_Dist_500_LN_3_LD_30_RN_6_RD_10_1.png","C_Dist_500_LN_3_LD_8_RN_14_RD_16_1.png","C_Dist_500_LN_4_LD_16_RN_15_RD_20_1.png","C_Dist_500_LN_4_LD_24_RN_12_RD_18_1.png","C_Dist_500_LN_5_LD_14_RN_6_RD_7_1.png","C_Dist_500_LN_7_LD_21_RN_20_RD_24_1.png","C_Dist_500_LN_7_LD_28_RN_12_RD_16_1.png","C_Dist_500_LN_7_LD_28_RN_9_RD_12_1.png","C_Dist_500_LN_9_LD_27_RN_20_RD_24_1.png"]],"dist500_I":[["I_Dist_500_LN_2_LD_3_RN_4_RD_24_0.png","I_Dist_500_LN_5_LD_6_RN_6_RD_18_0.png","I_Dist_500_LN_7_LD_8_RN_9_RD_24_0.png"],["I_Dist_500_LN_7_LD_21_RN_5_RD_6_1.png"]],"dist500_S":[["E_Dist_500_LN_6_LD_8_RN_6_RD_24_0.png"],["E_Dist_500_LN_2_LD_12_RN_2_RD_3_1.png","E_Dist_500_LN_6_LD_24_RN_6_RD_8_1.png"]]}},{"start_time":1551899682296,"click_time":1551899683515,"finger_time":1551899682815,"fix_duration":698.1863669736002,"trial":1,"RT":519,"MT":700,"sideResp":1,"stimulus":[],"xmouse":[742,742,742,742,742,742,742,742,742,742,742,742,742,742,742,742,742,742,742,742,742,742,742,742,742,742,736,663,590,544,523,514,506,506,506,506,506,506,506,507,513,521,542,545,547,548,549,549,549,545,532,521,505,501,500,500,499,498,498,498,499,499],"ymouse":[515,515,515,515,515,515,515,515,515,515,515,515,515,515,515,515,515,515,515,515,515,515,515,515,515,515,508,386,302,244,209,184,162,161,161,161,161,161,161,162,169,179,199,204,207,209,209,209,209,206,192,180,156,141,134,128,121,118,116,110,101,87],"timestamp_mouse":[1,19,38,66,79,100,119,139,160,179,198,220,239,258,278,299,319,340,359,379,399,418,438,459,479,499,519,539,559,579,599,618,638,658,678,698,719,739,758,779,799,819,839,859,879,900,919,938,959,978,999,1018,1038,1060,1078,1099,1119,1140,1159,1179,1199,1218],"xSR":741.5,"ySR":481,"xT1":424.9,"yT1":0,"xT2":1058.1,"yT2":0,"toosoon":0,"cond_shown":"Incongruent","ratio_trial":200,"L_num":7,"L_den":15,"R_num":6,"R_den":9,"correct_side":2,"subjID":"JuanMorales26","gender":"0","school":"sexto","age":"13"},{"start_time":1551899684950,"click_time":1551899686895,"finger_time":1551899685214,"fix_duration":314.5224187145318,"trial":2,"RT":264,"MT":1681,"sideResp":1,"stimulus":[],"xmouse":[792,792,792,792,792,792,792,792,792,792,792,795,797,799,802,805,811,817,823,829,842,853,863,871,885,891,895,897,900,903,905,905,905,905,905,905,905,905,905,904,895,892,892,891,891,891,891,891,888,871,854,836,823,814,805,803,801,800,799,797,797,796,796,795,794,794,794,794,794,793,793,793,793,793,792,791,791,774,752,621,507,498,496,495,492,490,489,488,487,486,486,484,484,483,479,477,474,470],"ymouse":[506,506,506,506,506,506,506,506,506,506,506,494,481,468,443,433,423,414,406,398,388,384,378,374,359,352,346,343,340,337,335,334,334,334,334,334,334,334,334,336,340,342,342,343,343,343,344,345,350,379,404,429,450,467,487,492,496,498,500,503,504,506,507,508,509,510,510,510,511,512,512,513,513,513,514,515,515,513,500,426,344,327,318,310,290,279,270,256,252,227,213,200,185,171,146,131,115,95],"timestamp_mouse":[10,37,44,65,85,105,125,145,165,185,204,225,245,264,285,305,325,344,364,385,404,424,445,465,486,506,524,544,565,585,606,625,644,665,685,704,724,744,764,785,806,826,845,864,885,905,925,945,965,985,1005,1024,1044,1064,1085,1105,1125,1144,1164,1184,1204,1224,1244,1265,1286,1305,1325,1345,1364,1384,1405,1425,1446,1464,1484,1505,1525,1544,1564,1585,1605,1624,1645,1664,1686,1704,1724,1744,1764,1785,1804,1824,1845,1864,1886,1904,1924,1944],"xSR":741.5,"ySR":481,"xT1":424.9,"yT1":0,"xT2":1058.1,"yT2":0,"toosoon":0,"cond_shown":"Congruent","ratio_trial":300,"L_num":11,"L_den":22,"R_num":4,"R_den":20,"correct_side":1,"subjID":"JuanMorales26","gender":"0","school":"sexto","age":"13"},{"start_time":1551899688038,"click_time":1551899693716,"finger_time":1551899693135,"fix_duration":262.9840549025506,"trial":3,"RT":5097,"MT":581,"sideResp":1,"stimulus":[],"xmouse":[812,812,812,812,812,812,812,812,812,812,812,812,812,812,812,812,812,812,812,812,812,812,812,812,812,812,812,812,812,812,812,812,812,812,812,812,812,812,812,812,812,812,812,812,812,812,812,812,812,812,812,812,812,812,812,812,812,812,812,812,812,812,812,812,812,812,812,812,812,812,812,812,812,812,812,812,813,813,813,813,813,813,813,813,813,813,813,813,813,813,813,813,813,813,813,813,813,815,816,816,816,816,816,816,815,815,815,815,815,815,813,811,810,810,810,810,810,810,810,810,809,808,808,808,807,807,807,807,807,807,807,807,807,807,807,807,807,807,807,807,807,807,807,807,807,807,807,807,807,807,807,807,807,807,807,807,807,807,807,807,807,807,807,807,807,806,805,804,804,804,803,803,803,803,803,802,802,801,801,801,801,801,801,801,801,801,801,801,801,801,801,801,801,801,801,801,801,801,801,801,801,801,801,801,801,801,801,801,801,801,801,801,801,801,801,801,801,801,801,801,801,801,801,801,801,801,801,801,801,801,801,801,801,801,801,783,774,772,771,770,768,765,765,765,765,764,763,762,761,761,756,752,749,746,738,722,714,703,692,670,626,599,588,580,574,560,555,554,553,552,551,550,550,550,550,550,550,550,550,550,550,547,529,512],"ymouse":[536,536,536,536,536,536,536,536,536,536,536,536,536,536,536,536,536,536,536,536,536,536,536,536,536,536,536,536,536,536,536,536,536,536,536,536,536,536,536,536,536,536,536,536,536,536,536,536,536,536,536,536,536,536,536,536,536,536,536,536,536,536,536,536,536,536,536,536,536,536,536,536,536,536,536,536,536,536,536,536,536,536,536,536,536,536,536,536,536,536,536,536,536,536,536,536,536,538,540,540,540,540,540,540,540,540,540,540,540,540,540,540,540,540,540,540,540,540,540,540,540,541,541,541,541,541,541,541,541,541,541,541,541,541,541,541,541,541,541,541,541,541,541,541,541,541,541,541,541,541,541,541,541,541,541,541,541,541,541,541,541,541,541,541,541,541,541,541,541,541,541,541,541,541,541,541,541,541,541,541,541,541,541,541,541,541,541,541,541,541,541,541,541,541,541,541,541,541,541,541,541,541,541,541,541,541,541,541,541,541,541,541,541,541,541,541,541,541,541,541,541,541,541,541,541,541,541,541,541,541,541,541,541,541,541,550,553,555,555,556,556,558,558,558,559,559,559,559,557,556,541,530,519,507,488,457,436,409,377,328,260,221,203,185,170,139,126,119,114,111,102,100,100,100,100,100,100,100,100,100,100,97,90,79],"timestamp_mouse":[17,38,57,78,96,117,137,157,176,197,217,236,257,277,297,318,336,357,377,397,416,436,456,477,498,516,536,556,577,597,617,637,657,677,696,717,737,757,777,797,817,837,857,876,896,917,936,956,977,997,1017,1037,1056,1077,1098,1117,1137,1157,1178,1198,1218,1237,1256,1278,1298,1317,1338,1356,1376,1398,1416,1438,1456,1476,1497,1517,1537,1556,1576,1597,1618,1636,1656,1677,1697,1718,1737,1757,1777,1797,1817,1836,1857,1876,1897,1917,1936,1957,1978,1996,2016,2036,2056,2077,2097,2117,2137,2157,2178,2196,2216,2237,2258,2277,2296,2316,2336,2357,2377,2397,2417,2436,2457,2477,2496,2517,2536,2556,2578,2597,2618,2638,2656,2677,2697,2717,2736,2757,2776,2797,2817,2837,2858,2876,2896,2916,2936,2956,2976,2997,3018,3037,3058,3077,3097,3118,3137,3156,3177,3197,3218,3236,3256,3276,3298,3317,3337,3356,3376,3397,3417,3436,3457,3477,3497,3518,3537,3556,3577,3597,3617,3637,3657,3677,3697,3716,3737,3756,3776,3796,3818,3837,3856,3877,3898,3918,3936,3957,3977,3997,4018,4037,4058,4078,4096,4116,4137,4157,4177,4197,4223,4236,4257,4278,4296,4318,4337,4356,4376,4396,4416,4437,4456,4476,4497,4518,4536,4557,4577,4596,4616,4637,4657,4677,4696,4717,4736,4756,4776,4796,4816,4836,4856,4877,4897,4917,4937,4956,4976,4997,5017,5036,5057,5077,5097,5117,5138,5156,5177,5197,5217,5237,5256,5277,5296,5317,5337,5357,5376,5398,5417,5437,5457,5476,5496,5517,5537,5557,5577,5596,5617,5638,5656,5678],"xSR":741.5,"ySR":481,"xT1":424.9,"yT1":0,"xT2":1058.1,"yT2":0,"toosoon":0,"cond_shown":"Congruent","ratio_trial":300,"L_num":11,"L_den":22,"R_num":1,"R_den":5,"correct_side":1,"subjID":"JuanMorales26","gender":"0","school":"sexto","age":"13"},{"start_time":1551899697347,"click_time":1551899700315,"finger_time":1551899699414,"fix_duration":1011.1308379646994,"trial":4,"RT":2067,"MT":901,"sideResp":2,"stimulus":[],"xmouse":[773,773,773,773,773,773,773,773,773,773,773,773,773,773,773,773,773,773,773,773,773,773,773,773,773,773,773,773,773,773,773,773,773,773,773,773,773,773,773,773,773,773,773,773,773,773,773,773,773,773,773,773,773,773,773,773,773,773,773,773,773,773,773,773,773,773,773,773,773,773,773,773,773,773,773,773,773,773,773,773,773,773,773,773,773,773,773,773,773,773,773,773,773,773,773,773,773,773,773,771,770,760,752,739,732,727,724,724,724,724,725,735,738,743,746,751,756,761,767,772,776,787,801,810,825,839,863,877,894,914,944,1015,1031,1031,1031,1031,1031,1031,1031,1031,1031,1031,1031,1031,1031,1031,1031,1031,1079],"ymouse":[565,565,565,565,565,565,565,565,565,565,565,565,565,565,565,565,565,565,565,565,565,565,565,565,565,565,565,565,565,565,565,565,565,565,565,565,565,565,565,565,565,565,565,565,565,565,565,565,565,565,565,565,565,565,565,565,565,565,565,565,565,565,565,565,565,565,565,565,565,565,565,565,565,565,565,565,565,565,565,565,565,565,565,565,565,565,565,565,565,565,565,565,565,565,565,565,565,565,565,563,561,548,538,521,512,503,495,490,484,478,473,458,454,446,441,434,422,414,402,391,379,352,327,312,292,272,237,219,196,173,136,35,13,13,13,13,13,13,13,13,13,13,13,13,13,13,13,13,10],"timestamp_mouse":[12,39,49,68,88,109,128,149,168,189,207,228,248,267,287,308,328,348,367,388,408,429,449,468,488,508,528,548,567,588,608,628,648,667,688,707,728,747,768,788,808,828,849,867,888,907,928,948,968,988,1009,1027,1047,1067,1088,1109,1128,1147,1168,1187,1208,1229,1248,1269,1288,1308,1328,1348,1368,1387,1408,1429,1448,1467,1488,1508,1528,1548,1568,1588,1608,1628,1648,1668,1688,1707,1729,1749,1769,1787,1807,1829,1848,1868,1888,1908,1928,1947,1967,1988,2007,2027,2047,2067,2088,2108,2128,2148,2167,2188,2208,2228,2248,2268,2288,2308,2328,2347,2368,2388,2407,2427,2448,2467,2488,2508,2528,2548,2568,2588,2608,2627,2648,2668,2688,2708,2728,2748,2767,2787,2807,2828,2848,2867,2888,2907,2929,2948,2968],"xSR":741.5,"ySR":481,"xT1":424.9,"yT1":0,"xT2":1058.1,"yT2":0,"toosoon":0,"cond_shown":"Congruent","ratio_trial":100,"L_num":3,"L_den":6,"R_num":2,"R_den":5,"correct_side":1,"subjID":"JuanMorales26","gender":"0","school":"sexto","age":"13"},{"start_time":1551899702066,"click_time":1551899704136,"finger_time":1551899702275,"fix_duration":629.8567463169296,"trial":5,"RT":209,"MT":1861,"sideResp":2,"stimulus":[],"xmouse":[762,762,762,762,762,764,766,767,769,771,777,779,781,782,784,786,797,804,813,826,857,876,894,910,922,935,936,936,936,936,936,936,936,936,936,936,936,919,866,787,668,640,624,620,619,619,619,619,619,619,619,634,642,655,676,740,759,767,769,770,770,774,776,779,780,781,781,781,781,781,781,781,781,781,781,782,786,790,798,805,812,831,843,853,864,871,879,884,887,894,899,920,931,944,958,970,986,993,999,1006,1027,1043,1053,1064],"ymouse":[520,516,514,512,510,506,502,499,494,488,474,466,461,455,451,446,429,419,408,397,372,359,347,335,326,314,312,312,312,311,311,311,311,311,311,311,311,310,320,344,407,425,435,438,439,439,439,439,439,443,447,475,487,505,527,573,584,588,589,590,590,588,586,582,578,569,566,564,563,563,563,563,563,563,563,557,549,542,533,525,514,480,459,437,400,373,315,289,260,223,182,103,72,44,24,10,5,4,3,3,3,3,3,6],"timestamp_mouse":[12,29,48,69,90,109,129,149,169,189,209,230,249,268,288,309,329,349,369,389,409,428,450,469,489,509,528,550,569,590,608,628,648,668,689,709,729,749,768,788,809,828,848,869,889,910,928,948,968,989,1008,1029,1050,1069,1088,1109,1129,1148,1168,1188,1209,1228,1250,1269,1289,1309,1329,1349,1368,1389,1408,1428,1450,1468,1488,1509,1529,1548,1569,1589,1609,1628,1649,1669,1689,1709,1728,1749,1769,1789,1809,1829,1849,1869,1888,1909,1928,1948,1969,1989,2010,2028,2048,2070],"xSR":741.5,"ySR":481,"xT1":424.9,"yT1":0,"xT2":1058.1,"yT2":0,"toosoon":0,"cond_shown":"Congruent","ratio_trial":200,"L_num":3,"L_den":10,"R_num":7,"R_den":14,"correct_side":2,"subjID":"JuanMorales26","gender":"0","school":"sexto","age":"13"},{"start_time":1551899710826,"click_time":1551899712975,"finger_time":1551899711395,"fix_duration":710.4946383379513,"trial":6,"RT":569,"MT":1580,"sideResp":2,"stimulus":[],"xmouse":[782,782,782,782,782,782,782,782,782,782,782,782,782,782,782,782,782,782,782,782,782,782,782,782,782,782,793,809,882,908,913,913,913,913,913,913,913,913,913,913,913,913,913,908,908,916,923,927,928,928,928,928,928,928,928,930,931,932,932,932,932,932,932,932,932,932,932,932,932,932,932,932,932,932,932,932,932,932,932,931,926,915,893,851,822,820,820,820,820,821,825,834,846,853,881,897,912,931,964,974,984,997,1020,1030,1044,1048,1053,1059],"ymouse":[551,551,551,551,551,551,551,551,551,551,551,551,551,551,551,551,551,551,551,551,551,551,551,551,551,551,530,510,355,250,170,127,123,123,123,123,123,123,123,123,123,123,123,206,269,314,336,343,345,345,345,345,345,345,345,345,343,342,342,342,342,342,342,342,342,342,342,342,342,342,342,342,342,342,342,342,342,342,342,341,338,330,321,306,300,300,300,300,300,299,299,297,296,294,286,281,273,264,239,222,195,161,116,95,64,54,44,35],"timestamp_mouse":[9,43,49,69,88,110,129,148,168,188,210,230,249,268,289,309,329,349,369,390,408,428,449,470,489,509,529,549,568,588,608,629,649,669,688,709,729,749,769,790,809,829,849,869,890,909,929,949,969,989,1010,1028,1048,1069,1089,1109,1129,1149,1169,1189,1209,1229,1248,1269,1289,1308,1328,1348,1369,1389,1409,1429,1448,1469,1488,1509,1530,1550,1569,1589,1609,1628,1648,1669,1689,1710,1729,1749,1769,1788,1810,1829,1849,1869,1888,1909,1929,1949,1970,1988,2010,2028,2049,2069,2088,2109,2129,2149],"xSR":741.5,"ySR":481,"xT1":424.9,"yT1":0,"xT2":1058.1,"yT2":0,"toosoon":0,"cond_shown":"Congruent","ratio_trial":200,"L_num":1,"L_den":2,"R_num":21,"R_den":30,"correct_side":2,"subjID":"JuanMorales26","gender":"0","school":"sexto","age":"13"},{"start_time":1551899714447,"click_time":1551899716474,"finger_time":1551899715975,"fix_duration":250,"trial":7,"RT":1528,"MT":499,"sideResp":1,"stimulus":[],"xmouse":[788,788,788,788,788,788,788,788,788,788,788,788,788,788,788,788,788,788,788,788,788,788,788,788,788,788,788,788,788,788,788,788,788,788,788,788,788,788,788,788,788,788,788,788,788,788,788,788,788,788,788,788,788,788,788,788,788,788,788,788,788,788,788,788,788,788,788,788,788,788,788,788,788,788,783,773,725,666,582,561,558,558,555,551,547,544,541,540,534,525,520,516,512,507,505,503,500,498,493,492,490,487],"ymouse":[541,541,541,541,541,541,541,541,541,541,541,541,541,541,541,541,541,541,541,541,541,541,541,541,541,541,541,541,541,541,541,541,541,541,541,541,541,541,541,541,541,541,541,541,541,541,541,541,541,541,541,541,541,541,541,541,541,541,541,541,541,541,541,541,541,541,541,541,541,541,541,541,541,541,542,542,530,513,480,460,451,443,426,413,402,389,379,369,339,310,293,277,264,244,229,215,198,182,148,131,117,94],"timestamp_mouse":[8,28,48,67,88,108,129,147,167,187,208,228,248,267,288,307,327,348,367,389,407,429,449,467,487,509,528,547,568,589,608,627,647,668,687,707,727,747,768,787,808,827,847,868,889,907,929,948,967,987,1007,1028,1049,1067,1088,1108,1128,1148,1167,1188,1207,1228,1248,1268,1288,1308,1328,1348,1369,1387,1407,1428,1448,1467,1488,1508,1528,1548,1568,1588,1608,1628,1649,1667,1688,1708,1728,1748,1767,1787,1807,1829,1848,1868,1888,1908,1929,1948,1967,1988,2008,2027],"xSR":741.5,"ySR":481,"xT1":424.9,"yT1":0,"xT2":1058.1,"yT2":0,"toosoon":0,"cond_shown":"Congruent","ratio_trial":300,"L_num":5,"L_den":25,"R_num":6,"R_den":12,"correct_side":2,"subjID":"JuanMorales26","gender":"0","school":"sexto","age":"13"},{"start_time":1551899718067,"click_time":1551899720094,"finger_time":1551899719655,"fix_duration":250,"trial":8,"RT":1588,"MT":439,"sideResp":2,"stimulus":[],"xmouse":[799,799,799,799,799,799,799,799,799,799,799,799,799,799,799,799,799,799,799,799,799,799,799,799,799,799,799,799,799,799,799,796,794,794,794,793,793,793,793,792,792,792,792,792,792,792,792,792,792,792,792,792,792,792,792,792,792,792,792,792,792,792,792,792,792,792,792,792,792,791,789,784,773,773,773,773,773,780,799,821,842,864,881,910,922,933,942,966,970,975,980,983,992,997,1004,1012,1021,1030,1050,1056,1061,1066],"ymouse":[522,522,522,522,522,522,522,522,522,522,522,522,522,522,522,522,522,522,522,522,522,522,522,522,522,522,522,522,522,522,522,522,522,522,522,522,522,522,522,522,522,522,522,522,522,522,522,522,522,522,522,522,522,522,522,522,522,522,522,522,522,522,522,522,522,522,522,522,522,522,522,522,524,524,524,524,524,516,495,473,449,426,405,365,345,327,311,272,260,250,240,231,213,203,193,180,167,152,123,114,105,95],"timestamp_mouse":[10,28,61,69,87,107,127,147,167,187,207,227,247,268,287,307,328,348,368,388,407,429,448,467,487,507,528,548,567,588,608,627,647,668,688,708,728,749,768,787,807,829,848,867,888,908,928,948,967,988,1007,1029,1048,1069,1087,1107,1128,1148,1167,1188,1208,1227,1247,1268,1287,1308,1328,1348,1368,1388,1408,1428,1448,1468,1488,1507,1527,1548,1568,1588,1608,1628,1648,1668,1687,1707,1727,1748,1769,1787,1808,1828,1848,1868,1888,1908,1928,1948,1968,1988,2008,2027],"xSR":741.5,"ySR":481,"xT1":424.9,"yT1":0,"xT2":1058.1,"yT2":0,"toosoon":0,"cond_shown":"Congruent","ratio_trial":300,"L_num":5,"L_den":25,"R_num":7,"R_den":14,"correct_side":2,"subjID":"JuanMorales26","gender":"0","school":"sexto","age":"13"},{"start_time":1551899721447,"click_time":1551899724395,"finger_time":1551899721715,"fix_duration":250,"trial":9,"RT":268,"MT":2680,"sideResp":2,"stimulus":[],"xmouse":[757,757,757,757,757,757,758,758,758,758,758,758,751,732,721,716,716,716,716,716,716,716,716,716,716,716,716,716,716,716,716,716,716,716,716,716,716,716,716,716,714,714,714,714,714,714,714,714,714,714,714,714,714,714,741,760,775,785,788,788,788,788,788,788,788,791,796,808,811,814,814,814,814,814,814,814,814,814,814,813,813,810,809,808,808,808,808,808,808,808,806,801,791,778,769,768,768,768,768,768,768,768,773,779,844,877,896,898,900,910,921,935,951,976,1020,1031,1045,1051,1060,1078,1084,1089,1094,1098,1108,1113,1118,1121,1124,1126,1127,1128,1129,1129,1129,1129,1129,1129,1129,1128,1127,1127,1125,1124,1123,1122,1121,1121],"ymouse":[507,507,507,507,507,507,508,508,508,508,508,508,509,512,513,514,514,514,514,514,514,514,514,514,514,514,514,514,514,514,514,514,514,514,514,514,514,514,514,514,514,514,514,514,514,514,514,514,514,514,514,514,514,514,514,514,515,517,518,518,518,518,518,518,518,518,516,513,513,512,512,512,512,512,512,512,512,512,512,512,512,513,513,513,513,513,513,513,513,513,513,514,515,517,518,518,518,518,518,518,518,518,518,518,522,523,525,525,525,525,525,523,519,509,483,473,455,441,420,371,346,328,312,298,256,240,222,210,203,193,188,182,175,170,164,162,158,154,150,144,141,135,128,121,110,105,102,95],"timestamp_mouse":[9,28,47,68,87,108,127,148,168,188,208,228,248,268,288,308,327,347,369,388,408,427,449,469,487,507,527,547,569,588,608,627,648,668,688,708,727,747,769,788,808,828,848,868,887,907,927,947,969,987,1007,1028,1049,1069,1088,1108,1128,1147,1168,1187,1207,1228,1247,1267,1288,1307,1328,1347,1367,1388,1408,1427,1448,1467,1487,1507,1528,1548,1569,1588,1608,1627,1648,1668,1688,1708,1727,1747,1768,1788,1808,1827,1847,1868,1888,1908,1928,1948,1967,1989,2008,2028,2047,2068,2088,2109,2127,2147,2168,2188,2208,2228,2248,2268,2288,2309,2328,2348,2367,2388,2408,2427,2447,2468,2487,2508,2527,2547,2568,2588,2608,2628,2647,2667,2687,2708,2728,2747,2767,2787,2808,2828,2848,2868,2887,2908,2928,2948],"xSR":741.5,"ySR":481,"xT1":424.9,"yT1":0,"xT2":1058.1,"yT2":0,"toosoon":0,"cond_shown":"Incongruent","ratio_trial":200,"L_num":7,"L_den":10,"R_num":12,"R_den":24,"correct_side":1,"subjID":"JuanMorales26","gender":"0","school":"sexto","age":"13"},{"start_time":1551899725966,"click_time":1551899728195,"finger_time":1551899727415,"fix_duration":250,"trial":10,"RT":1449,"MT":780,"sideResp":2,"stimulus":[],"xmouse":[804,804,804,804,804,804,804,804,804,804,804,804,804,804,804,804,804,804,804,804,804,804,804,804,804,804,804,804,804,804,804,804,804,804,804,804,804,804,804,804,804,804,804,804,804,804,804,804,804,804,804,804,804,804,804,804,804,804,804,804,804,804,804,804,804,804,804,804,804,809,826,836,845,869,878,892,904,915,937,956,968,981,992,1003,1018,1025,1030,1036,1042,1056,1060,1067,1073,1085,1093,1101,1108,1114,1126,1129,1133,1135,1136,1138,1138,1138,1139,1139,1139,1138,1134,1127],"ymouse":[545,545,545,545,545,545,545,545,545,545,545,545,545,545,545,545,545,545,545,545,545,545,545,545,545,545,545,545,545,545,545,545,545,545,545,545,545,545,545,545,545,545,545,545,545,545,545,545,545,545,545,545,545,545,545,545,545,545,545,545,545,545,545,545,545,545,545,545,545,542,536,533,528,515,509,501,495,488,474,462,453,441,430,419,397,385,376,366,355,332,322,313,304,284,274,262,250,240,208,195,183,174,165,152,147,144,141,137,127,117,108,95],"timestamp_mouse":[9,38,49,69,89,109,129,150,169,188,209,229,249,269,289,309,329,349,369,389,409,428,448,470,489,510,529,548,568,589,609,628,648,668,689,709,728,748,769,789,809,828,849,870,888,909,929,949,970,988,1009,1028,1050,1069,1089,1109,1128,1150,1170,1188,1209,1229,1249,1269,1288,1308,1328,1348,1370,1389,1408,1428,1449,1468,1488,1509,1529,1549,1569,1588,1609,1629,1648,1669,1689,1708,1728,1748,1768,1788,1808,1829,1848,1869,1889,1909,1928,1948,1969,1988,2008,2029,2048,2068,2088,2110,2129,2149,2168,2189,2208,2229],"xSR":741.5,"ySR":481,"xT1":424.9,"yT1":0,"xT2":1058.1,"yT2":0,"toosoon":0,"cond_shown":"Congruent","ratio_trial":100,"L_num":6,"L_den":12,"R_num":15,"R_den":25,"correct_side":2,"subjID":"JuanMorales26","gender":"0","school":"sexto","age":"13"},{"start_time":1551899729786,"click_time":1551899731895,"finger_time":1551899731235,"fix_duration":250,"trial":11,"RT":1449,"MT":660,"sideResp":1,"stimulus":[],"xmouse":[786,785,783,779,779,779,779,779,779,779,779,779,779,779,779,779,779,779,779,779,779,779,779,779,779,779,779,779,779,779,779,779,779,779,779,779,779,779,779,779,779,779,779,779,779,779,779,779,779,779,779,779,779,779,779,779,779,779,779,779,779,779,779,779,779,774,772,766,764,761,756,748,733,690,672,660,651,647,644,641,634,630,619,615,611,597,593,586,573,568,561,555,544,540,535,532,527,526,525,525,524,524,523,520,519,513],"ymouse":[524,524,525,526,526,526,526,526,526,526,526,526,526,526,526,526,526,526,526,526,526,526,526,526,526,526,526,526,526,526,526,526,526,526,526,526,526,526,526,526,526,526,526,526,526,526,526,526,526,526,526,526,526,526,526,526,526,526,526,526,526,526,526,526,526,526,526,527,527,527,528,528,528,516,509,503,497,494,491,486,478,471,455,445,437,412,403,384,347,321,297,271,222,199,175,156,139,134,129,127,125,123,120,113,108,96],"timestamp_mouse":[9,29,49,70,89,108,128,149,169,189,208,229,249,269,289,308,328,349,369,389,408,430,448,469,489,508,529,549,569,589,608,629,649,668,688,709,730,749,768,788,809,829,849,868,888,910,929,949,969,988,1009,1029,1049,1069,1088,1109,1129,1149,1169,1189,1209,1229,1249,1268,1288,1309,1330,1349,1369,1388,1409,1429,1449,1468,1489,1508,1528,1548,1568,1589,1610,1629,1651,1669,1689,1709,1729,1748,1769,1790,1809,1829,1850,1868,1890,1909,1928,1949,1969,1989,2009,2029,2050,2068,2089,2109],"xSR":741.5,"ySR":481,"xT1":424.9,"yT1":0,"xT2":1058.1,"yT2":0,"toosoon":0,"cond_shown":"Incongruent","ratio_trial":100,"L_num":17,"L_den":30,"R_num":10,"R_den":15,"correct_side":2,"subjID":"JuanMorales26","gender":"0","school":"sexto","age":"13"},{"start_time":1551899734171,"click_time":1551899736594,"finger_time":1551899735775,"fix_duration":1015.7609051710746,"trial":12,"RT":1604,"MT":819,"sideResp":2,"stimulus":[],"xmouse":[770,768,768,768,768,768,768,768,768,768,768,768,768,768,768,768,768,768,768,768,768,768,768,768,768,768,768,768,768,768,768,768,768,768,768,768,768,768,768,768,768,768,768,768,768,768,768,768,768,768,768,768,768,768,768,768,768,768,768,768,768,768,768,768,768,768,768,768,768,768,768,768,768,768,768,768,770,779,800,820,828,835,841,846,851,858,864,871,880,905,923,940,958,973,990,998,1002,1006,1009,1012,1014,1018,1021,1025,1032,1035,1038,1040,1042,1046,1047,1048,1050,1052,1056,1061,1065,1069,1073,1079,1086,1089],"ymouse":[533,533,533,533,533,533,533,533,533,533,533,533,533,533,533,533,533,533,533,533,533,533,533,533,533,533,533,533,533,533,533,533,533,533,533,533,533,533,533,533,533,533,533,533,533,533,533,533,533,533,533,533,533,533,533,533,533,533,533,533,533,533,533,533,533,533,533,533,533,533,533,533,533,533,533,533,533,527,511,481,461,436,414,398,384,371,360,350,340,312,297,280,265,252,236,227,221,218,215,212,210,206,203,199,193,189,185,182,179,174,173,170,168,165,159,152,145,137,126,117,100,92],"timestamp_mouse":[3,23,51,65,84,104,124,143,163,184,204,224,243,264,284,304,324,343,364,384,403,423,444,464,484,504,524,543,564,585,604,624,643,664,685,705,723,744,764,783,803,824,844,864,884,904,924,944,964,984,1003,1023,1045,1064,1085,1104,1124,1143,1163,1183,1204,1223,1243,1263,1283,1304,1323,1343,1364,1384,1404,1424,1443,1464,1483,1503,1524,1544,1564,1584,1603,1624,1644,1663,1684,1704,1724,1743,1764,1784,1804,1824,1844,1863,1883,1903,1924,1944,1965,1984,2003,2023,2044,2065,2084,2105,2123,2145,2164,2184,2205,2224,2243,2263,2284,2304,2323,2343,2364,2384,2404,2423],"xSR":741.5,"ySR":481,"xT1":424.9,"yT1":0,"xT2":1058.1,"yT2":0,"toosoon":0,"cond_shown":"Congruent","ratio_trial":300,"L_num":7,"L_den":14,"R_num":20,"R_den":25,"correct_side":2,"subjID":"JuanMorales26","gender":"0","school":"sexto","age":"13"},{"start_time":1551899738008,"click_time":1551899740214,"finger_time":1551899739475,"fix_duration":250,"trial":13,"RT":1467,"MT":739,"sideResp":2,"stimulus":[],"xmouse":[804,804,804,804,804,804,804,804,804,804,804,804,804,804,804,804,804,804,804,804,804,804,804,804,804,804,804,804,804,804,804,804,804,804,804,804,799,798,798,798,798,798,798,798,798,798,798,798,798,798,798,798,798,798,798,798,798,798,798,798,798,798,798,798,798,798,798,798,798,798,800,810,826,859,872,886,894,900,906,908,911,913,920,927,936,946,959,980,988,994,999,1007,1011,1020,1023,1028,1032,1043,1048,1052,1054,1057,1058,1060,1062,1065,1068,1072,1073,1074,1076],"ymouse":[522,522,522,522,522,522,522,522,522,522,522,522,522,522,522,522,522,522,522,522,522,522,522,522,522,522,522,522,522,522,522,522,522,522,522,522,522,522,522,522,522,522,522,522,522,522,522,522,522,522,522,522,522,522,522,522,522,522,522,522,522,522,522,522,522,522,522,522,522,522,518,505,482,416,382,345,323,310,296,294,291,289,278,270,262,253,242,222,213,206,200,192,188,177,173,167,160,145,137,132,127,123,121,119,116,112,109,103,102,100,98],"timestamp_mouse":[9,35,47,67,87,106,126,147,168,188,206,226,246,266,286,307,326,347,367,386,406,428,446,467,487,506,527,546,567,586,607,627,647,668,687,707,727,747,767,787,807,826,846,866,887,907,926,947,966,988,1007,1028,1047,1067,1088,1107,1127,1147,1166,1188,1206,1227,1247,1266,1287,1307,1326,1346,1367,1387,1407,1427,1446,1467,1487,1506,1526,1547,1566,1587,1607,1628,1647,1666,1687,1706,1726,1748,1766,1787,1807,1826,1846,1867,1886,1906,1927,1948,1966,1987,2007,2026,2048,2066,2086,2106,2127,2147,2166,2187,2206],"xSR":741.5,"ySR":481,"xT1":424.9,"yT1":0,"xT2":1058.1,"yT2":0,"toosoon":0,"cond_shown":"Incongruent","ratio_trial":300,"L_num":13,"L_den":26,"R_num":12,"R_den":15,"correct_side":2,"subjID":"JuanMorales26","gender":"0","school":"sexto","age":"13"},{"start_time":1551899742999,"click_time":1551899745316,"finger_time":1551899744654,"fix_duration":962.2956064936808,"trial":14,"RT":1655,"MT":662,"sideResp":2,"stimulus":[],"xmouse":[753,753,753,753,753,753,753,753,753,753,753,753,753,753,753,753,753,753,753,753,753,753,753,753,753,753,753,753,753,753,753,753,753,753,753,753,753,753,753,753,753,753,753,753,753,753,753,753,753,753,753,753,753,753,753,753,753,753,753,753,753,753,753,753,753,753,753,753,753,753,753,753,753,753,753,753,754,760,775,787,797,808,821,847,862,893,893,910,925,951,958,966,973,989,995,1003,1010,1017,1033,1039,1043,1047,1049,1056,1059,1063,1066,1069,1075,1077,1078,1079,1081,1088,1091,1096],"ymouse":[502,502,502,502,502,502,502,502,502,502,502,502,502,502,502,502,502,502,502,502,502,502,502,502,502,502,502,502,502,502,502,502,502,502,502,502,502,502,502,502,502,502,502,502,502,502,502,502,502,502,502,502,502,502,502,502,502,502,502,502,502,502,502,502,502,502,502,502,502,502,502,502,502,502,502,502,504,502,497,493,488,483,478,465,457,439,439,428,419,398,391,384,376,356,346,333,321,307,274,262,253,241,234,209,202,193,186,179,164,160,157,153,148,125,110,93],"timestamp_mouse":[15,46,56,76,96,115,136,155,176,195,215,236,257,276,296,317,337,355,375,395,416,436,456,475,496,515,536,557,575,596,615,635,657,676,696,715,735,756,777,795,816,835,855,876,896,916,936,955,975,995,1015,1037,1056,1075,1096,1116,1136,1155,1175,1195,1216,1236,1256,1276,1296,1316,1337,1355,1375,1396,1417,1436,1455,1476,1496,1516,1536,1557,1576,1596,1616,1636,1655,1675,1695,1727,1737,1756,1775,1795,1815,1836,1855,1875,1897,1916,1935,1955,1976,1997,2016,2035,2056,2075,2097,2116,2136,2155,2176,2196,2215,2235,2255,2276,2296,2316],"xSR":741.5,"ySR":481,"xT1":424.9,"yT1":0,"xT2":1058.1,"yT2":0,"toosoon":0,"cond_shown":"Incongruent","ratio_trial":100,"L_num":11,"L_den":22,"R_num":9,"R_den":15,"correct_side":2,"subjID":"JuanMorales26","gender":"0","school":"sexto","age":"13"},{"start_time":1551899746486,"click_time":1551899748975,"finger_time":1551899748094,"fix_duration":250,"trial":15,"RT":1608,"MT":881,"sideResp":2,"stimulus":[],"xmouse":[780,780,780,780,780,780,780,780,780,780,780,780,780,780,780,780,780,780,780,780,780,780,780,780,780,780,780,780,780,780,780,780,780,780,780,772,768,766,763,763,763,763,763,763,763,763,763,763,763,763,763,763,763,763,763,763,763,763,763,763,763,763,763,763,763,763,763,763,763,763,763,763,763,763,770,788,799,811,820,830,848,857,874,881,897,916,926,936,945,960,967,974,981,986,998,1003,1007,1013,1018,1027,1032,1037,1041,1046,1053,1062,1065,1068,1069,1071,1074,1075,1076,1077,1078,1079,1080,1081,1081,1083,1084,1086,1086,1086,1086],"ymouse":[546,546,546,546,546,546,546,546,546,546,546,546,546,546,546,546,546,546,546,546,546,546,546,546,546,546,546,546,546,546,546,546,546,546,547,548,548,548,548,548,548,548,548,548,548,548,548,548,548,548,548,548,548,548,548,548,548,548,548,548,548,548,548,548,548,548,548,548,548,548,548,548,548,548,543,530,523,515,507,500,488,482,473,469,460,447,438,428,416,393,380,368,355,345,319,308,300,290,281,265,256,244,234,222,207,187,176,168,163,153,149,144,141,137,134,132,129,126,120,115,107,104,103,101,97],"timestamp_mouse":[9,35,49,69,88,109,129,149,168,189,209,230,249,268,288,309,329,349,368,389,410,429,448,468,489,509,529,548,569,589,609,628,648,669,688,709,729,749,769,789,808,828,848,868,889,910,929,949,968,988,1008,1028,1048,1068,1089,1108,1129,1149,1169,1189,1208,1228,1249,1269,1289,1308,1330,1350,1368,1388,1409,1429,1450,1469,1489,1509,1529,1550,1569,1588,1608,1628,1649,1668,1689,1708,1728,1749,1770,1790,1808,1829,1849,1869,1889,1908,1928,1949,1969,1989,2008,2029,2049,2069,2088,2108,2128,2149,2169,2190,2208,2228,2248,2268,2288,2308,2328,2349,2369,2388,2408,2429,2448,2469,2488],"xSR":741.5,"ySR":481,"xT1":424.9,"yT1":0,"xT2":1058.1,"yT2":0,"toosoon":0,"cond_shown":"Incongruent","ratio_trial":200,"L_num":11,"L_den":20,"R_num":3,"R_den":4,"correct_side":2,"subjID":"JuanMorales26","gender":"0","school":"sexto","age":"13"},{"start_time":1551899753286,"click_time":1551899755295,"finger_time":1551899754774,"fix_duration":410.6962061562962,"trial":16,"RT":1488,"MT":521,"sideResp":1,"stimulus":[],"xmouse":[795,795,795,795,795,795,795,795,795,795,795,795,795,795,795,795,795,795,795,794,794,794,794,794,794,794,794,794,794,794,794,794,794,794,794,794,794,794,794,794,794,794,794,794,794,794,794,794,794,794,794,794,794,794,794,794,794,794,794,794,794,794,794,794,794,794,794,794,794,794,790,777,767,760,752,745,741,735,733,730,718,709,697,679,668,658,633,624,614,603,580,576,566,556,549,543,541,539,535,530,520],"ymouse":[530,530,530,530,530,530,530,530,530,530,530,530,530,530,530,530,530,530,530,530,530,530,530,530,530,530,530,530,530,530,530,530,530,530,530,530,530,530,530,530,530,530,530,530,530,530,530,530,530,530,530,530,530,530,530,530,530,530,530,530,530,530,530,530,530,530,530,530,530,530,530,530,522,493,453,406,397,384,377,370,337,314,287,249,226,204,163,146,132,117,90,83,74,66,60,55,54,53,53,53,51],"timestamp_mouse":[9,30,51,68,88,109,129,148,169,189,209,228,249,268,288,308,329,348,369,389,409,428,449,470,489,509,529,549,568,589,609,629,649,669,688,709,728,749,769,788,808,829,849,870,888,909,930,949,969,989,1009,1029,1048,1068,1088,1109,1129,1149,1170,1189,1209,1229,1249,1268,1288,1309,1329,1349,1369,1389,1409,1429,1448,1468,1488,1509,1529,1549,1568,1588,1609,1628,1649,1669,1688,1709,1728,1748,1768,1789,1809,1829,1848,1868,1888,1909,1929,1949,1969,1989,2009],"xSR":741.5,"ySR":481,"xT1":424.9,"yT1":0,"xT2":1058.1,"yT2":0,"toosoon":0,"cond_shown":"Incongruent","ratio_trial":100,"L_num":13,"L_den":26,"R_num":12,"R_den":20,"correct_side":2,"subjID":"JuanMorales26","gender":"0","school":"sexto","age":"13"},{"start_time":1551899757935,"click_time":1551899760035,"finger_time":1551899759534,"fix_duration":1498.3558076700838,"trial":17,"RT":1599,"MT":501,"sideResp":1,"stimulus":[],"xmouse":[780,780,780,780,780,780,780,780,780,780,780,780,780,780,780,780,780,780,780,780,780,780,780,780,780,780,780,780,780,780,780,780,780,780,780,780,780,780,780,780,780,780,780,780,780,780,780,780,780,780,780,780,780,780,780,780,780,780,780,780,780,780,780,780,780,780,780,780,780,767,767,767,767,767,767,767,767,767,767,767,763,725,671,622,543,534,534,534,534,534,534,534,534,534,534,534,534,534,534,534,533,533,532,531,525,520],"ymouse":[489,489,489,489,489,489,489,489,489,489,489,489,489,489,489,489,489,489,489,489,489,489,489,489,489,489,489,489,489,489,489,489,489,489,489,489,489,489,489,489,489,489,489,489,489,489,489,489,489,489,489,489,489,489,489,489,489,489,489,489,489,489,489,489,489,489,489,489,488,488,488,488,488,488,488,488,488,488,488,488,472,426,357,284,165,137,131,129,128,121,116,113,110,109,109,109,109,109,109,109,108,108,106,102,91,81],"timestamp_mouse":[1,19,45,61,80,99,119,139,160,179,199,219,240,260,280,300,320,340,359,379,399,421,440,459,480,499,521,540,560,580,600,619,639,659,680,700,720,739,759,779,801,820,839,859,880,901,920,941,960,980,999,1019,1039,1059,1080,1100,1120,1141,1160,1180,1199,1219,1239,1260,1281,1300,1320,1340,1360,1381,1400,1420,1440,1459,1479,1499,1520,1540,1561,1581,1599,1619,1639,1659,1679,1700,1719,1739,1759,1780,1801,1819,1841,1860,1880,1899,1920,1940,1960,1979,1999,2021,2040,2060,2079,2099],"xSR":741.5,"ySR":481,"xT1":424.9,"yT1":0,"xT2":1058.1,"yT2":0,"toosoon":0,"cond_shown":"Incongruent","ratio_trial":200,"L_num":7,"L_den":10,"R_num":8,"R_den":16,"correct_side":1,"subjID":"JuanMorales26","gender":"0","school":"sexto","age":"13"},{"start_time":1551899761487,"click_time":1551899765535,"finger_time":1551899762794,"fix_duration":250,"trial":18,"RT":1307,"MT":2741,"sideResp":2,"stimulus":[],"xmouse":[757,757,757,757,757,757,757,757,757,757,757,757,757,757,757,757,757,757,757,757,757,757,757,757,757,757,757,757,757,757,757,755,754,752,751,747,743,743,743,743,743,743,743,743,743,743,743,743,743,743,743,743,743,743,743,743,743,743,742,742,742,742,742,742,742,741,740,738,735,733,733,733,733,733,733,733,733,733,733,733,733,737,747,759,769,782,810,837,853,867,878,890,891,895,902,913,940,945,951,963,984,1012,1022,1034,1046,1059,1074,1078,1082,1087,1091,1095,1095,1097,1100,1102,1105,1107,1109,1109,1110,1113,1113,1113,1113,1113,1113,1113,1114,1114,1114,1114,1114,1114,1114,1114,1114,1114,1114,1114,1114,1114,1114,1114,1114,1114,1114,1114,1114,1114,1114,1114,1113,1110,1104,1098,1061,1049,1049,1049,1049,1049,1049,1049,1049,1049,1049,1049,1049,1049,1049,1049,1049,1049,1049,1049,1049,1049,1049,1049,1049,1049,1049,1049,1049,1049,1049,1050,1050,1050,1050,1052,1056,1059,1063,1066,1072,1077,1084,1088,1091,1101,1105],"ymouse":[528,528,527,527,526,526,525,525,525,525,525,525,525,525,525,525,525,525,525,525,525,525,525,525,525,525,525,525,525,525,525,523,521,519,517,513,509,509,509,509,509,509,509,509,509,509,509,509,509,509,509,509,509,509,509,509,509,509,509,509,509,509,509,509,509,509,509,509,509,509,509,509,509,509,509,509,509,509,509,509,509,509,509,512,513,516,522,526,529,531,532,533,533,533,533,530,521,517,513,503,495,482,477,468,455,442,420,414,402,389,376,363,353,342,328,317,294,284,273,265,258,244,237,230,224,218,204,200,195,192,186,173,169,166,163,163,160,158,157,155,155,152,152,152,150,150,149,149,149,149,149,149,149,149,152,156,191,206,206,206,206,206,206,206,206,206,206,206,206,206,206,206,206,206,206,206,206,206,206,206,206,206,206,206,206,206,205,202,202,202,200,194,186,177,172,166,154,146,135,130,123,105,96],"timestamp_mouse":[7,28,47,68,88,108,128,148,168,188,209,228,247,267,288,308,328,347,367,387,408,428,447,468,488,507,531,548,567,587,607,627,648,667,687,708,728,748,767,788,809,828,847,868,888,908,927,948,968,987,1008,1028,1048,1068,1088,1108,1128,1148,1168,1187,1208,1228,1247,1269,1288,1307,1328,1347,1369,1389,1408,1427,1448,1468,1488,1508,1528,1549,1568,1588,1608,1628,1647,1667,1688,1708,1728,1747,1768,1787,1808,1828,1847,1867,1887,1909,1929,1948,1967,1987,2007,2028,2049,2068,2087,2107,2128,2147,2167,2187,2207,2228,2247,2269,2287,2308,2328,2349,2368,2388,2408,2427,2448,2469,2487,2507,2528,2547,2567,2587,2608,2628,2648,2669,2688,2708,2728,2748,2768,2788,2807,2828,2848,2868,2887,2907,2928,2948,2968,2988,3008,3029,3048,3068,3087,3107,3128,3147,3167,3187,3207,3228,3247,3268,3288,3307,3328,3347,3368,3388,3408,3428,3448,3467,3487,3508,3528,3549,3568,3588,3608,3629,3648,3668,3687,3707,3728,3747,3767,3788,3808,3828,3847,3868,3888,3908,3928,3949,3967,3988,4008,4028,4047],"xSR":741.5,"ySR":481,"xT1":424.9,"yT1":0,"xT2":1058.1,"yT2":0,"toosoon":0,"cond_shown":"Congruent","ratio_trial":300,"L_num":1,"L_den":3,"R_num":19,"R_den":30,"correct_side":2,"subjID":"JuanMorales26","gender":"0","school":"sexto","age":"13"},{"start_time":1551899768151,"click_time":1551899770275,"finger_time":1551899769755,"fix_duration":254.06041985619254,"trial":19,"RT":1604,"MT":520,"sideResp":1,"stimulus":[],"xmouse":[811,811,811,811,811,811,811,811,811,811,811,811,811,811,811,811,811,811,811,811,811,811,811,811,811,811,811,811,811,811,811,811,811,811,811,811,811,811,811,811,811,811,811,811,811,811,811,811,811,811,811,811,811,811,811,811,811,811,811,811,811,811,811,811,811,811,811,811,811,811,811,811,811,811,811,811,811,809,807,792,777,765,751,735,721,718,717,713,705,676,646,629,615,607,596,592,588,582,574,562,556,550,543,534,526,525,524],"ymouse":[529,529,529,529,529,529,529,529,529,529,529,529,529,529,529,529,529,529,529,529,529,529,529,529,529,529,529,529,529,529,529,529,529,529,529,529,529,529,529,529,529,529,529,529,529,529,529,529,529,529,529,529,529,529,529,529,529,529,529,529,529,529,529,529,529,529,529,529,529,529,529,529,529,529,529,529,529,523,516,482,443,414,381,350,317,311,305,293,276,228,188,164,145,131,114,109,105,101,97,91,89,87,84,82,79,78,78],"timestamp_mouse":[10,36,45,63,83,103,124,143,163,184,205,223,243,264,284,303,323,344,364,384,403,424,443,463,483,503,524,543,563,584,604,624,643,663,684,704,724,744,764,785,803,823,844,863,885,904,923,944,964,983,1004,1024,1044,1065,1085,1104,1123,1144,1164,1185,1205,1225,1244,1264,1284,1304,1324,1344,1364,1383,1404,1423,1443,1464,1483,1503,1524,1544,1564,1584,1604,1624,1643,1663,1683,1704,1723,1743,1763,1783,1805,1824,1845,1863,1883,1905,1923,1943,1963,1984,2004,2024,2044,2064,2084,2104,2124],"xSR":741.5,"ySR":481,"xT1":424.9,"yT1":0,"xT2":1058.1,"yT2":0,"toosoon":0,"cond_shown":"Congruent","ratio_trial":100,"L_num":9,"L_den":15,"R_num":8,"R_den":16,"correct_side":1,"subjID":"JuanMorales26","gender":"0","school":"sexto","age":"13"},{"start_time":1551899772232,"click_time":1551899775455,"finger_time":1551899774915,"fix_duration":957.8700392154688,"trial":20,"RT":2683,"MT":540,"sideResp":2,"stimulus":[],"xmouse":[803,803,803,803,803,803,803,803,803,803,803,803,803,803,803,803,803,803,803,803,803,803,803,803,803,803,803,803,803,803,803,803,803,803,803,803,803,803,803,803,803,803,803,803,803,803,803,803,803,803,803,803,803,803,803,803,803,803,803,803,803,803,803,803,803,803,803,803,803,803,803,803,803,803,803,803,803,803,803,803,806,808,811,812,813,815,819,819,820,821,822,822,822,822,822,822,822,822,822,822,822,822,822,822,822,821,810,808,805,803,800,798,798,797,791,786,783,783,783,783,783,783,783,783,783,783,783,783,783,787,793,809,818,833,854,870,899,910,916,930,965,981,994,1008,1014,1017,1024,1026,1029,1032,1034,1036,1038,1039,1042,1044,1048,1050,1052,1053,1058,1060],"ymouse":[526,526,526,526,526,526,526,526,526,526,526,526,526,526,526,526,526,526,526,526,526,526,526,526,526,526,526,526,526,526,526,526,526,526,526,526,526,526,526,526,526,526,526,526,526,526,526,526,526,526,526,526,526,526,526,526,526,526,526,526,526,526,526,526,526,526,526,526,526,526,526,526,526,526,526,526,526,526,526,526,525,522,519,518,516,513,511,510,510,509,509,509,509,509,509,509,509,509,509,509,509,509,509,509,509,509,506,506,506,506,505,505,505,505,504,504,504,504,504,504,504,504,504,504,504,504,504,504,504,503,502,498,493,481,459,436,377,354,334,314,265,240,221,191,174,162,139,129,120,113,107,99,95,94,87,84,78,76,73,72,67,65],"timestamp_mouse":[10,23,43,65,84,103,123,143,162,183,203,222,242,262,283,303,322,342,363,382,402,422,443,462,482,502,523,543,563,582,602,623,643,662,683,703,724,743,762,782,802,822,844,863,882,902,922,944,963,984,1002,1022,1043,1062,1082,1102,1122,1143,1163,1182,1202,1222,1242,1262,1284,1303,1323,1343,1363,1382,1402,1422,1442,1463,1483,1503,1523,1543,1563,1582,1603,1622,1642,1662,1683,1703,1724,1743,1762,1782,1803,1823,1843,1862,1883,1903,1923,1942,1963,1983,2003,2023,2043,2062,2082,2102,2123,2143,2164,2182,2202,2222,2242,2262,2283,2302,2322,2342,2363,2383,2402,2423,2443,2464,2482,2503,2524,2543,2562,2583,2602,2622,2643,2663,2683,2704,2722,2743,2763,2782,2805,2822,2843,2863,2884,2902,2923,2942,2962,2983,3004,3022,3043,3062,3083,3103,3123,3143,3162,3182,3204,3223],"xSR":741.5,"ySR":481,"xT1":424.9,"yT1":0,"xT2":1058.1,"yT2":0,"toosoon":0,"cond_shown":"Incongruent","ratio_trial":300,"L_num":4,"L_den":20,"R_num":2,"R_den":4,"correct_side":2,"subjID":"JuanMorales26","gender":"0","school":"sexto","age":"13"},{"start_time":1551899777766,"click_time":1551899779974,"finger_time":1551899779234,"fix_duration":1050.786000283945,"trial":21,"RT":1468,"MT":740,"sideResp":2,"stimulus":[],"xmouse":[786,786,786,786,786,786,786,786,786,786,786,786,786,786,786,786,786,786,786,786,786,786,786,786,786,786,786,786,786,786,786,786,786,786,786,786,786,786,786,786,786,786,786,786,786,786,786,786,786,786,786,786,786,786,786,786,786,786,786,786,786,786,786,786,786,786,786,786,786,786,786,789,797,810,823,829,832,835,842,863,873,884,894,902,912,920,926,938,964,1003,1015,1021,1025,1027,1033,1037,1037,1037,1037,1037,1037,1037,1037,1037,1038,1044,1048,1051,1054,1058,1062],"ymouse":[502,502,502,502,502,502,502,502,502,502,502,502,502,502,502,502,502,502,502,502,502,502,502,502,502,502,502,502,502,502,502,502,502,502,502,502,502,502,502,502,502,502,502,502,502,502,502,502,502,502,502,502,502,502,502,502,502,502,502,502,502,502,502,502,502,502,502,502,502,502,502,492,482,468,452,445,441,436,426,393,372,344,315,291,259,241,225,197,150,101,88,84,79,75,68,63,63,63,63,63,63,63,63,63,62,61,60,60,60,60,59],"timestamp_mouse":[11,33,49,69,88,108,128,148,169,190,209,229,248,268,288,308,330,348,368,389,409,429,448,468,488,509,528,548,569,589,609,630,648,670,690,709,729,749,769,790,808,829,849,868,888,910,929,949,969,988,1008,1028,1049,1068,1088,1108,1130,1149,1168,1188,1208,1228,1248,1268,1288,1308,1328,1349,1368,1389,1409,1429,1448,1468,1489,1509,1529,1548,1568,1589,1608,1629,1649,1670,1688,1710,1729,1749,1769,1789,1808,1828,1848,1869,1889,1908,1928,1949,1969,1988,2009,2028,2048,2069,2088,2109,2129,2149,2168,2188,2208],"xSR":741.5,"ySR":481,"xT1":424.9,"yT1":0,"xT2":1058.1,"yT2":0,"toosoon":0,"cond_shown":"Incongruent","ratio_trial":200,"L_num":7,"L_den":10,"R_num":8,"R_den":16,"correct_side":1,"subjID":"JuanMorales26","gender":"0","school":"sexto","age":"13"},{"start_time":1551899785028,"click_time":1551899787535,"finger_time":1551899786735,"fix_duration":1072.2977841158986,"trial":22,"RT":1707,"MT":800,"sideResp":2,"stimulus":[],"xmouse":[778,778,778,778,778,778,778,778,778,778,778,778,778,778,778,778,778,778,778,778,778,778,778,778,778,778,778,778,778,778,778,778,778,778,778,778,778,778,778,778,778,778,778,778,778,778,778,778,778,778,778,778,778,778,778,778,778,778,778,778,778,778,778,778,778,778,778,778,778,778,778,778,778,778,778,778,778,778,778,778,778,778,793,808,823,838,855,865,868,871,874,875,879,883,888,896,909,937,958,972,983,994,1008,1013,1018,1021,1023,1025,1026,1027,1028,1029,1032,1034,1034,1035,1037,1043,1046,1047,1049,1050,1054,1056,1058,1060],"ymouse":[521,521,521,521,521,521,521,521,521,521,521,521,521,521,521,521,521,521,521,521,521,521,521,521,521,521,521,521,521,521,521,521,521,521,521,521,521,521,521,521,521,521,521,521,521,521,521,521,521,521,521,521,521,521,521,521,521,521,521,521,521,521,521,521,521,521,521,521,521,521,521,521,521,521,521,521,521,521,521,521,521,519,507,495,483,465,446,427,421,416,412,409,402,396,388,378,358,324,297,277,256,238,208,197,185,179,174,168,164,161,157,152,142,139,137,134,130,119,114,112,108,106,101,96,91,87],"timestamp_mouse":[8,28,59,67,87,107,128,147,167,187,206,228,247,267,286,306,328,347,367,386,407,427,447,466,487,507,526,547,567,586,606,627,648,667,687,707,727,746,766,788,808,828,846,866,887,907,927,946,966,987,1007,1026,1046,1067,1087,1107,1126,1147,1167,1187,1206,1226,1246,1267,1288,1307,1328,1346,1366,1386,1406,1426,1447,1467,1488,1507,1527,1547,1566,1586,1607,1627,1646,1667,1688,1707,1727,1747,1767,1787,1807,1827,1847,1868,1887,1908,1926,1946,1967,1987,2006,2026,2047,2067,2087,2106,2126,2147,2167,2187,2207,2227,2246,2268,2287,2307,2326,2346,2366,2388,2407,2427,2447,2467,2487,2507],"xSR":741.5,"ySR":481,"xT1":424.9,"yT1":0,"xT2":1058.1,"yT2":0,"toosoon":0,"cond_shown":"Incongruent","ratio_trial":200,"L_num":7,"L_den":15,"R_num":4,"R_den":6,"correct_side":2,"subjID":"JuanMorales26","gender":"0","school":"sexto","age":"13"},{"start_time":1551899788906,"click_time":1551899790675,"finger_time":1551899789874,"fix_duration":250,"trial":23,"RT":968,"MT":801,"sideResp":1,"stimulus":[],"xmouse":[789,789,789,789,789,789,789,789,789,789,789,789,789,789,789,789,789,789,789,789,789,789,789,789,789,789,789,789,789,789,789,789,789,789,789,789,789,789,789,789,789,789,789,789,784,773,761,750,738,732,722,711,691,685,665,660,653,641,616,605,593,580,557,530,519,510,503,502,498,487,471,467,466,479,483,486,488,490,490,490,490,485,480,475,472,469,469,468,467],"ymouse":[524,524,524,524,524,524,524,524,524,524,524,524,524,524,524,524,524,524,524,524,524,524,524,524,524,524,524,524,524,524,524,524,524,524,524,524,524,524,524,524,524,524,524,524,524,524,524,524,525,526,528,531,537,538,540,540,540,540,540,540,540,540,536,526,520,513,507,503,485,459,424,406,389,336,311,290,271,253,220,206,194,180,167,141,129,120,111,105,99],"timestamp_mouse":[9,29,48,69,89,108,128,148,168,189,209,228,248,268,288,308,328,348,368,388,408,428,448,469,489,508,528,548,568,588,608,629,649,668,689,709,729,749,768,789,809,829,848,869,889,908,928,950,968,988,1008,1028,1048,1068,1089,1108,1128,1148,1168,1188,1209,1228,1248,1269,1288,1308,1328,1348,1369,1388,1408,1428,1448,1469,1488,1508,1528,1548,1569,1588,1609,1628,1649,1669,1688,1708,1729,1749,1769],"xSR":741.5,"ySR":481,"xT1":424.9,"yT1":0,"xT2":1058.1,"yT2":0,"toosoon":0,"cond_shown":"Congruent","ratio_trial":300,"L_num":24,"L_den":30,"R_num":8,"R_den":16,"correct_side":1,"subjID":"JuanMorales26","gender":"0","school":"sexto","age":"13"},{"start_time":1551899793233,"click_time":1551899795274,"finger_time":1551899794734,"fix_duration":1035.7842167300548,"trial":24,"RT":1501,"MT":540,"sideResp":2,"stimulus":[],"xmouse":[792,792,792,792,792,792,792,792,792,792,792,792,792,792,792,792,792,792,792,792,793,791,788,788,788,788,788,788,788,788,788,788,788,788,788,788,788,788,788,788,788,788,788,788,788,788,788,788,788,788,788,788,788,788,788,788,788,788,788,788,788,788,788,788,788,788,788,788,788,788,788,788,788,798,815,911,974,1024,1072,1083,1089,1094,1096,1125,1148,1158,1172,1176,1183,1185,1186,1188,1189,1189,1187,1185,1182,1180,1167,1157,1143,1129,1116],"ymouse":[527,527,527,527,527,527,527,527,527,527,527,527,527,527,527,527,527,527,527,527,526,526,526,525,525,525,525,525,525,525,525,525,525,525,525,525,525,525,525,525,525,525,525,525,525,525,525,525,525,525,525,525,525,525,525,525,525,525,525,525,525,525,525,525,525,525,525,525,525,525,525,525,525,521,516,483,453,426,389,373,361,353,350,313,292,282,261,252,232,222,213,205,196,180,168,162,155,152,135,125,115,106,95],"timestamp_mouse":[18,36,41,61,81,101,121,143,162,181,201,222,242,262,281,301,321,341,362,382,401,421,441,461,481,501,522,542,562,581,601,623,641,662,682,701,722,742,762,781,802,821,841,861,881,901,921,941,962,982,1001,1021,1041,1062,1081,1102,1121,1141,1162,1181,1201,1222,1241,1262,1282,1302,1321,1341,1362,1382,1402,1423,1441,1461,1481,1501,1521,1541,1561,1581,1601,1621,1641,1661,1682,1701,1721,1741,1761,1781,1801,1821,1842,1861,1881,1901,1921,1941,1962,1981,2001,2021,2041],"xSR":741.5,"ySR":481,"xT1":424.9,"yT1":0,"xT2":1058.1,"yT2":0,"toosoon":0,"cond_shown":"Congruent","ratio_trial":200,"L_num":3,"L_den":10,"R_num":7,"R_den":14,"correct_side":2,"subjID":"JuanMorales26","gender":"0","school":"sexto","age":"13"},{"start_time":1551899797271,"click_time":1551899798815,"finger_time":1551899798095,"fix_duration":715.2950544306099,"trial":25,"RT":824,"MT":720,"sideResp":1,"stimulus":[],"xmouse":[772,772,772,772,772,772,772,772,772,772,772,772,772,772,772,772,772,772,772,772,772,772,772,772,772,772,772,772,772,772,772,772,769,762,760,757,755,753,751,749,745,739,735,730,722,717,706,702,692,687,682,675,672,669,665,660,655,648,640,623,607,580,574,568,565,563,559,554,553,551,547,545,541,532,526,520,514,513],"ymouse":[524,524,524,524,524,524,524,524,524,524,524,524,524,524,524,524,524,524,524,524,524,524,524,524,524,524,524,524,524,524,524,524,525,528,528,529,530,531,531,532,533,535,536,539,542,543,548,549,552,554,555,558,559,560,560,561,561,562,562,553,539,491,473,459,445,429,391,367,345,324,286,239,210,178,154,135,105,94],"timestamp_mouse":[10,36,43,63,83,103,123,143,163,183,204,223,243,263,284,303,324,343,363,384,403,423,443,463,484,504,523,543,563,583,603,623,643,664,683,703,723,744,763,783,804,824,843,863,884,903,924,943,964,983,1003,1023,1043,1063,1083,1103,1124,1144,1163,1184,1203,1223,1244,1264,1283,1303,1323,1344,1363,1383,1403,1423,1444,1463,1483,1503,1523,1544],"xSR":741.5,"ySR":481,"xT1":424.9,"yT1":0,"xT2":1058.1,"yT2":0,"toosoon":0,"cond_shown":"Congruent","ratio_trial":200,"L_num":21,"L_den":30,"R_num":2,"R_den":4,"correct_side":1,"subjID":"JuanMorales26","gender":"0","school":"sexto","age":"13"},{"start_time":1551899801095,"click_time":1551899803054,"finger_time":1551899802516,"fix_duration":1239.6832285067935,"trial":26,"RT":1421,"MT":538,"sideResp":1,"stimulus":[],"xmouse":[758,769,771,771,771,772,772,772,772,772,772,772,772,772,772,772,772,772,772,772,772,772,772,772,772,772,772,772,772,772,772,772,772,772,772,772,772,772,772,772,772,772,772,772,772,772,772,772,772,772,772,772,772,772,772,772,772,772,772,772,772,772,772,772,772,772,772,772,772,772,754,699,670,647,637,631,631,631,631,629,628,624,619,613,605,583,567,562,550,546,542,536,535,534,533,533,530,527,524],"ymouse":[554,552,551,551,551,550,550,550,550,550,550,550,550,550,550,550,550,550,550,550,550,550,550,550,550,550,550,550,550,550,550,550,550,550,550,550,550,550,550,550,550,550,550,550,550,550,550,550,550,550,550,550,550,550,550,550,550,550,550,550,550,550,550,550,550,550,550,550,549,540,514,437,396,354,328,311,295,284,280,270,264,245,236,223,208,175,145,137,116,108,102,93,89,88,87,86,83,81,79],"timestamp_mouse":[1,32,39,60,79,100,119,139,159,180,200,219,239,259,279,299,319,340,360,379,399,419,439,461,479,499,519,540,560,579,599,619,639,659,680,699,720,739,759,779,799,819,840,860,879,899,920,939,960,979,999,1019,1039,1059,1079,1099,1119,1139,1159,1179,1199,1220,1240,1259,1279,1299,1320,1340,1359,1379,1399,1421,1439,1459,1479,1499,1519,1539,1560,1580,1599,1619,1639,1659,1679,1701,1720,1740,1759,1780,1799,1819,1840,1859,1879,1899,1919,1940,1959],"xSR":741.5,"ySR":481,"xT1":424.9,"yT1":0,"xT2":1058.1,"yT2":0,"toosoon":0,"cond_shown":"Incongruent","ratio_trial":300,"L_num":2,"L_den":4,"R_num":6,"R_den":30,"correct_side":1,"subjID":"JuanMorales26","gender":"0","school":"sexto","age":"13"},{"start_time":1551899805606,"click_time":1551899810814,"finger_time":1551899810674,"fix_duration":1330.637685906448,"trial":27,"RT":5068,"MT":140,"sideResp":2,"stimulus":[],"xmouse":[763,763,763,763,763,763,763,763,763,763,763,763,763,763,763,763,763,763,763,763,763,763,763,763,763,763,763,763,763,763,763,763,763,763,763,763,763,763,763,763,763,763,763,763,763,763,763,763,763,763,763,763,763,763,763,763,763,763,763,763,763,763,763,763,763,763,763,763,763,763,763,763,763,763,763,763,763,763,763,763,763,763,763,763,763,763,763,763,763,763,763,763,763,763,763,763,763,763,763,763,763,763,763,763,763,763,763,763,763,763,763,763,763,763,763,763,763,763,763,763,763,763,763,763,763,763,763,763,763,763,763,763,763,763,763,763,763,763,763,763,763,763,763,763,763,763,763,763,763,763,763,763,763,763,763,763,763,763,763,763,763,763,763,763,763,763,763,763,763,763,763,763,763,763,763,763,763,763,763,763,763,763,763,763,763,763,763,763,763,763,763,763,763,763,763,763,763,763,763,763,763,763,763,763,763,763,763,763,763,763,763,763,763,763,763,763,763,763,763,763,763,763,763,763,763,763,763,763,763,763,763,763,763,763,763,763,763,763,763,763,763,763,763,763,763,763,763,763,763,763,763,764,797,855,905,952,1006,1023,1038,1055,1061],"ymouse":[516,516,516,516,516,516,516,516,516,516,516,516,516,516,516,516,516,516,516,516,516,516,516,516,516,516,516,516,516,516,516,516,516,516,516,516,516,516,516,516,516,516,516,516,516,516,516,516,516,516,516,516,516,516,516,516,516,516,516,516,516,516,516,516,516,516,516,516,516,516,516,516,516,516,516,516,516,516,516,516,516,516,516,516,516,516,516,516,516,516,516,516,516,516,516,516,516,516,516,516,516,516,516,516,516,516,516,516,516,516,516,516,516,516,516,516,516,516,516,516,516,516,516,516,516,516,516,516,516,516,516,516,516,516,516,516,516,516,516,516,516,516,516,516,516,516,516,516,516,516,516,516,516,516,516,516,516,516,516,516,516,516,516,516,516,516,516,516,516,516,516,516,516,516,516,516,516,516,516,516,516,516,516,516,516,516,516,516,516,516,516,516,516,516,516,516,516,516,516,516,516,516,516,516,516,516,516,516,516,516,516,516,516,516,516,516,516,516,516,516,516,516,516,516,516,516,516,516,516,516,516,516,516,516,516,516,516,516,516,516,516,516,516,516,516,516,516,516,516,516,516,514,489,436,362,275,140,109,91,66,57],"timestamp_mouse":[9,36,48,68,88,109,128,148,170,189,208,228,248,268,289,308,329,348,369,389,408,428,449,468,489,508,528,548,568,589,608,628,648,670,688,708,728,748,768,788,808,829,848,868,888,908,929,949,968,988,1008,1028,1049,1068,1088,1108,1129,1149,1168,1188,1208,1228,1248,1269,1289,1308,1329,1348,1369,1390,1408,1429,1448,1468,1489,1508,1528,1548,1569,1588,1608,1628,1648,1669,1689,1708,1728,1749,1770,1789,1808,1828,1849,1868,1888,1908,1928,1948,1968,1988,2008,2029,2049,2068,2088,2108,2129,2148,2169,2188,2208,2228,2248,2268,2288,2309,2330,2348,2368,2388,2408,2429,2448,2468,2489,2508,2528,2548,2568,2589,2608,2628,2649,2668,2688,2708,2728,2748,2768,2788,2808,2830,2849,2869,2888,2908,2928,2948,2968,2988,3008,3029,3048,3068,3088,3108,3128,3148,3168,3188,3209,3228,3248,3269,3288,3308,3329,3348,3368,3389,3408,3428,3448,3468,3490,3508,3528,3548,3569,3588,3608,3628,3649,3668,3688,3708,3728,3749,3768,3788,3808,3828,3848,3868,3889,3909,3929,3950,3969,3988,4008,4028,4048,4068,4088,4108,4128,4149,4168,4188,4208,4228,4249,4270,4288,4308,4328,4349,4369,4388,4408,4428,4448,4468,4488,4508,4528,4548,4569,4589,4610,4629,4649,4668,4688,4708,4728,4748,4768,4788,4808,4828,4848,4869,4889,4909,4929,4949,4969,4988,5008,5028,5048,5068,5088,5109,5128,5148,5169,5189,5208],"xSR":741.5,"ySR":481,"xT1":424.9,"yT1":0,"xT2":1058.1,"yT2":0,"toosoon":0,"cond_shown":"Congruent","ratio_trial":200,"L_num":6,"L_den":12,"R_num":7,"R_den":10,"correct_side":2,"subjID":"JuanMorales26","gender":"0","school":"sexto","age":"13"},{"start_time":1551899813178,"click_time":1551899815035,"finger_time":1551899814734,"fix_duration":862.8013085980398,"trial":28,"RT":1556,"MT":301,"sideResp":2,"stimulus":[],"xmouse":[808,808,808,808,808,808,808,808,808,808,808,808,808,808,808,808,808,808,808,808,808,808,808,808,808,808,808,808,808,808,808,808,808,808,808,808,808,808,808,808,808,808,808,808,808,808,808,808,808,808,808,808,808,808,808,808,808,808,808,808,808,808,808,808,808,808,808,808,808,808,808,808,808,808,814,821,841,864,866,870,874,881,905,915,924,932,942,971,984,998,1010,1027,1060],"ymouse":[520,520,520,520,520,520,520,520,520,520,520,520,520,520,520,520,520,520,520,520,520,520,520,520,520,520,520,520,520,520,520,520,520,520,520,520,520,520,520,520,520,520,520,520,520,520,520,520,520,520,520,520,520,520,520,520,520,520,520,520,520,520,520,520,520,520,520,520,520,520,520,520,520,520,521,514,498,480,478,474,468,459,422,408,389,363,325,245,216,182,150,114,56],"timestamp_mouse":[16,36,57,77,96,116,136,158,176,196,216,236,256,276,297,317,338,356,376,397,418,437,456,476,497,517,536,556,576,596,617,637,658,677,698,716,736,756,776,797,817,837,856,876,896,917,938,958,976,997,1017,1036,1056,1076,1098,1116,1136,1156,1176,1198,1216,1236,1257,1276,1296,1317,1337,1356,1376,1396,1416,1436,1457,1477,1496,1516,1536,1556,1576,1597,1616,1636,1656,1677,1696,1717,1736,1756,1776,1796,1816,1837,1856],"xSR":741.5,"ySR":481,"xT1":424.9,"yT1":0,"xT2":1058.1,"yT2":0,"toosoon":0,"cond_shown":"Congruent","ratio_trial":300,"L_num":5,"L_den":25,"R_num":7,"R_den":14,"correct_side":2,"subjID":"JuanMorales26","gender":"0","school":"sexto","age":"13"},{"start_time":1551899816305,"click_time":1551899818735,"finger_time":1551899817794,"fix_duration":250,"trial":29,"RT":1489,"MT":941,"sideResp":1,"stimulus":[],"xmouse":[801,801,801,801,801,801,801,801,801,801,801,801,801,801,801,801,801,801,801,801,801,801,801,801,801,801,801,801,801,801,801,801,801,801,801,801,801,801,801,801,801,801,801,801,801,801,801,801,801,801,801,801,801,801,801,801,801,801,801,801,801,801,801,801,801,801,801,801,801,801,801,799,788,779,770,759,735,714,710,707,705,701,697,693,688,682,677,669,665,657,649,637,627,622,619,615,605,600,595,590,586,583,574,571,570,568,567,562,558,556,553,552,546,543,541,541,539,537,535,532,529,517],"ymouse":[538,538,538,538,538,538,538,538,538,538,538,538,538,538,538,538,538,538,538,538,538,538,538,538,538,538,538,538,538,538,538,538,538,538,538,538,538,538,538,538,538,538,538,538,538,538,538,538,538,538,538,538,538,538,538,538,538,538,538,538,538,538,538,538,538,538,538,538,538,538,538,535,514,492,467,441,391,327,312,297,294,286,275,267,255,245,236,223,214,201,186,165,147,140,136,130,120,116,112,109,106,104,99,97,96,95,94,91,88,86,85,83,79,78,77,77,77,76,76,75,75,73],"timestamp_mouse":[9,30,58,69,89,110,130,149,169,190,210,229,250,269,290,309,329,349,369,389,409,429,449,470,489,509,529,549,571,589,609,630,651,670,690,709,729,750,769,789,809,829,849,869,889,909,929,949,970,990,1009,1029,1050,1069,1089,1109,1129,1149,1169,1189,1210,1230,1249,1269,1289,1309,1329,1349,1369,1389,1410,1429,1449,1469,1489,1509,1529,1549,1569,1589,1609,1630,1650,1670,1689,1709,1730,1750,1769,1789,1809,1831,1849,1870,1890,1910,1931,1949,1970,1989,2010,2029,2049,2069,2090,2109,2129,2149,2169,2190,2209,2229,2249,2270,2289,2311,2330,2349,2369,2389,2410,2430],"xSR":741.5,"ySR":481,"xT1":424.9,"yT1":0,"xT2":1058.1,"yT2":0,"toosoon":0,"cond_shown":"Congruent","ratio_trial":200,"L_num":15,"L_den":25,"R_num":4,"R_den":10,"correct_side":1,"subjID":"JuanMorales26","gender":"0","school":"sexto","age":"13"},{"start_time":1551899821224,"click_time":1551899823160,"finger_time":1551899822655,"fix_duration":868.925396940667,"trial":30,"RT":1431,"MT":505,"sideResp":2,"stimulus":[],"xmouse":[787,787,787,787,787,787,787,787,787,787,787,787,787,787,787,787,787,787,787,787,787,787,787,787,787,787,787,787,787,787,787,787,787,787,787,787,787,787,787,787,787,787,787,787,787,787,787,787,787,787,787,787,787,787,787,787,787,787,787,787,787,782,776,774,774,774,774,773,773,792,805,841,858,871,883,894,924,937,947,955,963,973,1011,1022,1031,1038,1046,1054,1057,1059,1062,1068,1073,1075,1077,1080,1084],"ymouse":[548,548,548,548,548,548,548,548,548,548,548,548,548,548,548,548,548,548,548,548,548,548,548,548,548,548,548,548,548,548,548,548,548,548,548,548,548,548,548,548,548,548,548,548,548,548,548,548,548,548,548,548,548,548,548,548,548,548,548,548,548,548,548,548,548,548,548,547,544,513,488,430,409,390,373,359,321,306,292,283,272,258,208,192,178,166,156,142,138,135,132,124,115,111,106,100,87],"timestamp_mouse":[10,30,50,83,91,110,130,150,171,191,210,230,250,270,292,311,330,350,370,390,410,431,450,471,490,510,530,551,570,590,611,630,650,671,690,711,731,750,770,790,811,831,850,871,890,910,930,950,970,991,1010,1030,1050,1071,1090,1110,1130,1150,1170,1191,1210,1230,1250,1271,1291,1311,1332,1351,1371,1390,1410,1431,1451,1470,1491,1510,1530,1551,1570,1590,1610,1630,1650,1670,1691,1710,1730,1750,1771,1790,1811,1830,1851,1871,1892,1912,1936],"xSR":741.5,"ySR":481,"xT1":424.9,"yT1":0,"xT2":1058.1,"yT2":0,"toosoon":0,"cond_shown":"Congruent","ratio_trial":200,"L_num":3,"L_den":12,"R_num":9,"R_den":20,"correct_side":2,"subjID":"JuanMorales26","gender":"0","school":"sexto","age":"13"},{"start_time":1551899824345,"click_time":1551899826155,"finger_time":1551899825634,"fix_duration":250,"trial":31,"RT":1289,"MT":521,"sideResp":2,"stimulus":[],"xmouse":[790,790,790,790,790,790,790,790,790,790,790,790,790,790,790,790,790,790,790,790,790,790,790,790,790,790,790,790,790,790,790,790,790,790,790,790,790,790,790,790,790,790,790,790,790,790,790,790,790,790,790,790,790,790,790,790,790,790,790,790,790,790,811,822,846,877,894,906,917,922,928,930,934,938,940,945,953,973,990,1007,1021,1042,1052,1060,1063,1064,1064,1064,1066,1070,1079],"ymouse":[555,555,555,555,555,555,555,555,555,555,555,555,555,555,555,555,555,555,555,555,555,555,555,555,555,555,555,555,555,555,555,555,555,555,555,555,555,555,555,555,555,555,555,555,555,555,555,555,555,555,555,555,555,555,555,555,555,555,555,555,555,555,536,528,499,455,427,397,371,352,333,326,320,311,306,293,283,261,245,227,207,167,150,137,131,127,127,126,124,117,97],"timestamp_mouse":[10,39,50,70,90,109,130,149,169,190,209,229,249,270,289,309,330,349,369,389,409,429,449,469,489,509,529,550,569,590,610,629,649,669,689,709,729,749,769,789,809,829,849,870,889,909,930,949,969,989,1010,1030,1049,1069,1091,1109,1129,1149,1169,1189,1209,1229,1249,1270,1289,1310,1329,1349,1369,1389,1410,1429,1449,1471,1489,1510,1529,1549,1571,1590,1610,1631,1649,1669,1690,1710,1729,1749,1769,1790,1810],"xSR":741.5,"ySR":481,"xT1":424.9,"yT1":0,"xT2":1058.1,"yT2":0,"toosoon":0,"cond_shown":"Incongruent","ratio_trial":100,"L_num":12,"L_den":30,"R_num":2,"R_den":4,"correct_side":2,"subjID":"JuanMorales26","gender":"0","school":"sexto","age":"13"},{"start_time":1551899828380,"click_time":1551899830175,"finger_time":1551899829774,"fix_duration":1223.6971381295373,"trial":32,"RT":1394,"MT":401,"sideResp":1,"stimulus":[],"xmouse":[799,799,799,799,799,799,799,799,799,799,799,799,799,799,799,799,799,799,799,799,799,799,799,799,799,799,799,799,799,799,799,799,799,799,799,799,799,799,799,799,799,799,799,799,799,799,799,799,799,799,799,799,799,799,799,799,799,799,799,799,799,799,799,799,799,799,799,787,767,714,699,664,642,627,615,613,610,607,604,591,579,575,573,570,554,548,542,537,531,520],"ymouse":[523,523,523,523,523,523,523,523,523,523,523,523,523,523,523,523,523,523,523,523,523,523,523,523,523,523,523,523,523,523,523,523,523,523,523,523,523,523,523,523,523,523,523,523,523,523,523,523,523,523,523,523,523,523,523,523,523,523,523,523,523,523,523,523,523,523,523,509,493,455,435,357,299,250,166,144,123,111,102,79,63,59,58,57,55,53,53,53,55,56],"timestamp_mouse":[16,35,54,74,95,114,134,154,175,194,214,234,256,274,294,314,334,354,374,394,415,434,454,474,494,514,535,554,574,595,614,635,655,675,695,714,735,755,774,795,814,834,855,874,896,916,935,955,975,995,1014,1035,1055,1074,1094,1114,1134,1155,1175,1194,1214,1234,1254,1274,1295,1314,1334,1356,1374,1394,1414,1435,1454,1474,1494,1514,1534,1554,1574,1594,1614,1634,1654,1675,1695,1715,1735,1755,1774,1794],"xSR":741.5,"ySR":481,"xT1":424.9,"yT1":0,"xT2":1058.1,"yT2":0,"toosoon":0,"cond_shown":"Incongruent","ratio_trial":100,"L_num":9,"L_den":18,"R_num":6,"R_den":10,"correct_side":2,"subjID":"JuanMorales26","gender":"0","school":"sexto","age":"13"},{"start_time":1551899835526,"click_time":1551899862215,"finger_time":1551899861254,"fix_duration":307.3660608468346,"trial":33,"RT":25728,"MT":961,"sideResp":2,"stimulus":[],"xmouse":[769,769,769,769,769,769,769,769,769,769,769,769,769,769,769,769,769,769,769,769,769,769,769,769,769,769,769,769,769,769,769,769,769,769,769,769,769,769,769,769,769,769,769,769,769,769,769,769,769,769,769,769,769,769,769,769,769,769,769,769,769,769,769,769,769,769,769,769,769,769,769,769,769,769,769,769,769,769,769,769,769,769,769,769,769,769,769,769,769,769,769,769,769,769,769,769,769,769,769,769,769,769,769,769,769,769,769,769,769,769,769,769,769,769,769,769,769,769,769,769,769,769,769,769,769,769,769,769,769,769,769,769,769,769,769,769,769,769,769,769,769,769,769,769,769,769,769,769,769,769,769,769,769,769,769,769,769,769,769,769,769,769,769,769,769,769,769,769,769,769,769,769,769,769,769,769,769,769,769,769,769,769,769,769,769,769,769,769,769,769,769,769,769,769,769,769,769,769,769,769,769,769,769,769,769,769,769,769,769,769,769,769,769,769,769,769,769,769,769,769,769,769,769,769,769,769,769,769,769,769,769,769,769,769,769,769,769,769,769,769,769,769,769,769,769,769,769,769,769,769,769,769,769,769,769,769,769,769,769,769,769,769,769,769,769,769,769,769,769,769,769,769,769,769,769,769,769,769,769,769,769,769,769,769,769,769,769,769,769,769,769,769,769,769,769,769,769,769,769,769,769,769,769,769,769,769,769,769,769,769,769,769,769,769,769,769,769,769,769,769,769,769,769,769,769,769,769,769,769,769,769,769,769,769,769,769,769,769,769,769,769,769,769,769,769,769,769,769,769,769,769,769,769,769,769,769,769,769,769,769,769,769,769,769,769,769,769,769,769,769,769,769,769,769,769,769,769,769,769,769,769,769,769,769,769,769,769,769,769,769,769,769,769,769,769,769,769,769,769,769,769,769,769,769,769,769,769,769,769,769,769,769,769,769,769,769,769,769,769,769,769,769,769,769,769,769,769,769,769,769,769,769,769,769,769,769,769,769,769,769,769,769,769,769,769,769,769,769,769,769,769,769,769,769,769,769,769,769,769,769,769,769,769,769,769,769,769,769,769,769,769,769,769,769,769,769,769,769,769,769,769,769,769,769,769,769,769,769,769,769,769,769,769,769,769,769,769,769,769,769,769,769,769,769,769,769,769,769,769,769,769,769,769,769,769,769,769,769,769,769,769,769,769,769,769,769,769,769,769,769,769,769,769,769,769,769,769,769,769,769,769,769,769,769,769,769,769,769,769,769,769,769,769,769,769,769,769,769,769,769,769,769,769,769,769,769,769,769,769,769,769,769,769,769,769,769,769,769,769,769,769,769,769,769,769,769,769,769,769,769,769,769,769,769,769,769,769,769,769,769,769,769,769,769,769,769,769,769,769,769,769,769,769,769,769,769,769,769,769,769,769,769,769,769,769,769,769,769,769,769,769,769,769,769,769,769,769,769,769,769,769,769,769,769,769,769,769,769,769,769,769,769,769,769,769,769,769,769,769,769,769,769,769,769,769,769,769,769,769,769,769,769,769,769,769,769,769,769,769,769,769,769,769,769,769,769,769,769,769,769,769,769,769,769,769,769,769,769,769,769,769,769,769,769,769,769,769,769,769,769,769,769,769,769,769,769,769,769,769,769,769,769,769,769,769,769,769,769,769,769,769,769,769,769,769,769,769,769,769,769,769,769,769,769,769,769,769,769,769,769,769,769,769,769,769,769,769,769,769,769,769,769,769,769,769,769,769,769,769,769,769,769,769,769,769,769,769,769,769,769,769,769,769,769,769,769,769,769,769,769,769,769,769,769,769,769,769,769,769,769,769,769,769,769,769,769,769,769,769,769,769,769,769,769,769,769,769,769,769,769,769,769,769,769,769,769,769,769,769,769,769,769,769,769,769,769,769,769,769,769,769,769,769,769,769,769,769,769,769,769,769,769,769,769,769,769,769,769,769,769,769,769,769,769,769,769,769,769,769,769,769,769,769,769,769,769,769,769,769,769,769,769,769,769,769,769,769,769,769,769,769,769,769,769,769,769,769,769,769,769,769,769,769,769,769,769,769,769,769,769,769,769,769,769,769,769,769,769,769,769,769,769,769,769,769,769,769,769,769,769,769,769,769,769,769,769,769,769,769,769,769,769,769,769,769,769,769,769,769,769,769,769,769,769,769,769,769,769,769,769,769,769,769,769,769,769,769,769,769,769,769,769,769,769,769,769,769,769,769,769,769,769,769,769,769,769,769,769,769,769,769,769,769,769,769,769,769,769,769,769,769,769,769,769,769,769,769,769,769,769,769,769,769,769,769,769,769,769,769,769,769,769,769,769,769,769,769,769,769,769,769,769,769,769,769,769,769,769,769,769,769,769,769,769,769,769,769,769,769,769,769,769,769,769,769,769,769,769,769,769,769,769,769,769,769,769,769,769,769,769,769,769,769,769,769,769,769,769,769,769,769,769,769,769,769,769,769,769,769,769,769,769,769,769,769,769,769,769,769,769,769,769,769,769,769,769,769,769,769,769,769,769,769,769,769,769,769,769,769,769,769,769,769,769,769,769,769,769,769,769,769,769,769,769,769,769,769,769,769,769,769,769,769,769,769,769,769,769,769,769,769,769,769,769,769,769,769,769,769,769,769,769,769,769,769,769,769,769,769,769,769,769,769,769,769,769,769,769,769,769,769,769,769,769,769,769,769,769,769,769,769,769,769,769,769,769,769,769,769,769,769,769,769,769,769,769,769,769,769,769,769,769,769,769,769,769,769,769,769,769,769,769,769,769,769,769,769,769,769,769,769,769,769,769,769,769,769,769,769,769,769,769,769,769,769,769,769,769,769,769,769,769,769,769,769,769,769,769,769,769,769,769,769,769,769,769,769,769,769,769,769,769,769,769,769,769,769,769,769,769,769,769,769,769,769,797,864,872,874,878,882,885,885,885,885,885,885,885,886,886,873,873,873,873,873,873,873,873,873,896,1007,1047,1108,1143,1162,1187,1190,1195,1205,1205,1205,1205,1205,1205,1205,1205,1205,1205,1205,1205,1205,1039,1041,1049,1059],"ymouse":[514,514,514,514,514,514,514,514,514,514,514,514,514,514,514,514,514,514,514,514,514,514,514,514,514,514,514,514,514,514,514,514,514,514,514,514,514,514,514,514,514,514,514,514,514,514,514,514,514,514,514,514,514,514,514,514,514,514,514,514,514,514,514,514,514,514,514,514,514,514,514,514,514,514,514,514,514,514,514,514,514,514,514,514,514,514,514,514,514,514,514,514,514,514,514,514,514,514,514,514,514,514,514,514,514,514,514,514,514,514,514,514,514,514,514,514,514,514,514,514,514,514,514,514,514,514,514,514,514,514,514,514,514,514,514,514,514,514,514,514,514,514,514,514,514,514,514,514,514,514,514,514,514,514,514,514,514,514,514,514,514,514,514,514,514,514,514,514,514,514,514,514,514,514,514,514,514,514,514,514,514,514,514,514,514,514,514,514,514,514,514,514,514,514,514,514,514,514,514,514,514,514,514,514,514,514,514,514,514,514,514,514,514,514,514,514,514,514,514,514,514,514,514,514,514,514,514,514,514,514,514,514,514,514,514,514,514,514,514,514,514,514,514,514,514,514,514,514,514,514,514,514,514,514,514,514,514,514,514,514,514,514,514,514,514,514,514,514,514,514,514,514,514,514,514,514,514,514,514,514,514,514,514,514,514,514,514,514,514,514,514,514,514,514,514,514,514,514,514,514,514,514,514,514,514,514,514,514,514,514,514,514,514,514,514,514,514,514,514,514,514,514,514,514,514,514,514,514,514,514,514,514,514,514,514,514,514,514,514,514,514,514,514,514,514,514,514,514,514,514,514,514,514,514,514,514,514,514,514,514,514,514,514,514,514,514,514,514,514,514,514,514,514,514,514,514,514,514,514,514,514,514,514,514,514,514,514,514,514,514,514,514,514,514,514,514,514,514,514,514,514,514,514,514,514,514,514,514,514,514,514,514,514,514,514,514,514,514,514,514,514,514,514,514,514,514,514,514,514,514,514,514,514,514,514,514,514,514,514,514,514,514,514,514,514,514,514,514,514,514,514,514,514,514,514,514,514,514,514,514,514,514,514,514,514,514,514,514,514,514,514,514,514,514,514,514,514,514,514,514,514,514,514,514,514,514,514,514,514,514,514,514,514,514,514,514,514,514,514,514,514,514,514,514,514,514,514,514,514,514,514,514,514,514,514,514,514,514,514,514,514,514,514,514,514,514,514,514,514,514,514,514,514,514,514,514,514,514,514,514,514,514,514,514,514,514,514,514,514,514,514,514,514,514,514,514,514,514,514,514,514,514,514,514,514,514,514,514,514,514,514,514,514,514,514,514,514,514,514,514,514,514,514,514,514,514,514,514,514,514,514,514,514,514,514,514,514,514,514,514,514,514,514,514,514,514,514,514,514,514,514,514,514,514,514,514,514,514,514,514,514,514,514,514,514,514,514,514,514,514,514,514,514,514,514,514,514,514,514,514,514,514,514,514,514,514,514,514,514,514,514,514,514,514,514,514,514,514,514,514,514,514,514,514,514,514,514,514,514,514,514,514,514,514,514,514,514,514,514,514,514,514,514,514,514,514,514,514,514,514,514,514,514,514,514,514,514,514,514,514,514,514,514,514,514,514,514,514,514,514,514,514,514,514,514,514,514,514,514,514,514,514,514,514,514,514,514,514,514,514,514,514,514,514,514,514,514,514,514,514,514,514,514,514,514,514,514,514,514,514,514,514,514,514,514,514,514,514,514,514,514,514,514,514,514,514,514,514,514,514,514,514,514,514,514,514,514,514,514,514,514,514,514,514,514,514,514,514,514,514,514,514,514,514,514,514,514,514,514,514,514,514,514,514,514,514,514,514,514,514,514,514,514,514,514,514,514,514,514,514,514,514,514,514,514,514,514,514,514,514,514,514,514,514,514,514,514,514,514,514,514,514,514,514,514,514,514,514,514,514,514,514,514,514,514,514,514,514,514,514,514,514,514,514,514,514,514,514,514,514,514,514,514,514,514,514,514,514,514,514,514,514,514,514,514,514,514,514,514,514,514,514,514,514,514,514,514,514,514,514,514,514,514,514,514,514,514,514,514,514,514,514,514,514,514,514,514,514,514,514,514,514,514,514,514,514,514,514,514,514,514,514,514,514,514,514,514,514,514,514,514,514,514,514,514,514,514,514,514,514,514,514,514,514,514,514,514,514,514,514,514,514,514,514,514,514,514,514,514,514,514,514,514,514,514,514,514,514,514,514,514,514,514,514,514,514,514,514,514,514,514,514,514,514,514,514,514,514,514,514,514,514,514,514,514,514,514,514,514,514,514,514,514,514,514,514,514,514,514,514,514,514,514,514,514,514,514,514,514,514,514,514,514,514,514,514,514,514,514,514,514,514,514,514,514,514,514,514,514,514,514,514,514,514,514,514,514,514,514,514,514,514,514,514,514,514,514,514,514,514,514,514,514,514,514,514,514,514,514,514,514,514,514,514,514,514,514,514,514,514,514,514,514,514,514,514,514,514,514,514,514,514,514,514,514,514,514,514,514,514,514,514,514,514,514,514,514,514,514,514,514,514,514,514,514,514,514,514,514,514,514,514,514,514,514,514,514,514,514,514,514,514,514,514,514,514,514,514,514,514,514,514,514,514,514,514,514,514,514,514,514,514,514,514,514,514,514,514,514,514,514,514,514,514,514,514,514,514,514,514,514,514,514,514,514,514,514,514,514,514,514,514,514,514,514,514,514,514,514,514,514,514,514,514,514,514,514,514,514,514,514,514,514,514,514,514,514,514,514,514,514,514,514,514,514,514,514,514,514,514,514,514,514,514,514,514,514,514,514,514,514,514,514,514,514,514,514,514,514,514,514,514,514,514,514,514,514,514,514,514,514,514,514,514,514,514,514,514,514,514,514,514,514,514,514,514,514,514,514,514,514,514,514,514,514,514,510,508,507,498,475,433,423,418,418,418,418,418,417,417,415,415,415,415,415,415,415,415,415,415,359,315,245,207,181,126,103,72,7,7,7,7,7,7,7,7,7,7,7,7,7,17,28,46,64],"timestamp_mouse":[8,29,49,69,88,109,128,148,170,188,208,228,250,268,288,308,328,349,368,388,409,428,448,468,489,508,528,548,568,588,609,628,648,668,689,708,728,748,769,788,808,829,849,869,888,909,929,948,969,988,1009,1028,1048,1068,1088,1108,1129,1149,1168,1188,1209,1228,1248,1268,1289,1309,1328,1349,1368,1388,1409,1428,1448,1468,1489,1508,1528,1548,1568,1588,1609,1628,1649,1669,1688,1708,1728,1748,1769,1788,1809,1828,1848,1870,1888,1908,1928,1949,1969,1988,2008,2029,2048,2068,2088,2108,2129,2148,2168,2188,2208,2229,2248,2269,2288,2309,2328,2348,2369,2389,2409,2428,2449,2469,2488,2509,2529,2548,2568,2589,2608,2628,2648,2670,2688,2708,2728,2748,2769,2788,2809,2828,2849,2869,2890,2908,2928,2948,2968,2989,3008,3029,3048,3069,3089,3108,3129,3148,3168,3189,3208,3229,3248,3268,3288,3309,3329,3348,3369,3389,3408,3429,3449,3469,3488,3510,3529,3549,3570,3589,3609,3628,3648,3669,3689,3709,3728,3748,3769,3788,3808,3828,3848,3870,3889,3908,3929,3949,3968,3989,4008,4028,4049,4068,4088,4108,4128,4148,4170,4189,4210,4228,4249,4268,4289,4308,4329,4348,4370,4389,4408,4428,4448,4468,4488,4508,4528,4548,4568,4588,4608,4629,4648,4668,4689,4709,4729,4748,4769,4789,4808,4829,4848,4869,4888,4908,4928,4948,4968,4988,5008,5029,5048,5069,5089,5108,5128,5149,5168,5189,5208,5228,5248,5268,5288,5308,5328,5349,5369,5388,5408,5428,5449,5469,5489,5508,5528,5548,5568,5588,5608,5629,5648,5668,5689,5710,5729,5749,5768,5788,5808,5828,5848,5868,5889,5909,5928,5949,5968,5988,6008,6029,6048,6068,6088,6109,6129,6148,6168,6189,6210,6229,6248,6268,6289,6308,6328,6350,6368,6389,6408,6428,6448,6468,6489,6508,6528,6548,6569,6588,6608,6628,6648,6669,6688,6709,6728,6749,6768,6788,6809,6829,6848,6868,6889,6908,6929,6948,6969,6988,7008,7028,7049,7069,7089,7108,7128,7148,7168,7188,7208,7229,7248,7268,7290,7309,7329,7349,7368,7389,7409,7429,7448,7468,7489,7508,7529,7548,7568,7588,7608,7628,7649,7668,7689,7709,7728,7748,7768,7788,7808,7828,7849,7868,7888,7908,7929,7950,7968,7988,8008,8030,8048,8069,8089,8108,8129,8149,8169,8188,8209,8228,8248,8268,8288,8308,8329,8349,8369,8388,8408,8428,8448,8468,8488,8508,8528,8549,8569,8588,8608,8629,8649,8669,8689,8708,8728,8748,8768,8788,8808,8828,8849,8868,8888,8909,8929,8949,8968,8988,9008,9030,9049,9069,9088,9109,9129,9149,9168,9188,9209,9228,9248,9269,9288,9308,9328,9348,9369,9388,9408,9428,9448,9468,9489,9509,9529,9549,9569,9589,9608,9629,9648,9668,9689,9708,9728,9748,9768,9788,9808,9828,9848,9868,9888,9908,9928,9949,9969,9989,10008,10028,10048,10068,10089,10108,10128,10148,10168,10188,10210,10229,10248,10269,10288,10308,10328,10348,10369,10388,10408,10428,10448,10468,10489,10508,10529,10549,10569,10589,10609,10628,10648,10668,10689,10708,10728,10749,10768,10789,10808,10828,10848,10869,10889,10908,10928,10948,10968,10989,11008,11028,11049,11068,11088,11108,11128,11149,11168,11190,11208,11228,11248,11270,11289,11308,11328,11349,11368,11388,11408,11428,11449,11469,11490,11509,11528,11548,11568,11588,11608,11628,11649,11669,11688,11708,11728,11749,11768,11789,11810,11830,11848,11868,11889,11908,11929,11948,11968,11989,12008,12028,12049,12068,12090,12108,12129,12148,12168,12189,12209,12228,12248,12268,12289,12308,12328,12348,12368,12388,12408,12429,12448,12468,12489,12509,12528,12549,12568,12590,12609,12629,12649,12668,12688,12708,12729,12749,12769,12790,12808,12828,12849,12868,12889,12908,12928,12949,12968,12989,13008,13028,13048,13068,13089,13109,13128,13148,13168,13188,13208,13228,13248,13268,13289,13308,13328,13349,13367,13388,13408,13428,13448,13468,13488,13508,13529,13547,13569,13588,13608,13628,13649,13668,13688,13708,13729,13748,13767,13788,13809,13829,13848,13869,13888,13908,13927,13948,13968,13988,14008,14028,14049,14068,14088,14108,14128,14148,14169,14188,14208,14227,142