[{"start_time":1551900522868,"click_time":1551900524341,"finger_time":1551900522882,"fix_duration":1022.2910654988274,"trial":0,"RT":14,"MT":1459,"sideResp":1,"stimulus":"img/900/equaldotanddens/R/12_Ratio_900_L_18_R_20.png","xmouse":[824,824,824,824,824,824,824,824,824,824,824,824,824,824,824,824,824,824,824,824,824,824,824,824,824,824,824,824,823,815,806,800,795,789,788,787,786,786,786,786,786,786,786,786,786,786,786,786,786,786,786,786,786,786,786,786,786,786,786,786,786,786,784,758,742,713,688,670,647,619,581,560,535,492],"ymouse":[558,558,558,558,558,558,558,558,558,558,558,558,558,558,558,558,558,558,558,558,558,558,558,558,558,558,558,558,557,543,527,518,511,502,500,499,497,496,496,496,496,496,496,496,496,496,496,496,496,496,496,496,496,496,496,496,496,496,496,496,496,496,492,465,443,406,365,332,264,209,152,117,82,15],"timestamp_mouse":[14,34,54,73,94,114,134,154,173,193,213,234,253,273,293,313,334,353,373,394,414,434,453,474,493,513,534,554,573,593,613,633,653,673,693,713,733,753,774,794,814,834,854,874,894,915,935,953,974,993,1014,1034,1054,1073,1093,1113,1133,1154,1174,1194,1215,1234,1255,1275,1293,1313,1333,1353,1374,1393,1414,1434,1454,1473],"xSR":741.5,"ySR":481,"xT1":424.9,"yT1":0,"xT2":1058.1,"yT2":0,"toosoon":0,"cond_shown":"equaldotanddens","ratio_trial":900,"smaller_num":"18","larger_num":"20","correct_side":2,"subjID":"JuanMorales16","gender":"0","age":"0","school":"sexto","test":{"fix_dur":[250,1500],"timestim":300,"targets_dim":[100,100],"targets_relative_coord":[0.3,0.7],"size_stim":[880,420],"start_dim":[100,100],"size_start":[300,300],"size_fix":60,"samplingrate":20,"img_types":["equaldotsize","equaldotanddens","randomdotsizeEA"],"ratios":[250,500,750,900],"rep_conds":9,"nTrials":120,"trials_to_rest":500,"Trials_order":[34,5,119,2,35,105,26,25,68,82,41,4,85,49,94,111,90,55,107,54,29,36,56,1,33,67,62,81,114,80,116,45,87,20,118,113,63,75,23,57,104,78,19,102,8,17,58,100,50,108,42,44,16,110,112,39,83,96,60,31,21,91,53,52,46,103,7,71,73,92,88,98,70,13,38,3,15,27,37,77,24,89,74,18,59,9,106,69,64,11,86,12,22,109,79,48,84,72,6,66,97,40,28,117,43,99,47,61,14,65,0,101,51,30,76,32,10,93,115,95],"cond_shown":["equaldotanddens","randomdotsizeEA","randomdotsizeEA","randomdotsizeEA","randomdotsizeEA","equaldotsize","randomdotsizeEA","equaldotanddens","randomdotsizeEA","equaldotanddens","randomdotsizeEA","equaldotanddens","equaldotanddens","equaldotanddens","equaldotanddens","equaldotsize","equaldotsize","equaldotanddens","randomdotsizeEA","equaldotsize","randomdotsizeEA","equaldotsize","randomdotsizeEA","equaldotanddens","equaldotsize","equaldotanddens","randomdotsizeEA","equaldotsize","equaldotsize","randomdotsizeEA","randomdotsizeEA","equaldotsize","equaldotsize","randomdotsizeEA","equaldotanddens","randomdotsizeEA","equaldotsize","equaldotsize","randomdotsizeEA","equaldotsize","randomdotsizeEA","equaldotsize","equaldotanddens","equaldotsize","randomdotsizeEA","randomdotsizeEA","equaldotanddens","equaldotanddens","randomdotsizeEA","equaldotsize","equaldotsize","randomdotsizeEA","equaldotanddens","randomdotsizeEA","equaldotanddens","equaldotsize","randomdotsizeEA","equaldotsize","equaldotsize","equaldotanddens","equaldotsize","equaldotanddens","randomdotsizeEA","equaldotanddens","equaldotanddens","equaldotanddens","equaldotanddens","randomdotsizeEA","equaldotanddens","randomdotsizeEA","equaldotanddens","randomdotsizeEA","equaldotanddens","equaldotanddens","randomdotsizeEA","equaldotsize","equaldotsize","equaldotsize","equaldotanddens","randomdotsizeEA","equaldotsize","randomdotsizeEA","randomdotsizeEA","equaldotsize","randomdotsizeEA","equaldotsize","equaldotanddens","equaldotsize","equaldotanddens","randomdotsizeEA","randomdotsizeEA","equaldotsize","equaldotanddens","equaldotanddens","equaldotanddens","equaldotsize","equaldotsize","equaldotsize","equaldotsize","equaldotsize","equaldotanddens","equaldotanddens","equaldotanddens","equaldotsize","equaldotanddens","equaldotsize","randomdotsizeEA","equaldotanddens","randomdotsizeEA","randomdotsizeEA","equaldotsize","randomdotsizeEA","equaldotsize","equaldotsize","equaldotanddens","randomdotsizeEA","equaldotanddens","equaldotsize","equaldotanddens","randomdotsizeEA"],"ratio_trial":[900,500,900,250,900,900,250,250,750,900,500,500,250,250,900,500,750,750,900,750,500,250,750,250,900,750,250,900,750,750,750,900,500,750,900,500,500,500,900,900,750,750,750,750,750,500,900,500,250,250,750,750,500,250,500,500,900,250,250,750,900,750,500,500,900,750,750,900,250,750,500,250,900,250,250,500,500,500,250,500,250,500,250,750,900,900,900,900,500,900,250,250,900,250,750,250,250,250,750,750,250,500,500,900,750,500,900,250,250,500,250,500,500,750,500,750,900,900,750,900],"smaller_num":["18","9","9","3","9","18","3","3","3","18","4","1","2","6","18","9","15","18","18","15","6","6","3","3","18","3","5","18","9","3","6","9","1","6","18","9","5","1","18","9","15","9","15","6","15","5","9","2","2","3","6","3","2","3","6","10","18","3","3","6","18","9","2","4","18","12","18","18","3","15","9","3","18","3","3","9","10","1","5","10","2","1","2","15","18","18","18","18","9","18","6","2","18","6","18","3","3","3","15","6","4","3","5","18","6","6","18","3","4","1","1","9","2","3","2","3","9","18","3","18"],"larger_num":["20","18","10","12","10","20","12","12","4","20","8","2","8","24","20","18","20","24","20","20","12","24","4","12","20","4","20","20","12","4","8","10","2","8","20","18","10","2","20","10","20","12","20","8","20","10","10","4","8","12","8","4","4","12","12","20","20","12","12","8","20","12","4","8","20","16","24","20","12","20","18","12","20","12","12","18","20","2","20","20","8","2","8","20","20","20","20","20","18","20","24","8","20","24","24","12","12","12","20","8","16","6","10","20","8","12","20","12","16","2","4","18","4","4","4","4","10","20","4","20"],"correct_side":[2,2,2,1,2,2,2,2,2,1,1,2,1,1,2,2,2,1,1,2,1,1,2,1,2,1,2,2,2,2,1,2,2,1,2,2,2,2,1,2,2,2,2,1,1,1,2,2,1,1,2,1,1,1,1,2,1,2,2,1,2,2,1,1,1,2,1,2,2,1,2,2,1,1,1,2,2,2,2,2,1,2,2,2,1,2,1,1,2,1,1,2,2,2,1,1,1,2,2,1,2,2,1,1,1,1,2,2,2,2,2,2,1,1,1,1,1,1,1,1],"img_shown":["img/900/equaldotanddens/R/12_Ratio_900_L_18_R_20.png","img/500/randomdotsizeEA/R/6_Ratio_500_L_9_R_18.png","img/900/randomdotsizeEA/R/3_Ratio_900_L_9_R_10.png","img/250/randomdotsizeEA/L/14_Ratio_250_L_12_R_3.png","img/900/randomdotsizeEA/R/7_Ratio_900_L_9_R_10.png","img/900/equaldotsize/R/11_Ratio_900_L_18_R_20.png","img/250/randomdotsizeEA/R/9_Ratio_250_L_3_R_12.png","img/250/equaldotanddens/R/11_Ratio_250_L_3_R_12.png","img/750/randomdotsizeEA/R/12_Ratio_750_L_3_R_4.png","img/900/equaldotanddens/L/2_Ratio_900_L_20_R_18.png","img/500/randomdotsizeEA/L/8_Ratio_500_L_8_R_4.png","img/500/equaldotanddens/R/12_Ratio_500_L_1_R_2.png","img/250/equaldotanddens/L/3_Ratio_250_L_8_R_2.png","img/250/equaldotanddens/L/5_Ratio_250_L_24_R_6.png","img/900/equaldotanddens/R/12_Ratio_900_L_18_R_20.png","img/500/equaldotsize/R/6_Ratio_500_L_9_R_18.png","img/750/equaldotsize/R/3_Ratio_750_L_15_R_20.png","img/750/equaldotanddens/L/6_Ratio_750_L_24_R_18.png","img/900/randomdotsizeEA/L/4_Ratio_900_L_20_R_18.png","img/750/equaldotsize/R/4_Ratio_750_L_15_R_20.png","img/500/randomdotsizeEA/L/13_Ratio_500_L_12_R_6.png","img/250/equaldotsize/L/5_Ratio_250_L_24_R_6.png","img/750/randomdotsizeEA/R/7_Ratio_750_L_3_R_4.png","img/250/equaldotanddens/L/14_Ratio_250_L_12_R_3.png","img/900/equaldotsize/R/14_Ratio_900_L_18_R_20.png","img/750/equaldotanddens/L/10_Ratio_750_L_4_R_3.png","img/250/randomdotsizeEA/R/12_Ratio_250_L_5_R_20.png","img/900/equaldotsize/R/11_Ratio_900_L_18_R_20.png","img/750/equaldotsize/R/15_Ratio_750_L_9_R_12.png","img/750/randomdotsizeEA/R/12_Ratio_750_L_3_R_4.png","img/750/randomdotsizeEA/L/13_Ratio_750_L_8_R_6.png","img/900/equaldotsize/R/15_Ratio_900_L_9_R_10.png","img/500/equaldotsize/R/15_Ratio_500_L_1_R_2.png","img/750/randomdotsizeEA/L/13_Ratio_750_L_8_R_6.png","img/900/equaldotanddens/R/9_Ratio_900_L_18_R_20.png","img/500/randomdotsizeEA/R/6_Ratio_500_L_9_R_18.png","img/500/equaldotsize/R/14_Ratio_500_L_5_R_10.png","img/500/equaldotsize/R/15_Ratio_500_L_1_R_2.png","img/900/randomdotsizeEA/L/10_Ratio_900_L_20_R_18.png","img/900/equaldotsize/R/3_Ratio_900_L_9_R_10.png","img/750/randomdotsizeEA/R/3_Ratio_750_L_15_R_20.png","img/750/equaldotsize/R/15_Ratio_750_L_9_R_12.png","img/750/equaldotanddens/R/5_Ratio_750_L_15_R_20.png","img/750/equaldotsize/L/14_Ratio_750_L_8_R_6.png","img/750/randomdotsizeEA/L/1_Ratio_750_L_20_R_15.png","img/500/randomdotsizeEA/L/7_Ratio_500_L_10_R_5.png","img/900/equaldotanddens/R/3_Ratio_900_L_9_R_10.png","img/500/equaldotanddens/R/9_Ratio_500_L_2_R_4.png","img/250/randomdotsizeEA/L/1_Ratio_250_L_8_R_2.png","img/250/equaldotsize/L/15_Ratio_250_L_12_R_3.png","img/750/equaldotsize/R/2_Ratio_750_L_6_R_8.png","img/750/randomdotsizeEA/L/8_Ratio_750_L_4_R_3.png","img/500/equaldotanddens/L/10_Ratio_500_L_4_R_2.png","img/250/randomdotsizeEA/L/15_Ratio_250_L_12_R_3.png","img/500/equaldotanddens/L/13_Ratio_500_L_12_R_6.png","img/500/equaldotsize/R/3_Ratio_500_L_10_R_20.png","img/900/randomdotsizeEA/L/2_Ratio_900_L_20_R_18.png","img/250/equaldotsize/R/9_Ratio_250_L_3_R_12.png","img/250/equaldotsize/R/9_Ratio_250_L_3_R_12.png","img/750/equaldotanddens/L/14_Ratio_750_L_8_R_6.png","img/900/equaldotsize/R/9_Ratio_900_L_18_R_20.png","img/750/equaldotanddens/R/15_Ratio_750_L_9_R_12.png","img/500/randomdotsizeEA/L/10_Ratio_500_L_4_R_2.png","img/500/equaldotanddens/L/8_Ratio_500_L_8_R_4.png","img/900/equaldotanddens/L/2_Ratio_900_L_20_R_18.png","img/750/equaldotanddens/R/11_Ratio_750_L_12_R_16.png","img/750/equaldotanddens/L/6_Ratio_750_L_24_R_18.png","img/900/randomdotsizeEA/R/9_Ratio_900_L_18_R_20.png","img/250/equaldotanddens/R/4_Ratio_250_L_3_R_12.png","img/750/randomdotsizeEA/L/1_Ratio_750_L_20_R_15.png","img/500/equaldotanddens/R/6_Ratio_500_L_9_R_18.png","img/250/randomdotsizeEA/R/9_Ratio_250_L_3_R_12.png","img/900/equaldotanddens/L/2_Ratio_900_L_20_R_18.png","img/250/equaldotanddens/L/15_Ratio_250_L_12_R_3.png","img/250/randomdotsizeEA/L/14_Ratio_250_L_12_R_3.png","img/500/equaldotsize/R/1_Ratio_500_L_9_R_18.png","img/500/equaldotsize/R/3_Ratio_500_L_10_R_20.png","img/500/equaldotsize/R/15_Ratio_500_L_1_R_2.png","img/250/equaldotanddens/R/12_Ratio_250_L_5_R_20.png","img/500/randomdotsizeEA/R/3_Ratio_500_L_10_R_20.png","img/250/equaldotsize/L/7_Ratio_250_L_8_R_2.png","img/500/randomdotsizeEA/R/15_Ratio_500_L_1_R_2.png","img/250/randomdotsizeEA/R/13_Ratio_250_L_2_R_8.png","img/750/equaldotsize/R/4_Ratio_750_L_15_R_20.png","img/900/randomdotsizeEA/L/2_Ratio_900_L_20_R_18.png","img/900/equaldotsize/R/13_Ratio_900_L_18_R_20.png","img/900/equaldotanddens/L/4_Ratio_900_L_20_R_18.png","img/900/equaldotsize/L/10_Ratio_900_L_20_R_18.png","img/500/equaldotanddens/R/6_Ratio_500_L_9_R_18.png","img/900/randomdotsizeEA/L/8_Ratio_900_L_20_R_18.png","img/250/randomdotsizeEA/L/5_Ratio_250_L_24_R_6.png","img/250/equaldotsize/R/13_Ratio_250_L_2_R_8.png","img/900/equaldotanddens/R/11_Ratio_900_L_18_R_20.png","img/250/equaldotanddens/R/6_Ratio_250_L_6_R_24.png","img/750/equaldotanddens/L/6_Ratio_750_L_24_R_18.png","img/250/equaldotsize/L/15_Ratio_250_L_12_R_3.png","img/250/equaldotsize/L/14_Ratio_250_L_12_R_3.png","img/250/equaldotsize/R/4_Ratio_250_L_3_R_12.png","img/750/equaldotsize/R/4_Ratio_750_L_15_R_20.png","img/750/equaldotsize/L/14_Ratio_750_L_8_R_6.png","img/250/equaldotanddens/R/10_Ratio_250_L_4_R_16.png","img/500/equaldotanddens/R/2_Ratio_500_L_3_R_6.png","img/500/equaldotanddens/L/7_Ratio_500_L_10_R_5.png","img/900/equaldotsize/L/2_Ratio_900_L_20_R_18.png","img/750/equaldotanddens/L/14_Ratio_750_L_8_R_6.png","img/500/equaldotsize/L/13_Ratio_500_L_12_R_6.png","img/900/randomdotsizeEA/R/12_Ratio_900_L_18_R_20.png","img/250/equaldotanddens/R/4_Ratio_250_L_3_R_12.png","img/250/randomdotsizeEA/R/10_Ratio_250_L_4_R_16.png","img/500/randomdotsizeEA/R/15_Ratio_500_L_1_R_2.png","img/250/equaldotsize/R/8_Ratio_250_L_1_R_4.png","img/500/randomdotsizeEA/R/1_Ratio_500_L_9_R_18.png","img/500/equaldotsize/L/5_Ratio_500_L_4_R_2.png","img/750/equaldotsize/L/9_Ratio_750_L_4_R_3.png","img/500/equaldotanddens/L/5_Ratio_500_L_4_R_2.png","img/750/randomdotsizeEA/L/9_Ratio_750_L_4_R_3.png","img/900/equaldotanddens/L/1_Ratio_900_L_10_R_9.png","img/900/equaldotsize/L/2_Ratio_900_L_20_R_18.png","img/750/equaldotanddens/L/8_Ratio_750_L_4_R_3.png","img/900/randomdotsizeEA/L/4_Ratio_900_L_20_R_18.png"],"Rat0":[["12_Ratio_0_L_9_R_0.png","13_Ratio_0_L_6_R_0.png","5_Ratio_0_L_2_R_0.png","6_Ratio_0_L_4_R_0.png","8_Ratio_0_L_6_R_0.png"],["1_Ratio_0_L_0_R_17.png","10_Ratio_0_L_0_R_22.png","11_Ratio_0_L_0_R_1.png","14_Ratio_0_L_0_R_24.png","15_Ratio_0_L_0_R_4.png","2_Ratio_0_L_0_R_5.png","3_Ratio_0_L_0_R_17.png","4_Ratio_0_L_0_R_7.png","7_Ratio_0_L_0_R_19.png","9_Ratio_0_L_0_R_15.png"]],"Rat250":[["1_Ratio_250_L_8_R_2.png","14_Ratio_250_L_12_R_3.png","15_Ratio_250_L_12_R_3.png","2_Ratio_250_L_16_R_4.png","3_Ratio_250_L_8_R_2.png","5_Ratio_250_L_24_R_6.png","7_Ratio_250_L_8_R_2.png"],["10_Ratio_250_L_4_R_16.png","11_Ratio_250_L_3_R_12.png","12_Ratio_250_L_5_R_20.png","13_Ratio_250_L_2_R_8.png","4_Ratio_250_L_3_R_12.png","6_Ratio_250_L_6_R_24.png","8_Ratio_250_L_1_R_4.png","9_Ratio_250_L_3_R_12.png"]],"Rat500":[["10_Ratio_500_L_4_R_2.png","11_Ratio_500_L_12_R_6.png","13_Ratio_500_L_12_R_6.png","4_Ratio_500_L_18_R_9.png","5_Ratio_500_L_4_R_2.png","7_Ratio_500_L_10_R_5.png","8_Ratio_500_L_8_R_4.png"],["1_Ratio_500_L_9_R_18.png","12_Ratio_500_L_1_R_2.png","14_Ratio_500_L_5_R_10.png","15_Ratio_500_L_1_R_2.png","2_Ratio_500_L_3_R_6.png","3_Ratio_500_L_10_R_20.png","6_Ratio_500_L_9_R_18.png","9_Ratio_500_L_2_R_4.png"]],"Rat750":[["1_Ratio_750_L_20_R_15.png","10_Ratio_750_L_4_R_3.png","13_Ratio_750_L_8_R_6.png","14_Ratio_750_L_8_R_6.png","6_Ratio_750_L_24_R_18.png","8_Ratio_750_L_4_R_3.png","9_Ratio_750_L_4_R_3.png"],["11_Ratio_750_L_12_R_16.png","12_Ratio_750_L_3_R_4.png","15_Ratio_750_L_9_R_12.png","2_Ratio_750_L_6_R_8.png","3_Ratio_750_L_15_R_20.png","4_Ratio_750_L_15_R_20.png","5_Ratio_750_L_15_R_20.png","7_Ratio_750_L_3_R_4.png"]],"Rat900":[["1_Ratio_900_L_10_R_9.png","10_Ratio_900_L_20_R_18.png","2_Ratio_900_L_20_R_18.png","4_Ratio_900_L_20_R_18.png","8_Ratio_900_L_20_R_18.png"],["11_Ratio_900_L_18_R_20.png","12_Ratio_900_L_18_R_20.png","13_Ratio_900_L_18_R_20.png","14_Ratio_900_L_18_R_20.png","15_Ratio_900_L_9_R_10.png","3_Ratio_900_L_9_R_10.png","5_Ratio_900_L_9_R_10.png","6_Ratio_900_L_9_R_10.png","7_Ratio_900_L_9_R_10.png","9_Ratio_900_L_18_R_20.png"]],"Rat1000":[["10_Ratio_1000_L_16_R_16.png","11_Ratio_1000_L_6_R_6.png","12_Ratio_1000_L_14_R_14.png","13_Ratio_1000_L_20_R_20.png","15_Ratio_1000_L_15_R_15.png","2_Ratio_1000_L_17_R_17.png","4_Ratio_1000_L_9_R_9.png","5_Ratio_1000_L_6_R_6.png","6_Ratio_1000_L_19_R_19.png","8_Ratio_1000_L_14_R_14.png","9_Ratio_1000_L_25_R_25.png"],["1_Ratio_1000_L_1_R_1.png","14_Ratio_1000_L_17_R_17.png","3_Ratio_1000_L_17_R_17.png","7_Ratio_1000_L_6_R_6.png"]]}},{"start_time":1551900527562,"click_time":1551900529043,"finger_time":1551900528481,"fix_duration":759.9576020285805,"trial":1,"RT":919,"MT":562,"sideResp":2,"stimulus":"img/500/randomdotsizeEA/R/6_Ratio_500_L_9_R_18.png","xmouse":[774,774,774,774,774,774,774,774,774,774,774,774,774,774,774,774,774,774,774,774,774,774,774,774,774,774,774,774,774,774,774,774,774,774,774,774,774,774,774,774,775,779,786,797,801,818,827,837,849,855,865,874,884,898,920,925,932,950,955,979,986,990,995,1000,1005,1016,1019,1020,1020,1021,1022,1029,1043,1055,1064],"ymouse":[540,540,540,540,540,540,540,540,540,540,540,540,540,540,540,540,540,540,540,540,540,540,540,540,540,540,540,540,540,540,540,540,540,540,540,540,540,540,540,541,541,540,534,520,504,464,446,424,393,377,346,327,309,289,247,229,213,182,168,106,90,75,62,54,47,41,41,41,41,41,41,43,50,56,62],"timestamp_mouse":[1,19,52,60,80,99,120,140,160,180,199,219,239,259,280,299,320,340,360,380,400,419,439,459,479,499,520,539,559,579,599,619,640,659,680,699,721,739,759,780,799,819,841,861,879,899,919,940,960,979,999,1020,1040,1059,1081,1099,1119,1139,1161,1180,1199,1219,1239,1259,1280,1299,1320,1339,1359,1380,1399,1420,1439,1459,1480],"xSR":741.5,"ySR":449.15000000000003,"xT1":424.9,"yT1":0,"xT2":1058.1,"yT2":0,"toosoon":0,"cond_shown":"randomdotsizeEA","ratio_trial":500,"smaller_num":"9","larger_num":"18","correct_side":2,"subjID":"JuanMorales16","gender":"0","age":"0","school":"sexto"},{"start_time":1551900530152,"click_time":1551900531223,"finger_time":1551900530862,"fix_duration":250,"trial":2,"RT":710,"MT":361,"sideResp":2,"stimulus":"img/900/randomdotsizeEA/R/3_Ratio_900_L_9_R_10.png","xmouse":[784,784,784,784,784,784,784,784,784,784,784,784,784,784,784,784,784,784,784,784,784,784,784,784,784,784,784,784,784,784,784,784,789,797,813,869,891,913,927,944,977,990,999,1004,1009,1009,1013,1017,1020,1024,1033,1046,1060,1070],"ymouse":[501,501,501,501,501,501,501,501,501,501,501,501,501,501,501,501,501,501,501,501,501,501,501,501,501,501,501,501,501,501,501,501,493,484,466,410,387,358,338,318,274,255,242,233,224,218,208,195,186,176,144,121,103,90],"timestamp_mouse":[12,29,49,69,89,110,130,150,170,189,209,229,249,270,291,310,330,349,370,390,410,430,449,470,490,509,530,549,569,589,609,629,649,669,689,710,729,749,770,789,809,830,850,869,891,909,930,949,970,991,1009,1029,1049,1071],"xSR":741.5,"ySR":449.15000000000003,"xT1":424.9,"yT1":0,"xT2":1058.1,"yT2":0,"toosoon":0,"cond_shown":"randomdotsizeEA","ratio_trial":900,"smaller_num":"9","larger_num":"10","correct_side":2,"subjID":"JuanMorales16","gender":"0","age":"0","school":"sexto"},{"start_time":1551900532093,"click_time":1551900533301,"finger_time":1551900532701,"fix_duration":250,"trial":3,"RT":608,"MT":600,"sideResp":1,"stimulus":"img/250/randomdotsizeEA/L/14_Ratio_250_L_12_R_3.png","xmouse":[787,787,787,787,787,787,787,787,787,787,787,787,787,787,787,787,787,787,787,787,787,787,787,787,787,787,787,787,787,771,709,606,514,439,432,429,408,398,382,368,364,364,364,371,377,386,395,402,413,415,417,419,422,423,423,423,422,422,422,422,427],"ymouse":[522,522,522,522,522,522,522,522,522,522,522,522,522,522,522,522,522,522,522,522,522,522,522,522,522,522,522,522,522,524,507,477,452,422,411,402,383,376,346,324,316,309,301,284,275,261,249,238,211,192,179,163,145,113,100,89,82,80,80,80,79],"timestamp_mouse":[9,34,49,69,89,109,129,148,168,188,208,228,248,268,288,309,328,348,368,388,408,429,449,468,489,508,529,548,569,589,608,629,648,669,688,709,729,748,768,789,808,828,848,869,888,909,928,949,968,990,1009,1028,1048,1068,1088,1108,1128,1149,1168,1189,1208],"xSR":741.5,"ySR":449.15000000000003,"xT1":424.9,"yT1":0,"xT2":1058.1,"yT2":0,"toosoon":0,"cond_shown":"randomdotsizeEA","ratio_trial":250,"smaller_num":"3","larger_num":"12","correct_side":1,"subjID":"JuanMorales16","gender":"0","age":"0","school":"sexto"},{"start_time":1551900534615,"click_time":1551900535442,"finger_time":1551900535122,"fix_duration":412.69814482172285,"trial":4,"RT":507,"MT":320,"sideResp":2,"stimulus":"img/900/randomdotsizeEA/R/7_Ratio_900_L_9_R_10.png","xmouse":[796,796,796,796,796,796,796,796,796,796,796,796,796,796,796,796,796,796,796,796,796,796,796,796,810,850,899,977,992,996,999,1003,1007,1020,1036,1048,1052,1052,1052,1053,1055,1061],"ymouse":[538,538,538,538,538,538,538,538,538,538,538,538,538,538,538,538,538,538,538,538,538,538,538,538,529,496,452,362,331,311,294,271,242,215,179,151,132,111,106,103,99,93],"timestamp_mouse":[9,37,46,67,87,108,127,146,166,187,206,226,247,268,287,307,327,347,367,386,406,427,447,466,487,507,527,547,566,586,606,628,647,666,687,706,726,747,766,786,807,827],"xSR":741.5,"ySR":449.15000000000003,"xT1":424.9,"yT1":0,"xT2":1058.1,"yT2":0,"toosoon":0,"cond_shown":"randomdotsizeEA","ratio_trial":900,"smaller_num":"9","larger_num":"10","correct_side":2,"subjID":"JuanMorales16","gender":"0","age":"0","school":"sexto"},{"start_time":1551900537658,"click_time":1551900538681,"finger_time":1551900538321,"fix_duration":1236.1501313894398,"trial":5,"RT":663,"MT":360,"sideResp":2,"stimulus":"img/900/equaldotsize/R/11_Ratio_900_L_18_R_20.png","xmouse":[809,809,809,809,809,809,810,810,810,809,809,805,805,805,804,804,804,804,804,804,804,804,804,804,804,804,804,804,804,804,804,804,813,837,881,997,1043,1069,1082,1088,1090,1092,1094,1097,1098,1100,1100,1100,1100,1100,1100,1100],"ymouse":[526,526,526,526,526,526,525,525,524,524,523,519,519,519,518,518,518,518,518,518,518,518,518,518,518,518,518,518,518,518,515,499,478,442,390,287,249,227,215,208,203,200,193,184,179,170,149,138,121,110,100,90],"timestamp_mouse":[14,26,44,64,84,104,123,144,163,183,203,223,244,264,283,305,324,344,364,383,404,425,444,463,483,503,524,544,564,584,603,623,643,663,684,704,723,744,763,784,805,823,844,863,883,905,924,945,964,984,1003,1023],"xSR":741.5,"ySR":449.15000000000003,"xT1":424.9,"yT1":0,"xT2":1058.1,"yT2":0,"toosoon":0,"cond_shown":"equaldotsize","ratio_trial":900,"smaller_num":"18","larger_num":"20","correct_side":2,"subjID":"JuanMorales16","gender":"0","age":"0","school":"sexto"},{"start_time":1551900541187,"click_time":1551900542481,"finger_time":1551900541962,"fix_duration":1383.7685236323255,"trial":6,"RT":775,"MT":519,"sideResp":2,"stimulus":"img/250/randomdotsizeEA/R/9_Ratio_250_L_3_R_12.png","xmouse":[789,789,789,789,789,789,789,789,789,789,789,789,789,789,789,789,789,789,789,789,789,789,789,789,789,789,789,789,789,789,789,789,789,789,780,769,758,751,748,741,741,741,741,743,766,787,830,898,973,1083,1089,1093,1099,1104,1116,1122,1126,1132,1135,1134,1134,1134,1133,1132,1130],"ymouse":[503,503,503,503,503,503,503,503,503,503,503,503,503,503,503,503,503,503,503,503,503,503,503,503,503,503,503,503,503,503,503,503,503,503,497,480,464,451,444,433,432,432,432,431,429,426,413,390,363,296,281,268,253,239,201,179,161,142,127,109,108,107,105,103,97],"timestamp_mouse":[14,38,54,75,95,115,134,154,174,194,214,236,255,274,295,314,336,355,374,394,415,435,455,474,494,514,534,555,575,596,616,634,655,675,695,714,734,755,775,795,816,834,855,875,894,914,934,954,974,995,1014,1034,1055,1074,1094,1114,1135,1155,1176,1195,1215,1235,1255,1275,1294],"xSR":741.5,"ySR":449.15000000000003,"xT1":424.9,"yT1":0,"xT2":1058.1,"yT2":0,"toosoon":0,"cond_shown":"randomdotsizeEA","ratio_trial":250,"smaller_num":"3","larger_num":"12","correct_side":2,"subjID":"JuanMorales16","gender":"0","age":"0","school":"sexto"},{"start_time":1551900545812,"click_time":1551900547662,"finger_time":1551900546461,"fix_duration":1107.779558226984,"trial":7,"RT":649,"MT":1201,"sideResp":2,"stimulus":"img/250/equaldotanddens/R/11_Ratio_250_L_3_R_12.png","xmouse":[812,812,812,812,812,812,812,812,812,812,812,812,812,812,812,812,812,812,812,812,812,812,812,812,812,812,812,812,812,812,821,830,859,919,1007,1028,1036,1042,1044,1045,1045,1046,1049,1056,1058,1058,1058,1058,1058,1058,1058,1058,1058,1058,1058,1058,1058,1058,1058,1058,1058,1058,1058,1058,1058,1058,1058,1062,1084,1085,1085,1085,1085,1085,1085,1085,1085,1085,1085,1085,1085,1085,1085,1085,1085,1085,1086,1095,1109,1131,1140,1140,1141],"ymouse":[493,493,493,493,493,493,493,493,493,493,493,493,493,493,493,493,493,493,493,493,493,493,493,493,493,493,493,493,493,493,481,467,435,389,328,309,297,287,280,278,277,273,263,243,230,218,205,195,186,185,184,182,180,178,178,178,178,178,178,178,178,178,178,178,178,179,184,199,230,230,230,230,230,230,230,230,230,230,230,230,230,230,230,230,230,230,234,240,242,205,152,103,62],"timestamp_mouse":[9,37,50,70,90,110,129,149,169,190,210,229,249,270,289,309,331,349,371,389,409,429,449,470,489,510,529,549,569,589,610,629,649,669,689,711,731,749,771,789,810,830,850,871,889,909,930,950,970,989,1010,1030,1050,1071,1089,1110,1130,1149,1169,1189,1209,1229,1249,1271,1290,1310,1329,1349,1371,1389,1411,1429,1449,1470,1489,1509,1529,1549,1571,1589,1609,1629,1650,1670,1690,1710,1729,1749,1769,1790,1810,1829,1850],"xSR":741.5,"ySR":449.15000000000003,"xT1":424.9,"yT1":0,"xT2":1058.1,"yT2":0,"toosoon":0,"cond_shown":"equaldotanddens","ratio_trial":250,"smaller_num":"3","larger_num":"12","correct_side":2,"subjID":"JuanMorales16","gender":"0","age":"0","school":"sexto"},{"start_time":1551900551146,"click_time":1551900553521,"finger_time":1551900552341,"fix_duration":1263.465660409305,"trial":8,"RT":1195,"MT":1180,"sideResp":1,"stimulus":"img/750/randomdotsizeEA/R/12_Ratio_750_L_3_R_4.png","xmouse":[810,810,810,810,810,810,810,810,810,810,810,810,810,810,810,810,810,810,810,810,810,810,810,810,810,810,810,810,810,810,810,810,810,810,810,810,810,810,810,810,810,810,810,810,810,810,810,810,810,810,810,810,810,810,810,808,806,790,772,766,766,765,765,764,764,764,764,764,766,766,766,766,766,766,766,766,766,771,792,797,799,799,799,799,799,799,799,799,799,799,799,799,799,793,783,766,730,586,530,473,424,375,318,318,318,318,318,318,318,318,318,318,318,318,318,318,318,406,425],"ymouse":[506,506,506,506,506,506,506,506,506,506,506,506,506,506,506,506,506,506,506,506,506,506,506,506,506,506,506,506,506,506,506,506,506,506,506,506,506,506,506,506,506,506,506,506,506,506,506,506,506,506,506,506,506,506,506,505,503,483,450,435,431,425,422,421,421,421,421,421,419,419,419,419,419,419,419,421,424,440,469,476,479,479,480,480,480,480,480,480,480,480,480,480,480,480,482,482,462,354,306,244,183,117,23,23,23,23,23,23,23,23,23,23,23,23,23,23,23,2,17],"timestamp_mouse":[17,37,56,76,96,116,135,155,175,195,215,235,255,275,295,316,336,355,375,396,415,435,455,475,496,516,535,556,576,595,615,636,655,676,695,715,735,756,776,795,817,836,857,875,895,916,936,956,976,995,1016,1035,1055,1075,1095,1115,1135,1156,1175,1195,1215,1237,1255,1276,1295,1315,1336,1356,1376,1395,1416,1436,1455,1477,1496,1516,1536,1555,1575,1595,1616,1635,1655,1675,1696,1716,1736,1756,1776,1796,1817,1835,1855,1875,1895,1917,1936,1956,1975,1996,2015,2036,2056,2076,2096,2115,2136,2156,2176,2195,2216,2235,2255,2276,2295,2316,2337,2357,2375],"xSR":741.5,"ySR":449.15000000000003,"xT1":424.9,"yT1":0,"xT2":1058.1,"yT2":0,"toosoon":0,"cond_shown":"randomdotsizeEA","ratio_trial":750,"smaller_num":"3","larger_num":"4","correct_side":2,"subjID":"JuanMorales16","gender":"0","age":"0","school":"sexto"},{"start_time":1551900592362,"click_time":1551900593422,"finger_time":1551900593081,"fix_duration":1459.6269184833066,"trial":9,"RT":719,"MT":341,"sideResp":1,"stimulus":"img/900/equaldotanddens/L/2_Ratio_900_L_20_R_18.png","xmouse":[757,757,757,757,757,757,757,757,757,757,757,757,757,757,757,757,757,757,757,757,757,757,757,757,757,757,757,757,757,757,757,757,757,757,751,746,731,620,588,559,530,508,467,451,435,423,409,396,397,402,408,411,422,430],"ymouse":[501,501,501,501,501,501,501,501,501,501,501,501,501,501,501,501,501,501,501,501,501,501,501,501,501,501,501,501,501,501,501,501,501,501,501,501,499,443,423,401,372,341,270,241,212,189,167,136,126,117,110,106,89,81],"timestamp_mouse":[9,21,40,61,79,101,120,140,160,179,200,220,239,259,280,300,320,339,359,379,400,421,439,459,479,500,521,540,561,580,600,619,640,661,681,700,719,739,760,780,799,820,840,860,880,900,921,939,960,979,999,1019,1039,1060],"xSR":741.5,"ySR":449.15000000000003,"xT1":424.9,"yT1":0,"xT2":1058.1,"yT2":0,"toosoon":0,"cond_shown":"equaldotanddens","ratio_trial":900,"smaller_num":"18","larger_num":"20","correct_side":1,"subjID":"JuanMorales16","gender":"0","age":"0","school":"sexto"},{"start_time":1551900594602,"click_time":1551900595981,"finger_time":1551900595422,"fix_duration":438.03001508557804,"trial":10,"RT":820,"MT":559,"sideResp":1,"stimulus":"img/500/randomdotsizeEA/L/8_Ratio_500_L_8_R_4.png","xmouse":[801,801,801,801,801,801,801,801,801,801,801,801,801,801,801,801,801,801,801,801,801,801,801,801,801,801,801,801,801,801,801,801,801,801,801,801,801,801,801,794,763,737,709,685,655,591,547,500,467,450,434,429,424,408,390,382,382,382,389,396,402,409,411,412,412,413,413,414,418,426],"ymouse":[493,493,493,493,493,493,493,493,493,493,493,493,493,493,493,493,493,493,493,493,493,493,493,493,493,493,493,493,493,493,493,493,493,493,493,493,493,493,493,493,493,493,493,489,476,436,406,379,359,345,322,313,295,257,212,178,163,150,122,95,75,52,48,46,46,46,46,45,45,47],"timestamp_mouse":[1,19,39,59,79,99,119,139,159,180,200,219,239,259,280,301,320,340,360,379,400,420,440,459,480,500,521,540,559,581,599,620,639,659,679,699,720,740,760,779,799,820,840,860,879,900,921,940,959,981,1000,1019,1040,1061,1081,1100,1119,1139,1159,1179,1200,1220,1240,1260,1279,1300,1320,1339,1359,1379],"xSR":741.5,"ySR":449.15000000000003,"xT1":424.9,"yT1":0,"xT2":1058.1,"yT2":0,"toosoon":0,"cond_shown":"randomdotsizeEA","ratio_trial":500,"smaller_num":"4","larger_num":"8","correct_side":1,"subjID":"JuanMorales16","gender":"0","age":"0","school":"sexto"},{"start_time":1551900597715,"click_time":1551900599083,"finger_time":1551900598661,"fix_duration":852.7373911343664,"trial":11,"RT":946,"MT":422,"sideResp":2,"stimulus":"img/500/equaldotanddens/R/12_Ratio_500_L_1_R_2.png","xmouse":[804,804,804,804,804,804,804,804,804,804,804,804,804,804,804,804,804,804,804,804,804,804,804,804,804,804,804,804,804,804,804,804,804,804,804,804,804,804,804,804,804,804,804,804,804,804,806,820,834,860,875,889,906,925,961,980,1000,1024,1045,1075,1107,1118,1124,1125,1126,1127,1127,1127,1127],"ymouse":[474,474,474,474,474,474,474,474,474,474,474,474,474,474,474,474,474,474,474,474,475,475,475,475,475,475,475,475,475,475,475,475,475,475,475,475,475,475,475,475,475,475,475,475,475,472,464,440,421,387,368,347,328,305,264,245,229,214,198,172,146,137,129,125,120,118,113,107,99],"timestamp_mouse":[9,26,46,68,86,107,127,147,166,186,206,226,246,267,287,306,327,346,366,386,406,426,446,467,487,507,527,547,567,587,606,626,646,667,687,706,726,746,767,787,806,827,847,866,887,906,927,946,966,988,1006,1026,1047,1066,1087,1106,1126,1148,1167,1186,1208,1227,1247,1268,1287,1306,1327,1346,1368],"xSR":741.5,"ySR":449.15000000000003,"xT1":424.9,"yT1":0,"xT2":1058.1,"yT2":0,"toosoon":0,"cond_shown":"equaldotanddens","ratio_trial":500,"smaller_num":"1","larger_num":"2","correct_side":2,"subjID":"JuanMorales16","gender":"0","age":"0","school":"sexto"},{"start_time":1551900599973,"click_time":1551900600962,"finger_time":1551900600601,"fix_duration":250,"trial":12,"RT":628,"MT":361,"sideResp":1,"stimulus":"img/250/equaldotanddens/L/3_Ratio_250_L_8_R_2.png","xmouse":[760,760,760,760,760,760,760,760,760,760,760,760,760,760,760,760,760,760,760,760,760,760,760,760,760,760,760,760,760,759,753,730,631,509,428,372,354,348,348,347,345,345,348,363,378,388,408,418,424,425],"ymouse":[496,496,496,496,496,496,496,496,496,496,496,496,496,496,496,496,496,496,496,496,496,496,496,496,496,496,496,496,496,496,493,477,431,345,277,210,179,143,124,108,94,83,73,63,56,51,44,42,41,41],"timestamp_mouse":[8,30,57,69,90,109,130,148,168,188,209,229,248,269,289,309,329,349,369,389,408,428,448,470,489,509,529,549,569,589,609,628,649,670,689,709,728,749,769,789,810,830,848,869,888,910,930,948,968,989],"xSR":741.5,"ySR":449.15000000000003,"xT1":424.9,"yT1":0,"xT2":1058.1,"yT2":0,"toosoon":0,"cond_shown":"equaldotanddens","ratio_trial":250,"smaller_num":"2","larger_num":"8","correct_side":1,"subjID":"JuanMorales16","gender":"0","age":"0","school":"sexto"},{"start_time":1551900602758,"click_time":1551900604361,"finger_time":1551900603281,"fix_duration":855.5901819072885,"trial":13,"RT":523,"MT":1080,"sideResp":1,"stimulus":"img/250/equaldotanddens/L/5_Ratio_250_L_24_R_6.png","xmouse":[775,775,775,775,775,775,775,775,775,775,775,775,775,775,775,775,775,775,775,775,775,775,775,774,764,751,740,729,697,683,677,673,667,651,647,647,646,631,582,549,502,434,374,327,321,320,320,320,324,330,333,336,337,337,337,339,341,344,348,352,357,368,382,402,402,402,402,402,402,402,402,402,402,402,402,402,402,402,402,402,433],"ymouse":[481,481,481,481,481,481,481,481,481,481,481,481,481,481,481,481,481,481,481,481,481,481,481,481,482,482,484,484,484,481,476,471,457,394,376,358,344,318,252,214,167,117,79,37,27,24,24,24,24,24,24,24,24,24,24,24,24,24,24,24,24,22,18,2,2,2,2,2,2,2,2,2,2,2,2,2,2,2,2,2,3],"timestamp_mouse":[9,23,43,64,84,104,124,143,165,183,203,223,244,264,285,303,324,343,363,384,403,423,444,463,483,503,523,544,563,584,604,625,644,664,684,704,724,744,764,783,803,824,844,863,884,903,924,945,964,984,1003,1023,1043,1065,1084,1105,1125,1144,1164,1184,1203,1223,1243,1263,1284,1303,1323,1343,1363,1383,1403,1423,1443,1464,1484,1504,1524,1544,1564,1583,1603],"xSR":741.5,"ySR":449.15000000000003,"xT1":424.9,"yT1":0,"xT2":1058.1,"yT2":0,"toosoon":0,"cond_shown":"equaldotanddens","ratio_trial":250,"smaller_num":"6","larger_num":"24","correct_side":1,"subjID":"JuanMorales16","gender":"0","age":"0","school":"sexto"},{"start_time":1551900606799,"click_time":1551900608082,"finger_time":1551900607741,"fix_duration":1297.0185273251177,"trial":14,"RT":942,"MT":341,"sideResp":2,"stimulus":"img/900/equaldotanddens/R/12_Ratio_900_L_18_R_20.png","xmouse":[773,773,773,773,773,773,773,773,773,773,773,773,773,773,773,773,773,773,773,773,773,773,773,773,773,773,773,773,773,773,773,773,773,773,773,773,774,773,764,757,754,751,751,754,761,771,780,828,849,898,971,1019,1028,1038,1038,1038,1038,1038,1038,1038,1038,1038,1038,1038,1153],"ymouse":[484,484,484,484,484,484,484,484,484,484,484,484,484,484,484,484,484,484,484,484,484,484,484,484,484,484,484,484,484,484,484,484,484,484,484,484,483,482,474,470,469,468,468,468,467,465,456,351,306,213,92,32,20,6,6,6,6,6,6,6,6,6,6,6,30],"timestamp_mouse":[2,29,43,64,83,103,123,143,163,184,202,222,243,263,282,303,324,343,364,382,402,423,442,462,484,503,522,543,563,583,603,623,642,663,683,702,722,742,762,782,802,822,842,862,882,902,922,942,963,982,1003,1026,1042,1063,1082,1102,1123,1143,1163,1183,1203,1224,1243,1263,1283],"xSR":741.5,"ySR":449.15000000000003,"xT1":424.9,"yT1":0,"xT2":1058.1,"yT2":0,"toosoon":0,"cond_shown":"equaldotanddens","ratio_trial":900,"smaller_num":"18","larger_num":"20","correct_side":2,"subjID":"JuanMorales16","gender":"0","age":"0","school":"sexto"},{"start_time":1551900610044,"click_time":1551900611403,"finger_time":1551900610822,"fix_duration":1220.9116138997397,"trial":15,"RT":778,"MT":581,"sideResp":2,"stimulus":"img/500/equaldotsize/R/6_Ratio_500_L_9_R_18.png","xmouse":[794,794,794,794,793,793,793,793,793,793,793,793,793,793,793,793,793,793,793,793,793,793,793,793,793,793,793,793,792,792,792,792,792,792,792,792,793,797,806,838,859,888,920,955,1006,1042,1066,1085,1098,1118,1120,1129,1134,1134,1133,1127,1126,1124,1124,1123,1123,1123,1122,1122,1122,1122,1121,1121],"ymouse":[497,497,496,494,492,489,488,486,486,486,486,486,486,486,486,486,486,486,486,486,486,486,486,486,486,486,484,481,479,478,478,478,478,478,478,472,465,453,436,392,371,346,318,289,244,220,206,193,181,152,150,135,124,120,115,111,110,108,108,107,107,107,106,106,106,105,101,98],"timestamp_mouse":[19,38,58,78,98,119,137,157,177,197,217,239,258,278,297,317,337,357,377,397,418,438,457,478,498,517,538,558,577,598,618,638,657,677,698,717,738,758,778,798,819,838,858,878,897,917,937,959,977,997,1017,1038,1058,1078,1097,1118,1138,1157,1177,1197,1218,1238,1259,1278,1298,1318,1337,1358],"xSR":741.5,"ySR":449.15000000000003,"xT1":424.9,"yT1":0,"xT2":1058.1,"yT2":0,"toosoon":0,"cond_shown":"equaldotsize","ratio_trial":500,"smaller_num":"9","larger_num":"18","correct_side":2,"subjID":"JuanMorales16","gender":"0","age":"0","school":"sexto"},{"start_time":1551900614480,"click_time":1551900615543,"finger_time":1551900615141,"fix_duration":934.8871783920433,"trial":16,"RT":661,"MT":402,"sideResp":1,"stimulus":"img/750/equaldotsize/R/3_Ratio_750_L_15_R_20.png","xmouse":[770,770,770,770,770,770,770,770,770,770,770,770,770,770,770,770,770,770,770,770,770,770,770,770,770,770,770,770,770,769,766,761,749,731,701,690,687,684,680,659,653,645,635,624,619,608,597,589,581,569,552,526,509,495],"ymouse":[479,479,479,479,479,479,479,479,479,479,479,479,479,479,479,479,479,479,479,479,479,479,479,479,479,479,479,479,479,479,479,479,479,468,422,405,395,374,337,259,237,215,194,178,173,169,167,164,160,150,137,120,106,84],"timestamp_mouse":[7,23,41,61,81,101,122,142,161,181,202,221,241,262,281,301,322,343,362,382,403,421,441,461,481,502,522,542,561,582,601,623,641,661,682,701,723,741,762,781,803,823,843,863,881,901,922,941,963,982,1001,1021,1042,1063],"xSR":741.5,"ySR":449.15000000000003,"xT1":424.9,"yT1":0,"xT2":1058.1,"yT2":0,"toosoon":0,"cond_shown":"equaldotsize","ratio_trial":750,"smaller_num":"15","larger_num":"20","correct_side":2,"subjID":"JuanMorales16","gender":"0","age":"0","school":"sexto"},{"start_time":1551900616896,"click_time":1551900618382,"finger_time":1551900618002,"fix_duration":413.8535159535204,"trial":17,"RT":1106,"MT":380,"sideResp":2,"stimulus":"img/750/equaldotanddens/L/6_Ratio_750_L_24_R_18.png","xmouse":[829,829,829,829,829,829,829,829,829,829,829,829,829,829,829,829,829,829,829,829,829,829,829,829,829,829,829,829,829,829,829,829,829,829,829,829,829,829,829,829,829,829,829,829,829,829,829,829,829,829,829,829,829,829,829,844,869,955,1167,1271,1341,1361,1394,1407,1418,1427,1431,1431,1419,1409,1337,1260,1151,1128,1118],"ymouse":[471,471,471,471,471,471,471,471,471,471,471,471,471,471,471,471,471,471,471,471,471,471,471,471,471,471,471,471,471,471,471,471,471,471,471,471,471,471,471,471,471,471,471,471,471,471,471,471,471,471,471,471,471,471,471,467,449,394,286,231,200,190,170,158,148,138,131,122,116,113,107,105,105,101,98],"timestamp_mouse":[9,25,45,65,86,106,127,145,165,186,205,226,247,265,285,305,326,345,365,386,406,426,446,466,486,505,526,546,566,586,606,626,645,666,686,705,726,746,766,786,806,825,845,865,885,905,926,946,966,985,1006,1026,1046,1066,1085,1106,1126,1146,1167,1186,1207,1225,1247,1265,1286,1306,1326,1347,1365,1386,1406,1425,1447,1466,1486],"xSR":741.5,"ySR":449.15000000000003,"xT1":424.9,"yT1":0,"xT2":1058.1,"yT2":0,"toosoon":0,"cond_shown":"equaldotanddens","ratio_trial":750,"smaller_num":"18","larger_num":"24","correct_side":1,"subjID":"JuanMorales16","gender":"0","age":"0","school":"sexto"},{"start_time":1551900619622,"click_time":1551900622341,"finger_time":1551900621902,"fix_duration":339.8660816076714,"trial":18,"RT":2280,"MT":439,"sideResp":1,"stimulus":"img/900/randomdotsizeEA/L/4_Ratio_900_L_20_R_18.png","xmouse":[796,796,796,796,796,796,796,796,796,796,796,796,796,796,796,796,796,796,796,796,796,796,796,796,796,796,796,796,796,796,796,796,796,796,796,796,796,796,796,796,796,796,796,796,796,796,796,796,796,796,796,796,796,796,796,796,796,796,796,796,796,796,796,796,796,796,796,796,796,796,796,796,796,796,796,796,796,796,796,796,796,796,796,796,796,796,796,796,796,796,796,796,796,796,796,796,796,796,796,796,796,796,796,796,796,796,796,796,796,796,796,796,796,786,741,703,679,654,637,609,589,583,583,584,585,585,585,585,579,575,569,566,546,538,529,525,522],"ymouse":[517,517,517,517,517,517,517,517,517,517,517,517,517,517,517,517,517,517,517,517,517,517,517,517,517,517,517,517,517,517,517,517,517,517,517,517,517,517,517,517,517,517,517,517,517,517,517,517,517,517,517,517,517,517,517,517,517,517,517,517,517,517,517,517,517,517,517,517,517,517,517,517,517,517,517,517,517,517,517,517,517,517,517,517,517,517,517,517,517,517,517,517,517,517,517,517,517,517,517,517,517,517,517,517,517,517,517,517,517,517,517,517,517,494,447,416,395,369,336,293,265,256,255,253,249,242,235,212,194,179,162,148,94,77,63,57,53],"timestamp_mouse":[1,20,39,66,80,101,120,141,159,180,201,220,239,259,279,299,321,341,360,379,399,419,440,460,479,500,521,540,560,579,600,619,639,660,681,699,719,740,760,780,799,819,839,860,879,901,920,939,959,980,1000,1020,1040,1060,1080,1100,1119,1139,1159,1179,1200,1220,1239,1259,1279,1299,1319,1340,1359,1381,1400,1420,1440,1460,1480,1499,1519,1541,1560,1580,1599,1620,1639,1659,1679,1700,1719,1739,1759,1779,1799,1820,1840,1860,1879,1899,1920,1940,1960,1979,2000,2020,2039,2059,2079,2100,2120,2139,2159,2179,2199,2220,2240,2259,2280,2300,2319,2339,2360,2379,2399,2419,2440,2459,2480,2501,2519,2539,2560,2579,2599,2619,2640,2659,2679,2699,2719],"xSR":741.5,"ySR":449.15000000000003,"xT1":424.9,"yT1":0,"xT2":1058.1,"yT2":0,"toosoon":0,"cond_shown":"randomdotsizeEA","ratio_trial":900,"smaller_num":"18","larger_num":"20","correct_side":1,"subjID":"JuanMorales16","gender":"0","age":"0","school":"sexto"},{"start_time":1551900625230,"click_time":1551900627242,"finger_time":1551900626081,"fix_duration":745.4400765018667,"trial":19,"RT":851,"MT":1161,"sideResp":2,"stimulus":"img/750/equaldotsize/R/4_Ratio_750_L_15_R_20.png","xmouse":[764,764,765,765,765,765,765,765,765,765,765,765,765,765,765,765,765,765,765,765,765,765,765,768,771,776,778,778,778,778,778,778,778,780,781,781,782,782,783,785,785,785,786,783,781,781,781,781,783,786,790,794,798,802,817,860,910,1040,1112,1235,1308,1409,1443,1462,1462,1462,1462,1462,1462,1462,1462,1462,1462,1462,1462,1462,1462,1462,1462,1462,1462,1462,1462,1462,1462,1462,1462,1462,1462,1462,1462,1462,1218,1210,1205,1203,1201,1187,1179,1163,1146],"ymouse":[507,507,507,507,507,507,507,507,507,507,507,507,507,507,507,507,507,507,507,507,507,507,507,507,507,507,506,505,505,505,505,505,505,504,502,501,499,495,493,483,473,464,428,401,380,362,346,323,319,318,317,315,315,315,313,302,286,237,206,156,119,52,26,7,7,7,7,7,7,7,7,7,7,7,7,7,7,7,7,7,7,7,7,7,7,7,7,7,7,7,7,7,3,7,8,9,11,17,19,23,26],"timestamp_mouse":[11,32,53,72,92,111,132,152,171,192,211,231,251,273,292,312,332,351,371,392,411,431,451,471,492,511,532,552,572,591,611,632,652,673,691,711,732,752,771,791,812,832,851,871,892,911,931,951,971,992,1012,1031,1051,1071,1092,1111,1131,1151,1172,1192,1211,1233,1252,1273,1292,1312,1333,1352,1372,1392,1412,1431,1452,1472,1491,1511,1532,1552,1572,1593,1611,1631,1651,1672,1692,1712,1733,1751,1772,1792,1812,1833,1851,1872,1891,1912,1932,1951,1972,1992,2012],"xSR":741.5,"ySR":449.15000000000003,"xT1":424.9,"yT1":0,"xT2":1058.1,"yT2":0,"toosoon":0,"cond_shown":"equaldotsize","ratio_trial":750,"smaller_num":"15","larger_num":"20","correct_side":2,"subjID":"JuanMorales16","gender":"0","age":"0","school":"sexto"},{"start_time":1551900630587,"click_time":1551900631942,"finger_time":1551900631442,"fix_duration":1244.3606865332335,"trial":20,"RT":855,"MT":500,"sideResp":2,"stimulus":"img/500/randomdotsizeEA/L/13_Ratio_500_L_12_R_6.png","xmouse":[774,774,774,774,774,774,774,774,774,774,774,774,774,774,774,774,774,774,774,774,774,774,774,774,774,774,774,774,774,774,774,774,774,774,774,774,774,774,774,791,814,835,852,868,902,919,938,959,977,1017,1031,1045,1059,1074,1090,1124,1137,1147,1153,1157,1158,1158,1158,1159,1159,1159,1159,1152],"ymouse":[476,476,476,476,476,476,476,476,476,476,476,476,476,476,476,476,476,476,476,476,476,476,476,476,476,476,476,476,476,476,476,476,476,476,476,476,476,476,476,473,470,466,463,459,442,431,422,409,399,371,357,342,325,307,287,234,207,185,165,133,130,129,129,126,100,78,53,28],"timestamp_mouse":[16,43,55,74,94,114,134,155,175,195,215,235,255,274,294,315,336,355,374,395,414,434,454,474,500,514,535,555,574,595,615,635,654,675,695,715,735,755,775,795,814,834,855,874,894,914,935,956,974,995,1015,1035,1055,1074,1095,1114,1134,1154,1175,1195,1214,1234,1255,1275,1295,1314,1335,1355],"xSR":741.5,"ySR":449.15000000000003,"xT1":424.9,"yT1":0,"xT2":1058.1,"yT2":0,"toosoon":0,"cond_shown":"randomdotsizeEA","ratio_trial":500,"smaller_num":"6","larger_num":"12","correct_side":1,"subjID":"JuanMorales16","gender":"0","age":"0","school":"sexto"},{"start_time":1551900635713,"click_time":1551900637282,"finger_time":1551900636542,"fix_duration":409.0284584040472,"trial":21,"RT":829,"MT":740,"sideResp":1,"stimulus":"img/250/equaldotsize/L/5_Ratio_250_L_24_R_6.png","xmouse":[805,805,805,805,805,805,805,805,805,805,805,805,805,805,805,805,805,805,805,805,805,805,805,805,805,805,805,805,805,805,805,805,805,805,805,805,805,805,805,782,746,711,695,690,686,680,659,626,608,564,541,530,526,522,503,500,496,492,491,489,489,489,489,489,489,489,489,489,489,488,488,488,488,488,488,488,488,488,488],"ymouse":[503,503,503,503,503,503,503,503,503,503,503,503,503,503,503,503,503,503,503,503,503,503,503,503,503,503,503,503,503,503,503,503,503,503,503,503,503,503,503,499,481,468,461,458,456,449,413,375,356,279,242,228,219,209,190,184,176,169,163,155,155,153,151,145,131,125,121,117,115,111,109,107,107,107,107,107,104,102,98],"timestamp_mouse":[9,38,48,69,88,108,128,149,168,189,209,229,248,269,290,309,328,349,368,389,408,428,449,470,488,508,528,549,569,589,608,629,650,668,690,708,728,749,768,788,808,829,848,868,888,908,929,948,969,989,1008,1029,1048,1068,1089,1109,1129,1149,1168,1188,1209,1229,1249,1269,1289,1309,1329,1349,1369,1389,1409,1429,1448,1468,1488,1508,1529,1548,1569],"xSR":741.5,"ySR":449.15000000000003,"xT1":424.9,"yT1":0,"xT2":1058.1,"yT2":0,"toosoon":0,"cond_shown":"equaldotsize","ratio_trial":250,"smaller_num":"6","larger_num":"24","correct_side":1,"subjID":"JuanMorales16","gender":"0","age":"0","school":"sexto"},{"start_time":1551900638635,"click_time":1551900639902,"finger_time":1551900639381,"fix_duration":250,"trial":22,"RT":746,"MT":521,"sideResp":2,"stimulus":"img/750/randomdotsizeEA/R/7_Ratio_750_L_3_R_4.png","xmouse":[796,796,796,796,796,796,796,796,796,796,796,796,796,796,796,796,796,796,796,796,796,796,796,796,796,796,796,796,796,796,796,796,796,796,796,796,796,817,864,892,918,949,1017,1017,1017,1017,1017,1017,1017,1017,1017,1017,1017,1017,1017,1017,1017,1017,1017,1017,1017,1017,1017,1116],"ymouse":[530,530,530,530,530,530,530,530,530,530,530,530,530,530,530,530,530,530,530,530,530,530,530,530,530,530,530,530,530,530,530,530,530,530,530,518,497,449,355,291,226,146,19,19,19,19,19,19,19,19,19,19,19,19,19,19,19,19,19,19,19,19,19,2],"timestamp_mouse":[9,33,48,68,87,107,127,147,166,187,207,227,246,266,286,307,326,346,366,387,406,426,447,467,486,506,528,546,566,587,607,626,646,668,687,706,726,746,766,787,806,826,848,867,888,906,926,947,968,988,1007,1027,1047,1068,1087,1107,1127,1147,1167,1186,1208,1226,1246,1267],"xSR":741.5,"ySR":449.15000000000003,"xT1":424.9,"yT1":0,"xT2":1058.1,"yT2":0,"toosoon":0,"cond_shown":"randomdotsizeEA","ratio_trial":750,"smaller_num":"3","larger_num":"4","correct_side":2,"subjID":"JuanMorales16","gender":"0","age":"0","school":"sexto"},{"start_time":1551900641271,"click_time":1551900642022,"finger_time":1551900641882,"fix_duration":667.6613943225609,"trial":23,"RT":611,"MT":140,"sideResp":1,"stimulus":"img/250/equaldotanddens/L/14_Ratio_250_L_12_R_3.png","xmouse":[775,775,775,775,775,775,775,775,775,775,775,775,775,775,775,775,775,775,775,775,775,775,775,775,775,775,775,775,775,763,714,639,610,583,568,555,518,504],"ymouse":[512,512,512,512,512,512,512,512,512,512,512,512,512,512,512,512,512,512,512,512,512,512,512,512,512,512,512,512,512,499,435,314,264,219,188,160,108,91],"timestamp_mouse":[12,31,60,70,90,112,131,150,170,190,211,232,250,270,290,310,330,352,371,390,410,430,451,470,491,510,530,551,571,591,611,632,650,672,690,711,731,750],"xSR":741.5,"ySR":449.15000000000003,"xT1":424.9,"yT1":0,"xT2":1058.1,"yT2":0,"toosoon":0,"cond_shown":"equaldotanddens","ratio_trial":250,"smaller_num":"3","larger_num":"12","correct_side":1,"subjID":"JuanMorales16","gender":"0","age":"0","school":"sexto"},{"start_time":1551900643810,"click_time":1551900644482,"finger_time":1551900644322,"fix_duration":727.4206487287354,"trial":24,"RT":512,"MT":160,"sideResp":2,"stimulus":"img/900/equaldotsize/R/14_Ratio_900_L_18_R_20.png","xmouse":[809,809,809,809,809,809,809,809,809,809,809,809,809,809,809,809,809,809,809,809,809,809,809,809,814,837,864,903,942,982,994,1013,1048,1079],"ymouse":[483,483,483,483,483,483,483,483,483,483,483,483,483,483,483,483,483,483,483,483,483,483,483,483,477,443,395,333,281,219,195,170,125,89],"timestamp_mouse":[11,31,53,71,91,113,132,151,171,191,212,231,251,272,291,311,331,351,372,392,411,431,452,472,491,512,532,551,571,594,611,631,651,672],"xSR":741.5,"ySR":449.15000000000003,"xT1":424.9,"yT1":0,"xT2":1058.1,"yT2":0,"toosoon":0,"cond_shown":"equaldotsize","ratio_trial":900,"smaller_num":"18","larger_num":"20","correct_side":2,"subjID":"JuanMorales16","gender":"0","age":"0","school":"sexto"},{"start_time":1551900646805,"click_time":1551900648261,"finger_time":1551900647561,"fix_duration":1081.1914279968125,"trial":25,"RT":756,"MT":700,"sideResp":1,"stimulus":"img/750/equaldotanddens/L/10_Ratio_750_L_4_R_3.png","xmouse":[805,805,805,805,805,805,805,805,805,805,805,805,805,804,803,803,803,803,803,803,803,803,803,803,803,803,803,803,803,803,803,803,803,799,796,773,750,720,687,650,581,533,462,406,379,349,340,334,330,322,313,311,311,311,312,313,315,321,334,349,370,374,377,378,378,380,380,380,380,381,403,422,454],"ymouse":[486,486,486,486,486,486,486,485,485,485,485,485,485,484,484,484,484,484,484,484,484,484,484,484,484,484,484,484,484,484,484,484,484,483,483,479,478,476,471,457,421,396,359,327,301,252,231,211,194,172,140,123,110,99,94,93,91,90,86,83,83,84,85,85,85,85,85,85,85,84,68,56,43],"timestamp_mouse":[17,38,56,77,96,116,137,157,177,196,217,237,258,277,297,318,337,357,378,398,416,437,458,476,496,516,536,557,577,596,616,636,657,677,697,716,737,756,777,797,817,837,856,876,897,917,937,957,978,997,1016,1036,1056,1076,1096,1116,1137,1157,1177,1198,1217,1238,1257,1278,1297,1316,1336,1356,1377,1396,1417,1436,1456],"xSR":741.5,"ySR":449.15000000000003,"xT1":424.9,"yT1":0,"xT2":1058.1,"yT2":0,"toosoon":0,"cond_shown":"equaldotanddens","ratio_trial":750,"smaller_num":"3","larger_num":"4","correct_side":1,"subjID":"JuanMorales16","gender":"0","age":"0","school":"sexto"},{"start_time":1551900649314,"click_time":1551900650441,"finger_time":1551900650122,"fix_duration":250,"trial":26,"RT":808,"MT":319,"sideResp":2,"stimulus":"img/250/randomdotsizeEA/R/12_Ratio_250_L_5_R_20.png","xmouse":[808,808,808,808,808,808,808,808,808,808,808,808,808,808,808,808,808,808,808,808,808,808,808,808,808,808,808,808,808,808,808,808,808,808,808,808,808,808,814,818,851,880,921,976,991,998,1000,1000,1000,1000,1001,1003,1006,1010,1023,1043,1083],"ymouse":[481,481,481,481,481,481,481,481,481,481,481,481,481,481,481,481,481,481,481,481,481,481,481,481,481,481,481,481,481,481,481,481,481,481,481,481,481,481,474,463,379,309,232,146,123,109,101,101,101,101,100,98,96,95,89,82,63],"timestamp_mouse":[12,35,48,67,88,108,128,148,169,187,208,228,248,267,287,308,328,348,367,387,409,428,447,468,488,507,527,548,567,588,607,627,647,668,688,708,727,748,767,789,808,827,848,867,887,909,928,948,968,987,1009,1027,1049,1068,1087,1108,1127],"xSR":741.5,"ySR":449.15000000000003,"xT1":424.9,"yT1":0,"xT2":1058.1,"yT2":0,"toosoon":0,"cond_shown":"randomdotsizeEA","ratio_trial":250,"smaller_num":"5","larger_num":"20","correct_side":2,"subjID":"JuanMorales16","gender":"0","age":"0","school":"sexto"},{"start_time":1551900652568,"click_time":1551900653863,"finger_time":1551900653401,"fix_duration":1306.302748360748,"trial":27,"RT":833,"MT":462,"sideResp":2,"stimulus":"img/900/equaldotsize/R/11_Ratio_900_L_18_R_20.png","xmouse":[781,781,781,781,781,781,781,781,781,781,781,781,781,781,781,781,781,781,781,781,781,781,781,781,781,781,781,781,781,781,781,781,780,773,771,769,768,767,755,751,745,741,739,737,735,735,735,739,771,783,828,865,903,992,1014,1020,1020,1020,1020,1020,1020,1020,1020,1020,1065],"ymouse":[513,513,513,513,513,513,513,513,513,513,513,513,513,513,513,513,513,513,513,513,513,513,513,513,513,513,513,513,513,513,513,513,514,508,506,504,501,498,483,478,472,469,468,463,456,441,416,381,269,246,182,144,110,31,9,1,1,1,1,1,1,1,1,1,3],"timestamp_mouse":[13,37,55,75,93,113,134,153,174,194,213,234,254,274,294,313,335,353,374,394,413,433,453,474,494,514,533,553,574,594,614,634,654,675,694,713,733,754,774,793,814,833,853,873,894,913,933,954,974,993,1013,1033,1053,1073,1094,1113,1133,1153,1173,1194,1214,1234,1254,1273,1295],"xSR":741.5,"ySR":449.15000000000003,"xT1":424.9,"yT1":0,"xT2":1058.1,"yT2":0,"toosoon":0,"cond_shown":"equaldotsize","ratio_trial":900,"smaller_num":"18","larger_num":"20","correct_side":2,"subjID":"JuanMorales16","gender":"0","age":"0","school":"sexto"},{"start_time":1551900654774,"click_time":1551900655822,"finger_time":1551900655622,"fix_duration":250,"trial":28,"RT":848,"MT":200,"sideResp":2,"stimulus":"img/750/equaldotsize/R/15_Ratio_750_L_9_R_12.png","xmouse":[796,795,790,786,774,771,771,771,771,771,771,771,771,771,771,771,771,771,771,771,771,771,771,771,771,771,771,771,771,771,771,771,771,771,771,771,771,771,771,771,777,789,831,926,961,983,993,1000,1021,1034,1046,1055,1059],"ymouse":[459,458,459,460,464,466,466,466,466,466,466,466,466,466,466,466,466,466,466,466,466,466,466,466,466,466,466,466,466,466,466,466,466,466,466,466,466,466,466,466,464,452,408,288,243,206,188,172,125,102,81,67,60],"timestamp_mouse":[8,28,47,67,88,107,128,147,167,188,207,228,248,267,288,308,327,348,368,388,409,427,447,467,488,507,528,548,569,588,607,627,648,668,687,707,727,748,768,788,808,828,848,867,888,907,928,947,967,988,1009,1028,1048],"xSR":741.5,"ySR":449.15000000000003,"xT1":424.9,"yT1":0,"xT2":1058.1,"yT2":0,"toosoon":0,"cond_shown":"equaldotsize","ratio_trial":750,"smaller_num":"9","larger_num":"12","correct_side":2,"subjID":"JuanMorales16","gender":"0","age":"0","school":"sexto"},{"start_time":1551900657886,"click_time":1551900659421,"finger_time":1551900658941,"fix_duration":1063.019763781657,"trial":29,"RT":1055,"MT":480,"sideResp":2,"stimulus":"img/750/randomdotsizeEA/R/12_Ratio_750_L_3_R_4.png","xmouse":[801,801,801,801,801,801,801,801,801,801,801,801,801,801,801,801,801,801,801,801,801,801,801,801,801,801,801,801,801,801,801,801,801,801,801,801,801,801,801,805,813,816,817,817,817,817,817,817,817,817,819,824,860,921,943,965,982,1009,1017,1026,1036,1046,1047,1048,1049,1053,1057,1063,1066,1068,1070,1071,1074,1075,1075,1077,1078],"ymouse":[502,502,502,502,502,502,502,502,502,502,502,502,502,502,502,502,502,502,502,502,502,502,502,502,502,502,502,502,502,502,502,502,502,502,502,502,502,502,497,490,475,471,470,469,469,469,469,469,469,469,468,461,415,349,329,312,298,271,259,246,234,219,216,216,214,209,196,162,148,139,131,126,117,111,106,101,97],"timestamp_mouse":[16,36,55,76,95,116,135,155,176,196,216,235,255,276,297,317,335,356,377,395,415,435,456,476,495,515,536,556,575,595,615,636,655,676,695,715,736,755,775,796,816,835,855,875,895,917,935,955,976,996,1015,1035,1055,1075,1095,1115,1135,1157,1175,1196,1216,1235,1256,1275,1296,1316,1336,1357,1375,1395,1415,1436,1457,1475,1495,1515,1535],"xSR":741.5,"ySR":449.15000000000003,"xT1":424.9,"yT1":0,"xT2":1058.1,"yT2":0,"toosoon":0,"cond_shown":"randomdotsizeEA","ratio_trial":750,"smaller_num":"3","larger_num":"4","correct_side":2,"subjID":"JuanMorales16","gender":"0","age":"0","school":"sexto"},{"start_time":1551900660614,"click_time":1551900661761,"finger_time":1551900661381,"fix_duration":250,"trial":30,"RT":767,"MT":380,"sideResp":1,"stimulus":"img/750/randomdotsizeEA/L/13_Ratio_750_L_8_R_6.png","xmouse":[794,792,792,792,792,792,792,792,792,792,792,792,792,792,792,792,792,792,792,792,792,792,792,792,792,792,792,792,792,792,792,792,792,792,792,792,776,750,735,721,709,699,680,664,652,638,630,606,591,578,569,552,545,538,535,530,526,520],"ymouse":[490,492,492,492,492,492,492,492,492,492,492,492,492,492,492,492,492,492,492,492,492,492,492,492,492,492,492,492,492,492,492,492,492,492,492,492,485,462,446,431,414,397,366,342,320,295,275,231,207,187,170,140,129,119,114,106,99,89],"timestamp_mouse":[8,40,48,68,87,108,127,148,167,187,208,227,247,267,287,309,336,348,368,388,407,428,447,468,487,507,527,547,567,587,608,628,648,668,687,707,728,748,767,789,807,827,847,867,887,907,927,947,967,987,1007,1029,1047,1068,1088,1107,1127,1147],"xSR":741.5,"ySR":449.15000000000003,"xT1":424.9,"yT1":0,"xT2":1058.1,"yT2":0,"toosoon":0,"cond_shown":"randomdotsizeEA","ratio_trial":750,"smaller_num":"6","larger_num":"8","correct_side":1,"subjID":"JuanMorales16","gender":"0","age":"0","school":"sexto"},{"start_time":1551900662974,"click_time":1551900664381,"finger_time":1551900663661,"fix_duration":470.9243569724571,"trial":31,"RT":687,"MT":720,"sideResp":1,"stimulus":"img/900/equaldotsize/R/15_Ratio_900_L_9_R_10.png","xmouse":[772,772,772,772,772,772,772,772,772,772,772,772,772,772,772,772,772,772,772,772,772,772,772,772,772,772,772,772,772,772,772,775,784,818,935,954,959,959,959,959,959,959,959,959,959,959,958,944,923,864,840,825,817,813,793,782,774,764,756,741,737,733,726,717,673,648,624,583,528,454,432],"ymouse":[505,505,505,505,505,505,505,505,505,505,505,505,505,505,505,505,505,505,505,505,505,505,505,505,505,505,505,505,505,505,505,504,495,467,391,380,377,377,377,377,377,377,377,377,377,377,377,377,377,377,381,383,383,382,371,365,359,352,345,330,325,322,315,305,263,246,228,201,172,113,95],"timestamp_mouse":[9,34,48,68,87,108,127,148,168,188,208,227,247,267,288,307,328,347,367,387,407,427,447,467,488,507,527,547,567,587,607,628,648,667,687,709,727,748,769,788,808,827,848,867,888,907,927,947,968,987,1009,1028,1049,1068,1087,1107,1127,1149,1167,1187,1207,1228,1249,1268,1288,1308,1327,1347,1369,1387,1407],"xSR":741.5,"ySR":449.15000000000003,"xT1":424.9,"yT1":0,"xT2":1058.1,"yT2":0,"toosoon":0,"cond_shown":"equaldotsize","ratio_trial":900,"smaller_num":"9","larger_num":"10","correct_side":2,"subjID":"JuanMorales16","gender":"0","age":"0","school":"sexto"},{"start_time":1551900666196,"click_time":1551900668181,"finger_time":1551900667781,"fix_duration":1013.1264891561929,"trial":32,"RT":1585,"MT":400,"sideResp":2,"stimulus":"img/500/equaldotsize/R/15_Ratio_500_L_1_R_2.png","xmouse":[767,767,767,767,767,767,767,767,767,767,767,767,767,767,767,767,767,767,767,767,767,767,767,767,767,767,767,767,767,767,767,767,767,767,767,767,767,767,767,767,767,767,767,767,767,767,767,767,767,767,767,767,767,767,767,767,767,767,767,767,767,767,767,767,767,767,767,767,767,767,767,767,767,767,767,767,767,767,767,770,783,788,806,828,836,843,845,845,845,846,852,867,905,957,983,1003,1015,1026,1052,1065],"ymouse":[458,458,458,458,458,458,458,458,458,458,458,458,458,458,458,458,458,458,458,458,458,458,458,458,458,458,458,458,458,458,458,458,458,458,458,458,458,458,458,458,458,458,458,458,458,458,458,458,458,458,458,458,458,458,458,458,458,458,458,458,458,458,458,458,458,458,458,458,458,458,458,458,458,458,458,458,458,458,458,407,318,289,199,137,123,115,112,112,112,111,111,111,111,119,120,120,119,113,85,66],"timestamp_mouse":[13,25,45,65,85,107,125,145,165,185,205,226,247,265,286,307,326,347,367,385,405,426,445,465,485,506,526,545,565,585,605,626,645,665,686,707,726,745,765,786,805,825,846,865,885,905,926,945,965,986,1005,1025,1046,1066,1086,1106,1126,1145,1165,1185,1206,1225,1245,1265,1286,1306,1325,1346,1365,1385,1405,1425,1446,1466,1486,1505,1525,1545,1565,1585,1605,1625,1646,1666,1685,1706,1727,1746,1766,1786,1807,1826,1846,1866,1885,1905,1925,1946,1967,1985],"xSR":741.5,"ySR":449.15000000000003,"xT1":424.9,"yT1":0,"xT2":1058.1,"yT2":0,"toosoon":0,"cond_shown":"equaldotsize","ratio_trial":500,"smaller_num":"1","larger_num":"2","correct_side":2,"subjID":"JuanMorales16","gender":"0","age":"0","school":"sexto"},{"start_time":1551900724339,"click_time":1551900725561,"finger_time":1551900725161,"fix_duration":1256.960063848347,"trial":33,"RT":822,"MT":400,"sideResp":1,"stimulus":"img/750/randomdotsizeEA/L/13_Ratio_750_L_8_R_6.png","xmouse":[813,813,813,813,813,813,813,813,813,813,813,813,813,813,813,813,813,813,813,813,813,813,813,813,813,813,813,813,813,813,813,813,813,813,813,813,813,813,813,813,813,813,811,792,780,769,758,748,710,689,674,661,647,624,605,583,564,555,554,550,533,508],"ymouse":[512,512,512,512,512,512,512,512,512,512,512,512,512,512,512,512,512,512,512,512,512,512,512,512,512,512,512,512,512,512,512,512,512,512,512,512,512,512,512,511,490,414,359,306,290,277,262,250,209,190,176,163,150,114,80,49,27,20,19,19,19,19],"timestamp_mouse":[12,22,42,63,83,103,122,142,163,182,202,223,242,263,282,302,322,342,363,382,402,421,442,463,482,502,522,542,563,581,601,622,642,662,682,702,722,743,762,782,802,822,842,861,883,902,922,943,962,983,1002,1022,1042,1062,1082,1103,1123,1141,1162,1183,1203,1222],"xSR":741.5,"ySR":449.15000000000003,"xT1":424.9,"yT1":0,"xT2":1058.1,"yT2":0,"toosoon":0,"cond_shown":"randomdotsizeEA","ratio_trial":750,"smaller_num":"6","larger_num":"8","correct_side":1,"subjID":"JuanMorales16","gender":"0","age":"0","school":"sexto"},{"start_time":1551900727654,"click_time":1551900728621,"finger_time":1551900728361,"fix_duration":930.9003162421455,"trial":34,"RT":707,"MT":260,"sideResp":2,"stimulus":"img/900/equaldotanddens/R/9_Ratio_900_L_18_R_20.png","xmouse":[821,821,821,821,821,821,821,821,821,821,821,821,821,821,821,821,821,821,821,821,821,821,821,821,821,821,821,821,821,821,821,821,821,828,838,850,867,885,915,926,934,942,952,995,1017,1020,1024,1036,1069],"ymouse":[497,497,497,497,497,497,497,497,497,497,497,497,497,497,497,497,497,497,497,497,497,497,497,497,497,497,497,497,497,497,497,497,497,493,483,472,456,439,402,385,371,347,310,195,167,158,135,98,40],"timestamp_mouse":[9,33,47,67,87,107,127,147,167,187,207,227,246,267,288,307,328,348,367,387,407,427,447,466,487,506,528,547,567,587,607,627,647,667,687,707,727,747,767,788,807,828,847,867,887,908,928,948,967],"xSR":741.5,"ySR":449.15000000000003,"xT1":424.9,"yT1":0,"xT2":1058.1,"yT2":0,"toosoon":0,"cond_shown":"equaldotanddens","ratio_trial":900,"smaller_num":"18","larger_num":"20","correct_side":2,"subjID":"JuanMorales16","gender":"0","age":"0","school":"sexto"},{"start_time":1551900730666,"click_time":1551900732721,"finger_time":1551900731362,"fix_duration":1083.0321800073054,"trial":35,"RT":696,"MT":1359,"sideResp":2,"stimulus":"img/500/randomdotsizeEA/R/6_Ratio_500_L_9_R_18.png","xmouse":[825,825,825,825,825,825,825,825,825,825,825,825,825,825,825,825,825,825,825,825,825,825,825,825,825,825,825,825,825,825,825,825,825,825,826,828,829,830,830,830,830,830,830,830,830,830,830,830,830,839,852,866,922,955,976,986,992,1001,1008,1018,1025,1027,1029,1029,1029,1029,1029,1029,1029,1029,1030,1031,1035,1037,1037,1037,1037,1037,1039,1040,1040,1042,1042,1042,1042,1042,1042,1042,1042,1042,1042,1042,1045,1052,1053,1053,1053,1053,1053,1053,1054,1055,1059],"ymouse":[477,477,477,477,477,477,477,477,477,477,477,477,477,477,477,477,477,477,477,477,477,477,477,477,477,477,477,477,477,477,477,477,477,458,441,431,420,420,420,420,420,420,420,420,420,420,420,420,417,395,364,331,251,209,174,154,139,124,120,116,113,113,112,112,112,112,112,112,112,112,112,111,108,105,104,104,103,97,90,87,85,81,79,77,77,76,76,76,76,76,76,76,76,75,74,74,74,74,74,74,74,74,74],"timestamp_mouse":[16,35,55,75,95,115,135,155,175,195,215,235,256,275,295,315,335,356,375,395,415,434,456,475,495,515,535,556,576,596,615,635,655,675,696,715,737,755,775,795,815,835,855,875,894,915,936,955,975,995,1015,1035,1055,1075,1095,1115,1135,1155,1176,1195,1215,1235,1255,1276,1295,1315,1335,1355,1375,1395,1415,1435,1455,1475,1495,1515,1535,1555,1575,1595,1615,1635,1655,1675,1695,1715,1735,1755,1775,1795,1815,1835,1855,1876,1895,1915,1935,1955,1974,1995,2015,2035,2055],"xSR":741.5,"ySR":449.15000000000003,"xT1":424.9,"yT1":0,"xT2":1058.1,"yT2":0,"toosoon":0,"cond_shown":"randomdotsizeEA","ratio_trial":500,"smaller_num":"9","larger_num":"18","correct_side":2,"subjID":"JuanMorales16","gender":"0","age":"0","school":"sexto"},{"start_time":1551900735429,"click_time":1551900736322,"finger_time":1551900736021,"fix_duration":346.7335639188304,"trial":36,"RT":592,"MT":301,"sideResp":2,"stimulus":"img/500/equaldotsize/R/14_Ratio_500_L_5_R_10.png","xmouse":[790,790,790,790,790,790,790,790,790,790,790,790,790,790,790,790,790,790,790,790,790,790,790,790,790,790,790,805,818,902,935,957,974,983,987,1004,1029,1052,1066,1078,1078,1078,1078,1078,1078],"ymouse":[538,538,538,538,538,538,538,538,538,538,538,538,538,538,538,538,538,538,538,538,538,538,538,538,538,538,538,539,540,528,521,518,516,513,510,474,426,375,336,285,259,223,182,147,92],"timestamp_mouse":[12,37,52,72,92,112,132,152,172,192,212,232,252,272,292,312,332,352,372,392,412,432,452,472,492,512,532,552,572,592,611,632,653,672,693,712,732,752,772,793,812,832,852,871,892],"xSR":741.5,"ySR":449.15000000000003,"xT1":424.9,"yT1":0,"xT2":1058.1,"yT2":0,"toosoon":0,"cond_shown":"equaldotsize","ratio_trial":500,"smaller_num":"5","larger_num":"10","correct_side":2,"subjID":"JuanMorales16","gender":"0","age":"0","school":"sexto"},{"start_time":1551900737432,"click_time":1551900738461,"finger_time":1551900738201,"fix_duration":250,"trial":37,"RT":769,"MT":260,"sideResp":2,"stimulus":"img/500/equaldotsize/R/15_Ratio_500_L_1_R_2.png","xmouse":[806,806,806,806,806,806,806,806,806,806,806,806,806,806,806,806,806,806,806,806,806,805,799,784,773,769,769,768,768,768,767,766,766,766,767,772,776,787,797,834,852,870,887,908,926,957,969,990,1009,1039,1057,1069],"ymouse":[542,542,542,542,542,542,542,542,542,542,542,542,542,542,542,542,542,542,542,542,542,541,538,532,525,521,520,519,518,517,514,513,513,513,511,500,491,469,448,378,344,308,275,242,216,179,164,142,128,98,84,74],"timestamp_mouse":[8,37,49,69,89,109,129,149,170,189,209,229,249,269,289,309,329,349,369,389,409,429,449,469,489,509,529,549,569,589,609,628,649,669,689,709,729,749,769,790,809,829,848,869,889,909,929,949,970,990,1009,1029],"xSR":741.5,"ySR":449.15000000000003,"xT1":424.9,"yT1":0,"xT2":1058.1,"yT2":0,"toosoon":0,"cond_shown":"equaldotsize","ratio_trial":500,"smaller_num":"1","larger_num":"2","correct_side":2,"subjID":"JuanMorales16","gender":"0","age":"0","school":"sexto"},{"start_time":1551900739904,"click_time":1551900741121,"finger_time":1551900740700,"fix_duration":861.8189140498893,"trial":38,"RT":796,"MT":421,"sideResp":1,"stimulus":"img/900/randomdotsizeEA/L/10_Ratio_900_L_20_R_18.png","xmouse":[800,800,800,800,800,800,800,800,800,800,800,800,800,800,800,801,802,802,802,802,802,802,802,802,802,802,802,802,802,802,802,802,802,797,790,776,755,748,743,735,724,706,690,677,661,647,629,618,607,595,582,553,546,543,539,538,535,528,521,517,513],"ymouse":[508,508,508,508,508,508,508,508,508,508,508,508,508,508,508,508,508,508,508,508,508,508,508,508,508,508,508,508,508,508,508,508,508,505,502,496,483,473,460,442,423,390,358,332,306,285,247,229,210,192,174,139,130,128,125,124,121,115,108,103,98],"timestamp_mouse":[23,44,57,77,96,117,137,157,177,196,218,237,257,277,297,317,337,357,377,397,417,437,457,477,496,517,538,557,577,597,617,638,657,677,698,717,737,757,777,796,819,837,858,877,897,918,937,957,977,998,1018,1036,1057,1077,1098,1117,1136,1157,1177,1197,1217],"xSR":741.5,"ySR":449.15000000000003,"xT1":424.9,"yT1":0,"xT2":1058.1,"yT2":0,"toosoon":0,"cond_shown":"randomdotsizeEA","ratio_trial":900,"smaller_num":"18","larger_num":"20","correct_side":1,"subjID":"JuanMorales16","gender":"0","age":"0","school":"sexto"},{"start_time":1551900742430,"click_time":1551900743621,"finger_time":1551900743161,"fix_duration":487.10575953092416,"trial":39,"RT":731,"MT":460,"sideResp":2,"stimulus":"img/900/equaldotsize/R/3_Ratio_900_L_9_R_10.png","xmouse":[804,804,804,804,804,804,804,804,804,804,804,804,804,804,804,805,805,805,805,805,805,805,805,805,805,805,805,805,805,805,805,805,805,805,805,813,846,884,918,946,978,989,1004,1013,1031,1040,1040,1040,1040,1040,1040,1041,1041,1043,1046,1056,1058,1058,1058,1060],"ymouse":[520,520,520,520,520,520,520,520,520,520,520,520,520,520,520,520,520,520,520,520,520,520,520,520,520,520,520,520,520,520,520,520,520,520,520,512,465,396,318,248,176,152,120,98,72,61,61,61,61,61,61,61,61,62,64,74,76,76,76,77],"timestamp_mouse":[11,40,51,71,92,111,132,151,170,191,211,232,251,271,291,311,331,351,371,391,411,431,451,470,491,512,531,552,571,591,611,631,651,670,690,710,731,751,772,791,811,831,851,870,892,911,931,952,971,991,1011,1031,1051,1072,1091,1111,1131,1151,1171,1190],"xSR":741.5,"ySR":449.15000000000003,"xT1":424.9,"yT1":0,"xT2":1058.1,"yT2":0,"toosoon":0,"cond_shown":"equaldotsize","ratio_trial":900,"smaller_num":"9","larger_num":"10","correct_side":2,"subjID":"JuanMorales16","gender":"0","age":"0","school":"sexto"},{"start_time":1551900745130,"click_time":1551900746361,"finger_time":1551900745861,"fix_duration":788.2297532850122,"trial":40,"RT":731,"MT":500,"sideResp":2,"stimulus":"img/750/randomdotsizeEA/R/3_Ratio_750_L_15_R_20.png","xmouse":[823,823,823,823,823,823,823,823,823,823,823,823,823,823,823,823,823,823,823,823,823,823,823,823,823,823,823,823,823,823,823,823,823,823,823,810,798,779,775,763,747,745,744,744,744,748,755,766,817,884,984,1002,1016,1026,1037,1060,1071,1078,1087,1099,1114,1118],"ymouse":[482,482,482,482,482,482,482,482,482,482,482,482,482,482,482,482,482,482,482,482,482,482,482,482,482,482,482,482,482,482,482,482,482,482,481,459,444,418,413,396,366,360,358,357,356,355,354,351,334,308,257,243,229,215,202,169,154,145,137,125,101,94],"timestamp_mouse":[11,37,51,71,91,111,131,151,171,191,211,231,251,271,291,311,331,350,370,391,411,430,451,471,491,511,531,552,571,591,611,631,650,671,690,711,731,750,771,791,812,830,851,871,891,912,931,950,971,991,1013,1030,1052,1070,1091,1112,1131,1150,1171,1191,1212,1230],"xSR":741.5,"ySR":449.15000000000003,"xT1":424.9,"yT1":0,"xT2":1058.1,"yT2":0,"toosoon":0,"cond_shown":"randomdotsizeEA","ratio_trial":750,"smaller_num":"15","larger_num":"20","correct_side":2,"subjID":"JuanMorales16","gender":"0","age":"0","school":"sexto"},{"start_time":1551900748218,"click_time":1551900749362,"finger_time":1551900748982,"fix_duration":1154.3113705615074,"trial":41,"RT":764,"MT":380,"sideResp":2,"stimulus":"img/750/equaldotsize/R/15_Ratio_750_L_9_R_12.png","xmouse":[816,816,816,816,816,816,816,816,816,816,816,816,816,816,816,816,816,816,816,816,816,816,816,816,816,816,816,816,816,816,816,816,816,816,817,818,819,835,853,870,885,897,915,927,934,943,953,969,977,987,996,1003,1021,1026,1032,1039,1048,1065],"ymouse":[486,486,486,486,486,486,486,486,486,486,486,486,486,486,486,486,486,486,486,486,486,486,486,486,486,486,486,486,486,486,486,486,486,486,486,486,486,469,449,415,380,353,310,278,257,238,219,192,178,162,150,141,124,120,114,107,100,84],"timestamp_mouse":[12,37,44,63,83,103,124,143,163,183,203,223,243,263,283,303,323,343,364,383,403,424,444,463,483,503,522,544,564,583,603,623,644,664,683,703,724,742,764,783,803,825,842,863,883,904,923,943,963,983,1004,1023,1043,1064,1083,1103,1123,1144],"xSR":741.5,"ySR":449.15000000000003,"xT1":424.9,"yT1":0,"xT2":1058.1,"yT2":0,"toosoon":0,"cond_shown":"equaldotsize","ratio_trial":750,"smaller_num":"9","larger_num":"12","correct_side":2,"subjID":"JuanMorales16","gender":"0","age":"0","school":"sexto"},{"start_time":1551900751371,"click_time":1551900752181,"finger_time":1551900752061,"fix_duration":1227.3059917727644,"trial":42,"RT":690,"MT":120,"sideResp":2,"stimulus":"img/750/equaldotanddens/R/5_Ratio_750_L_15_R_20.png","xmouse":[786,786,786,786,786,786,786,786,786,786,786,786,786,786,786,786,786,786,786,786,787,789,790,791,792,792,792,792,792,792,792,794,798,810,846,874,910,956,1007,1054,1091],"ymouse":[478,478,478,478,478,478,478,478,478,478,478,478,478,478,478,478,478,478,478,478,478,478,478,478,478,478,478,478,478,478,478,478,477,476,442,390,319,241,163,92,2],"timestamp_mouse":[10,39,50,70,90,110,130,149,170,190,210,230,250,270,290,310,329,350,370,390,410,430,450,470,490,509,531,550,570,590,610,630,651,670,690,710,730,749,771,790,810],"xSR":741.5,"ySR":449.15000000000003,"xT1":424.9,"yT1":0,"xT2":1058.1,"yT2":0,"toosoon":0,"cond_shown":"equaldotanddens","ratio_trial":750,"smaller_num":"15","larger_num":"20","correct_side":2,"subjID":"JuanMorales16","gender":"0","age":"0","school":"sexto"},{"start_time":1551900754253,"click_time":1551900755601,"finger_time":1551900754941,"fix_duration":250,"trial":43,"RT":688,"MT":660,"sideResp":1,"stimulus":"img/750/equaldotsize/L/14_Ratio_750_L_8_R_6.png","xmouse":[784,784,784,784,784,784,784,784,784,784,784,784,784,784,784,784,784,784,784,784,784,784,784,784,784,784,784,784,784,784,784,782,779,768,749,730,689,656,624,593,583,580,575,569,564,563,563,563,563,561,559,559,559,557,556,555,555,555,554,552,548,547,547,547,545,542,501,495],"ymouse":[531,531,531,531,531,531,531,531,531,531,531,531,531,531,531,531,531,531,531,531,531,531,531,531,531,531,531,531,531,531,531,525,511,484,439,398,327,273,217,180,158,149,141,129,120,116,116,116,116,114,113,113,113,113,112,112,112,112,112,112,112,112,112,112,111,110,103,98],"timestamp_mouse":[11,35,48,68,88,108,128,148,168,189,208,228,248,268,287,309,328,348,368,388,408,428,448,468,488,508,528,548,569,588,608,629,648,668,688,709,728,748,767,788,809,828,848,868,888,910,928,948,969,988,1008,1027,1048,1069,1088,1108,1128,1148,1168,1189,1209,1228,1248,1268,1288,1308,1328,1347],"xSR":741.5,"ySR":449.15000000000003,"xT1":424.9,"yT1":0,"xT2":1058.1,"yT2":0,"toosoon":0,"cond_shown":"equaldotsize","ratio_trial":750,"smaller_num":"6","larger_num":"8","correct_side":1,"subjID":"JuanMorales16","gender":"0","age":"0","school":"sexto"},{"start_time":1551900757939,"click_time":1551900759122,"finger_time":1551900758721,"fix_duration":1197.3166669878399,"trial":44,"RT":782,"MT":401,"sideResp":1,"stimulus":"img/750/randomdotsizeEA/L/1_Ratio_750_L_20_R_15.png","xmouse":[812,812,812,812,812,812,812,812,812,812,812,812,812,812,812,812,812,812,812,812,812,812,812,812,812,812,812,812,812,812,812,812,812,812,812,811,808,774,760,749,739,733,710,705,698,690,682,662,656,649,643,634,617,595,569,553,538,505,493,481],"ymouse":[480,480,480,480,480,480,480,480,480,480,480,480,480,480,480,480,480,480,480,480,480,480,480,480,480,480,480,480,480,480,480,480,480,480,480,480,480,463,452,444,436,428,403,394,383,372,360,334,324,314,305,291,269,258,240,223,201,134,105,78],"timestamp_mouse":[11,22,52,62,82,102,122,142,162,182,202,222,242,262,282,302,322,342,362,382,402,422,442,462,483,503,522,543,562,582,602,622,642,663,683,701,722,742,763,782,802,822,841,862,883,902,923,943,962,981,1002,1022,1043,1063,1082,1103,1123,1142,1162,1183],"xSR":741.5,"ySR":449.15000000000003,"xT1":424.9,"yT1":0,"xT2":1058.1,"yT2":0,"toosoon":0,"cond_shown":"randomdotsizeEA","ratio_trial":750,"smaller_num":"15","larger_num":"20","correct_side":1,"subjID":"JuanMorales16","gender":"0","age":"0","school":"sexto"},{"start_time":1551900761513,"click_time":1551900762782,"finger_time":1551900762441,"fix_duration":250,"trial":45,"RT":928,"MT":341,"sideResp":1,"stimulus":"img/500/randomdotsizeEA/L/7_Ratio_500_L_10_R_5.png","xmouse":[807,807,807,807,807,807,807,807,807,807,807,807,807,807,807,807,807,807,807,807,807,807,807,807,807,807,807,807,807,807,807,807,807,807,807,807,807,807,807,807,807,807,807,807,805,784,747,696,637,624,613,601,579,560,553,546,541,537,523,518,511,503,498,495],"ymouse":[465,465,465,465,465,465,465,465,465,465,465,465,465,465,465,465,465,465,465,465,465,465,465,465,465,465,465,465,465,465,465,465,465,465,465,465,465,465,465,465,465,465,465,465,465,457,439,408,355,330,303,278,244,217,204,191,179,168,143,133,121,111,101,95],"timestamp_mouse":[9,28,48,68,89,109,127,148,168,189,209,228,248,268,289,308,328,348,368,388,408,427,448,468,488,508,529,549,568,587,608,629,648,668,688,709,728,748,768,789,808,828,847,868,889,908,928,948,968,988,1009,1029,1048,1069,1088,1108,1128,1148,1169,1188,1209,1227,1248,1269],"xSR":741.5,"ySR":449.15000000000003,"xT1":424.9,"yT1":0,"xT2":1058.1,"yT2":0,"toosoon":0,"cond_shown":"randomdotsizeEA","ratio_trial":500,"smaller_num":"5","larger_num":"10","correct_side":1,"subjID":"JuanMorales16","gender":"0","age":"0","school":"sexto"},{"start_time":1551900765063,"click_time":1551900766801,"finger_time":1551900765801,"fix_duration":1180.928644368953,"trial":46,"RT":738,"MT":1000,"sideResp":2,"stimulus":"img/900/equaldotanddens/R/3_Ratio_900_L_9_R_10.png","xmouse":[760,760,760,760,760,760,760,760,760,760,760,760,760,760,760,760,760,760,760,760,760,760,760,760,760,760,760,760,760,760,760,760,760,760,760,764,779,803,837,868,886,921,926,939,945,955,957,960,966,979,998,1014,1028,1034,1038,1041,1045,1047,1050,1052,1053,1053,1053,1053,1053,1053,1053,1053,1053,1053,1053,1053,1053,1053,1053,1053,1053,1053,1053,1053,1053,1053,1053,1053,1053,1053,1060],"ymouse":[464,464,464,464,464,464,464,464,464,464,464,464,464,464,464,464,464,464,464,464,464,464,464,464,464,464,464,464,464,464,464,464,464,464,464,460,443,427,408,392,383,357,351,337,331,321,316,310,299,285,254,224,191,171,154,140,108,96,86,78,74,74,74,74,74,74,74,74,74,74,74,74,74,74,74,74,74,74,74,74,74,74,74,73,73,72,70],"timestamp_mouse":[18,38,58,78,98,119,139,157,179,198,217,239,258,278,299,319,338,358,378,398,419,438,458,479,498,518,538,559,578,598,618,639,658,678,698,718,738,758,777,798,818,838,858,879,898,919,938,958,979,998,1018,1038,1058,1078,1098,1118,1138,1158,1178,1198,1220,1238,1258,1278,1298,1317,1337,1358,1378,1398,1418,1438,1458,1478,1498,1518,1538,1558,1578,1598,1620,1639,1658,1677,1697,1719,1738],"xSR":741.5,"ySR":449.15000000000003,"xT1":424.9,"yT1":0,"xT2":1058.1,"yT2":0,"toosoon":0,"cond_shown":"equaldotanddens","ratio_trial":900,"smaller_num":"9","larger_num":"10","correct_side":2,"subjID":"JuanMorales16","gender":"0","age":"0","school":"sexto"},{"start_time":1551900768231,"click_time":1551900769201,"finger_time":1551900768841,"fix_duration":528.996277835187,"trial":47,"RT":610,"MT":360,"sideResp":2,"stimulus":"img/500/equaldotanddens/R/9_Ratio_500_L_2_R_4.png","xmouse":[803,803,803,804,804,804,804,804,804,804,804,804,804,804,804,804,804,804,804,804,805,806,806,806,806,807,809,811,824,836,857,878,894,909,911,915,920,927,934,940,954,965,977,1021,1038,1049,1059,1073,1102],"ymouse":[487,487,487,487,487,487,487,487,487,487,487,487,487,487,487,487,487,487,487,487,487,487,487,487,487,487,486,485,475,466,442,412,383,335,320,303,290,278,252,237,215,200,189,157,144,133,117,102,74],"timestamp_mouse":[10,44,50,70,90,110,130,150,170,190,210,230,250,270,291,311,330,350,370,390,411,430,451,470,491,509,530,550,570,590,610,630,649,670,691,710,729,750,769,790,810,831,850,870,891,910,930,950,970],"xSR":741.5,"ySR":449.15000000000003,"xT1":424.9,"yT1":0,"xT2":1058.1,"yT2":0,"toosoon":0,"cond_shown":"equaldotanddens","ratio_trial":500,"smaller_num":"2","larger_num":"4","correct_side":2,"subjID":"JuanMorales16","gender":"0","age":"0","school":"sexto"},{"start_time":1551900770494,"click_time":1551900771821,"finger_time":1551900771141,"fix_duration":491.0147935567085,"trial":48,"RT":647,"MT":680,"sideResp":1,"stimulus":"img/250/randomdotsizeEA/L/1_Ratio_250_L_8_R_2.png","xmouse":[813,813,813,813,813,813,813,813,813,813,813,813,813,813,813,813,813,813,813,813,813,813,813,813,813,813,813,813,813,811,804,796,787,773,754,717,695,667,634,583,566,557,547,546,546,546,541,540,540,540,529,525,524,522,520,511,507,506,504,503,491,479,470,465,464,462,460],"ymouse":[510,510,510,510,510,510,510,510,510,510,510,510,510,510,510,510,510,510,510,510,510,510,510,510,510,510,510,507,501,492,465,451,439,425,414,396,387,379,363,332,321,312,304,303,303,295,288,286,284,275,239,227,218,212,208,187,178,173,169,163,143,126,114,105,103,101,96],"timestamp_mouse":[9,39,48,68,87,106,127,147,167,186,207,227,247,267,287,307,327,347,368,387,407,427,447,467,487,507,527,547,568,586,607,628,647,667,687,707,727,747,767,787,807,827,847,867,887,908,928,947,968,987,1007,1027,1047,1067,1088,1107,1127,1148,1166,1187,1207,1227,1247,1267,1287,1308,1327],"xSR":741.5,"ySR":449.15000000000003,"xT1":424.9,"yT1":0,"xT2":1058.1,"yT2":0,"toosoon":0,"cond_shown":"randomdotsizeEA","ratio_trial":250,"smaller_num":"2","larger_num":"8","correct_side":1,"subjID":"JuanMorales16","gender":"0","age":"0","school":"sexto"},{"start_time":1551900773648,"click_time":1551900775441,"finger_time":1551900774302,"fix_duration":1126.8633821754072,"trial":49,"RT":654,"MT":1139,"sideResp":1,"stimulus":"img/250/equaldotsize/L/15_Ratio_250_L_12_R_3.png","xmouse":[777,777,777,777,777,777,777,777,777,777,777,777,777,777,777,777,777,777,777,777,777,777,777,777,777,777,777,777,777,777,776,768,707,660,609,577,560,549,525,514,508,501,485,479,476,476,475,473,473,473,472,472,472,472,472,472,472,472,472,472,476,481,481,481,481,481,481,481,481,481,481,481,481,481,481,481,481,481,465,445,436,434,432,429,427,426,426,425,426,434],"ymouse":[490,490,490,490,490,490,490,490,490,490,490,490,490,490,490,490,490,490,490,490,490,490,490,490,490,490,490,490,490,490,488,480,436,402,358,327,304,284,245,230,222,213,186,177,171,169,169,165,163,162,161,161,160,160,160,160,160,160,168,186,219,233,233,233,233,233,233,233,233,233,233,233,233,233,233,233,233,233,203,178,170,166,161,150,146,141,135,129,112,93],"timestamp_mouse":[14,33,53,73,93,113,133,153,173,193,213,233,253,274,294,313,334,354,373,392,414,433,453,473,493,513,533,553,572,593,613,634,654,672,693,713,733,753,773,793,813,833,854,873,893,914,933,954,973,994,1013,1033,1053,1073,1093,1113,1133,1155,1173,1194,1214,1233,1252,1273,1293,1312,1333,1354,1373,1393,1414,1433,1454,1473,1493,1513,1533,1553,1573,1592,1613,1633,1653,1673,1694,1713,1733,1753,1773,1793],"xSR":741.5,"ySR":449.15000000000003,"xT1":424.9,"yT1":0,"xT2":1058.1,"yT2":0,"toosoon":0,"cond_shown":"equaldotsize","ratio_trial":250,"smaller_num":"3","larger_num":"12","correct_side":1,"subjID":"JuanMorales16","gender":"0","age":"0","school":"sexto"},{"start_time":1551900778130,"click_time":1551900779261,"finger_time":1551900778701,"fix_duration":487.9834461143676,"trial":50,"RT":571,"MT":560,"sideResp":2,"stimulus":"img/750/equaldotsize/R/2_Ratio_750_L_6_R_8.png","xmouse":[793,793,793,793,793,793,793,793,793,793,793,793,793,793,793,793,793,793,793,793,793,793,793,793,793,793,794,794,794,794,794,794,799,803,846,874,919,974,1014,1099,1136,1174,1236,1269,1296,1299,1299,1299,1298,1286,1282,1280,1280,1277,1239,1202,1155],"ymouse":[500,500,500,500,500,500,500,500,500,500,500,500,500,500,500,500,500,500,500,500,500,500,500,500,500,498,484,456,446,446,445,443,430,422,372,350,324,299,275,223,196,169,133,116,92,83,76,69,55,34,27,23,20,18,22,31,46],"timestamp_mouse":[11,42,51,71,92,111,131,151,171,191,211,231,251,270,291,311,331,351,372,391,411,431,451,471,491,511,532,551,571,591,611,632,651,671,691,711,731,752,772,792,811,831,851,871,892,911,931,951,972,991,1011,1032,1051,1071,1092,1110,1131],"xSR":741.5,"ySR":449.15000000000003,"xT1":424.9,"yT1":0,"xT2":1058.1,"yT2":0,"toosoon":0,"cond_shown":"equaldotsize","ratio_trial":750,"smaller_num":"6","larger_num":"8","correct_side":2,"subjID":"JuanMorales16","gender":"0","age":"0","school":"sexto"},{"start_time":1551900781595,"click_time":1551900783481,"finger_time":1551900782800,"fix_duration":1392.078654670496,"trial":51,"RT":1205,"MT":681,"sideResp":1,"stimulus":"img/750/randomdotsizeEA/L/8_Ratio_750_L_4_R_3.png","xmouse":[795,795,795,795,795,795,795,795,795,796,796,796,796,796,796,796,796,796,796,796,796,796,796,796,796,796,796,796,796,796,796,796,796,796,796,796,796,796,796,796,796,792,790,790,790,790,790,790,790,790,790,790,790,790,790,790,790,794,797,808,814,816,818,819,819,819,818,817,814,803,788,771,696,620,550,500,472,445,426,417,412,405,405,405,408,413,420,420,420,420,420,420,420,420,444],"ymouse":[478,478,478,478,478,478,478,478,478,478,478,478,478,478,478,478,478,478,478,478,478,478,478,478,478,478,478,478,478,478,478,478,478,478,478,478,478,478,478,478,478,473,471,471,471,471,471,471,471,471,471,471,471,471,471,471,471,469,466,455,448,445,440,438,436,433,430,429,427,420,411,399,346,299,254,214,184,142,110,95,81,58,47,35,23,13,0,0,0,0,0,0,0,0,7],"timestamp_mouse":[10,41,46,66,86,105,126,146,166,186,206,226,246,266,286,307,326,346,366,387,405,427,446,466,486,506,526,546,566,586,606,626,646,666,686,706,726,746,767,786,806,826,846,866,887,906,926,946,966,986,1006,1026,1046,1066,1086,1105,1126,1146,1165,1185,1205,1225,1245,1267,1286,1306,1325,1345,1365,1387,1406,1425,1445,1465,1486,1506,1527,1545,1566,1586,1606,1627,1646,1666,1687,1706,1726,1746,1765,1787,1806,1827,1846,1867,1886],"xSR":741.5,"ySR":449.15000000000003,"xT1":424.9,"yT1":0,"xT2":1058.1,"yT2":0,"toosoon":0,"cond_shown":"randomdotsizeEA","ratio_trial":750,"smaller_num":"3","larger_num":"4","correct_side":1,"subjID":"JuanMorales16","gender":"0","age":"0","school":"sexto"},{"start_time":1551900785182,"click_time":1551900786322,"finger_time":1551900785941,"fix_duration":638.2360734427336,"trial":52,"RT":759,"MT":381,"sideResp":1,"stimulus":"img/500/equaldotanddens/L/10_Ratio_500_L_4_R_2.png","xmouse":[810,810,810,810,810,810,810,810,810,810,810,810,810,810,810,810,810,810,810,810,810,810,810,810,810,810,810,810,810,810,810,810,810,810,803,793,753,588,553,539,532,529,519,514,509,507,507,507,506,504,502,499,497,495,493,491,487],"ymouse":[517,517,517,517,517,517,517,517,517,517,517,517,517,517,517,517,517,517,517,517,517,517,517,517,517,517,517,517,517,517,517,517,517,517,515,508,479,340,309,297,288,277,246,228,211,198,177,154,143,136,128,123,114,110,104,100,91],"timestamp_mouse":[20,48,59,79,99,119,139,160,179,199,219,239,259,279,299,318,339,359,379,399,418,439,459,479,499,518,539,559,579,598,619,639,658,678,699,718,739,759,779,800,820,840,859,879,899,918,940,959,978,1000,1019,1039,1058,1079,1099,1119,1140],"xSR":741.5,"ySR":449.15000000000003,"xT1":424.9,"yT1":0,"xT2":1058.1,"yT2":0,"toosoon":0,"cond_shown":"equaldotanddens","ratio_trial":500,"smaller_num":"2","larger_num":"4","correct_side":1,"subjID":"JuanMorales16","gender":"0","age":"0","school":"sexto"},{"start_time":1551900787293,"click_time":1551900788421,"finger_time":1551900788041,"fix_duration":250,"trial":53,"RT":748,"MT":380,"sideResp":1,"stimulus":"img/250/randomdotsizeEA/L/15_Ratio_250_L_12_R_3.png","xmouse":[809,809,809,809,809,809,808,808,807,807,807,807,807,807,807,807,807,807,807,807,807,807,807,807,807,807,807,807,807,807,807,807,807,807,807,807,794,760,725,690,664,647,617,611,603,594,588,580,573,570,565,562,554,544,530,519,514],"ymouse":[485,485,485,485,485,485,485,485,485,485,485,485,485,485,485,485,485,485,485,485,485,485,485,485,485,485,485,485,485,485,485,485,485,485,485,485,471,426,376,325,282,245,196,189,177,167,159,143,136,131,129,127,120,116,108,102,97],"timestamp_mouse":[8,40,48,68,88,108,128,147,168,188,208,227,249,268,288,309,328,349,368,388,407,428,448,468,488,508,528,548,567,588,609,628,647,669,688,707,727,748,767,788,808,827,849,867,888,908,928,949,968,987,1008,1028,1048,1067,1087,1108,1128],"xSR":741.5,"ySR":449.15000000000003,"xT1":424.9,"yT1":0,"xT2":1058.1,"yT2":0,"toosoon":0,"cond_shown":"randomdotsizeEA","ratio_trial":250,"smaller_num":"3","larger_num":"12","correct_side":1,"subjID":"JuanMorales16","gender":"0","age":"0","school":"sexto"},{"start_time":1551900792458,"click_time":1551900793340,"finger_time":1551900793061,"fix_duration":913.2986939539774,"trial":54,"RT":603,"MT":279,"sideResp":1,"stimulus":"img/500/equaldotanddens/L/13_Ratio_500_L_12_R_6.png","xmouse":[783,783,783,783,783,783,783,783,783,783,783,783,783,783,783,783,783,783,783,783,783,783,783,783,783,783,783,783,783,780,728,679,638,599,576,560,555,550,540,529,508,496,478,459,434],"ymouse":[485,485,485,485,485,485,485,485,485,485,485,485,485,485,485,485,485,485,485,485,485,485,485,485,485,485,485,485,485,484,438,406,393,380,365,350,343,333,310,291,231,198,163,122,77],"timestamp_mouse":[9,36,43,63,83,102,123,142,163,183,202,222,243,262,282,302,322,343,363,384,402,423,443,463,482,503,523,542,562,582,603,623,644,663,682,703,723,743,762,783,802,823,842,862,882],"xSR":741.5,"ySR":449.15000000000003,"xT1":424.9,"yT1":0,"xT2":1058.1,"yT2":0,"toosoon":0,"cond_shown":"equaldotanddens","ratio_trial":500,"smaller_num":"6","larger_num":"12","correct_side":1,"subjID":"JuanMorales16","gender":"0","age":"0","school":"sexto"},{"start_time":1551900794876,"click_time":1551900795841,"finger_time":1551900795481,"fix_duration":814.8252327143974,"trial":55,"RT":605,"MT":360,"sideResp":2,"stimulus":"img/500/equaldotsize/R/3_Ratio_500_L_10_R_20.png","xmouse":[791,791,792,792,792,792,792,792,792,792,792,792,792,792,792,799,805,808,808,808,808,808,808,808,808,808,808,808,808,821,835,851,870,887,919,928,937,943,945,954,958,964,967,973,999,1016,1034,1062,1071],"ymouse":[499,499,499,499,499,499,499,499,499,499,499,499,499,499,499,499,499,499,499,499,499,499,499,499,499,499,499,499,499,474,449,416,379,348,288,266,247,231,226,212,206,195,188,178,154,142,129,105,97],"timestamp_mouse":[9,25,52,65,85,105,125,144,164,184,204,225,245,265,285,306,325,345,365,385,405,424,444,464,484,504,524,545,565,585,605,625,645,665,684,705,725,745,765,785,806,824,845,865,885,906,925,944,964],"xSR":741.5,"ySR":449.15000000000003,"xT1":424.9,"yT1":0,"xT2":1058.1,"yT2":0,"toosoon":0,"cond_shown":"equaldotsize","ratio_trial":500,"smaller_num":"10","larger_num":"20","correct_side":2,"subjID":"JuanMorales16","gender":"0","age":"0","school":"sexto"},{"start_time":1551900799165,"click_time":1551900806761,"finger_time":1551900800541,"fix_duration":1142.3616032930422,"trial":56,"RT":1376,"MT":6220,"sideResp":2,"stimulus":"img/900/randomdotsizeEA/L/2_Ratio_900_L_20_R_18.png","xmouse":[773,773,773,773,773,773,773,773,773,773,773,773,773,773,773,773,773,773,773,773,773,773,773,773,773,773,773,773,773,773,773,773,773,773,773,773,773,773,773,773,773,773,773,773,773,773,773,773,773,773,773,773,773,773,773,773,773,773,773,773,773,773,784,791,816,829,840,850,866,901,910,912,913,913,914,916,919,922,925,932,937,940,941,941,942,942,942,942,942,942,942,942,942,942,942,942,942,943,943,946,946,940,934,927,920,917,916,914,911,908,908,908,908,908,908,908,908,908,908,911,919,928,933,937,938,938,938,938,938,938,938,938,938,938,938,938,938,939,940,940,940,940,942,948,970,988,1010,1028,1050,1090,1120,1140,1157,1168,1176,1176,1176,1176,1176,1170,1212,1210,1210,1210,1210,1209,1207,1207,1207,1206,1205,1204,1204,1204,1203,1203,1202,1201,1200,1195,1193,1191,1191,1190,1189,1189,1189,1189,1189,1189,1188,1188,1187,1185,1181,1175,1164,1155,1134,999,926,859,809,787,779,779,778,777,777,777,777,777,776,774,768,767,767,767,767,768,770,771,773,773,773,773,774,774,774,774,774,774,774,774,774,774,774,774,774,774,774,776,779,779,779,779,779,779,779,779,779,779,779,779,779,779,779,779,779,779,779,779,779,779,779,779,779,779,779,779,779,779,779,779,779,779,779,779,779,779,779,779,779,779,779,779,779,779,779,779,779,779,779,779,779,779,779,779,779,779,779,779,779,779,779,779,779,779,779,779,779,779,779,779,779,779,779,779,779,784,794,801,817,838,894,915,933,939,967,1006,1027,1041,1050,1055,1060,1060,1061,1061,1061,1061,1061,1061,1061,1061,1061,1061,1061,1061,1061,1061,1071,1086,1102,1105,1105,1105,1105,1105,1105,1105,1105,1105,1105,1105,1105,1101,1101,1101,1101,1101,1100,1100,1100,1099,1097,1091,1087,1086,1084],"ymouse":[493,493,493,493,493,493,493,493,493,493,493,493,493,493,493,493,493,493,493,493,493,493,493,493,493,493,493,493,493,493,493,493,493,493,493,493,493,493,493,493,493,493,493,493,493,493,493,493,493,493,493,493,493,493,493,493,493,493,493,493,493,493,489,486,465,457,450,437,408,327,289,275,268,264,246,231,213,194,184,172,166,165,164,164,164,164,164,164,164,164,164,164,164,164,164,164,164,164,164,181,197,210,222,231,241,244,246,249,253,255,255,256,256,256,256,256,256,253,239,223,218,216,216,214,214,214,214,214,214,214,214,214,214,214,214,214,214,214,226,237,237,237,240,255,269,270,270,268,262,251,239,231,222,215,208,207,205,204,201,190,141,139,139,139,139,139,139,139,139,140,140,141,141,141,141,142,143,143,143,146,147,148,148,149,150,151,151,151,151,153,153,154,155,157,166,175,189,202,223,321,368,408,433,444,447,447,448,448,448,448,448,448,447,441,423,415,411,404,390,356,339,326,318,313,300,292,288,287,287,287,287,287,287,287,287,287,287,287,287,287,287,293,301,303,303,303,303,303,303,303,303,303,303,303,303,303,303,303,303,303,303,303,303,303,303,303,303,303,303,304,304,304,304,304,304,304,304,304,304,304,304,304,304,304,304,304,304,304,304,304,304,304,304,304,304,304,304,304,304,304,304,304,304,304,304,304,304,304,304,304,304,304,305,305,305,305,305,305,305,303,297,291,279,265,238,228,215,211,195,178,172,165,161,158,152,152,150,150,150,150,150,149,149,149,149,149,149,149,149,149,155,170,190,193,193,193,193,193,193,193,193,193,193,193,193,193,193,193,191,177,177,177,176,173,163,138,117,111,96],"timestamp_mouse":[16,36,55,75,96,117,136,155,176,197,216,236,255,276,296,316,336,356,375,396,417,436,457,476,497,516,536,556,576,597,616,636,655,675,697,716,736,757,777,796,816,836,856,875,895,915,936,956,975,996,1016,1035,1056,1076,1097,1116,1136,1156,1175,1197,1216,1256,1276,1295,1316,1336,1355,1376,1397,1416,1436,1456,1476,1496,1516,1536,1557,1576,1596,1615,1636,1655,1676,1697,1716,1735,1756,1776,1796,1816,1836,1856,1876,1896,1915,1935,1955,1976,1996,2016,2036,2057,2076,2095,2116,2136,2156,2176,2196,2215,2237,2256,2277,2297,2316,2336,2355,2375,2395,2416,2436,2456,2475,2495,2516,2536,2556,2576,2596,2615,2637,2656,2675,2695,2716,2735,2755,2775,2799,2815,2836,2855,2876,2896,2915,2936,2956,2975,2995,3016,3037,3056,3076,3096,3116,3137,3156,3175,3195,3216,3236,3256,3276,3295,3316,3336,3355,3376,3396,3415,3436,3456,3475,3495,3515,3536,3556,3576,3596,3616,3637,3656,3676,3696,3716,3736,3755,3775,3795,3816,3836,3856,3876,3896,3915,3937,3956,3975,3996,4015,4036,4056,4075,4096,4115,4136,4156,4175,4195,4216,4236,4256,4275,4295,4315,4336,4356,4375,4395,4415,4436,4457,4476,4495,4515,4536,4556,4575,4595,4615,4635,4656,4675,4695,4715,4736,4757,4775,4796,4817,4836,4856,4876,4896,4915,4935,4955,4975,4995,5015,5036,5056,5076,5096,5116,5136,5157,5176,5196,5215,5236,5255,5275,5295,5315,5335,5355,5376,5396,5415,5437,5456,5475,5495,5516,5535,5556,5575,5595,5615,5635,5655,5676,5695,5716,5735,5755,5776,5796,5816,5835,5855,5875,5896,5916,5935,5956,5975,5996,6015,6036,6055,6075,6095,6116,6136,6156,6176,6196,6217,6236,6256,6276,6296,6317,6336,6355,6375,6396,6416,6436,6456,6476,6495,6516,6535,6555,6575,6595,6616,6635,6655,6675,6695,6716,6735,6755,6775,6795,6816,6836,6856,6876,6896,6916,6936,6955,6976,6995,7016,7035,7057,7075,7095,7116,7136,7156,7176,7196,7217,7236,7255,7275,7295,7316,7335,7356,7375,7395,7416,7436,7456,7476,7496,7516,7535,7556,7576,7596],"xSR":741.5,"ySR":449.15000000000003,"xT1":424.9,"yT1":0,"xT2":1058.1,"yT2":0,"toosoon":0,"cond_shown":"randomdotsizeEA","ratio_trial":900,"smaller_num":"18","larger_num":"20","correct_side":1,"subjID":"JuanMorales16","gender":"0","age":"0","school":"sexto"},{"start_time":1551900839478,"click_time":1551900840361,"finger_time":1551900840022,"fix_duration":654.6978063106636,"trial":57,"RT":544,"MT":339,"sideResp":2,"stimulus":"img/250/equaldotsize/R/9_Ratio_250_L_3_R_12.png","xmouse":[831,831,831,831,831,831,831,831,831,831,831,831,831,831,831,831,831,831,831,831,831,831,831,832,834,835,839,854,872,929,961,994,1022,1047,1075,1082,1089,1101,1110,1121,1125,1127,1128,1126,1122],"ymouse":[490,490,490,490,490,490,490,490,490,490,490,490,490,490,490,490,490,490,490,490,490,490,490,490,490,490,489,479,470,431,405,381,355,327,291,280,269,256,244,219,204,186,163,135,96],"timestamp_mouse":[9,37,43,63,84,104,124,142,162,183,203,223,242,262,283,304,323,342,363,382,402,422,443,464,483,503,523,544,564,583,603,622,643,662,683,703,723,742,762,783,803,822,842,863,883],"xSR":741.5,"ySR":449.15000000000003,"xT1":424.9,"yT1":0,"xT2":1058.1,"yT2":0,"toosoon":0,"cond_shown":"equaldotsize","ratio_trial":250,"smaller_num":"3","larger_num":"12","correct_side":2,"subjID":"JuanMorales16","gender":"0","age":"0","school":"sexto"},{"start_time":1551900841712,"click_time":1551900842562,"finger_time":1551900842200,"fix_duration":250,"trial":58,"RT":488,"MT":362,"sideResp":2,"stimulus":"img/250/equaldotsize/R/9_Ratio_250_L_3_R_12.png","xmouse":[777,777,777,777,777,777,777,777,777,777,777,777,777,777,777,777,777,777,777,777,777,777,779,785,797,833,885,950,1059,1076,1080,1080,1081,1081,1081,1081,1081,1080,1080,1080,1080,1080,1080],"ymouse":[488,488,488,488,488,488,488,488,488,488,488,488,488,488,488,488,488,488,488,488,488,488,476,460,437,398,352,292,180,156,142,134,122,118,116,114,112,110,110,110,108,104,89],"timestamp_mouse":[8,28,49,69,89,109,129,148,168,188,209,230,249,270,288,309,329,349,370,388,409,428,449,468,488,509,529,550,569,589,609,629,650,668,689,709,730,749,770,790,809,828,850],"xSR":741.5,"ySR":449.15000000000003,"xT1":424.9,"yT1":0,"xT2":1058.1,"yT2":0,"toosoon":0,"cond_shown":"equaldotsize","ratio_trial":250,"smaller_num":"3","larger_num":"12","correct_side":2,"subjID":"JuanMorales16","gender":"0","age":"0","school":"sexto"},{"start_time":1551900844117,"click_time":1551900845280,"finger_time":1551900844801,"fix_duration":875.5424007249899,"trial":59,"RT":684,"MT":479,"sideResp":1,"stimulus":"img/750/equaldotanddens/L/14_Ratio_750_L_8_R_6.png","xmouse":[819,819,819,806,787,779,775,774,774,774,774,774,774,774,774,774,774,774,774,774,774,774,774,774,774,774,774,774,774,774,774,774,774,746,677,608,541,472,384,371,361,354,353,353,358,366,376,393,424,437,450,460,464,469,470,471,472,473,473],"ymouse":[469,469,469,489,507,515,519,520,520,520,520,520,520,520,520,520,520,520,520,520,520,520,520,520,520,520,520,520,520,520,520,520,520,508,470,430,388,338,265,247,231,218,214,208,198,190,184,176,161,151,142,132,127,119,114,110,106,101,93],"timestamp_mouse":[9,23,44,64,84,103,123,144,163,183,205,223,243,264,284,303,324,344,365,384,404,423,445,464,483,503,524,543,564,583,603,624,644,664,684,703,724,744,763,784,803,823,843,864,883,903,924,943,964,985,1003,1024,1044,1064,1084,1103,1123,1144,1163],"xSR":741.5,"ySR":449.15000000000003,"xT1":424.9,"yT1":0,"xT2":1058.1,"yT2":0,"toosoon":0,"cond_shown":"equaldotanddens","ratio_trial":750,"smaller_num":"6","larger_num":"8","correct_side":1,"subjID":"JuanMorales16","gender":"0","age":"0","school":"sexto"},{"start_time":1551900847405,"click_time":1551900848500,"finger_time":1551900848220,"fix_duration":1183.9296243642343,"trial":60,"RT":815,"MT":280,"sideResp":2,"stimulus":"img/900/equaldotsize/R/9_Ratio_900_L_18_R_20.png","xmouse":[780,780,780,780,780,780,780,780,780,780,780,780,780,780,780,780,780,780,780,780,780,780,780,780,780,780,780,780,780,780,780,780,780,780,780,780,780,780,780,790,824,884,949,990,1013,1015,1016,1019,1029,1039,1049,1053,1054,1056,1061],"ymouse":[489,489,489,489,489,489,489,489,489,489,489,489,489,489,489,489,489,489,489,489,489,489,489,489,489,489,489,489,489,489,489,489,489,489,489,489,489,489,489,455,367,278,207,159,122,118,116,112,100,89,79,75,72,68,64],"timestamp_mouse":[16,35,56,76,95,117,135,156,176,196,215,235,256,276,296,316,335,355,377,395,416,436,456,476,495,516,535,556,576,596,615,635,656,676,695,716,736,756,775,795,815,835,856,875,895,915,936,956,975,996,1016,1036,1056,1075,1095],"xSR":741.5,"ySR":449.15000000000003,"xT1":424.9,"yT1":0,"xT2":1058.1,"yT2":0,"toosoon":0,"cond_shown":"equaldotsize","ratio_trial":900,"smaller_num":"18","larger_num":"20","correct_side":2,"subjID":"JuanMorales16","gender":"0","age":"0","school":"sexto"},{"start_time":1551900850453,"click_time":1551900851761,"finger_time":1551900851100,"fix_duration":811.1484346775773,"trial":61,"RT":647,"MT":661,"sideResp":2,"stimulus":"img/750/equaldotanddens/R/15_Ratio_750_L_9_R_12.png","xmouse":[798,798,798,798,798,798,798,798,798,798,798,798,798,798,798,798,798,798,798,798,798,798,798,798,798,798,798,798,798,798,803,812,867,879,898,909,938,953,964,972,977,981,983,983,983,983,983,983,983,983,983,983,983,983,986,995,1005,1017,1025,1032,1038,1046,1055,1060,1065,1069],"ymouse":[500,500,500,500,500,500,500,500,500,500,500,500,500,500,500,500,500,500,500,500,500,500,500,500,500,500,500,500,500,500,496,486,424,413,389,371,331,307,290,273,256,244,236,234,234,234,234,234,234,234,234,234,234,234,231,217,200,173,159,147,138,128,114,107,101,97],"timestamp_mouse":[9,28,48,68,88,107,127,148,167,187,207,227,248,268,288,307,328,347,369,387,407,427,447,467,487,507,528,547,567,588,608,627,647,668,687,707,728,747,768,787,807,829,847,868,887,907,927,947,967,987,1007,1029,1047,1068,1087,1107,1127,1147,1168,1188,1208,1228,1247,1268,1289,1308],"xSR":741.5,"ySR":449.15000000000003,"xT1":424.9,"yT1":0,"xT2":1058.1,"yT2":0,"toosoon":0,"cond_shown":"equaldotanddens","ratio_trial":750,"smaller_num":"9","larger_num":"12","correct_side":2,"subjID":"JuanMorales16","gender":"0","age":"0","school":"sexto"},{"start_time":1551900854010,"click_time":1551900855001,"finger_time":1551900854700,"fix_duration":1308.9502968522615,"trial":62,"RT":690,"MT":301,"sideResp":1,"stimulus":"img/500/randomdotsizeEA/L/10_Ratio_500_L_4_R_2.png","xmouse":[798,798,798,798,798,798,798,798,798,798,798,798,798,798,798,798,798,798,798,798,798,798,798,798,798,798,798,798,798,798,798,798,791,775,727,715,702,692,682,670,660,646,633,624,609,600,586,563,543,523],"ymouse":[504,504,504,504,504,504,504,504,504,504,504,504,504,504,504,504,504,504,504,504,504,504,504,504,504,504,504,504,504,504,504,504,504,501,493,488,479,461,441,403,373,338,315,293,247,224,197,15