[{"start_time":1551900677323,"click_time":1551900680468,"finger_time":1551900677331,"fix_duration":1371.1681791571546,"trial":0,"RT":8,"MT":3137,"sideResp":1,"stimulus":[],"xmouse":[871,871,871,864,853,841,821,815,813,813,813,813,812,812,812,810,808,799,796,794,794,794,793,793,793,793,793,793,793,793,793,793,793,793,793,793,793,793,793,793,793,793,793,793,793,793,793,793,793,793,793,793,793,793,793,793,793,793,793,793,793,793,793,793,793,793,793,793,793,793,793,793,793,793,793,793,793,793,793,793,793,793,793,793,793,793,793,793,793,793,793,793,793,793,793,793,793,793,793,793,793,793,793,793,793,793,793,793,793,793,793,793,793,793,793,793,793,793,793,793,793,793,793,793,793,793,793,793,793,793,793,785,753,730,717,711,710,709,710,711,713,715,721,722,722,722,722,748,768,779,784,785,785,780,765,675,585,426],"ymouse":[508,508,508,508,508,508,508,508,509,509,510,511,511,511,512,513,514,519,520,521,521,521,521,521,521,521,521,521,521,521,521,521,521,521,521,521,521,521,521,521,521,521,521,521,521,521,521,521,521,521,521,521,521,521,521,521,521,521,521,521,521,521,521,521,521,521,521,521,521,521,521,521,521,521,521,521,521,521,521,521,521,521,521,521,521,521,521,521,521,521,521,521,521,521,521,521,521,521,521,521,521,521,521,521,521,521,521,521,521,521,521,521,521,521,521,521,521,521,521,521,521,521,521,521,521,521,521,521,521,521,521,495,387,313,269,247,235,229,225,222,220,217,209,207,207,207,207,207,207,207,207,207,207,207,206,178,153,98],"timestamp_mouse":[8,24,44,64,84,104,124,145,164,185,206,225,245,265,285,305,325,344,366,386,404,424,445,464,486,504,524,545,564,585,604,624,645,664,684,704,724,745,764,786,805,824,846,866,885,906,925,944,965,986,1005,1025,1044,1065,1085,1105,1124,1146,1165,1186,1205,1224,1245,1264,1284,1305,1324,1344,1364,1385,1404,1424,1446,1465,1484,1506,1525,1544,1564,1586,1604,1625,1646,1664,1684,1706,1726,1745,1765,1785,1804,1825,1844,1865,1884,1904,1924,1944,1964,1986,2005,2025,2045,2064,2084,2105,2124,2144,2164,2184,2204,2225,2245,2265,2284,2304,2324,2345,2365,2386,2404,2424,2444,2465,2484,2506,2525,2545,2564,2586,2604,2624,2644,2664,2685,2705,2726,2744,2764,2785,2804,2824,2845,2864,2886,2904,2925,2945,2964,2985,3005,3025,3045,3065,3086,3104,3125,3145],"xSR":741.5,"ySR":469.95,"xT1":424.9,"yT1":0,"xT2":1058.1,"yT2":0,"toosoon":0,"cond_shown":"Congruent","ratio_trial":300,"L_num":7,"L_den":14,"R_num":20,"R_den":25,"correct_side":2,"subjID":"juanEstebanParada-4","gender":"0","age":"13","school":"6","test":{"fix_dur":[250,1500],"timestim":1000,"targets_dim":[100,100],"targets_relative_coord":[0.3,0.7],"size_stim":[880,420],"start_dim":[100,100],"size_start":[300,300],"size_fix":60,"samplingrate":20,"img_types":["Congruent","Incongruent"],"ratios":[100,200,300],"rep_conds":19,"nTrials":120,"trials_to_rest":500,"Trials_order":[52,53,46,14,82,15,86,30,84,96,75,81,61,90,38,67,111,117,10,99,63,21,62,31,57,77,44,118,13,70,7,19,36,107,94,80,34,42,101,24,79,66,114,3,5,4,47,100,54,2,116,9,110,95,93,32,20,1,45,104,23,68,98,29,35,0,89,17,39,69,87,48,92,115,105,8,22,27,78,97,103,73,41,71,6,33,49,16,65,119,56,28,102,85,50,106,37,51,12,59,25,60,113,91,112,88,74,64,11,40,72,43,18,109,83,108,58,26,76,55],"cond_shown":["Congruent","Incongruent","Congruent","Congruent","Congruent","Incongruent","Congruent","Congruent","Congruent","Congruent","Incongruent","Incongruent","Incongruent","Congruent","Congruent","Incongruent","Incongruent","Incongruent","Congruent","Incongruent","Incongruent","Incongruent","Congruent","Incongruent","Incongruent","Incongruent","Congruent","Congruent","Incongruent","Congruent","Incongruent","Incongruent","Congruent","Incongruent","Congruent","Congruent","Congruent","Congruent","Incongruent","Congruent","Incongruent","Congruent","Congruent","Incongruent","Incongruent","Congruent","Incongruent","Congruent","Congruent","Congruent","Congruent","Incongruent","Congruent","Incongruent","Incongruent","Congruent","Congruent","Incongruent","Incongruent","Congruent","Incongruent","Congruent","Congruent","Incongruent","Incongruent","Congruent","Incongruent","Incongruent","Incongruent","Incongruent","Incongruent","Congruent","Congruent","Incongruent","Incongruent","Congruent","Congruent","Incongruent","Congruent","Incongruent","Incongruent","Incongruent","Incongruent","Incongruent","Congruent","Incongruent","Incongruent","Congruent","Incongruent","Incongruent","Congruent","Congruent","Congruent","Incongruent","Congruent","Congruent","Incongruent","Incongruent","Congruent","Incongruent","Incongruent","Congruent","Incongruent","Incongruent","Congruent","Congruent","Congruent","Congruent","Incongruent","Congruent","Congruent","Incongruent","Congruent","Incongruent","Incongruent","Congruent","Congruent","Congruent","Congruent","Incongruent"],"ratio_trial":[300,300,300,200,300,200,200,100,100,100,200,200,100,100,200,100,200,200,300,200,200,200,200,100,200,300,200,300,100,300,100,100,100,300,300,200,300,100,300,100,100,100,100,200,300,300,300,300,100,200,200,200,200,300,200,200,200,100,200,200,300,200,200,300,300,100,300,300,200,200,200,100,200,100,200,200,300,200,100,100,100,100,300,300,100,200,100,300,300,300,200,300,100,100,200,300,100,200,100,300,100,100,300,100,300,300,200,300,300,300,100,100,100,100,300,100,300,200,300,100],"left_num":[7,4,2,16,12,7,16,8,4,6,1,7,10,9,11,6,4,7,20,7,6,1,11,9,14,4,20,5,8,1,3,10,7,4,5,9,1,1,13,12,8,7,12,1,13,1,1,1,3,8,4,1,8,13,3,4,1,3,7,6,4,9,3,4,4,1,8,13,4,9,4,7,3,6,7,7,9,4,9,11,4,3,8,7,11,4,11,20,2,4,21,7,7,10,3,12,11,1,9,7,6,1,3,9,1,1,16,11,13,11,3,8,15,9,4,2,1,7,1,10],"right_num":[20,2,10,12,2,12,9,2,6,5,3,14,9,8,3,11,14,12,13,8,3,2,3,14,12,2,9,7,6,8,11,9,9,6,7,13,3,18,12,13,1,9,13,2,12,11,3,3,2,2,3,2,3,12,11,3,21,8,4,7,6,4,7,2,8,18,9,12,6,8,6,9,14,11,14,2,3,14,8,9,8,4,14,8,6,6,9,13,6,2,2,20,9,8,14,2,9,2,8,8,3,18,4,20,6,6,12,4,12,1,2,1,13,6,2,6,19,18,8,9],"left_den":[14,20,20,20,24,10,30,16,8,20,2,10,25,15,22,10,6,10,25,10,20,3,22,15,30,20,25,25,16,30,5,25,14,5,25,30,5,2,26,30,20,14,30,3,26,5,2,5,6,15,8,3,15,26,4,10,2,5,15,12,5,20,10,20,5,2,10,26,5,15,5,14,6,10,10,21,10,6,15,22,8,6,10,10,22,5,22,25,4,20,30,14,14,25,10,24,22,3,15,10,12,2,6,10,5,5,20,22,26,22,6,20,25,18,20,5,3,15,30,25],"right_den":[25,4,25,20,10,24,27,5,10,25,10,28,18,16,10,22,30,24,26,16,6,15,10,28,18,4,15,14,10,24,22,18,15,12,14,26,6,30,15,26,2,15,26,15,15,22,15,6,5,6,10,15,9,15,20,15,30,16,6,10,12,16,14,4,16,30,18,15,10,10,10,15,20,22,28,15,5,30,16,15,20,10,28,20,15,10,15,26,30,4,4,25,15,16,28,10,15,15,16,20,5,30,20,25,12,12,20,20,15,5,5,2,26,10,4,12,30,27,24,18],"correct_side":[2,2,2,1,1,1,1,1,2,1,1,1,2,1,1,1,1,1,1,1,2,1,1,1,2,2,1,2,2,2,1,2,2,1,2,2,2,2,2,2,2,2,2,1,2,2,1,2,1,1,1,1,1,2,1,1,2,1,2,2,1,1,2,2,1,2,1,2,1,2,1,2,2,1,1,1,1,1,1,2,1,1,1,1,1,1,2,1,1,2,1,2,2,2,2,1,2,1,1,1,2,2,1,1,2,2,1,1,2,1,1,2,1,2,2,2,2,2,2,2],"img_shown":["img2/300/Congruent/R/C_Dist_300_LN_7_LD_14_RN_20_RD_25_1.png","img2/300/Incongruent/R/I_Dist_300_LN_4_LD_20_RN_2_RD_4_1.png","img2/300/Congruent/R/C_Dist_300_LN_2_LD_20_RN_10_RD_25_1.png","img2/200/Congruent/L/C_Dist_200_LN_16_LD_20_RN_12_RD_20_0.png","img2/300/Congruent/L/C_Dist_300_LN_12_LD_24_RN_2_RD_10_0.png","img2/200/Incongruent/L/I_Dist_200_LN_7_LD_10_RN_12_RD_24_0.png","img2/200/Congruent/L/C_Dist_200_LN_16_LD_30_RN_9_RD_27_0.png","img2/100/Congruent/L/C_Dist_100_LN_8_LD_16_RN_2_RD_5_0.png","img2/100/Congruent/R/C_Dist_100_LN_4_LD_8_RN_6_RD_10_1.png","img2/100/Congruent/L/C_Dist_100_LN_6_LD_20_RN_5_RD_25_0.png","img2/200/Incongruent/L/I_Dist_200_LN_1_LD_2_RN_3_RD_10_0.png","img2/200/Incongruent/L/I_Dist_200_LN_7_LD_10_RN_14_RD_28_0.png","img2/100/Incongruent/R/I_Dist_100_LN_10_LD_25_RN_9_RD_18_1.png","img2/100/Congruent/L/C_Dist_100_LN_9_LD_15_RN_8_RD_16_0.png","img2/200/Congruent/L/C_Dist_200_LN_11_LD_22_RN_3_RD_10_0.png","img2/100/Incongruent/L/I_Dist_100_LN_6_LD_10_RN_11_RD_22_0.png","img2/200/Incongruent/L/I_Dist_200_LN_4_LD_6_RN_14_RD_30_0.png","img2/200/Incongruent/L/I_Dist_200_LN_7_LD_10_RN_12_RD_24_0.png","img2/300/Congruent/L/C_Dist_300_LN_20_LD_25_RN_13_RD_26_0.png","img2/200/Incongruent/L/I_Dist_200_LN_7_LD_10_RN_8_RD_16_0.png","img2/200/Incongruent/R/I_Dist_200_LN_6_LD_20_RN_3_RD_6_1.png","img2/200/Incongruent/L/I_Dist_200_LN_1_LD_3_RN_2_RD_15_0.png","img2/200/Congruent/L/C_Dist_200_LN_11_LD_22_RN_3_RD_10_0.png","img2/100/Incongruent/L/I_Dist_100_LN_9_LD_15_RN_14_RD_28_0.png","img2/200/Incongruent/R/I_Dist_200_LN_14_LD_30_RN_12_RD_18_1.png","img2/300/Incongruent/R/I_Dist_300_LN_4_LD_20_RN_2_RD_4_1.png","img2/200/Congruent/L/C_Dist_200_LN_20_LD_25_RN_9_RD_15_0.png","img2/300/Congruent/R/C_Dist_300_LN_5_LD_25_RN_7_RD_14_1.png","img2/100/Incongruent/R/I_Dist_100_LN_8_LD_16_RN_6_RD_10_1.png","img2/300/Congruent/R/C_Dist_300_LN_1_LD_30_RN_8_RD_24_1.png","img2/100/Incongruent/L/I_Dist_100_LN_3_LD_5_RN_11_RD_22_0.png","img2/100/Incongruent/R/I_Dist_100_LN_10_LD_25_RN_9_RD_18_1.png","img2/100/Congruent/R/C_Dist_100_LN_7_LD_14_RN_9_RD_15_1.png","img2/300/Incongruent/L/I_Dist_300_LN_4_LD_5_RN_6_RD_12_0.png","img2/300/Congruent/R/C_Dist_300_LN_5_LD_25_RN_7_RD_14_1.png","img2/200/Congruent/R/C_Dist_200_LN_9_LD_30_RN_13_RD_26_1.png","img2/300/Congruent/R/C_Dist_300_LN_1_LD_5_RN_3_RD_6_1.png","img2/100/Congruent/R/C_Dist_100_LN_1_LD_2_RN_18_RD_30_1.png","img2/300/Incongruent/R/I_Dist_300_LN_13_LD_26_RN_12_RD_15_1.png","img2/100/Congruent/R/C_Dist_100_LN_12_LD_30_RN_13_RD_26_1.png","img2/100/Incongruent/R/I_Dist_100_LN_8_LD_20_RN_1_RD_2_1.png","img2/100/Congruent/R/C_Dist_100_LN_7_LD_14_RN_9_RD_15_1.png","img2/100/Congruent/R/C_Dist_100_LN_12_LD_30_RN_13_RD_26_1.png","img2/200/Incongruent/L/I_Dist_200_LN_1_LD_3_RN_2_RD_15_0.png","img2/300/Incongruent/R/I_Dist_300_LN_13_LD_26_RN_12_RD_15_1.png","img2/300/Congruent/R/C_Dist_300_LN_1_LD_5_RN_11_RD_22_1.png","img2/300/Incongruent/L/I_Dist_300_LN_1_LD_2_RN_3_RD_15_0.png","img2/300/Congruent/R/C_Dist_300_LN_1_LD_5_RN_3_RD_6_1.png","img2/100/Congruent/L/C_Dist_100_LN_3_LD_6_RN_2_RD_5_0.png","img2/200/Congruent/L/C_Dist_200_LN_8_LD_15_RN_2_RD_6_0.png","img2/200/Congruent/L/C_Dist_200_LN_4_LD_8_RN_3_RD_10_0.png","img2/200/Incongruent/L/I_Dist_200_LN_1_LD_3_RN_2_RD_15_0.png","img2/200/Congruent/L/C_Dist_200_LN_8_LD_15_RN_3_RD_9_0.png","img2/300/Incongruent/R/I_Dist_300_LN_13_LD_26_RN_12_RD_15_1.png","img2/200/Incongruent/L/I_Dist_200_LN_3_LD_4_RN_11_RD_20_0.png","img2/200/Congruent/L/C_Dist_200_LN_4_LD_10_RN_3_RD_15_0.png","img2/200/Congruent/R/C_Dist_200_LN_1_LD_2_RN_21_RD_30_1.png","img2/100/Incongruent/L/I_Dist_100_LN_3_LD_5_RN_8_RD_16_0.png","img2/200/Incongruent/R/I_Dist_200_LN_7_LD_15_RN_4_RD_6_1.png","img2/200/Congruent/R/C_Dist_200_LN_6_LD_12_RN_7_RD_10_1.png","img2/300/Incongruent/L/I_Dist_300_LN_4_LD_5_RN_6_RD_12_0.png","img2/200/Congruent/L/C_Dist_200_LN_9_LD_20_RN_4_RD_16_0.png","img2/200/Congruent/R/C_Dist_200_LN_3_LD_10_RN_7_RD_14_1.png","img2/300/Incongruent/R/I_Dist_300_LN_4_LD_20_RN_2_RD_4_1.png","img2/300/Incongruent/L/I_Dist_300_LN_4_LD_5_RN_8_RD_16_0.png","img2/100/Congruent/R/C_Dist_100_LN_1_LD_2_RN_18_RD_30_1.png","img2/300/Incongruent/L/I_Dist_300_LN_8_LD_10_RN_9_RD_18_0.png","img2/300/Incongruent/R/I_Dist_300_LN_13_LD_26_RN_12_RD_15_1.png","img2/200/Incongruent/L/I_Dist_200_LN_4_LD_5_RN_6_RD_10_0.png","img2/200/Incongruent/R/I_Dist_200_LN_9_LD_15_RN_8_RD_10_1.png","img2/200/Incongruent/L/I_Dist_200_LN_4_LD_5_RN_6_RD_10_0.png","img2/100/Congruent/R/C_Dist_100_LN_7_LD_14_RN_9_RD_15_1.png","img2/200/Congruent/R/C_Dist_200_LN_3_LD_6_RN_14_RD_20_1.png","img2/100/Incongruent/L/I_Dist_100_LN_6_LD_10_RN_11_RD_22_0.png","img2/200/Incongruent/L/I_Dist_200_LN_7_LD_10_RN_14_RD_28_0.png","img2/200/Congruent/L/C_Dist_200_LN_7_LD_21_RN_2_RD_15_0.png","img2/300/Congruent/L/C_Dist_300_LN_9_LD_10_RN_3_RD_5_0.png","img2/200/Incongruent/L/I_Dist_200_LN_4_LD_6_RN_14_RD_30_0.png","img2/100/Congruent/L/C_Dist_100_LN_9_LD_15_RN_8_RD_16_0.png","img2/100/Incongruent/R/I_Dist_100_LN_11_LD_22_RN_9_RD_15_1.png","img2/100/Incongruent/L/I_Dist_100_LN_4_LD_8_RN_8_RD_20_0.png","img2/100/Incongruent/L/I_Dist_100_LN_3_LD_6_RN_4_RD_10_0.png","img2/300/Incongruent/L/I_Dist_300_LN_8_LD_10_RN_14_RD_28_0.png","img2/300/Incongruent/L/I_Dist_300_LN_7_LD_10_RN_8_RD_20_0.png","img2/100/Congruent/L/C_Dist_100_LN_11_LD_22_RN_6_RD_15_0.png","img2/200/Incongruent/L/I_Dist_200_LN_4_LD_5_RN_6_RD_10_0.png","img2/100/Incongruent/R/I_Dist_100_LN_11_LD_22_RN_9_RD_15_1.png","img2/300/Congruent/L/C_Dist_300_LN_20_LD_25_RN_13_RD_26_0.png","img2/300/Incongruent/L/I_Dist_300_LN_2_LD_4_RN_6_RD_30_0.png","img2/300/Incongruent/R/I_Dist_300_LN_4_LD_20_RN_2_RD_4_1.png","img2/200/Congruent/L/C_Dist_200_LN_21_LD_30_RN_2_RD_4_0.png","img2/300/Congruent/R/C_Dist_300_LN_7_LD_14_RN_20_RD_25_1.png","img2/100/Congruent/R/C_Dist_100_LN_7_LD_14_RN_9_RD_15_1.png","img2/100/Incongruent/R/I_Dist_100_LN_10_LD_25_RN_8_RD_16_1.png","img2/200/Congruent/R/C_Dist_200_LN_3_LD_10_RN_14_RD_28_1.png","img2/300/Congruent/L/C_Dist_300_LN_12_LD_24_RN_2_RD_10_0.png","img2/100/Incongruent/R/I_Dist_100_LN_11_LD_22_RN_9_RD_15_1.png","img2/200/Incongruent/L/I_Dist_200_LN_1_LD_3_RN_2_RD_15_0.png","img2/100/Congruent/L/C_Dist_100_LN_9_LD_15_RN_8_RD_16_0.png","img2/300/Incongruent/L/I_Dist_300_LN_7_LD_10_RN_8_RD_20_0.png","img2/100/Incongruent/R/I_Dist_100_LN_6_LD_12_RN_3_RD_5_1.png","img2/100/Congruent/R/C_Dist_100_LN_1_LD_2_RN_18_RD_30_1.png","img2/300/Incongruent/L/I_Dist_300_LN_3_LD_6_RN_4_RD_20_0.png","img2/100/Incongruent/L/I_Dist_100_LN_9_LD_10_RN_20_RD_25_0.png","img2/300/Congruent/R/C_Dist_300_LN_1_LD_5_RN_6_RD_12_1.png","img2/300/Congruent/R/C_Dist_300_LN_1_LD_5_RN_6_RD_12_1.png","img2/200/Congruent/L/C_Dist_200_LN_16_LD_20_RN_12_RD_20_0.png","img2/300/Congruent/L/C_Dist_300_LN_11_LD_22_RN_4_RD_20_0.png","img2/300/Incongruent/R/I_Dist_300_LN_13_LD_26_RN_12_RD_15_1.png","img2/300/Congruent/L/C_Dist_300_LN_11_LD_22_RN_1_RD_5_0.png","img2/100/Congruent/L/C_Dist_100_LN_3_LD_6_RN_2_RD_5_0.png","img2/100/Incongruent/R/I_Dist_100_LN_8_LD_20_RN_1_RD_2_1.png","img2/100/Congruent/L/C_Dist_100_LN_15_LD_25_RN_13_RD_26_0.png","img2/100/Incongruent/R/I_Dist_100_LN_9_LD_18_RN_6_RD_10_1.png","img2/300/Incongruent/R/I_Dist_300_LN_4_LD_20_RN_2_RD_4_1.png","img2/100/Congruent/R/C_Dist_100_LN_2_LD_5_RN_6_RD_12_1.png","img2/300/Congruent/R/C_Dist_300_LN_1_LD_3_RN_19_RD_30_1.png","img2/200/Congruent/R/C_Dist_200_LN_7_LD_15_RN_18_RD_27_1.png","img2/300/Congruent/R/C_Dist_300_LN_1_LD_30_RN_8_RD_24_1.png","img2/100/Incongruent/R/I_Dist_100_LN_10_LD_25_RN_9_RD_18_1.png"],"dist100_C":[["C_Dist_100_LN_10_LD_25_RN_3_RD_10_0.png","C_Dist_100_LN_11_LD_22_RN_4_RD_10_0.png","C_Dist_100_LN_11_LD_22_RN_6_RD_15_0.png","C_Dist_100_LN_15_LD_25_RN_13_RD_26_0.png","C_Dist_100_LN_3_LD_6_RN_2_RD_5_0.png","C_Dist_100_LN_6_LD_20_RN_5_RD_25_0.png","C_Dist_100_LN_8_LD_16_RN_2_RD_5_0.png","C_Dist_100_LN_9_LD_15_RN_8_RD_16_0.png"],["C_Dist_100_LN_1_LD_2_RN_18_RD_30_1.png","C_Dist_100_LN_1_LD_2_RN_3_RD_5_1.png","C_Dist_100_LN_12_LD_30_RN_13_RD_26_1.png","C_Dist_100_LN_2_LD_5_RN_11_RD_22_1.png","C_Dist_100_LN_2_LD_5_RN_6_RD_12_1.png","C_Dist_100_LN_3_LD_20_RN_4_RD_16_1.png","C_Dist_100_LN_4_LD_10_RN_15_RD_30_1.png","C_Dist_100_LN_4_LD_8_RN_6_RD_10_1.png","C_Dist_100_LN_6_LD_12_RN_15_RD_25_1.png","C_Dist_100_LN_7_LD_14_RN_15_RD_25_1.png","C_Dist_100_LN_7_LD_14_RN_9_RD_15_1.png"]],"dist100_I":[["I_Dist_100_LN_1_LD_2_RN_8_RD_20_0.png","I_Dist_100_LN_2_LD_4_RN_6_RD_15_0.png","I_Dist_100_LN_2_LD_4_RN_8_RD_20_0.png","I_Dist_100_LN_3_LD_5_RN_11_RD_22_0.png","I_Dist_100_LN_3_LD_5_RN_8_RD_16_0.png","I_Dist_100_LN_3_LD_6_RN_4_RD_10_0.png","I_Dist_100_LN_3_LD_9_RN_7_RD_30_0.png","I_Dist_100_LN_4_LD_8_RN_8_RD_20_0.png","I_Dist_100_LN_6_LD_10_RN_11_RD_22_0.png","I_Dist_100_LN_6_LD_10_RN_13_RD_26_0.png","I_Dist_100_LN_6_LD_10_RN_7_RD_14_0.png","I_Dist_100_LN_9_LD_10_RN_20_RD_25_0.png","I_Dist_100_LN_9_LD_15_RN_13_RD_26_0.png","I_Dist_100_LN_9_LD_15_RN_14_RD_28_0.png"],["I_Dist_100_LN_10_LD_25_RN_8_RD_16_1.png","I_Dist_100_LN_10_LD_25_RN_9_RD_18_1.png","I_Dist_100_LN_11_LD_22_RN_9_RD_15_1.png","I_Dist_100_LN_12_LD_24_RN_9_RD_15_1.png","I_Dist_100_LN_12_LD_30_RN_2_RD_4_1.png","I_Dist_100_LN_13_LD_26_RN_12_RD_20_1.png","I_Dist_100_LN_13_LD_26_RN_6_RD_10_1.png","I_Dist_100_LN_17_LD_30_RN_10_RD_15_1.png","I_Dist_100_LN_6_LD_12_RN_3_RD_5_1.png","I_Dist_100_LN_8_LD_16_RN_6_RD_10_1.png","I_Dist_100_LN_8_LD_20_RN_1_RD_2_1.png","I_Dist_100_LN_9_LD_18_RN_6_RD_10_1.png"]],"dist100_S":[["E_Dist_100_LN_2_LD_12_RN_2_RD_30_0.png","E_Dist_100_LN_6_LD_10_RN_6_RD_12_0.png"],["E_Dist_100_LN_6_LD_12_RN_6_RD_10_1.png"]],"dist200_C":[["C_Dist_200_LN_11_LD_22_RN_3_RD_10_0.png","C_Dist_200_LN_12_LD_15_RN_6_RD_10_0.png","C_Dist_200_LN_12_LD_20_RN_6_RD_15_0.png","C_Dist_200_LN_14_LD_28_RN_6_RD_20_0.png","C_Dist_200_LN_15_LD_25_RN_4_RD_10_0.png","C_Dist_200_LN_16_LD_20_RN_12_RD_20_0.png","C_Dist_200_LN_16_LD_30_RN_9_RD_27_0.png","C_Dist_200_LN_20_LD_25_RN_9_RD_15_0.png","C_Dist_200_LN_21_LD_30_RN_2_RD_4_0.png","C_Dist_200_LN_4_LD_10_RN_3_RD_15_0.png","C_Dist_200_LN_4_LD_8_RN_3_RD_10_0.png","C_Dist_200_LN_6_LD_15_RN_3_RD_15_0.png","C_Dist_200_LN_7_LD_21_RN_2_RD_15_0.png","C_Dist_200_LN_8_LD_15_RN_2_RD_6_0.png","C_Dist_200_LN_8_LD_15_RN_3_RD_9_0.png","C_Dist_200_LN_8_LD_15_RN_7_RD_21_0.png","C_Dist_200_LN_9_LD_20_RN_4_RD_16_0.png"],["C_Dist_200_LN_1_LD_2_RN_21_RD_30_1.png","C_Dist_200_LN_13_LD_26_RN_14_RD_20_1.png","C_Dist_200_LN_3_LD_10_RN_11_RD_22_1.png","C_Dist_200_LN_3_LD_10_RN_14_RD_28_1.png","C_Dist_200_LN_3_LD_10_RN_7_RD_14_1.png","C_Dist_200_LN_3_LD_12_RN_9_RD_20_1.png","C_Dist_200_LN_3_LD_6_RN_14_RD_20_1.png","C_Dist_200_LN_5_LD_10_RN_14_RD_20_1.png","C_Dist_200_LN_6_LD_12_RN_7_RD_10_1.png","C_Dist_200_LN_6_LD_20_RN_11_RD_22_1.png","C_Dist_200_LN_7_LD_15_RN_18_RD_27_1.png","C_Dist_200_LN_9_LD_30_RN_13_RD_26_1.png"]],"dist200_I":[["I_Dist_200_LN_1_LD_2_RN_3_RD_10_0.png","I_Dist_200_LN_1_LD_3_RN_2_RD_15_0.png","I_Dist_200_LN_3_LD_4_RN_11_RD_20_0.png","I_Dist_200_LN_4_LD_5_RN_6_RD_10_0.png","I_Dist_200_LN_4_LD_6_RN_14_RD_30_0.png","I_Dist_200_LN_7_LD_10_RN_12_RD_24_0.png","I_Dist_200_LN_7_LD_10_RN_14_RD_28_0.png","I_Dist_200_LN_7_LD_10_RN_8_RD_16_0.png"],["I_Dist_200_LN_11_LD_20_RN_3_RD_4_1.png","I_Dist_200_LN_14_LD_30_RN_12_RD_18_1.png","I_Dist_200_LN_14_LD_30_RN_6_RD_9_1.png","I_Dist_200_LN_3_LD_10_RN_1_RD_2_1.png","I_Dist_200_LN_4_LD_30_RN_1_RD_3_1.png","I_Dist_200_LN_6_LD_20_RN_3_RD_6_1.png","I_Dist_200_LN_7_LD_15_RN_4_RD_6_1.png","I_Dist_200_LN_7_LD_15_RN_6_RD_9_1.png","I_Dist_200_LN_9_LD_15_RN_8_RD_10_1.png"]],"dist200_S":[["E_Dist_200_LN_3_LD_6_RN_3_RD_10_0.png"],["E_Dist_200_LN_3_LD_10_RN_3_RD_6_1.png"]],"dist300_C":[["C_Dist_300_LN_11_LD_22_RN_1_RD_5_0.png","C_Dist_300_LN_11_LD_22_RN_2_RD_10_0.png","C_Dist_300_LN_11_LD_22_RN_4_RD_20_0.png","C_Dist_300_LN_12_LD_24_RN_2_RD_10_0.png","C_Dist_300_LN_18_LD_20_RN_9_RD_15_0.png","C_Dist_300_LN_20_LD_25_RN_13_RD_26_0.png","C_Dist_300_LN_20_LD_25_RN_14_RD_28_0.png","C_Dist_300_LN_20_LD_25_RN_5_RD_10_0.png","C_Dist_300_LN_20_LD_25_RN_8_RD_16_0.png","C_Dist_300_LN_20_LD_25_RN_9_RD_18_0.png","C_Dist_300_LN_24_LD_30_RN_2_RD_4_0.png","C_Dist_300_LN_24_LD_30_RN_8_RD_16_0.png","C_Dist_300_LN_3_LD_6_RN_2_RD_10_0.png","C_Dist_300_LN_4_LD_10_RN_1_RD_10_0.png","C_Dist_300_LN_4_LD_5_RN_2_RD_4_0.png","C_Dist_300_LN_8_LD_16_RN_1_RD_5_0.png","C_Dist_300_LN_9_LD_10_RN_3_RD_5_0.png"],["C_Dist_300_LN_1_LD_20_RN_7_RD_20_1.png","C_Dist_300_LN_1_LD_3_RN_19_RD_30_1.png","C_Dist_300_LN_1_LD_30_RN_8_RD_24_1.png","C_Dist_300_LN_1_LD_5_RN_11_RD_22_1.png","C_Dist_300_LN_1_LD_5_RN_3_RD_6_1.png","C_Dist_300_LN_1_LD_5_RN_6_RD_12_1.png","C_Dist_300_LN_2_LD_10_RN_12_RD_24_1.png","C_Dist_300_LN_2_LD_20_RN_10_RD_25_1.png","C_Dist_300_LN_3_LD_12_RN_11_RD_20_1.png","C_Dist_300_LN_3_LD_6_RN_4_RD_5_1.png","C_Dist_300_LN_4_LD_20_RN_13_RD_26_1.png","C_Dist_300_LN_5_LD_25_RN_6_RD_12_1.png","C_Dist_300_LN_5_LD_25_RN_7_RD_14_1.png","C_Dist_300_LN_7_LD_14_RN_20_RD_25_1.png","C_Dist_300_LN_8_LD_15_RN_10_RD_12_1.png"]],"dist300_I":[["I_Dist_300_LN_1_LD_2_RN_2_RD_10_0.png","I_Dist_300_LN_1_LD_2_RN_3_RD_15_0.png","I_Dist_300_LN_2_LD_4_RN_6_RD_30_0.png","I_Dist_300_LN_3_LD_6_RN_4_RD_20_0.png","I_Dist_300_LN_4_LD_5_RN_6_RD_12_0.png","I_Dist_300_LN_4_LD_5_RN_8_RD_16_0.png","I_Dist_300_LN_7_LD_10_RN_8_RD_20_0.png","I_Dist_300_LN_8_LD_10_RN_14_RD_28_0.png","I_Dist_300_LN_8_LD_10_RN_9_RD_18_0.png"],["I_Dist_300_LN_13_LD_26_RN_12_RD_15_1.png","I_Dist_300_LN_4_LD_20_RN_2_RD_4_1.png"]],"dist300_S":[["E_Dist_300_LN_9_LD_12_RN_9_RD_20_0.png"],["E_Dist_300_LN_18_LD_30_RN_18_RD_20_1.png","E_Dist_300_LN_3_LD_10_RN_3_RD_5_1.png","E_Dist_300_LN_9_LD_20_RN_9_RD_12_1.png"]],"dist500_C":[["C_Dist_500_LN_10_LD_13_RN_7_RD_26_0.png","C_Dist_500_LN_10_LD_15_RN_4_RD_24_0.png","C_Dist_500_LN_12_LD_16_RN_3_RD_12_0.png","C_Dist_500_LN_12_LD_18_RN_4_RD_24_0.png","C_Dist_500_LN_15_LD_18_RN_5_RD_15_0.png","C_Dist_500_LN_15_LD_20_RN_1_RD_4_0.png","C_Dist_500_LN_18_LD_27_RN_1_RD_6_0.png","C_Dist_500_LN_20_LD_24_RN_1_RD_3_0.png","C_Dist_500_LN_20_LD_24_RN_3_RD_9_0.png","C_Dist_500_LN_20_LD_24_RN_7_RD_21_0.png","C_Dist_500_LN_20_LD_28_RN_3_RD_14_0.png","C_Dist_500_LN_21_LD_28_RN_6_RD_24_0.png","C_Dist_500_LN_22_LD_28_RN_2_RD_7_0.png","C_Dist_500_LN_25_LD_30_RN_9_RD_27_0.png","C_Dist_500_LN_4_LD_6_RN_1_RD_6_0.png","C_Dist_500_LN_5_LD_6_RN_2_RD_6_0.png","C_Dist_500_LN_6_LD_9_RN_1_RD_6_0.png","C_Dist_500_LN_7_LD_10_RN_1_RD_5_0.png","C_Dist_500_LN_8_LD_12_RN_1_RD_6_0.png","C_Dist_500_LN_8_LD_12_RN_4_RD_24_0.png"],["C_Dist_500_LN_1_LD_4_RN_12_RD_16_1.png","C_Dist_500_LN_1_LD_4_RN_9_RD_12_1.png","C_Dist_500_LN_1_LD_9_RN_11_RD_18_1.png","C_Dist_500_LN_10_LD_24_RN_22_RD_24_1.png","C_Dist_500_LN_2_LD_12_RN_10_RD_15_1.png","C_Dist_500_LN_2_LD_12_RN_12_RD_18_1.png","C_Dist_500_LN_2_LD_12_RN_4_RD_6_1.png","C_Dist_500_LN_2_LD_24_RN_7_RD_12_1.png","C_Dist_500_LN_2_LD_5_RN_18_RD_20_1.png","C_Dist_500_LN_2_LD_5_RN_9_RD_10_1.png","C_Dist_500_LN_2_LD_8_RN_12_RD_16_1.png","C_Dist_500_LN_2_LD_8_RN_21_RD_28_1.png","C_Dist_500_LN_3_LD_10_RN_4_RD_5_1.png","C_Dist_500_LN_3_LD_12_RN_15_RD_20_1.png","C_Dist_500_LN_3_LD_30_RN_6_RD_10_1.png","C_Dist_500_LN_3_LD_8_RN_14_RD_16_1.png","C_Dist_500_LN_4_LD_16_RN_15_RD_20_1.png","C_Dist_500_LN_4_LD_24_RN_12_RD_18_1.png","C_Dist_500_LN_5_LD_14_RN_6_RD_7_1.png","C_Dist_500_LN_7_LD_21_RN_20_RD_24_1.png","C_Dist_500_LN_7_LD_28_RN_12_RD_16_1.png","C_Dist_500_LN_7_LD_28_RN_9_RD_12_1.png","C_Dist_500_LN_9_LD_27_RN_20_RD_24_1.png"]],"dist500_I":[["I_Dist_500_LN_2_LD_3_RN_4_RD_24_0.png","I_Dist_500_LN_5_LD_6_RN_6_RD_18_0.png","I_Dist_500_LN_7_LD_8_RN_9_RD_24_0.png"],["I_Dist_500_LN_7_LD_21_RN_5_RD_6_1.png"]],"dist500_S":[["E_Dist_500_LN_6_LD_8_RN_6_RD_24_0.png"],["E_Dist_500_LN_2_LD_12_RN_2_RD_3_1.png","E_Dist_500_LN_6_LD_24_RN_6_RD_8_1.png"]]}},{"start_time":1551900684598,"click_time":1551900689468,"finger_time":1551900689208,"fix_duration":1007.4344677690708,"trial":1,"RT":4610,"MT":260,"sideResp":2,"stimulus":[],"xmouse":[806,806,806,806,806,806,806,806,806,806,806,806,806,806,806,806,806,806,806,806,806,806,806,806,806,806,806,806,806,806,806,806,806,806,806,806,806,806,806,806,806,806,806,806,806,806,806,806,806,806,806,806,806,806,806,806,806,806,806,806,806,806,806,806,806,806,806,806,806,806,806,806,806,806,806,806,806,806,806,806,806,806,806,806,806,806,806,806,806,806,806,806,806,806,806,806,806,806,806,806,806,806,806,806,806,806,806,806,806,806,806,806,806,806,806,806,806,806,806,806,806,806,806,806,806,806,806,806,806,806,806,806,806,806,806,806,806,806,806,806,806,806,806,806,806,806,806,806,806,806,806,806,806,806,806,806,806,806,806,806,806,806,806,806,806,806,806,806,806,806,806,806,806,806,806,806,806,806,806,806,806,806,806,806,806,806,806,806,806,806,806,806,806,806,806,806,806,806,806,806,806,806,806,806,806,806,806,806,806,806,806,806,806,806,806,806,806,806,806,806,806,806,806,806,806,806,806,806,806,826,853,918,967,1069,1090,1102,1110,1114,1120,1122,1128,1136,1149,1156],"ymouse":[534,534,534,534,534,534,534,534,534,534,534,534,534,534,534,534,534,534,534,534,534,534,534,534,534,534,534,534,534,534,534,534,534,534,534,534,534,534,534,534,534,534,534,534,534,534,534,534,534,534,534,534,534,534,534,534,534,534,534,534,534,534,534,534,534,534,534,534,534,534,534,534,534,534,534,534,534,534,534,534,534,534,534,534,534,534,534,534,534,534,534,534,534,534,534,534,534,534,534,534,534,534,534,534,534,534,534,534,534,534,534,534,534,534,534,534,534,534,534,534,534,534,534,534,534,534,534,534,534,534,534,534,534,534,534,534,534,534,534,534,534,534,534,534,534,534,534,534,534,534,534,534,534,534,534,534,534,534,534,534,534,534,534,534,534,534,534,534,534,534,534,534,534,534,534,534,534,534,534,534,534,534,534,534,534,534,534,534,534,534,534,534,534,534,534,534,534,534,534,534,534,534,534,534,534,534,534,534,534,534,534,534,534,534,534,534,534,534,534,534,534,534,534,534,534,534,534,534,534,519,490,435,381,266,237,219,204,196,188,185,171,150,120,81],"timestamp_mouse":[13,37,50,69,91,110,130,150,169,190,210,230,250,270,290,309,329,350,369,389,410,431,450,470,490,511,531,550,570,589,610,630,649,670,690,709,731,751,770,789,810,830,849,870,890,910,929,950,971,990,1010,1029,1051,1069,1089,1110,1129,1149,1171,1190,1210,1231,1249,1270,1291,1310,1330,1351,1370,1391,1410,1430,1450,1469,1490,1511,1530,1549,1570,1589,1610,1629,1649,1671,1690,1710,1731,1751,1770,1790,1811,1829,1849,1870,1891,1910,1929,1951,1969,1990,2011,2030,2049,2071,2090,2111,2129,2149,2169,2189,2210,2230,2249,2270,2290,2309,2329,2351,2371,2389,2410,2431,2451,2469,2489,2510,2529,2549,2569,2590,2610,2630,2649,2669,2690,2709,2730,2750,2770,2790,2810,2830,2849,2871,2890,2910,2930,2949,2970,2990,3011,3029,3049,3069,3090,3110,3129,3150,3169,3191,3210,3229,3251,3270,3290,3310,3330,3350,3370,3391,3410,3429,3449,3469,3490,3510,3531,3551,3569,3590,3610,3631,3650,3669,3689,3710,3729,3751,3769,3790,3810,3830,3850,3869,3890,3909,3930,3950,3970,3990,4009,4030,4050,4069,4090,4109,4129,4150,4171,4190,4209,4231,4250,4269,4290,4310,4330,4351,4369,4390,4411,4430,4451,4469,4489,4509,4529,4551,4569,4589,4610,4630,4649,4670,4689,4710,4731,4750,4771,4789,4810,4829,4849,4869],"xSR":741.5,"ySR":469.95,"xT1":424.9,"yT1":0,"xT2":1058.1,"yT2":0,"toosoon":0,"cond_shown":"Incongruent","ratio_trial":300,"L_num":4,"L_den":20,"R_num":2,"R_den":4,"correct_side":2,"subjID":"juanEstebanParada-4","gender":"0","school":"6","age":"13"},{"start_time":1551900691983,"click_time":1551900693787,"finger_time":1551900693368,"fix_duration":793.5316366474973,"trial":2,"RT":1385,"MT":419,"sideResp":2,"stimulus":[],"xmouse":[802,802,802,802,802,802,802,802,802,802,802,802,802,802,802,802,802,802,802,802,802,802,802,802,802,802,802,802,802,802,802,802,802,802,802,802,802,802,802,802,802,802,802,802,802,802,802,802,802,802,802,802,802,802,802,802,802,802,802,802,802,802,802,802,802,802,802,813,823,877,893,905,913,918,936,941,947,952,955,960,963,971,980,989,1015,1035,1052,1065,1074,1084,1089],"ymouse":[520,520,520,520,520,520,520,520,520,520,520,520,520,520,520,520,520,520,520,520,520,520,520,520,520,520,520,520,520,520,520,520,520,520,520,520,520,520,520,520,520,520,520,520,520,520,520,520,520,520,520,520,520,520,520,520,520,520,520,520,520,520,520,520,520,520,520,511,497,418,395,377,360,341,272,253,236,222,212,193,184,172,164,159,149,141,132,123,115,104,99],"timestamp_mouse":[11,25,45,65,84,104,126,144,165,184,206,225,245,264,285,305,326,345,365,386,405,426,444,465,486,505,524,544,566,586,604,624,646,665,684,705,724,745,764,784,805,824,845,866,884,904,924,945,965,985,1004,1025,1044,1064,1085,1105,1125,1145,1165,1186,1206,1226,1245,1264,1286,1305,1325,1345,1366,1384,1406,1424,1444,1464,1485,1506,1524,1545,1566,1584,1604,1626,1646,1665,1685,1706,1725,1744,1766,1784,1804],"xSR":741.5,"ySR":469.95,"xT1":424.9,"yT1":0,"xT2":1058.1,"yT2":0,"toosoon":0,"cond_shown":"Congruent","ratio_trial":300,"L_num":2,"L_den":20,"R_num":10,"R_den":25,"correct_side":2,"subjID":"juanEstebanParada-4","gender":"0","school":"6","age":"13"},{"start_time":1551900695120,"click_time":1551900696489,"finger_time":1551900696089,"fix_duration":250,"trial":3,"RT":969,"MT":400,"sideResp":1,"stimulus":[],"xmouse":[787,787,787,787,787,787,787,787,787,787,787,787,787,787,787,787,787,787,787,787,787,787,787,787,787,787,787,787,787,787,787,787,787,787,787,787,787,787,787,787,787,787,787,787,787,787,787,778,747,718,693,671,649,612,593,579,566,558,557,555,554,552,551,551,550,548,539,531,513],"ymouse":[526,526,526,526,526,526,526,526,526,526,526,526,526,526,526,526,526,526,526,526,526,526,526,526,526,526,526,526,526,526,526,526,526,526,526,526,526,526,526,526,526,526,526,526,526,526,526,508,462,418,386,354,325,265,233,209,186,170,165,159,153,149,144,140,138,132,117,106,84],"timestamp_mouse":[12,33,48,69,88,108,128,149,167,187,208,228,247,268,288,307,328,347,368,387,408,427,447,467,488,507,528,548,568,588,608,628,647,669,689,708,727,748,768,787,807,827,848,868,889,908,928,947,969,989,1008,1029,1048,1069,1088,1108,1127,1147,1167,1187,1208,1228,1248,1267,1287,1308,1328,1348,1369],"xSR":741.5,"ySR":469.95,"xT1":424.9,"yT1":0,"xT2":1058.1,"yT2":0,"toosoon":0,"cond_shown":"Congruent","ratio_trial":200,"L_num":16,"L_den":20,"R_num":12,"R_den":20,"correct_side":1,"subjID":"juanEstebanParada-4","gender":"0","school":"6","age":"13"},{"start_time":1551900697793,"click_time":1551900698808,"finger_time":1551900698668,"fix_duration":443.41383982805837,"trial":4,"RT":875,"MT":140,"sideResp":1,"stimulus":[],"xmouse":[817,817,817,817,817,817,817,817,817,817,817,817,817,817,817,817,817,817,817,817,817,817,817,817,817,817,817,817,817,817,817,817,817,817,817,817,817,817,817,816,815,810,808,790,773,748,698,635,581,520,507],"ymouse":[516,516,516,516,516,516,516,516,516,516,516,516,516,516,516,516,516,516,516,516,516,516,516,516,516,516,516,516,516,516,516,516,516,516,516,516,516,516,516,515,512,501,498,467,436,394,323,250,193,121,97],"timestamp_mouse":[29,35,55,75,94,115,136,154,174,196,214,235,256,276,295,315,335,356,375,394,416,434,454,476,494,514,535,555,574,594,616,635,654,674,696,715,735,755,774,794,815,835,855,875,894,915,935,954,975,995,1015],"xSR":741.5,"ySR":469.95,"xT1":424.9,"yT1":0,"xT2":1058.1,"yT2":0,"toosoon":0,"cond_shown":"Congruent","ratio_trial":300,"L_num":12,"L_den":24,"R_num":2,"R_den":10,"correct_side":1,"subjID":"juanEstebanParada-4","gender":"0","school":"6","age":"13"},{"start_time":1551900701200,"click_time":1551900702769,"finger_time":1551900702587,"fix_duration":1310.8387661114919,"trial":5,"RT":1387,"MT":182,"sideResp":1,"stimulus":[],"xmouse":[822,822,822,822,822,822,822,822,822,822,822,822,822,822,822,822,822,822,822,822,822,822,822,822,822,822,822,822,822,822,822,822,822,822,822,822,822,822,822,822,822,822,822,822,822,822,822,822,822,822,822,822,822,822,822,822,822,822,822,822,822,822,822,822,822,822,822,820,805,725,655,566,486,419,419,419,419,419,426],"ymouse":[542,542,542,542,542,542,542,542,542,542,542,542,542,542,542,542,542,542,542,542,542,542,542,542,542,542,542,542,542,542,542,542,542,542,542,542,542,542,542,542,542,542,542,542,542,542,542,542,542,542,542,542,542,542,542,542,542,542,542,542,542,542,542,542,542,542,542,534,507,412,351,277,208,134,131,127,121,112,97],"timestamp_mouse":[12,37,48,67,87,108,128,147,167,187,208,227,247,268,287,308,328,349,368,388,407,428,448,468,487,508,529,547,568,587,607,628,649,667,687,709,728,748,767,789,808,828,847,868,888,908,928,948,967,989,1008,1027,1048,1067,1087,1107,1128,1148,1167,1187,1208,1229,1249,1268,1288,1307,1328,1347,1368,1387,1407,1428,1448,1467,1487,1507,1528,1549,1568],"xSR":741.5,"ySR":469.95,"xT1":424.9,"yT1":0,"xT2":1058.1,"yT2":0,"toosoon":0,"cond_shown":"Incongruent","ratio_trial":200,"L_num":7,"L_den":10,"R_num":12,"R_den":24,"correct_side":1,"subjID":"juanEstebanParada-4","gender":"0","school":"6","age":"13"},{"start_time":1551900703880,"click_time":1551900704768,"finger_time":1551900704567,"fix_duration":250,"trial":6,"RT":687,"MT":201,"sideResp":1,"stimulus":[],"xmouse":[797,797,797,797,797,797,797,797,797,797,797,797,797,797,797,797,797,797,797,797,797,797,797,797,797,797,797,797,797,797,797,796,793,783,729,677,621,580,550,491,483,477,477,477,485],"ymouse":[510,511,511,511,511,511,511,511,511,511,511,511,511,511,511,511,511,511,511,511,511,511,511,511,511,511,511,511,511,511,511,512,512,512,498,474,440,402,359,240,195,154,127,109,69],"timestamp_mouse":[10,28,53,68,88,108,129,148,167,187,208,229,247,267,287,308,328,348,369,389,408,427,449,469,487,508,527,548,567,587,608,627,648,667,687,707,727,748,767,787,807,827,849,867,887],"xSR":741.5,"ySR":469.95,"xT1":424.9,"yT1":0,"xT2":1058.1,"yT2":0,"toosoon":0,"cond_shown":"Congruent","ratio_trial":200,"L_num":16,"L_den":30,"R_num":9,"R_den":27,"correct_side":1,"subjID":"juanEstebanParada-4","gender":"0","school":"6","age":"13"},{"start_time":1551900706310,"click_time":1551900706928,"finger_time":1551900706768,"fix_duration":861.8878608743527,"trial":7,"RT":458,"MT":160,"sideResp":1,"stimulus":[],"xmouse":[767,767,767,767,767,767,767,767,767,765,761,756,755,755,755,755,755,755,755,755,755,755,736,676,606,572,552,505,495,486,486],"ymouse":[521,521,521,521,521,521,521,521,521,528,536,549,556,556,556,556,556,556,556,556,556,542,502,445,389,360,340,214,162,107,74],"timestamp_mouse":[17,38,67,79,98,118,138,157,177,197,217,238,258,277,299,319,338,357,378,398,419,439,458,477,497,519,537,557,577,597,618],"xSR":741.5,"ySR":469.95,"xT1":424.9,"yT1":0,"xT2":1058.1,"yT2":0,"toosoon":0,"cond_shown":"Congruent","ratio_trial":100,"L_num":8,"L_den":16,"R_num":2,"R_den":5,"correct_side":1,"subjID":"juanEstebanParada-4","gender":"0","school":"6","age":"13"},{"start_time":1551900708131,"click_time":1551900708968,"finger_time":1551900708728,"fix_duration":282.1967600867932,"trial":8,"RT":597,"MT":240,"sideResp":2,"stimulus":[],"xmouse":[782,782,782,782,782,782,782,782,782,781,781,781,781,781,781,781,781,781,781,781,781,781,781,781,781,781,781,781,793,842,911,1048,1085,1101,1110,1114,1118,1121,1122,1122,1122,1122],"ymouse":[518,518,518,519,520,521,521,521,522,522,523,523,523,523,523,523,523,523,523,523,523,523,523,523,523,523,523,523,507,453,382,247,209,187,170,153,123,114,109,107,103,97],"timestamp_mouse":[18,36,58,78,97,117,137,157,177,197,216,236,257,277,297,316,336,356,376,396,417,437,458,477,496,517,537,558,578,597,616,637,656,677,696,717,737,756,776,797,816,836],"xSR":741.5,"ySR":469.95,"xT1":424.9,"yT1":0,"xT2":1058.1,"yT2":0,"toosoon":0,"cond_shown":"Congruent","ratio_trial":100,"L_num":4,"L_den":8,"R_num":6,"R_den":10,"correct_side":2,"subjID":"juanEstebanParada-4","gender":"0","school":"6","age":"13"},{"start_time":1551900710219,"click_time":1551900711249,"finger_time":1551900711169,"fix_duration":250,"trial":9,"RT":950,"MT":80,"sideResp":2,"stimulus":[],"xmouse":[806,806,806,806,806,806,806,806,806,806,806,806,806,806,806,806,806,806,806,806,806,806,806,806,806,806,806,806,806,806,806,806,806,806,806,806,806,806,806,806,806,806,806,806,808,815,837,943,990,1037,1077,1108],"ymouse":[534,534,534,534,534,534,534,534,534,534,534,534,534,534,534,534,534,534,534,534,534,534,534,534,534,534,534,534,534,534,534,534,534,534,534,534,534,534,534,534,534,534,534,534,528,521,493,388,322,250,168,95],"timestamp_mouse":[17,43,50,69,89,108,129,150,169,189,209,228,249,268,288,310,328,349,368,389,408,428,448,469,489,509,529,549,569,589,609,628,650,670,690,709,728,749,769,788,809,828,848,869,888,909,929,950,968,988,1008,1029],"xSR":741.5,"ySR":469.95,"xT1":424.9,"yT1":0,"xT2":1058.1,"yT2":0,"toosoon":0,"cond_shown":"Congruent","ratio_trial":100,"L_num":6,"L_den":20,"R_num":5,"R_den":25,"correct_side":1,"subjID":"juanEstebanParada-4","gender":"0","school":"6","age":"13"},{"start_time":1551900714846,"click_time":1551900715868,"finger_time":1551900715447,"fix_duration":978.4581494309399,"trial":10,"RT":601,"MT":421,"sideResp":2,"stimulus":[],"xmouse":[776,776,776,776,776,776,776,776,776,776,776,776,776,776,776,776,776,776,776,776,776,776,776,776,776,776,776,776,780,792,820,853,877,900,915,925,936,942,951,957,965,985,1002,1019,1029,1034,1036,1036,1038,1038,1044,1081],"ymouse":[512,512,512,512,512,512,512,512,512,512,512,512,512,512,512,512,512,512,512,512,512,512,512,512,512,512,512,512,510,500,466,422,397,366,335,305,267,254,237,221,199,147,125,108,98,94,93,93,93,93,94,95],"timestamp_mouse":[11,35,42,61,82,102,121,142,162,182,201,222,242,262,282,303,321,341,362,383,401,421,441,462,482,502,523,541,561,582,601,622,641,661,681,702,722,741,762,783,801,821,841,861,881,902,922,942,961,981,1002,1022],"xSR":741.5,"ySR":469.95,"xT1":424.9,"yT1":0,"xT2":1058.1,"yT2":0,"toosoon":0,"cond_shown":"Incongruent","ratio_trial":200,"L_num":1,"L_den":2,"R_num":3,"R_den":10,"correct_side":1,"subjID":"juanEstebanParada-4","gender":"0","school":"6","age":"13"},{"start_time":1551900719180,"click_time":1551900720488,"finger_time":1551900720207,"fix_duration":250,"trial":11,"RT":1027,"MT":281,"sideResp":2,"stimulus":[],"xmouse":[820,820,820,820,815,810,806,803,802,802,802,802,802,802,802,802,802,802,802,802,802,802,802,802,802,802,802,802,802,802,802,802,802,802,802,802,802,802,802,802,802,802,802,802,802,802,802,802,802,805,821,837,856,872,907,924,946,965,982,1004,1011,1016,1023,1031,1057,1064],"ymouse":[504,504,504,504,514,522,528,532,532,532,532,532,532,533,533,533,533,533,533,533,533,533,533,533,533,533,533,533,533,533,533,533,533,533,533,533,533,533,533,533,533,533,533,533,533,533,533,533,533,524,496,461,429,400,342,311,272,228,197,164,154,146,137,126,97,90],"timestamp_mouse":[13,39,47,68,87,109,129,148,167,188,208,228,247,268,287,307,328,348,369,388,409,429,448,467,488,507,527,547,567,587,609,628,648,669,688,707,728,747,769,788,808,828,848,868,888,907,929,949,968,988,1007,1027,1047,1067,1088,1108,1127,1148,1167,1188,1207,1227,1247,1267,1288,1308],"xSR":741.5,"ySR":469.95,"xT1":424.9,"yT1":0,"xT2":1058.1,"yT2":0,"toosoon":0,"cond_shown":"Incongruent","ratio_trial":200,"L_num":7,"L_den":10,"R_num":14,"R_den":28,"correct_side":1,"subjID":"juanEstebanParada-4","gender":"0","school":"6","age":"13"},{"start_time":1551900721478,"click_time":1551900723347,"finger_time":1551900723008,"fix_duration":250,"trial":12,"RT":1530,"MT":339,"sideResp":1,"stimulus":[],"xmouse":[805,805,805,805,805,805,805,805,805,805,805,805,805,805,805,805,805,805,805,805,805,805,805,805,805,805,805,805,805,805,805,805,805,805,805,805,805,805,805,805,805,805,805,805,805,805,805,805,805,805,805,805,805,805,805,805,805,805,805,805,805,805,805,805,805,805,805,805,805,805,805,805,805,805,795,769,733,689,621,536,502,479,462,450,441,440,440,440,440,445,449,456,463,472],"ymouse":[551,551,551,551,551,551,551,551,551,551,551,551,551,551,551,551,551,551,551,551,551,551,551,551,551,551,551,551,551,551,551,551,551,551,551,551,551,551,551,551,551,551,551,551,551,551,551,551,551,551,551,551,551,551,551,551,551,551,551,551,551,551,551,551,551,551,551,551,551,551,551,551,551,552,552,542,524,500,447,356,318,289,265,241,211,203,198,188,173,143,129,117,103,84],"timestamp_mouse":[11,37,49,70,91,109,130,149,169,191,210,230,249,270,289,310,330,349,370,390,410,431,451,470,489,509,530,550,570,589,610,630,650,670,689,710,730,749,771,790,810,830,851,870,891,910,929,949,971,990,1009,1029,1050,1069,1090,1109,1131,1150,1169,1189,1209,1231,1250,1269,1289,1309,1329,1349,1369,1389,1411,1431,1450,1469,1489,1509,1530,1549,1570,1590,1611,1631,1650,1670,1690,1711,1730,1749,1769,1790,1809,1829,1850,1869],"xSR":741.5,"ySR":469.95,"xT1":424.9,"yT1":0,"xT2":1058.1,"yT2":0,"toosoon":0,"cond_shown":"Incongruent","ratio_trial":100,"L_num":10,"L_den":25,"R_num":9,"R_den":18,"correct_side":2,"subjID":"juanEstebanParada-4","gender":"0","school":"6","age":"13"},{"start_time":1551900726662,"click_time":1551900727508,"finger_time":1551900727208,"fix_duration":1192.3284166001492,"trial":13,"RT":546,"MT":300,"sideResp":2,"stimulus":[],"xmouse":[789,789,789,789,789,789,789,789,789,789,789,789,789,789,789,789,789,789,789,789,789,789,789,789,789,810,835,860,873,927,947,963,975,988,1014,1026,1042,1054,1067,1076,1079,1085],"ymouse":[522,522,522,522,522,522,522,522,522,522,522,522,522,522,522,522,522,522,522,522,522,522,522,522,519,491,460,420,403,328,298,273,257,241,209,186,160,143,123,108,101,88],"timestamp_mouse":[20,45,67,85,105,126,146,165,186,206,225,247,265,286,307,325,346,366,386,407,425,446,466,485,505,525,546,565,585,606,625,646,665,686,706,726,745,765,785,805,825,845],"xSR":741.5,"ySR":469.95,"xT1":424.9,"yT1":0,"xT2":1058.1,"yT2":0,"toosoon":0,"cond_shown":"Congruent","ratio_trial":100,"L_num":9,"L_den":15,"R_num":8,"R_den":16,"correct_side":1,"subjID":"juanEstebanParada-4","gender":"0","school":"6","age":"13"},{"start_time":1551900734545,"click_time":1551900735769,"finger_time":1551900735569,"fix_duration":1455.9209478028185,"trial":14,"RT":1024,"MT":200,"sideResp":2,"stimulus":[],"xmouse":[789,789,789,789,789,789,789,789,789,789,789,789,788,788,788,788,788,788,788,788,788,788,788,788,788,788,788,788,788,788,788,788,788,788,788,788,788,788,788,788,788,788,788,788,788,788,788,788,788,788,788,827,842,859,882,911,1002,1041,1070,1091,1106,1127],"ymouse":[549,549,549,549,549,549,549,549,549,549,549,545,541,540,539,538,538,538,538,538,538,538,538,538,538,538,538,538,538,538,538,538,538,538,538,538,538,538,538,538,538,538,538,538,538,538,538,538,538,536,527,455,432,409,381,340,215,170,139,117,100,76],"timestamp_mouse":[10,31,44,64,83,104,123,143,164,183,204,223,243,264,283,304,324,343,364,384,404,424,443,464,483,503,524,543,563,583,604,624,643,664,684,704,723,743,763,784,803,824,843,868,884,903,924,943,963,983,1004,1024,1045,1063,1084,1104,1124,1143,1163,1183,1204,1223],"xSR":741.5,"ySR":469.95,"xT1":424.9,"yT1":0,"xT2":1058.1,"yT2":0,"toosoon":0,"cond_shown":"Congruent","ratio_trial":200,"L_num":11,"L_den":22,"R_num":3,"R_den":10,"correct_side":1,"subjID":"juanEstebanParada-4","gender":"0","school":"6","age":"13"},{"start_time":1551900738906,"click_time":1551900740088,"finger_time":1551900739748,"fix_duration":296.1366187458413,"trial":15,"RT":842,"MT":340,"sideResp":1,"stimulus":[],"xmouse":[788,788,788,790,790,790,790,790,790,790,790,790,791,792,794,797,797,797,797,797,797,797,797,797,797,797,797,797,797,797,797,797,797,797,797,797,797,797,797,795,786,773,745,685,671,657,645,637,619,611,604,599,594,590,589,588,588,587,565,491],"ymouse":[549,549,549,547,547,547,547,547,547,547,547,547,546,544,542,537,533,527,525,525,525,525,525,525,525,525,525,525,525,525,525,525,525,525,525,525,525,525,525,525,523,509,469,358,332,311,291,273,200,178,165,157,150,141,139,138,138,137,123,81],"timestamp_mouse":[9,23,42,63,83,102,122,143,162,182,202,222,242,262,282,303,322,343,363,382,402,423,442,463,482,502,523,543,563,582,602,623,643,662,683,703,723,743,763,783,802,823,842,863,881,903,922,942,962,983,1002,1023,1043,1062,1082,1103,1123,1142,1162,1182],"xSR":741.5,"ySR":469.95,"xT1":424.9,"yT1":0,"xT2":1058.1,"yT2":0,"toosoon":0,"cond_shown":"Incongruent","ratio_trial":100,"L_num":6,"L_den":10,"R_num":11,"R_den":22,"correct_side":1,"subjID":"juanEstebanParada-4","gender":"0","school":"6","age":"13"},{"start_time":1551900741862,"click_time":1551900742909,"finger_time":1551900742689,"fix_duration":1092.1358656451227,"trial":16,"RT":827,"MT":220,"sideResp":1,"stimulus":[],"xmouse":[777,777,777,777,777,777,777,777,777,777,777,777,777,777,777,777,777,777,777,777,777,777,777,777,777,777,777,777,777,777,777,777,777,777,777,777,777,777,777,777,752,710,654,601,554,464,436,427,427,429,445,455,469],"ymouse":[532,532,532,532,532,532,532,532,532,532,532,532,532,532,532,532,532,532,532,532,532,532,532,532,532,532,532,532,532,532,532,532,532,532,532,532,532,532,532,532,509,478,446,414,380,272,219,194,183,177,144,125,99],"timestamp_mouse":[13,33,47,66,86,106,126,147,167,187,206,227,247,267,287,307,327,347,366,387,407,427,446,467,487,507,526,547,567,587,606,627,646,667,686,707,726,746,767,787,806,827,846,867,887,907,927,946,966,986,1007,1026,1047],"xSR":741.5,"ySR":469.95,"xT1":424.9,"yT1":0,"xT2":1058.1,"yT2":0,"toosoon":0,"cond_shown":"Incongruent","ratio_trial":200,"L_num":4,"L_den":6,"R_num":14,"R_den":30,"correct_side":1,"subjID":"juanEstebanParada-4","gender":"0","school":"6","age":"13"},{"start_time":1551900744056,"click_time":1551900745169,"finger_time":1551900744768,"fix_duration":287.5590431440619,"trial":17,"RT":712,"MT":401,"sideResp":1,"stimulus":[],"xmouse":[781,781,781,781,781,781,781,781,781,781,781,781,781,781,782,783,784,784,784,784,784,784,784,784,784,784,784,784,784,784,784,784,772,758,747,709,690,668,633,619,578,566,558,549,538,523,522,521,519,518,518,518,518,518,516,505],"ymouse":[521,521,521,521,521,521,521,521,521,521,521,521,521,521,522,523,524,524,524,524,524,524,524,524,524,524,524,524,524,524,524,524,508,490,479,449,430,406,364,347,286,265,243,220,195,146,131,117,111,106,106,106,106,106,102,80],"timestamp_mouse":[13,45,53,72,92,112,132,152,173,193,213,232,252,272,293,312,332,353,372,392,413,432,452,473,493,513,532,553,572,592,612,632,653,673,692,712,732,752,772,792,813,832,852,873,892,912,932,953,972,992,1013,1032,1053,1072,1093,1113],"xSR":741.5,"ySR":469.95,"xT1":424.9,"yT1":0,"xT2":1058.1,"yT2":0,"toosoon":0,"cond_shown":"Incongruent","ratio_trial":200,"L_num":7,"L_den":10,"R_num":12,"R_den":24,"correct_side":1,"subjID":"juanEstebanParada-4","gender":"0","school":"6","age":"13"},{"start_time":1551900746360,"click_time":1551900747668,"finger_time":1551900747369,"fix_duration":550.216705467124,"trial":18,"RT":1009,"MT":299,"sideResp":1,"stimulus":[],"xmouse":[798,798,798,798,798,798,798,798,798,798,798,799,799,799,799,799,799,799,799,799,800,800,800,801,801,801,801,801,801,801,801,801,801,801,801,801,801,801,801,801,801,801,801,801,801,801,801,801,801,792,719,660,596,519,450,384,361,359,359,360,366,373,382,395,417,437],"ymouse":[533,533,533,533,533,533,533,533,533,533,533,533,533,534,534,534,534,534,534,534,534,535,535,535,535,535,535,535,535,535,535,535,535,535,535,535,535,535,535,535,535,535,535,535,535,535,535,535,535,526,467,419,367,306,239,146,89,76,70,65,55,50,48,47,47,47],"timestamp_mouse":[10,28,48,68,89,109,128,148,168,189,209,228,248,268,288,309,328,348,368,388,409,428,448,468,488,508,528,549,569,589,609,628,649,668,688,709,728,749,768,788,809,828,848,868,888,909,929,948,969,989,1009,1028,1048,1068,1088,1108,1128,1148,1169,1188,1209,1228,1248,1269,1289,1308],"xSR":741.5,"ySR":469.95,"xT1":424.9,"yT1":0,"xT2":1058.1,"yT2":0,"toosoon":0,"cond_shown":"Congruent","ratio_trial":300,"L_num":20,"L_den":25,"R_num":13,"R_den":26,"correct_side":1,"subjID":"juanEstebanParada-4","gender":"0","school":"6","age":"13"},{"start_time":1551900749555,"click_time":1551900751068,"finger_time":1551900750829,"fix_duration":1165.1610804150623,"trial":19,"RT":1274,"MT":239,"sideResp":1,"stimulus":[],"xmouse":[776,776,776,776,776,776,776,776,776,776,776,776,776,776,776,776,776,776,776,777,777,777,777,777,777,777,777,777,777,777,777,777,777,777,777,777,777,777,777,777,777,777,777,777,777,777,777,777,777,777,777,777,777,777,777,777,777,777,777,777,777,777,753,718,603,464,435,411,384,368,362,368,375,387,400,426],"ymouse":[509,509,509,509,509,509,509,509,509,509,509,509,509,509,509,509,509,509,509,509,509,509,509,509,509,509,509,509,509,509,509,509,509,509,509,509,509,509,509,509,509,509,509,509,509,509,509,509,509,509,509,509,509,509,509,509,509,509,509,509,509,509,494,472,388,291,269,245,211,177,151,143,132,119,104,76],"timestamp_mouse":[16,45,54,74,93,113,134,153,173,193,214,234,253,273,294,314,334,354,373,395,414,433,453,473,494,514,534,554,574,593,614,633,654,674,694,714,733,754,774,794,813,834,854,874,893,913,933,954,974,993,1014,1034,1053,1074,1092,1113,1133,1153,1173,1193,1213,1233,1254,1274,1293,1314,1334,1353,1373,1393,1414,1433,1453,1473,1494,1513],"xSR":741.5,"ySR":469.95,"xT1":424.9,"yT1":0,"xT2":1058.1,"yT2":0,"toosoon":0,"cond_shown":"Incongruent","ratio_trial":200,"L_num":7,"L_den":10,"R_num":8,"R_den":16,"correct_side":1,"subjID":"juanEstebanParada-4","gender":"0","school":"6","age":"13"},{"start_time":1551900752831,"click_time":1551900753929,"finger_time":1551900753468,"fix_duration":1019.3324509224359,"trial":20,"RT":637,"MT":461,"sideResp":2,"stimulus":[],"xmouse":[772,772,772,773,774,774,774,774,774,774,774,774,774,775,775,775,775,775,775,775,775,775,775,775,775,775,775,775,779,784,796,862,892,921,947,972,987,1010,1019,1028,1033,1035,1035,1035,1031,1025,1018,1017,1017,1017,1016,1017,1025,1039,1061],"ymouse":[523,523,523,523,523,523,523,523,523,523,523,523,523,523,523,523,523,523,523,523,523,523,523,523,523,523,523,523,516,512,499,453,427,405,382,360,341,296,268,242,213,152,135,121,106,90,70,67,67,67,66,64,62,57,52],"timestamp_mouse":[17,45,58,77,97,118,138,158,178,198,217,237,258,277,297,317,337,358,377,398,418,437,457,478,498,518,538,558,578,598,618,637,658,677,698,718,737,758,777,798,818,837,857,877,897,917,937,957,977,998,1018,1038,1056,1078,1098],"xSR":741.5,"ySR":469.95,"xT1":424.9,"yT1":0,"xT2":1058.1,"yT2":0,"toosoon":0,"cond_shown":"Incongruent","ratio_trial":200,"L_num":6,"L_den":20,"R_num":3,"R_den":6,"correct_side":2,"subjID":"juanEstebanParada-4","gender":"0","school":"6","age":"13"},{"start_time":1551900755973,"click_time":1551900760048,"finger_time":1551900756568,"fix_duration":1241.10348033016,"trial":21,"RT":595,"MT":3480,"sideResp":1,"stimulus":[],"xmouse":[805,805,805,805,805,805,805,805,805,805,805,805,805,805,805,805,805,805,805,805,805,805,805,805,805,805,805,806,806,743,693,639,582,540,479,468,460,450,445,444,444,444,444,444,444,444,444,444,444,444,444,444,444,444,444,444,444,444,444,444,444,444,444,444,444,444,444,444,444,444,444,444,444,444,444,444,444,444,444,444,444,444,444,444,444,444,444,444,444,444,444,444,444,444,444,444,444,444,444,444,444,444,444,444,444,444,444,444,444,444,444,444,444,444,444,444,444,444,444,444,444,444,444,444,444,444,444,444,444,444,444,444,444,444,444,444,444,444,444,444,444,444,444,444,444,444,444,444,444,444,444,444,444,444,444,444,444,444,444,444,444,444,444,444,444,444,444,444,444,444,444,444,444,444,444,444,444,444,444,444,444,444,444,444,444,444,448,465,481,495,497,497,502,521,546,555,560,561,562,558,554,543,529,500],"ymouse":[518,518,518,518,518,518,518,518,518,518,518,518,518,518,518,518,518,518,518,518,518,518,518,518,518,518,518,517,516,465,425,378,330,294,232,213,199,185,177,175,175,175,175,175,175,175,175,175,175,175,175,175,175,175,175,175,176,179,181,182,182,182,182,182,182,182,182,182,182,182,182,182,182,182,182,182,182,182,182,182,182,182,182,182,182,182,182,182,182,182,182,182,182,182,182,182,182,182,182,182,182,182,182,182,182,182,182,182,182,182,182,182,182,182,182,182,182,182,182,182,182,182,182,182,182,182,182,182,182,182,182,182,182,182,182,182,182,182,182,182,182,182,182,182,182,182,182,182,182,182,182,182,182,182,182,182,182,182,182,182,182,182,182,182,182,182,182,182,182,182,182,182,182,182,182,182,182,182,182,182,182,182,182,182,182,183,183,177,172,164,163,163,160,149,129,120,112,107,103,95,90,85,78,69],"timestamp_mouse":[15,45,55,75,95,115,135,156,175,195,216,236,255,276,295,315,335,356,375,396,415,436,456,475,495,516,535,556,576,595,616,635,655,675,696,715,735,756,775,795,816,835,855,876,896,915,936,954,976,995,1015,1035,1056,1076,1096,1116,1136,1156,1176,1195,1216,1235,1256,1275,1296,1315,1336,1355,1376,1395,1416,1435,1455,1474,1495,1515,1536,1555,1575,1595,1614,1634,1656,1676,1695,1715,1735,1755,1776,1795,1814,1836,1855,1875,1895,1915,1935,1955,1976,1995,2015,2035,2056,2075,2095,2116,2136,2156,2176,2195,2216,2235,2255,2276,2296,2315,2340,2355,2375,2396,2415,2435,2455,2476,2495,2516,2536,2556,2576,2595,2615,2635,2655,2676,2695,2716,2736,2756,2774,2796,2815,2836,2855,2876,2895,2916,2936,2955,2975,2996,3016,3036,3056,3076,3095,3116,3136,3155,3175,3196,3216,3235,3255,3276,3295,3315,3336,3355,3376,3396,3415,3436,3456,3475,3495,3516,3536,3555,3576,3595,3615,3635,3655,3676,3695,3716,3735,3755,3775,3795,3816,3836,3856,3876,3896,3917,3936,3956,3976,3995,4015,4035,4056,4075],"xSR":741.5,"ySR":469.95,"xT1":424.9,"yT1":0,"xT2":1058.1,"yT2":0,"toosoon":0,"cond_shown":"Incongruent","ratio_trial":200,"L_num":1,"L_den":3,"R_num":2,"R_den":15,"correct_side":1,"subjID":"juanEstebanParada-4","gender":"0","school":"6","age":"13"},{"start_time":1551900761858,"click_time":1551900763069,"finger_time":1551900762668,"fix_duration":1068.5339182252178,"trial":22,"RT":810,"MT":401,"sideResp":2,"stimulus":[],"xmouse":[773,773,773,773,773,773,773,773,773,773,773,773,773,773,773,773,773,773,773,773,773,773,773,773,773,773,773,773,773,773,773,773,773,773,773,773,773,776,782,794,855,885,911,928,944,970,984,994,1001,1009,1012,1014,1014,1015,1015,1021,1031,1040,1048,1060,1080],"ymouse":[528,528,528,528,528,528,528,528,528,528,528,528,528,528,528,528,528,528,528,528,528,528,528,528,528,528,528,528,528,528,528,528,528,528,528,528,528,529,530,530,509,488,470,454,438,394,354,309,272,233,211,182,176,173,172,160,147,132,119,101,79],"timestamp_mouse":[13,41,50,71,90,110,131,151,171,191,209,231,251,271,290,310,331,351,371,391,410,431,451,470,490,511,530,551,570,591,611,630,649,670,691,711,730,750,770,791,810,830,849,870,891,911,931,950,970,991,1010,1030,1050,1070,1091,1110,1130,1151,1171,1191,1211],"xSR":741.5,"ySR":469.95,"xT1":424.9,"yT1":0,"xT2":1058.1,"yT2":0,"toosoon":0,"cond_shown":"Congruent","ratio_trial":200,"L_num":11,"L_den":22,"R_num":3,"R_den":10,"correct_side":1,"subjID":"juanEstebanParada-4","gender":"0","school":"6","age":"13"},{"start_time":1551900769181,"click_time":1551900770529,"finger_time":1551900770169,"fix_duration":250,"trial":23,"RT":988,"MT":360,"sideResp":1,"stimulus":[],"xmouse":[810,810,810,810,810,810,810,810,810,810,810,810,810,810,810,810,810,810,810,810,810,810,810,810,810,810,810,810,810,810,810,810,810,810,810,810,810,810,810,810,810,810,810,810,810,810,809,803,795,756,718,674,646,625,605,600,593,591,590,584,581,579,579,579,574,552,524,495],"ymouse":[525,525,525,525,525,525,525,525,525,525,525,525,525,525,525,525,525,525,525,525,525,525,525,525,525,525,525,525,525,525,525,525,525,525,525,525,525,525,525,525,525,525,525,525,523,519,516,509,499,455,412,367,331,281,223,201,180,167,153,125,116,113,112,112,110,108,103,98],"timestamp_mouse":[14,30,47,67,87,106,128,147,167,188,207,228,248,268,287,307,328,348,368,388,408,428,448,467,487,507,528,547,567,587,608,628,647,668,688,707,727,748,768,787,808,828,847,867,886,907,928,947,967,988,1007,1027,1047,1068,1087,1108,1127,1147,1168,1187,1207,1228,1247,1268,1287,1306,1326,1348],"xSR":741.5,"ySR":469.95,"xT1":424.9,"yT1":0,"xT2":1058.1,"yT2":0,"toosoon":0,"cond_shown":"Incongruent","ratio_trial":100,"L_num":9,"L_den":15,"R_num":14,"R_den":28,"correct_side":1,"subjID":"juanEstebanParada-4","gender":"0","school":"6","age":"13"},{"start_time":1551900772168,"click_time":1551900774429,"finger_time":1551900772968,"fix_duration":698.4376792734344,"trial":24,"RT":800,"MT":1461,"sideResp":2,"stimulus":[],"xmouse":[812,812,812,812,812,812,812,812,812,812,812,812,812,812,812,812,812,812,812,812,812,812,812,812,812,812,812,812,812,812,812,812,812,812,812,812,812,812,811,811,859,881,901,918,933,982,996,1002,1007,1009,1010,1005,1002,1000,1000,1005,1012,1019,1032,1055,1125,1168,1191,1194,1194,1194,1194,1193,1189,1188,1183,1181,1180,1179,1178,1178,1177,1177,1177,1177,1178,1178,1178,1179,1179,1179,1179,1179,1179,1179,1179,1179,1179,1179,1179,1172,1169,1165,1162,1158,1154,1154,1153,1153,1150,1139,1135,1130,1126,1124,1123,1123,1123,1124],"ymouse":[529,529,529,529,529,529,529,529,529,529,529,529,529,529,529,529,529,529,529,529,529,529,529,529,529,529,529,529,529,529,529,529,529,529,529,529,529,529,528,527,508,499,488,477,463,389,361,339,320,305,289,256,238,221,195,170,159,153,146,138,114,95,87,86,86,86,86,86,88,90,93,96,98,101,103,104,107,110,112,115,121,123,124,125,126,126,126,126,126,126,128,131,137,142,144,155,160,165,170,173,177,177,177,177,179,180,180,180,174,162,137,121,103,86],"timestamp_mouse":[10,36,40,61,81,101,121,141,161,180,201,220,240,261,280,301,321,341,361,381,400,421,441,460,480,501,521,540,560,581,600,621,641,661,680,700,721,741,761,782,800,821,840,861,880,901,920,940,960,981,1001,1021,1041,1061,1080,1101,1121,1140,1160,1180,1200,1220,1240,1260,1280,1300,1320,1341,1360,1381,1400,1420,1441,1460,1480,1500,1521,1541,1561,1581,1600,1620,1640,1661,1681,1700,1721,1740,1761,1780,1801,1820,1840,1860,1881,1900,1920,1940,1961,1980,2000,2020,2041,2061,2080,2100,2121,2140,2160,2180,2200,2220,2239,2261],"xSR":741.5,"ySR":469.95,"xT1":424.9,"yT1":0,"xT2":1058.1,"yT2":0,"toosoon":0,"cond_shown":"Incongruent","ratio_trial":200,"L_num":14,"L_den":30,"R_num":12,"R_den":18,"correct_side":2,"subjID":"juanEstebanParada-4","gender":"0","school":"6","age":"13"},{"start_time":1551900775895,"click_time":1551900777349,"finger_time":1551900777089,"fix_duration":804.8860323096313,"trial":25,"RT":1194,"MT":260,"sideResp":2,"stimulus":[],"xmouse":[819,819,819,819,819,819,819,819,819,819,819,819,819,819,819,819,819,819,819,819,819,819,819,819,819,819,819,819,819,819,819,819,819,819,819,819,819,819,819,819,819,819,819,819,819,819,819,819,819,819,819,819,819,819,819,819,819,821,839,857,888,924,952,993,1010,1025,1036,1044,1044,1048,1053,1064,1075],"ymouse":[564,564,564,564,564,564,564,564,564,564,564,564,564,564,564,564,564,564,564,564,564,564,564,564,564,564,564,564,564,564,564,564,564,564,564,564,564,564,564,564,564,564,564,564,564,564,564,564,564,564,564,564,564,564,564,564,563,563,547,531,504,468,434,344,301,266,240,205,165,147,130,113,99],"timestamp_mouse":[13,40,54,74,94,113,133,153,173,193,214,234,254,274,294,313,333,354,374,394,413,434,453,474,492,514,534,553,574,593,613,634,653,673,694,713,734,754,773,794,814,834,854,873,894,914,933,954,973,993,1013,1033,1054,1073,1094,1114,1133,1154,1173,1194,1213,1233,1254,1273,1294,1313,1334,1354,1374,1393,1415,1434,1454],"xSR":741.5,"ySR":469.95,"xT1":424.9,"yT1":0,"xT2":1058.1,"yT2":0,"toosoon":0,"cond_shown":"Incongruent","ratio_trial":300,"L_num":4,"L_den":20,"R_num":2,"R_den":4,"correct_side":2,"subjID":"juanEstebanParada-4","gender":"0","school":"6","age":"13"},{"start_time":1551900778779,"click_time":1551900780508,"finger_time":1551900780188,"fix_duration":729.3803408420141,"trial":26,"RT":1409,"MT":320,"sideResp":1,"stimulus":[],"xmouse":[795,795,795,795,795,795,795,795,795,795,795,795,795,795,795,795,795,795,795,795,795,795,795,795,795,795,795,795,795,795,795,795,795,795,795,795,795,795,795,795,795,795,795,795,795,795,795,795,795,795,795,795,795,795,795,795,795,795,795,795,795,795,795,795,795,795,795,795,795,793,752,710,662,651,600,579,564,550,542,538,538,538,537,529,512,505,499],"ymouse":[516,516,516,516,516,516,516,516,516,516,516,516,516,516,516,516,516,516,516,516,516,516,516,516,516,516,516,516,516,516,516,516,516,516,516,516,516,516,516,516,516,516,516,516,516,516,516,516,516,516,516,516,516,516,516,516,516,516,516,516,516,516,516,516,516,516,516,516,516,512,462,411,345,326,241,212,191,174,164,156,154,152,148,139,116,105,95],"timestamp_mouse":[12,37,50,69,89,110,129,149,170,190,210,230,248,270,290,310,330,350,370,390,410,429,450,470,490,510,530,549,569,589,610,629,649,669,689,710,730,749,770,789,810,829,850,870,890,910,929,949,970,989,1010,1030,1050,1070,1089,1110,1129,1150,1169,1189,1210,1229,1250,1270,1290,1310,1329,1350,1369,1389,1409,1429,1449,1469,1489,1509,1529,1549,1570,1589,1609,1629,1650,1669,1689,1709,1729],"xSR":741.5,"ySR":469.95,"xT1":424.9,"yT1":0,"xT2":1058.1,"yT2":0,"toosoon":0,"cond_shown":"Congruent","ratio_trial":200,"L_num":20,"L_den":25,"R_num":9,"R_den":15,"correct_side":1,"subjID":"juanEstebanParada-4","gender":"0","school":"6","age":"13"},{"start_time":1551900781565,"click_time":1551900783049,"finger_time":1551900782689,"fix_duration":253.41061370307983,"trial":27,"RT":1124,"MT":360,"sideResp":2,"stimulus":[],"xmouse":[809,809,809,809,809,809,809,809,809,808,807,806,806,806,806,806,806,806,806,806,806,806,806,806,806,806,806,806,806,806,806,806,806,806,806,806,806,806,806,806,806,806,806,806,806,806,806,806,806,806,806,806,806,806,806,833,885,942,1004,1055,1144,1171,1189,1204,1206,1206,1206,1206,1206,1206,1206,1206,1206,1206,1136],"ymouse":[513,513,513,513,513,513,513,513,515,516,519,520,520,520,520,520,520,520,520,520,520,520,520,520,520,520,520,520,520,520,520,520,520,520,520,520,520,520,520,520,520,520,520,520,520,520,520,520,520,520,520,520,520,520,520,517,501,473,434,393,286,231,171,112,46,4,4,4,4,4,4,4,4,4,27],"timestamp_mouse":[12,37,43,64,83,103,123,144,164,184,204,222,244,263,284,304,323,344,363,384,403,424,443,464,484,504,524,543,563,583,604,624,644,664,683,703,723,744,764,783,803,824,843,863,884,903,924,944,963,983,1004,1023,1044,1064,1084,1103,1124,1143,1164,1184,1203,1223,1243,1263,1283,1303,1323,1343,1363,1384,1404,1423,1443,1464,1484],"xSR":741.5,"ySR":469.95,"xT1":424.9,"yT1":0,"xT2":1058.1,"yT2":0,"toosoon":0,"cond_shown":"Congruent","ratio_trial":300,"L_num":5,"L_den":25,"R_num":7,"R_den":14,"correct_side":2,"subjID":"juanEstebanParada-4","gender":"0","school":"6","age":"13"},{"start_time":1551900784644,"click_time":1551900785888,"finger_time":1551900785789,"fix_duration":933.6196985612073,"trial":28,"RT":1145,"MT":99,"sideResp":2,"stimulus":[],"xmouse":[807,807,807,807,807,807,807,807,807,807,807,807,807,807,807,807,807,807,807,807,807,807,807,807,807,807,807,807,807,813,817,824,824,824,824,824,824,824,824,824,824,824,824,824,824,824,824,824,824,824,824,824,824,824,824,824,834,849,874,936,963,1060,1083],"ymouse":[519,519,519,519,519,519,519,519,519,519,519,519,519,519,519,519,519,519,519,519,519,519,519,519,519,519,519,519,519,519,519,519,519,519,519,519,519,519,519,519,519,519,519,519,519,519,519,519,519,519,519,519,519,519,519,518,509,497,472,389,349,137,88],"timestamp_mouse":[13,26,44,64,84,105,124,145,164,184,205,224,244,264,284,304,324,345,365,384,405,424,444,464,484,503,525,544,564,584,604,624,645,664,685,705,723,745,764,785,805,825,845,864,885,904,924,944,965,985,1004,1025,1045,1064,1084,1104,1124,1145,1165,1184,1204,1225,1244],"xSR":741.5,"ySR":469.95,"xT1":424.9,"yT1":0,"xT2":1058.1,"yT2":0,"toosoon":0,"cond_shown":"Incongruent","ratio_trial":100,"L_num":8,"L_den":16,"R_num":6,"R_den":10,"correct_side":2,"subjID":"juanEstebanParada-4","gender":"0","school":"6","age":"13"},{"start_time":1551900787661,"click_time":1551900789108,"finger_time":1551900788928,"fix_duration":892.1390484346828,"trial":29,"RT":1267,"MT":180,"sideResp":2,"stimulus":[],"xmouse":[812,812,812,812,812,812,812,812,812,812,812,812,812,812,812,812,812,812,812,812,812,812,812,812,812,812,812,812,812,812,812,812,812,812,812,812,812,812,812,812,812,812,812,812,812,812,812,812,812,812,812,812,812,812,812,812,812,812,812,812,812,818,837,860,894,949,978,1003,1025,1046,1080,1089,1092],"ymouse":[520,520,520,520,520,520,520,520,520,520,520,520,520,520,520,520,520,520,520,520,520,520,520,520,520,520,520,520,520,520,520,520,520,520,520,520,520,520,520,520,520,520,520,520,520,520,520,520,520,520,520,520,520,520,520,520,520,520,520,520,520,518,509,499,483,439,404,357,308,260,159,124,98],"timestamp_mouse":[11,28,54,67,88,107,127,148,167,187,208,228,248,267,288,308,327,348,367,387,408,427,448,467,487,508,528,547,568,587,608,628,647,668,688,707,728,747,768,787,808,827,848,868,887,908,927,948,967,987,1007,1028,1047,1068,1087,1107,1127,1148,1167,1188,1208,1227,1248,1267,1288,1308,1327,1347,1368,1387,1407,1427,1447],"xSR":741.5,"ySR":469.95,"xT1":424.9,"yT1":0,"xT2":1058.1,"yT2":0,"toosoon":0,"cond_shown":"Congruent","ratio_trial":300,"L_num":1,"L_den":30,"R_num":8,"R_den":24,"correct_side":2,"subjID":"juanEstebanParada-4","gender":"0","school":"6","age":"13"},{"start_time":1551900792199,"click_time":1551900794489,"finger_time":1551900794168,"fix_duration":789.777285890403,"trial":30,"RT":1969,"MT":321,"sideResp":2,"stimulus":[],"xmouse":[803,803,803,803,803,803,803,803,803,803,803,803,803,803,803,803,803,803,803,803,803,803,803,803,803,803,803,803,803,803,803,803,803,803,803,803,803,803,803,803,803,803,803,803,803,803,803,803,803,803,803,803,803,803,803,803,803,803,803,803,803,803,803,803,803,803,803,803,803,803,803,803,803,803,803,803,803,803,803,803,803,803,803,803,803,803,803,803,803,803,803,803,803,803,803,803,803,811,869,918,969,1011,1039,1077,1087,1098,1106,1112,1114,1114,1115,1117,1121,1126,1135],"ymouse":[548,548,548,548,548,548,548,548,548,548,548,548,548,548,548,548,548,548,548,548,548,548,548,548,548,548,548,548,548,548,548,548,548,548,548,548,548,548,548,548,548,548,548,548,548,548,548,548,548,548,548,548,548,548,548,548,548,548,548,548,548,548,548,548,548,548,548,548,548,548,548,548,548,548,548,548,548,548,548,548,548,548,548,548,548,548,548,548,548,548,548,548,548,548,548,548,548,541,509,483,454,429,409,361,335,299,257,216,171,159,144,131,121,111,95],"timestamp_mouse":[25,36,50,69,88,109,129,150,169,189,209,229,249,269,289,310,329,350,369,389,410,430,449,470,490,510,530,550,569,589,610,630,649,669,690,710,729,750,770,789,810,830,849,870,889,910,929,949,970,990,1009,1029,1049,1070,1090,1109,1129,1149,1170,1189,1210,1229,1249,1270,1289,1310,1329,1350,1369,1390,1410,1429,1449,1470,1489,1510,1529,1549,1570,1589,1609,1629,1649,1668,1689,1710,1729,1750,1770,1789,1809,1830,1850,1869,1890,1909,1930,1949,1969,1989,2009,2030,2049,2069,2089,2109,2129,2150,2169,2189,2209,2229,2249,2269,2290],"xSR":741.5,"ySR":469.95,"xT1":424.9,"yT1":0,"xT2":1058.1,"yT2":0,"toosoon":0,"cond_shown":"Incongruent","ratio_trial":100,"L_num":3,"L_den":5,"R_num":11,"R_den":22,"correct_side":1,"subjID":"juanEstebanParada-4","gender":"0","school":"6","age":"13"},{"start_time":1551900797938,"click_time":1551900806749,"finger_time":1551900804368,"fix_duration":1247.3970596106792,"trial":31,"RT":6430,"MT":2381,"sideResp":1,"stimulus":[],"xmouse":[786,786,786,786,786,786,786,786,786,786,786,786,786,786,786,786,786,786,786,786,786,786,786,786,786,786,786,786,786,786,786,786,786,786,786,786,786,786,786,786,786,786,786,786,786,786,786,786,786,786,786,786,786,786,786,786,786,786,786,786,786,786,786,786,786,786,786,786,786,786,786,786,786,786,786,786,786,786,786,786,786,786,786,786,786,786,786,786,786,786,786,786,786,786,786,786,786,786,786,786,786,786,786,786,786,786,786,786,786,786,786,786,786,786,786,786,786,786,786,786,786,786,786,786,786,786,786,786,786,786,786,786,786,786,786,786,786,786,786,786,786,786,786,786,786,786,786,786,786,786,786,786,786,786,786,786,786,786,786,786,786,786,786,786,786,786,786,786,786,786,786,786,786,786,786,786,786,786,786,786,786,786,786,786,786,786,786,786,786,786,786,786,786,786,786,786,786,786,786,786,786,786,786,786,786,786,786,786,786,786,786,786,786,786,786,786,786,786,786,786,786,786,786,786,786,786,786,786,786,786,786,786,786,786,786,786,786,786,786,786,786,786,786,786,786,786,786,786,786,786,786,786,786,786,786,786,786,786,786,786,786,786,786,786,786,786,786,786,786,786,786,786,786,786,786,783,782,782,782,782,782,782,782,782,782,782,782,782,782,782,782,781,781,781,781,781,781,781,781,781,781,781,781,781,781,781,781,781,781,781,781,781,781,781,781,781,781,790,801,805,805,788,768,740,715,701,695,693,692,692,691,685,685,684,684,688,794,854,868,869,869,874,876,878,878,878,878,879,880,880,878,855,845,832,820,813,808,808,808,807,806,798,787,772,747,739,705,696,692,690,689,689,689,689,687,684,680,679,679,679,679,679,679,679,679,679,679,679,679,679,679,679,679,679,679,679,708,728,766,811,857,917,924,924,925,922,850,756,653,566,519,503,503,512,538,585,654,714,794,864,883,884,832,768,702,633,445,375,338,324,319,317,317,317,317,317,317,317,317,358,448],"ymouse":[511,511,511,511,511,511,511,511,511,511,511,511,511,511,511,511,511,511,511,511,511,511,511,511,511,511,511,511,511,511,511,511,511,511,511,511,511,511,511,511,511,511,511,511,511,511,511,511,511,511,511,511,511,511,511,511,511,511,511,511,511,511,511,511,511,511,511,511,511,511,511,511,511,511,511,511,511,511,511,511,511,511,511,511,511,511,511,511,511,511,511,511,511,511,511,511,511,511,511,511,511,511,511,511,511,511,511,511,511,511,511,511,511,511,511,511,511,511,511,511,511,511,511,511,511,511,511,511,511,511,511,511,511,511,511,511,511,511,511,511,511,511,511,511,511,511,511,511,511,511,511,511,511,511,511,511,511,511,511,511,511,511,511,511,511,511,511,511,511,511,511,511,511,511,511,511,511,511,511,511,511,511,511,511,511,511,511,511,511,511,511,511,511,511,511,511,511,511,511,511,511,511,511,511,511,511,511,511,511,511,511,511,511,511,511,511,511,511,511,511,511,511,511,511,511,511,511,511,511,511,511,511,511,511,511,511,511,511,511,511,511,511,511,511,511,511,511,511,511,511,511,511,511,511,511,511,511,511,511,511,511,511,511,511,511,511,511,511,511,511,511,511,511,511,507,504,501,501,501,501,501,501,501,501,501,501,501,501,501,501,501,500,500,500,500,500,500,500,500,500,500,500,500,500,500,500,500,500,500,500,500,500,500,500,500,500,500,503,518,541,562,581,584,584,584,585,587,587,587,587,586,572,572,571,564,532,459,442,440,440,440,440,440,441,441,443,444,448,449,453,458,487,505,520,534,545,551,551,551,551,551,547,542,534,515,508,462,445,433,426,424,424,424,424,422,417,407,406,406,406,406,406,406,406,406,406,406,406,406,406,406,406,406,406,406,405,382,365,333,294,255,205,199,199,198,198,207,218,218,218,211,204,204,197,193,186,178,178,183,200,208,210,220,225,225,221,136,94,65,47,27,3,3,3,3,3,3,3,3,4,37],"timestamp_mouse":[12,32,50,71,91,110,131,150,170,191,210,230,250,270,291,311,330,350,370,391,410,431,450,471,490,511,530,550,571,591,611,631,650,671,691,710,731,750,771,791,812,831,850,870,891,910,931,952,971,991,1012,1030,1051,1071,1091,1111,1131,1150,1170,1190,1210,1230,1251,1271,1291,1311,1330,1351,1372,1391,1411,1430,1451,1471,1490,1510,1531,1551,1571,1591,1610,1630,1650,1671,1690,1710,1731,1750,1771,1790,1811,1831,1851,1871,1891,1910,1930,1951,1971,1990,2010,2030,2051,2071,2090,2111,2130,2150,2171,2191,2210,2231,2251,2271,2290,2310,2331,2350,2370,2390,2410,2430,2451,2470,2490,2511,2531,2550,2571,2590,2612,2630,2651,2671,2690,2710,2732,2751,2770,2791,2811,2831,2850,2870,2891,2911,2931,2950,2971,2990,3010,3030,3050,3071,3090,3110,3131,3150,3170,3191,3210,3230,3250,3270,3291,3310,3331,3350,3370,3391,3410,3430,3450,3470,3490,3511,3530,3551,3571,3590,3610,3630,3651,3670,3690,3710,3731,3751,3771,3791,3811,3830,3850,3871,3891,3910,3930,3951,3970,3991,4011,4030,4051,4071,4091,4111,4130,4151,4171,4191,4211,4230,4250,4270,4290,4311,4330,4352,4370,4391,4411,4430,4451,4470,4491,4511,4531,4550,4570,4592,4610,4631,4650,4670,4691,4710,4730,4750,4770,4791,4811,4830,4851,4870,4891,4910,4931,4951,4972,4991,5011,5031,5050,5070,5090,5110,5130,5151,5171,5191,5210,5231,5251,5270,5290,5311,5330,5351,5372,5390,5411,5431,5451,5471,5490,5510,5530,5551,5570,5591,5610,5630,5650,5671,5691,5710,5731,5750,5770,5790,5811,5831,5851,5870,5890,5910,5931,5951,5971,5990,6011,6031,6051,6071,6090,6111,6130,6150,6170,6191,6211,6232,6251,6271,6291,6312,6331,6351,6371,6391,6411,6430,6450,6470,6490,6510,6530,6551,6570,6591,6610,6631,6650,6670,6690,6710,6731,6750,6770,6790,6811,6831,6850,6871,6891,6910,6930,6951,6970,6990,7010,7031,7051,7070,7091,7110,7131,7150,7171,7191,7210,7230,7251,7271,7291,7310,7330,7350,7371,7391,7410,7430,7451,7471,7492,7510,7530,7550,7570,7590,7612,7630,7651,7670,7691,7710,7731,7750,7770,7791,7811,7831,7850,7870,7891,7910,7931,7950,7970,7990,8010,8031,8051,8070,8091,8111,8130,8150,8170,8191,8210,8230,8250,8271,8290,8311,8330,8350,8371,8390,8411,8430,8451,8471,8490,8511,8530,8550,8571,8591,8611,8631,8650,8671,8691,8710,8730,8751,8770,8790,8811],"xSR":741.5,"ySR":469.95,"xT1":424.9,"yT1":0,"xT2":1058.1,"yT2":0,"toosoon":0,"cond_shown":"Incongruent","ratio_trial":100,"L_num":10,"L_den":25,"R_num":9,"R_den":18,"correct_side":2,"subjID":"juanEstebanParada-4","gender":"0","school":"6","age":"13"},{"start_time":1551900809365,"click_time":1551900811049,"finger_time":1551900810749,"fix_duration":613.780301237566,"trial":32,"RT":1384,"MT":300,"sideResp":2,"stimulus":[],"xmouse":[798,798,798,798,798,798,798,798,797,797,797,797,797,797,797,797,797,797,797,797,797,797,797,797,797,797,797,797,797,797,797,797,797,797,797,797,797,797,797,797,797,797,797,797,797,797,797,797,797,797,797,797,797,797,797,797,797,797,797,797,797,797,797,797,797,797,797,800,814,857,916,934,948,960,964,985,992,998,1001,1005,1007,1017,1031,1052,1079],"ymouse":[537,537,537,537,537,537,537,537,538,538,538,538,538,538,538,538,538,538,538,538,538,538,538,538,538,538,538,538,538,538,538,538,538,538,538,538,538,538,538,538,538,538,538,538,538,538,538,538,538,538,538,538,538,538,538,538,538,538,538,538,538,538,538,538,538,538,538,536,517,455,360,327,302,273,263,207,183,163,153,143,137,126,119,110,97],"timestamp_mouse":[13,30,44,63,83,103,124,143,163,185,203,224,243,263,284,304,325,343,363,384,404,423,445,464,483,504,524,544,564,583,604,625,643,664,684,703,723,744,763,783,804,823,844,864,884,904,924,943,964,983,1003,1024,1043,1064,1084,1103,1123,1144,1163,1184,1204,1225,1244,1263,1283,1304,1323,1344,1364,1384,1404,1423,1443,1464,1484,1503,1523,1543,1563,1583,1603,1624,1643,1663,1683],"xSR":741.5,"ySR":469.95,"xT1":424.9,"yT1":0,"xT2":1058.1,"yT2":0,"toosoon":0,"cond_shown":"Congruent","ratio_trial":100,"L_num":7,"L_den":14,"R_num":9,"R_den":15,"correct_side":2,"subjID":"juanEstebanParada-4","gender":"0","school":"6","age":"13"},{"start_time":1551900812020,"click_time":1551900813469,"finger_time":1551900813209,"fix_duration":250,"trial":33,"RT":1189,"MT":260,"sideResp":1,"stimulus":[],"xmouse":[824,824,824,824,824,824,824,824,824,824,824,824,824,824,824,824,824,824,824,824,824,824,824,824,824,824,824,824,824,824,824,824,824,824,824,824,824,824,824,824,824,824,824,824,824,824,824,824,824,824,824,824,824,824,824,824,824,820,799,757,701,625,548,526,513,506,500,499,499,499,499,500,500],"ymouse":[500,500,500,500,500,500,500,500,500,500,500,500,500,500,500,500,500,500,500,500,500,500,500,500,500,500,500,500,500,500,500,500,500,500,500,500,500,500,500,500,500,500,500,500,500,500,500,500,500,500,500,500,500,500,500,500,501,501,488,457,412,340,257,229,206,188,172,154,146,136,128,119,97],"timestamp_mouse":[9,32,48,68,88,109,128,150,168,188,209,228,248,269,288,308,328,349,369,388,408,428,449,468,488,508,529,548,569,588,608,629,648,669,689,709,728,750,768,789,808,829,849,869,889,909,930,949,969,988,1008,1030,1048,1069,1088,1109,1128,1148,1168,1189,1209,1229,1248,1268,1288,1308,1328,1348,1368,1388,1409,1428,1449],"xSR":741.5,"ySR":469.95,"xT1":424.9,"yT1":0,"xT2":1058.1,"yT2":0,"toosoon":0,"cond_shown":"Incongruent","ratio_trial":300,"L_num":4,"L_den":5,"R_num":6,"R_den":12,"correct_side":1,"subjID":"juanEstebanParada-4","gender":"0","school":"6","age":"13"},{"start_time":1551900814782,"click_time":1551900816268,"finger_time":1551900815908,"fix_duration":571.3459459889066,"trial":34,"RT":1126,"MT":360,"sideResp":2,"stimulus":[],"xmouse":[822,822,822,822,822,822,822,822,822,822,822,822,822,822,822,822,822,822,822,822,822,822,822,822,822,822,822,822,822,822,822,822,822,822,822,822,822,822,822,822,822,822,822,822,822,822,822,822,822,822,822,822,822,822,822,832,861,900,940,997,1012,1024,1034,1047,1063,1067,1072,1073,1073,1074,1075,1077,1081,1085,1092],"ymouse":[505,505,505,505,505,505,505,505,505,505,505,505,505,505,505,505,505,505,505,505,505,505,505,505,505,505,505,505,505,505,505,505,505,505,505,505,505,505,505,505,505,505,505,505,505,505,505,505,505,505,505,505,505,505,505,495,461,411,367,310,294,279,263,235,195,177,160,147,136,127,125,121,113,100,68],"timestamp_mouse":[13,35,47,66,86,107,127,147,167,187,208,227,246,266,286,306,326,347,368,387,406,427,447,466,487,507,527,546,567,588,606,627,647,667,687,706,727,747,767,786,807,826,847,867,887,906,927,946,966,986,1006,1027,1046,1067,1086,1107,1126,1147,1167,1186,1206,1227,1247,1266,1287,1306,1326,1347,1367,1387,1406,1426,1447,1466,1486],"xSR":741.5,"ySR":469.95,"xT1":424.9,"yT1":0,"xT2":1058.1,"yT2":0,"toosoon":0,"cond_shown":"Congruent","ratio_trial":300,"L_num":5,"L_den":25,"R_num":7,"R_den":14,"correct_side":2,"subjID":"juanEstebanParada-4","gender":"0","school":"6","age":"13"},{"start_time":1551900818263,"click_time":1551900821348,"finger_time":1551900821249,"fix_duration":1294.4679849883712,"trial":35,"RT":2986,"MT":99,"sideResp":1,"stimulus":[],"xmouse":[799,799,799,799,799,799,799,799,799,799,799,799,799,799,799,799,799,799,799,799,799,799,799,799,799,799,799,799,799,799,799,799,799,799,799,799,799,799,799,799,799,799,799,799,799,799,799,799,799,799,799,799,799,799,799,799,799,799,799,799,799,799,799,799,799,799,799,799,799,799,799,799,799,799,799,799,799,799,799,799,799,799,799,799,799,799,799,799,799,799,799,799,799,799,799,799,799,799,799,799,799,799,799,799,799,799,799,799,799,799,799,799,799,799,799,799,799,799,799,799,799,799,799,799,799,799,799,799,799,799,799,799,799,799,799,799,799,799,799,799,799,799,799,799,799,799,799,799,786,752,670,554,514,485,451],"ymouse":[497,497,497,497,497,497,497,497,497,497,497,497,497,497,497,497,497,497,497,497,497,497,497,497,497,497,497,497,497,497,497,497,497,497,497,497,497,497,497,497,497,497,497,497,497,497,497,497,497,497,497,497,497,497,497,497,497,497,497,497,497,497,497,497,497,497,497,497,497,497,497,497,497,497,497,497,497,497,497,497,497,497,497,497,497,497,497,497,497,497,497,497,497,497,497,497,497,497,497,497,497,497,497,497,497,497,497,497,497,497,497,497,497,497,497,497,497,497,497,497,497,497,497,497,497,497,497,497,497,497,497,497,497,497,497,497,497,497,497,497,497,497,497,497,497,497,497,497,473,425,330,206,166,125,78],"timestamp_mouse":[12,39,45,65,86,107,125,145,165,186,205,226,245,265,285,305,326,346,365,385,406,425,446,465,485,505,526,545,566,585,605,625,647,665,685,706,725,746,765,785,806,825,845,866,885,906,925,946,966,986,1006,1026,1046,1065,1086,1106,1125,1146,1165,1186,1206,1226,1245,1265,1285,1306,1327,1345,1365,1387,1405,1426,1445,1465,1485,1506,1525,1546,1565,1585,1606,1625,1646,1666,1687,1706,1726,1746,1765,1786,1805,1826,1845,1866,1885,1905,1925,1945,1966,1985,2005,2025,2045,2066,2086,2105,2126,2146,2165,2186,2205,2225,2246,2265,2286,2306,2325,2346,2365,2386,2406,2425,2446,2465,2486,2506,2526,2546,2566,2585,2606,2626,2646,2666,2685,2706,2726,2745,2766,2785,2806,2826,2845,2865,2885,2905,2925,2945,2965,2986,3005,3025,3045,3065,3085],"xSR":741.5,"ySR":469.95,"xT1":424.9,"yT1":0,"xT2":1058.1,"yT2":0,"toosoon":0,"cond_shown":"Congruent","ratio_trial":200,"L_num":9,"L_den":30,"R_num":13,"R_den":26,"correct_side":2,"subjID":"juanEstebanParada-4","gender":"0","school":"6","age":"13"},{"start_time":1551900824253,"click_time":1551900825629,"finger_time":1551900825529,"fix_duration":363.2670346889694,"trial":36,"RT":1276,"MT":100,"sideResp":2,"stimulus":[],"xmouse":[782,782,782,782,782,782,782,782,782,782,782,782,782,782,782,782,782,782,782,782,782,782,782,782,782,782,782,782,782,782,782,782,782,782,782,782,782,782,782,782,782,782,782,782,782,782,782,782,782,782,782,782,782,782,782,782,782,782,782,782,782,787,810,847,907,1023,1071,1105,1127],"ymouse":[508,508,508,508,508,508,508,508,508,508,508,508,508,508,508,508,508,508,508,508,508,508,508,508,508,508,508,508,508,508,508,508,508,508,508,508,508,508,508,508,508,508,508,508,508,508,508,508,508,508,508,508,508,508,508,508,508,508,508,508,508,505,485,447,379,230,165,108,69],"timestamp_mouse":[15,36,55,75,97,115,136,156,175,196,215,235,256,276,295,316,336,356,376,395,416,436,456,475,497,516,535,556,575,595,616,636,657,676,695,715,737,755,776,795,816,835,855,876,896,915,935,955,976,996,1015,1037,1056,1075,1096,1116,1136,1156,1176,1195,1216,1236,1256,1276,1295,1316,1335,1355,1375],"xSR":741.5,"ySR":469.95,"xT1":424.9,"yT1":0,"xT2":1058.1,"yT2":0,"toosoon":0,"cond_shown":"Congruent","ratio_trial":300,"L_num":1,"L_den":5,"R_num":3,"R_den":6,"correct_side":2,"subjID":"juanEstebanParada-4","gender":"0","school":"6","age":"13"},{"start_time":1551900828586,"click_time":1551900829648,"finger_time":1551900829309,"fix_duration":756.0472196597763,"trial":37,"RT":723,"MT":339,"sideResp":1,"stimulus":[],"xmouse":[813,813,813,813,813,813,813,813,813,813,813,813,813,813,813,813,813,813,813,813,813,813,813,813,813,813,813,813,813,813,813,813,813,813,808,773,716,672,623,572,511,488,477,467,457,457,457,457,458,461,461,462,468,469],"ymouse":[530,530,530,530,530,530,530,530,530,530,530,530,530,530,530,530,530,530,530,530,530,530,530,530,530,530,530,530,530,530,530,530,530,530,524,499,459,427,397,365,317,297,282,262,201,173,150,132,123,119,118,115,104,97],"timestamp_mouse":[9,22,42,64,82,103,122,142,162,183,203,223,243,262,283,304,322,343,362,382,402,422,442,462,482,503,524,542,563,583,602,623,642,663,682,703,723,742,763,782,803,823,843,863,882,902,922,943,963,983,1002,1022,1043,1062],"xSR":741.5,"ySR":469.95,"xT1":424.9,"yT1":0,"xT2":1058.1,"yT2":0,"toosoon":0,"cond_shown":"Congruent","ratio_trial":100,"L_num":1,"L_den":2,"R_num":18,"R_den":30,"correct_side":2,"subjID":"juanEstebanParada-4","gender":"0","school":"6","age":"13"},{"start_time":1551900830897,"click_time":1551900835309,"finger_time":1551900831968,"fix_duration":445.7577362618743,"trial":38,"RT":1071,"MT":3341,"sideResp":2,"stimulus":[],"xmouse":[748,748,748,748,748,748,748,748,748,748,748,748,748,748,748,748,748,748,748,748,748,748,748,748,748,748,748,748,748,748,748,748,748,748,748,748,748,748,748,748,748,748,748,748,748,748,749,751,755,757,764,777,788,799,799,799,799,799,799,799,799,799,799,799,799,799,799,799,797,796,794,792,790,784,780,777,776,776,776,776,776,777,777,777,777,777,777,777,777,777,777,777,777,777,777,777,777,777,777,777,777,777,777,777,777,777,777,777,779,780,781,782,782,782,782,782,782,782,782,782,782,782,782,782,782,782,782,782,782,782,782,782,782,782,782,782,782,782,782,782,782,782,782,775,767,760,754,749,744,744,744,744,744,744,744,744,744,744,744,744,744,744,744,744,744,744,744,744,742,740,740,738,738,735,735,734,734,734,734,734,734,734,734,734,734,734,734,734,734,734,734,734,734,734,734,734,734,734,734,734,734,734,734,734,753,788,804,815,849,856,859,861,861,872,886,901,920,930,977,1029,1090],"ymouse":[555,555,555,555,555,555,555,555,555,555,555,555,555,555,555,555,555,555,555,555,555,555,555,555,555,555,555,555,555,555,555,555,555,555,555,555,555,555,555,555,555,555,555,555,555,554,553,552,551,550,550,555,566,591,596,598,598,598,598,598,598,599,600,603,603,603,603,603,599,594,582,569,555,516,498,489,484,484,484,484,484,483,483,483,483,483,483,483,483,483,483,483,483,483,483,483,483,483,483,483,483,483,483,483,483,483,486,495,518,527,534,537,537,537,537,537,537,537,537,537,538,539,540,540,540,540,540,540,540,540,540,540,540,540,540,540,540,540,540,540,540,540,540,534,525,516,510,506,501,501,501,501,501,501,501,501,501,501,501,501,501,501,501,501,501,501,501,501,493,488,483,479,475,471,469,467,467,467,467,467,467,467,467,467,467,467,467,467,467,467,467,467,467,467,467,467,467,467,467,467,467,467,467,467,441,382,327,289,243,234,228,213,187,134,115,101,93,91,77,63,48],"timestamp_mouse":[13,34,52,72,91,111,131,153,171,192,212,231,251,272,291,311,331,351,373,392,411,432,451,472,491,511,531,551,572,591,611,631,652,672,691,711,732,751,771,793,812,831,851,872,891,911,931,952,971,991,1011,1031,1052,1071,1092,1111,1131,1152,1172,1191,1211,1232,1252,1271,1292,1311,1332,1351,1372,1391,1411,1432,1452,1471,1491,1511,1533,1551,1572,1592,1612,1632,1652,1671,1691,1712,1731,1751,1771,1791,1811,1832,1851,1872,1892,1912,1932,1951,1971,1991,2012,2032,2051,2072,2092,2112,2131,2152,2171,2192,2212,2231,2251,2272,2291,2311,2331,2352,2372,2391,2411,2431,2451,2471,2491,2512,2531,2552,2572,2592,2612,2631,2651,2672,2692,2711,2732,2751,2772,2791,2811,2831,2852,2871,2892,2912,2932,2952,2971,2992,3011,3032,3051,3072,3092,3111,3131,3152,3172,3192,3212,3231,3251,3272,3292,3312,3332,3352,3371,3391,3411,3431,3452,3471,3491,3511,3531,3551,3571,3592,3612,3631,3652,3672,3691,3711,3732,3751,3771,3791,3811,3832,3851,3872,3892,3913,3932,3951,3971,3992,4011,4032,4051,4072,4091,4112,4132,4151,4171,4192,4211,4231,4252,4271,4291,4311,4331,4351,4371,4391,4412],"xSR":741.5,"ySR":469.95,"xT1":424.9,"yT1":0,"xT2":1058.1,"yT2":0,"toosoon":0,"cond_shown":"Incongruent","ratio_trial":300,"L_num":13,"L_den":26,"R_num":12,"R_den":15,"correct_side":2,"subjID":"juanEstebanParada-4","gender":"0","school":"6","age":"13"},{"start_time":1551900836424,"click_time":1551900837668,"finger_time":1551900837268,"fix_duration":374.5506314794255,"trial":39,"RT":844,"MT":400,"sideResp":2,"stimulus":[],"xmouse":[813,813,813,813,812,810,808,807,807,807,807,807,807,807,807,807,807,807,807,807,807,807,807,807,807,807,807,807,807,807,807,807,807,807,807,807,807,807,807,807,809,813,845,857,870,882,895,912,917,925,932,945,972,983,988,990,991,1012,1041,1064,1080,1094,1096],"ymouse":[527,527,527,527,528,533,536,537,537,537,537,537,537,537,537,537,537,537,537,537,537,537,537,537,537,537,537,537,537,537,537,537,537,537,537,537,537,537,536,533,529,519,468,448,426,408,384,337,314,288,264,228,187,171,163,161,161,154,146,133,121,102,97],"timestamp_mouse":[12,24,45,65,85,105,125,145,164,184,205,224,244,264,284,305,324,344,365,385,404,424,445,466,484,504,525,544,565,584,605,624,645,664,685,704,725,744,764,785,805,824,844,865,885,905,925,945,964,984,1004,1024,1044,1064,1084,1105,1125,1144,1164,1184,1205,1225,1244],"xSR":741.5,"ySR":469.95,"xT1":424.9,"yT1":0,"xT2":1058.1,"yT2":0,"toosoon":0,"cond_shown":"Congruent","ratio_trial":100,"L_num":12,"L_den":30,"R_num":13,"R_den":26,"correct_side":2,"subjID":"juanEstebanParada-4","gender":"0","school":"6","age":"13"},{"start_time":1551900842562,"click_time":1551900861448,"finger_time":1551900860768,"fix_duration":1292.6844562792382,"trial":40,"RT":18206,"MT":680,"sideResp":1,"stimulus":[],"xmouse":[796,796,796,796,796,796,796,796,796,796,796,796,796,796,796,796,796,796,796,796,796,796,796,796,796,796,796,796,796,796,796,796,796,796,796,796,796,796,796,796,796,796,796,796,796,796,796,796,796,796,796,796,796,796,796,796,796,796,796,796,796,796,796,796,796,796,796,796,796,796,796,796,796,796,796,796,796,796,796,796,796,796,796,796,796,796,796,796,796,796,796,796,796,796,796,796,796,796,796,796,796,796,796,796,796,796,796,796,796,796,796,796,796,796,796,796,796,796,796,796,796,796,796,796,796,796,796,796,796,796,796,796,796,796,796,796,796,796,796,796,796,796,796,796,796,796,796,796,796,796,796,796,796,796,796,796,796,796,796,796,796,796,796,796,796,796,796,796,796,796,796,796,796,796,796,796,796,796,796,796,796,796,796,796,796,796,796,796,796,796,796,796,796,796,796,796,796,796,796,796,796,796,796,796,796,796,796,796,796,796,796,796,796,796,796,796,796,796,796,796,796,796,796,796,796,796,796,796,796,796,796,796,796,796,796,796,796,796,796,796,796,796,796,796,796,796,796,796,796,796,796,796,796,796,796,796,796,796,796,796,796,796,796,796,796,796,796,796,796,796,796,796,796,796,796,796,796,796,796,796,796,796,796,796,796,796,796,796,796,796,796,796,796,796,796,796,796,796,796,796,796,796,796,796,796,796,796,796,796,796,796,796,796,796,796,796,796,796,796,796,796,796,796,796,796,796,796,796,796,796,796,796,796,796,796,796,796,796,796,796,796,796,796,796,796,796,796,796,796,796,796,796,796,796,796,796,796,796,796,796,796,796,796,796,796,796,796,796,796,796,796,796,796,796,796,796,796,796,796,796,796,796,796,796,796,796,796,796,796,796,796,796,796,796,796,796,796,796,796,796,796,796,796,796,796,796,796,796,796,796,796,796,796,796,796,796,796,796,796,796,796,796,796,796,796,796,796,796,796,796,796,796,796,796,796,796,796,796,796,796,796,796,796,796,796,796,796,796,796,796,796,796,796,796,796,796,796,796,796,796,796,796,796,796,796,796,796,796,796,796,796,796,796,796,796,796,796,796,796,796,796,796,796,796,796,796,796,796,796,796,796,796,796,796,796,796,796,796,796,796,796,796,796,796,796,796,796,796,796,796,796,796,796,796,796,796,796,796,796,796,796,796,796,796,796,796,796,796,796,796,796,796,796,796,796,796,796,796,796,796,796,796,796,796,796,796,796,796,796,796,796,796,796,796,796,796,796,796,796,796,796,796,796,796,796,796,796,796,796,796,796,796,796,796,796,796,796,796,796,796,796,796,796,796,796,796,796,796,796,796,796,796,796,796,796,796,796,796,796,796,796,796,796,796,796,796,796,796,796,796,796,796,796,796,796,796,796,796,796,796,796,796,796,796,796,796,796,796,796,796,796,796,796,796,796,796,796,796,796,796,796,796,796,796,796,796,796,796,796,796,796,796,796,796,796,796,796,796,796,796,796,796,796,797,797,797,797,797,797,797,797,797,797,797,797,797,797,797,797,797,797,797,797,797,797,797,797,797,797,797,797,797,797,797,797,797,797,797,797,797,797,797,797,797,797,797,797,797,797,797,797,797,797,797,797,797,797,797,797,797,797,797,797,797,797,797,797,797,797,797,797,797,797,797,797,797,797,797,797,797,797,797,797,797,797,797,797,797,797,797,797,797,797,797,797,797,797,797,797,797,797,797,797,797,797,797,797,797,797,797,797,797,797,797,797,797,797,797,797,797,797,797,797,797,797,797,797,797,797,797,797,797,797,797,797,797,797,797,797,797,797,797,797,797,797,797,797,797,797,797,797,797,797,797,797,797,797,797,797,797,797,797,797,797,797,797,797,797,797,797,797,797,797,797,797,797,797,797,797,797,797,797,797,797,797,797,797,797,797,797,797,797,797,797,797,797,797,797,797,797,797,797,797,797,797,797,797,797,797,797,797,797,797,797,797,797,797,797,797,797,797,797,797,797,797,797,797,797,797,797,797,788,781,774,773,773,773,773,773,776,793,801,804,804,804,805,808,813,819,827,838,839,844,853,859,859,867,876,885,890,893,890,884,875,860,857,857,857,857,857,857,857,857,856,849,834,824,808,782,733,612,554,510,489,483],"ymouse":[520,520,520,520,520,520,520,520,520,520,520,520,520,520,520,520,520,520,520,520,520,520,520,520,520,520,520,520,520,520,520,520,520,520,520,520,520,520,520,520,520,520,520,520,520,520,520,520,520,520,520,520,520,520,520,520,520,520,520,520,520,520,520,520,520,520,520,520,520,520,520,520,520,520,520,520,520,520,520,520,520,520,520,520,520,520,520,520,520,520,520,520,520,520,520,520,520,520,520,520,520,520,520,520,520,520,520,520,520,520,520,520,520,520,520,520,520,520,520,520,520,520,520,520,520,520,520,520,520,520,520,520,520,520,520,520,520,520,520,520,520,520,520,520,520,520,520,520,520,520,520,520,520,520,520,520,520,520,520,520,520,520,520,520,520,520,520,520,520,520,520,520,520,520,520,520,520,520,520,520,520,520,520,520,520,520,520,520,520,520,520,520,520,520,520,520,520,520,520,520,520,520,520,520,520,520,520,520,520,520,520,520,520,520,520,520,520,520,520,520,520,520,520,520,520,520,520,520,520,520,520,520,520,520,520,520,520,520,520,520,520,520,520,520,520,520,520,520,520,520,520,520,520,520,520,520,520,520,520,520,520,520,520,520,520,520,520,520,520,520,520,520,520,520,520,520,520,520,520,520,520,520,520,520,520,520,520,520,520,520,520,520,520,520,520,520,520,520,520,520,520,520,520,520,520,520,520,520,520,520,520,520,520,520,520,520,520,520,520,520,520,520,520,520,520,520,520,520,520,520,520,520,520,520,520,520,520,520,520,520,520,520,520,520,520,520,520,520,520,520,520,520,520,520,520,520,520,520,520,520,520,520,520,520,520,520,520,520,520,520,520,520,520,520,520,520,520,520,520,520,520,520,520,520,520,520,520,520,520,520,520,520,520,520,520,520,520,520,520,520,520,520,520,520,520,520,520,520,520,520,520,520,520,520,520,520,520,520,520,520,520,520,520,520,520,520,520,520,520,520,520,520,520,520,520,520,520,520,520,520,520,520,520,520,520,520,520,520,520,520,520,520,520,520,520,520,520,520,520,520,520,520,520,520,520,520,520,520,520,520,520,520,520,520,520,520,520,520,520,520,520,520,520,520,520,520,520,520,520,520,520,520,520,520,520,520,520,520,520,520,520,520,520,520,520,520,520,520,520,520,520,520,520,520,520,520,520,520,520,520,520,520,520,520,520,520,520,520,520,520,520,520,520,520,520,520,520,520,520,520,520,520,520,520,520,520,520,520,520,520,520,520,520,520,520,520,520,520,520,520,520,520,520,520,520,520,520,520,520,520,520,520,520,520,520,520,520,520,520,520,520,520,520,520,520,520,520,520,520,520,520,520,520,520,520,520,520,520,520,520,520,520,520,520,520,520,520,520,520,520,520,520,520,520,520,520,520,520,520,520,520,520,520,520,520,520,520,520,520,520,520,520,520,520,520,520,520,520,520,520,520,520,520,520,520,520,520,520,520,520,520,520,520,520,520,520,520,520,520,520,520,520,519,519,519,519,519,519,519,519,519,519,519,519,519,519,519,519,519,519,519,519,519,519,519,519,519,519,519,519,519,519,519,519,519,519,519,519,519,519,519,519,519,519,519,519,519,519,519,519,519,519,519,519,519,519,519,519,519,519,519,519,519,519,519,519,519,519,519,519,519,519,519,519,519,519,519,519,519,519,519,519,519,519,519,519,519,519,519,519,519,519,519,519,519,519,519,519,519,519,519,519,519,519,519,519,519,519,519,519,519,519,519,519,519,519,519,519,519,519,519,519,519,519,519,519,519,519,519,519,519,519,519,519,519,519,519,519,519,519,519,519,519,519,519,519,519,519,519,519,519,519,519,519,519,519,519,519,519,519,519,519,519,519,519,519,519,519,519,519,519,519,519,519,519,519,519,519,519,519,519,519,519,519,519,519,519,519,519,519,519,519,519,519,519,519,519,519,519,519,519,519,519,519,519,519,519,519,519,519,519,519,519,519,519,519,519,519,519,519,519,519,519,519,519,519,519,519,519,519,519,508,502,492,492,492,492,492,492,487,478,473,471,471,471,471,471,471,471,470,468,468,462,453,448,448,444,438,432,425,401,385,367,345,308,303,303,303,303,303,303,303,303,299,289,280,275,270,262,249,209,176,136,101,53],"timestamp_mouse":[13,37,46,66,86,106,127,148,167,187,207,226,246,266,287,306,326,347,367,387,406,426,447,466,487,507,526,546,567,587,607,627,646,667,687,706,726,747,766,787,806,826,847,867,886,906,927,946,967,987,1007,1027,1046,1067,1086,1107,1126,1148,1167,1186,1207,1227,1246,1267,1287,1306,1328,1347,1366,1388,1407,1426,1447,1467,1487,1506,1526,1546,1567,1586,1607,1627,1648,1668,1687,1706,1727,1746,1766,1786,1807,1827,1847,1866,1887,1906,1927,1947,1966,1986,2006,2028,2047,2067,2087,2108,2127,2147,2166,2186,2206,2227,2247,2266,2286,2306,2326,2346,2366,2388,2406,2427,2447,2467,2486,2507,2527,2546,2566,2586,2607,2627,2648,2667,2686,2706,2727,2746,2767,2787,2807,2827,2847,2866,2886,2906,2927,2946,2967,2987,3008,3026,3047,3066,3086,3107,3127,3147,3166,3187,3207,3226,3246,3267,3286,3306,3327,3347,3366,3388,3406,3427,3447,3466,3487,3506,3526,3547,3567,3587,3606,3627,3647,3668,3686,3707,3726,3747,3766,3787,3808,3826,3847,3866,3886,3907,3926,3946,3968,3987,4007,4027,4047,4066,4086,4107,4127,4147,4167,4187,4207,4227,4247,4267,4286,4306,4326,4347,4366,4388,4406,4427,4447,4467,4488,4507,4527,4547,4567,4586,4607,4626,4647,4666,4687,4706,4727,4747,4766,4786,4806,4827,4847,4867,4888,4907,4927,4947,4966,4986,5006,5027,5047,5066,5087,5107,5128,5147,5167,5187,5207,5227,5246,5266,5286,5307,5326,5347,5367,5386,5406,5426,5446,5467,5486,5507,5527,5546,5567,5587,5607,5627,5647,5667,5687,5706,5726,5746,5766,5787,5808,5827,5847,5866,5886,5908,5926,5947,5967,5988,6007,6027,6046,6066,6086,6106,6126,6146,6166,6187,6206,6227,6246,6266,6286,6306,6327,6346,6366,6386,6406,6427,6447,6467,6486,6507,6526,6546,6567,6586,6606,6626,6647,6667,6686,6706,6727,6747,6767,6786,6808,6826,6847,6867,6886,6906,6927,6946,6966,6987,7006,7028,7047,7067,7087,7107,7126,7147,7166,7186,7208,7227,7247,7266,7287,7307,7327,7347,7366,7386,7406,7427,7446,7467,7486,7506,7527,7546,7566,7587,7607,7627,7646,7666,7687,7706,7726,7747,7766,7786,7807,7826,7847,7866,7886,7907,7926,7946,7967,7988,8007,8027,8046,8067,8087,8107,8126,8146,8167,8187,8206,8226,8247,8266,8287,8307,8326,8347,8367,8388,8407,8426,8446,8466,8486,8506,8526,8546,8566,8587,8606,8626,8646,8666,8686,8706,8726,8747,8766,8787,8806,8827,8846,8866,8887,8906,8926,8946,8967,8986,9006,9027,9046,9067,9086,9107,9127,9147,9167,9186,9207,9226,9247,9267,9286,9307,9326,9346,9367,9388,9407,9426,9447,9467,9487,9507,9527,9547,9566,9586,9607,9626,9646,9666,9687,9706,9728,9747,9766,9786,9807,9827,9846,9867,9887,9906,9927,9946,9967,9987,10006,10027,10047,10066,10087,10106,10126,10147,10167,10187,10206,10228,10247,10267,10286,10307,10326,10346,10367,10388,10407,10426,10447,10466,10486,10506,10526,10546,10566,10587,10607,10627,10647,10666,10687,10707,10726,10746,10767,10787,10806,10827,10847,10867,10887,10907,10927,10946,10967,10987,11006,11026,11048,11067,11087,11107,11127,11146,11166,11187,11207,11227,11246,11267,11286,11307,11327,11346,11367,11387,11407,11426,11447,11466,11487,11506,11527,11547,11566,11587,11606,11627,11647,11666,11686,11706,11726,11747,11766,11787,11806,11827,11847,11867,11886,11906,11927,11946,11967,11988,12007,12027,12046,12066,12086,12106,12126,12146,12167,12186,12206,12226,12246,12267,12287,12306,12327,12346,12367,12387,12406,12427,12447,12467,12487,12507,12526,12547,12567,12586,12606,12626,12646,12667,12686,12707,12727,12747,12767,12786,12807,12827,12847,12867,12887,12906,12927,12947,12966,12987,13006,13027,13047,13068,13087,13106,13127,13147,13167,13186,13207,13226,13246,13266,13286,13307,13327,13347,13367,13387,13407,13426,13447,13466,13487,13506,13528,13547,13566,13587,13607,13627,13646,13666,13687,13707,13727,13746,13767,13787,13807,13827,13846,13866,13886,13907,13927,13947,13967,13986,14007,14026,14047,14066,14087,14106,14127,14147,14168,14186,14207,14227,14248,14267,14286,14306,14326,14346,14366,14386,14407,14426,14448,14467,14487,14506,14526,14546,14566,14587,14606,14627,14647,14667,14687,14707,14727,14747,14768,14787,14806,14826,14846,14866,14887,14906,14926,14946,14967,14986,15007,15027,15047,15066,15086,15107,15128,15146,15167,15186,15206,15227,15246,15266,15286,15306,15326,15346,15366,15386,15406,15425,15446,15466,15487,15507,15527,15546,15565,15587,15606,15626,15647,15667,15687,15705,15725,15746,15767,15785,15805,15827,15845,15866,15885,15906,15926,15947,15965,15985,16007,16027,16046,16067,16086,16107,16125,16146,16167,16186,16206,16227,16246,16267,16286,16306,16327,16346,16367,16386,16406,16427,16445,16467,16487,16505,16527,16546,16567,16587,16606,16626,16647,16667,16685,16707,16726,16745,16767,16787,16807,16827,16847,16865,16887,16906,16926,16946,16967,16987,17007,17026,17047,17066,17086,17107,17125,17146,17167,17186,17206,17226,17246,17265,17287,17306,17325,17347,17367,17387,17406,17427,17446,17466,17485,17506,17527,17547,17565,17587,17607,17625,17647,17667,17687,17707,17725,17747,17767,17785,17805,17826,17846,17867,17887,17906,17926,17945,17967,17987,18006,18027,18046,18066,18086,18106,18126,18146,18165,18185,18206,18226,18246,18265,18286,18306,18327,18345,18366,18387,18406,18425,18445,18465,18485,18505,18525,18545,18567,18587,18606,18625,18645,18667,18686,18705,18725,18745,18766,18786,18806,18825,18846,18865,18886],"xSR":741.5,"ySR":469.95,"xT1":424.9,"yT1":0,"xT2":1058.1,"yT2":0,"toosoon":0,"cond_shown":"Incongruent","ratio_trial":100,"L_num":8,"L_den":20,"R_num":1,"R_den":2,"correct_side":2,"subjID":"juanEstebanParada-4","gender":"0","school":"6","age":"13"},{"start_time":1551900864061,"click_time":1551900865388,"finger_time":1551900865129,"fix_duration":1429.9714072582665,"trial":41,"RT":1068,"MT":259,"sideResp":2,"stimulus":[],"xmouse":[804,804,804,804,804,804,804,804,805,805,805,805,805,805,805,805,805,805,805,805,805,805,805,805,805,805,805,805,805,805,805,805,805,805,805,805,805,805,805,805,805,805,805,805,805,805,805,805,805,805,817,829,840,852,866,902,922,939,952,971,996,1009,1017,1029,1037,1060,1069],"ymouse":[528,528,528,528,528,528,528,528,529,529,529,529,529,529,529,529,529,529,529,529,529,529,529,529,529,529,529,529,529,529,529,529,529,529,529,529,529,529,529,529,529,529,529,529,529,529,529,529,529,529,527,521,515,509,502,470,437,404,377,337,288,257,219,183,159,115,95],"timestamp_mouse":[13,40,47,67,88,107,127,147,166,188,208,228,247,267,286,308,328,347,368,388,407,427,448,468,487,507,526,547,568,587,608,626,648,667,687,708,728,747,768,787,808,827,846,867,888,906,928,947,967,986,1008,1027,1048,1068,1088,1108,1126,1146,1166,1187,1207,1227,1247,1267,1286,1307,1327],"xSR":741.5,"ySR":469.95,"xT1":424.9,"yT1":0,"xT2":1058.1,"yT2":0,"toosoon":0,"cond_shown":"Congruent","ratio_trial":100,"L_num":7,"L_den":14,"R_num":9,"R_den":15,"correct_side":2,"subjID":"juanEstebanParada-4","gender":"0","school":"6","age":"13"},{"start_time":1551900868891,"click_time":1551900870289,"finger_time":1551900870167,"fix_duration":1300.6586547055851,"trial":42,"RT":1276,"MT":122,"sideResp":2,"stimulus":[],"xmouse":[802,802,802,802,802,802,802,802,802,802,802,802,802,802,802,802,802,802,802,802,802,802,802,802,802,802,802,802,802,802,802,802,802,802,802,802,802,802,802,802,802,802,802,802,802,802,802,802,802,802,802,802,802,802,802,802,802,802,802,802,802,802,802,855,896,937,969,992,1049,1091],"ymouse":[538,538,538,538,538,538,538,538,536,535,535,535,535,535,535,535,535,535,535,535,535,535,535,535,535,535,535,535,535,535,535,535,535,535,535,535,535,535,535,535,535,535,535,535,535,535,535,535,535,535,535,535,535,535,535,535,535,535,535,535,535,534,527,402,310,233,184,153,94,54],"timestamp_mouse":[18,43,58,78,96,118,138,158,177,197,217,238,257,