[{"start_time":1551901213926,"click_time":1551901215017,"finger_time":1551901214757,"fix_duration":745.6561675798117,"trial":0,"RT":831,"MT":260,"sideResp":1,"stimulus":"img/900/randomdotsizeEA/R/5_Ratio_900_L_9_R_10.png","xmouse":[808,808,808,808,808,808,808,808,808,808,808,808,808,808,808,808,808,808,808,808,808,808,808,808,808,808,808,808,808,808,808,808,808,808,808,808,808,808,808,808,795,740,691,662,625,606,557,528,503,481,470,458,446,439,433],"ymouse":[533,533,533,533,533,533,533,533,533,533,533,533,533,533,533,533,533,533,533,533,533,533,533,533,533,533,533,533,533,533,533,533,533,533,533,533,533,533,533,533,522,481,437,412,366,336,277,246,225,197,179,155,136,124,98],"timestamp_mouse":[11,35,51,72,92,111,132,150,172,191,210,230,251,271,291,311,331,351,371,391,412,432,451,471,490,512,532,552,572,591,612,632,652,671,691,711,732,752,771,791,811,831,851,870,891,911,930,951,971,991,1011,1032,1052,1072,1091],"xSR":741.5,"ySR":469.95,"xT1":424.9,"yT1":0,"xT2":1058.1,"yT2":0,"toosoon":0,"cond_shown":"randomdotsizeEA","ratio_trial":900,"smaller_num":"9","larger_num":"10","correct_side":2,"subjID":"juanestebnparada-4","gender":"0","age":"13","school":"6","test":{"fix_dur":[250,1500],"timestim":300,"targets_dim":[100,100],"targets_relative_coord":[0.3,0.7],"size_stim":[880,420],"start_dim":[100,100],"size_start":[300,300],"size_fix":60,"samplingrate":20,"img_types":["equaldotsize","equaldotanddens","randomdotsizeEA"],"ratios":[250,500,750,900],"rep_conds":9,"nTrials":120,"trials_to_rest":500,"Trials_order":[71,61,114,95,101,63,112,38,44,115,18,50,80,105,118,96,14,81,12,69,79,103,49,37,83,22,93,66,17,108,10,16,1,58,92,67,2,40,3,98,48,75,28,82,33,19,4,31,27,117,111,100,70,5,57,11,41,42,0,88,73,91,20,99,110,34,65,78,59,54,94,35,72,109,9,116,87,62,15,104,13,46,56,45,55,107,102,7,23,52,76,6,43,53,32,77,29,84,68,47,106,64,113,60,97,85,21,25,8,86,51,24,30,26,36,89,90,39,119,74],"cond_shown":["randomdotsizeEA","equaldotanddens","equaldotsize","randomdotsizeEA","randomdotsizeEA","equaldotsize","equaldotanddens","randomdotsizeEA","randomdotsizeEA","equaldotanddens","equaldotsize","randomdotsizeEA","randomdotsizeEA","equaldotsize","equaldotanddens","equaldotsize","randomdotsizeEA","equaldotsize","equaldotsize","equaldotsize","equaldotanddens","equaldotanddens","equaldotanddens","equaldotanddens","randomdotsizeEA","equaldotanddens","equaldotsize","equaldotsize","randomdotsizeEA","equaldotsize","equaldotanddens","equaldotanddens","equaldotanddens","equaldotanddens","randomdotsizeEA","equaldotanddens","randomdotsizeEA","equaldotanddens","equaldotsize","randomdotsizeEA","equaldotsize","equaldotsize","equaldotanddens","equaldotanddens","equaldotsize","equaldotanddens","equaldotanddens","equaldotanddens","equaldotsize","equaldotsize","equaldotsize","equaldotanddens","equaldotanddens","randomdotsizeEA","equaldotsize","randomdotsizeEA","randomdotsizeEA","equaldotsize","equaldotsize","equaldotanddens","equaldotanddens","equaldotanddens","randomdotsizeEA","equaldotsize","randomdotsizeEA","equaldotanddens","randomdotsizeEA","equaldotsize","randomdotsizeEA","equaldotsize","equaldotanddens","randomdotsizeEA","equaldotsize","equaldotanddens","equaldotsize","randomdotsizeEA","equaldotsize","randomdotsizeEA","equaldotsize","randomdotsizeEA","equaldotanddens","equaldotanddens","randomdotsizeEA","equaldotsize","equaldotanddens","randomdotsizeEA","equaldotsize","equaldotanddens","randomdotsizeEA","equaldotanddens","equaldotanddens","equaldotsize","equaldotanddens","randomdotsizeEA","randomdotsizeEA","randomdotsizeEA","randomdotsizeEA","equaldotsize","randomdotsizeEA","randomdotsizeEA","equaldotanddens","equaldotanddens","randomdotsizeEA","equaldotsize","equaldotanddens","equaldotanddens","equaldotsize","equaldotanddens","randomdotsizeEA","randomdotsizeEA","equaldotsize","equaldotsize","equaldotsize","randomdotsizeEA","equaldotsize","randomdotsizeEA","equaldotsize","equaldotsize","randomdotsizeEA","randomdotsizeEA"],"ratio_trial":[900,250,750,900,500,500,500,250,750,750,750,250,750,900,900,250,250,900,250,900,750,750,250,250,900,900,900,750,500,250,900,500,250,900,750,750,250,500,500,250,250,500,500,900,900,750,500,750,500,900,500,500,900,500,900,900,500,750,250,500,250,750,750,500,250,900,500,750,900,750,900,900,250,250,900,750,500,250,500,750,250,900,750,900,750,900,750,750,900,500,500,750,750,500,750,500,500,250,750,900,900,500,500,250,250,250,900,250,750,250,500,250,750,250,250,500,750,500,900,250],"smaller_num":["9","3","3","9","3","1","9","4","15","15","15","2","3","18","18","3","5","18","4","9","6","15","3","2","9","18","9","6","1","2","18","1","2","9","6","3","2","9","9","4","3","3","9","9","9","15","9","12","6","18","6","2","18","5","18","18","9","18","6","5","6","15","12","1","2","18","6","3","18","15","9","9","2","4","18","18","2","2","9","15","4","18","18","9","6","9","3","15","18","9","6","6","6","2","15","1","1","2","3","9","9","2","9","6","2","2","9","1","15","2","2","4","3","1","3","1","3","5","9","5"],"larger_num":["10","12","4","10","6","2","18","16","20","20","20","8","4","20","20","12","20","20","16","10","8","20","12","8","10","20","10","8","2","8","20","2","8","10","8","4","8","18","18","16","12","6","18","10","10","20","18","16","12","20","12","4","20","10","20","20","18","24","24","10","24","20","16","2","8","20","12","4","20","20","10","10","8","16","20","24","4","8","18","20","16","20","24","10","8","10","4","20","20","18","12","8","8","4","20","2","2","8","4","10","10","4","18","24","8","8","10","4","20","8","4","16","4","4","12","2","4","10","10","20"],"correct_side":[2,1,2,2,2,2,1,2,1,2,2,1,2,1,2,1,2,1,1,2,1,2,1,1,2,1,2,1,2,1,1,2,1,1,1,2,1,1,1,2,2,2,2,2,1,2,1,2,1,2,1,1,2,2,2,2,2,1,1,1,1,2,2,2,1,1,1,1,1,2,2,2,1,2,1,1,1,1,2,2,1,1,1,1,1,2,1,2,1,1,1,1,1,1,2,2,2,1,2,2,2,2,2,2,1,2,2,2,2,1,1,1,1,2,1,2,1,2,1,2],"img_shown":["img/900/randomdotsizeEA/R/5_Ratio_900_L_9_R_10.png","img/250/equaldotanddens/L/14_Ratio_250_L_12_R_3.png","img/750/equaldotsize/R/7_Ratio_750_L_3_R_4.png","img/900/randomdotsizeEA/R/5_Ratio_900_L_9_R_10.png","img/500/randomdotsizeEA/R/2_Ratio_500_L_3_R_6.png","img/500/equaldotsize/R/12_Ratio_500_L_1_R_2.png","img/500/equaldotanddens/L/4_Ratio_500_L_18_R_9.png","img/250/randomdotsizeEA/R/10_Ratio_250_L_4_R_16.png","img/750/randomdotsizeEA/L/1_Ratio_750_L_20_R_15.png","img/750/equaldotanddens/R/4_Ratio_750_L_15_R_20.png","img/750/equaldotsize/R/3_Ratio_750_L_15_R_20.png","img/250/randomdotsizeEA/L/3_Ratio_250_L_8_R_2.png","img/750/randomdotsizeEA/R/7_Ratio_750_L_3_R_4.png","img/900/equaldotsize/L/2_Ratio_900_L_20_R_18.png","img/900/equaldotanddens/R/13_Ratio_900_L_18_R_20.png","img/250/equaldotsize/L/15_Ratio_250_L_12_R_3.png","img/250/randomdotsizeEA/R/12_Ratio_250_L_5_R_20.png","img/900/equaldotsize/L/10_Ratio_900_L_20_R_18.png","img/250/equaldotsize/L/2_Ratio_250_L_16_R_4.png","img/900/equaldotsize/R/3_Ratio_900_L_9_R_10.png","img/750/equaldotanddens/L/14_Ratio_750_L_8_R_6.png","img/750/equaldotanddens/R/5_Ratio_750_L_15_R_20.png","img/250/equaldotanddens/L/14_Ratio_250_L_12_R_3.png","img/250/equaldotanddens/L/3_Ratio_250_L_8_R_2.png","img/900/randomdotsizeEA/R/15_Ratio_900_L_9_R_10.png","img/900/equaldotanddens/L/4_Ratio_900_L_20_R_18.png","img/900/equaldotsize/R/15_Ratio_900_L_9_R_10.png","img/750/equaldotsize/L/13_Ratio_750_L_8_R_6.png","img/500/randomdotsizeEA/R/12_Ratio_500_L_1_R_2.png","img/250/equaldotsize/L/3_Ratio_250_L_8_R_2.png","img/900/equaldotanddens/L/10_Ratio_900_L_20_R_18.png","img/500/equaldotanddens/R/12_Ratio_500_L_1_R_2.png","img/250/equaldotanddens/L/7_Ratio_250_L_8_R_2.png","img/900/equaldotanddens/L/1_Ratio_900_L_10_R_9.png","img/750/randomdotsizeEA/L/14_Ratio_750_L_8_R_6.png","img/750/equaldotanddens/R/12_Ratio_750_L_3_R_4.png","img/250/randomdotsizeEA/L/7_Ratio_250_L_8_R_2.png","img/500/equaldotanddens/L/4_Ratio_500_L_18_R_9.png","img/500/equaldotsize/L/4_Ratio_500_L_18_R_9.png","img/250/randomdotsizeEA/R/10_Ratio_250_L_4_R_16.png","img/250/equaldotsize/R/4_Ratio_250_L_3_R_12.png","img/500/equaldotsize/R/2_Ratio_500_L_3_R_6.png","img/500/equaldotanddens/R/6_Ratio_500_L_9_R_18.png","img/900/equaldotanddens/R/6_Ratio_900_L_9_R_10.png","img/900/equaldotsize/L/1_Ratio_900_L_10_R_9.png","img/750/equaldotanddens/R/4_Ratio_750_L_15_R_20.png","img/500/equaldotanddens/L/4_Ratio_500_L_18_R_9.png","img/750/equaldotanddens/R/11_Ratio_750_L_12_R_16.png","img/500/equaldotsize/L/13_Ratio_500_L_12_R_6.png","img/900/equaldotsize/R/13_Ratio_900_L_18_R_20.png","img/500/equaldotsize/L/11_Ratio_500_L_12_R_6.png","img/500/equaldotanddens/L/10_Ratio_500_L_4_R_2.png","img/900/equaldotanddens/R/12_Ratio_900_L_18_R_20.png","img/500/randomdotsizeEA/R/14_Ratio_500_L_5_R_10.png","img/900/equaldotsize/R/9_Ratio_900_L_18_R_20.png","img/900/randomdotsizeEA/R/14_Ratio_900_L_18_R_20.png","img/500/randomdotsizeEA/R/6_Ratio_500_L_9_R_18.png","img/750/equaldotsize/L/6_Ratio_750_L_24_R_18.png","img/250/equaldotsize/L/5_Ratio_250_L_24_R_6.png","img/500/equaldotanddens/L/7_Ratio_500_L_10_R_5.png","img/250/equaldotanddens/L/5_Ratio_250_L_24_R_6.png","img/750/equaldotanddens/R/4_Ratio_750_L_15_R_20.png","img/750/randomdotsizeEA/R/11_Ratio_750_L_12_R_16.png","img/500/equaldotsize/R/15_Ratio_500_L_1_R_2.png","img/250/randomdotsizeEA/L/3_Ratio_250_L_8_R_2.png","img/900/equaldotanddens/L/4_Ratio_900_L_20_R_18.png","img/500/randomdotsizeEA/L/13_Ratio_500_L_12_R_6.png","img/750/equaldotsize/L/10_Ratio_750_L_4_R_3.png","img/900/randomdotsizeEA/L/10_Ratio_900_L_20_R_18.png","img/750/equaldotsize/R/4_Ratio_750_L_15_R_20.png","img/900/equaldotanddens/R/5_Ratio_900_L_9_R_10.png","img/900/randomdotsizeEA/R/6_Ratio_900_L_9_R_10.png","img/250/equaldotsize/L/1_Ratio_250_L_8_R_2.png","img/250/equaldotanddens/R/10_Ratio_250_L_4_R_16.png","img/900/equaldotsize/L/2_Ratio_900_L_20_R_18.png","img/750/randomdotsizeEA/L/6_Ratio_750_L_24_R_18.png","img/500/equaldotsize/L/5_Ratio_500_L_4_R_2.png","img/250/randomdotsizeEA/L/1_Ratio_250_L_8_R_2.png","img/500/equaldotsize/R/1_Ratio_500_L_9_R_18.png","img/750/randomdotsizeEA/R/3_Ratio_750_L_15_R_20.png","img/250/equaldotanddens/L/2_Ratio_250_L_16_R_4.png","img/900/equaldotanddens/L/8_Ratio_900_L_20_R_18.png","img/750/randomdotsizeEA/L/6_Ratio_750_L_24_R_18.png","img/900/equaldotsize/L/1_Ratio_900_L_10_R_9.png","img/750/equaldotanddens/L/13_Ratio_750_L_8_R_6.png","img/900/randomdotsizeEA/R/3_Ratio_900_L_9_R_10.png","img/750/equaldotsize/L/9_Ratio_750_L_4_R_3.png","img/750/equaldotanddens/R/4_Ratio_750_L_15_R_20.png","img/900/randomdotsizeEA/L/4_Ratio_900_L_20_R_18.png","img/500/equaldotanddens/L/4_Ratio_500_L_18_R_9.png","img/500/equaldotanddens/L/11_Ratio_500_L_12_R_6.png","img/750/equaldotsize/L/14_Ratio_750_L_8_R_6.png","img/750/equaldotanddens/L/14_Ratio_750_L_8_R_6.png","img/500/randomdotsizeEA/L/5_Ratio_500_L_4_R_2.png","img/750/randomdotsizeEA/R/5_Ratio_750_L_15_R_20.png","img/500/randomdotsizeEA/R/15_Ratio_500_L_1_R_2.png","img/500/randomdotsizeEA/R/12_Ratio_500_L_1_R_2.png","img/250/equaldotsize/L/1_Ratio_250_L_8_R_2.png","img/750/randomdotsizeEA/R/7_Ratio_750_L_3_R_4.png","img/900/randomdotsizeEA/R/15_Ratio_900_L_9_R_10.png","img/900/equaldotanddens/R/3_Ratio_900_L_9_R_10.png","img/500/equaldotanddens/R/9_Ratio_500_L_2_R_4.png","img/500/randomdotsizeEA/R/1_Ratio_500_L_9_R_18.png","img/250/equaldotsize/R/6_Ratio_250_L_6_R_24.png","img/250/equaldotanddens/L/1_Ratio_250_L_8_R_2.png","img/250/equaldotanddens/R/13_Ratio_250_L_2_R_8.png","img/900/equaldotsize/R/7_Ratio_900_L_9_R_10.png","img/250/equaldotanddens/R/8_Ratio_250_L_1_R_4.png","img/750/randomdotsizeEA/R/4_Ratio_750_L_15_R_20.png","img/250/randomdotsizeEA/L/3_Ratio_250_L_8_R_2.png","img/500/equaldotsize/L/5_Ratio_500_L_4_R_2.png","img/250/equaldotsize/L/2_Ratio_250_L_16_R_4.png","img/750/equaldotsize/L/10_Ratio_750_L_4_R_3.png","img/250/randomdotsizeEA/R/8_Ratio_250_L_1_R_4.png","img/250/equaldotsize/L/15_Ratio_250_L_12_R_3.png","img/500/randomdotsizeEA/R/12_Ratio_500_L_1_R_2.png","img/750/equaldotsize/L/8_Ratio_750_L_4_R_3.png","img/500/equaldotsize/R/14_Ratio_500_L_5_R_10.png","img/900/randomdotsizeEA/L/1_Ratio_900_L_10_R_9.png","img/250/randomdotsizeEA/R/12_Ratio_250_L_5_R_20.png"],"Rat0":[["12_Ratio_0_L_9_R_0.png","13_Ratio_0_L_6_R_0.png","5_Ratio_0_L_2_R_0.png","6_Ratio_0_L_4_R_0.png","8_Ratio_0_L_6_R_0.png"],["1_Ratio_0_L_0_R_17.png","10_Ratio_0_L_0_R_22.png","11_Ratio_0_L_0_R_1.png","14_Ratio_0_L_0_R_24.png","15_Ratio_0_L_0_R_4.png","2_Ratio_0_L_0_R_5.png","3_Ratio_0_L_0_R_17.png","4_Ratio_0_L_0_R_7.png","7_Ratio_0_L_0_R_19.png","9_Ratio_0_L_0_R_15.png"]],"Rat250":[["1_Ratio_250_L_8_R_2.png","14_Ratio_250_L_12_R_3.png","15_Ratio_250_L_12_R_3.png","2_Ratio_250_L_16_R_4.png","3_Ratio_250_L_8_R_2.png","5_Ratio_250_L_24_R_6.png","7_Ratio_250_L_8_R_2.png"],["10_Ratio_250_L_4_R_16.png","11_Ratio_250_L_3_R_12.png","12_Ratio_250_L_5_R_20.png","13_Ratio_250_L_2_R_8.png","4_Ratio_250_L_3_R_12.png","6_Ratio_250_L_6_R_24.png","8_Ratio_250_L_1_R_4.png","9_Ratio_250_L_3_R_12.png"]],"Rat500":[["10_Ratio_500_L_4_R_2.png","11_Ratio_500_L_12_R_6.png","13_Ratio_500_L_12_R_6.png","4_Ratio_500_L_18_R_9.png","5_Ratio_500_L_4_R_2.png","7_Ratio_500_L_10_R_5.png","8_Ratio_500_L_8_R_4.png"],["1_Ratio_500_L_9_R_18.png","12_Ratio_500_L_1_R_2.png","14_Ratio_500_L_5_R_10.png","15_Ratio_500_L_1_R_2.png","2_Ratio_500_L_3_R_6.png","3_Ratio_500_L_10_R_20.png","6_Ratio_500_L_9_R_18.png","9_Ratio_500_L_2_R_4.png"]],"Rat750":[["1_Ratio_750_L_20_R_15.png","10_Ratio_750_L_4_R_3.png","13_Ratio_750_L_8_R_6.png","14_Ratio_750_L_8_R_6.png","6_Ratio_750_L_24_R_18.png","8_Ratio_750_L_4_R_3.png","9_Ratio_750_L_4_R_3.png"],["11_Ratio_750_L_12_R_16.png","12_Ratio_750_L_3_R_4.png","15_Ratio_750_L_9_R_12.png","2_Ratio_750_L_6_R_8.png","3_Ratio_750_L_15_R_20.png","4_Ratio_750_L_15_R_20.png","5_Ratio_750_L_15_R_20.png","7_Ratio_750_L_3_R_4.png"]],"Rat900":[["1_Ratio_900_L_10_R_9.png","10_Ratio_900_L_20_R_18.png","2_Ratio_900_L_20_R_18.png","4_Ratio_900_L_20_R_18.png","8_Ratio_900_L_20_R_18.png"],["11_Ratio_900_L_18_R_20.png","12_Ratio_900_L_18_R_20.png","13_Ratio_900_L_18_R_20.png","14_Ratio_900_L_18_R_20.png","15_Ratio_900_L_9_R_10.png","3_Ratio_900_L_9_R_10.png","5_Ratio_900_L_9_R_10.png","6_Ratio_900_L_9_R_10.png","7_Ratio_900_L_9_R_10.png","9_Ratio_900_L_18_R_20.png"]],"Rat1000":[["10_Ratio_1000_L_16_R_16.png","11_Ratio_1000_L_6_R_6.png","12_Ratio_1000_L_14_R_14.png","13_Ratio_1000_L_20_R_20.png","15_Ratio_1000_L_15_R_15.png","2_Ratio_1000_L_17_R_17.png","4_Ratio_1000_L_9_R_9.png","5_Ratio_1000_L_6_R_6.png","6_Ratio_1000_L_19_R_19.png","8_Ratio_1000_L_14_R_14.png","9_Ratio_1000_L_25_R_25.png"],["1_Ratio_1000_L_1_R_1.png","14_Ratio_1000_L_17_R_17.png","3_Ratio_1000_L_17_R_17.png","7_Ratio_1000_L_6_R_6.png"]]}},{"start_time":1551901220212,"click_time":1551901221137,"finger_time":1551901220816,"fix_duration":1174.7721249941333,"trial":1,"RT":604,"MT":321,"sideResp":1,"stimulus":"img/250/equaldotanddens/L/14_Ratio_250_L_12_R_3.png","xmouse":[807,807,807,807,807,807,807,807,807,807,807,807,807,807,807,807,807,807,807,807,807,807,807,807,807,807,807,807,807,806,774,741,726,714,703,673,655,639,627,613,589,581,569,558,543,507,490],"ymouse":[520,520,520,520,520,520,520,520,520,520,520,520,520,520,520,520,520,520,520,520,520,520,520,520,520,520,520,520,520,504,460,417,403,392,383,358,335,315,303,290,266,254,231,208,181,113,84],"timestamp_mouse":[10,25,44,65,86,105,126,145,165,185,205,225,245,265,284,304,325,345,366,385,406,424,446,465,486,506,526,546,566,584,604,625,645,664,685,704,725,745,765,786,805,824,845,865,885,905,924],"xSR":741.5,"ySR":469.95,"xT1":424.9,"yT1":0,"xT2":1058.1,"yT2":0,"toosoon":0,"cond_shown":"equaldotanddens","ratio_trial":250,"smaller_num":"3","larger_num":"12","correct_side":1,"subjID":"juanestebnparada-4","gender":"0","age":"13","school":"6"},{"start_time":1551901222150,"click_time":1551901223357,"finger_time":1551901223037,"fix_duration":250,"trial":2,"RT":887,"MT":320,"sideResp":1,"stimulus":"img/750/equaldotsize/R/7_Ratio_750_L_3_R_4.png","xmouse":[769,769,769,769,769,769,769,769,769,769,769,769,769,769,769,769,769,769,769,769,769,769,769,769,769,769,769,769,769,769,769,769,769,769,769,769,769,769,769,769,769,769,769,746,738,712,674,636,573,550,531,512,491,443,423,421,420,420,421,424,428],"ymouse":[534,534,534,534,534,534,534,534,534,534,534,534,534,534,534,534,534,534,534,534,534,534,534,534,534,534,534,534,534,534,534,534,534,534,534,534,534,534,534,534,534,532,525,502,495,469,436,403,334,301,267,231,187,105,72,62,57,54,51,48,46],"timestamp_mouse":[9,36,47,66,86,107,127,147,168,188,208,226,248,267,287,307,327,347,367,387,407,428,448,467,487,508,527,547,566,588,608,626,648,668,686,707,727,747,767,788,808,827,847,866,887,906,926,946,967,987,1007,1027,1047,1067,1087,1106,1127,1147,1166,1187,1207],"xSR":741.5,"ySR":469.95,"xT1":424.9,"yT1":0,"xT2":1058.1,"yT2":0,"toosoon":0,"cond_shown":"equaldotsize","ratio_trial":750,"smaller_num":"3","larger_num":"4","correct_side":2,"subjID":"juanestebnparada-4","gender":"0","age":"13","school":"6"},{"start_time":1551901225098,"click_time":1551901225857,"finger_time":1551901225758,"fix_duration":1019.3607112110964,"trial":3,"RT":660,"MT":99,"sideResp":2,"stimulus":"img/900/randomdotsizeEA/R/5_Ratio_900_L_9_R_10.png","xmouse":[756,756,756,757,758,760,761,761,761,761,761,761,761,761,761,761,761,761,761,761,761,761,761,761,761,761,761,762,766,774,799,818,844,881,925,1014,1040,1066],"ymouse":[521,521,521,521,522,532,534,534,534,534,534,534,534,534,534,534,534,534,534,534,534,534,534,534,534,534,534,535,535,535,513,495,473,432,365,195,111,11],"timestamp_mouse":[18,38,60,79,99,119,139,159,180,200,218,240,258,280,299,319,339,359,379,400,419,438,460,478,500,520,539,559,579,599,619,639,660,679,699,719,738,759],"xSR":741.5,"ySR":469.95,"xT1":424.9,"yT1":0,"xT2":1058.1,"yT2":0,"toosoon":0,"cond_shown":"randomdotsizeEA","ratio_trial":900,"smaller_num":"9","larger_num":"10","correct_side":2,"subjID":"juanestebnparada-4","gender":"0","age":"13","school":"6"},{"start_time":1551901227121,"click_time":1551901227897,"finger_time":1551901227697,"fix_duration":502.22286969088503,"trial":4,"RT":576,"MT":200,"sideResp":2,"stimulus":"img/500/randomdotsizeEA/R/2_Ratio_500_L_3_R_6.png","xmouse":[785,785,785,785,785,785,785,785,785,785,785,785,785,785,785,785,785,785,785,785,785,785,785,785,785,785,789,805,829,902,945,977,1003,1022,1051,1073,1090,1106,1118],"ymouse":[518,518,518,518,518,518,518,518,518,518,518,518,518,518,518,518,518,518,518,518,518,518,518,518,518,518,511,486,458,372,319,275,239,213,174,148,128,103,86],"timestamp_mouse":[16,36,56,77,97,116,135,157,176,196,215,235,257,277,296,315,336,357,377,397,416,437,456,476,497,516,536,555,576,596,616,636,656,676,696,717,736,756,776],"xSR":741.5,"ySR":469.95,"xT1":424.9,"yT1":0,"xT2":1058.1,"yT2":0,"toosoon":0,"cond_shown":"randomdotsizeEA","ratio_trial":500,"smaller_num":"3","larger_num":"6","correct_side":2,"subjID":"juanestebnparada-4","gender":"0","age":"13","school":"6"},{"start_time":1551901228931,"click_time":1551901229878,"finger_time":1551901229657,"fix_duration":370.8141048181073,"trial":5,"RT":726,"MT":221,"sideResp":2,"stimulus":"img/500/equaldotsize/R/12_Ratio_500_L_1_R_2.png","xmouse":[820,820,820,820,820,820,820,820,820,820,820,820,820,820,820,820,820,820,820,820,820,820,820,820,820,820,820,820,820,820,820,820,820,820,824,837,862,890,922,984,1004,1018,1028,1036,1045,1052,1057,1063],"ymouse":[541,541,541,541,541,541,541,541,541,541,541,541,541,541,541,541,541,541,541,541,541,541,541,541,541,541,541,541,541,541,541,541,541,541,535,524,491,452,405,299,253,220,198,180,153,133,115,94],"timestamp_mouse":[6,26,46,67,86,107,127,145,166,186,205,227,246,265,287,306,326,346,367,387,407,427,447,466,487,506,526,547,567,587,607,626,646,667,687,705,726,746,766,786,806,826,846,866,886,906,926,947],"xSR":741.5,"ySR":469.95,"xT1":424.9,"yT1":0,"xT2":1058.1,"yT2":0,"toosoon":0,"cond_shown":"equaldotsize","ratio_trial":500,"smaller_num":"1","larger_num":"2","correct_side":2,"subjID":"juanestebnparada-4","gender":"0","age":"13","school":"6"},{"start_time":1551901231793,"click_time":1551901232457,"finger_time":1551901232317,"fix_duration":1373.9369813212322,"trial":6,"RT":524,"MT":140,"sideResp":1,"stimulus":"img/500/equaldotanddens/L/4_Ratio_500_L_18_R_9.png","xmouse":[773,773,773,773,773,773,773,773,773,773,773,773,773,773,773,773,773,773,773,773,773,773,773,773,773,773,741,689,648,615,580,527,518,514],"ymouse":[542,542,542,542,542,542,542,542,542,542,542,542,542,542,542,542,542,542,542,542,542,542,542,542,542,540,463,395,339,279,220,129,101,78],"timestamp_mouse":[13,31,44,65,84,104,124,145,165,185,203,224,245,265,284,303,325,345,364,383,405,424,445,464,485,504,524,543,564,584,603,624,645,664],"xSR":741.5,"ySR":469.95,"xT1":424.9,"yT1":0,"xT2":1058.1,"yT2":0,"toosoon":0,"cond_shown":"equaldotanddens","ratio_trial":500,"smaller_num":"9","larger_num":"18","correct_side":1,"subjID":"juanestebnparada-4","gender":"0","age":"13","school":"6"},{"start_time":1551901234209,"click_time":1551901235158,"finger_time":1551901234877,"fix_duration":1230.5544069138832,"trial":7,"RT":668,"MT":281,"sideResp":2,"stimulus":"img/250/randomdotsizeEA/R/10_Ratio_250_L_4_R_16.png","xmouse":[818,818,818,818,818,818,818,818,818,818,818,818,818,818,818,818,818,818,818,818,818,818,818,818,818,818,818,818,818,818,818,826,838,855,883,937,951,960,969,978,1002,1018,1018,1025,1035,1057,1066,1073],"ymouse":[513,513,513,513,513,513,513,513,513,513,513,513,513,513,513,513,513,513,513,513,513,513,513,513,513,513,513,513,513,513,513,497,483,464,434,368,333,309,288,270,225,197,192,177,159,122,107,98],"timestamp_mouse":[14,27,47,69,89,107,127,149,169,188,209,229,249,268,289,308,328,349,367,387,409,427,449,468,487,508,528,549,568,588,608,629,648,668,688,708,728,749,768,788,808,828,848,868,888,908,929,949],"xSR":741.5,"ySR":469.95,"xT1":424.9,"yT1":0,"xT2":1058.1,"yT2":0,"toosoon":0,"cond_shown":"randomdotsizeEA","ratio_trial":250,"smaller_num":"4","larger_num":"16","correct_side":2,"subjID":"juanestebnparada-4","gender":"0","age":"13","school":"6"},{"start_time":1551901237430,"click_time":1551901238397,"finger_time":1551901238117,"fix_duration":250,"trial":8,"RT":687,"MT":280,"sideResp":2,"stimulus":"img/750/randomdotsizeEA/L/1_Ratio_750_L_20_R_15.png","xmouse":[796,796,796,796,796,796,796,796,796,796,796,796,796,796,796,796,796,796,796,796,796,796,796,796,796,796,796,796,796,796,796,796,796,818,876,932,987,1028,1044,1054,1065,1071,1075,1080,1086,1088,1090,1091,1092],"ymouse":[540,540,540,540,540,540,540,540,540,540,540,540,540,540,540,540,540,540,540,540,540,540,540,540,540,540,540,540,540,540,540,540,540,502,413,344,282,242,223,210,183,171,158,144,123,117,108,102,92],"timestamp_mouse":[13,30,48,68,88,108,128,147,168,187,207,228,247,267,287,306,328,348,367,387,406,428,447,467,487,508,528,547,568,586,607,628,647,667,687,706,728,747,767,787,807,827,847,867,887,908,927,947,967],"xSR":741.5,"ySR":469.95,"xT1":424.9,"yT1":0,"xT2":1058.1,"yT2":0,"toosoon":0,"cond_shown":"randomdotsizeEA","ratio_trial":750,"smaller_num":"15","larger_num":"20","correct_side":1,"subjID":"juanestebnparada-4","gender":"0","age":"13","school":"6"},{"start_time":1551901239368,"click_time":1551901240238,"finger_time":1551901239937,"fix_duration":250,"trial":9,"RT":569,"MT":301,"sideResp":2,"stimulus":"img/750/equaldotanddens/R/4_Ratio_750_L_15_R_20.png","xmouse":[803,803,803,803,803,803,803,803,803,803,803,803,803,803,803,803,803,803,803,803,803,803,803,803,803,803,802,825,862,913,966,1011,1074,1092,1096,1097,1097,1097,1098,1098,1098,1099,1104,1110],"ymouse":[518,518,518,518,518,518,518,518,518,518,518,518,518,518,518,518,518,518,518,518,518,518,518,518,518,518,518,487,442,381,319,265,175,146,138,136,136,136,134,134,134,133,111,81],"timestamp_mouse":[10,29,54,70,90,108,129,149,170,188,210,229,250,270,290,310,329,349,368,388,410,429,450,469,488,508,529,549,569,589,609,629,649,668,688,709,730,749,770,788,808,830,849,869],"xSR":741.5,"ySR":469.95,"xT1":424.9,"yT1":0,"xT2":1058.1,"yT2":0,"toosoon":0,"cond_shown":"equaldotanddens","ratio_trial":750,"smaller_num":"15","larger_num":"20","correct_side":2,"subjID":"juanestebnparada-4","gender":"0","age":"13","school":"6"},{"start_time":1551901242097,"click_time":1551901242856,"finger_time":1551901242697,"fix_duration":1177.773504456533,"trial":10,"RT":600,"MT":159,"sideResp":2,"stimulus":"img/750/equaldotsize/R/3_Ratio_750_L_15_R_20.png","xmouse":[788,788,788,788,788,788,788,788,788,788,788,788,788,788,788,788,788,788,789,789,790,790,790,790,790,790,791,800,810,826,844,902,940,972,1004,1039,1108,1125,1136],"ymouse":[538,538,538,538,538,538,538,538,538,538,538,538,538,538,538,538,538,538,538,538,538,538,538,538,538,538,538,538,537,526,509,447,400,360,313,252,130,103,87],"timestamp_mouse":[10,30,40,60,80,100,120,140,161,179,201,221,241,260,281,300,320,341,361,381,400,421,440,461,479,501,519,541,560,580,600,619,639,660,680,701,721,740,759],"xSR":741.5,"ySR":469.95,"xT1":424.9,"yT1":0,"xT2":1058.1,"yT2":0,"toosoon":0,"cond_shown":"equaldotsize","ratio_trial":750,"smaller_num":"15","larger_num":"20","correct_side":2,"subjID":"juanestebnparada-4","gender":"0","age":"13","school":"6"},{"start_time":1551901243976,"click_time":1551901244778,"finger_time":1551901244517,"fix_duration":357.26343953728366,"trial":11,"RT":541,"MT":261,"sideResp":1,"stimulus":"img/250/randomdotsizeEA/L/3_Ratio_250_L_8_R_2.png","xmouse":[798,798,798,798,798,798,798,798,798,798,798,798,798,798,798,798,798,798,798,798,798,798,798,798,798,797,788,729,690,653,621,602,584,576,573,573,572,558,546,530,514],"ymouse":[494,494,494,494,494,494,494,494,494,494,494,494,494,494,494,494,494,494,494,494,494,494,494,494,494,495,487,432,397,351,302,254,190,162,149,142,136,103,82,60,40],"timestamp_mouse":[7,22,46,61,81,102,122,142,161,180,201,222,241,262,281,301,321,341,362,382,401,421,441,461,482,501,521,541,562,581,600,621,641,661,680,702,721,740,761,782,802],"xSR":741.5,"ySR":469.95,"xT1":424.9,"yT1":0,"xT2":1058.1,"yT2":0,"toosoon":0,"cond_shown":"randomdotsizeEA","ratio_trial":250,"smaller_num":"2","larger_num":"8","correct_side":1,"subjID":"juanestebnparada-4","gender":"0","age":"13","school":"6"},{"start_time":1551901246006,"click_time":1551901248018,"finger_time":1551901246617,"fix_duration":447.4467739798177,"trial":12,"RT":611,"MT":1401,"sideResp":2,"stimulus":"img/750/randomdotsizeEA/R/7_Ratio_750_L_3_R_4.png","xmouse":[818,818,818,818,818,818,818,818,818,818,818,818,818,818,818,818,818,818,818,818,818,818,818,817,814,811,808,802,797,789,762,734,718,696,674,644,643,643,643,643,643,643,643,643,643,643,643,643,643,643,643,643,643,643,643,643,643,643,643,643,643,643,643,643,643,643,643,643,643,643,643,643,643,643,643,643,643,643,643,643,643,643,643,643,643,643,643,643,643,643,643,643,643,643,643,643,650,701,774,872,1090],"ymouse":[516,516,516,516,516,516,516,516,516,516,516,516,516,516,516,516,516,516,516,516,516,516,516,516,514,511,508,502,498,490,456,421,397,364,327,278,276,276,276,276,276,276,276,276,276,276,276,276,276,276,276,276,276,276,276,276,276,276,276,276,276,276,276,276,276,276,276,276,276,276,276,276,276,276,276,276,276,276,276,276,276,276,276,276,276,276,276,276,276,276,276,276,276,276,276,276,275,262,231,178,61],"timestamp_mouse":[11,31,51,72,92,111,132,150,172,192,211,231,250,272,290,311,331,352,372,392,411,431,452,472,491,511,531,551,571,590,611,631,651,671,690,711,730,751,771,792,810,832,852,871,892,910,932,951,971,992,1010,1031,1050,1071,1092,1111,1131,1151,1171,1192,1212,1232,1251,1271,1291,1312,1331,1350,1370,1391,1411,1432,1452,1472,1492,1511,1532,1551,1571,1591,1611,1632,1651,1673,1692,1712,1732,1752,1772,1792,1811,1832,1851,1872,1891,1912,1932,1951,1971,1993,2012],"xSR":741.5,"ySR":469.95,"xT1":424.9,"yT1":0,"xT2":1058.1,"yT2":0,"toosoon":0,"cond_shown":"randomdotsizeEA","ratio_trial":750,"smaller_num":"3","larger_num":"4","correct_side":2,"subjID":"juanestebnparada-4","gender":"0","age":"13","school":"6"},{"start_time":1551901249978,"click_time":1551901250957,"finger_time":1551901250738,"fix_duration":1058.4457693625707,"trial":13,"RT":760,"MT":219,"sideResp":1,"stimulus":"img/900/equaldotsize/L/2_Ratio_900_L_20_R_18.png","xmouse":[805,805,805,805,805,805,805,805,805,805,805,805,805,805,805,805,805,805,805,805,805,805,805,805,805,805,805,805,805,805,805,805,805,805,805,805,805,794,773,748,727,708,667,636,620,603,593,564,544,521],"ymouse":[510,510,510,510,510,510,510,510,510,510,510,510,510,510,510,510,510,510,510,510,510,510,510,510,510,510,510,510,510,510,510,510,510,510,510,510,509,474,443,416,399,383,327,258,218,178,154,96,64,33],"timestamp_mouse":[1,19,40,60,81,100,121,141,159,180,200,220,241,260,281,300,320,340,360,381,400,419,440,461,480,500,519,540,561,581,601,621,640,659,681,700,720,740,760,780,799,819,840,861,879,901,920,939,959,979],"xSR":741.5,"ySR":469.95,"xT1":424.9,"yT1":0,"xT2":1058.1,"yT2":0,"toosoon":0,"cond_shown":"equaldotsize","ratio_trial":900,"smaller_num":"18","larger_num":"20","correct_side":1,"subjID":"juanestebnparada-4","gender":"0","age":"13","school":"6"},{"start_time":1551901252251,"click_time":1551901253478,"finger_time":1551901252978,"fix_duration":752.971971736745,"trial":14,"RT":727,"MT":500,"sideResp":2,"stimulus":"img/900/equaldotanddens/R/13_Ratio_900_L_18_R_20.png","xmouse":[798,798,798,798,798,798,798,798,798,798,798,798,798,798,798,798,798,798,798,798,798,798,798,798,798,798,798,798,798,798,798,798,798,810,819,830,839,847,854,857,857,857,857,857,857,857,859,862,874,890,902,913,922,947,961,977,996,1021,1073,1113,1130,1143],"ymouse":[524,524,524,524,524,524,524,524,524,524,524,524,524,524,524,524,524,524,524,524,524,524,524,524,524,524,524,524,524,524,524,524,518,502,489,474,463,454,443,440,440,440,440,440,440,439,438,434,423,405,390,374,360,316,296,274,251,222,164,134,115,98],"timestamp_mouse":[14,28,46,68,86,107,128,146,166,186,208,228,247,267,287,308,327,346,367,387,407,427,448,467,488,507,527,548,567,588,607,627,646,666,687,707,727,747,767,788,807,827,847,867,887,906,926,946,966,988,1008,1027,1048,1067,1088,1108,1128,1147,1167,1188,1206,1227],"xSR":741.5,"ySR":469.95,"xT1":424.9,"yT1":0,"xT2":1058.1,"yT2":0,"toosoon":0,"cond_shown":"equaldotanddens","ratio_trial":900,"smaller_num":"18","larger_num":"20","correct_side":2,"subjID":"juanestebnparada-4","gender":"0","age":"13","school":"6"},{"start_time":1551901255419,"click_time":1551901256217,"finger_time":1551901255938,"fix_duration":1299.6332491097312,"trial":15,"RT":519,"MT":279,"sideResp":1,"stimulus":"img/250/equaldotsize/L/15_Ratio_250_L_12_R_3.png","xmouse":[784,784,784,784,784,784,784,784,784,784,784,784,784,784,784,784,784,784,784,784,784,784,784,784,770,751,688,642,605,584,541,511,491,467,446,416,412,411,411,415,440],"ymouse":[527,527,527,527,527,527,527,527,527,527,527,527,527,527,527,527,527,527,527,527,527,527,527,527,504,477,402,359,331,315,268,228,201,172,145,107,102,98,93,84,55],"timestamp_mouse":[1,18,38,58,79,99,118,138,160,178,199,220,239,259,279,300,319,338,359,378,398,419,440,458,478,498,519,539,559,578,598,619,638,658,680,699,719,739,759,780,798],"xSR":741.5,"ySR":469.95,"xT1":424.9,"yT1":0,"xT2":1058.1,"yT2":0,"toosoon":0,"cond_shown":"equaldotsize","ratio_trial":250,"smaller_num":"3","larger_num":"12","correct_side":1,"subjID":"juanestebnparada-4","gender":"0","age":"13","school":"6"},{"start_time":1551901257943,"click_time":1551901258818,"finger_time":1551901258558,"fix_duration":1224.231103648016,"trial":16,"RT":615,"MT":260,"sideResp":2,"stimulus":"img/250/randomdotsizeEA/R/12_Ratio_250_L_5_R_20.png","xmouse":[795,795,795,795,795,795,795,795,795,795,795,795,795,795,794,794,792,792,792,792,792,792,792,792,792,792,792,794,809,826,843,856,865,890,928,960,988,1003,1024,1034,1043,1055,1067,1093],"ymouse":[518,518,518,518,518,518,518,518,518,518,518,518,518,518,517,517,517,517,517,517,517,517,517,517,517,517,517,514,499,481,460,440,423,382,328,281,240,210,173,160,147,131,113,72],"timestamp_mouse":[15,35,55,76,94,114,136,155,174,194,215,236,255,274,294,315,336,355,375,394,416,435,455,475,496,515,535,555,574,595,615,634,654,674,694,714,735,754,774,795,816,835,856,875],"xSR":741.5,"ySR":469.95,"xT1":424.9,"yT1":0,"xT2":1058.1,"yT2":0,"toosoon":0,"cond_shown":"randomdotsizeEA","ratio_trial":250,"smaller_num":"5","larger_num":"20","correct_side":2,"subjID":"juanestebnparada-4","gender":"0","age":"13","school":"6"},{"start_time":1551901262224,"click_time":1551901263197,"finger_time":1551901262918,"fix_duration":1423.6248465117674,"trial":17,"RT":694,"MT":279,"sideResp":1,"stimulus":"img/900/equaldotsize/L/10_Ratio_900_L_20_R_18.png","xmouse":[791,791,791,791,791,791,791,791,791,791,791,791,791,791,791,791,791,791,791,791,791,791,791,791,791,791,791,791,791,791,791,791,791,773,716,694,670,647,630,605,588,574,556,543,528,517,494,467,445],"ymouse":[514,514,514,514,514,514,514,514,514,514,514,514,514,514,514,514,514,514,514,514,514,514,514,514,514,514,514,514,514,514,514,514,514,493,432,407,380,357,338,304,280,263,241,224,194,170,133,101,75],"timestamp_mouse":[13,37,53,73,94,114,133,154,175,194,214,235,254,273,294,313,335,353,374,394,413,435,455,474,494,514,533,553,575,594,613,634,653,674,694,715,733,753,774,794,814,833,853,873,894,914,934,954,973],"xSR":741.5,"ySR":469.95,"xT1":424.9,"yT1":0,"xT2":1058.1,"yT2":0,"toosoon":0,"cond_shown":"equaldotsize","ratio_trial":900,"smaller_num":"18","larger_num":"20","correct_side":1,"subjID":"juanestebnparada-4","gender":"0","age":"13","school":"6"},{"start_time":1551901264550,"click_time":1551901265279,"finger_time":1551901265079,"fix_duration":689.274884566571,"trial":18,"RT":529,"MT":200,"sideResp":1,"stimulus":"img/250/equaldotsize/L/2_Ratio_250_L_16_R_4.png","xmouse":[794,794,794,794,794,794,794,794,794,794,794,794,794,794,794,794,794,794,794,794,794,794,794,795,779,750,717,672,557,521,506,500,496,490,484,480,477],"ymouse":[540,540,540,540,540,540,540,540,540,540,540,540,540,540,540,540,540,540,540,540,540,540,540,540,519,485,447,396,286,243,216,197,181,148,124,107,94],"timestamp_mouse":[11,27,48,67,88,107,128,147,167,189,208,227,248,269,287,307,327,349,368,387,408,428,449,468,487,507,529,547,567,587,608,628,648,667,688,707,729],"xSR":741.5,"ySR":469.95,"xT1":424.9,"yT1":0,"xT2":1058.1,"yT2":0,"toosoon":0,"cond_shown":"equaldotsize","ratio_trial":250,"smaller_num":"4","larger_num":"16","correct_side":1,"subjID":"juanestebnparada-4","gender":"0","age":"13","school":"6"},{"start_time":1551901267295,"click_time":1551901270418,"finger_time":1551901269038,"fix_duration":1236.7135278911935,"trial":19,"RT":1743,"MT":1380,"sideResp":1,"stimulus":"img/900/equaldotsize/R/3_Ratio_900_L_9_R_10.png","xmouse":[794,794,794,794,794,794,794,794,794,794,794,794,794,794,794,794,794,794,794,794,794,794,794,794,794,794,794,794,794,794,794,794,794,794,794,794,794,794,794,794,794,794,794,794,794,794,794,794,794,794,794,794,794,794,794,794,794,794,794,794,794,794,794,794,794,794,794,794,794,794,794,794,794,794,794,794,794,794,794,794,794,794,794,794,794,786,747,713,694,682,675,666,662,654,645,639,624,615,606,601,599,597,597,606,617,622,624,625,625,625,619,577,568,567,566,566,567,571,573,575,576,578,580,585,589,594,617,639,650,655,659,661,662,662,662,662,662,662,662,662,662,662,662,658,634,603,548,544,543,543,540,519,500,481,469,466,460],"ymouse":[516,516,516,516,516,516,516,516,516,516,516,516,516,516,516,516,516,516,516,516,516,516,516,516,516,516,516,516,516,516,516,516,516,516,516,516,516,516,516,516,516,516,516,516,516,516,516,516,516,516,516,516,516,516,516,516,516,516,516,516,516,516,516,516,516,516,516,516,516,516,516,516,516,516,516,516,516,516,516,516,516,516,516,516,518,518,514,498,487,478,469,453,445,432,414,398,358,337,311,292,272,242,237,224,215,211,209,208,208,207,203,182,174,173,172,172,169,168,167,167,167,167,167,166,165,165,160,156,153,151,149,147,146,146,146,146,146,146,146,146,146,146,146,146,145,137,120,119,118,118,118,115,112,109,105,104,99],"timestamp_mouse":[9,32,43,64,82,102,122,143,163,184,203,224,243,262,282,303,322,343,364,383,403,424,443,463,482,504,523,543,563,584,603,622,642,663,684,703,723,743,763,783,802,823,844,864,883,903,923,942,963,982,1002,1022,1043,1064,1084,1103,1123,1143,1164,1184,1203,1223,1243,1264,1284,1303,1323,1344,1364,1384,1403,1422,1443,1463,1483,1503,1524,1544,1563,1583,1603,1623,1643,1662,1683,1703,1723,1743,1762,1782,1803,1822,1842,1863,1883,1903,1923,1943,1962,1983,2003,2022,2042,2062,2082,2103,2122,2142,2162,2182,2202,2223,2242,2262,2283,2303,2323,2343,2362,2383,2402,2422,2442,2464,2484,2504,2522,2544,2562,2584,2603,2622,2642,2663,2682,2703,2723,2743,2764,2783,2803,2823,2843,2863,2882,2902,2923,2942,2963,2984,3004,3023,3043,3063,3082,3104,3123],"xSR":741.5,"ySR":469.95,"xT1":424.9,"yT1":0,"xT2":1058.1,"yT2":0,"toosoon":0,"cond_shown":"equaldotsize","ratio_trial":900,"smaller_num":"9","larger_num":"10","correct_side":2,"subjID":"juanestebnparada-4","gender":"0","age":"13","school":"6"},{"start_time":1551901272619,"click_time":1551901273597,"finger_time":1551901273437,"fix_duration":1418.5640807201714,"trial":20,"RT":818,"MT":160,"sideResp":1,"stimulus":"img/750/equaldotanddens/L/14_Ratio_750_L_8_R_6.png","xmouse":[802,802,802,802,802,802,802,802,802,802,802,802,802,802,802,802,802,802,802,802,802,801,801,801,801,801,801,801,801,801,801,801,801,801,801,801,801,801,801,801,776,746,713,670,621,563,531,500,476,461],"ymouse":[552,552,552,552,552,552,552,552,552,552,552,552,552,552,552,552,552,552,552,552,552,542,523,521,521,521,521,521,521,521,521,521,521,521,521,521,521,521,521,518,472,435,398,359,315,239,195,151,118,95],"timestamp_mouse":[1,19,38,58,79,99,118,138,160,180,198,220,238,260,280,298,318,339,360,378,399,419,438,459,479,500,519,540,560,578,598,618,639,660,679,699,719,740,759,779,798,818,838,858,878,898,920,940,958,978],"xSR":741.5,"ySR":469.95,"xT1":424.9,"yT1":0,"xT2":1058.1,"yT2":0,"toosoon":0,"cond_shown":"equaldotanddens","ratio_trial":750,"smaller_num":"6","larger_num":"8","correct_side":1,"subjID":"juanestebnparada-4","gender":"0","age":"13","school":"6"},{"start_time":1551901274961,"click_time":1551901275737,"finger_time":1551901275439,"fix_duration":682.4685838821292,"trial":21,"RT":478,"MT":298,"sideResp":2,"stimulus":"img/750/equaldotanddens/R/5_Ratio_750_L_15_R_20.png","xmouse":[782,782,782,782,782,782,782,782,782,782,782,782,782,782,782,782,782,782,782,782,782,782,809,858,891,919,947,1012,1048,1072,1081,1084,1085,1085,1085,1085,1085,1085,1087],"ymouse":[510,510,510,510,510,510,510,510,510,510,510,510,510,510,510,510,510,510,510,510,510,511,485,432,398,366,334,245,195,155,132,123,120,120,120,120,116,104,91],"timestamp_mouse":[17,38,57,76,98,117,137,157,177,197,217,237,256,277,298,317,337,357,377,396,418,436,456,478,497,517,538,556,576,597,618,636,658,677,698,716,736,757,776],"xSR":741.5,"ySR":469.95,"xT1":424.9,"yT1":0,"xT2":1058.1,"yT2":0,"toosoon":0,"cond_shown":"equaldotanddens","ratio_trial":750,"smaller_num":"15","larger_num":"20","correct_side":2,"subjID":"juanestebnparada-4","gender":"0","age":"13","school":"6"},{"start_time":1551901276489,"click_time":1551901277177,"finger_time":1551901276958,"fix_duration":250,"trial":22,"RT":469,"MT":219,"sideResp":1,"stimulus":"img/250/equaldotanddens/L/14_Ratio_250_L_12_R_3.png","xmouse":[805,803,802,802,802,802,802,802,802,802,802,802,802,802,802,802,802,802,802,802,798,781,761,724,677,645,612,589,569,543,520,499,497,495,493],"ymouse":[541,532,526,526,526,526,526,526,526,526,526,526,526,526,526,526,526,526,526,526,525,520,506,476,442,414,379,352,324,272,201,127,118,106,99],"timestamp_mouse":[9,28,50,68,89,108,129,149,169,188,208,229,250,269,288,309,329,350,369,390,409,428,449,469,488,509,529,550,568,590,608,629,648,670,688],"xSR":741.5,"ySR":469.95,"xT1":424.9,"yT1":0,"xT2":1058.1,"yT2":0,"toosoon":0,"cond_shown":"equaldotanddens","ratio_trial":250,"smaller_num":"3","larger_num":"12","correct_side":1,"subjID":"juanestebnparada-4","gender":"0","age":"13","school":"6"},{"start_time":1551901278810,"click_time":1551901279437,"finger_time":1551901279258,"fix_duration":971.8440403099887,"trial":23,"RT":448,"MT":179,"sideResp":1,"stimulus":"img/250/equaldotanddens/L/3_Ratio_250_L_8_R_2.png","xmouse":[767,767,767,767,767,767,767,767,767,767,767,767,767,767,767,767,767,767,767,767,767,755,738,723,708,632,574,529,517,511,499,481],"ymouse":[507,507,507,507,507,507,507,507,507,507,507,507,507,507,507,507,507,507,507,507,507,488,464,444,422,305,226,161,142,128,101,70],"timestamp_mouse":[16,37,48,68,88,107,127,149,167,188,208,229,249,267,287,307,327,348,368,387,408,428,448,468,487,508,529,548,567,589,608,627],"xSR":741.5,"ySR":469.95,"xT1":424.9,"yT1":0,"xT2":1058.1,"yT2":0,"toosoon":0,"cond_shown":"equaldotanddens","ratio_trial":250,"smaller_num":"2","larger_num":"8","correct_side":1,"subjID":"juanestebnparada-4","gender":"0","age":"13","school":"6"},{"start_time":1551901281214,"click_time":1551901282818,"finger_time":1551901281518,"fix_duration":973.8911565707598,"trial":24,"RT":304,"MT":1300,"sideResp":1,"stimulus":"img/900/randomdotsizeEA/R/15_Ratio_900_L_9_R_10.png","xmouse":[813,813,813,813,813,813,813,813,813,813,800,793,770,755,742,720,710,700,691,687,685,685,687,688,688,693,694,694,694,694,694,694,694,694,694,694,694,694,696,696,704,716,726,736,745,759,767,777,788,799,820,831,835,841,847,862,869,874,877,878,878,842,813,777,748,711,695,677,659,637,601,582,561,526,474,415,416,425,432,433,434],"ymouse":[529,529,529,529,529,529,529,529,529,529,529,529,523,515,508,493,480,469,458,452,443,438,436,435,435,434,434,434,434,434,434,434,434,434,434,434,434,434,434,434,443,456,463,469,472,475,475,473,467,460,445,438,434,428,420,395,379,362,350,337,324,272,248,230,219,208,202,194,186,180,171,168,163,152,136,116,114,107,102,100,99],"timestamp_mouse":[9,23,47,64,85,104,123,145,165,185,204,224,243,263,283,304,323,344,363,384,404,423,444,465,484,503,523,544,564,583,604,625,645,664,683,703,725,745,763,783,804,824,843,865,884,903,923,943,964,984,1003,1025,1044,1065,1084,1103,1124,1144,1164,1183,1203,1224,1243,1264,1285,1303,1323,1344,1364,1384,1403,1423,1443,1464,1484,1503,1525,1545,1564,1584,1604],"xSR":741.5,"ySR":469.95,"xT1":424.9,"yT1":0,"xT2":1058.1,"yT2":0,"toosoon":0,"cond_shown":"randomdotsizeEA","ratio_trial":900,"smaller_num":"9","larger_num":"10","correct_side":2,"subjID":"juanestebnparada-4","gender":"0","age":"13","school":"6"},{"start_time":1551901288309,"click_time":1551901289158,"finger_time":1551901288917,"fix_duration":608.4228362855634,"trial":25,"RT":608,"MT":241,"sideResp":1,"stimulus":"img/900/equaldotanddens/L/4_Ratio_900_L_20_R_18.png","xmouse":[792,792,792,792,792,792,792,792,792,792,792,792,792,792,792,792,792,792,792,792,792,792,792,792,792,792,792,792,790,775,701,667,630,604,590,569,561,548,542,537,532,527,520],"ymouse":[505,505,505,505,505,505,505,505,505,505,505,505,505,505,505,505,505,505,505,505,505,505,505,505,505,505,505,505,503,484,402,366,330,302,284,243,218,183,166,153,132,116,99],"timestamp_mouse":[12,34,50,70,90,108,128,149,170,188,208,229,249,268,289,309,329,350,369,389,409,430,449,468,488,508,530,549,568,588,608,630,648,669,690,709,729,748,768,789,809,830,849],"xSR":741.5,"ySR":469.95,"xT1":424.9,"yT1":0,"xT2":1058.1,"yT2":0,"toosoon":0,"cond_shown":"equaldotanddens","ratio_trial":900,"smaller_num":"18","larger_num":"20","correct_side":1,"subjID":"juanestebnparada-4","gender":"0","age":"13","school":"6"},{"start_time":1551901291014,"click_time":1551901292677,"finger_time":1551901291898,"fix_duration":1375.7041667073352,"trial":26,"RT":884,"MT":779,"sideResp":1,"stimulus":"img/900/equaldotsize/R/15_Ratio_900_L_9_R_10.png","xmouse":[816,816,815,815,815,814,812,811,811,811,811,811,811,811,811,811,811,811,811,811,811,811,811,811,811,811,811,811,811,811,811,803,792,789,789,788,788,788,788,787,782,769,755,744,736,733,733,733,733,733,733,738,739,739,739,742,744,746,748,752,758,761,763,765,769,774,774,766,745,714,641,600,586,572,564,546,537,533,533,533,531,523,514,504],"ymouse":[537,537,538,538,539,539,539,539,540,540,540,540,540,540,540,540,540,540,540,540,540,540,540,540,540,540,540,540,540,540,540,537,530,529,528,528,528,528,528,527,521,512,502,494,487,485,485,485,485,485,485,484,484,484,484,483,482,480,478,475,469,466,463,458,449,434,426,405,381,356,311,286,275,260,250,237,228,218,207,198,165,134,112,90],"timestamp_mouse":[12,31,45,63,84,104,125,143,165,184,204,224,245,264,283,303,324,345,365,384,404,423,445,465,484,503,524,545,564,584,604,625,645,664,683,703,725,743,763,784,803,824,843,864,884,904,923,944,963,985,1004,1024,1044,1064,1084,1104,1123,1144,1163,1185,1203,1224,1243,1265,1284,1304,1323,1344,1363,1384,1403,1424,1443,1464,1483,1503,1524,1544,1564,1585,1604,1624,1644,1663],"xSR":741.5,"ySR":469.95,"xT1":424.9,"yT1":0,"xT2":1058.1,"yT2":0,"toosoon":0,"cond_shown":"equaldotsize","ratio_trial":900,"smaller_num":"9","larger_num":"10","correct_side":2,"subjID":"juanestebnparada-4","gender":"0","age":"13","school":"6"},{"start_time":1551901294613,"click_time":1551901295599,"finger_time":1551901295318,"fix_duration":1194.9422258929512,"trial":27,"RT":705,"MT":281,"sideResp":1,"stimulus":"img/750/equaldotsize/L/13_Ratio_750_L_8_R_6.png","xmouse":[777,777,777,777,777,777,777,777,777,777,777,777,777,777,777,777,777,777,777,777,777,777,777,777,777,777,777,777,777,777,777,777,777,776,768,711,674,630,587,552,504,501,499,491,486,484,483,482,480,477],"ymouse":[513,513,513,513,513,513,513,513,513,513,513,513,513,513,513,513,513,513,513,513,513,513,513,513,513,513,513,513,513,513,513,513,513,511,497,419,374,325,278,243,184,172,160,146,136,129,122,113,102,92],"timestamp_mouse":[12,25,45,64,86,105,124,145,164,184,205,224,245,265,285,306,325,345,365,385,405,425,445,464,484,506,526,546,566,585,604,626,646,665,684,705,726,745,765,785,805,825,844,864,884,904,925,945,964,986],"xSR":741.5,"ySR":469.95,"xT1":424.9,"yT1":0,"xT2":1058.1,"yT2":0,"toosoon":0,"cond_shown":"equaldotsize","ratio_trial":750,"smaller_num":"6","larger_num":"8","correct_side":1,"subjID":"juanestebnparada-4","gender":"0","age":"13","school":"6"},{"start_time":1551901297393,"click_time":1551901298598,"finger_time":1551901297898,"fix_duration":1092.1088945588733,"trial":28,"RT":505,"MT":700,"sideResp":2,"stimulus":"img/500/randomdotsizeEA/R/12_Ratio_500_L_1_R_2.png","xmouse":[805,805,805,805,805,805,805,805,805,805,805,805,805,805,805,805,805,805,805,805,805,805,805,805,784,761,716,693,669,647,620,582,565,550,531,522,522,522,522,527,536,556,594,638,706,788,956,1024,1066,1092,1108,1134,1157,1171,1176,1177,1177,1177,1170,1159,1156],"ymouse":[518,518,518,518,518,518,518,518,518,518,518,518,518,518,518,518,518,518,518,518,518,518,518,513,485,462,404,373,340,311,277,231,210,192,173,163,163,163,162,162,161,161,164,170,178,181,181,174,160,148,138,120,102,89,82,81,80,77,70,61,58],"timestamp_mouse":[12,34,45,66,85,105,125,145,164,184,205,225,244,265,285,305,326,345,364,385,406,425,445,464,485,505,524,544,565,585,605,625,644,664,685,705,725,745,766,785,805,825,846,864,885,904,924,945,965,986,1006,1025,1045,1064,1085,1106,1126,1145,1164,1184,1205],"xSR":741.5,"ySR":469.95,"xT1":424.9,"yT1":0,"xT2":1058.1,"yT2":0,"toosoon":0,"cond_shown":"randomdotsizeEA","ratio_trial":500,"smaller_num":"1","larger_num":"2","correct_side":2,"subjID":"juanestebnparada-4","gender":"0","age":"13","school":"6"},{"start_time":1551901299726,"click_time":1551901300598,"finger_time":1551901300198,"fix_duration":427.11786465238566,"trial":29,"RT":472,"MT":400,"sideResp":1,"stimulus":"img/250/equaldotsize/L/3_Ratio_250_L_8_R_2.png","xmouse":[809,809,809,809,809,809,809,809,809,809,809,809,809,809,809,809,809,809,809,809,809,795,782,752,703,688,680,670,656,611,596,588,582,578,572,561,553,552,552,552,552,551,538,520],"ymouse":[527,527,527,527,527,527,527,527,527,527,527,527,527,527,527,527,527,527,527,527,527,507,490,451,389,367,351,330,296,168,130,113,97,83,63,40,29,28,28,28,27,27,33,41],"timestamp_mouse":[14,35,53,72,91,113,131,152,172,192,211,232,253,272,291,311,331,353,372,391,411,432,453,472,492,513,531,552,572,592,612,632,651,671,691,711,733,752,773,792,811,831,852,872],"xSR":741.5,"ySR":469.95,"xT1":424.9,"yT1":0,"xT2":1058.1,"yT2":0,"toosoon":0,"cond_shown":"equaldotsize","ratio_trial":250,"smaller_num":"2","larger_num":"8","correct_side":1,"subjID":"juanestebnparada-4","gender":"0","age":"13","school":"6"},{"start_time":1551901301569,"click_time":1551901302378,"finger_time":1551901302118,"fix_duration":250,"trial":30,"RT":549,"MT":260,"sideResp":1,"stimulus":"img/900/equaldotanddens/L/10_Ratio_900_L_20_R_18.png","xmouse":[831,831,831,831,831,831,831,831,831,831,831,831,831,831,831,831,829,823,821,820,819,819,819,825,830,835,839,845,846,846,846,846,846,827,776,733,689,591,549,521,514],"ymouse":[545,545,545,545,545,545,545,545,545,545,545,545,545,545,545,545,534,516,510,504,503,502,501,495,490,484,479,469,468,467,467,467,462,436,375,331,286,188,138,105,96],"timestamp_mouse":[9,29,49,68,90,108,128,149,170,189,208,230,249,268,290,310,329,348,368,388,408,429,448,470,488,509,529,549,569,590,610,629,648,669,689,709,728,749,768,789,809],"xSR":741.5,"ySR":469.95,"xT1":424.9,"yT1":0,"xT2":1058.1,"yT2":0,"toosoon":0,"cond_shown":"equaldotanddens","ratio_trial":900,"smaller_num":"18","larger_num":"20","correct_side":1,"subjID":"juanestebnparada-4","gender":"0","age":"13","school":"6"},{"start_time":1551901303757,"click_time":1551901304658,"finger_time":1551901304317,"fix_duration":736.2410193289237,"trial":31,"RT":560,"MT":341,"sideResp":2,"stimulus":"img/500/equaldotanddens/R/12_Ratio_500_L_1_R_2.png","xmouse":[813,813,813,813,813,813,813,813,813,813,813,813,813,813,813,813,813,813,813,813,813,813,813,813,813,813,816,822,873,905,935,960,984,1020,1034,1035,1037,1038,1042,1044,1045,1048,1054,1067,1077,1083],"ymouse":[516,516,516,516,516,516,516,516,516,516,516,516,516,516,516,516,516,516,516,516,516,516,516,516,516,516,511,505,462,436,410,386,353,299,270,264,253,245,227,216,208,195,171,133,105,89],"timestamp_mouse":[9,22,41,61,82,101,122,141,161,182,201,220,242,261,282,301,322,341,361,382,401,421,441,461,481,500,520,540,560,581,600,621,642,661,681,700,721,740,761,781,801,822,841,861,881,901],"xSR":741.5,"ySR":469.95,"xT1":424.9,"yT1":0,"xT2":1058.1,"yT2":0,"toosoon":0,"cond_shown":"equaldotanddens","ratio_trial":500,"smaller_num":"1","larger_num":"2","correct_side":2,"subjID":"juanestebnparada-4","gender":"0","age":"13","school":"6"},{"start_time":1551901306084,"click_time":1551901306718,"finger_time":1551901306539,"fix_duration":924.257022319116,"trial":32,"RT":455,"MT":179,"sideResp":1,"stimulus":"img/250/equaldotanddens/L/7_Ratio_250_L_8_R_2.png","xmouse":[787,787,787,787,787,787,787,787,787,787,787,787,787,787,787,787,787,787,787,787,787,778,743,711,668,616,551,528,507,496,481,460],"ymouse":[516,516,516,516,516,516,516,516,516,516,516,516,516,516,516,516,516,516,516,516,516,503,460,425,380,336,258,209,147,124,100,65],"timestamp_mouse":[19,44,55,74,94,114,134,155,175,194,213,234,255,275,294,314,334,355,374,394,414,434,455,473,493,514,534,553,573,593,613,634],"xSR":741.5,"ySR":469.95,"xT1":424.9,"yT1":0,"xT2":1058.1,"yT2":0,"toosoon":0,"cond_shown":"equaldotanddens","ratio_trial":250,"smaller_num":"2","larger_num":"8","correct_side":1,"subjID":"juanestebnparada-4","gender":"0","age":"13","school":"6"},{"start_time":1551901308729,"click_time":1551901311159,"finger_time":1551901309417,"fix_duration":1287.6815617866193,"trial":33,"RT":688,"MT":1742,"sideResp":2,"stimulus":"img/900/equaldotanddens/L/1_Ratio_900_L_10_R_9.png","xmouse":[793,793,793,793,793,793,793,793,793,793,793,793,793,793,793,793,793,793,793,793,793,793,793,793,793,793,793,793,793,793,793,793,795,805,845,922,974,1012,1038,1061,1072,1081,1090,1099,1109,1111,1112,1112,1112,1114,1114,1114,1114,1114,1114,1114,1114,1114,1114,1114,1114,1114,1114,1114,1114,1114,1114,1114,1114,1114,1114,1114,1114,1114,1114,1114,1114,1114,1114,1114,1114,1114,1114,1114,1114,1114,1114,1114,1114,1114,1114,1114,1114,1114,1114,1114,1114,1114,1114,1114,1114,1114,1114,1114,1114,1114,1114,1114,1114,1114,1114,1114,1114,1114,1114,1114,1114,1114,1114,1114,1114,1114],"ymouse":[515,515,515,515,515,515,515,515,515,515,515,515,515,515,515,515,515,515,515,515,515,515,515,515,515,515,515,515,515,515,515,515,513,499,447,380,344,312,286,246,225,208,193,178,152,129,121,115,111,107,105,104,104,104,104,104,104,104,104,104,104,104,104,104,104,104,104,104,104,104,104,104,104,104,104,104,104,104,104,104,104,104,104,104,104,104,104,104,104,104,104,104,104,104,104,104,104,104,104,104,104,104,104,104,104,104,104,104,104,104,104,104,104,104,104,104,104,104,104,104,104,96],"timestamp_mouse":[12,31,49,68,88,108,130,148,169,188,209,228,249,269,288,309,329,348,368,388,410,428,448,468,489,508,529,548,570,589,609,628,648,669,688,708,728,748,769,788,810,828,848,870,889,909,928,948,968,989,1009,1028,1048,1069,1089,1110,1130,1149,1168,1189,1208,1229,1248,1269,1289,1309,1328,1349,1370,1389,1409,1428,1448,1469,1488,1509,1529,1550,1569,1589,1608,1629,1648,1670,1689,1709,1729,1748,1769,1788,1808,1829,1849,1870,1888,1910,1929,1949,1968,1989,2008,2030,2048,2069,2088,2108,2128,2150,2170,2189,2209,2229,2249,2269,2289,2310,2329,2348,2369,2388,2408,2429],"xSR":741.5,"ySR":469.95,"xT1":424.9,"yT1":0,"xT2":1058.1,"yT2":0,"toosoon":0,"cond_shown":"equaldotanddens","ratio_trial":900,"smaller_num":"9","larger_num":"10","correct_side":1,"subjID":"juanestebnparada-4","gender":"0","age":"13","school":"6"},{"start_time":1551901313208,"click_time":1551901313917,"finger_time":1551901313717,"fix_duration":1149.0897254913828,"trial":34,"RT":509,"MT":200,"sideResp":1,"stimulus":"img/750/randomdotsizeEA/L/14_Ratio_750_L_8_R_6.png","xmouse":[799,799,799,799,799,799,799,799,799,799,799,799,799,799,799,799,799,799,799,799,799,799,796,786,769,751,747,743,737,729,698,659,630,593,558,505],"ymouse":[526,526,526,526,526,526,526,526,526,526,526,526,526,526,526,526,526,526,526,526,526,526,523,500,471,431,417,401,383,365,306,244,203,160,121,79],"timestamp_mouse":[12,35,49,70,90,109,130,149,169,190,210,231,250,270,290,309,331,351,370,390,409,431,450,469,490,509,529,549,569,590,609,630,650,671,691,709],"xSR":741.5,"ySR":469.95,"xT1":424.9,"yT1":0,"xT2":1058.1,"yT2":0,"toosoon":0,"cond_shown":"randomdotsizeEA","ratio_trial":750,"smaller_num":"6","larger_num":"8","correct_side":1,"subjID":"juanestebnparada-4","gender":"0","age":"13","school":"6"},{"start_time":1551901314729,"click_time":1551901315439,"finger_time":1551901315237,"fix_duration":250.1691356969724,"trial":35,"RT":508,"MT":202,"sideResp":2,"stimulus":"img/750/equaldotanddens/R/12_Ratio_750_L_3_R_4.png","xmouse":[790,790,790,790,790,790,790,790,790,790,790,790,790,790,790,790,790,790,790,790,790,790,790,790,838,870,904,926,947,999,1026,1045,1066,1097,1143,1150],"ymouse":[557,557,557,557,557,557,557,557,557,557,557,557,557,557,557,557,557,557,557,557,557,557,557,558,497,462,430,405,379,306,268,240,212,174,122,99],"timestamp_mouse":[8,32,48,69,89,110,129,150,170,189,209,228,249,268,288,309,328,349,368,389,409,429,450,468,488,508,529,549,569,589,609,628,648,668,689,709],"xSR":741.5,"ySR":469.95,"xT1":424.9,"yT1":0,"xT2":1058.1,"yT2":0,"toosoon":0,"cond_shown":"equaldotanddens","ratio_trial":750,"smaller_num":"3","larger_num":"4","correct_side":2,"subjID":"juanestebnparada-4","gender":"0","age":"13","school":"6"},{"start_time":1551901317429,"click_time":1551901318118,"finger_time":1551901317999,"fix_duration":1309.6860394590271,"trial":36,"RT":570,"MT":119,"sideResp":1,"stimulus":"img/250/randomdotsizeEA/L/7_Ratio_250_L_8_R_2.png","xmouse":[808,808,808,808,808,808,808,808,808,808,808,808,808,808,808,808,808,808,808,808,808,785,768,763,759,757,752,746,736,703,651,613,576,549,522],"ymouse":[552,552,552,552,552,552,552,552,552,552,552,552,552,552,552,552,552,552,552,552,552,532,517,512,504,500,492,481,464,405,320,251,189,139,77],"timestamp_mouse":[13,31,49,69,89,108,130,148,169,189,210,229,249,269,288,308,330,350,369,389,408,429,449,468,488,508,529,548,570,589,609,628,649,668,689],"xSR":741.5,"ySR":469.95,"xT1":424.9,"yT1":0,"xT2":1058.1,"yT2":0,"toosoon":0,"cond_shown":"randomdotsizeEA","ratio_trial":250,"smaller_num":"2","larger_num":"8","correct_side":1,"subjID":"juanestebnparada-4","gender":"0","age":"13","school":"6"},{"start_time":1551901319502,"click_time":1551901320097,"finger_time":1551901320018,"fix_duration":844.4465509339708,"trial":37,"RT":516,"MT":79,"sideResp":1,"stimulus":"img/500/equaldotanddens/L/4_Ratio_500_L_18_R_9.png","xmouse":[768,768,768,768,768,768,768,768,768,768,768,768,768,768,768,768,768,768,768,768,768,768,768,768,755,683,617,534,462,429],"ymouse":[504,504,504,504,504,504,504,504,504,504,504,504,504,504,504,504,504,504,504,504,504,504,504,504,490,414,339,240,134,61],"timestamp_mouse":[20,40,56,75,95,116,137,155,176,197,215,235,255,276,297,316,337,356,376,395,416,435,456,477,496,516,536,555,575,595],"xSR":741.5,"ySR":469.95,"xT1":424.9,"yT1":0,"xT2":1058.1,"yT2":0,"toosoon":0,"cond_shown":"equaldotanddens","ratio_trial":500,"smaller_num":"9","larger_num":"18","correct_side":1,"subjID":"juanestebnparada-4","gender":"0","age":"13","school":"6"},{"start_time":1551901320929,"click_time":1551901321497,"finger_time":1551901321359,"fix_duration":250,"trial":38,"RT":430,"MT":138,"sideResp":1,"stimulus":"img/500/equaldotsize/L/4_Ratio_500_L_18_R_9.png","xmouse":[776,776,776,776,776,776,776,776,776,776,776,776,776,776,776,776,776,776,776,776,767,763,744,702,627,583,553,533,521],"ymouse":[488,488,488,488,488,488,488,488,488,488,488,488,488,488,488,488,488,488,488,488,470,462,433,376,264,180,125,90,69],"timestamp_mouse":[9,32,49,69,88,109,128,150,169,189,209,230,249,269,289,308,329,348,368,389,408,430,449,468,489,509,528,549,568],"xSR":741.5,"ySR":469.95,"xT1":424.9,"yT1":0,"xT2":1058.1,"yT2":0,"toosoon":0,"cond_shown":"equaldotsize","ratio_trial":500,"smaller_num":"9","larger_num":"18","correct_side":1,"subjID":"juanestebnparada-4","gender":"0","age":"13","school":"6"},{"start_time":1551901323632,"click_time":1551901324398,"finger_time":1551901324238,"fix_duration":1392.7319054139514,"trial":39,"RT":606,"MT":160,"sideResp":2,"stimulus":"img/250/randomdotsizeEA/R/10_Ratio_250_L_4_R_16.png","xmouse":[793,793,793,793,793,793,793,793,793,793,793,793,793,793,793,793,793,793,793,793,793,793,793,793,793,793,793,793,793,793,836,872,915,973,1052,1066,1088,1106,1115],"ymouse":[512,512,512,512,512,512,512,512,512,512,512,512,512,512,512,512,512,512,512,512,512,512,512,512,512,512,512,512,512,512,464,429,376,309,209,183,141,109,92],"timestamp_mouse":[12,30,46,65,87,106,126,146,165,186,207,227,246,265,285,306,327,347,366,386,407,425,445,465,486,507,526,545,566,585,606,626,647,665,685,705,727,745,766],"xSR":741.5,"ySR":469.95,"xT1":424.9,"yT1":0,"xT2":1058.1,"yT2":0,"toosoon":0,"cond_shown":"randomdotsizeEA","ratio_trial":250,"smaller_num":"4","larger_num":"16","correct_side":2,"subjID":"juanestebnparada-4","gender":"0","age":"13","school":"6"},{"start_time":1551901325489,"click_time":1551901326818,"finger_time":1551901325998,"fix_duration":250,"trial":40,"RT":509,"MT":820,"sideResp":2,"stimulus":"img/250/equaldotsize/R/4_Ratio_250_L_3_R_12.png","xmouse":[792,792,792,792,792,792,792,792,792,792,792,792,792,792,792,792,792,792,792,792,792,792,792,800,813,852,996,1119,1176,1195,1199,1193,1191,1188,1177,1166,1103,1000,935,910,903,903,904,910,925,950,1003,1025,1030,1032,1034,1035,1035,1033,1010,974,940,945,979,1063,1134,1208,1220,1220,1218,1213,1139],"ymouse":[513,513,513,513,513,513,513,513,513,513,513,513,513,513,513,513,513,513,513,513,513,513,513,494,475,423,277,170,116,85,67,50,49,49,57,68,125,179,198,205,206,206,202,192,164,120,40,27,27,27,27,27,30,57,118,201,340,351,349,323,277,137,68,37,26,23,19],"timestamp_mouse":[10,28,49,69,88,108,128,150,169,189,209,229,250,270,289,309,328,349,370,390,408,429,448,468,489,509,528,548,568,589,608,628,648,668,688,709,729,750,769,789,809,828,848,868,888,909,928,949,968,989,1008,1028,1048,1069,1089,1109,1129,1149,1168,1189,1208,1228,1249,1268,1289,1309,1329],"xSR":741.5,"ySR":469.95,"xT1":424.9,"yT1":0,"xT2":1058.1,"yT2":0,"toosoon":0,"cond_shown":"equaldotsize","ratio_trial":250,"smaller_num":"3","larger_num":"12","correct_side":2,"subjID":"juanestebnparada-4","gender":"0","age":"13","school":"6"},{"start_time":1551901328299,"click_time":1551901329118,"finger_time":1551901328897,"fix_duration":680.5156903067095,"trial":41,"RT":598,"MT":221,"sideResp":2,"stimulus":"img/500/equaldotsize/R/2_Ratio_500_L_3_R_6.png","xmouse":[770,770,770,770,770,770,770,770,770,770,770,770,770,770,770,770,770,770,770,770,770,770,770,770,770,770,770,776,791,822,909,947,967,982,999,1020,1026,1030,1036,1046,1060],"ymouse":[511,511,511,511,511,511,511,511,511,511,511,511,511,511,511,511,511,511,511,511,511,511,511,511,511,511,511,504,490,465,397,352,313,273,235,183,165,152,139,119,87],"timestamp_mouse":[19,42,59,78,98,118,139,159,180,198,220,238,258,279,300,318,338,359,378,399,418,439,459,479,499,518,539,558,579,598,618,638,658,678,699,718,738,758,779,798,819],"xSR":741.5,"ySR":469.95,"xT1":424.9,"yT1":0,"xT2":1058.1,"yT2":0,"toosoon":0,"cond_shown":"equaldotsize","ratio_trial":500,"smaller_num":"3","larger_num":"6","correct_side":2,"subjID":"juanestebnparada-4","gender":"0","age":"13","school":"6"},{"start_time":1551901330388,"click_time":1551901331218,"finger_time":1551901331018,"fix_duration":488.44030697380947,"trial":42,"RT":630,"MT":200,"sideResp":2,"stimulus":"img/500/equaldotanddens/R/6_Ratio_500_L_9_R_18.png","xmouse":[816,816,816,816,816,816,816,816,816,816,816,816,816,816,816,816,816,816,816,816,816,816,816,816,816,816,816,816,816,816,830,910,988,1028,1061,1089,1120,1124,1124,1124,1124,1124],"ymouse":[514,514,514,514,514,514,514,514,514,514,514,514,514,514,514,514,514,514,514,514,514,514,514,514,514,514,514,514,514,514,505,458,385,334,283,240,161,139,123,115,109,95],"timestamp_mouse":[14,29,49,71,90,109,131,149,169,190,210,230,251,271,290,309,330,350,370,389,411,429,449,470,490,509,530,550,571,590,609,630,650,670,689,709,730,749,770,790,810,830],"xSR":741.5,"ySR":469.95,"xT1":424.9,"yT1":0,"xT2":1058.1,"yT2":0,"toosoon":0,"cond_shown":"equaldotanddens","ratio_trial":500,"smaller_num":"9","larger_num":"18","correct_side":2,"subjID":"juanestebnparada-4","gender":"0","age":"13","school":"6"},{"start_time":1551901332809,"click_time":1551901334057,"finger_time":1551901333977,"fix_duration":728.3462327039243,"trial":43,"RT":1168,"MT":80,"sideResp":1,"stimulus":"img/900/equaldotanddens/R/6_Ratio_900_L_9_R_10.png","xmouse":[765,765,765,765,765,765,765,765,765,765,765,765,765,765,765,765,765,765,765,765,765,765,765,765,765,765,766,771,778,781,781,781,781,781,781,781,781,781,781,781,781,781,782,774,765,764,764,764,764,764,764,764,764,764,764,764,760,746,681,493,447,429],"ymouse":[519,519,519,519,519,519,519,519,519,519,519,519,519,519,519,519,519,519,520,520,520,520,520,520,520,520,520,520,520,520,520,520,520,520,520,520,520,520,520,520,520,520,518,508,492,490,489,489,489,489,489,489,489,489,489,489,481,460,394,206,133,88],"timestamp_mouse":[28,48,68,90,108,128,149,169,188,209,228,249,269,288,308,328,350,370,388,410,428,450,468,489,508,529,549,570,589,608,630,650,669,690,710,729,749,770,788,809,830,848,869,888,908,928,949,969,989,1009,1030,1049,1068,1088,1109,1129,1149,1168,1188,1208,1228,1248],"xSR":741.5,"ySR":469.95,"xT1":424.9,"yT1":0,"xT2":1058.1,"yT2":0,"toosoon":0,"cond_shown":"equaldotanddens","ratio_trial":900,"smaller_num":"9","larger_num":"10","correct_side":2,"subjID":"juanestebnparada-4","gender":"0","age":"13","school":"6"},{"start_time":1551901339267,"click_time":1551901340398,"finger_time":1551901339777,"fix_duration":1247.8988142035078,"trial":44,"RT":510,"MT":621,"sideResp":1,"stimulus":"img/900/equaldotsize/L/1_Ratio_900_L_10_R_9.png","xmouse":[790,790,790,790,790,790,790,790,790,790,790,790,790,790,790,790,790,790,790,790,790,790,790,786,772,735,683,573,549,542,539,536,533,528,525,525,525,525,525,525,525,525,525,525,525,525,525,555,579,580,580,580,579,568,541,498,467],"ymouse":[518,518,518,518,518,518,518,518,518,518,518,518,518,518,518,518,518,518,518,518,518,518,518,512,496,458,413,307,265,243,223,202,155,128,112,108,108,108,108,108,108,108,108,108,108,109,135,246,288,289,290,290,283,252,192,120,76],"timestamp_mouse":[10,32,51,71,91,111,131,152,170,191,212,231,251,271,290,310,330,350,372,391,411,430,451,470,492,510,531,551,571,590,611,630,650,670,690,710,730,750,770,791,812,831,851,871,891,910,930,950,970,990,1011,1030,1050,1071,1091,1110,1131],"xSR":741.5,"ySR":469.95,"xT1":424.9,"yT1":0,"xT2":1058.1,"yT2":0,"toosoon":0,"cond_shown":"equaldotsize","ratio_trial":900,"smaller_num":"9","larger_num":"10","correct_side":1,"subjID":"juanestebnparada-4","gender":"0","age":"13","school":"6"},{"start_time":1551901343228,"click_time":1551901343958,"finger_time":1551901343878,"fix_duration":809.2438685784716,"trial":45,"RT":650,"MT":80,"sideResp":2,"stimulus":"img/750/equaldotanddens/R/4_Ratio_750_L_15_R_20.png","xmouse":[774,774,774,774,774,774,774,774,774,774,774,774,774,774,774,774,774,774,774,774,774,774,774,774,774,774,774,774,774,774,774,774,820,876,987,1034,1065],"ymouse":[520,520,520,520,520,520,520,520,520,520,520,520,520,520,520,520,520,520,520,520,520,520,520,520,520,520,520,520,520,520,520,490,390,311,177,125,88],"timestamp_mouse":[12,33,50,70,89,111,131,151,170,190,210,230,250,269,290,310,331,350,371,391,411,431,451,470,490,509,530,549,571,589,609,629,650,669,690,709,730],"xSR":741.5,"ySR":469.95,"xT1":424.9,"yT1":0,"xT2":1058.1,"yT2":0,"toosoon":0,"cond_shown":"equaldotanddens","ratio_trial":750,"smaller_num":"15","larger_num":"20","correct_side":2,"subjID":"juanestebnparada-4","gender":"0","age":"13","school":"6"},{"start_time":1551901346152,"click_time":1551901346878,"finger_time":1551901346678,"fix_duration":1493.2278805446824,"trial":46,"RT":526,"MT":200,"sideResp":1,"stimulus":"img/500/equaldotanddens/L/4_Ratio_500_L_18_R_9.png","xmouse":[796,796,796,796,796,796,796,796,796,796,796,796,796,796,796,796,796,796,796,796,796,796,796,783,769,759,738,697,612,601,595,592,583,542,536,530,524],"ymouse":[535,535,535,535,535,535,535,535,535,535,535,535,535,535,535,535,535,535,535,535,535,535,535,524,513,491,437,363,226,195,169,142,116,41,30,21,14],"timestamp_mouse":[12,32,46,67,87,106,127,146,166,186,207,227,245,266,287,305,326,347,365,386,406,425,446,465,485,505,526,545,565,586,605,626,647,666,686,706,726],"xSR":741.5,"ySR":469.95,"xT1":424.9,"yT1":0,"xT2":1058.1,"yT2":0,"toosoon":0,"cond_shown":"equaldotanddens","ratio_trial":500,"smaller_num":"9","larger_num":"18","correct_side":1,"subjID":"juanestebnparada-4","gender":"0","age":"13","school":"6"},{"start_time":1551901348247,"click_time":1551901349118,"finger_time":1551901348857,"fix_duration":607.9205407410287,"trial":47,"RT":610,"MT":261,"sideResp":2,"stimulus":"img/750/equaldotanddens/R/11_Ratio_750_L_12_R_16.png","xmouse":[795,795,795,795,795,795,795,795,795,795,795,795,795,791,790,789,789,789,789,789,789,789,789,789,789,789,789,789,789,789,835,888,936,1017,1039,1055,1065,1066,1066,1068,1074,1084,1093,1106],"ymouse":[504,504,504,504,504,504,504,504,504,504,504,504,504,504,504,504,504,504,504,504,504,504,504,504,504,504,504,504,504,499,436,362,297,186,158,143,132,131,131,130,125,115,107,86],"timestamp_mouse":[13,31,51,71,92,110,130,151,170,191,212,232,250,270,291,312,331,352,372,392,410,430,451,471,490,512,531,551,571,590,610,630,650,670,691,710,731,752,770,791,811,831,852,871],"xSR":741.5,"ySR":469.95,"xT1":424.9,"yT1":0,"xT2":1058.1,"yT2":0,"toosoon":0,"cond_shown":"equaldotanddens","ratio_trial":750,"smaller_num":"12","larger_num":"16","correct_side":2,"subjID":"juanestebnparada-4","gender":"0","age":"13","school":"6"},{"start_time":1551901350903,"click_time":1551901351397,"finger_time":1551901351278,"fix_duration":1084.0271339529204,"trial":48,"RT":375,"MT":119,"sideResp":1,"stimulus":"img/500/equaldotsize/L/13_Ratio_500_L_12_R_6.png","xmouse":[776,776,776,776,776,776,776,776,776,776,776,776,776,776,776,776,776,767,735,696,568,519,486,472,456],"ymouse":[563,563,563,563,563,563,563,563,563,563,563,563,563,563,563,563,563,539,486,424,269,203,147,114,69],"timestamp_mouse":[25,41,56,75,95,115,135,155,176,195,214,234,255,275,296,316,334,354,375,394,414,434,454,474,494],"xSR":741.5,"ySR":469.95,"xT1":424.9,"yT1":0,"xT2":1058.1,"yT2":0,"toosoon":0,"cond_shown":"equaldotsize","ratio_trial":500,"smaller_num":"6","larger_num":"12","correct_side":1,"subjID":"juanestebnparada-4","gender":"0","age":"13","school":"6"},{"start_time":1551901352316,"click_time":1551901353018,"finger_time":1551901352657,"fix_duration":395.52455203782057,"trial":49,"RT":341,"MT":361,"sideResp":2,"stimulus":"img/900/equaldotsize/R/13_Ratio_900_L_18_R_20.png","xmouse":[793,793,793,793,793,793,793,793,793,793,793,793,793,793,793,793,793,823,842,897,984,996,1004,1013,1018,1019,1019,1019,1019,1019,1028,1029,1032,1036,1045,1079],"ymouse":[491,491,491,491,491,491,491,491,491,491,491,491,491,491,491,491,491,451,424,347,181,135,110,91,79,77,77,77,77,76,75,75,74,74,74,68],"timestamp_mouse":[8,27,42,62,82,103,121,143,161,181,202,223,243,262,282,301,323,341,362,382,401,422,441,461,481,501,522,542,563,581,601,621,641,661,682,702],"xSR":741.5,"ySR":469.95,"xT1":424.9,"yT1":0,"xT2":1058.1,"yT2":0,"toosoon":0,"cond_shown":"equaldotsize","ratio_trial":900,"smaller_num":"18","larger_num":"20","correct_side":2,"subjID":"juanestebnparada-4","gender":"0","age":"13","school":"6"},{"start_time":1551901355055,"click_time":1551901357038,"finger_time":1551901355417,"fix_duration":1354.328355031435,"trial":50,"RT":362,"MT":1621,"sideResp":1,"stimulus":"img/500/equaldotsize/L/11_Ratio_500_L_12_R_6.png","xmouse":[774,774,774,774,774,774,774,774,774,774,774,774,774,774,774,774,774,774,735,653,554,439,320,197,197,197,197,197,197,197,197,197,197,197,197,197,197,197,197,197,197,197,197,197,197,197,197,197,197,197,197,197,197,197,197,197,197,197,197,197,197,197,197,197,197,197,197,197,197,197,197,197,197,197,197,197,197,197,197,197,197,197,197,197,197,332,332,332,340,361,375,383,389,389,391,392,394,399,423,432],"ymouse":[538,538,538,538,538,538,538,538,538,538,538,538,538,538,538,538,538,538,499,439,358,258,154,11,11,11,11,11,11,11,11,11,11,11,11,11,11,11,11,11,11,11,11,11,11,11,11,11,11,11,11,11,11,11,11,11,11,11,11,11,11,11,11,11,11,11,11,11,11,11,11,11,11,11,11,11,11,11,11,11,11,11,11,11,11,0,0,0,2,8,9,11,12,12,12,12,13,14,23,27],"timestamp_mouse":[10,23,43,63,82,102,123,142,162,183,204,223,244,264,282,302,323,342,362,383,403,423,442,462,482,502,522,542,564,583,603,624,644,664,683,704,724,743,763,783,803,824,843,863,883,903,924,943,963,983,1003,1023,1043,1063,1083,1103,1123,1143,1163,1183,1202,1222,1242,1263,1283,1302,1323,1342,1362,1383,1403,1423,1443,1463,1483,1503,1523,1544,1562,1582,1603,1623,1644,1663,1682,1703,1722,1742,1762,1783,1802,1822,1842,1862,1883,1903,1923,1943,1962,1983],"xSR":741.5,"ySR":469.95,"xT1":424.9,"yT1":0,"xT2":1058.1,"yT2":0,"toosoon":0,"cond_shown":"equaldotsize","ratio_trial":500,"smaller_num":"6","larger_num":"12","correct_side":1,"subjID":"juanestebnparada-4","gender":"0","age":"13","school":"6"},{"start_time":1551901357891,"click_time":1551901358497,"finger_time":1551901358398,"fix_duration":250,"trial":51,"RT":507,"MT":99,"sideResp":1,"stimulus":"img/500/equaldotanddens/L/10_Ratio_500_L_4_R_2.png","xmouse":[802,802,802,802,802,802,802,802,802,802,802,802,802,802,802,802,802,802,802,802,802,802,802,802,791,761,688,599,556,529,511],"ymouse":[537,537,537,537,537,537,537,537,537,537,537,537,537,537,537,537,537,537,537,537,537,537,537,523,489,422,250,129,83,55,34],"timestamp_mouse":[6,27,51,68,88,106,127,148,166,186,207,226,246,267,288,307,326,348,366,387,407,426,448,468,487,507,526,547,567,587,606],"xSR":741.5,"ySR":469.95,"xT1":424.9,"yT1":0,"xT2":1058.1,"yT2":0,"toosoon":0,"cond_shown":"equaldotanddens","ratio_trial":500,"smaller_num":"2","larger_num":"4","correct_side":1,"subjID":"juanestebnparada-4","gender":"0","age":"13","school":"6"},{"start_time":1551901359968,"click_time":1551901360557,"finger_time":1551901360418,"fix_duration":250,"trial":52,"RT":450,"MT":139,"sideResp":2,"stimulus":"img/900/equaldotanddens/R/12_Ratio_900_L_18_R_20.png","xmouse":[797,797,797,797,798,798,798,798,798,798,798,798,798,798,798,798,798,798,798,798,801,805,840,869,891,917,953,1025,1049,1063],"ymouse":[506,506,506,507,508,509,510,510,510,510,510,510,510,510,510,510,510,510,510,510,510,504,457,420,389,344,275,128,74,46],"timestamp_mouse":[10,30,57,70,90,109,129,149,171,191,210,230,249,271,289,309,329,350,371,389,409,430,450,470,490,510,531,549,569,589],"xSR":741.5,"ySR":469.95,"xT1":424.9,"yT1":0,"xT2":1058.1,"yT2":0,"toosoon":0,"cond_shown":"equaldotanddens","ratio_trial":900,"smaller_num":"18","larger_num":"20","correct_side":2,"subjID":"juanestebnparada-4","gender":"0","age":"13","school":"6"},{"start_time":1551901361550,"click_time":1551901362357,"finger_time":1551901362117,"fix_duration":250,"trial":53,"RT":567,"MT":240,"sideResp":2,"stimulus":"img/500/randomdotsizeEA/R/14_Ratio_500_L_5_R_10.png","xmouse":[815,815,815,815,815,815,815,815,815,815,815,815,815,815,815,815,815,815,815,815,815,815,815,815,815,815,815,823,871,914,968,1018,1062,1119,1137,1140,1141,1141,1141,1143,1144],"ymouse":[487,487,487,487,487,487,487,487,487,487,487,487,487,487,487,487,487,487,487,487,487,487,487,487,487,487,487,480,434,388,325,269,218,144,120,113,111,111,111,103,91],"timestamp_mouse":[11,38,47,68,87,108,129,147,168,188,208,227,248,267,289,309,328,349,369,389,408,427,448,467,489,508,527,547,567,587,607,627,648,668,687,708,729,748,768,787,807],"xSR":741.5,"ySR":469.95,"xT1":424.9,"yT1":0,"xT2":1058.1,"yT2":0,"toosoon":0,"cond_shown":"randomdotsizeEA","ratio_trial":500,"smaller_num":"5","larger_num":"10","correct_side":2,"subjID":"juanestebnparada-4","gender":"0","age":"13","school":"6"},{"start_time":1551901364372,"click_time":1551901365518,"finger_time":1551901364898,"fix_duration":1192.7348600299756,"trial":54,"RT":526,"MT":620,"sideResp":1,"stimulus":"img/900/equaldotsize/R/9_Ratio_900_L_18_R_20.png","xmouse":[817,817,817,817,817,817,817,817,817,817,817,817,817,817,817,817,817,817,817,817,817,817,817,817,819,828,851,929,957,976,988,995,1004,1006,1013,1016,1019,1019,1019,1019,1018,1018,967,873,789,697,616,541,522,505,492,479,464,460,456,454,454,458],"ymouse":[520,520,520,520,520,520,520,520,520,520,520,520,520,520,520,520,520,520,520,520,520,520,520,520,515,504,481,396,355,321,298,283,262,256,244,240,236,236,236,236,235,235,235,240,240,232,219,209,205,200,195,186,173,164,152,142,126,92],"timestamp_mouse":[10,25,47,67,86,106,125,145,165,186,207,225,246,265,287,307,326,345,366,385,407,425,446,465,485,506,526,545,565,586,606,625,645,666,686,705,726,745,765,785,806,827,846,866,885,905,927,947,965,985,1005,1027,1045,1065,1085,1107,1127,1146],"xSR":741.5,"ySR":469.95,"xT1":424.9,"yT1":0,"xT2":1058.1,"yT2":0,"toosoon":0,"cond_shown":"equaldotsize","ratio_trial":900,"smaller_num":"18","larger_num":"20","correct_side":2,"subjID":"juanestebnparada-4","gender":"0","age":"13","school":"6"},{"start_time":1551901367222,"click_time":1551901369258,"finger_time":1551901368798,"fix_duration":982.741247720705,"trial":55,"RT":1576,"MT":460,"sideResp":1,"stimulus":"img/900/randomdotsizeEA/R/14_Ratio_900_L_18_R_20.png","xmouse":[797,782,776,775,775,775,775,775,775,775,775,775,775,775,775,775,775,775,775,775,775,775,775,775,775,775,775,775,775,775,775,775,775,775,775,775,775,775,775,775,775,775,775,775,775,775,775,775,775,775,775,775,775,775,775,775,775,775,775,775,775,775,775,775,775,775,775,775,775,774,774,774,774,774,774,769,764,750,741,738,734,727,711,680,608,579,563,558,557,555,553,550,549,549,545,544,543,543,543,542,527,511],"ymouse":[526,527,527,527,527,527,527,527,527,527,527,527,527,527,527,527,527,527,527,527,527,527,527,527,527,527,527,527,527,527,527,527,527,527,527,527,527,527,527,527,527,527,527,527,527,527,527,527,527,527,527,527,527,527,527,527,527,527,527,527,527,527,527,527,527,527,527,528,528,529,529,529,529,529,529,529,529,519,511,506,495,479,451,402,291,238,201,170,144,97,71,59,53,50,46,45,45,45,45,45,49,55],"timestamp_mouse":[15,36,57,76,95,117,136,155,175,196,215,237,256,276,296,315,335,356,377,396,415,437,456,477,495,516,536,557,576,595,615,636,655,677,695,715,736,756,775,796,817,835,856,876,896,915,937,956,976,995,1016,1035,1056,1076,1096,1116,1136,1156,1175,1196,1216,1236,1257,1276,1296,1315,1336,1356,1375,1396,1415,1437,1456,1476,1496,1516,1535,1557,1576,1595,1615,1635,1655,1675,1695,1715,1736,1757,1776,1795,1816,1835,1856,1876,1895,1917,1937,1955,1975,1995,2016,2036],"xSR":741.5,"ySR":469.95,"xT1":424.9,"yT1":0,"xT2":1058.1,"yT2":0,"toosoon":0,"cond_shown":"randomdotsizeEA","ratio_trial":900,"smaller_num":"18","larger_num":"20","correct_side":2,"subjID":"juanestebnparada-4","gender":"0","age":"13","school":"6"},{"start_time":1551901373876,"click_time":1551901374799,"finger_time":1551901374497,"fix_duration":1396.4105204519117,"trial":56,"RT":621,"MT":302,"sideResp":2,"stimulus":"img/500/randomdotsizeEA/R/6_Ratio_500_L_9_R_18.png","xmouse":[787,787,787,787,787,787,787,787,787,787,787,787,787,787,787,787,787,787,787,787,787,787,787,787,787,787,787,787,787,787,796,812,872,908,939,952,959,972,982,990,1003,1019,1048,1054,1054,1055,1059],"ymouse":[518,518,518,518,518,518,518,518,518,518,518,518,518,518,518,518,518,518,518,518,518,518,518,518,518,518,518,518,518,515,494,456,341,272,212,182,164,117,84,70,55,44,29,25,25,25,24],"timestamp_mouse":[10,22,42,62,81,101,121,142,163,182,203,222,241,261,283,301,323,341,362,382,401,421,442,462,483,503,522,542,562,581,602,621,641,662,682,701,722,741,762,782,802,821,842,861,881,903,923],"xSR":741.5,"ySR":469.95,"xT1":424.9,"yT1":0,"xT2":1058.1,"yT2":0,"toosoon":0,"cond_shown":"randomdotsizeEA","ratio_trial":500,"smaller_num":"9","larger_num":"18","correct_side":2,"subjID":"juanestebnparada-4","gender":"0","age":"13","school":"6"},{"start_time":1551901375889,"click_time":1551901376759,"finger_time":1551901376458,"fix_duration":250,"trial":57,"RT":569,"MT":301,"sideResp":1,"stimulus":"img/750/equaldotsize/L/6_Ratio_750_L_24_R_18.png","xmouse":[808,810,813,814,815,816,816,816,816,813,810,804,796,791,788,787,786,786,786,786,786,786,786,786,786,786,783,776,764,741,710,629,602,592,589,588,587,587,586,586,586,554,526,498],"ymouse":[542,542,541,539,539,538,537,535,532,530,526,522,518,517,516,516,516,516,516,516,516,516,516,516,516,516,506,484,448,395,319,161,113,92,83,76,74,74,73,73,73,68,68,68],"timestamp_mouse":[15,35,49,69,88,108,129,149,169,189,208,230,250,268,289,308,328,350,368,389,410,429,450,468,489,509,528,550,569,589,609,629,648,669,689,709,729,748,768,789,810,829,850,870],"xSR":741.5,"ySR":469.95,"xT1":424.9,"yT1":0,"xT2":1058.1,"yT2":0,"toosoon":0,"cond_shown":"equaldotsize","ratio_trial":750,"smaller_num":"18","larger_num":"24","correct_side":1,"subjID":"juanestebnparada-4","gender":"0","age":"13","school":"6"},{"start_time":1551901378860,"click_time":1551901379817,"finger_time":1551901379357,"fix_duration":1421.8250553857683,"trial":58,"RT":497,"MT":460,"sideResp":1,"stimulus":"img/250/equaldotsize/L/5_Ratio_250_L_24_R_6.png","xmouse":[806,806,806,806,806,806,806,806,806,806,806,806,806,806,806,806,806,806,806,806,806,806,806,791,753,704,650,601,553,546,554,589,652,660,661,661,661,661,657,637,612,585,544,539,537,535,534,523],"ymouse":[527,527,527,527,527,527,527,527,527,527,527,527,527,527,527,527,527,527,527,527,527,527,527,508,462,415,368,322,269,228,181,125,54,39,29,27,27,27,25,24,24,25,38,40,40,40,40,45],"timestamp_mouse":[18,37,66,78,97,119,137,159,178,197,219,237,258,277,299,318,337,357,378,397,417,437,457,478,497,517,538,557,578,598,618,637,657,677,698,717,738,758,779,798,818,839,858,878,897,917,938,957],"xSR":741.5,"ySR":469.95,"xT1":424.9,"yT1":0,"xT2":1058.1,"yT2":0,"toosoon":0,"cond_shown":"equaldotsize","ratio_trial":250,"smaller_num":"6","larger_num":"24","correct_side":1,"subjID":"juanestebnparada-4","gender":"0","age":"13","school":"6"},{"start_time":1551901381010,"click_time":1551901381738,"finger_time":1551901381578,"fix_duration":650.0107385831567,"trial":59,"RT":568,"MT":160,"sideResp":1,"stimulus":"img/500/equaldotanddens/L/7_Ratio_500_L_10_R_5.png","xmouse":[800,800,800,800,800,800,800,800,800,800,800,800,800,800,800,800,800,800,800,800,800,800,800,800,800,800,793,772,729,679,572,539,530,525,521,508,496],"ymouse":[539,539,539,539,539,539,539,539,539,539,539,539,539,539,539,539,539,539,539,539,539,539,539,539,539,539,520,481,404,335,225,190,175,163,151,113,87],"timestamp_mouse":[9,32,48,67,87,109,128,148,168,188,208,227,248,267,287,308,329,348,367,389,409,427,448,469,489,509,528,548,568,588,608,628,647,668,688,707,728],"xSR":741.5,"ySR":469.95,"xT1":424.9,"yT1":0,"xT2":1058.1,"yT2":0,"toosoon":0,"cond_shown":"equaldotanddens","ratio_trial":500,"smaller_num":"5","larger_num":"10","correct_side":1,"subjID":"juanestebnparada-4","gender":"0","age":"13","school":"6"},{"start_time":1551901383121,"click_time":1551901383738,"finger_time":1551901383577,"fix_duration":561.2702543505255,"trial":60,"RT":456,"MT":161,"sideResp":1,"stimulus":"img/250/equaldotanddens/L/5_Ratio_250_L_24_R_6.png","xmouse":[799,799,799,799,799,799,799,799,799,799,799,799,799,799,799,799,799,799,799,799,794,783,758,729,662,597,552,519,500,489,487],"ymouse":[539,539,539,539,539,539,539,539,539,539,539,539,539,539,539,539,539,539,539,539,525,508,464,422,351,279,216,155,121,100,94],"timestamp_mouse":[24,42,56,77,98,116,137,157,177,197,217,237,257,278,297,316,338,357,378,397,417,436,456,476,496,517,536,556,576,596,617],"xSR":741.5,"ySR":469.95,"xT1":424.9,"yT1":0,"xT2":1058.1,"yT2":0,"toosoon":0,"cond_shown":"equaldotanddens","ratio_trial":250,"smaller_num":"6","larger_num":"24","correct_side":1,"subjID":"juanestebnparada-4","gender":"0","age":"13","school":"6"},{"start_time":1551901384853,"click_time":1551901385499,"finger_time":1551901385358,"fix_duration":394.3849409146222,"trial":61,"RT":505,"MT":141,"sideResp":2,"stimulus":"img/750/equaldotanddens/R/4_Ratio_750_L_15_R_20.png","xmouse":[781,781,781,781,781,781,781,781,781,781,781,781,781,781,781,781,781,781,781,781,781,781,782,800,815,834,851,876,942,1011,1047,1076,1099],"ymouse":[517,517,517,517,517,517,517,517,517,517,517,517,517,517,517,517,517,517,517,517,517,517,518,500,483,462,444,411,298,200,144,102,71],"timestamp_mouse":[8,25,44,66,84,105,125,145,166,186,205,225,245,265,285,305,326,345,365,385,406,426,444,465,485,505,525,544,565,586,604,624,646],"xSR":741.5,"ySR":469.95,"xT1":424.9,"yT1":0,"xT2":1058.1,"yT2":0,"toosoon":0,"cond_shown":"equaldotanddens","ratio_trial":750,"smaller_num":"15","larger_num":"20","correct_side":2,"subjID":"juanestebnparada-4","gender":"0","age":"13","school":"6"},{"start_time":1551901387034,"click_time":1551901387698,"finger_time":1551901387617,"fix_duration":815.0070176539838,"trial":62,"RT":583,"MT":81,"sideResp":2,"stimulus":"img/750/randomdotsizeEA/R/11_Ratio_750_L_12_R_16.png","xmouse":[806,806,806,806,806,806,806,806,806,806,806,806,806,798,786,785,785,784,784,783,783,783,783,783,783,783,786,794,810,863,939,1008,1074,1119],"ymouse":[541,541,541,541,541,541,541,541,541,541,541,541,541,536,528,526,526,526,523,518,512,511,511,511,511,509,507,503,494,448,342,249,142,54],"timestamp_mouse":[5,32,44,63,83,104,125,144,163,185,204,225,243,263,284,304,324,343,364,383,403,424,443,463,484,503,523,543,565,583,603,623,644,664],"xSR":741.5,"ySR":469.95,"xT1":424.9,"yT1":0,"xT2":1058.1,"yT2":0,"toosoon":0,"cond_shown":"randomdotsizeEA","ratio_trial":750,"smaller_num":"12","larger_num":"16","correct_side":2,"subjID":"juanestebnparada-4","gender":"0","age":"13","school":"6"},{"start_time":1551901388768,"click_time":1551901389518,"finger_time":1551901389398,"fix_duration":269.2125851591388,"trial":63,"RT":630,"MT":120,"sideResp":2,"stimulus":"img/500/equaldotsize/R/15_Ratio_500_L_1_R_2.png","xmouse":[798,798,798,798,798,798,798,798,798,798,798,798,798,798,798,798,798,798,798,798,798,798,798,798,798,798,798,798,803,812,826,843,928,982,1025,1067,1108,1157],"ymouse":[531,531,531,531,531,531,531,531,531,531,531,531,531,531,531,531,531,531,531,531,531,531,531,531,531,531,531,531,531,527,520,508,426,350,272,203,140,58],"timestamp_mouse":[10,30,50,71,90,109,129,150,170,191,210,229,250,271,290,311,329,349,371,391,409,430,450,469,491,511,530,550,569,590,609,630,650,670,689,709,729,750],"xSR":741.5,"ySR":469.95,"xT1":424.9,"yT1":0,"xT2":1058.1,"yT2":0,"toosoon":0,"cond_shown":"equaldotsize","ratio_trial":500,"smaller_num":"1","larger_num":"2","correct_side":2,"subjID":"juanestebnparada-4","gender":"0","age":"13","school":"6"},{"start_time":1551901390651,"click_time":1551901391499,"finger_time":1551901391178,"fix_duration":250,"trial":64,"RT":527,"MT":321,"sideResp":1,"stimulus":"img/250/randomdotsizeEA/L/3_Ratio_250_L_8_R_2.png","xmouse":[796,796,796,796,796,796,796,796,796,796,796,796,796,796,796,796,796,796,796,796,796,796,796,796,796,774,752,710,633,574,550,539,535,534,534,534,534,534,534,534,532,525,515],"ymouse":[515,515,515,515,515,515,515,515,515,515,515,515,515,515,515,515,515,515,515,515,515,515,515,515,515,484,451,391,260,149,109,88,83,82,82,82,82,82,82,82,82,82,82],"timestamp_mouse":[9,26,47,67,87,108,128,148,167,188,208,228,246,268,287,308,326,347,368,387,407,427,448,467,488,508,527,547,566,588,607,628,648,667,686,706,728,747,767,787,807,827,848],"xSR":741.5,"ySR":469.95,"xT1":424.9,"yT1":0,"xT2":1058.1,"yT2":0,"toosoon":0,"cond_shown":"randomdotsizeEA","ratio_trial":250,"smaller_num":"2","larger_num":"8","correct_side":1,"subjID":"juanestebnparada-4","gender":"0","age":"13","school":"6"},{"start_time":1551901392985,"click_time":1551901393818,"finger_time":1551901393517,"fix_duration":846.5439061206665,"trial":65,"RT":532,"MT":301,"sideResp":1,"stimulus":"img/900/equaldotanddens/L/4_Ratio_900_L_20_R_18.png","xmouse":[770,770,772,775,778,779,779,779,779,779,779,779,779,779,779,779,779,779,779,779,779,779,779,779,779,779,749,701,649,584,513,404,403,403,403,403,403,403,403,403,407,447],"ymouse":[501,501,501,501,501,502,508,509,509,509,509,509,509,509,509,509,509,509,509,509,509,509,509,509,509,509,469,398,320,235,154,33,30,30,30,30,30,30,30,30,30,44],"timestamp_mouse":[17,32,53,73,93,112,133,152,172,194,214,233,253,273,294,312,333,354,372,392,414,433,453,474,493,512,532,553,573,594,613,632,653,673,692,712,732,752,772,792,812,832],"xSR":741.5,"ySR":469.95,"xT1":424.9,"yT1":0,"xT2":1058.1,"yT2":0,"toosoon":0,"cond_shown":"equaldotanddens","ratio_trial":900,"smaller_num":"18","larger_num":"20","correct_side":1,"subjID":"juanestebnparada-4","gender":"0","age":"13","school":"6"},{"start_time":1551901395862,"click_time":1551901397218,"finger_time":1551901396839,"fix_duration":1343.206363968205,"trial":66,"RT":977,"MT":379,"sideResp":1,"stimulus":"img/500/randomdotsizeEA/L/13_Ratio_500_L_12_R_6.png","xmouse":[815,815,815,815,815,815,815,815,815,815,815,815,815,811,809,805,802,800,800,800,800,800,800,800,800,800,800,800,800,800,800,800,800,800,800,800,800,800,800,800,800,800,800,800,800,800,800,782,739,705,674,650,610,586,586,586,586,586,586,586,586,586,586,410,410,414,420,427],"ymouse":[512,512,512,512,512,512,512,512,512,512,512,512,512,515,517,520,523,524,524,524,524,524,524,524,524,524,524,524,524,524,524,524,524,524,524,524,524,524,524,524,524,524,524,524,524,524,524,477,383,302,225,163,64,10,10,10,10,10,10,10,10,10,10,2,22,39,52,64],"timestamp_mouse":[16,37,56,75,95,116,137,156,175,196,215,237,256,276,295,317,335,355,376,397,416,436,455,477,495,515,535,555,576,597,616,636,655,677,696,716,737,755,775,797,815,836,856,877,896,915,936,955,977,995,1016,1037,1055,1076,1095,1115,1135,1156,1176,1196,1216,1236,1257,1276,1297,1316,1336,1355],"xSR":741.5,"ySR":469.95,"xT1":424.9,"yT1":0,"xT2":1058.1,"yT2":0,"toosoon":0,"cond_shown":"randomdotsizeEA","ratio_trial":500,"smaller_num":"6","larger_num":"12","correct_side":1,"subjID":"juanestebnparada-4","gender":"0","age":"13","school":"6"},{"start_time":1551901398209,"click_time":1551901398918,"finger_time":1551901398717,"fix_duration":250,"trial":67,"RT":508,"MT":201,"sideResp":1,"stimulus":"img/750/equaldotsize/L/10_Ratio_750_L_4_R_3.png","xmouse":[800,800,800,800,800,800,800,800,800,800,800,800,800,800,800,800,800,800,800,800,800,800,800,800,796,774,742,704,669,636,565,544,535,531,526,518],"ymouse":[516,516,516,516,516,516,516,516,516,516,516,516,516,516,516,516,516,516,516,516,516,516,516,516,503,458,393,326,262,204,86,58,49,45,41,36],"timestamp_mouse":[21,28,48,70,88,109,129,148,170,189,208,228,249,268,290,309,329,348,369,390,409,428,448,469,490,508,528,548,568,589,609,628,649,669,690,709],"xSR":741.5,"ySR":469.95,"xT1":424.9,"yT1":0,"xT2":1058.1,"yT2":0,"toosoon":0,"cond_shown":"equaldotsize","ratio_trial":750,"smaller_num":"3","larger_num":"4","correct_side":1,"subjID":"juanestebnparada-4","gender":"0","age":"13","school":"6"},{"start_time":1551901400428,"click_time":1551901401337,"finger_time":1551901401097,"fix_duration":729.0358071434437,"trial":68,"RT":669,"MT":240,"sideResp":1,"stimulus":"img/900/randomdotsizeEA/L/10_Ratio_900_L_20_R_18.png","xmouse":[790,790,790,790,790,790,790,790,790,790,790,790,790,790,790,790,790,790,790,790,790,790,790,790,790,790,790,790,790,790,790,790,774,747,616,565,522,497,476,442,440,438,438,440,441,441],"ymouse":[510,510,510,510,510,510,510,510,510,510,510,510,510,510,510,510,510,510,510,510,510,510,510,510,510,510,510,510,510,510,510,510,478,440,303,259,224,201,179,139,136,129,125,120,100,84],"timestamp_mouse":[12,33,50,70,91,110,130,151,170,190,209,231,249,269,290,310,329,350,369,390,411,430,450,471,491,510,529,549,570,590,610,630,650,669,690,709,729,750,770,789,810,830,850,869,889,909],"xSR":741.5,"ySR":469.95,"xT1":424.9,"yT1":0,"xT2":1058.1,"yT2":0,"toosoon":0,"cond_shown":"randomdotsizeEA","ratio_trial":900,"smaller_num":"18","larger_num":"20","correct_side":1,"subjID":"juanestebnparada-4","gender":"0","age":"13","school":"6"},{"start_time":1551901402902,"click_time":1551901403798,"finger_time":1551901403497,"fix_duration":883.8539977176538,"trial":69,"RT":595,"MT":301,"sideResp":2,"stimulus":"img/750/equaldotsize/R/4_Ratio_750_L_15_R_20.png","xmouse":[808,808,808,808,808,808,808,808,808,808,808,808,808,808,808,808,808,808,808,808,808,808,808,808,808,808,812,824,840,854,877,885,892,900,916,961,987,1000,1007,1011,1022,1035,1049,1062,1072],"ymouse":[537,537,537,537,537,537,537,537,537,537,537,537,537,537,537,537,537,537,537,537,537,537,537,537,537,537,527,503,470,440,393,378,363,343,317,247,208,185,173,167,152,138,122,102,84],"timestamp_mouse":[16,35,56,76,97,115,135,156,177,196,215,235,256,277,296,316,335,355,376,397,415,437,456,475,496,515,535,556,576,595,615,635,657,677,696,715,736,755,777,797,817,836,856,876,896],"xSR":741.5,"ySR":469.95,"xT1":424.9,"yT1":0,"xT2":1058.1,"yT2":0,"toosoon":0,"cond_shown":"equaldotsize","ratio_trial":750,"smaller_num":"15","larger_num":"20","correct_side":2,"subjID":"juanestebnparada-4","gender":"0","age":"13","school":"6"},{"start_time":1551901405202,"click_time":1551901406078,"finger_time":1551901405818,"fix_duration":621.7862074246973,"trial":70,"RT":616,"MT":260,"sideResp":2,"stimulus":"img/900/equaldotanddens/R/5_Ratio_900_L_9_R_10.png","xmouse":[798,798,798,798,798,798,798,798,798,798,797,794,794,794,794,794,794,793,793,793,793,793,793,793,793,793,794,799,808,828,903,987,1033,1075,1097,1107,1107,1106,1106,1105,1105,1105,1105,1103],"ymouse":[545,545,545,545,545,545,545,545,545,545,545,545,545,545,545,545,545,544,543,541,540,539,538,538,538,536,535,527,516,494,410,317,265,207,168,145,144,138,137,134,116,109,101,95],"timestamp_mouse":[15,36,56,77,96,117,137,156,175,196,215,237,257,277,295,315,336,357,375,395,415,436,457,475,495,515,537,556,575,595,616,636,656,676,695,716,736,755,775,795,816,836,855,875],"xSR":741.5,"ySR":469.95,"xT1":424.9,"yT1":0,"xT2":1058.1,"yT2":0,"toosoon":0,"cond_shown":"equaldotanddens","ratio_trial":900,"smaller_num":"9","larger_num":"10","correct_side":2,"subjID":"juanestebnparada-4","gender":"0","age":"13","school":"6"},{"start_time":1551901409373,"click_time":1551901411418,"finger_time":1551901411018,"fix_duration":1052.326359133656,"trial":71,"RT":1645,"MT":400,"sideResp":2,"stimulus":"img/900/randomdotsizeEA/R/6_Ratio_900_L_9_R_10.png","xmouse":[798,798,798,798,798,798,798,798,798,798,798,798,798,798,798,798,798,798,798,798,798,798,798,798,798,798,798,798,798,798,798,798,798,798,798,798,798,798,798,798,798,798,798,798,798,798,798,798,798,798,798,798,798,798,798,798,798,798,798,798,798,798,798,798,798,798,798,798,798,798,798,799,800,800,800,800,800,800,800,800,800,802,878,911,914,914,914,914,919,929,939,951,983,999,1006,1011,1015,1021,1026,1040,1052,1068,1083],"ymouse":[517,517,517,517,517,517,517,517,517,517,517,517,517,517,517,517,517,517,517,517,517,517,517,517,517,517,517,517,517,517,517,517,517,517,517,517,517,517,517,517,517,517,517,517,517,517,517,517,517,517,517,517,517,517,517,517,517,517,517,517,517,517,517,517,517,517,517,517,517,517,517,516,516,516,516,516,516,516,516,516,516,514,468,431,416,394,372,336,315,299,282,259,195,166,156,148,144,139,133,123,114,103,92],"timestamp_mouse":[12,24,46,66,85,104,125,144,165,184,206,225,245,265,285,305,325,344,365,384,405,424,444,465,484,506,525,544,565,585,605,624,644,666,685,704,724,745,764,786,806,824,844,864,884,906,925,944,965,986,1005,1026,1045,1066,1085,1106,1124,1145,1164,1184,1204,1224,1245,1266,1286,1306,1325,1344,1365,1386,1405,1425,1444,1465,1485,1505,1526,1545,1565,1584,1605,1626,1645,1665,1684,1704,1724,1745,1765,1784,1804,1826,1844,1865,1884,1904,1925,1945,1965,1985,2006,2026,2044],"xSR":741.5,"ySR":469.95,"xT1":424.9,"yT1":0,"xT2":1058.1,"yT2":0,"toosoon":0,"cond_shown":"randomdotsizeEA","ratio_trial":900,"smaller_num":"9","larger_num":"10","correct_side":2,"subjID":"juanestebnparada-4","gender":"0","age":"13","school":"6"},{"start_time":1551901413948,"click_time":1551901414617,"finger_time":1551901414357,"fix_duration":848.1832345555205,"trial":72,"RT":409,"MT":260,"sideResp":1,"stimulus":"img/250/equaldotsize/L/1_Ratio_250_L_8_R_2.png","xmouse":[771,771,771,771,771,771,771,771,771,771,771,771,771,771,771,771,771,771,772,771,763,753,739,691,665,632,599,579,552,541,533,529,527,515],"ymouse":[498,498,498,498,498,498,498,498,498,498,498,498,498,498,498,498,498,498,497,478,454,430,405,318,275,224,166,124,58,31,11,5,2,1],"timestamp_mouse":[13,37,50,70,91,110,130,150,170,189,211,229,249,270,289,309,330,351,370,389,409,429,449,470,490,509,529,551,570,589,610,630,649,669],"xSR":741.5,"ySR":469.95,"xT1":424.9,"yT1":0,"xT2":1058.1,"yT2":0,"toosoon":0,"cond_shown":"equaldotsize","ratio_trial":250,"smaller_num":"2","larger_num":"8","correct_side":1,"subjID":"juanestebnparada-4","gender":"0","age":"13","school":"6"},{"start_time":1551901415699,"click_time":1551901416218,"finger_time":1551901416058,"fix_duration":337.2232505342824,"trial":73,"RT":359,"MT":160,"sideResp":2,"stimulus":"img/250/equaldotanddens/R/10_Ratio_250_L_4_R_16.png","xmouse":[819,819,819,819,819,819,819,819,819,819,819,819,819,819,815,813,809,809,813,819,834,905,960,1007,1044,1067,1092],"ymouse":[536,536,536,536,536,536,536,536,536,536,536,536,536,536,528,523,502,480,469,456,437,366,308,248,195,155,97],"timestamp_mouse":[1,27,39,59,79,98,118,140,160,178,199,219,240,259,279,299,318,339,359,379,399,418,440,458,478,499,519],"xSR":741.5,"ySR":469.95,"xT1":424.9,"yT1":0,"xT2":1058.1,"yT2":0,"toosoon":0,"cond_shown":"equaldotanddens","ratio_trial":250,"smaller_num":"4","larger_num":"16","correct_side":2,"subjID":"juanestebnparada-4","gender":"0","age":"13","school":"6"},{"start_time":1551901418629,"click_time":1551901420477,"finger_time":1551901419818,"fix_duration":250,"trial":74,"RT":1189,"MT":659,"sideResp":2,"stimulus":"img/900/equaldotsize/L/2_Ratio_900_L_20_R_18.png","xmouse":[798,798,798,798,798,798,798,798,798,798,798,798,798,798,798,798,798,798,798,798,798,798,798,798,798,798,798,798,798,798,798,798,798,798,798,798,798,798,798,798,798,798,798,798,798,798,798,798,798,798,798,798,798,798,798,798,798,798,800,882,944,961,994,1048,1146,1172,1175,1175,1175,1181,1185,1188,1188,1182,1180,1179,1179,1175,1162,1100,1076,1076,1076,1076,1076,1076,1076,1076,1076,1076,1076,1083,1113],"ymouse":[520,520,520,520,520,520,520,520,520,520,520,520,520,520,520,520,520,520,520,520,520,520,520,520,520,520,520,520,520,520,520,520,520,520,520,520,520,520,520,520,520,520,520,520,520,520,520,520,520,520,520,520,520,520,520,520,520,520,519,505,486,475,443,372,199,129,97,82,78,71,66,52,39,30,28,28,31,42,62,115,134,135,135,135,135,135,135,135,135,135,135,105,38],"timestamp_mouse":[25,34,49,68,90,109,128,150,168,189,208,228,249,268,289,309,330,349,368,389,410,430,448,469,488,508,530,549,570,588,609,630,648,668,689,709,729,749,768,788,809,830,849,869,888,908,928,950,968,988,1009,1028,1049,1068,1088,1109,1130,1148,1169,1189,1209,1229,1249,1269,1289,1310,1328,1348,1369,1388,1409,1430,1449,1469,1488,1508,1528,1550,1569,1590,1609,1629,1648,1669,1688,1708,1729,1749,1770,1788,1808,1830,1848],"xSR":741.5,"ySR":469.95,"xT1":424.9,"yT1":0,"xT2":1058.1,"yT2":0,"toosoon":0,"cond_shown":"equaldotsize","ratio_trial":900,"smaller_num":"18","larger_num":"20","correct_side":1,"subjID":"juanestebnparada-4","gender":"0","age":"13","school":"6"},{"start_time":1551901421871,"click_time":1551901422839,"finger_time":1551901422518,"fix_duration":351.9593671780271,"trial":75,"RT":647,"MT":321,"sideResp":1,"stimulus":"img/750/randomdotsizeEA/L/6_Ratio_750_L_24_R_18.png","xmouse":[789,789,789,789,789,789,789,789,789,789,789,789,789,789,789,789,789,789,789,789,789,789,789,789,789,789,789,789,789,789,789,789,789,781,774,763,749,666,592,515,456,424,388,379,377,377,388,420,431],"ymouse":[497,497,497,497,497,497,497,497,497,497,497,497,497,497,497,497,497,497,497,497,497,497,497,497,497,497,497,497,497,497,497,488,468,448,431,414,399,331,274,217,169,135,83,66,56,53,49,41,38],"timestamp_mouse":[9,32,47,68,87,107,128,148,167,187,208,226,247,266,287,308,326,346,366,387,407,427,447,466,487,508,528,548,567,587,607,626,647,667,686,707,726,746,767,787,807,827,847,866,886,907,926,946,968],"xSR":741.5,"ySR":469.95,"xT1":424.9,"yT1":0,"xT2":1058.1,"yT2":0,"toosoon":0,"cond_shown":"randomdotsizeEA","ratio_trial":750,"smaller_num":"18","larger_num":"24","correct_side":1,"subjID":"juanestebnparada-4","gender":"0","age":"13","school":"6"},{"start_time":1551901425029,"click_time":1551901425818,"finger_time":1551901425519,"fix_duration":1450.3297543158374,"trial":76,"RT":490,"MT":299,"sideResp":1,"stimulus":"img/500/equaldotsize/L/5_Ratio_500_L_4_R_2.png","xmouse":[770,770,770,770,770,770,770,770,770,770,770,770,770,770,770,770,770,770,770,770,770,770,770,758,658,591,521,456,420,392,390,392,393,395,399,402,410,418,424,435],"ymouse":[515,515,515,515,515,515,515,515,515,515,515,515,515,515,515,515,515,515,515,515,515,515,515,488,354,281,210,150,107,51,32,27,26,25,19,16,16,14,14,20],"timestamp_mouse":[10,30,49,68,88,109,130,148,168,188,208,230,248,269,290,308,329,350,370,390,408,430,450,469,490,508,528,550,569,589,610,629,650,669,689,708,728,748,769,789],"xSR":741.5,"ySR":469.95,"xT1":424.9,"yT1":0,"xT2":1058.1,"yT2":0,"toosoon":0,"cond_shown":"equaldotsize","ratio_trial":500,"smaller_num":"2","larger_num":"4","correct_side":1,"subjID":"juanestebnparada-4","gender":"0","age":"13","school":"6"},{"start_time":1551901427050,"click_time":1551901427799,"finger_time":1551901427518,"fix_duration":549.460992908481,"trial":77,"RT":468,"MT":281,"sideResp":1,"stimulus":"img/250/randomdotsizeEA/L/1_Ratio_250_L_8_R_2.png","xmouse":[769,769,769,769,769,769,769,769,769,769,769,769,769,769,769,769,769,769,769,769,769,762,752,692,662,642,622,608,581,569,562,554,547,531,522,516,509,504],"ymouse":[529,529,529,529,529,529,529,529,529,529,529,529,529,529,529,529,529,529,529,529,529,521,511,456,431,412,390,366,308,274,256,239,222,184,163,141,118,99],"timestamp_mouse":[12,29,47,67,88,109,127,148,168,187,209,227,248,268,287,308,328,349,367,388,409,428,447,468,488,508,527,548,567,588,608,629,648,667,688,709,728,749],"xSR":741.5,"ySR":469.95,"xT1":424.9,"yT1":0,"xT2":1058.1,"yT2":0,"toosoon":0,"cond_shown":"randomdotsizeEA","ratio_trial":250,"smaller_num":"2","larger_num":"8","correct_side":1,"subjID":"juanestebnparada-4","gender":"0","age":"13","school":"6"},{"start_time":1551901429761,"click_time":1551901430557,"finger_time":1551901430358,"fix_duration":1260.001746905466,"trial":78,"RT":597,"MT":199,"sideResp":2,"s