[{"start_time":1551801211479,"click_time":1551801213482,"finger_time":1551801213342,"fix_duration":832.531914189449,"trial":0,"RT":1863,"MT":140,"sideResp":2,"stimulus":"img/900/equaldotanddens/R/5_Ratio_900_L_9_R_10.png","xmouse":[794,794,794,794,794,794,794,794,794,794,794,794,794,794,794,794,794,794,794,794,794,794,794,794,794,794,794,794,794,794,794,794,794,794,794,794,794,794,794,794,794,794,794,794,794,794,794,794,794,794,794,794,794,794,794,794,794,794,794,794,794,794,794,794,794,794,794,794,794,794,794,794,794,794,794,794,794,794,794,794,794,794,794,794,794,794,794,794,794,794,794,820,839,946,1006,1072,1103,1129,1155,1157,1158],"ymouse":[488,488,488,488,488,488,488,488,488,488,488,488,488,488,488,488,488,488,488,488,488,488,488,488,488,488,488,488,488,488,488,488,488,488,488,488,488,488,488,488,488,488,488,488,488,488,488,488,488,488,488,488,488,488,488,488,488,488,488,488,488,488,488,488,488,488,488,488,488,488,488,488,488,488,488,488,488,488,488,488,488,488,488,488,488,488,488,488,488,488,488,470,458,395,357,295,246,197,123,102,87],"timestamp_mouse":[9,34,44,63,82,104,122,142,162,182,203,224,242,263,283,304,323,343,363,382,403,423,443,462,484,504,523,543,564,582,603,623,642,663,683,702,722,743,762,783,804,822,842,863,884,902,922,942,962,984,1002,1023,1042,1063,1084,1103,1123,1142,1163,1183,1202,1224,1242,1263,1282,1303,1322,1343,1362,1382,1403,1423,1443,1463,1482,1504,1522,1543,1563,1582,1604,1622,1642,1663,1682,1704,1724,1743,1762,1783,1803,1823,1843,1863,1883,1902,1923,1944,1963,1982,2002],"xSR":741.5,"ySR":449.15000000000003,"xT1":424.9,"yT1":0,"xT2":1058.1,"yT2":0,"toosoon":0,"cond_shown":"equaldotanddens","ratio_trial":900,"smaller_num":"9","larger_num":"10","correct_side":2,"subjID":"anamartinez16","gender":"1","age":"11","school":"6","test":{"fix_dur":[250,1500],"timestim":300,"targets_dim":[100,100],"targets_relative_coord":[0.3,0.7],"size_stim":[880,420],"start_dim":[100,100],"size_start":[300,300],"size_fix":60,"samplingrate":20,"img_types":["equaldotsize","equaldotanddens","randomdotsizeEA"],"ratios":[250,500,750,900],"rep_conds":9,"nTrials":120,"trials_to_rest":500,"Trials_order":[34,67,46,5,76,59,94,111,48,11,54,53,38,102,15,50,17,36,90,72,95,119,65,66,3,40,32,10,33,81,118,69,23,2,68,71,101,12,30,100,19,80,105,29,103,114,6,55,93,22,1,79,18,0,78,84,16,25,49,9,87,115,99,42,83,8,108,60,21,28,31,58,52,70,107,82,64,62,37,104,117,47,20,77,57,27,75,85,73,110,45,97,4,7,89,98,39,13,41,24,56,88,109,112,14,35,43,63,106,96,26,116,74,61,44,113,86,92,51,91],"cond_shown":["equaldotanddens","equaldotanddens","equaldotanddens","randomdotsizeEA","equaldotanddens","randomdotsizeEA","equaldotanddens","equaldotsize","equaldotsize","randomdotsizeEA","equaldotsize","randomdotsizeEA","randomdotsizeEA","equaldotsize","equaldotsize","randomdotsizeEA","randomdotsizeEA","equaldotsize","equaldotsize","equaldotsize","randomdotsizeEA","randomdotsizeEA","randomdotsizeEA","equaldotsize","equaldotsize","equaldotanddens","randomdotsizeEA","equaldotanddens","equaldotsize","equaldotsize","equaldotanddens","equaldotsize","randomdotsizeEA","randomdotsizeEA","randomdotsizeEA","randomdotsizeEA","randomdotsizeEA","equaldotsize","equaldotsize","equaldotanddens","equaldotanddens","randomdotsizeEA","equaldotsize","randomdotsizeEA","equaldotanddens","equaldotsize","equaldotsize","equaldotanddens","equaldotsize","equaldotanddens","equaldotanddens","equaldotanddens","equaldotsize","equaldotsize","equaldotsize","equaldotsize","equaldotanddens","equaldotanddens","equaldotanddens","equaldotsize","equaldotsize","equaldotanddens","equaldotsize","equaldotsize","randomdotsizeEA","randomdotsizeEA","equaldotsize","equaldotsize","equaldotsize","equaldotanddens","equaldotanddens","equaldotanddens","equaldotanddens","equaldotanddens","randomdotsizeEA","equaldotanddens","equaldotanddens","randomdotsizeEA","equaldotanddens","randomdotsizeEA","equaldotsize","randomdotsizeEA","randomdotsizeEA","randomdotsizeEA","equaldotsize","equaldotsize","equaldotsize","equaldotanddens","equaldotanddens","randomdotsizeEA","equaldotsize","equaldotanddens","equaldotanddens","equaldotanddens","randomdotsizeEA","randomdotsizeEA","equaldotsize","equaldotanddens","randomdotsizeEA","equaldotsize","randomdotsizeEA","equaldotanddens","equaldotanddens","equaldotanddens","randomdotsizeEA","randomdotsizeEA","equaldotanddens","equaldotsize","equaldotanddens","equaldotsize","randomdotsizeEA","randomdotsizeEA","randomdotsizeEA","equaldotanddens","randomdotsizeEA","randomdotsizeEA","randomdotsizeEA","randomdotsizeEA","equaldotsize","equaldotanddens"],"ratio_trial":[900,750,900,500,500,900,900,500,250,900,750,500,250,750,500,250,500,250,750,250,900,900,500,750,500,500,750,900,900,900,900,900,900,250,750,900,500,250,750,500,750,750,900,500,750,750,750,750,900,900,250,750,750,250,750,250,500,250,250,900,500,750,500,750,900,750,250,250,900,500,750,900,500,900,900,900,500,250,250,750,900,900,750,500,900,500,500,250,250,250,900,250,500,750,500,250,500,250,500,250,750,500,250,500,250,900,750,500,900,250,250,750,250,250,750,500,250,750,500,750],"smaller_num":["9","12","18","6","4","9","9","3","2","18","3","10","2","15","9","3","2","2","9","1","18","9","6","15","5","5","3","9","18","9","9","18","18","3","6","9","9","3","15","9","6","15","18","10","12","15","9","3","18","9","2","18","18","6","3","2","10","2","2","18","9","3","10","15","18","15","2","6","9","9","15","9","1","18","18","9","9","3","2","3","9","18","6","2","18","6","2","6","2","4","9","3","9","18","5","4","9","4","6","4","15","1","2","1","4","9","3","3","9","4","4","15","5","3","15","2","1","15","4","15"],"larger_num":["10","16","20","12","8","10","10","6","8","20","4","20","8","20","18","12","4","8","12","4","20","10","12","20","10","10","4","10","20","10","10","20","20","12","8","10","18","12","20","18","8","20","20","20","16","20","12","4","20","10","8","24","24","24","4","8","20","8","8","20","18","4","20","20","20","20","8","24","10","18","20","10","2","20","20","10","18","12","8","4","10","20","8","4","20","12","4","24","8","16","10","12","18","24","10","16","18","16","12","16","20","2","8","2","16","10","4","6","10","16","16","20","20","12","20","4","4","20","8","20"],"correct_side":[2,2,2,1,1,1,1,2,1,2,1,2,1,2,2,2,1,2,2,2,1,2,1,2,1,1,1,2,1,1,1,1,1,2,2,2,1,1,2,1,1,2,1,2,2,2,2,1,2,2,1,1,1,2,1,1,2,1,1,1,2,2,2,2,1,2,1,1,2,2,2,1,2,1,2,2,2,1,1,2,2,2,1,1,1,1,1,1,1,2,2,2,2,1,1,1,2,1,1,2,2,2,1,2,2,1,2,2,1,2,1,2,2,1,2,1,2,2,1,2],"img_shown":["img/900/equaldotanddens/R/5_Ratio_900_L_9_R_10.png","img/750/equaldotanddens/R/11_Ratio_750_L_12_R_16.png","img/900/equaldotanddens/R/11_Ratio_900_L_18_R_20.png","img/500/randomdotsizeEA/L/13_Ratio_500_L_12_R_6.png","img/500/equaldotanddens/L/8_Ratio_500_L_8_R_4.png","img/900/randomdotsizeEA/L/1_Ratio_900_L_10_R_9.png","img/900/equaldotanddens/L/1_Ratio_900_L_10_R_9.png","img/500/equaldotsize/R/2_Ratio_500_L_3_R_6.png","img/250/equaldotsize/L/3_Ratio_250_L_8_R_2.png","img/900/randomdotsizeEA/R/9_Ratio_900_L_18_R_20.png","img/750/equaldotsize/L/8_Ratio_750_L_4_R_3.png","img/500/randomdotsizeEA/R/3_Ratio_500_L_10_R_20.png","img/250/randomdotsizeEA/L/7_Ratio_250_L_8_R_2.png","img/750/equaldotsize/R/5_Ratio_750_L_15_R_20.png","img/500/equaldotsize/R/1_Ratio_500_L_9_R_18.png","img/250/randomdotsizeEA/R/9_Ratio_250_L_3_R_12.png","img/500/randomdotsizeEA/L/10_Ratio_500_L_4_R_2.png","img/250/equaldotsize/R/13_Ratio_250_L_2_R_8.png","img/750/equaldotsize/R/15_Ratio_750_L_9_R_12.png","img/250/equaldotsize/R/8_Ratio_250_L_1_R_4.png","img/900/randomdotsizeEA/L/8_Ratio_900_L_20_R_18.png","img/900/randomdotsizeEA/R/6_Ratio_900_L_9_R_10.png","img/500/randomdotsizeEA/L/13_Ratio_500_L_12_R_6.png","img/750/equaldotsize/R/5_Ratio_750_L_15_R_20.png","img/500/equaldotsize/L/7_Ratio_500_L_10_R_5.png","img/500/equaldotanddens/L/7_Ratio_500_L_10_R_5.png","img/750/randomdotsizeEA/L/10_Ratio_750_L_4_R_3.png","img/900/equaldotanddens/R/6_Ratio_900_L_9_R_10.png","img/900/equaldotsize/L/2_Ratio_900_L_20_R_18.png","img/900/equaldotsize/L/1_Ratio_900_L_10_R_9.png","img/900/equaldotanddens/L/1_Ratio_900_L_10_R_9.png","img/900/equaldotsize/L/2_Ratio_900_L_20_R_18.png","img/900/randomdotsizeEA/L/10_Ratio_900_L_20_R_18.png","img/250/randomdotsizeEA/R/11_Ratio_250_L_3_R_12.png","img/750/randomdotsizeEA/R/2_Ratio_750_L_6_R_8.png","img/900/randomdotsizeEA/R/6_Ratio_900_L_9_R_10.png","img/500/randomdotsizeEA/L/4_Ratio_500_L_18_R_9.png","img/250/equaldotsize/L/15_Ratio_250_L_12_R_3.png","img/750/equaldotsize/R/5_Ratio_750_L_15_R_20.png","img/500/equaldotanddens/L/4_Ratio_500_L_18_R_9.png","img/750/equaldotanddens/L/14_Ratio_750_L_8_R_6.png","img/750/randomdotsizeEA/R/4_Ratio_750_L_15_R_20.png","img/900/equaldotsize/L/4_Ratio_900_L_20_R_18.png","img/500/randomdotsizeEA/R/3_Ratio_500_L_10_R_20.png","img/750/equaldotanddens/R/11_Ratio_750_L_12_R_16.png","img/750/equaldotsize/R/3_Ratio_750_L_15_R_20.png","img/750/equaldotsize/R/15_Ratio_750_L_9_R_12.png","img/750/equaldotanddens/L/9_Ratio_750_L_4_R_3.png","img/900/equaldotsize/R/14_Ratio_900_L_18_R_20.png","img/900/equaldotanddens/R/6_Ratio_900_L_9_R_10.png","img/250/equaldotanddens/L/7_Ratio_250_L_8_R_2.png","img/750/equaldotanddens/L/6_Ratio_750_L_24_R_18.png","img/750/equaldotsize/L/6_Ratio_750_L_24_R_18.png","img/250/equaldotsize/R/6_Ratio_250_L_6_R_24.png","img/750/equaldotsize/L/10_Ratio_750_L_4_R_3.png","img/250/equaldotsize/L/3_Ratio_250_L_8_R_2.png","img/500/equaldotanddens/R/3_Ratio_500_L_10_R_20.png","img/250/equaldotanddens/L/7_Ratio_250_L_8_R_2.png","img/250/equaldotanddens/L/7_Ratio_250_L_8_R_2.png","img/900/equaldotsize/L/8_Ratio_900_L_20_R_18.png","img/500/equaldotsize/R/6_Ratio_500_L_9_R_18.png","img/750/equaldotanddens/R/12_Ratio_750_L_3_R_4.png","img/500/equaldotsize/R/3_Ratio_500_L_10_R_20.png","img/750/equaldotsize/R/3_Ratio_750_L_15_R_20.png","img/900/randomdotsizeEA/L/10_Ratio_900_L_20_R_18.png","img/750/randomdotsizeEA/R/3_Ratio_750_L_15_R_20.png","img/250/equaldotsize/L/1_Ratio_250_L_8_R_2.png","img/250/equaldotsize/L/5_Ratio_250_L_24_R_6.png","img/900/equaldotsize/R/6_Ratio_900_L_9_R_10.png","img/500/equaldotanddens/R/6_Ratio_500_L_9_R_18.png","img/750/equaldotanddens/R/3_Ratio_750_L_15_R_20.png","img/900/equaldotanddens/L/1_Ratio_900_L_10_R_9.png","img/500/equaldotanddens/R/12_Ratio_500_L_1_R_2.png","img/900/equaldotanddens/L/2_Ratio_900_L_20_R_18.png","img/900/randomdotsizeEA/R/13_Ratio_900_L_18_R_20.png","img/900/equaldotanddens/R/15_Ratio_900_L_9_R_10.png","img/500/equaldotanddens/R/6_Ratio_500_L_9_R_18.png","img/250/randomdotsizeEA/L/15_Ratio_250_L_12_R_3.png","img/250/equaldotanddens/L/7_Ratio_250_L_8_R_2.png","img/750/randomdotsizeEA/R/12_Ratio_750_L_3_R_4.png","img/900/equaldotsize/R/7_Ratio_900_L_9_R_10.png","img/900/randomdotsizeEA/R/14_Ratio_900_L_18_R_20.png","img/750/randomdotsizeEA/L/14_Ratio_750_L_8_R_6.png","img/500/randomdotsizeEA/L/10_Ratio_500_L_4_R_2.png","img/900/equaldotsize/L/8_Ratio_900_L_20_R_18.png","img/500/equaldotsize/L/13_Ratio_500_L_12_R_6.png","img/500/equaldotsize/L/10_Ratio_500_L_4_R_2.png","img/250/equaldotanddens/L/5_Ratio_250_L_24_R_6.png","img/250/equaldotanddens/L/7_Ratio_250_L_8_R_2.png","img/250/randomdotsizeEA/R/10_Ratio_250_L_4_R_16.png","img/900/equaldotsize/R/3_Ratio_900_L_9_R_10.png","img/250/equaldotanddens/R/4_Ratio_250_L_3_R_12.png","img/500/equaldotanddens/R/1_Ratio_500_L_9_R_18.png","img/750/equaldotanddens/L/6_Ratio_750_L_24_R_18.png","img/500/randomdotsizeEA/L/7_Ratio_500_L_10_R_5.png","img/250/randomdotsizeEA/L/2_Ratio_250_L_16_R_4.png","img/500/equaldotsize/R/6_Ratio_500_L_9_R_18.png","img/250/equaldotanddens/L/2_Ratio_250_L_16_R_4.png","img/500/randomdotsizeEA/L/11_Ratio_500_L_12_R_6.png","img/250/equaldotsize/R/10_Ratio_250_L_4_R_16.png","img/750/randomdotsizeEA/R/3_Ratio_750_L_15_R_20.png","img/500/equaldotanddens/R/15_Ratio_500_L_1_R_2.png","img/250/equaldotanddens/L/1_Ratio_250_L_8_R_2.png","img/500/equaldotanddens/R/15_Ratio_500_L_1_R_2.png","img/250/randomdotsizeEA/R/10_Ratio_250_L_4_R_16.png","img/900/randomdotsizeEA/L/1_Ratio_900_L_10_R_9.png","img/750/equaldotanddens/R/7_Ratio_750_L_3_R_4.png","img/500/equaldotsize/R/2_Ratio_500_L_3_R_6.png","img/900/equaldotanddens/L/1_Ratio_900_L_10_R_9.png","img/250/equaldotsize/R/10_Ratio_250_L_4_R_16.png","img/250/randomdotsizeEA/L/2_Ratio_250_L_16_R_4.png","img/750/randomdotsizeEA/R/3_Ratio_750_L_15_R_20.png","img/250/randomdotsizeEA/R/12_Ratio_250_L_5_R_20.png","img/250/equaldotanddens/L/14_Ratio_250_L_12_R_3.png","img/750/randomdotsizeEA/R/5_Ratio_750_L_15_R_20.png","img/500/randomdotsizeEA/L/5_Ratio_500_L_4_R_2.png","img/250/randomdotsizeEA/R/8_Ratio_250_L_1_R_4.png","img/750/randomdotsizeEA/R/3_Ratio_750_L_15_R_20.png","img/500/equaldotsize/L/8_Ratio_500_L_8_R_4.png","img/750/equaldotanddens/R/4_Ratio_750_L_15_R_20.png"],"Rat0":[["12_Ratio_0_L_9_R_0.png","13_Ratio_0_L_6_R_0.png","5_Ratio_0_L_2_R_0.png","6_Ratio_0_L_4_R_0.png","8_Ratio_0_L_6_R_0.png"],["1_Ratio_0_L_0_R_17.png","10_Ratio_0_L_0_R_22.png","11_Ratio_0_L_0_R_1.png","14_Ratio_0_L_0_R_24.png","15_Ratio_0_L_0_R_4.png","2_Ratio_0_L_0_R_5.png","3_Ratio_0_L_0_R_17.png","4_Ratio_0_L_0_R_7.png","7_Ratio_0_L_0_R_19.png","9_Ratio_0_L_0_R_15.png"]],"Rat250":[["1_Ratio_250_L_8_R_2.png","14_Ratio_250_L_12_R_3.png","15_Ratio_250_L_12_R_3.png","2_Ratio_250_L_16_R_4.png","3_Ratio_250_L_8_R_2.png","5_Ratio_250_L_24_R_6.png","7_Ratio_250_L_8_R_2.png"],["10_Ratio_250_L_4_R_16.png","11_Ratio_250_L_3_R_12.png","12_Ratio_250_L_5_R_20.png","13_Ratio_250_L_2_R_8.png","4_Ratio_250_L_3_R_12.png","6_Ratio_250_L_6_R_24.png","8_Ratio_250_L_1_R_4.png","9_Ratio_250_L_3_R_12.png"]],"Rat500":[["10_Ratio_500_L_4_R_2.png","11_Ratio_500_L_12_R_6.png","13_Ratio_500_L_12_R_6.png","4_Ratio_500_L_18_R_9.png","5_Ratio_500_L_4_R_2.png","7_Ratio_500_L_10_R_5.png","8_Ratio_500_L_8_R_4.png"],["1_Ratio_500_L_9_R_18.png","12_Ratio_500_L_1_R_2.png","14_Ratio_500_L_5_R_10.png","15_Ratio_500_L_1_R_2.png","2_Ratio_500_L_3_R_6.png","3_Ratio_500_L_10_R_20.png","6_Ratio_500_L_9_R_18.png","9_Ratio_500_L_2_R_4.png"]],"Rat750":[["1_Ratio_750_L_20_R_15.png","10_Ratio_750_L_4_R_3.png","13_Ratio_750_L_8_R_6.png","14_Ratio_750_L_8_R_6.png","6_Ratio_750_L_24_R_18.png","8_Ratio_750_L_4_R_3.png","9_Ratio_750_L_4_R_3.png"],["11_Ratio_750_L_12_R_16.png","12_Ratio_750_L_3_R_4.png","15_Ratio_750_L_9_R_12.png","2_Ratio_750_L_6_R_8.png","3_Ratio_750_L_15_R_20.png","4_Ratio_750_L_15_R_20.png","5_Ratio_750_L_15_R_20.png","7_Ratio_750_L_3_R_4.png"]],"Rat900":[["1_Ratio_900_L_10_R_9.png","10_Ratio_900_L_20_R_18.png","2_Ratio_900_L_20_R_18.png","4_Ratio_900_L_20_R_18.png","8_Ratio_900_L_20_R_18.png"],["11_Ratio_900_L_18_R_20.png","12_Ratio_900_L_18_R_20.png","13_Ratio_900_L_18_R_20.png","14_Ratio_900_L_18_R_20.png","15_Ratio_900_L_9_R_10.png","3_Ratio_900_L_9_R_10.png","5_Ratio_900_L_9_R_10.png","6_Ratio_900_L_9_R_10.png","7_Ratio_900_L_9_R_10.png","9_Ratio_900_L_18_R_20.png"]],"Rat1000":[["10_Ratio_1000_L_16_R_16.png","11_Ratio_1000_L_6_R_6.png","12_Ratio_1000_L_14_R_14.png","13_Ratio_1000_L_20_R_20.png","15_Ratio_1000_L_15_R_15.png","2_Ratio_1000_L_17_R_17.png","4_Ratio_1000_L_9_R_9.png","5_Ratio_1000_L_6_R_6.png","6_Ratio_1000_L_19_R_19.png","8_Ratio_1000_L_14_R_14.png","9_Ratio_1000_L_25_R_25.png"],["1_Ratio_1000_L_1_R_1.png","14_Ratio_1000_L_17_R_17.png","3_Ratio_1000_L_17_R_17.png","7_Ratio_1000_L_6_R_6.png"]]}},{"start_time":1551801214633,"click_time":1551801215742,"finger_time":1551801215341,"fix_duration":250,"trial":1,"RT":708,"MT":401,"sideResp":2,"stimulus":"img/750/equaldotanddens/R/11_Ratio_750_L_12_R_16.png","xmouse":[800,800,800,800,800,800,800,800,800,800,800,800,800,800,800,800,800,800,800,800,800,800,800,800,800,800,800,800,800,800,800,800,800,804,810,854,898,932,979,1019,1066,1070,1071,1071,1072,1072,1071,1071,1074,1076,1079,1081,1084,1091,1099,1111],"ymouse":[490,490,490,490,490,490,490,490,490,490,490,490,490,490,490,490,490,490,490,490,490,490,490,490,490,490,490,490,490,490,490,490,490,490,490,471,441,415,382,346,306,299,293,289,283,269,257,232,216,203,179,165,153,137,120,90],"timestamp_mouse":[9,38,48,69,89,109,128,150,169,189,209,229,250,270,288,308,329,348,369,388,410,428,449,468,488,508,529,549,568,589,608,628,648,669,688,708,728,748,768,788,809,828,848,869,890,908,928,948,969,989,1009,1029,1048,1068,1089,1109],"xSR":741.5,"ySR":449.15000000000003,"xT1":424.9,"yT1":0,"xT2":1058.1,"yT2":0,"toosoon":0,"cond_shown":"equaldotanddens","ratio_trial":750,"smaller_num":"12","larger_num":"16","correct_side":2,"subjID":"anamartinez16","gender":"1","age":"11","school":"6"},{"start_time":1551801218036,"click_time":1551801220182,"finger_time":1551801218741,"fix_duration":1493.9779836152757,"trial":2,"RT":705,"MT":1441,"sideResp":2,"stimulus":"img/900/equaldotanddens/R/11_Ratio_900_L_18_R_20.png","xmouse":[776,776,776,776,776,776,776,776,776,776,776,776,776,776,776,776,776,776,776,776,776,776,776,776,776,776,776,776,776,776,776,775,790,815,834,851,852,852,852,852,861,865,867,867,867,867,867,867,867,867,867,867,867,867,867,867,867,867,867,867,867,882,895,903,906,907,907,907,907,907,907,907,907,907,907,907,907,907,907,907,911,920,931,947,968,1013,1049,1070,1087,1099,1117,1122,1123,1126,1128,1132,1133,1132,1131,1130,1130,1130,1130,1130,1130,1124,1122,1120],"ymouse":[512,512,512,512,512,512,512,512,512,512,512,512,512,512,512,512,512,512,512,512,512,512,512,512,512,512,512,512,512,512,512,512,512,507,501,494,494,494,494,494,487,484,484,484,484,484,484,484,484,484,484,484,484,484,484,484,484,484,484,484,484,484,484,484,484,484,484,484,484,484,484,484,484,484,484,484,484,484,484,484,483,481,478,471,462,432,401,374,346,323,291,278,270,258,243,209,191,162,154,149,149,149,149,148,143,122,110,93],"timestamp_mouse":[8,38,45,66,87,106,125,146,166,186,206,226,247,266,286,307,327,346,367,387,405,427,445,466,487,505,527,545,565,586,606,626,645,667,686,705,726,746,765,785,806,826,845,866,887,906,926,945,965,986,1005,1026,1046,1066,1086,1105,1125,1145,1166,1187,1205,1225,1245,1266,1286,1305,1325,1347,1366,1387,1405,1426,1445,1466,1486,1506,1525,1546,1566,1587,1605,1625,1647,1667,1685,1705,1725,1745,1765,1785,1805,1825,1846,1865,1885,1905,1925,1945,1967,1986,2007,2027,2045,2065,2085,2106,2125,2145],"xSR":741.5,"ySR":449.15000000000003,"xT1":424.9,"yT1":0,"xT2":1058.1,"yT2":0,"toosoon":0,"cond_shown":"equaldotanddens","ratio_trial":900,"smaller_num":"18","larger_num":"20","correct_side":2,"subjID":"anamartinez16","gender":"1","age":"11","school":"6"},{"start_time":1551801222301,"click_time":1551801224122,"finger_time":1551801223742,"fix_duration":1158.6381603365423,"trial":3,"RT":1441,"MT":380,"sideResp":1,"stimulus":"img/500/randomdotsizeEA/L/13_Ratio_500_L_12_R_6.png","xmouse":[795,795,795,795,795,795,795,795,795,795,795,795,795,795,795,795,795,795,795,795,795,795,795,795,795,795,795,795,795,795,795,795,795,795,795,795,795,795,795,795,795,795,795,795,795,795,795,795,795,795,795,795,795,795,795,795,795,795,795,795,795,795,795,795,795,795,795,803,807,810,817,821,822,812,796,770,754,723,705,692,678,665,640,627,613,606,598,585,573,559,540,519],"ymouse":[520,520,520,520,520,520,520,520,520,520,520,520,520,520,520,520,520,520,520,520,520,520,520,520,520,520,520,520,520,520,520,520,520,520,520,520,520,520,520,520,520,520,520,520,520,520,520,520,520,520,520,520,520,520,520,520,520,520,520,520,520,520,520,520,520,520,520,509,502,492,478,455,396,358,315,264,240,208,198,190,181,169,142,128,111,104,96,88,83,77,71,65],"timestamp_mouse":[9,20,41,61,81,102,120,140,162,182,202,221,241,262,280,301,321,342,361,381,401,420,440,460,481,500,520,540,562,581,601,620,641,660,682,700,721,741,760,782,801,821,841,861,881,900,921,941,960,981,1001,1021,1041,1062,1080,1101,1121,1140,1160,1181,1200,1220,1241,1261,1281,1300,1320,1341,1360,1380,1400,1421,1441,1461,1481,1501,1521,1541,1561,1580,1600,1620,1641,1661,1680,1701,1720,1741,1760,1780,1801,1821],"xSR":741.5,"ySR":449.15000000000003,"xT1":424.9,"yT1":0,"xT2":1058.1,"yT2":0,"toosoon":0,"cond_shown":"randomdotsizeEA","ratio_trial":500,"smaller_num":"6","larger_num":"12","correct_side":1,"subjID":"anamartinez16","gender":"1","age":"11","school":"6"},{"start_time":1551801225073,"click_time":1551801226541,"finger_time":1551801226121,"fix_duration":250,"trial":4,"RT":1048,"MT":420,"sideResp":1,"stimulus":"img/500/equaldotanddens/L/8_Ratio_500_L_8_R_4.png","xmouse":[797,797,797,797,797,797,797,797,797,797,797,797,797,797,797,797,797,797,797,797,797,797,797,797,797,797,797,797,797,797,797,797,797,797,797,797,797,797,797,797,797,797,797,797,797,797,797,797,797,797,797,797,797,788,775,769,743,725,685,672,661,651,642,618,604,586,574,565,547,542,536,530,525,506],"ymouse":[483,483,483,483,483,483,483,483,483,483,483,483,483,483,483,483,483,483,483,483,483,483,483,483,483,483,483,483,483,483,483,483,483,483,483,483,483,483,483,483,483,483,483,483,483,483,483,483,483,483,483,483,440,385,343,328,281,252,204,189,175,164,156,141,134,123,116,109,97,93,89,85,81,73],"timestamp_mouse":[9,33,50,68,89,108,128,149,169,189,208,229,248,268,288,308,329,348,368,389,410,428,448,469,489,508,528,548,569,589,609,628,649,668,688,708,728,749,768,790,810,829,848,869,889,910,928,949,969,988,1009,1029,1048,1068,1088,1110,1130,1149,1169,1189,1208,1228,1249,1269,1289,1308,1328,1348,1368,1388,1408,1428,1450,1468],"xSR":741.5,"ySR":449.15000000000003,"xT1":424.9,"yT1":0,"xT2":1058.1,"yT2":0,"toosoon":0,"cond_shown":"equaldotanddens","ratio_trial":500,"smaller_num":"4","larger_num":"8","correct_side":1,"subjID":"anamartinez16","gender":"1","age":"11","school":"6"},{"start_time":1551801228527,"click_time":1551801230581,"finger_time":1551801230182,"fix_duration":1084.0459568524118,"trial":5,"RT":1655,"MT":399,"sideResp":2,"stimulus":"img/900/randomdotsizeEA/L/1_Ratio_900_L_10_R_9.png","xmouse":[787,787,787,787,787,787,787,787,787,787,787,787,787,787,787,787,787,787,787,787,787,787,787,787,787,787,787,787,787,787,787,787,787,787,787,787,787,787,787,787,787,787,787,787,787,787,787,787,787,787,787,787,787,787,787,787,787,787,787,787,788,788,788,788,788,788,788,790,792,794,798,800,806,809,811,815,816,818,822,826,834,839,847,869,897,1019,1086,1151,1198,1226,1245,1247,1247,1247,1247,1240,1234,1229,1223,1216,1190,1174,1155],"ymouse":[468,468,468,468,468,468,468,468,468,468,468,468,468,468,468,468,468,468,468,468,468,468,468,468,468,468,468,468,468,468,468,468,468,468,468,468,468,468,468,468,468,468,468,468,468,468,468,468,468,468,468,468,468,468,468,468,468,468,471,473,475,475,475,475,475,475,475,476,476,476,476,476,476,476,476,476,476,476,476,476,476,476,476,474,462,394,356,315,279,253,215,200,195,183,176,156,145,133,117,102,70,58,48],"timestamp_mouse":[14,37,54,76,94,116,135,155,175,196,214,235,256,276,294,315,335,355,376,395,414,435,455,475,495,515,534,555,575,595,615,635,656,674,695,715,735,755,774,795,814,836,854,874,895,914,936,956,975,996,1015,1034,1055,1076,1095,1115,1134,1155,1174,1194,1215,1235,1254,1275,1295,1315,1334,1354,1375,1395,1414,1434,1454,1476,1494,1514,1534,1555,1575,1595,1614,1635,1655,1674,1696,1715,1734,1754,1775,1794,1814,1834,1854,1875,1895,1914,1934,1955,1975,1995,2015,2035,2054],"xSR":741.5,"ySR":449.15000000000003,"xT1":424.9,"yT1":0,"xT2":1058.1,"yT2":0,"toosoon":0,"cond_shown":"randomdotsizeEA","ratio_trial":900,"smaller_num":"9","larger_num":"10","correct_side":1,"subjID":"anamartinez16","gender":"1","age":"11","school":"6"},{"start_time":1551801234628,"click_time":1551801235921,"finger_time":1551801235642,"fix_duration":1285.5810785093083,"trial":6,"RT":1014,"MT":279,"sideResp":1,"stimulus":"img/900/equaldotanddens/L/1_Ratio_900_L_10_R_9.png","xmouse":[791,791,791,791,791,791,791,791,791,791,791,791,791,791,791,791,791,791,791,791,791,791,791,791,791,791,791,791,791,791,791,791,791,791,791,791,791,791,791,791,791,791,791,791,791,791,789,787,785,781,762,755,750,739,725,675,655,633,614,598,567,555,544,532,518],"ymouse":[507,507,507,507,507,507,507,507,507,507,507,507,507,507,507,507,507,507,507,507,507,507,507,507,507,507,507,507,507,507,507,507,507,507,507,507,507,507,507,507,507,507,507,507,507,507,507,492,479,456,394,365,330,289,250,167,141,112,93,79,61,54,47,40,32],"timestamp_mouse":[15,34,55,74,94,113,135,153,173,195,214,233,255,274,293,314,335,354,374,394,414,434,454,475,493,513,535,553,574,594,613,634,655,674,693,713,733,754,773,793,814,833,854,875,894,914,934,953,974,994,1014,1033,1053,1073,1094,1113,1135,1153,1175,1194,1214,1233,1253,1273,1293],"xSR":741.5,"ySR":449.15000000000003,"xT1":424.9,"yT1":0,"xT2":1058.1,"yT2":0,"toosoon":0,"cond_shown":"equaldotanddens","ratio_trial":900,"smaller_num":"9","larger_num":"10","correct_side":1,"subjID":"anamartinez16","gender":"1","age":"11","school":"6"},{"start_time":1551801238176,"click_time":1551801239382,"finger_time":1551801239022,"fix_duration":1413.0335883010484,"trial":7,"RT":846,"MT":360,"sideResp":2,"stimulus":"img/500/equaldotsize/R/2_Ratio_500_L_3_R_6.png","xmouse":[814,814,814,814,814,814,814,814,814,814,814,814,814,814,814,814,814,814,814,814,814,814,814,814,814,814,814,814,814,814,814,814,814,814,814,814,814,814,814,814,816,831,856,948,1004,1063,1115,1161,1207,1215,1217,1219,1219,1219,1217,1213,1207,1200,1176,1161,1149],"ymouse":[505,505,505,505,505,505,505,505,505,505,505,505,505,505,505,505,505,505,505,505,505,505,505,505,505,505,505,505,505,505,505,505,505,505,505,505,505,505,505,505,506,506,500,462,431,395,356,317,247,213,203,183,167,136,120,106,94,84,70,66,65],"timestamp_mouse":[9,31,47,65,86,106,125,146,165,186,206,226,246,265,286,305,326,346,365,386,406,427,446,465,486,507,527,546,566,586,605,625,645,665,685,705,726,746,765,786,805,826,846,866,885,905,926,945,965,985,1006,1027,1046,1065,1085,1105,1125,1146,1165,1186,1205],"xSR":741.5,"ySR":449.15000000000003,"xT1":424.9,"yT1":0,"xT2":1058.1,"yT2":0,"toosoon":0,"cond_shown":"equaldotsize","ratio_trial":500,"smaller_num":"3","larger_num":"6","correct_side":2,"subjID":"anamartinez16","gender":"1","age":"11","school":"6"},{"start_time":1551801240213,"click_time":1551801241722,"finger_time":1551801241402,"fix_duration":250,"trial":8,"RT":1189,"MT":320,"sideResp":1,"stimulus":"img/250/equaldotsize/L/3_Ratio_250_L_8_R_2.png","xmouse":[773,773,773,773,773,773,773,773,773,773,773,773,773,773,773,773,773,773,773,773,773,773,773,773,773,773,773,773,773,773,773,773,773,773,773,773,773,773,773,773,773,773,773,773,773,773,773,773,773,773,773,773,773,773,773,773,773,773,770,741,719,682,666,652,639,630,613,602,588,581,574,563,556,547,535,521],"ymouse":[528,528,528,528,528,528,528,528,528,528,528,528,528,528,528,528,528,528,528,528,528,528,528,528,528,528,528,528,528,528,528,528,528,528,528,528,528,528,528,528,528,528,528,528,528,528,528,528,528,528,528,528,528,528,528,528,528,502,454,385,339,275,251,233,215,196,155,135,111,103,94,80,74,66,57,49],"timestamp_mouse":[9,42,49,68,88,109,128,148,168,189,209,229,248,270,289,308,328,350,369,390,410,429,449,469,488,508,528,548,570,589,608,628,648,670,690,708,728,748,768,789,808,829,848,870,888,908,929,949,970,988,1008,1029,1048,1069,1088,1109,1128,1149,1169,1189,1209,1228,1248,1268,1289,1309,1328,1349,1368,1388,1408,1429,1448,1468,1488,1509],"xSR":741.5,"ySR":449.15000000000003,"xT1":424.9,"yT1":0,"xT2":1058.1,"yT2":0,"toosoon":0,"cond_shown":"equaldotsize","ratio_trial":250,"smaller_num":"2","larger_num":"8","correct_side":1,"subjID":"anamartinez16","gender":"1","age":"11","school":"6"},{"start_time":1551801243215,"click_time":1551801244842,"finger_time":1551801244541,"fix_duration":830.2675185839433,"trial":9,"RT":1326,"MT":301,"sideResp":1,"stimulus":"img/900/randomdotsizeEA/R/9_Ratio_900_L_18_R_20.png","xmouse":[808,808,808,808,808,808,808,808,808,808,808,808,808,808,808,808,808,808,808,808,808,808,808,808,808,808,808,808,808,808,808,808,808,808,808,808,808,808,808,808,808,808,808,808,808,808,808,808,808,808,808,808,808,808,808,808,808,808,808,808,808,808,808,808,808,810,843,871,876,872,847,793,769,747,727,706,658,634,588,561,539,501],"ymouse":[522,522,522,522,522,522,522,522,522,522,522,522,522,522,522,522,522,522,522,522,522,522,522,522,522,522,522,522,522,522,522,522,522,522,522,522,522,522,522,522,522,522,522,522,522,522,522,522,522,522,522,522,522,522,522,522,522,522,522,522,522,522,522,522,521,520,447,362,336,265,226,175,157,143,130,119,93,79,54,43,34,23],"timestamp_mouse":[9,40,47,68,87,107,126,146,166,187,207,228,247,266,286,307,327,347,368,387,407,427,447,466,488,508,527,548,566,587,606,626,647,666,687,708,726,747,767,787,806,826,848,866,886,907,927,948,967,986,1007,1026,1046,1067,1086,1107,1126,1147,1166,1186,1207,1226,1247,1267,1286,1306,1326,1348,1367,1387,1406,1427,1447,1466,1486,1508,1526,1547,1566,1587,1607,1627],"xSR":741.5,"ySR":449.15000000000003,"xT1":424.9,"yT1":0,"xT2":1058.1,"yT2":0,"toosoon":0,"cond_shown":"randomdotsizeEA","ratio_trial":900,"smaller_num":"18","larger_num":"20","correct_side":2,"subjID":"anamartinez16","gender":"1","age":"11","school":"6"},{"start_time":1551801247176,"click_time":1551801248701,"finger_time":1551801248421,"fix_duration":1193.0898910177555,"trial":10,"RT":1245,"MT":280,"sideResp":1,"stimulus":"img/750/equaldotsize/L/8_Ratio_750_L_4_R_3.png","xmouse":[757,757,757,757,757,757,757,757,757,757,757,757,757,757,757,757,757,757,757,757,757,757,757,757,757,757,757,757,757,757,757,757,757,757,757,757,757,757,757,757,757,757,757,757,757,757,757,757,757,757,757,757,757,757,757,757,757,757,757,757,757,757,745,721,710,695,684,676,656,643,622,607,589,558,542,529,517],"ymouse":[493,493,493,493,493,493,493,493,493,493,493,493,493,493,493,493,493,493,493,493,493,493,493,493,493,493,493,493,493,493,493,493,493,493,493,493,493,493,493,493,493,493,493,493,493,493,493,493,493,493,493,493,493,493,493,493,493,493,493,493,493,488,448,339,283,229,188,157,119,102,79,65,49,23,15,10,7],"timestamp_mouse":[8,38,46,66,86,106,125,145,166,185,207,225,246,266,285,306,325,346,366,386,407,426,445,466,487,505,525,545,565,585,606,625,645,666,686,705,726,745,765,786,806,827,845,865,886,906,926,945,967,985,1005,1025,1047,1065,1086,1105,1126,1146,1169,1186,1205,1227,1245,1265,1285,1305,1325,1346,1365,1385,1405,1425,1446,1465,1485,1505,1525],"xSR":741.5,"ySR":449.15000000000003,"xT1":424.9,"yT1":0,"xT2":1058.1,"yT2":0,"toosoon":0,"cond_shown":"equaldotsize","ratio_trial":750,"smaller_num":"3","larger_num":"4","correct_side":1,"subjID":"anamartinez16","gender":"1","age":"11","school":"6"},{"start_time":1551801250069,"click_time":1551801251281,"finger_time":1551801250922,"fix_duration":687.4698760007958,"trial":11,"RT":853,"MT":359,"sideResp":2,"stimulus":"img/500/randomdotsizeEA/R/3_Ratio_500_L_10_R_20.png","xmouse":[769,769,769,769,769,769,769,769,769,769,769,769,769,769,769,769,769,769,769,769,769,769,769,769,769,769,769,769,769,769,769,769,769,769,769,769,769,769,769,769,777,814,889,1059,1133,1214,1249,1263,1269,1269,1269,1269,1269,1269,1265,1257,1247,1232,1183,1161,1139],"ymouse":[500,500,500,500,500,500,500,500,500,500,500,500,500,500,500,500,500,500,500,500,500,500,500,500,500,500,500,500,500,500,500,500,500,500,500,500,500,500,500,500,500,476,433,319,266,199,168,148,107,91,78,68,59,41,35,29,26,24,24,24,24],"timestamp_mouse":[12,40,52,74,93,112,134,154,172,194,213,233,252,272,293,313,333,352,373,393,414,433,452,474,492,512,532,553,572,592,612,632,652,672,692,712,733,753,773,792,814,832,853,872,893,912,933,952,972,992,1013,1032,1053,1072,1093,1112,1132,1153,1173,1192,1212],"xSR":741.5,"ySR":449.15000000000003,"xT1":424.9,"yT1":0,"xT2":1058.1,"yT2":0,"toosoon":0,"cond_shown":"randomdotsizeEA","ratio_trial":500,"smaller_num":"10","larger_num":"20","correct_side":2,"subjID":"anamartinez16","gender":"1","age":"11","school":"6"},{"start_time":1551801252649,"click_time":1551801254342,"finger_time":1551801253941,"fix_duration":866.6380363354355,"trial":12,"RT":1292,"MT":401,"sideResp":2,"stimulus":"img/250/randomdotsizeEA/L/7_Ratio_250_L_8_R_2.png","xmouse":[787,787,787,787,787,787,787,787,787,787,787,787,787,787,787,787,787,787,787,787,787,787,787,787,787,787,787,787,787,787,787,787,787,787,787,787,787,787,787,787,787,787,787,787,787,787,787,787,787,787,787,787,787,787,787,787,787,787,787,787,787,787,788,796,897,991,1098,1249,1321,1381,1388,1389,1388,1383,1369,1348,1338,1309,1291,1253,1233,1211,1190,1169,1127],"ymouse":[505,505,505,505,505,505,505,505,505,505,505,505,505,505,505,505,505,505,505,505,505,505,505,505,505,505,505,505,505,505,505,505,505,505,505,505,505,505,505,505,505,505,505,505,505,505,505,505,505,505,505,505,505,505,505,505,505,505,505,505,505,505,504,500,461,422,375,299,260,207,189,177,163,150,126,106,101,87,80,73,71,70,70,70,70],"timestamp_mouse":[13,40,53,73,92,113,132,152,174,192,213,232,252,272,292,312,332,353,372,393,414,433,454,472,492,513,532,554,572,592,613,634,652,672,693,714,732,752,773,793,812,833,853,873,892,913,933,952,972,992,1012,1033,1052,1072,1093,1113,1134,1152,1173,1193,1212,1233,1252,1272,1292,1312,1333,1353,1372,1393,1413,1432,1453,1472,1493,1512,1533,1554,1572,1592,1612,1632,1653,1672,1693],"xSR":741.5,"ySR":449.15000000000003,"xT1":424.9,"yT1":0,"xT2":1058.1,"yT2":0,"toosoon":0,"cond_shown":"randomdotsizeEA","ratio_trial":250,"smaller_num":"2","larger_num":"8","correct_side":1,"subjID":"anamartinez16","gender":"1","age":"11","school":"6"},{"start_time":1551801257276,"click_time":1551801259002,"finger_time":1551801258542,"fix_duration":1393.1425889773832,"trial":13,"RT":1266,"MT":460,"sideResp":2,"stimulus":"img/750/equaldotsize/R/5_Ratio_750_L_15_R_20.png","xmouse":[794,794,794,794,794,794,794,794,794,794,794,794,794,794,794,794,794,794,794,794,794,794,794,794,794,794,794,794,794,794,794,794,794,794,794,794,794,794,794,794,794,794,794,794,794,794,794,794,794,794,794,794,794,794,794,794,794,794,794,794,794,794,803,828,855,876,913,938,987,1001,1010,1015,1017,1021,1024,1026,1027,1029,1032,1033,1033,1034,1036,1044,1050,1061,1072],"ymouse":[465,465,465,465,465,465,465,465,465,465,465,465,465,465,465,465,465,465,465,465,465,465,465,465,465,465,465,465,465,465,465,465,465,465,465,465,465,465,465,465,465,465,465,465,465,465,465,465,465,465,465,465,465,465,465,465,465,465,465,465,465,465,458,440,422,407,367,327,253,237,226,218,215,204,196,181,170,159,145,140,136,132,129,117,110,102,94],"timestamp_mouse":[8,38,46,65,87,105,125,147,165,186,207,225,245,266,286,305,325,346,365,387,406,426,445,466,485,505,525,545,567,585,606,625,645,665,685,707,725,747,766,785,806,825,847,865,886,905,926,945,965,985,1005,1026,1045,1065,1085,1106,1125,1145,1165,1186,1205,1225,1246,1265,1286,1305,1326,1346,1366,1386,1405,1426,1446,1465,1486,1505,1526,1546,1565,1585,1605,1625,1646,1665,1686,1705,1725],"xSR":741.5,"ySR":449.15000000000003,"xT1":424.9,"yT1":0,"xT2":1058.1,"yT2":0,"toosoon":0,"cond_shown":"equaldotsize","ratio_trial":750,"smaller_num":"15","larger_num":"20","correct_side":2,"subjID":"anamartinez16","gender":"1","age":"11","school":"6"},{"start_time":1551801260466,"click_time":1551801261641,"finger_time":1551801261162,"fix_duration":663.6595237555923,"trial":14,"RT":696,"MT":479,"sideResp":2,"stimulus":"img/500/equaldotsize/R/1_Ratio_500_L_9_R_18.png","xmouse":[784,784,784,784,784,784,784,784,784,784,784,784,784,784,784,784,784,784,784,784,784,784,784,784,784,784,784,784,784,784,784,784,784,786,848,896,938,967,1015,1040,1067,1088,1097,1110,1111,1118,1123,1127,1139,1142,1146,1147,1149,1150,1150,1150,1150,1149,1143],"ymouse":[503,503,503,503,503,503,503,503,503,503,503,503,503,503,503,503,503,503,503,503,503,503,503,503,503,503,503,503,503,503,503,503,503,501,445,406,373,351,307,280,256,239,232,224,222,216,210,205,186,179,172,166,160,147,138,126,115,105,90],"timestamp_mouse":[16,40,56,75,95,115,135,157,175,196,216,235,257,277,295,316,336,356,375,395,415,436,455,475,495,517,535,555,576,595,617,635,655,675,696,715,736,756,775,795,816,836,856,875,895,915,935,956,976,996,1016,1036,1056,1075,1096,1115,1136,1156,1175],"xSR":741.5,"ySR":449.15000000000003,"xT1":424.9,"yT1":0,"xT2":1058.1,"yT2":0,"toosoon":0,"cond_shown":"equaldotsize","ratio_trial":500,"smaller_num":"9","larger_num":"18","correct_side":2,"subjID":"anamartinez16","gender":"1","age":"11","school":"6"},{"start_time":1551801263120,"click_time":1551801264781,"finger_time":1551801264241,"fix_duration":776.4458824053162,"trial":15,"RT":1121,"MT":540,"sideResp":2,"stimulus":"img/250/randomdotsizeEA/R/9_Ratio_250_L_3_R_12.png","xmouse":[780,780,780,780,780,780,780,780,780,780,780,780,780,780,780,780,780,780,780,780,780,780,780,780,780,780,780,780,780,780,780,780,780,780,780,780,780,780,780,780,780,780,780,780,780,780,780,780,780,780,780,780,780,782,800,818,866,887,905,923,944,992,1013,1042,1058,1075,1110,1121,1130,1142,1153,1166,1170,1175,1177,1177,1177,1175,1174,1171,1170,1164,1159,1143],"ymouse":[527,527,527,527,527,527,527,527,527,527,527,527,527,527,527,527,527,527,527,527,527,527,527,527,527,527,527,527,527,527,527,527,527,527,527,527,527,527,527,527,527,527,527,527,527,527,527,527,527,527,527,527,527,527,522,513,492,484,476,468,457,426,410,384,366,343,290,267,246,217,189,142,127,107,96,86,71,64,59,53,50,45,44,43],"timestamp_mouse":[8,21,43,62,81,101,123,142,161,182,202,222,242,263,283,302,321,341,363,382,402,421,441,462,483,502,521,542,562,582,601,622,642,662,681,701,721,742,762,781,802,822,842,862,882,903,921,941,962,981,1002,1021,1042,1061,1082,1102,1121,1141,1163,1182,1202,1222,1242,1261,1281,1301,1321,1341,1361,1381,1403,1421,1441,1461,1482,1501,1521,1542,1561,1582,1602,1621,1643,1661],"xSR":741.5,"ySR":449.15000000000003,"xT1":424.9,"yT1":0,"xT2":1058.1,"yT2":0,"toosoon":0,"cond_shown":"randomdotsizeEA","ratio_trial":250,"smaller_num":"3","larger_num":"12","correct_side":2,"subjID":"anamartinez16","gender":"1","age":"11","school":"6"},{"start_time":1551801266918,"click_time":1551801268123,"finger_time":1551801267841,"fix_duration":1456.0799095243085,"trial":16,"RT":923,"MT":282,"sideResp":1,"stimulus":"img/500/randomdotsizeEA/L/10_Ratio_500_L_4_R_2.png","xmouse":[813,813,813,813,813,813,813,813,813,813,813,813,813,813,813,813,813,813,813,813,813,813,813,813,813,813,813,813,813,813,813,813,813,813,813,813,813,813,813,813,813,813,813,813,813,812,812,804,781,749,718,653,626,619,605,596,570,556,541,531,520],"ymouse":[532,532,532,532,532,532,532,532,532,532,532,532,532,532,532,532,532,532,532,532,532,532,532,532,532,532,532,532,532,532,532,532,532,532,532,532,532,532,532,532,532,532,532,532,532,529,419,359,303,252,219,177,165,162,154,149,132,122,111,103,94],"timestamp_mouse":[9,38,43,63,83,104,124,143,164,183,207,223,245,264,283,303,325,344,364,383,403,425,443,465,484,503,523,543,564,583,603,625,644,663,685,703,723,743,765,784,803,823,845,865,883,903,923,943,964,983,1005,1024,1043,1063,1085,1104,1123,1144,1163,1183,1205],"xSR":741.5,"ySR":449.15000000000003,"xT1":424.9,"yT1":0,"xT2":1058.1,"yT2":0,"toosoon":0,"cond_shown":"randomdotsizeEA","ratio_trial":500,"smaller_num":"2","larger_num":"4","correct_side":1,"subjID":"anamartinez16","gender":"1","age":"11","school":"6"},{"start_time":1551801269233,"click_time":1551801270542,"finger_time":1551801270041,"fix_duration":270.79659482054575,"trial":17,"RT":808,"MT":501,"sideResp":2,"stimulus":"img/250/equaldotsize/R/13_Ratio_250_L_2_R_8.png","xmouse":[806,806,806,806,806,806,806,806,806,806,806,806,806,806,806,806,806,806,806,806,806,806,806,806,806,806,806,806,806,806,806,806,806,806,806,806,806,806,806,806,847,968,1113,1232,1326,1454,1472,1477,1476,1468,1453,1445,1437,1428,1420,1398,1385,1360,1342,1321,1278,1254,1227,1199,1166,1106],"ymouse":[498,498,498,498,498,498,498,498,498,498,498,498,498,498,498,498,498,498,498,498,498,498,498,498,498,498,498,498,498,498,498,498,498,498,498,498,498,498,498,498,498,498,484,484,479,444,428,404,372,330,249,224,203,182,163,129,114,98,91,82,76,73,68,67,67,66],"timestamp_mouse":[9,37,50,68,89,108,130,148,169,188,208,228,248,268,288,309,328,350,369,389,408,429,448,468,489,508,529,550,569,588,609,628,648,670,689,709,728,750,769,788,808,828,849,869,888,908,929,948,968,988,1008,1028,1048,1068,1089,1108,1128,1148,1168,1188,1209,1228,1249,1268,1289,1309],"xSR":741.5,"ySR":449.15000000000003,"xT1":424.9,"yT1":0,"xT2":1058.1,"yT2":0,"toosoon":0,"cond_shown":"equaldotsize","ratio_trial":250,"smaller_num":"2","larger_num":"8","correct_side":2,"subjID":"anamartinez16","gender":"1","age":"11","school":"6"},{"start_time":1551801271699,"click_time":1551801272981,"finger_time":1551801272602,"fix_duration":414.1585641288484,"trial":18,"RT":903,"MT":379,"sideResp":1,"stimulus":"img/750/equaldotsize/R/15_Ratio_750_L_9_R_12.png","xmouse":[781,781,781,781,781,781,781,781,781,781,781,781,781,781,781,781,781,781,781,781,781,781,781,781,781,781,781,781,781,781,781,781,781,781,781,781,781,781,781,781,781,781,781,795,810,821,828,831,831,826,819,810,789,777,754,739,723,687,671,652,632,611,567,546,512],"ymouse":[488,488,488,488,488,488,488,488,488,488,488,488,488,488,488,488,488,488,488,488,488,488,488,488,488,488,488,488,488,488,488,488,488,488,488,488,488,488,488,488,488,488,488,474,451,430,412,370,346,323,300,277,232,210,178,159,144,120,109,99,91,82,63,54,43],"timestamp_mouse":[9,23,52,63,82,102,123,142,162,182,202,222,244,262,282,302,323,343,362,382,402,422,442,464,482,504,522,542,563,583,603,623,642,662,683,702,723,742,764,783,802,823,842,862,882,903,923,943,962,983,1003,1023,1042,1063,1082,1102,1122,1142,1162,1182,1203,1224,1242,1263,1282],"xSR":741.5,"ySR":449.15000000000003,"xT1":424.9,"yT1":0,"xT2":1058.1,"yT2":0,"toosoon":0,"cond_shown":"equaldotsize","ratio_trial":750,"smaller_num":"9","larger_num":"12","correct_side":2,"subjID":"anamartinez16","gender":"1","age":"11","school":"6"},{"start_time":1551801274159,"click_time":1551801279023,"finger_time":1551801276681,"fix_duration":455.77707512871046,"trial":19,"RT":2522,"MT":2342,"sideResp":2,"stimulus":"img/250/equaldotsize/R/8_Ratio_250_L_1_R_4.png","xmouse":[767,767,767,767,767,767,767,767,767,767,767,767,767,767,767,767,767,767,767,767,767,767,767,767,767,767,767,767,767,767,767,767,767,767,767,767,767,767,767,767,767,767,767,767,767,767,767,767,767,767,767,767,767,767,767,767,767,767,767,767,767,767,767,767,767,767,767,767,767,767,767,767,767,767,768,773,776,778,780,781,781,781,781,781,782,783,784,784,784,784,784,784,784,784,784,784,784,784,784,784,784,784,784,784,784,784,784,784,784,784,784,785,788,794,805,807,808,809,810,814,817,821,822,824,833,841,852,868,887,936,985,1035,1093,1144,1218,1240,1250,1255,1255,1250,1223,1211,1162,1119,1014,965,916,879,843,798,793,784,773,768,758,756,755,754,754,754,754,754,754,754,757,759,764,770,779,806,832,841,864,877,894,895,895,896,896,882,873,851,818,803,795,795,795,794,794,799,803,811,818,821,821,821,819,815,801,772,764,764,764,768,849,956,1117,1276,1409,1517,1582,1582,1582,1582,1567,1556,1545,1534,1520,1496,1487,1486,1485,1485,1485,1485,1485,1485,1485,1484,1469,1453,1427,1391,1336,1325,1314,1300,1290,1278,1278,1278,1278,1122],"ymouse":[516,516,516,516,516,516,516,516,516,516,516,516,516,516,516,516,516,516,516,516,516,516,516,516,516,516,516,516,516,516,516,516,516,516,516,516,516,516,516,516,516,516,516,516,516,516,516,516,516,516,516,516,516,516,516,516,516,516,516,516,516,516,516,516,516,516,516,516,516,516,516,516,516,516,516,513,508,505,500,498,498,498,498,498,498,498,499,499,499,500,500,500,500,500,500,500,500,500,500,500,500,500,500,500,500,500,500,500,500,500,500,500,500,497,493,492,491,491,490,488,487,486,486,486,486,486,486,486,486,486,486,484,475,469,454,448,444,441,440,435,429,428,421,417,412,412,412,419,430,450,454,460,470,476,491,497,503,508,511,516,517,519,520,521,523,525,526,527,530,533,533,533,531,527,520,519,519,518,514,491,487,478,471,469,469,469,469,472,479,490,492,496,497,497,497,497,497,497,497,497,498,498,498,498,496,474,432,389,351,319,300,300,300,300,248,239,231,225,222,216,213,212,211,211,211,211,211,211,211,211,185,154,118,83,44,35,25,14,8,2,2,2,2,1],"timestamp_mouse":[11,32,42,63,82,104,122,142,162,183,202,222,242,262,282,302,323,343,362,383,402,422,443,462,482,503,522,542,562,583,602,622,642,663,682,703,722,744,762,783,802,823,842,863,882,902,922,943,962,983,1004,1023,1042,1062,1082,1102,1122,1144,1163,1183,1202,1223,1243,1262,1283,1302,1323,1342,1362,1382,1402,1422,1444,1462,1482,1502,1523,1542,1563,1583,1603,1623,1643,1662,1683,1702,1722,1742,1763,1782,1803,1823,1842,1862,1883,1902,1922,1942,1963,1983,2003,2022,2042,2063,2083,2103,2123,2142,2162,2182,2204,2223,2244,2263,2282,2302,2322,2344,2362,2382,2403,2422,2442,2463,2482,2502,2522,2543,2563,2582,2602,2622,2642,2662,2683,2702,2723,2742,2762,2782,2802,2823,2842,2863,2882,2903,2922,2943,2964,2983,3003,3023,3043,3063,3082,3102,3124,3143,3162,3182,3204,3222,3242,3263,3282,3302,3323,3343,3363,3382,3402,3422,3443,3462,3483,3502,3522,3543,3563,3583,3603,3623,3643,3663,3694,3702,3722,3742,3764,3782,3803,3822,3843,3863,3882,3903,3923,3942,3962,3982,4003,4023,4042,4062,4083,4102,4122,4143,4163,4182,4202,4222,4242,4262,4283,4303,4322,4342,4363,4382,4402,4423,4442,4463,4483,4503,4524,4543,4563,4582,4603,4622,4643,4662,4683,4702,4722,4743,4763,4782,4802,4823,4843,4864],"xSR":741.5,"ySR":449.15000000000003,"xT1":424.9,"yT1":0,"xT2":1058.1,"yT2":0,"toosoon":0,"cond_shown":"equaldotsize","ratio_trial":250,"smaller_num":"1","larger_num":"4","correct_side":2,"subjID":"anamartinez16","gender":"1","age":"11","school":"6"},{"start_time":1551801281066,"click_time":1551801282461,"finger_time":1551801281882,"fix_duration":1164.4314773361086,"trial":20,"RT":816,"MT":579,"sideResp":1,"stimulus":"img/900/randomdotsizeEA/L/8_Ratio_900_L_20_R_18.png","xmouse":[823,823,823,823,823,823,823,823,823,823,823,823,823,823,823,823,823,823,823,823,823,823,823,823,823,823,823,823,823,823,823,823,823,823,823,823,823,823,823,836,873,932,983,1022,1024,1010,963,919,832,804,804,804,804,804,804,804,804,804,804,804,804,804,423,409,407,407,407,408,421,428],"ymouse":[470,470,470,470,470,470,470,470,470,470,470,470,470,470,470,470,470,470,470,470,470,470,470,470,470,470,470,470,470,470,470,470,470,470,470,470,470,470,470,461,438,400,356,274,234,182,107,66,13,3,3,3,3,3,3,3,3,3,3,3,3,3,3,20,30,35,42,49,66,69],"timestamp_mouse":[15,40,55,76,96,116,137,156,176,196,216,235,257,276,295,316,337,355,375,396,415,436,455,477,495,517,535,555,575,595,616,635,655,676,696,715,736,756,776,795,816,836,857,875,895,915,936,956,976,996,1015,1036,1056,1076,1095,1115,1135,1155,1176,1196,1226,1236,1255,1275,1295,1315,1337,1356,1376,1395],"xSR":741.5,"ySR":449.15000000000003,"xT1":424.9,"yT1":0,"xT2":1058.1,"yT2":0,"toosoon":0,"cond_shown":"randomdotsizeEA","ratio_trial":900,"smaller_num":"18","larger_num":"20","correct_side":1,"subjID":"anamartinez16","gender":"1","age":"11","school":"6"},{"start_time":1551801284152,"click_time":1551801285821,"finger_time":1551801285261,"fix_duration":669.903511987055,"trial":21,"RT":1109,"MT":560,"sideResp":1,"stimulus":"img/900/randomdotsizeEA/R/6_Ratio_900_L_9_R_10.png","xmouse":[771,771,771,771,771,771,771,771,771,771,771,771,771,771,771,771,771,771,771,771,771,771,771,771,771,771,771,771,771,771,771,771,771,771,771,771,771,771,771,771,771,771,771,771,771,771,771,771,771,771,771,771,771,771,756,734,693,644,607,561,542,520,503,486,452,438,429,425,421,414,405,401,393,387,385,385,385,390,394,400,402,410,422,434],"ymouse":[516,516,516,516,516,516,516,516,516,516,516,516,516,516,516,516,516,516,516,516,516,516,516,516,516,516,516,516,516,516,516,516,516,516,516,516,516,516,516,516,516,516,516,516,516,516,516,516,516,516,516,516,516,516,514,506,489,467,452,428,414,393,374,353,312,291,268,245,221,180,147,140,119,108,103,99,91,82,72,63,61,61,61,61],"timestamp_mouse":[9,35,51,69,90,111,130,149,171,190,209,230,250,270,289,309,329,349,369,390,410,430,449,470,490,509,529,550,570,589,609,629,651,669,690,709,729,749,769,790,810,830,849,869,890,909,931,950,970,989,1009,1029,1049,1069,1089,1109,1129,1149,1169,1189,1210,1229,1250,1269,1290,1309,1329,1349,1370,1389,1410,1429,1450,1470,1490,1509,1529,1549,1570,1589,1610,1629,1649,1669],"xSR":741.5,"ySR":449.15000000000003,"xT1":424.9,"yT1":0,"xT2":1058.1,"yT2":0,"toosoon":0,"cond_shown":"randomdotsizeEA","ratio_trial":900,"smaller_num":"9","larger_num":"10","correct_side":2,"subjID":"anamartinez16","gender":"1","age":"11","school":"6"},{"start_time":1551801288153,"click_time":1551801289642,"finger_time":1551801289121,"fix_duration":1469.8189447279894,"trial":22,"RT":968,"MT":521,"sideResp":1,"stimulus":"img/500/randomdotsizeEA/L/13_Ratio_500_L_12_R_6.png","xmouse":[803,803,803,803,803,803,803,803,803,803,803,803,803,803,803,803,803,803,803,803,803,803,803,803,803,803,803,803,803,803,803,803,803,803,803,803,803,803,803,803,803,803,803,803,803,803,803,798,789,722,675,579,528,496,448,429,406,383,360,330,325,323,323,324,331,331,332,333,335,340,348,369,388,409,455],"ymouse":[482,482,482,482,482,482,482,482,482,482,482,482,482,482,482,482,482,482,482,482,482,482,482,482,482,482,482,482,482,482,482,482,482,482,482,482,482,482,482,482,482,482,482,482,482,482,482,464,444,348,303,243,223,211,200,198,195,192,188,176,171,162,142,129,104,98,93,89,85,79,75,70,68,65,62],"timestamp_mouse":[8,37,50,68,88,108,128,148,168,189,208,228,248,268,289,308,330,348,370,389,409,429,449,468,489,509,528,550,568,588,608,630,649,668,688,708,728,749,769,788,809,828,849,869,889,910,928,948,968,988,1008,1028,1048,1068,1089,1108,1128,1149,1168,1188,1208,1229,1248,1268,1288,1308,1329,1349,1368,1389,1409,1428,1448,1468,1489],"xSR":741.5,"ySR":449.15000000000003,"xT1":424.9,"yT1":0,"xT2":1058.1,"yT2":0,"toosoon":0,"cond_shown":"randomdotsizeEA","ratio_trial":500,"smaller_num":"6","larger_num":"12","correct_side":1,"subjID":"anamartinez16","gender":"1","age":"11","school":"6"},{"start_time":1551801292671,"click_time":1551801293981,"finger_time":1551801293501,"fix_duration":1109.7873276222724,"trial":23,"RT":830,"MT":480,"sideResp":2,"stimulus":"img/750/equaldotsize/R/5_Ratio_750_L_15_R_20.png","xmouse":[798,798,798,798,798,798,798,798,798,798,798,798,798,798,798,798,798,798,798,798,798,798,798,798,798,798,798,798,798,798,798,798,798,798,798,798,798,800,810,823,836,854,873,918,956,991,1047,1104,1207,1254,1287,1303,1311,1315,1317,1324,1326,1327,1322,1314,1306,1296,1279,1228,1196,1146],"ymouse":[514,514,514,514,514,514,514,514,514,514,514,514,514,514,514,514,514,514,514,514,514,514,514,514,514,514,514,514,514,514,514,514,514,514,514,514,514,513,511,508,506,504,500,492,475,461,428,386,296,244,199,171,151,117,100,76,65,57,49,47,47,47,47,61,74,95],"timestamp_mouse":[10,34,51,70,91,111,132,151,170,191,210,231,250,271,290,311,332,350,370,390,410,431,451,470,490,511,531,550,571,590,610,632,651,670,691,711,731,750,770,790,810,830,851,871,891,910,930,950,970,990,1011,1030,1051,1070,1090,1110,1132,1151,1171,1191,1211,1230,1250,1270,1290,1310],"xSR":741.5,"ySR":449.15000000000003,"xT1":424.9,"yT1":0,"xT2":1058.1,"yT2":0,"toosoon":0,"cond_shown":"equaldotsize","ratio_trial":750,"smaller_num":"15","larger_num":"20","correct_side":2,"subjID":"anamartinez16","gender":"1","age":"11","school":"6"},{"start_time":1551801295276,"click_time":1551801297941,"finger_time":1551801297541,"fix_duration":533.4352549037642,"trial":24,"RT":2265,"MT":400,"sideResp":2,"stimulus":"img/500/equaldotsize/L/7_Ratio_500_L_10_R_5.png","xmouse":[770,770,770,770,770,770,770,770,770,770,770,770,770,770,770,770,770,770,770,770,770,770,770,770,770,770,770,770,770,770,770,770,770,770,770,770,770,770,770,770,770,770,770,770,770,770,770,770,770,770,770,770,770,770,770,770,770,770,770,770,770,770,770,770,770,770,770,770,770,770,770,770,770,770,770,770,770,770,770,770,770,770,770,770,770,770,770,770,770,770,770,770,770,770,770,770,770,770,770,770,770,770,770,770,770,770,770,770,770,770,776,788,815,900,910,932,944,964,1031,1066,1088,1103,1115,1130,1133,1134,1134,1134,1134,1131,1128,1122,1113,1096],"ymouse":[499,499,499,499,499,499,499,499,499,499,499,499,499,499,499,499,499,499,499,499,499,499,499,499,499,499,499,499,499,499,499,499,499,499,499,499,499,499,499,499,499,499,499,499,499,499,499,499,499,499,499,499,499,499,499,499,499,499,499,499,499,499,499,499,499,499,499,499,499,499,499,499,499,499,499,499,499,499,499,499,499,499,499,499,499,499,499,499,499,499,499,499,499,499,499,499,499,499,499,499,499,499,499,499,499,499,499,499,499,499,499,494,481,434,425,397,378,357,306,275,251,229,207,169,153,139,134,131,128,125,123,119,110,92],"timestamp_mouse":[8,37,46,67,85,107,126,146,165,187,205,225,245,265,287,306,327,346,366,386,406,425,445,465,486,507,525,545,567,586,606,626,646,665,686,705,727,745,765,785,806,825,846,865,885,905,926,945,965,986,1005,1025,1045,1066,1085,1105,1125,1145,1166,1186,1206,1226,1245,1266,1286,1305,1326,1345,1365,1385,1405,1426,1445,1465,1485,1506,1525,1546,1566,1585,1605,1625,1646,1665,1685,1706,1727,1746,1766,1786,1807,1827,1846,1865,1886,1905,1925,1947,1965,1985,2006,2026,2045,2067,2085,2107,2125,2145,2166,2185,2206,2225,2245,2265,2286,2305,2325,2346,2366,2385,2405,2426,2446,2465,2486,2505,2527,2545,2565,2585,2605,2625,2646,2665],"xSR":741.5,"ySR":449.15000000000003,"xT1":424.9,"yT1":0,"xT2":1058.1,"yT2":0,"toosoon":0,"cond_shown":"equaldotsize","ratio_trial":500,"smaller_num":"5","larger_num":"10","correct_side":1,"subjID":"anamartinez16","gender":"1","age":"11","school":"6"},{"start_time":1551801301319,"click_time":1551801302702,"finger_time":1551801302061,"fix_duration":1076.6117839066424,"trial":25,"RT":742,"MT":641,"sideResp":1,"stimulus":"img/500/equaldotanddens/L/7_Ratio_500_L_10_R_5.png","xmouse":[803,803,803,803,803,803,803,803,803,803,803,803,803,803,803,803,803,803,803,803,803,803,803,803,803,803,803,803,803,803,803,803,803,803,803,802,786,771,756,726,677,535,463,400,324,293,262,245,225,206,185,155,149,149,150,156,178,193,211,229,249,289,313,319,338,350,381,396,412,431],"ymouse":[508,508,508,508,508,508,508,508,508,508,508,508,508,508,508,508,508,508,508,508,508,508,508,508,508,508,508,508,508,508,508,508,508,508,508,507,465,445,430,409,379,308,277,256,230,217,203,195,188,179,167,140,122,103,89,79,62,58,54,52,52,52,52,52,52,52,52,52,52,52],"timestamp_mouse":[8,36,43,63,82,103,122,142,162,183,202,222,242,262,284,302,322,343,362,382,402,422,444,462,482,504,522,544,562,582,603,622,642,663,684,702,722,742,763,787,803,822,843,862,884,903,923,942,962,983,1003,1023,1042,1062,1082,1103,1123,1142,1163,1183,1204,1222,1242,1262,1284,1303,1323,1342,1363,1383],"xSR":741.5,"ySR":449.15000000000003,"xT1":424.9,"yT1":0,"xT2":1058.1,"yT2":0,"toosoon":0,"cond_shown":"equaldotanddens","ratio_trial":500,"smaller_num":"5","larger_num":"10","correct_side":1,"subjID":"anamartinez16","gender":"1","age":"11","school":"6"},{"start_time":1551801304606,"click_time":1551801305781,"finger_time":1551801305361,"fix_duration":1044.2945786828423,"trial":26,"RT":755,"MT":420,"sideResp":2,"stimulus":"img/750/randomdotsizeEA/L/10_Ratio_750_L_4_R_3.png","xmouse":[768,768,768,768,768,768,768,768,768,768,768,768,768,768,768,768,768,768,768,768,767,767,767,767,767,767,767,767,767,767,767,767,767,767,767,768,832,952,1002,1145,1222,1303,1323,1335,1338,1338,1330,1324,1314,1306,1296,1278,1265,1249,1229,1214,1190,1179,1151],"ymouse":[522,522,522,522,522,522,522,522,522,522,522,522,522,522,522,522,522,522,522,522,521,521,521,521,521,521,521,521,521,521,521,521,521,521,521,520,520,507,500,463,438,388,360,326,299,273,236,223,205,193,183,164,155,145,133,124,110,103,92],"timestamp_mouse":[17,38,56,75,95,116,135,155,176,197,215,236,256,276,295,315,336,357,377,395,416,436,456,476,495,517,535,557,576,595,616,635,656,676,695,716,735,755,775,795,815,836,855,876,896,916,936,957,975,996,1016,1036,1055,1076,1096,1115,1135,1157,1175],"xSR":741.5,"ySR":449.15000000000003,"xT1":424.9,"yT1":0,"xT2":1058.1,"yT2":0,"toosoon":0,"cond_shown":"randomdotsizeEA","ratio_trial":750,"smaller_num":"3","larger_num":"4","correct_side":1,"subjID":"anamartinez16","gender":"1","age":"11","school":"6"},{"start_time":1551801306912,"click_time":1551801308781,"finger_time":1551801308042,"fix_duration":409.83013840869785,"trial":27,"RT":1130,"MT":739,"sideResp":2,"stimulus":"img/900/equaldotanddens/R/6_Ratio_900_L_9_R_10.png","xmouse":[822,822,822,822,822,822,822,822,822,822,822,822,822,822,822,822,822,822,822,822,822,822,822,822,822,822,822,822,822,822,822,822,822,822,822,822,822,822,822,822,822,822,822,822,822,822,822,822,822,822,822,822,822,820,819,815,789,772,747,722,699,649,628,614,604,602,602,610,622,643,682,839,936,1093,1191,1272,1366,1386,1398,1407,1415,1425,1423,1420,1395,1369,1306,1281,1258,1241,1224,1191,1173,1147],"ymouse":[483,483,483,483,483,483,483,483,483,483,483,483,483,483,483,483,483,483,483,483,483,483,483,483,483,483,483,483,483,483,483,483,483,483,483,483,483,483,483,483,483,483,483,483,483,483,483,483,483,483,483,483,483,483,483,478,424,384,337,299,267,227,218,213,211,211,211,213,214,216,216,216,216,229,243,253,263,263,257,249,235,193,163,152,125,112,91,84,80,78,76,75,74,74],"timestamp_mouse":[9,37,50,69,89,109,130,149,169,190,210,231,249,270,289,310,330,351,369,391,409,430,449,470,491,510,530,551,569,590,610,631,650,670,691,711,729,750,771,791,810,829,850,870,890,909,931,951,970,989,1009,1029,1049,1069,1090,1110,1130,1149,1170,1189,1210,1230,1250,1269,1289,1309,1330,1349,1370,1390,1410,1429,1450,1469,1490,1509,1529,1550,1570,1589,1611,1629,1649,1669,1690,1709,1730,1749,1769,1789,1809,1829,1850,1869],"xSR":741.5,"ySR":449.15000000000003,"xT1":424.9,"yT1":0,"xT2":1058.1,"yT2":0,"toosoon":0,"cond_shown":"equaldotanddens","ratio_trial":900,"smaller_num":"9","larger_num":"10","correct_side":2,"subjID":"anamartinez16","gender":"1","age":"11","school":"6"},{"start_time":1551801310862,"click_time":1551801312581,"finger_time":1551801312142,"fix_duration":1118.1482587333855,"trial":28,"RT":1280,"MT":439,"sideResp":2,"stimulus":"img/900/equaldotsize/L/2_Ratio_900_L_20_R_18.png","xmouse":[805,805,805,805,805,805,805,805,805,805,805,805,805,805,805,805,805,805,805,805,805,805,805,805,805,805,805,805,805,805,805,805,805,805,805,805,805,805,805,805,805,805,805,805,805,805,805,805,805,805,805,805,805,805,805,805,805,805,805,805,805,805,812,826,971,1003,1090,1122,1140,1159,1165,1169,1175,1181,1192,1196,1201,1204,1204,1202,1201,1198,1195,1190,1178,1171,1158],"ymouse":[516,516,516,516,516,516,516,516,516,516,516,516,516,516,516,516,516,516,516,516,516,516,516,516,516,516,516,516,516,516,516,516,516,516,516,516,516,516,516,516,516,516,516,516,516,516,516,516,516,516,516,516,516,516,516,516,516,516,516,516,516,516,510,502,425,410,364,343,330,305,293,278,258,238,199,183,164,153,144,129,122,113,104,93,76,69,60],"timestamp_mouse":[1,34,39,59,80,99,119,141,159,181,199,221,239,260,279,300,320,339,360,381,400,420,439,459,480,501,519,539,561,580,601,620,640,660,679,699,721,740,760,779,800,821,839,859,880,901,919,940,960,980,1000,1020,1039,1060,1079,1100,1120,1139,1159,1180,1201,1220,1239,1260,1280,1300,1319,1340,1359,1380,1399,1419,1439,1459,1480,1500,1519,1539,1560,1579,1600,1620,1640,1660,1679,1700,1719],"xSR":741.5,"ySR":449.15000000000003,"xT1":424.9,"yT1":0,"xT2":1058.1,"yT2":0,"toosoon":0,"cond_shown":"equaldotsize","ratio_trial":900,"smaller_num":"18","larger_num":"20","correct_side":1,"subjID":"anamartinez16","gender":"1","age":"11","school":"6"},{"start_time":1551801313613,"click_time":1551801315023,"finger_time":1551801314441,"fix_duration":250,"trial":29,"RT":828,"MT":582,"sideResp":1,"stimulus":"img/900/equaldotsize/L/1_Ratio_900_L_10_R_9.png","xmouse":[807,807,807,807,807,807,807,807,807,807,807,807,807,807,807,807,807,807,807,807,807,807,807,807,807,807,807,807,807,807,807,807,807,807,807,807,807,807,807,801,783,739,714,693,675,660,638,624,605,573,546,487,454,430,412,391,361,352,342,342,342,342,342,342,342,342,342,342,342,342,475],"ymouse":[504,504,504,504,504,504,504,504,504,504,504,504,504,504,504,504,504,504,504,504,504,504,504,504,504,504,504,504,504,504,504,504,504,504,504,504,504,504,504,505,499,492,492,492,490,488,483,478,468,443,419,345,291,235,177,124,52,31,10,10,10,10,10,10,10,10,10,10,10,10,2],"timestamp_mouse":[8,33,49,68,88,109,129,150,168,189,208,229,248,269,288,309,330,348,369,388,410,429,449,468,489,508,529,549,570,588,608,628,649,668,688,709,729,749,768,788,808,828,848,868,888,909,928,948,968,988,1008,1029,1048,1069,1089,1109,1129,1148,1170,1189,1209,1229,1249,1269,1288,1308,1329,1348,1369,1389,1410],"xSR":741.5,"ySR":449.15000000000003,"xT1":424.9,"yT1":0,"xT2":1058.1,"yT2":0,"toosoon":0,"cond_shown":"equaldotsize","ratio_trial":900,"smaller_num":"9","larger_num":"10","correct_side":1,"subjID":"anamartinez16","gender":"1","age":"11","school":"6"},{"start_time":1551801317405,"click_time":1551801318762,"finger_time":1551801318341,"fix_duration":1462.70752729453,"trial":30,"RT":936,"MT":421,"sideResp":2,"stimulus":"img/900/equaldotanddens/L/1_Ratio_900_L_10_R_9.png","xmouse":[778,778,778,778,778,778,778,778,778,778,778,778,778,778,778,778,778,778,778,778,778,778,778,778,778,778,778,778,778,778,778,778,778,778,778,778,778,778,778,778,778,778,778,778,778,800,885,1003,1044,1169,1238,1310,1331,1341,1348,1351,1351,1350,1338,1325,1310,1277,1257,1237,1215,1195,1162,1149],"ymouse":[500,500,500,500,500,500,500,500,500,500,500,500,500,500,500,500,500,500,500,500,500,500,500,500,500,500,500,500,500,500,500,500,500,500,500,500,500,500,500,500,500,500,500,500,500,512,528,533,533,521,494,437,402,369,343,316,283,269,241,224,206,171,156,143,132,121,102,95],"timestamp_mouse":[17,36,56,76,97,116,138,157,177,197,217,237,257,276,298,318,336,357,378,398,417,438,456,478,497,517,538,557,576,596,616,636,658,677,696,717,736,757,777,796,817,836,858,876,896,917,936,956,976,997,1017,1037,1056,1076,1097,1116,1136,1157,1178,1197,1217,1236,1256,1277,1296,1317,1336,1356],"xSR":741.5,"ySR":449.15000000000003,"xT1":424.9,"yT1":0,"xT2":1058.1,"yT2":0,"toosoon":0,"cond_shown":"equaldotanddens","ratio_trial":900,"smaller_num":"9","larger_num":"10","correct_side":1,"subjID":"anamartinez16","gender":"1","age":"11","school":"6"},{"start_time":1551801320222,"click_time":1551801321742,"finger_time":1551801320981,"fix_duration":458.44666329811037,"trial":31,"RT":759,"MT":761,"sideResp":1,"stimulus":"img/900/equaldotsize/L/2_Ratio_900_L_20_R_18.png","xmouse":[797,797,797,797,797,797,797,797,797,797,797,797,797,797,797,797,797,797,797,797,797,797,797,797,797,797,797,797,797,797,797,797,786,771,757,747,742,742,739,729,711,652,609,562,513,458,356,317,282,270,264,262,262,262,262,262,262,262,262,262,262,262,262,262,262,262,262,262,262,265,280,299,307,319,334,360,454],"ymouse":[526,526,526,526,526,526,526,526,526,526,526,526,526,526,526,526,526,526,526,526,526,526,526,526,526,526,526,526,526,526,526,526,523,520,518,516,515,515,514,511,508,492,473,447,417,377,293,255,207,186,171,162,162,161,160,160,160,160,160,160,160,160,160,160,160,160,160,160,159,154,138,119,113,108,102,99,95],"timestamp_mouse":[2,33,40,61,79,100,119,140,160,180,199,219,241,259,279,301,320,340,360,380,399,419,441,460,484,499,520,540,561,580,599,619,639,660,680,701,719,739,759,780,800,820,839,860,879,899,920,940,959,980,1000,1019,1039,1060,1080,1100,1119,1140,1159,1180,1200,1219,1239,1260,1279,1301,1320,1340,1359,1380,1400,1420,1439,1460,1480,1499,1519],"xSR":741.5,"ySR":449.15000000000003,"xT1":424.9,"yT1":0,"xT2":1058.1,"yT2":0,"toosoon":0,"cond_shown":"equaldotsize","ratio_trial":900,"smaller_num":"18","larger_num":"20","correct_side":1,"subjID":"anamartinez16","gender":"1","age":"11","school":"6"},{"start_time":1551801323378,"click_time":1551801326041,"finger_time":1551801325541,"fix_duration":734.8655091788635,"trial":32,"RT":2163,"MT":500,"sideResp":2,"stimulus":"img/900/randomdotsizeEA/L/10_Ratio_900_L_20_R_18.png","xmouse":[753,753,753,753,753,753,753,753,753,753,753,753,753,753,753,753,753,753,753,753,753,753,753,753,753,753,753,753,753,753,753,753,753,753,753,753,753,753,753,753,753,753,753,753,753,753,753,753,753,753,753,753,753,753,753,753,753,753,753,753,753,753,753,753,753,753,753,753,753,753,753,753,753,753,753,753,753,753,753,753,753,753,753,753,753,753,753,753,753,753,755,757,759,760,760,760,760,760,760,760,760,760,760,760,762,779,803,829,883,911,942,999,1048,1171,1235,1300,1350,1394,1422,1422,1404,1386,1367,1335,1320,1303,1287,1271,1243,1229,1208,1195,1176,1140],"ymouse":[510,510,510,510,510,510,510,510,510,510,510,510,510,510,510,510,510,510,510,510,510,510,510,510,510,510,510,510,510,510,510,510,510,510,510,510,510,510,510,510,510,510,510,510,510,510,510,510,510,510,510,510,510,510,510,510,510,510,510,510,510,510,510,510,510,510,510,510,510,510,510,510,510,510,510,510,510,510,510,510,510,510,510,510,510,510,510,510,510,510,511,512,513,513,513,513,513,513,513,513,513,513,513,513,515,519,526,533,543,547,548,548,545,516,490,458,422,381,329,313,285,266,248,219,205,193,182,173,153,141,124,114,104,88],"timestamp_mouse":[8,34,43,64,84,103,125,143,164,183,204,225,243,263,285,304,323,344,363,384,405,424,445,463,484,503,523,544,564,583,603,624,645,664,683,704,724,745,763,785,804,823,843,863,884,904,924,944,964,983,1003,1025,1043,1063,1084,1103,1124,1143,1164,1185,1204,1224,1244,1265,1284,1304,1325,1345,1363,1384,1405,1425,1445,1464,1483,1503,1524,1544,1563,1584,1604,1624,1644,1663,1685,1705,1725,1743,1763,1784,1803,1823,1844,1864,1883,1903,1924,1943,1963,1985,2004,2023,2043,2063,2083,2105,2124,2144,2163,2183,2203,2223,2243,2264,2283,2304,2324,2344,2363,2384,2403,2424,2443,2464,2483,2503,2523,2543,2564,2585,2603,2623,2644,2663],"xSR":741.5,"ySR":449.15000000000003,"xT1":424.9,"yT1":0,"xT2":1058.1,"yT2":0,"toosoon":0,"cond_shown":"randomdotsizeEA","ratio_trial":900,"smaller_num":"18","larger_num":"20","correct_side":1,"subjID":"anamartinez16","gender":"1","age":"11","school":"6"},{"start_time":1551801328294,"click_time":1551801329642,"finger_time":1551801329121,"fix_duration":1150.943392348739,"trial":33,"RT":827,"MT":521,"sideResp":2,"stimulus":"img/250/randomdotsizeEA/R/11_Ratio_250_L_3_R_12.png","xmouse":[753,752,752,752,752,752,752,752,752,752,752,752,752,752,752,752,752,752,752,752,752,752,752,752,752,752,752,752,752,752,752,752,752,752,752,752,752,752,758,776,805,849,942,994,1055,1151,1217,1323,1361,1380,1388,1390,1390,1385,1374,1367,1356,1328,1311,1296,1280,1267,1246,1234,1214,1196,1171,1112],"ymouse":[477,478,479,480,480,480,480,480,480,480,480,480,480,480,480,480,480,480,480,480,480,480,480,480,480,480,480,480,480,480,480,480,480,480,480,480,480,480,483,485,488,495,501,501,497,464,431,347,314,294,278,267,244,233,211,197,177,149,136,127,119,110,100,94,88,86,83,82],"timestamp_mouse":[8,27,47,68,88,109,128,148,169,187,209,227,248,267,287,309,328,348,368,388,409,428,448,468,487,507,528,547,568,587,608,627,648,668,687,709,727,747,767,787,807,827,847,868,887,908,927,947,967,987,1008,1027,1047,1068,1087,1107,1127,1147,1168,1188,1208,1228,1247,1268,1287,1307,1328,1348],"xSR":741.5,"ySR":449.15000000000003,"xT1":424.9,"yT1":0,"xT2":1058.1,"yT2":0,"toosoon":0,"cond_shown":"randomdotsizeEA","ratio_trial":250,"smaller_num":"3","larger_num":"12","correct_side":2,"subjID":"anamartinez16","gender":"1","age":"11","school":"6"},{"start_time":1551801331881,"click_time":1551801333261,"finger_time":1551801332842,"fix_duration":1398.58055281108,"trial":34,"RT":961,"MT":419,"sideResp":1,"stimulus":"img/750/randomdotsizeEA/R/2_Ratio_750_L_6_R_8.png","xmouse":[827,822,805,785,783,783,783,783,783,783,783,783,783,783,783,783,783,783,783,783,783,783,783,783,783,783,783,783,783,783,783,783,783,783,783,783,783,783,783,783,783,783,783,783,783,783,780,755,645,587,527,481,444,363,324,315,287,269,250,245,241,240,240,246,254,275,297,326,393,426],"ymouse":[507,507,507,506,505,505,505,505,505,505,505,505,505,505,505,505,505,505,505,505,505,505,505,505,505,505,505,505,505,505,505,505,505,505,505,505,505,505,505,505,505,505,505,505,505,505,504,500,472,444,412,384,361,304,270,258,221,189,143,125,111,101,93,68,55,39,31,24,19,19],"timestamp_mouse":[3,21,40,60,81,102,120,141,160,180,201,222,240,261,281,301,321,341,361,380,400,422,440,462,480,500,522,542,560,580,601,621,641,660,681,700,721,740,760,782,800,821,841,860,880,900,920,940,961,982,1001,1021,1041,1060,1080,1100,1120,1141,1161,1180,1201,1220,1241,1261,1281,1300,1320,1340,1360,1380],"xSR":741.5,"ySR":449.15000000000003,"xT1":424.9,"yT1":0,"xT2":1058.1,"yT2":0,"toosoon":0,"cond_shown":"randomdotsizeEA","ratio_trial":750,"smaller_num":"6","larger_num":"8","correct_side":2,"subjID":"anamartinez16","gender":"1","age":"11","school":"6"},{"start_time":1551801334363,"click_time":1551801336542,"finger_time":1551801335981,"fix_duration":379.3806580730541,"trial":35,"RT":1618,"MT":561,"sideResp":2,"stimulus":"img/900/randomdotsizeEA/R/6_Ratio_900_L_9_R_10.png","xmouse":[787,787,787,787,787,787,787,787,787,787,787,787,787,787,787,787,787,787,787,787,787,787,786,786,784,783,783,782,781,780,778,778,778,778,778,778,778,778,778,778,778,778,778,778,778,778,778,778,778,778,778,778,778,778,778,778,778,778,778,778,778,778,778,778,773,770,769,769,769,773,778,781,783,784,786,788,792,797,801,813,826,853,878,908,971,1011,1056,1108,1168,1286,1322,1339,1339,1334,1318,1310,1304,1301,1295,1286,1284,1281,1280,1278,1261,1243,1222,1200,1179,1129],"ymouse":[500,500,500,500,500,500,500,500,500,500,500,500,500,500,500,500,500,500,500,500,500,500,500,500,500,500,500,499,499,498,498,498,498,498,498,498,498,498,498,498,498,498,498,498,498,498,498,498,498,498,498,498,498,498,498,498,498,498,498,498,498,498,498,497,495,494,494,493,492,488,486,485,484,484,483,483,483,483,483,484,485,490,492,494,494,487,470,442,399,269,210,178,169,162,151,145,138,133,125,108,101,91,85,80,68,60,51,44,38,29],"timestamp_mouse":[1,32,40,59,78,98,118,139,158,178,198,218,239,259,279,298,318,338,358,380,398,418,439,458,478,498,519,538,558,578,598,618,638,658,678,700,718,738,759,779,799,820,839,859,878,900,919,939,960,978,998,1018,1040,1059,1078,1099,1119,1138,1158,1178,1199,1219,1238,1258,1279,1300,1318,1340,1358,1379,1398,1418,1439,1458,1479,1498,1518,1539,1559,1578,1600,1618,1639,1659,1678,1698,1719,1739,1758,1778,1799,1818,1840,1859,1879,1898,1919,1939,1958,1978,2000,2018,2038,2059,2079,2099,2118,2138,2158,2178],"xSR":741.5,"ySR":449.15000000000003,"xT1":424.9,"yT1":0,"xT2":1058.1,"yT2":0,"toosoon":0,"cond_shown":"randomdotsizeEA","ratio_trial":900,"smaller_num":"9","larger_num":"10","correct_side":2,"subjID":"anamartinez16","gender":"1","age":"11","school":"6"},{"start_time":1551801338157,"click_time":1551801339302,"finger_time":1551801338342,"fix_duration":815.6662247352364,"trial":36,"RT":185,"MT":960,"sideResp":1,"stimulus":"img/500/randomdotsizeEA/L/4_Ratio_500_L_18_R_9.png","xmouse":[808,807,808,808,808,809,813,818,828,843,845,846,846,846,846,846,846,846,846,844,842,842,841,841,841,841,841,841,841,841,841,839,834,820,773,730,682,630,559,559,559,559,559,559,559,559,559,559,559,559,559,559,559,559,559,559,443,445],"ymouse":[527,527,527,527,527,527,527,521,514,509,509,509,509,509,509,509,510,512,514,519,523,525,526,526,526,526,526,526,526,526,521,499,466,415,288,213,142,83,15,15,15,15,15,15,15,15,15,15,15,15,15,15,15,15,15,15,0,4],"timestamp_mouse":[6,24,44,64,84,105,125,145,164,185,205,224,245,265,285,304,326,344,365,385,405,425,444,464,484,504,524,544,564,585,604,624,645,665,685,704,725,745,765,785,804,825,844,864,884,904,924,944,965,984,1005,1024,1045,1064,1084,1104,1124,1145],"xSR":741.5,"ySR":449.15000000000003,"xT1":424.9,"yT1":0,"xT2":1058.1,"yT2":0,"toosoon":0,"cond_shown":"randomdotsizeEA","ratio_trial":500,"smaller_num":"9","larger_num":"18","correct_side":1,"subjID":"anamartinez16","gender":"1","age":"11","school":"6"},{"start_time":1551801342739,"click_time":1551801344163,"finger_time":1551801343642,"fix_duration":516.4175902426582,"trial":37,"RT":903,"MT":521,"sideResp":1,"stimulus":"img/250/equaldotsize/L/15_Ratio_250_L_12_R_3.png","xmouse":[797,797,797,797,797,797,797,797,797,797,797,797,797,797,797,797,797,797,797,797,797,797,797,797,797,797,797,797,797,797,797,797,797,797,797,797,797,797,797,797,797,797,796,788,773,705,643,575,499,423,316,287,268,263,261,257,255,252,252,252,261,267,278,290,302,317,326,337,353,372,414,433],"ymouse":[510,510,510,510,510,510,510,510,510,510,510,510,510,510,510,510,510,510,510,510,510,510,510,510,510,510,510,510,510,510,510,510,510,510,510,510,510,510,510,510,510,510,510,509,503,484,467,446,425,403,351,333,316,309,305,290,281,270,257,241,207,194,174,159,147,129,119,109,97,86,74,72],"timestamp_mouse":[8,37,42,63,82,102,124,142,162,182,202,223,243,262,282,302,323,343,363,383,403,424,443,462,483,502,523,542,563,583,604,622,643,662,683,704,723,743,763,783,802,824,842,863,882,903,923,942,962,983,1003,1023,1043,1063,1084,1102,1123,1142,1163,1183,1202,1222,1242,1263,1283,1303,1322,1342,1362,1383,1403,1424],"xSR":741.5,"ySR":449.15000000000003,"xT1":424.9,"yT1":0,"xT2":1058.1,"yT2":0,"toosoon":0,"cond_shown":"equaldotsize","ratio_trial":250,"smaller_num":"3","larger_num":"12","correct_side":1,"subjID":"anamartinez16","gender":"1","age":"11","school":"6"},{"start_time":1551801347796,"click_time":1551801349241,"finger_time":1551801348721,"fix_duration":1332.8391757762245,"trial":38,"RT":925,"MT":520,"sideResp":2,"stimulus":"img/750/equaldotsize/R/5_Ratio_750_L_15_R_20.png","xmouse":[797,797,797,797,797,797,797,797,797,797,797,797,797,797,797,797,797,797,797,797,797,797,797,797,797,797,797,797,797,797,797,797,797,797,797,797,797,797,797,797,797,797,797,797,816,834,894,1075,1183,1301,1475,1579,1579,1579,1579,1579,1575,1533,1520,1499,1487,1476,1453,1435,1418,1394,1365,1294,1264,1226,1204,1186,1158],"ymouse":[536,536,536,536,536,536,536,536,536,536,536,536,536,536,536,536,536,536,536,536,536,536,536,536,536,536,536,536,536,536,536,536,536,536,536,536,536,536,536,536,536,536,536,536,537,537,537,537,524,498,421,364,364,364,364,364,155,116,101,84,76,71,67,64,64,64,64,64,64,59,56,54,50],"timestamp_mouse":[10,25,46,65,87,106,125,147,165,185,206,226,246,267,285,305,326,347,366,385,406,426,447,465,486,506,526,546,566,587,605,626,645,665,686,706,726,745,767,785,805,826,845,865,885,906,925,945,966,986,1005,1025,1046,1065,1085,1106,1125,1145,1165,1186,1207,1226,1246,1265,1285,1306,1325,1345,1367,1385,1406,1426,1445],"xSR":741.5,"ySR":449.15000000000003,"xT1":424.9,"yT1":0,"xT2":1058.1,"yT2":0,"toosoon":0,"cond_shown":"equaldotsize","ratio_trial":750,"smaller_num":"15","larger_num":"20","correct_side":2,"subjID":"anamartinez16","gender":"1","age":"11","school":"6"},{"start_time":1551801351754,"click_time":1551801353041,"finger_time":1551801352541,"fix_duration":250,"trial":39,"RT":787,"MT":500,"sideResp":1,"stimulus":"img/500/equaldotanddens/L/4_Ratio_500_L_18_R_9.png","xmouse":[810,810,810,810,810,810,810,810,810,810,810,810,810,810,810,810,810,810,810,810,810,810,810,810,810,810,810,810,810,810,810,810,810,810,810,810,810,804,790,701,643,557,508,470,414,398,383,371,359,345,340,340,340,340,353,363,371,378,383,389,392,396,403,415,446],"ymouse":[518,518,518,518,518,518,518,518,518,518,518,518,518,518,518,518,518,518,518,518,518,518,518,518,518,518,518,518,518,518,518,518,518,518,518,518,518,513,507,484,476,463,457,452,439,429,411,382,346,277,220,205,169,151,114,97,82,70,61,47,44,42,41,41,40],"timestamp_mouse":[8,35,48,67,87,109,127,148,168,188,207,228,248,269,288,308,327,347,367,387,408,428,448,468,487,509,527,548,568,587,608,627,648,667,687,709,728,747,769,787,807,827,848,868,888,907,927,948,968,987,1007,1027,1048,1068,1088,1107,1128,1148,1167,1187,1207,1227,1248,1268,1287],"xSR":741.5,"ySR":449.15000000000003,"xT1":424.9,"yT1":0,"xT2":1058.1,"yT2":0,"toosoon":0,"cond_shown":"equaldotanddens","ratio_trial":500,"smaller_num":"9","larger_num":"18","correct_side":1,"subjID":"anamartinez16","gender":"1","age":"11","school":"6"},{"start_time":1551801356320,"click_time":1551801358861,"finger_time":1551801357560,"fix_duration":1118.888743524704,"trial":40,"RT":1240,"MT":1301,"sideResp":2,"stimulus":"img/750/equaldotanddens/L/14_Ratio_750_L_8_R_6.png","xmouse":[797,797,797,797,797,797,797,797,797,797,797,797,797,797,797,797,797,797,797,797,797,797,797,797,797,797,797,797,797,797,797,797,797,797,797,797,797,797,797,797,797,797,797,797,797,797,797,797,797,797,797,797,797,797,797,797,797,797,797,796,789,742,717,682,666,651,629,613,590,559,521,444,415,396,382,380,379,379,379,379,381,384,385,388,394,404,439,464,511,600,760,1127,1298,1537,1537,1537,1537,1537,1537,1537,1582,1560,1547,1524,1507,1489,1451,1432,1415,1395,1364,1320,1291,1245,1222,1204,1180,1174,1170,1169,1166,1163,1161,1157,1155,1151,1140,1135],"ymouse":[502,502,502,502,502,502,502,502,502,502,502,502,502,502,502,502,502,502,502,502,502,502,502,502,502,502,502,502,502,502,502,502,502,502,502,502,502,502,502,502,502,502,502,502,502,502,502,502,502,502,502,502,502,502,502,502,502,502,502,502,503,504,504,503,500,498,494,489,482,474,462,433,420,407,392,386,375,366,358,350,341,333,331,328,328,327,327,327,338,364,419,547,587,621,621,621,621,621,621,621,468,409,385,355,340,326,306,299,293,288,278,266,258,245,238,231,219,214,208,203,196,178,169,155,146,133,106,96],"timestamp_mouse":[8,35,42,61,81,101,120,140,162,180,201,220,242,261,281,302,321,341,360,382,400,421,440,462,480,502,522,540,562,581,601,620,640,661,680,702,720,741,761,781,801,821,840,861,881,900,920,940,962,982,1001,1020,1041,1062,1082,1102,1120,1141,1162,1181,1200,1220,1240,1261,1281,1301,1321,1340,1361,1380,1401,1420,1442,1461,1480,1500,1521,1542,1561,1582,1600,1620,1642,1660,1681,1701,1721,1741,1760,1781,1800,1820,1840,1860,1881,1901,1921,1942,1961,1981,2000,2020,2041,2060,2082,2101,2121,2141,2160,2181,2201,2220,2241,2260,2280,2301,2320,2340,2361,2381,2401,2420,2441,2460,2481,2501,2521,2540],"xSR":741.5,"ySR":449.15000000000003,"xT1":424.9,"yT1":0,"xT2":1058.1,"yT2":0,"toosoon":0,"cond_shown":"equaldotanddens","ratio_trial":750,"smaller_num":"6","larger_num":"8","correct_side":1,"subjID":"anamartinez16","gender":"1","age":"11","school":"6"},{"start_time":1551801360977,"click_time":1551801362221,"finger_time":1551801361740,"fix_duration":1055.5647325141863,"trial":41,"RT":763,"MT":481,"sideResp":1,"stimulus":"img/750/randomdotsizeEA/R/4_Ratio_750_L_15_R_20.png","xmouse":[807,807,807,807,807,807,807,807,807,807,807,807,807,807,807,807,807,807,807,807,807,807,807,807,807,807,807,807,807,807,807,807,807,807,807,807,786,768,624,516,361,275,211,123,101,91,88,87,89,94,107,122,137,174,198,226,258,300,396,431,466,479,487],"ymouse":[543,543,543,543,543,543,543,543,543,543,543,543,543,543,543,543,543,543,543,543,543,543,543,543,543,543,543,543,543,543,543,543,543,543,543,543,544,544,520,492,443,406,378,326,309,293,278,258,214,198,180,172,167,160,156,152,151,145,129,120,110,102,93],"timestamp_mouse":[9,32,44,64,83,103,123,143,163,184,204,223,244,264,283,303,325,345,364,385,403,423,444,465,484,505,523,544,563,583,605,625,643,665,684,704,723,743,763,784,803,824,844,864,883,904,924,943,963,984,1003,1024,1044,1064,1085,1104,1124,1144,1164,1185,1204,1224,1244],"xSR":741.5,"ySR":449.15000000000003,"xT1":424.9,"yT1":0,"xT2":1058.1,"yT2":0,"toosoon":0,"cond_shown":"randomdotsizeEA","ratio_trial":750,"smaller_num":"15","larger_num":"20","correct_side":2,"subjID":"anamartinez16","gender":"1","age":"11","school":"6"},{"start_time":1551801363585,"click_time":1551801364921,"finger_time":1551801364481,"fix_duration":503.08001719160586,"trial":42,"RT":896,"MT":440,"sideResp":1,"stimulus":"img/900/equaldotsize/L/4_Ratio_900_L_20_R_18.png","xmouse":[816,816,816,816,816,816,816,816,816,816,816,816,816,816,816,816,816,816,816,816,816,816,816,816,816,816,816,816,816,816,816,816,816,816,816,816,816,816,816,816,816,816,808,775,717,637,539,384,332,285,269,261,252,243,236,230,226,225,231,259,285,312,362,386,405,419,428],"ymouse":[524,524,524,524,524,524,524,524,524,524,524,524,524,524,524,524,524,524,524,524,524,524,524,524,524,524,524,524,524,524,524,524,524,524,524,524,524,524,524,524,524,524,524,524,514,494,465,418,393,362,347,338,293,255,224,204,191,176,168,152,137,122,92,74,63,51,42],"timestamp_mouse":[16,35,56,76,97,115,136,157,175,196,216,236,256,275,296,315,337,355,376,397,416,435,455,477,495,516,535,556,575,595,617,635,657,677,695,715,737,757,775,796,815,836,856,875,896,915,937,955,976,995,1015,1035,1056,1076,1096,1116,1137,1155,1175,1195,1217,1236,1256,1277,1295,1315,1335],"xSR":741.5,"ySR":449.15000000000003,"xT1":424.9,"yT1":0,"xT2":1058.1,"yT2":0,"toosoon":0,"cond_shown":"equaldotsize","ratio_trial":900,"smaller_num":"18","larger_num":"20","correct_side":1,"subjID":"anamartinez16","gender":"1","age":"11","school":"6"},{"start_time":1551801366574,"click_time":1551801367881,"finger_time":1551801367441,"fix_duration":832.6721972892392,"trial":43,"RT":867,"MT":440,"sideResp":2,"stimulus":"img/500/randomdotsizeEA/R/3_Ratio_500_L_10_R_20.png","xmouse":[768,768,768,768,768,768,768,768,768,768,768,768,768,768,768,768,768,768,768,768,768,768,768,768,768,768,768,768,768,768,768,768,768,768,768,768,768,768,768,768,768,779,814,902,941,972,1002,1041,1125,1170,1220,1242,1254,1260,1260,1256,1252,1247,1234,1227,1221,1217,1212,1192,1174,1154],"ymouse":[501,501,501,501,501,501,501,501,501,501,501,501,501,501,501,501,501,501,501,501,501,501,501,501,501,501,501,501,501,501,501,501,501,501,501,501,501,501,501,501,501,500,491,476,476,476,476,470,434,397,332,286,243,165,134,107,84,65,39,32,29,29,28,29,34,40],"timestamp_mouse":[11,26,47,67,87,107,128,147,166,188,206,227,247,266,286,307,327,347,367,386,406,428,447,468,487,506,528,548,566,588,606,627,646,666,686,706,726,746,767,787,806,827,846,866,886,907,926,948,966,987,1007,1027,1047,1067,1087,1107,1127,1146,1166,1187,1207,1228,1247,1266,1287,1307],"xSR":741.5,"ySR":449.15000000000003,"xT1":424.9,"yT1":0,"xT2":1058.1,"yT2":0,"toosoon":0,"cond_shown":"randomdotsizeEA","ratio_trial":500,"smaller_num":"10","larger_num":"20","correct_side":2,"subjID":"anamartinez16","gender":"1","age":"11","school":"6"},{"start_time":1551801371588,"click_time":1551801372460,"finger_time":1551801372241,"fix_duration":1387.9545120193318,"trial":44,"RT":653,"MT":219,"sideResp":2,"stimulus":"img/750/equaldotanddens/R/11_Ratio_750_L_12_R_16.png","xmouse":[785,785,785,785,785,785,785,785,785,785,785,785,785,785,785,785,785,785,785,785,785,785,785,785,785,787,789,801,811,830,838,840,861,891,929,966,989,1033,1057,1082,1084,1084,1082,1080],"ymouse":[532,532,532,532,532,532,532,532,532,532,532,532,532,532,532,532,532,532,532,532,532,532,532,532,532,530,529,528,529,535,537,537,534,520,503,484,465,397,338,241,189,151,100,88],"timestamp_mouse":[13,37,52,74,94,112,132,153,174,194,213,233,252,273,292,313,332,354,373,394,412,434,452,473,492,513,534,552,573,592,613,632,653,674,693,713,733,752,774,792,814,833,853,872],"xSR":741.5,"ySR":449.15000000000003,"xT1":424.9,"yT1":0,"xT2":1058.1,"yT2":0,"toosoon":0,"cond_shown":"equaldotanddens","ratio_trial":750,"smaller_num":"12","larger_num":"16","correct_side":2,"subjID":"anamartinez16","gender":"1","age":"11","school":"6"},{"start_time":1551801374800,"click_time":1551801376140,"finger_time":1551801375660,"fix_duration":1438.2840857444298,"trial":45,"RT":860,"MT":480,"sideResp":1,"stimulus":"img/750/equaldotsize/R/3_Ratio_750_L_15_R_20.png","xmouse":[779,779,779,779,779,779,779,779,779,779,779,779,779,779,779,779,779,779,779,779,779,779,779,779,779,779,779,779,779,779,779,779,779,779,779,779,779,779,779,779,779,777,760,739,709,675,645,587,560,530,515,504,485,478,474,472,471,470,470,470,470,470,474,477,480,485,490,497],"ymouse":[475,475,475,475,475,475,475,475,475,475,475,475,475,475,475,475,475,475,475,475,475,475,475,475,475,475,475,475,475,475,475,475,475,475,475,475,475,475,475,475,475,474,474,474,469,463,455,424,401,359,322,283,215,190,170,155,145,142,142,142,142,140,135,132,128,121,113,93],"timestamp_mouse":[8,20,41,61,80,101,120,141,160,181,200,220,241,262,281,302,321,341,360,382,400,421,441,460,480,501,520,541,560,581,601,620,641,660,681,701,720,741,761,781,800,821,841,860,882,901,920,940,961,982,1001,1021,1040,1061,1080,1101,1122,1141,1160,1182,1202,1222,1241,1262,1281,1301,1321,1340],"xSR":741.5,"ySR":449.15000000000003,"xT1":424.9,"yT1":0,"xT2":1058.1,"yT2":0,"toosoon":0,"cond_shown":"equaldotsize","ratio_trial":750,"smaller_num":"15","larger_num":"20","correct_side":2,"subjID":"anamartinez16","gender":"1","age":"11","school":"6"},{"start_time":1551801378303,"click_time":1551801380261,"finger_time":1551801379841,"fix_duration":1179.1421440430775,"trial":46,"RT":1538,"MT":420,"sideResp":2,"stimulus":"img/750/equaldotsize/R/15_Ratio_750_L_9_R_12.png","xmouse":[808,808,808,808,808,808,808,808,808,808,808,808,808,808,808,808,808,808,808,808,808,808,808,808,808,808,808,808,808,808,808,808,808,808,808,808,808,808,808,808,808,808,808,808,808,808,808,807,804,803,802,801,801,801,801,801,801,801,801,801,801,801,803,806,807,807,807,807,809,810,812,817,819,824,828,837,875,900,920,934,943,992,1009,1025,1031,1032,1034,1036,1040,1044,1050,1062,1066,1068,1071,1075,1079,1080],"ymouse":[479,479,479,479,479,479,479,479,479,479,479,479,479,479,479,479,479,479,479,479,479,479,479,479,479,479,479,479,479,479,479,479,479,479,479,479,479,479,479,479,479,479,479,479,479,479,479,480,484,487,492,498,499,499,499,499,499,499,499,499,499,499,501,501,501,501,501,501,501,501,501,501,501,499,496,490,455,419,384,354,328,265,245,229,221,220,214,209,200,188,175,147,135,127,116,108,100,97],"timestamp_mouse":[18,38,57,79,97,119,137,157,178,198,217,238,257,278,297,318,338,358,377,397,418,438,457,477,498,518,538,558,577,597,619,637,657,679,697,717,739,757,777,799,819,837,858,878,897,917,939,957,978,997,1018,1037,1058,1078,1098,1117,1138,1157,1178,1197,1218,1237,1258,1278,1299,1317,1338,1358,1378,1397,1417,1437,1459,1478,1498,1518,1538,1558,1578,1598,1618,1637,1659,1677,1697,1718,1737,1758,1777,1798,1818,1839,1857,1877,1897,1917,1937,1958],"xSR":741.5,"ySR":449.15000000000003,"xT1":424.9,"yT1":0,"xT2":1058.1,"yT2":0,"toosoon":0,"cond_shown":"equaldotsize","ratio_trial":750,"smaller_num":"9","larger_num":"12","correct_side":2,"subjID":"anamartinez16","gender":"1","age":"11","school":"6"},{"start_time":1551801383486,"click_time":1551801384581,"finger_time":1551801384181,"fix_duration":1083.308523018996,"trial":47,"RT":695,"MT":400,"sideResp":1,"stimulus":"img/750/equaldotanddens/L/9_Ratio_750_L_4_R_3.png","xmouse":[806,806,806,806,806,806,806,806,806,806,806,806,806,806,806,806,806,806,806,806,806,806,806,806,806,806,806,806,802,800,795,788,766,752,728,708,680,590,535,479,430,384,334,324,318,318,318,335,346,355,362,368,389,402,426],"ymouse":[512,512,512,512,512,512,512,512,512,512,512,512,512,512,512,512,512,512,512,512,512,512,512,512,512,512,512,512,514,514,516,516,514,510,503,497,489,450,421,389,355,323,279,263,239,226,215,186,166,149,132,118,98,94,87],"timestamp_mouse":[15,34,55,75,95,114,134,156,175,194,215,234,255,276,295,316,334,355,375,394,416,434,454,475,496,514,534,554,574,595,615,634,655,675,695,714,735,755,785,796,815,835,855,875,895,915,935,954,974,995,1015,1035,1054,1074,1095],"xSR":741.5,"ySR":449.15000000000003,"xT1":424.9,"yT1":0,"xT2":1058.1,"yT2":0,"toosoon":0,"cond_shown":"equaldotanddens","ratio_trial":750,"smaller_num":"3","larger_num":"4","correct_side":1,"subjID":"anamartinez16","gender":"1","age":"11","school":"6"},{"start_time":1551801385945,"click_time":1551801387140,"finger_time":1551801386781,"fix_duration":522.308850092038,"trial":48,"RT":836,"MT":359,"sideResp":2,"stimulus":"img/900/equaldotsize/R/14_Ratio_900_L_18_R_20.png","xmouse":[807,807,807,807,807,807,807,807,807,807,807,807,807,807,807,807,807,807,807,807,807,807,807,807,807,807,807,807,807,807,807,807,807,807,807,807,807,807,807,807,825,892,964,1034,1141,1165,1176,1183,1185,1182,1178,1173,1168,1164,1159,1155,1150,1143,1136,1119],"ymouse":[461,461,461,461,461,461,461,461,461,461,461,461,461,461,461,461,461,461,461,461,461,461,461,461,461,461,461,461,461,461,461,461,461,461,461,461,461,461,464,478,484,487,482,463,404,372,346,314,287,240,221,207,195,187,176,168,157,141,126,98],"timestamp_mouse":[15,44,56,76,97,115,136,155,175,197,215,235,256,275,295,316,335,355,375,395,416,435,455,476,496,515,535,556,575,595,617,635,656,676,695,715,735,756,777,795,816,836,855,875,895,915,936,956,977,995,1016,1035,1055,1076,1095,1115,1136,1157,1175,1195],"xSR":741.5,"ySR":449.15000000000003,"xT1":424.9,"yT1":0,"xT2":1058.1,"yT2":0,"toosoon":0,"cond_shown":"equaldotsize","ratio_trial":900,"smaller_num":"18","larger_num":"20","correct_side":2,"subjID":"anamartinez16","gender":"1","age":"11","school":"6"},{"start_time":1551801388714,"click_time":1551801390120,"finger_time":1551801389641,"fix_duration":773.8155837902074,"trial":49,"RT":927,"MT":479,"sideResp":1,"stimulus":"img/900/equaldotanddens/R/6_Ratio_900_L_9_R_10.png","xmouse":[816,816,816,816,816,816,816,816,816,816,816,816,816,816,816,816,816,816,816,816,816,816,816,816,816,816,816,816,816,816,816,816,816,816,816,816,816,816,816,816,816,816,816,813,794,766,655,584,515,452,399,326,304,292,287,287,281,279,277,277,277,289,300,327,346,364,391,402,413,424,437],"ymouse":[525,525,525,525,525,525,525,525,525,525,525,525,525,525,525,525,525,525,525,525,525,525,525,525,525,525,525,525,525,525,525,525,525,525,525,525,525,525,525,525,525,525,525,526,528,528,514,492,466,434,404,335,302,258,225,195,150,131,118,109,99,83,74,62,55,50,45,43,42,42,42],"timestamp_mouse":[9,39,47,67,87,107,126,148,167,186,208,226,246,268,287,306,326,348,368,388,407,428,447,467,488,506,526,547,567,586,607,627,647,667,688,707,727,747,768,786,806,828,847,867,887,907,927,946,966,986,1007,1026,1047,1067,1087,1106,1126,1148,1167,1187,1207,1226,1246,1266,1287,1307,1327,1347,1366,1386,1406],"xSR":741.5,"ySR":449.15000000000003,"xT1":424.9,"yT1":0,"xT2":1058.1,"yT2":0,"toosoon":0,"cond_shown":"equaldotanddens","ratio_trial":900,"smaller_num":"9","larger_num":"10","correct_side":2,"subjID":"anamartinez16","gender":"1","age":"11","school":"6"},{"start_time":1551801391415,"click_time":1551801392500,"finger_time":1551801392140,"fix_duration":274.5174681255168,"trial":50,"RT":725,"MT":360,"sideResp":1,"stimulus":"img/250/equaldotanddens/L/7_Ratio_250_L_8_R_2.png","xmouse":[775,775,775,775,775,775,775,775,775,775,775,775,775,775,775,775,775,775,775,775,775,775,775,775,775,775,775,775,775,775,775,775,775,775,774,768,743,729,691,662,632,585,567,556,549,545,541,540,539,539,539,539,537,531,524],"ymouse":[470,470,470,470,470,470,470,470,470,470,470,470,470,470,470,470,470,470,470,470,470,470,470,470,470,470,470,470,470,470,470,470,470,470,471,470,444,421,368,335,305,269,254,239,226,214,193,184,167,154,139,103,84,66,50],"timestamp_mouse":[5,40,46,66,87,105,126,146,165,185,206,226,245,265,285,306,326,347,366,387,405,426,447,466,485,507,526,546,565,586,607,627,647,665,685,705,725,747,766,785,806,826,845,866,885,906,925,946,965,986,1005,1025,1046,1066,1085],"xSR":741.5,"ySR":449.15000000000003,"xT1":424.9,"yT1":0,"xT2":1058.1,"yT2":0,"toosoon":0,"cond_shown":"equaldotanddens","ratio_trial":250,"smaller_num":"2","larger_num":"8","correct_side":1,"subjID":"anamartinez16","gender":"1","age":"11","school":"6"},{"start_time":1551801394622,"click_time":1551801395621,"finger_time":1551801395301,"fix_duration":1440.6134554274065,"trial":51,"RT":679,"MT":320,"sideResp":1,"stimulus":"img/750/equaldotanddens/L/6_Ratio_750_L_24_R_18.png","xmouse":[825,825,825,825,825,825,825,825,825,825,825,825,825,825,825,825,825,825,825,825,825,825,825,825,825,825,825,825,825,825,818,789,751,728,711,666,635,620,605,590,563,554,549,546,543,537,534,525,515,507],"ymouse":[485,485,485,485,485,485,485,485,485,485,485,485,485,485,485,485,485,485,485,485,485,485,485,485,485,485,485,485,485,485,484,478,467,449,424,379,359,349,340,328,304,291,276,262,245,206,183,140,108,80],"timestamp_mouse":[32,39,58,78,99,118,139,158,178,200,219,239,259,280,299,318,339,359,380,398,419,438,460,479,498,518,539,559,578,599,619,639,658,679,699,718,739,758,779,799,818,840,859,878,900,918,939,958,979,999],"xSR":741.5,"ySR":449.15000000000003,"xT1":424.9,"yT1":0,"xT2":1058.1,"yT2":0,"toosoon":0,"cond_shown":"equaldotanddens","ratio_trial":750,"smaller_num":"18","larger_num":"24","correct_side":1,"subjID":"anamartinez16","gender":"1","age":"11","school":"6"},{"start_time":1551801397951,"click_time":1551801399180,"finger_time":1551801398841,"fix_duration":1148.868820923392,"trial":52,"RT":890,"MT":339,"sideResp":1,"stimulus":"img/750/equaldotsize/L/6_Ratio_750_L_24_R_18.png","xmouse":[785,785,785,785,785,785,785,785,785,785,785,785,785,785,785,785,785,785,785,785,785,785,785,785,785,785,785,785,785,785,785,785,785,785,785,785,785,785,785,785,785,785,785,785,770,746,705,657,619,588,584,579,578,575,555,538,516,495,476,454,451,449],"ymouse":[466,466,466,466,466,466,466,466,466,466,466,466,466,466,466,466,466,466,466,466,466,466,466,466,466,466,466,466,466,466,466,466,466,466,466,466,466,466,466,466,466,466,466,465,431,398,352,312,277,242,236,229,225,219,202,193,181,167,150,124,111,96],"timestamp_mouse":[9,39,50,69,91,111,130,149,170,189,211,229,249,271,289,310,329,349,370,391,410,431,449,469,491,509,530,549,569,589,609,629,651,669,689,709,731,749,770,789,810,829,849,870,890,910,929,951,970,990,1009,1030,1050,1070,1091,1110,1131,1150,1171,1189,1210,1229],"xSR":741.5,"ySR":449.15000000000003,"xT1":424.9,"yT1":0,"xT2":1058.1,"yT2":0,"toosoon":0,"cond_shown":"equaldotsize","ratio_trial":750,"smaller_num":"18","larger_num":"24","correct_side":1,"subjID":"anamartinez16","gender":"1","age":"11","school":"6"},{"start_time":1551801400344,"click_time":1551801401601,"finger_time":1551801401160,"fix_duration":482.5049738340101,"trial":53,"RT":816,"MT":441,"sideResp":2,"stimulus":"img/250/equaldotsize/R/6_Ratio_250_L_6_R_24.png","xmouse":[787,787,787,787,787,787,787,787,787,787,787,787,787,787,787,787,787,787,787,787,787,787,787,787,787,787,787,787,787,787,787,787,787,787,787,787,787,787,789,821,871,968,1036,1104,1222,1271,1315,1351,1382,1404,1406,1406,1402,1396,1371,1355,1337,1315,1288,1233,1209,1183,1148],"ymouse":[503,503,503,503,503,503,503,503,503,503,503,503,503,503,503,503,503,503,503,503,503,503,503,503,503,503,503,503,503,503,503,503,503,503,503,503,503,503,503,503,503,503,503,496,438,392,334,284,240,199,188,186,180,171,150,138,127,119,112,94,87,78,63],"timestamp_mouse":[31,37,57,77,97,117,136,158,176,197,217,237,257,278,296,317,338,356,376,396,418,438,458,476,497,518,538,557,576,596,617,638,657,677,698,717,736,757,776,797,816,836,857,877,897,916,936,957,978,996,1016,1036,1056,1077,1097,1117,1137,1156,1177,1196,1218,1236,1257],"xSR":741.5,"ySR":449.15000000000003,"xT1":424.9,"yT1":0,"xT2":1058.1,"yT2":0,"toosoon":0,"cond_shown":"equaldotsize","ratio_trial":250,"smaller_num":"6","larger_num":"24","correct_side":2,"subjID":"anamartinez16","gender":"1","age":"11","school":"6"},{"start_time":1551801403312,"click_time":1551801404241,"finger_time":1551801403840,"fix_duration":270.8261705346479,"trial":54,"RT":528,"MT":401,"sideResp":1,"stimulus":"img/750/equaldotsize/L/10_Ratio_750_L_4_R_3.png","xmouse":[798,798,798,798,798,798,798,798,798,798,798,798,798,798,798,798,798,798,798,798,798,798,798,798,793,774,724,681,631,587,541,471,422,398,378,363,346,338,333,331,331,336,342,356,373,389,432],"ymouse":[520,520,520,520,520,520,520,520,520,520,520,520,520,520,520,520,520,520,520,520,520,520,520,520,520,521,521,513,497,476,446,371,300,251,202,158,100,78,60,48,37,21,15,8,5,3,2],"timestamp_mouse":[9,42,48,69,89,109,130,150,168,190,210,229,248,268,289,309,328,350,369,390,409,429,448,470,488,508,528,549,569,588,608,630,650,668,689,709,728,748,769,789,809,828,849,869,889,908,929],"xSR":741.5,"ySR":449.15000000000003,"xT1":424.9,"yT1":0,"xT2":1058.1,"yT2":0,"toosoon":0,"cond_shown":"equaldotsize","ratio_trial":750,"smaller_num":"3","larger_num":"4","correct_side":1,"subjID":"anamartinez16","gender":"1","age":"11","school":"6"},{"start_time":1551801407684,"click_time":1551801409021,"finger_time":1551801408341,"fix_duration":1281.7620414385387,"trial":55,"RT":657,"MT":680,"sideResp":1,"stimulus":"img/250/equaldotsize/L/3_Ratio_250_L_8_R_2.png","xmouse":[812,812,812,812,812,812,812,812,812,812,812,812,812,812,812,812,812,812,812,812,812,812,812,812,812,812,812,812,806,798,779,757,697,664,654,629,609,559,510,453,385,305,161,142,142,142,142,142,142,142,142,142,142,142,142,142,142,363,371,378,383,386,387,392,399,409,427],"ymouse":[509,509,509,509,509,509,509,509,509,509,509,509,509,509,509,509,509,509,509,509,509,509,509,509,509,509,509,509,509,509,510,512,512,508,506,498,493,473,449,409,347,263,74,32,32,32,32,32,32,32,32,32,32,32,32,32,32,4,20,33,42,47,50,54,57,59,60],"timestamp_mouse":[18,37,57,77,98,117,136,158,177,196,216,237,256,276,297,316,337,356,377,396,416,437,457,476,496,518,536,558,576,596,617,638,657,677,696,717,736,757,777,797,816,838,856,876,896,916,937,956,978,997,1017,1037,1058,1078,1098,1117,1137,1157,1177,1196,1217,1238,1257,1276,1297,1316,1337],"xSR":741.5,"ySR":449.15000000000003,"xT1":424.9,"yT1":0,"xT2":1058.1,"yT2":0,"toosoon":0,"cond_shown":"equaldotsize","ratio_trial":250,"smaller_num":"2","larger_num":"8","correct_side":1,"subjID":"anamartinez16","gender":"1","age":"11","school":"6"},{"start_time":1551801410678,"click_time":1551801411861,"finger_time":1551801411441,"fix_duration":835.8570195023119,"trial":56,"RT":763,"MT":420,"sideResp":2,"stimulus":"img/500/equaldotanddens/R/3_Ratio_500_L_10_R_20.png","xmouse":[804,804,804,804,804,804,804,804,804,804,804,804,804,804,804,804,804,804,804,804,804,804,804,804,804,804,804,804,804,804,804,804,804,804,805,811,824,840,879,900,926,957,997,1081,1127,1145,1156,1161,1163,1163,1163,1162,1161,1156,1152,1147,1142,1137,1131,1128],"ymouse":[467,467,467,467,467,467,467,467,467,467,467,467,467,467,467,467,467,467,467,467,467,467,467,467,467,467,467,467,467,467,467,467,467,467,468,471,472,475,476,476,469,458,436,370,320,290,266,248,219,208,202,196,192,183,176,163,149,136,103,88],"timestamp_mouse":[9,23,44,62,82,103,122,144,163,182,203,223,243,263,282,302,324,342,363,383,403,422,442,463,483,503,522,543,562,582,602,622,643,662,682,702,722,743,763,782,803,823,843,862,882,902,922,943,962,982,1003,1023,1042,1062,1083,1103,1123,1142,1163,1183],"xSR":741.5,"ySR":449.15000000000003,"xT1":424.9,"yT1":0,"xT2":1058.1,"yT2":0,"toosoon":0,"cond_shown":"equaldotanddens","ratio_trial":500,"smaller_num":"10","larger_num":"20","correct_side":2,"subjID":"anamartinez16","gender":"1","age":"11","school":"6"},{"start_time":1551801413572,"click_time":1551801414641,"finger_time":1551801414120,"fix_duration":709.6132953815764,"trial":57,"RT":548,"MT":521,"sideResp":1,"stimulus":"img/250/equaldotanddens/L/7_Ratio_250_L_8_R_2.png","xmouse":[817,817,817,817,817,817,817,817,817,817,817,817,817,817,817,817,817,817,817,817,817,817,817,817,815,809,775,710,550,458,343,285,252,223,220,219,218,217,217,217,225,233,242,262,277,294,312,328,348,357,374,390,410,455],"ymouse":[519,519,519,519,519,519,519,519,519,519,519,519,519,519,519,519,519,519,519,519,519,519,519,519,519,519,519,518,470,431,363,321,296,263,255,249,238,224,203,192,169,155,140,118,106,97,88,82,75,72,67,64,62,61],"timestamp_mouse":[10,28,49,69,89,109,130,148,169,189,208,229,248,269,289,309,330,348,368,388,409,428,448,468,489,509,529,548,568,588,609,629,649,668,690,709,729,749,768,788,809,829,849,869,889,909,928,949,969,989,1008,1029,1048,1069],"xSR":741.5,"ySR":449.15000000000003,"xT1":424.9,"yT1":0,"xT2":1058.1,"yT2":0,"toosoon":0,"cond_shown":"equaldotanddens","ratio_trial":250,"smaller_num":"2","larger_num":"8","correct_side":1,"subjID":"anamartinez16","gender":"1","age":"11","school":"6"},{"start_time":1551801416026,"click_time":1551801417219,"finger_time":1551801416720,"fix_duration":685.8800966510624,"trial":58,"RT":694,"MT":499,"sideResp":1,"stimulus":"img/250/equaldotanddens/L/7_Ratio_250_L_8_R_2.png","xmouse":[795,795,795,795,795,795,795,795,795,795,795,795,795,795,795,795,795,795,795,795,795,795,795,795,795,795,795,795,795,795,795,795,783,746,687,560,473,427,381,347,314,310,307,307,307,307,307,307,318,328,347,357,366,371,374,380,384,395,411,431],"ymouse":[485,485,485,485,485,485,485,485,485,485,485,485,485,485,485,485,485,485,485,485,485,485,485,485,485,485,485,485,485,485,485,485,483,473,460,426,401,388,376,364,344,338,326,312,294,252,229,208,170,148,112,98,85,77,74,67,65,62,62,62],"timestamp_mouse":[14,35,54,75,94,115,134,154,175,194,214,236,256,275,292,312,334,352,373,392,412,434,454,473,492,512,532,552,573,592,613,632,653,672,694,712,732,752,772,793,813,833,852,873,892,912,932,952,973,993,1012,1033,1052,1072,1092,1112,1133,1152,1173,1193],"xSR":741.5,"ySR":449.15000000000003,"xT1":424.9,"yT1":0,"xT2":1058.1,"yT2":0,"toosoon":0,"cond_shown":"equaldotanddens","ratio_trial":250,"smaller_num":"2","larger_num":"8","correct_side":1,"subjID":"anamartinez16","gender":"1","age"