[{"start_time":1551800573500,"click_time":1551800575297,"finger_time":1551800574915,"fix_duration":740.505001449003,"trial":0,"RT":1415,"MT":382,"sideResp":2,"stimulus":[],"xmouse":[800,800,800,800,800,800,800,800,800,800,800,800,800,800,800,800,800,800,800,800,800,800,800,800,800,800,800,800,800,800,800,800,800,800,800,800,800,800,800,800,800,800,800,800,800,800,800,800,800,800,800,800,800,800,800,800,800,800,800,800,800,800,800,800,800,800,800,800,800,819,861,899,918,930,932,938,945,951,959,976,985,992,1001,1030,1049,1057,1060,1062,1066,1080],"ymouse":[503,503,503,503,503,503,503,503,503,503,503,503,503,503,503,503,503,503,503,503,503,503,503,503,503,503,503,503,503,503,503,503,503,503,503,503,503,503,503,503,503,503,503,503,503,503,503,503,503,503,503,503,503,503,503,503,503,503,503,503,503,503,503,503,503,503,503,503,503,489,445,412,393,377,367,351,336,324,307,269,250,233,212,162,137,125,120,115,108,91],"timestamp_mouse":[16,35,56,75,95,116,135,156,177,195,217,237,255,276,297,315,337,355,376,396,415,437,455,477,495,516,535,557,577,596,616,636,655,677,695,716,735,756,777,795,815,837,855,876,897,915,936,957,975,995,1016,1037,1055,1075,1096,1117,1136,1157,1175,1195,1216,1237,1256,1277,1297,1316,1336,1357,1375,1395,1415,1436,1456,1477,1495,1515,1535,1556,1576,1596,1616,1635,1656,1677,1696,1715,1736,1756,1776,1796],"xSR":741.5,"ySR":449.15000000000003,"xT1":424.9,"yT1":0,"xT2":1058.1,"yT2":0,"toosoon":0,"cond_shown":"Congruent","ratio_trial":200,"L_num":3,"L_den":10,"R_num":7,"R_den":14,"correct_side":2,"subjID":"anamartinez16","gender":"1","age":"11","school":"6","test":{"fix_dur":[250,1500],"timestim":1000,"targets_dim":[100,100],"targets_relative_coord":[0.3,0.7],"size_stim":[880,420],"start_dim":[100,100],"size_start":[300,300],"size_fix":60,"samplingrate":20,"img_types":["Congruent","Incongruent"],"ratios":[100,200,300],"rep_conds":19,"nTrials":120,"trials_to_rest":500,"Trials_order":[26,27,94,69,41,75,79,68,43,8,34,23,33,59,3,15,66,7,39,36,20,98,28,90,29,58,99,32,30,77,89,76,55,111,56,44,81,52,110,1,83,85,113,22,5,51,107,18,91,49,10,13,117,61,17,119,74,19,60,42,102,72,105,16,54,62,97,2,71,48,92,101,24,116,103,80,112,21,50,14,11,88,37,87,65,95,45,53,9,35,109,70,40,12,0,93,64,82,67,86,25,47,84,63,115,31,38,114,6,104,108,106,78,96,4,118,73,57,46,100],"cond_shown":["Congruent","Incongruent","Congruent","Incongruent","Incongruent","Incongruent","Incongruent","Congruent","Incongruent","Congruent","Congruent","Incongruent","Incongruent","Incongruent","Incongruent","Incongruent","Congruent","Incongruent","Incongruent","Congruent","Congruent","Congruent","Congruent","Congruent","Incongruent","Congruent","Incongruent","Congruent","Congruent","Incongruent","Incongruent","Congruent","Incongruent","Incongruent","Congruent","Congruent","Incongruent","Congruent","Congruent","Incongruent","Incongruent","Incongruent","Incongruent","Congruent","Incongruent","Incongruent","Incongruent","Congruent","Incongruent","Incongruent","Congruent","Incongruent","Incongruent","Incongruent","Incongruent","Incongruent","Congruent","Incongruent","Congruent","Congruent","Congruent","Congruent","Incongruent","Congruent","Congruent","Congruent","Incongruent","Congruent","Incongruent","Congruent","Congruent","Incongruent","Congruent","Congruent","Incongruent","Congruent","Congruent","Incongruent","Congruent","Congruent","Incongruent","Congruent","Incongruent","Incongruent","Incongruent","Incongruent","Incongruent","Incongruent","Incongruent","Incongruent","Incongruent","Congruent","Congruent","Congruent","Congruent","Incongruent","Congruent","Congruent","Incongruent","Congruent","Incongruent","Incongruent","Congruent","Incongruent","Incongruent","Incongruent","Congruent","Congruent","Congruent","Congruent","Congruent","Congruent","Congruent","Congruent","Congruent","Congruent","Incongruent","Incongruent","Congruent","Congruent"],"ratio_trial":[200,200,300,200,300,200,100,200,100,200,300,300,200,300,200,200,100,100,200,100,200,200,300,100,300,300,200,200,100,300,300,300,100,200,200,200,200,300,200,100,300,100,300,300,300,200,300,100,100,100,300,100,200,100,300,300,200,100,100,100,100,100,200,300,100,200,100,200,300,100,200,300,100,200,100,200,300,200,200,200,300,300,100,200,300,300,200,300,200,300,100,300,300,100,100,200,300,300,100,200,100,300,100,200,100,100,200,100,100,200,100,300,100,100,300,300,100,200,300,300],"left_num":[3,7,8,11,13,1,8,16,6,16,20,13,6,4,1,4,8,10,1,6,3,3,2,2,13,1,1,6,7,4,4,9,3,3,7,16,4,4,6,2,4,3,4,24,4,6,1,12,9,13,24,11,3,3,2,1,1,8,15,15,9,15,11,5,3,4,1,15,13,3,7,1,7,8,9,1,7,4,3,7,4,4,10,3,4,4,4,4,7,3,11,7,4,10,12,1,20,1,17,3,8,2,4,6,2,3,1,15,7,7,9,1,3,8,2,1,6,4,20,11],"right_num":[7,12,10,3,12,3,6,9,3,12,13,12,3,2,3,14,2,8,2,5,9,9,12,11,12,19,2,3,9,8,2,3,11,11,18,12,6,2,11,8,8,8,2,2,2,3,3,13,13,12,8,9,1,7,6,2,21,1,13,13,8,13,3,7,2,3,8,4,12,4,18,2,9,2,20,21,20,6,7,18,2,13,9,1,2,2,14,2,8,4,9,20,13,3,13,2,13,6,10,11,1,6,6,3,8,7,21,13,9,18,8,3,4,2,10,19,11,6,14,1],"left_den":[10,10,15,20,26,2,16,30,12,20,25,26,20,20,2,6,16,25,3,20,12,12,10,5,26,3,3,15,14,5,20,10,5,4,15,20,5,5,20,4,5,5,20,30,20,20,2,30,15,26,30,22,10,9,4,2,2,20,25,25,15,25,20,25,6,10,2,25,26,20,15,2,14,15,10,2,14,5,10,15,20,20,25,10,20,20,6,20,10,6,22,14,20,25,30,3,25,5,30,10,20,4,8,20,4,9,2,25,14,15,15,5,20,16,20,3,10,5,25,22],"right_den":[14,24,12,4,15,10,10,27,5,20,26,15,6,4,10,30,5,16,15,25,20,20,24,22,15,30,15,15,15,16,4,5,22,20,27,20,10,4,22,20,16,16,4,4,4,6,15,26,26,20,16,15,2,30,30,10,30,2,26,26,16,26,4,14,5,15,20,10,15,16,27,10,15,6,25,30,25,10,14,27,4,26,18,2,4,4,30,4,16,20,15,25,26,10,26,15,26,12,15,22,2,30,10,6,20,30,30,26,15,27,16,6,16,5,25,30,22,10,28,5],"correct_side":[2,1,2,2,2,1,2,1,2,1,1,2,2,2,1,1,1,2,1,1,2,2,2,2,2,2,1,1,2,1,2,1,1,1,2,1,1,1,2,1,1,1,2,1,2,2,1,2,1,2,1,2,2,1,1,1,2,2,1,1,1,1,2,2,1,1,1,1,2,2,2,1,2,1,1,2,2,1,2,2,2,2,2,2,2,2,1,2,1,1,2,2,2,1,2,1,1,2,2,2,2,1,2,2,1,1,2,1,2,2,1,2,2,1,2,2,1,1,1,1],"img_shown":["img2/200/Congruent/R/C_Dist_200_LN_3_LD_10_RN_7_RD_14_1.png","img2/200/Incongruent/L/I_Dist_200_LN_7_LD_10_RN_12_RD_24_0.png","img2/300/Congruent/R/C_Dist_300_LN_8_LD_15_RN_10_RD_12_1.png","img2/200/Incongruent/R/I_Dist_200_LN_11_LD_20_RN_3_RD_4_1.png","img2/300/Incongruent/R/I_Dist_300_LN_13_LD_26_RN_12_RD_15_1.png","img2/200/Incongruent/L/I_Dist_200_LN_1_LD_2_RN_3_RD_10_0.png","img2/100/Incongruent/R/I_Dist_100_LN_8_LD_16_RN_6_RD_10_1.png","img2/200/Congruent/L/C_Dist_200_LN_16_LD_30_RN_9_RD_27_0.png","img2/100/Incongruent/R/I_Dist_100_LN_6_LD_12_RN_3_RD_5_1.png","img2/200/Congruent/L/C_Dist_200_LN_16_LD_20_RN_12_RD_20_0.png","img2/300/Congruent/L/C_Dist_300_LN_20_LD_25_RN_13_RD_26_0.png","img2/300/Incongruent/R/I_Dist_300_LN_13_LD_26_RN_12_RD_15_1.png","img2/200/Incongruent/R/I_Dist_200_LN_6_LD_20_RN_3_RD_6_1.png","img2/300/Incongruent/R/I_Dist_300_LN_4_LD_20_RN_2_RD_4_1.png","img2/200/Incongruent/L/I_Dist_200_LN_1_LD_2_RN_3_RD_10_0.png","img2/200/Incongruent/L/I_Dist_200_LN_4_LD_6_RN_14_RD_30_0.png","img2/100/Congruent/L/C_Dist_100_LN_8_LD_16_RN_2_RD_5_0.png","img2/100/Incongruent/R/I_Dist_100_LN_10_LD_25_RN_8_RD_16_1.png","img2/200/Incongruent/L/I_Dist_200_LN_1_LD_3_RN_2_RD_15_0.png","img2/100/Congruent/L/C_Dist_100_LN_6_LD_20_RN_5_RD_25_0.png","img2/200/Congruent/R/C_Dist_200_LN_3_LD_12_RN_9_RD_20_1.png","img2/200/Congruent/R/C_Dist_200_LN_3_LD_12_RN_9_RD_20_1.png","img2/300/Congruent/R/C_Dist_300_LN_2_LD_10_RN_12_RD_24_1.png","img2/100/Congruent/R/C_Dist_100_LN_2_LD_5_RN_11_RD_22_1.png","img2/300/Incongruent/R/I_Dist_300_LN_13_LD_26_RN_12_RD_15_1.png","img2/300/Congruent/R/C_Dist_300_LN_1_LD_3_RN_19_RD_30_1.png","img2/200/Incongruent/L/I_Dist_200_LN_1_LD_3_RN_2_RD_15_0.png","img2/200/Congruent/L/C_Dist_200_LN_6_LD_15_RN_3_RD_15_0.png","img2/100/Congruent/R/C_Dist_100_LN_7_LD_14_RN_9_RD_15_1.png","img2/300/Incongruent/L/I_Dist_300_LN_4_LD_5_RN_8_RD_16_0.png","img2/300/Incongruent/R/I_Dist_300_LN_4_LD_20_RN_2_RD_4_1.png","img2/300/Congruent/L/C_Dist_300_LN_9_LD_10_RN_3_RD_5_0.png","img2/100/Incongruent/L/I_Dist_100_LN_3_LD_5_RN_11_RD_22_0.png","img2/200/Incongruent/L/I_Dist_200_LN_3_LD_4_RN_11_RD_20_0.png","img2/200/Congruent/R/C_Dist_200_LN_7_LD_15_RN_18_RD_27_1.png","img2/200/Congruent/L/C_Dist_200_LN_16_LD_20_RN_12_RD_20_0.png","img2/200/Incongruent/L/I_Dist_200_LN_4_LD_5_RN_6_RD_10_0.png","img2/300/Congruent/L/C_Dist_300_LN_4_LD_5_RN_2_RD_4_0.png","img2/200/Congruent/R/C_Dist_200_LN_6_LD_20_RN_11_RD_22_1.png","img2/100/Incongruent/L/I_Dist_100_LN_2_LD_4_RN_8_RD_20_0.png","img2/300/Incongruent/L/I_Dist_300_LN_4_LD_5_RN_8_RD_16_0.png","img2/100/Incongruent/L/I_Dist_100_LN_3_LD_5_RN_8_RD_16_0.png","img2/300/Incongruent/R/I_Dist_300_LN_4_LD_20_RN_2_RD_4_1.png","img2/300/Congruent/L/C_Dist_300_LN_24_LD_30_RN_2_RD_4_0.png","img2/300/Incongruent/R/I_Dist_300_LN_4_LD_20_RN_2_RD_4_1.png","img2/200/Incongruent/R/I_Dist_200_LN_6_LD_20_RN_3_RD_6_1.png","img2/300/Incongruent/L/I_Dist_300_LN_1_LD_2_RN_3_RD_15_0.png","img2/100/Congruent/R/C_Dist_100_LN_12_LD_30_RN_13_RD_26_1.png","img2/100/Incongruent/L/I_Dist_100_LN_9_LD_15_RN_13_RD_26_0.png","img2/100/Incongruent/R/I_Dist_100_LN_13_LD_26_RN_12_RD_20_1.png","img2/300/Congruent/L/C_Dist_300_LN_24_LD_30_RN_8_RD_16_0.png","img2/100/Incongruent/R/I_Dist_100_LN_11_LD_22_RN_9_RD_15_1.png","img2/200/Incongruent/R/I_Dist_200_LN_3_LD_10_RN_1_RD_2_1.png","img2/100/Incongruent/L/I_Dist_100_LN_3_LD_9_RN_7_RD_30_0.png","img2/300/Incongruent/L/I_Dist_300_LN_2_LD_4_RN_6_RD_30_0.png","img2/300/Incongruent/L/I_Dist_300_LN_1_LD_2_RN_2_RD_10_0.png","img2/200/Congruent/R/C_Dist_200_LN_1_LD_2_RN_21_RD_30_1.png","img2/100/Incongruent/R/I_Dist_100_LN_8_LD_20_RN_1_RD_2_1.png","img2/100/Congruent/L/C_Dist_100_LN_15_LD_25_RN_13_RD_26_0.png","img2/100/Congruent/L/C_Dist_100_LN_15_LD_25_RN_13_RD_26_0.png","img2/100/Congruent/L/C_Dist_100_LN_9_LD_15_RN_8_RD_16_0.png","img2/100/Congruent/L/C_Dist_100_LN_15_LD_25_RN_13_RD_26_0.png","img2/200/Incongruent/R/I_Dist_200_LN_11_LD_20_RN_3_RD_4_1.png","img2/300/Congruent/R/C_Dist_300_LN_5_LD_25_RN_7_RD_14_1.png","img2/100/Congruent/L/C_Dist_100_LN_3_LD_6_RN_2_RD_5_0.png","img2/200/Congruent/L/C_Dist_200_LN_4_LD_10_RN_3_RD_15_0.png","img2/100/Incongruent/L/I_Dist_100_LN_1_LD_2_RN_8_RD_20_0.png","img2/200/Congruent/L/C_Dist_200_LN_15_LD_25_RN_4_RD_10_0.png","img2/300/Incongruent/R/I_Dist_300_LN_13_LD_26_RN_12_RD_15_1.png","img2/100/Congruent/R/C_Dist_100_LN_3_LD_20_RN_4_RD_16_1.png","img2/200/Congruent/R/C_Dist_200_LN_7_LD_15_RN_18_RD_27_1.png","img2/300/Incongruent/L/I_Dist_300_LN_1_LD_2_RN_2_RD_10_0.png","img2/100/Congruent/R/C_Dist_100_LN_7_LD_14_RN_9_RD_15_1.png","img2/200/Congruent/L/C_Dist_200_LN_8_LD_15_RN_2_RD_6_0.png","img2/100/Incongruent/L/I_Dist_100_LN_9_LD_10_RN_20_RD_25_0.png","img2/200/Congruent/R/C_Dist_200_LN_1_LD_2_RN_21_RD_30_1.png","img2/300/Congruent/R/C_Dist_300_LN_7_LD_14_RN_20_RD_25_1.png","img2/200/Incongruent/L/I_Dist_200_LN_4_LD_5_RN_6_RD_10_0.png","img2/200/Congruent/R/C_Dist_200_LN_3_LD_10_RN_7_RD_14_1.png","img2/200/Congruent/R/C_Dist_200_LN_7_LD_15_RN_18_RD_27_1.png","img2/300/Incongruent/R/I_Dist_300_LN_4_LD_20_RN_2_RD_4_1.png","img2/300/Congruent/R/C_Dist_300_LN_4_LD_20_RN_13_RD_26_1.png","img2/100/Incongruent/R/I_Dist_100_LN_10_LD_25_RN_9_RD_18_1.png","img2/200/Incongruent/R/I_Dist_200_LN_3_LD_10_RN_1_RD_2_1.png","img2/300/Incongruent/R/I_Dist_300_LN_4_LD_20_RN_2_RD_4_1.png","img2/300/Incongruent/R/I_Dist_300_LN_4_LD_20_RN_2_RD_4_1.png","img2/200/Incongruent/L/I_Dist_200_LN_4_LD_6_RN_14_RD_30_0.png","img2/300/Incongruent/R/I_Dist_300_LN_4_LD_20_RN_2_RD_4_1.png","img2/200/Incongruent/L/I_Dist_200_LN_7_LD_10_RN_8_RD_16_0.png","img2/300/Incongruent/L/I_Dist_300_LN_3_LD_6_RN_4_RD_20_0.png","img2/100/Incongruent/R/I_Dist_100_LN_11_LD_22_RN_9_RD_15_1.png","img2/300/Congruent/R/C_Dist_300_LN_7_LD_14_RN_20_RD_25_1.png","img2/300/Congruent/R/C_Dist_300_LN_4_LD_20_RN_13_RD_26_1.png","img2/100/Congruent/L/C_Dist_100_LN_10_LD_25_RN_3_RD_10_0.png","img2/100/Congruent/R/C_Dist_100_LN_12_LD_30_RN_13_RD_26_1.png","img2/200/Incongruent/L/I_Dist_200_LN_1_LD_3_RN_2_RD_15_0.png","img2/300/Congruent/L/C_Dist_300_LN_20_LD_25_RN_13_RD_26_0.png","img2/300/Congruent/R/C_Dist_300_LN_1_LD_5_RN_6_RD_12_1.png","img2/100/Incongruent/R/I_Dist_100_LN_17_LD_30_RN_10_RD_15_1.png","img2/200/Congruent/R/C_Dist_200_LN_3_LD_10_RN_11_RD_22_1.png","img2/100/Incongruent/R/I_Dist_100_LN_8_LD_20_RN_1_RD_2_1.png","img2/300/Incongruent/L/I_Dist_300_LN_2_LD_4_RN_6_RD_30_0.png","img2/100/Congruent/R/C_Dist_100_LN_4_LD_8_RN_6_RD_10_1.png","img2/200/Incongruent/R/I_Dist_200_LN_6_LD_20_RN_3_RD_6_1.png","img2/100/Incongruent/L/I_Dist_100_LN_2_LD_4_RN_8_RD_20_0.png","img2/100/Incongruent/L/I_Dist_100_LN_3_LD_9_RN_7_RD_30_0.png","img2/200/Congruent/R/C_Dist_200_LN_1_LD_2_RN_21_RD_30_1.png","img2/100/Congruent/L/C_Dist_100_LN_15_LD_25_RN_13_RD_26_0.png","img2/100/Congruent/R/C_Dist_100_LN_7_LD_14_RN_9_RD_15_1.png","img2/200/Congruent/R/C_Dist_200_LN_7_LD_15_RN_18_RD_27_1.png","img2/100/Congruent/L/C_Dist_100_LN_9_LD_15_RN_8_RD_16_0.png","img2/300/Congruent/R/C_Dist_300_LN_1_LD_5_RN_3_RD_6_1.png","img2/100/Congruent/R/C_Dist_100_LN_3_LD_20_RN_4_RD_16_1.png","img2/100/Congruent/L/C_Dist_100_LN_8_LD_16_RN_2_RD_5_0.png","img2/300/Congruent/R/C_Dist_300_LN_2_LD_20_RN_10_RD_25_1.png","img2/300/Congruent/R/C_Dist_300_LN_1_LD_3_RN_19_RD_30_1.png","img2/100/Incongruent/L/I_Dist_100_LN_6_LD_10_RN_11_RD_22_0.png","img2/200/Incongruent/L/I_Dist_200_LN_4_LD_5_RN_6_RD_10_0.png","img2/300/Congruent/L/C_Dist_300_LN_20_LD_25_RN_14_RD_28_0.png","img2/300/Congruent/L/C_Dist_300_LN_11_LD_22_RN_1_RD_5_0.png"],"dist100_C":[["C_Dist_100_LN_10_LD_25_RN_3_RD_10_0.png","C_Dist_100_LN_11_LD_22_RN_4_RD_10_0.png","C_Dist_100_LN_11_LD_22_RN_6_RD_15_0.png","C_Dist_100_LN_15_LD_25_RN_13_RD_26_0.png","C_Dist_100_LN_3_LD_6_RN_2_RD_5_0.png","C_Dist_100_LN_6_LD_20_RN_5_RD_25_0.png","C_Dist_100_LN_8_LD_16_RN_2_RD_5_0.png","C_Dist_100_LN_9_LD_15_RN_8_RD_16_0.png"],["C_Dist_100_LN_1_LD_2_RN_18_RD_30_1.png","C_Dist_100_LN_1_LD_2_RN_3_RD_5_1.png","C_Dist_100_LN_12_LD_30_RN_13_RD_26_1.png","C_Dist_100_LN_2_LD_5_RN_11_RD_22_1.png","C_Dist_100_LN_2_LD_5_RN_6_RD_12_1.png","C_Dist_100_LN_3_LD_20_RN_4_RD_16_1.png","C_Dist_100_LN_4_LD_10_RN_15_RD_30_1.png","C_Dist_100_LN_4_LD_8_RN_6_RD_10_1.png","C_Dist_100_LN_6_LD_12_RN_15_RD_25_1.png","C_Dist_100_LN_7_LD_14_RN_15_RD_25_1.png","C_Dist_100_LN_7_LD_14_RN_9_RD_15_1.png"]],"dist100_I":[["I_Dist_100_LN_1_LD_2_RN_8_RD_20_0.png","I_Dist_100_LN_2_LD_4_RN_6_RD_15_0.png","I_Dist_100_LN_2_LD_4_RN_8_RD_20_0.png","I_Dist_100_LN_3_LD_5_RN_11_RD_22_0.png","I_Dist_100_LN_3_LD_5_RN_8_RD_16_0.png","I_Dist_100_LN_3_LD_6_RN_4_RD_10_0.png","I_Dist_100_LN_3_LD_9_RN_7_RD_30_0.png","I_Dist_100_LN_4_LD_8_RN_8_RD_20_0.png","I_Dist_100_LN_6_LD_10_RN_11_RD_22_0.png","I_Dist_100_LN_6_LD_10_RN_13_RD_26_0.png","I_Dist_100_LN_6_LD_10_RN_7_RD_14_0.png","I_Dist_100_LN_9_LD_10_RN_20_RD_25_0.png","I_Dist_100_LN_9_LD_15_RN_13_RD_26_0.png","I_Dist_100_LN_9_LD_15_RN_14_RD_28_0.png"],["I_Dist_100_LN_10_LD_25_RN_8_RD_16_1.png","I_Dist_100_LN_10_LD_25_RN_9_RD_18_1.png","I_Dist_100_LN_11_LD_22_RN_9_RD_15_1.png","I_Dist_100_LN_12_LD_24_RN_9_RD_15_1.png","I_Dist_100_LN_12_LD_30_RN_2_RD_4_1.png","I_Dist_100_LN_13_LD_26_RN_12_RD_20_1.png","I_Dist_100_LN_13_LD_26_RN_6_RD_10_1.png","I_Dist_100_LN_17_LD_30_RN_10_RD_15_1.png","I_Dist_100_LN_6_LD_12_RN_3_RD_5_1.png","I_Dist_100_LN_8_LD_16_RN_6_RD_10_1.png","I_Dist_100_LN_8_LD_20_RN_1_RD_2_1.png","I_Dist_100_LN_9_LD_18_RN_6_RD_10_1.png"]],"dist100_S":[["E_Dist_100_LN_2_LD_12_RN_2_RD_30_0.png","E_Dist_100_LN_6_LD_10_RN_6_RD_12_0.png"],["E_Dist_100_LN_6_LD_12_RN_6_RD_10_1.png"]],"dist200_C":[["C_Dist_200_LN_11_LD_22_RN_3_RD_10_0.png","C_Dist_200_LN_12_LD_15_RN_6_RD_10_0.png","C_Dist_200_LN_12_LD_20_RN_6_RD_15_0.png","C_Dist_200_LN_14_LD_28_RN_6_RD_20_0.png","C_Dist_200_LN_15_LD_25_RN_4_RD_10_0.png","C_Dist_200_LN_16_LD_20_RN_12_RD_20_0.png","C_Dist_200_LN_16_LD_30_RN_9_RD_27_0.png","C_Dist_200_LN_20_LD_25_RN_9_RD_15_0.png","C_Dist_200_LN_21_LD_30_RN_2_RD_4_0.png","C_Dist_200_LN_4_LD_10_RN_3_RD_15_0.png","C_Dist_200_LN_4_LD_8_RN_3_RD_10_0.png","C_Dist_200_LN_6_LD_15_RN_3_RD_15_0.png","C_Dist_200_LN_7_LD_21_RN_2_RD_15_0.png","C_Dist_200_LN_8_LD_15_RN_2_RD_6_0.png","C_Dist_200_LN_8_LD_15_RN_3_RD_9_0.png","C_Dist_200_LN_8_LD_15_RN_7_RD_21_0.png","C_Dist_200_LN_9_LD_20_RN_4_RD_16_0.png"],["C_Dist_200_LN_1_LD_2_RN_21_RD_30_1.png","C_Dist_200_LN_13_LD_26_RN_14_RD_20_1.png","C_Dist_200_LN_3_LD_10_RN_11_RD_22_1.png","C_Dist_200_LN_3_LD_10_RN_14_RD_28_1.png","C_Dist_200_LN_3_LD_10_RN_7_RD_14_1.png","C_Dist_200_LN_3_LD_12_RN_9_RD_20_1.png","C_Dist_200_LN_3_LD_6_RN_14_RD_20_1.png","C_Dist_200_LN_5_LD_10_RN_14_RD_20_1.png","C_Dist_200_LN_6_LD_12_RN_7_RD_10_1.png","C_Dist_200_LN_6_LD_20_RN_11_RD_22_1.png","C_Dist_200_LN_7_LD_15_RN_18_RD_27_1.png","C_Dist_200_LN_9_LD_30_RN_13_RD_26_1.png"]],"dist200_I":[["I_Dist_200_LN_1_LD_2_RN_3_RD_10_0.png","I_Dist_200_LN_1_LD_3_RN_2_RD_15_0.png","I_Dist_200_LN_3_LD_4_RN_11_RD_20_0.png","I_Dist_200_LN_4_LD_5_RN_6_RD_10_0.png","I_Dist_200_LN_4_LD_6_RN_14_RD_30_0.png","I_Dist_200_LN_7_LD_10_RN_12_RD_24_0.png","I_Dist_200_LN_7_LD_10_RN_14_RD_28_0.png","I_Dist_200_LN_7_LD_10_RN_8_RD_16_0.png"],["I_Dist_200_LN_11_LD_20_RN_3_RD_4_1.png","I_Dist_200_LN_14_LD_30_RN_12_RD_18_1.png","I_Dist_200_LN_14_LD_30_RN_6_RD_9_1.png","I_Dist_200_LN_3_LD_10_RN_1_RD_2_1.png","I_Dist_200_LN_4_LD_30_RN_1_RD_3_1.png","I_Dist_200_LN_6_LD_20_RN_3_RD_6_1.png","I_Dist_200_LN_7_LD_15_RN_4_RD_6_1.png","I_Dist_200_LN_7_LD_15_RN_6_RD_9_1.png","I_Dist_200_LN_9_LD_15_RN_8_RD_10_1.png"]],"dist200_S":[["E_Dist_200_LN_3_LD_6_RN_3_RD_10_0.png"],["E_Dist_200_LN_3_LD_10_RN_3_RD_6_1.png"]],"dist300_C":[["C_Dist_300_LN_11_LD_22_RN_1_RD_5_0.png","C_Dist_300_LN_11_LD_22_RN_2_RD_10_0.png","C_Dist_300_LN_11_LD_22_RN_4_RD_20_0.png","C_Dist_300_LN_12_LD_24_RN_2_RD_10_0.png","C_Dist_300_LN_18_LD_20_RN_9_RD_15_0.png","C_Dist_300_LN_20_LD_25_RN_13_RD_26_0.png","C_Dist_300_LN_20_LD_25_RN_14_RD_28_0.png","C_Dist_300_LN_20_LD_25_RN_5_RD_10_0.png","C_Dist_300_LN_20_LD_25_RN_8_RD_16_0.png","C_Dist_300_LN_20_LD_25_RN_9_RD_18_0.png","C_Dist_300_LN_24_LD_30_RN_2_RD_4_0.png","C_Dist_300_LN_24_LD_30_RN_8_RD_16_0.png","C_Dist_300_LN_3_LD_6_RN_2_RD_10_0.png","C_Dist_300_LN_4_LD_10_RN_1_RD_10_0.png","C_Dist_300_LN_4_LD_5_RN_2_RD_4_0.png","C_Dist_300_LN_8_LD_16_RN_1_RD_5_0.png","C_Dist_300_LN_9_LD_10_RN_3_RD_5_0.png"],["C_Dist_300_LN_1_LD_20_RN_7_RD_20_1.png","C_Dist_300_LN_1_LD_3_RN_19_RD_30_1.png","C_Dist_300_LN_1_LD_30_RN_8_RD_24_1.png","C_Dist_300_LN_1_LD_5_RN_11_RD_22_1.png","C_Dist_300_LN_1_LD_5_RN_3_RD_6_1.png","C_Dist_300_LN_1_LD_5_RN_6_RD_12_1.png","C_Dist_300_LN_2_LD_10_RN_12_RD_24_1.png","C_Dist_300_LN_2_LD_20_RN_10_RD_25_1.png","C_Dist_300_LN_3_LD_12_RN_11_RD_20_1.png","C_Dist_300_LN_3_LD_6_RN_4_RD_5_1.png","C_Dist_300_LN_4_LD_20_RN_13_RD_26_1.png","C_Dist_300_LN_5_LD_25_RN_6_RD_12_1.png","C_Dist_300_LN_5_LD_25_RN_7_RD_14_1.png","C_Dist_300_LN_7_LD_14_RN_20_RD_25_1.png","C_Dist_300_LN_8_LD_15_RN_10_RD_12_1.png"]],"dist300_I":[["I_Dist_300_LN_1_LD_2_RN_2_RD_10_0.png","I_Dist_300_LN_1_LD_2_RN_3_RD_15_0.png","I_Dist_300_LN_2_LD_4_RN_6_RD_30_0.png","I_Dist_300_LN_3_LD_6_RN_4_RD_20_0.png","I_Dist_300_LN_4_LD_5_RN_6_RD_12_0.png","I_Dist_300_LN_4_LD_5_RN_8_RD_16_0.png","I_Dist_300_LN_7_LD_10_RN_8_RD_20_0.png","I_Dist_300_LN_8_LD_10_RN_14_RD_28_0.png","I_Dist_300_LN_8_LD_10_RN_9_RD_18_0.png"],["I_Dist_300_LN_13_LD_26_RN_12_RD_15_1.png","I_Dist_300_LN_4_LD_20_RN_2_RD_4_1.png"]],"dist300_S":[["E_Dist_300_LN_9_LD_12_RN_9_RD_20_0.png"],["E_Dist_300_LN_18_LD_30_RN_18_RD_20_1.png","E_Dist_300_LN_3_LD_10_RN_3_RD_5_1.png","E_Dist_300_LN_9_LD_20_RN_9_RD_12_1.png"]],"dist500_C":[["C_Dist_500_LN_10_LD_13_RN_7_RD_26_0.png","C_Dist_500_LN_10_LD_15_RN_4_RD_24_0.png","C_Dist_500_LN_12_LD_16_RN_3_RD_12_0.png","C_Dist_500_LN_12_LD_18_RN_4_RD_24_0.png","C_Dist_500_LN_15_LD_18_RN_5_RD_15_0.png","C_Dist_500_LN_15_LD_20_RN_1_RD_4_0.png","C_Dist_500_LN_18_LD_27_RN_1_RD_6_0.png","C_Dist_500_LN_20_LD_24_RN_1_RD_3_0.png","C_Dist_500_LN_20_LD_24_RN_3_RD_9_0.png","C_Dist_500_LN_20_LD_24_RN_7_RD_21_0.png","C_Dist_500_LN_20_LD_28_RN_3_RD_14_0.png","C_Dist_500_LN_21_LD_28_RN_6_RD_24_0.png","C_Dist_500_LN_22_LD_28_RN_2_RD_7_0.png","C_Dist_500_LN_25_LD_30_RN_9_RD_27_0.png","C_Dist_500_LN_4_LD_6_RN_1_RD_6_0.png","C_Dist_500_LN_5_LD_6_RN_2_RD_6_0.png","C_Dist_500_LN_6_LD_9_RN_1_RD_6_0.png","C_Dist_500_LN_7_LD_10_RN_1_RD_5_0.png","C_Dist_500_LN_8_LD_12_RN_1_RD_6_0.png","C_Dist_500_LN_8_LD_12_RN_4_RD_24_0.png"],["C_Dist_500_LN_1_LD_4_RN_12_RD_16_1.png","C_Dist_500_LN_1_LD_4_RN_9_RD_12_1.png","C_Dist_500_LN_1_LD_9_RN_11_RD_18_1.png","C_Dist_500_LN_10_LD_24_RN_22_RD_24_1.png","C_Dist_500_LN_2_LD_12_RN_10_RD_15_1.png","C_Dist_500_LN_2_LD_12_RN_12_RD_18_1.png","C_Dist_500_LN_2_LD_12_RN_4_RD_6_1.png","C_Dist_500_LN_2_LD_24_RN_7_RD_12_1.png","C_Dist_500_LN_2_LD_5_RN_18_RD_20_1.png","C_Dist_500_LN_2_LD_5_RN_9_RD_10_1.png","C_Dist_500_LN_2_LD_8_RN_12_RD_16_1.png","C_Dist_500_LN_2_LD_8_RN_21_RD_28_1.png","C_Dist_500_LN_3_LD_10_RN_4_RD_5_1.png","C_Dist_500_LN_3_LD_12_RN_15_RD_20_1.png","C_Dist_500_LN_3_LD_30_RN_6_RD_10_1.png","C_Dist_500_LN_3_LD_8_RN_14_RD_16_1.png","C_Dist_500_LN_4_LD_16_RN_15_RD_20_1.png","C_Dist_500_LN_4_LD_24_RN_12_RD_18_1.png","C_Dist_500_LN_5_LD_14_RN_6_RD_7_1.png","C_Dist_500_LN_7_LD_21_RN_20_RD_24_1.png","C_Dist_500_LN_7_LD_28_RN_12_RD_16_1.png","C_Dist_500_LN_7_LD_28_RN_9_RD_12_1.png","C_Dist_500_LN_9_LD_27_RN_20_RD_24_1.png"]],"dist500_I":[["I_Dist_500_LN_2_LD_3_RN_4_RD_24_0.png","I_Dist_500_LN_5_LD_6_RN_6_RD_18_0.png","I_Dist_500_LN_7_LD_8_RN_9_RD_24_0.png"],["I_Dist_500_LN_7_LD_21_RN_5_RD_6_1.png"]],"dist500_S":[["E_Dist_500_LN_6_LD_8_RN_6_RD_24_0.png"],["E_Dist_500_LN_2_LD_12_RN_2_RD_3_1.png","E_Dist_500_LN_6_LD_24_RN_6_RD_8_1.png"]]}},{"start_time":1551800578438,"click_time":1551800581316,"finger_time":1551800580916,"fix_duration":1341.403519467531,"trial":1,"RT":2478,"MT":400,"sideResp":1,"stimulus":[],"xmouse":[802,802,802,802,802,802,802,802,802,802,802,802,802,802,802,802,802,802,802,802,802,802,802,802,802,802,802,802,802,802,802,802,802,802,802,802,802,802,802,802,802,802,802,802,802,802,802,802,802,802,802,802,802,802,802,802,802,802,802,802,802,802,802,802,802,802,802,802,802,802,800,800,799,799,799,799,799,799,799,799,799,799,799,799,799,799,799,799,799,799,799,799,799,799,799,799,799,798,798,798,798,798,798,798,798,798,798,798,798,798,798,798,798,798,798,798,798,798,798,798,798,798,797,792,780,754,716,592,574,574,574,574,574,574,574,574,574,574,574,574,574,574,574,501],"ymouse":[501,501,501,501,501,501,501,501,501,501,501,501,501,501,501,501,501,501,501,501,501,501,501,501,501,501,501,501,501,501,501,501,501,501,501,501,501,501,501,501,501,501,501,501,501,501,501,501,501,501,501,501,501,501,501,501,501,501,501,501,501,501,501,501,501,501,501,501,501,495,489,487,487,487,487,487,487,487,487,487,487,487,487,487,487,487,487,487,487,487,487,487,487,487,487,481,471,466,464,464,464,464,464,464,464,464,464,463,461,461,461,461,461,461,461,461,461,461,461,461,461,461,457,440,411,352,263,54,23,23,23,23,23,23,23,23,23,23,23,23,23,23,23,2],"timestamp_mouse":[18,38,57,78,97,118,139,159,178,198,217,237,258,278,297,318,339,359,378,399,419,437,459,477,498,517,537,559,578,598,619,639,658,679,698,719,738,758,777,799,819,838,859,879,897,918,938,958,979,998,1018,1039,1057,1078,1098,1117,1137,1159,1178,1197,1218,1237,1257,1278,1299,1317,1337,1358,1378,1399,1417,1439,1458,1478,1498,1517,1538,1557,1579,1598,1619,1639,1659,1677,1698,1717,1739,1758,1778,1798,1818,1838,1859,1877,1898,1917,1939,1959,1978,1999,2018,2037,2058,2078,2097,2118,2139,2157,2177,2199,2219,2239,2257,2277,2298,2319,2339,2357,2379,2398,2417,2439,2459,2478,2497,2518,2538,2558,2578,2598,2617,2638,2659,2677,2699,2717,2738,2757,2779,2798,2819,2838,2858,2878],"xSR":741.5,"ySR":449.15000000000003,"xT1":424.9,"yT1":0,"xT2":1058.1,"yT2":0,"toosoon":0,"cond_shown":"Incongruent","ratio_trial":200,"L_num":7,"L_den":10,"R_num":12,"R_den":24,"correct_side":1,"subjID":"anamartinez16","gender":"1","school":"6","age":"11"},{"start_time":1551800583685,"click_time":1551800585376,"finger_time":1551800584975,"fix_duration":1087.8862984113132,"trial":2,"RT":1290,"MT":401,"sideResp":2,"stimulus":[],"xmouse":[769,769,769,769,769,769,769,769,769,769,769,769,769,769,769,769,769,769,769,769,769,769,769,769,769,769,769,769,769,769,769,769,769,769,769,769,769,769,769,769,769,769,769,769,769,769,769,769,769,769,769,769,769,769,769,769,769,769,769,769,769,771,783,811,846,929,977,997,1011,1028,1031,1033,1034,1035,1040,1044,1048,1049,1053,1059,1076,1081,1085,1088,1090],"ymouse":[462,462,462,462,462,462,462,462,462,462,462,462,462,462,462,462,462,462,462,462,462,462,462,462,462,462,462,462,462,462,462,462,462,462,462,462,462,462,462,462,462,462,462,462,462,462,462,462,462,462,462,462,462,462,462,462,462,462,462,462,462,462,458,454,440,395,343,311,285,231,216,207,202,196,186,178,170,163,155,145,124,116,107,102,97],"timestamp_mouse":[11,41,51,70,91,111,131,151,172,192,210,230,252,271,290,312,331,351,372,392,412,431,451,471,492,510,532,550,571,591,610,632,650,671,691,711,732,752,770,790,810,831,851,870,892,912,931,952,970,990,1012,1032,1050,1072,1092,1110,1132,1152,1171,1192,1210,1231,1251,1271,1290,1310,1332,1351,1371,1393,1410,1432,1452,1470,1492,1511,1532,1552,1571,1591,1611,1631,1651,1672,1691],"xSR":741.5,"ySR":449.15000000000003,"xT1":424.9,"yT1":0,"xT2":1058.1,"yT2":0,"toosoon":0,"cond_shown":"Congruent","ratio_trial":300,"L_num":8,"L_den":15,"R_num":10,"R_den":12,"correct_side":2,"subjID":"anamartinez16","gender":"1","school":"6","age":"11"},{"start_time":1551800586666,"click_time":1551800588637,"finger_time":1551800588215,"fix_duration":250,"trial":3,"RT":1549,"MT":422,"sideResp":2,"stimulus":[],"xmouse":[793,793,793,793,793,793,793,793,793,793,793,793,793,793,793,793,793,793,793,793,793,793,793,793,793,793,793,793,793,793,793,793,793,793,793,793,793,793,793,793,793,793,793,793,793,793,793,793,793,793,793,793,793,793,793,793,793,793,793,793,793,793,793,793,793,793,793,793,793,793,793,793,793,793,793,793,806,891,993,1089,1160,1191,1188,1178,1174,1171,1170,1170,1170,1169,1166,1149,1138,1132,1129,1128,1128,1128,1130],"ymouse":[483,483,483,483,483,483,483,483,483,483,483,483,483,483,483,483,483,483,483,483,483,483,483,483,483,483,483,483,483,483,483,483,483,483,483,483,483,483,483,483,483,483,483,483,483,483,483,483,483,483,483,483,483,483,483,483,483,483,483,483,483,483,483,483,483,483,483,483,483,483,483,483,483,483,483,483,475,435,391,339,282,226,199,185,178,174,171,171,169,166,162,148,139,132,125,119,106,100,94],"timestamp_mouse":[10,41,50,70,91,110,129,151,170,191,209,230,250,271,289,309,329,350,371,390,411,431,449,469,490,510,530,550,570,590,609,630,650,669,689,711,730,750,769,789,810,830,849,871,890,909,930,949,971,990,1009,1031,1049,1071,1090,1109,1130,1150,1170,1190,1210,1230,1250,1270,1291,1309,1330,1349,1370,1389,1410,1429,1451,1471,1491,1510,1530,1549,1571,1590,1611,1629,1650,1670,1689,1709,1729,1750,1770,1789,1811,1829,1851,1871,1889,1911,1929,1949,1970],"xSR":741.5,"ySR":449.15000000000003,"xT1":424.9,"yT1":0,"xT2":1058.1,"yT2":0,"toosoon":0,"cond_shown":"Incongruent","ratio_trial":200,"L_num":11,"L_den":20,"R_num":3,"R_den":4,"correct_side":2,"subjID":"anamartinez16","gender":"1","school":"6","age":"11"},{"start_time":1551800591265,"click_time":1551800592935,"finger_time":1551800592636,"fix_duration":1407.6296234483639,"trial":4,"RT":1371,"MT":299,"sideResp":2,"stimulus":[],"xmouse":[826,826,826,826,826,826,826,826,826,826,826,826,826,826,826,826,826,826,826,826,826,826,826,826,826,826,826,826,826,826,826,826,826,826,826,826,826,826,826,826,826,826,826,826,826,826,826,826,826,826,826,826,826,826,826,826,826,826,826,826,826,826,826,826,826,826,826,836,857,882,930,957,976,988,1000,1010,1019,1021,1024,1027,1040,1047,1055,1064],"ymouse":[517,517,517,517,517,517,517,517,517,517,517,517,517,517,517,517,517,517,517,517,517,517,517,517,517,517,517,517,517,517,517,517,517,517,517,517,517,517,517,517,517,517,517,517,517,517,517,517,517,517,517,517,517,517,517,517,517,517,517,517,517,517,517,517,517,517,515,499,479,456,392,335,279,236,202,179,157,152,146,139,116,105,91,77],"timestamp_mouse":[11,42,50,71,91,112,132,151,172,190,212,232,252,271,291,311,331,352,371,392,411,430,450,472,492,511,531,551,571,590,611,630,650,671,692,710,730,752,770,791,812,832,850,872,891,911,930,952,972,992,1012,1031,1051,1070,1090,1111,1131,1152,1172,1191,1211,1230,1250,1271,1291,1312,1331,1352,1371,1391,1412,1431,1451,1471,1491,1511,1530,1552,1572,1592,1612,1631,1651,1670],"xSR":741.5,"ySR":449.15000000000003,"xT1":424.9,"yT1":0,"xT2":1058.1,"yT2":0,"toosoon":0,"cond_shown":"Incongruent","ratio_trial":300,"L_num":13,"L_den":26,"R_num":12,"R_den":15,"correct_side":2,"subjID":"anamartinez16","gender":"1","school":"6","age":"11"},{"start_time":1551800595127,"click_time":1551800596957,"finger_time":1551800596415,"fix_duration":250,"trial":5,"RT":1288,"MT":542,"sideResp":1,"stimulus":[],"xmouse":[801,801,801,801,801,801,801,801,801,801,801,801,801,801,801,801,801,801,801,801,801,801,801,801,801,801,801,801,801,801,801,801,801,801,801,801,801,801,801,801,801,801,801,801,801,801,801,801,801,801,801,801,801,801,801,801,801,801,801,801,801,801,802,805,805,805,804,795,769,757,746,737,723,714,705,692,675,656,626,610,597,586,573,566,563,561,560,556,548,539,529,518],"ymouse":[475,475,475,475,475,475,475,475,475,475,475,475,475,475,475,475,475,475,475,475,475,475,475,475,475,475,475,475,475,475,475,475,475,475,475,475,475,475,475,475,475,475,475,475,475,475,475,475,475,475,475,475,475,475,475,475,475,476,476,476,476,476,475,464,449,425,394,361,295,270,252,236,222,216,211,205,199,193,178,169,161,154,143,137,133,130,127,122,117,112,105,96],"timestamp_mouse":[9,31,48,69,88,108,130,150,168,188,210,230,248,268,289,308,328,348,370,389,409,428,450,468,488,508,529,548,568,588,609,629,649,668,688,708,729,748,768,790,809,830,848,870,889,909,929,949,968,989,1009,1028,1048,1069,1090,1108,1128,1149,1169,1189,1209,1228,1248,1269,1288,1309,1329,1349,1370,1388,1409,1428,1450,1468,1490,1508,1528,1548,1568,1589,1608,1628,1649,1668,1689,1710,1730,1750,1769,1788,1808,1830],"xSR":741.5,"ySR":449.15000000000003,"xT1":424.9,"yT1":0,"xT2":1058.1,"yT2":0,"toosoon":0,"cond_shown":"Incongruent","ratio_trial":200,"L_num":1,"L_den":2,"R_num":3,"R_den":10,"correct_side":1,"subjID":"anamartinez16","gender":"1","school":"6","age":"11"},{"start_time":1551800598510,"click_time":1551800600337,"finger_time":1551800600036,"fix_duration":513.331833389805,"trial":6,"RT":1526,"MT":301,"sideResp":2,"stimulus":[],"xmouse":[773,773,773,773,773,773,773,773,773,773,773,773,773,773,773,773,773,773,773,773,773,773,773,773,773,773,773,773,773,773,773,773,773,773,773,773,773,773,773,773,773,773,773,773,773,773,773,773,773,773,773,773,773,773,773,773,773,773,773,773,773,773,773,773,773,773,773,773,773,773,773,773,773,780,804,832,880,920,972,990,1004,1017,1028,1044,1057,1064,1072,1079,1086,1096,1104,1113],"ymouse":[509,509,509,509,509,509,509,509,509,509,509,509,509,509,509,509,509,509,509,509,509,509,509,509,509,509,509,509,509,509,509,509,509,509,509,509,509,509,509,509,509,509,509,509,509,509,509,509,509,509,509,509,509,509,509,509,509,509,509,509,509,509,509,509,509,509,509,509,509,509,509,509,509,503,482,460,423,389,344,322,305,287,271,244,223,211,195,181,163,124,101,83],"timestamp_mouse":[9,34,46,65,86,106,125,146,167,185,207,225,246,267,287,305,325,347,366,387,405,426,445,466,485,505,527,546,566,585,606,627,647,666,685,707,725,746,767,786,805,826,846,867,885,906,927,945,966,985,1005,1025,1045,1066,1086,1106,1125,1145,1167,1185,1205,1227,1246,1267,1285,1306,1327,1347,1365,1387,1406,1425,1446,1466,1487,1506,1526,1546,1567,1586,1606,1625,1645,1666,1685,1706,1725,1745,1765,1786,1807,1827],"xSR":741.5,"ySR":449.15000000000003,"xT1":424.9,"yT1":0,"xT2":1058.1,"yT2":0,"toosoon":0,"cond_shown":"Incongruent","ratio_trial":100,"L_num":8,"L_den":16,"R_num":6,"R_den":10,"correct_side":2,"subjID":"anamartinez16","gender":"1","school":"6","age":"11"},{"start_time":1551800603658,"click_time":1551800605497,"finger_time":1551800605155,"fix_duration":1060.1574029710823,"trial":7,"RT":1497,"MT":342,"sideResp":1,"stimulus":[],"xmouse":[808,808,808,808,808,808,808,808,808,808,808,808,808,808,808,808,808,808,808,808,808,808,808,808,808,808,808,808,808,808,808,808,808,808,808,808,808,808,808,808,808,808,808,808,808,808,808,808,808,808,808,808,808,808,808,808,808,808,808,808,808,808,808,808,808,808,808,808,808,808,808,808,808,807,804,804,778,762,745,728,714,695,689,687,685,684,671,658,640,617,550,519],"ymouse":[475,475,475,475,475,475,475,475,475,475,475,475,475,475,475,475,475,475,475,475,475,475,475,475,475,475,475,475,475,475,475,475,475,475,475,475,475,475,475,475,475,475,475,475,475,475,475,475,475,475,475,475,475,475,475,475,475,475,475,475,475,475,475,475,475,475,475,475,475,475,475,475,466,451,426,400,278,224,171,133,108,75,64,61,59,58,51,47,43,39,32,30],"timestamp_mouse":[17,38,57,79,97,118,138,158,177,198,217,237,258,278,298,317,338,357,377,397,418,438,458,477,498,518,538,558,579,598,617,639,657,678,698,717,738,757,779,799,817,838,857,878,899,917,937,957,979,997,1017,1039,1057,1078,1098,1117,1139,1157,1178,1199,1218,1237,1258,1279,1297,1317,1339,1358,1378,1397,1418,1438,1457,1478,1497,1518,1538,1558,1578,1597,1617,1637,1657,1679,1699,1718,1737,1758,1779,1798,1818,1839],"xSR":741.5,"ySR":449.15000000000003,"xT1":424.9,"yT1":0,"xT2":1058.1,"yT2":0,"toosoon":0,"cond_shown":"Congruent","ratio_trial":200,"L_num":16,"L_den":30,"R_num":9,"R_den":27,"correct_side":1,"subjID":"anamartinez16","gender":"1","school":"6","age":"11"},{"start_time":1551800608657,"click_time":1551800609957,"finger_time":1551800609755,"fix_duration":660.6818498840746,"trial":8,"RT":1098,"MT":202,"sideResp":2,"stimulus":[],"xmouse":[800,800,800,800,800,800,800,800,800,800,800,800,800,800,800,800,800,800,800,800,800,800,800,800,800,800,800,800,800,800,800,800,800,800,800,800,800,800,800,800,800,800,800,800,800,800,800,800,800,800,800,800,814,828,865,908,1022,1053,1071,1082,1089,1096,1101,1105,1108],"ymouse":[517,517,517,517,517,517,517,517,517,517,517,517,517,517,517,517,517,517,517,517,517,517,517,517,517,517,517,517,517,517,517,517,517,517,517,517,517,517,517,517,517,517,517,517,517,517,517,517,517,517,517,517,507,497,469,429,289,240,208,184,162,130,116,103,89],"timestamp_mouse":[20,39,71,78,99,118,139,159,179,200,218,240,258,279,300,319,339,360,378,400,418,438,458,480,500,518,540,559,578,599,619,640,658,679,699,718,738,760,779,799,819,838,858,879,899,919,938,958,978,999,1019,1038,1059,1078,1098,1118,1139,1160,1179,1198,1219,1238,1258,1280,1300],"xSR":741.5,"ySR":449.15000000000003,"xT1":424.9,"yT1":0,"xT2":1058.1,"yT2":0,"toosoon":0,"cond_shown":"Incongruent","ratio_trial":100,"L_num":6,"L_den":12,"R_num":3,"R_den":5,"correct_side":2,"subjID":"anamartinez16","gender":"1","school":"6","age":"11"},{"start_time":1551800611739,"click_time":1551800613575,"finger_time":1551800613136,"fix_duration":482.9861526034434,"trial":9,"RT":1397,"MT":439,"sideResp":1,"stimulus":[],"xmouse":[814,814,814,814,814,814,814,814,814,814,814,814,814,814,814,814,814,814,814,814,814,814,814,814,814,814,814,814,814,814,814,814,814,814,814,814,814,814,814,814,814,814,814,814,814,814,814,814,814,814,814,814,814,814,814,814,814,814,814,814,814,814,814,814,814,814,814,814,791,763,729,701,655,637,633,630,615,600,582,564,554,552,552,552,552,552,551,551,545,537,528,518],"ymouse":[495,495,495,495,495,495,495,495,495,495,495,495,495,495,495,495,495,495,495,495,495,495,495,495,495,495,495,495,495,495,495,495,495,495,495,495,495,495,495,495,495,495,495,495,495,495,495,495,495,495,495,495,495,495,495,495,495,495,495,495,495,495,495,495,495,495,495,490,459,416,350,285,182,154,148,146,143,141,137,132,128,127,127,127,127,127,127,124,115,102,88,75],"timestamp_mouse":[17,36,56,77,96,117,136,158,177,197,217,236,256,278,296,317,337,357,376,396,418,436,457,477,498,517,536,557,577,596,617,637,656,677,696,717,737,756,777,797,817,838,856,876,897,918,936,957,977,997,1016,1037,1057,1077,1098,1116,1136,1156,1177,1198,1218,1236,1257,1277,1296,1317,1336,1356,1378,1397,1417,1436,1456,1477,1498,1516,1538,1557,1577,1597,1616,1637,1656,1677,1697,1717,1738,1757,1777,1798,1817,1836],"xSR":741.5,"ySR":449.15000000000003,"xT1":424.9,"yT1":0,"xT2":1058.1,"yT2":0,"toosoon":0,"cond_shown":"Congruent","ratio_trial":200,"L_num":16,"L_den":20,"R_num":12,"R_den":20,"correct_side":1,"subjID":"anamartinez16","gender":"1","school":"6","age":"11"},{"start_time":1551800615683,"click_time":1551800617016,"finger_time":1551800616637,"fix_duration":1385.0317253729088,"trial":10,"RT":954,"MT":379,"sideResp":1,"stimulus":[],"xmouse":[811,811,811,811,811,811,811,811,811,811,811,811,811,811,811,811,811,811,811,811,811,811,811,811,811,811,811,811,811,811,811,811,811,811,811,811,811,811,811,811,811,811,811,811,811,793,778,761,740,699,687,677,670,667,664,659,657,652,649,644,635,627,617,604,587,549,521],"ymouse":[488,488,488,488,488,488,488,488,488,488,488,488,488,488,488,488,488,488,488,488,488,488,488,488,488,488,488,488,488,488,488,488,488,488,488,488,488,488,488,488,488,488,488,488,488,480,466,441,413,346,317,290,269,251,232,190,176,162,154,145,130,120,109,97,82,60,46],"timestamp_mouse":[12,43,53,73,93,113,132,153,173,193,213,234,253,273,294,313,333,352,373,393,412,433,453,472,493,513,532,553,573,592,613,632,654,672,692,713,733,752,773,794,814,833,853,873,893,912,932,954,974,994,1012,1034,1052,1073,1093,1112,1133,1153,1173,1193,1213,1233,1253,1273,1293,1313,1333],"xSR":741.5,"ySR":449.15000000000003,"xT1":424.9,"yT1":0,"xT2":1058.1,"yT2":0,"toosoon":0,"cond_shown":"Congruent","ratio_trial":300,"L_num":20,"L_den":25,"R_num":13,"R_den":26,"correct_side":1,"subjID":"anamartinez16","gender":"1","school":"6","age":"11"},{"start_time":1551800618605,"click_time":1551800619695,"finger_time":1551800619397,"fix_duration":806.5022022904924,"trial":11,"RT":792,"MT":298,"sideResp":2,"stimulus":[],"xmouse":[792,792,792,792,792,792,792,792,792,792,792,792,792,792,792,792,792,792,792,792,792,792,792,792,792,792,792,792,792,792,792,792,792,792,792,792,792,792,794,849,898,946,1004,1143,1190,1207,1213,1214,1213,1209,1205,1201,1192,1179,1154],"ymouse":[475,475,475,475,475,475,475,475,475,475,475,475,475,475,475,475,475,475,475,475,475,475,475,475,475,475,475,475,475,475,475,475,475,475,475,475,475,475,475,450,426,397,353,199,145,122,105,94,79,70,64,57,45,33,13],"timestamp_mouse":[10,37,50,70,91,111,131,151,171,190,212,232,251,272,290,311,332,351,371,391,411,430,452,471,492,511,531,551,571,592,611,630,651,670,690,711,731,750,771,792,811,831,852,872,890,910,930,951,972,990,1010,1031,1050,1070,1090],"xSR":741.5,"ySR":449.15000000000003,"xT1":424.9,"yT1":0,"xT2":1058.1,"yT2":0,"toosoon":0,"cond_shown":"Incongruent","ratio_trial":300,"L_num":13,"L_den":26,"R_num":12,"R_den":15,"correct_side":2,"subjID":"anamartinez16","gender":"1","school":"6","age":"11"},{"start_time":1551800622767,"click_time":1551800623995,"finger_time":1551800623396,"fix_duration":1410.7295719657398,"trial":12,"RT":629,"MT":599,"sideResp":2,"stimulus":[],"xmouse":[772,772,772,772,772,772,772,772,772,772,772,772,772,772,772,772,772,772,772,772,772,772,772,772,772,772,772,772,772,772,780,860,927,996,1067,1181,1225,1246,1256,1264,1270,1281,1281,1281,1281,1281,1281,1281,1281,1281,1281,1000,989,986,986,986,989,995,1002,1010,1040,1067],"ymouse":[487,487,487,487,487,487,487,487,487,487,487,487,487,487,487,487,487,487,487,487,487,487,487,487,487,487,487,487,487,487,484,433,392,352,305,212,172,143,118,92,65,4,4,4,4,4,4,4,4,4,4,12,23,30,34,42,48,53,60,65,75,82],"timestamp_mouse":[9,43,49,70,90,109,129,150,169,188,210,228,248,269,288,310,329,348,369,388,408,429,449,469,488,508,528,548,568,588,610,629,649,668,689,710,728,749,768,788,809,829,848,869,889,910,929,949,969,990,1012,1028,1049,1069,1090,1110,1128,1148,1169,1189,1210,1228],"xSR":741.5,"ySR":449.15000000000003,"xT1":424.9,"yT1":0,"xT2":1058.1,"yT2":0,"toosoon":0,"cond_shown":"Incongruent","ratio_trial":200,"L_num":6,"L_den":20,"R_num":3,"R_den":6,"correct_side":2,"subjID":"anamartinez16","gender":"1","school":"6","age":"11"},{"start_time":1551800627367,"click_time":1551800628379,"finger_time":1551800628137,"fix_duration":250,"trial":13,"RT":770,"MT":242,"sideResp":2,"stimulus":[],"xmouse":[823,823,823,823,824,824,820,817,815,814,812,812,812,812,812,812,812,812,812,812,812,812,812,812,812,812,812,812,812,812,812,812,812,812,812,812,812,833,890,944,1001,1082,1097,1099,1102,1102,1102,1102,1102,1102,1102],"ymouse":[465,465,465,465,466,469,483,493,500,506,508,509,509,509,509,509,509,509,509,509,509,509,509,509,509,509,509,509,509,509,509,509,509,509,509,509,509,490,428,379,325,227,180,156,140,125,121,117,112,106,96],"timestamp_mouse":[8,39,49,68,88,109,130,149,168,190,209,229,248,269,288,309,328,348,368,389,408,429,450,468,489,508,528,548,570,588,609,628,649,668,688,708,730,748,770,788,809,828,849,870,888,910,929,949,968,988,1012],"xSR":741.5,"ySR":449.15000000000003,"xT1":424.9,"yT1":0,"xT2":1058.1,"yT2":0,"toosoon":0,"cond_shown":"Incongruent","ratio_trial":300,"L_num":4,"L_den":20,"R_num":2,"R_den":4,"correct_side":2,"subjID":"anamartinez16","gender":"1","school":"6","age":"11"},{"start_time":1551800630918,"click_time":1551800631855,"finger_time":1551800631616,"fix_duration":1319.8378604326472,"trial":14,"RT":698,"MT":239,"sideResp":1,"stimulus":[],"xmouse":[808,808,808,808,808,808,808,808,808,808,808,808,808,808,808,808,808,808,808,808,808,808,808,808,808,808,808,808,808,808,808,808,808,808,800,787,768,716,686,656,627,594,567,529,506,497,491],"ymouse":[471,471,471,471,471,471,471,471,471,471,471,471,471,471,471,471,471,471,471,471,471,471,471,471,471,471,471,471,471,471,471,471,471,469,447,417,383,313,278,245,216,186,163,132,112,104,99],"timestamp_mouse":[17,41,59,78,98,117,138,157,177,199,217,238,259,279,298,319,338,359,378,397,418,438,458,479,499,518,538,557,578,597,618,638,659,677,698,717,738,759,778,798,817,838,858,877,898,918,937],"xSR":741.5,"ySR":449.15000000000003,"xT1":424.9,"yT1":0,"xT2":1058.1,"yT2":0,"toosoon":0,"cond_shown":"Incongruent","ratio_trial":200,"L_num":1,"L_den":2,"R_num":3,"R_den":10,"correct_side":1,"subjID":"anamartinez16","gender":"1","school":"6","age":"11"},{"start_time":1551800633898,"click_time":1551800635175,"finger_time":1551800635017,"fix_duration":960.766624935608,"trial":15,"RT":1119,"MT":158,"sideResp":1,"stimulus":[],"xmouse":[773,773,773,773,773,773,773,773,773,773,773,773,773,773,773,773,773,773,773,773,773,773,773,773,773,773,773,773,773,773,773,773,773,773,773,773,773,773,773,773,773,773,773,773,773,773,773,773,773,773,773,773,773,773,762,736,706,666,594,571,556,544,533,523],"ymouse":[523,523,523,523,523,523,523,523,523,523,523,523,523,523,523,523,523,523,523,523,523,523,523,523,523,523,523,523,523,523,523,523,523,523,523,523,523,523,523,523,523,523,523,523,523,523,523,523,523,523,523,523,523,523,466,399,334,264,163,129,107,92,78,68],"timestamp_mouse":[17,37,57,77,97,119,138,158,177,199,218,237,259,277,298,317,337,359,377,397,418,437,457,477,498,517,538,559,579,597,618,637,658,678,698,719,737,757,779,797,819,838,858,879,898,917,937,957,977,999,1019,1038,1057,1077,1097,1119,1139,1158,1179,1198,1218,1239,1258,1277],"xSR":741.5,"ySR":449.15000000000003,"xT1":424.9,"yT1":0,"xT2":1058.1,"yT2":0,"toosoon":0,"cond_shown":"Incongruent","ratio_trial":200,"L_num":4,"L_den":6,"R_num":14,"R_den":30,"correct_side":1,"subjID":"anamartinez16","gender":"1","school":"6","age":"11"},{"start_time":1551800637637,"click_time":1551800639277,"finger_time":1551800639157,"fix_duration":1319.9074817700564,"trial":16,"RT":1520,"MT":120,"sideResp":2,"stimulus":[],"xmouse":[768,768,768,768,768,768,768,768,768,768,768,768,768,768,768,768,768,768,768,768,768,768,768,768,768,768,768,768,768,770,775,775,775,775,775,775,775,775,775,775,775,775,775,775,775,775,775,775,775,775,775,775,775,775,775,775,775,775,775,775,775,775,775,775,775,775,775,775,775,777,780,786,796,800,807,818,869,929,972,1015,1055,1107],"ymouse":[476,476,476,476,476,476,476,476,476,476,476,476,476,476,476,476,476,476,476,476,476,476,476,476,476,476,476,476,476,476,476,476,476,476,476,476,476,476,476,476,476,476,476,476,476,476,476,476,476,476,476,476,476,476,476,476,476,476,476,476,476,476,476,476,476,476,476,476,476,476,476,472,465,461,457,447,396,329,276,213,153,61],"timestamp_mouse":[18,39,58,80,100,119,138,159,178,198,219,238,258,278,299,320,338,358,379,399,418,440,458,479,499,518,538,559,578,598,619,638,660,679,698,718,739,758,779,798,818,838,860,879,899,918,940,959,979,999,1018,1038,1059,1079,1098,1118,1138,1159,1178,1198,1219,1238,1259,1278,1300,1318,1338,1359,1379,1398,1420,1438,1458,1478,1499,1520,1540,1558,1579,1599,1618,1640],"xSR":741.5,"ySR":449.15000000000003,"xT1":424.9,"yT1":0,"xT2":1058.1,"yT2":0,"toosoon":0,"cond_shown":"Congruent","ratio_trial":100,"L_num":8,"L_den":16,"R_num":2,"R_den":5,"correct_side":1,"subjID":"anamartinez16","gender":"1","school":"6","age":"11"},{"start_time":1551800643578,"click_time":1551800645556,"finger_time":1551800645176,"fix_duration":821.6984054078277,"trial":17,"RT":1598,"MT":380,"sideResp":1,"stimulus":[],"xmouse":[804,804,804,804,804,804,804,804,804,804,804,804,804,804,804,804,804,804,804,804,804,804,804,804,804,804,804,804,804,804,804,804,804,804,804,804,804,804,804,804,804,804,804,804,804,804,804,804,804,804,804,804,804,804,804,804,804,804,804,804,804,804,804,804,804,804,804,804,804,804,804,804,804,804,804,804,804,795,785,765,685,622,550,483,389,368,359,357,357,357,357,357,359,367,387,396,405,416,427],"ymouse":[505,505,505,505,505,505,505,505,505,505,505,505,505,505,505,505,505,505,505,505,505,505,505,505,505,505,505,505,505,505,505,505,505,505,505,505,505,505,505,505,505,505,505,505,505,505,505,505,505,505,505,505,505,505,505,505,505,505,505,505,505,505,505,505,505,505,505,505,505,505,505,505,505,505,505,505,505,483,453,407,285,222,167,125,85,75,71,71,71,71,71,70,66,61,50,48,46,46,46],"timestamp_mouse":[20,39,57,78,97,118,138,158,177,198,219,237,257,278,298,319,339,357,378,399,417,437,458,477,499,519,537,559,577,599,617,637,657,677,698,718,739,757,779,797,818,838,859,877,897,917,938,957,977,999,1018,1038,1058,1078,1097,1117,1138,1158,1178,1198,1217,1238,1257,1277,1298,1317,1337,1359,1377,1398,1417,1437,1457,1477,1498,1517,1539,1557,1577,1598,1618,1638,1657,1677,1698,1717,1738,1759,1777,1798,1818,1839,1858,1878,1898,1918,1938,1959,1978],"xSR":741.5,"ySR":449.15000000000003,"xT1":424.9,"yT1":0,"xT2":1058.1,"yT2":0,"toosoon":0,"cond_shown":"Incongruent","ratio_trial":100,"L_num":10,"L_den":25,"R_num":8,"R_den":16,"correct_side":2,"subjID":"anamartinez16","gender":"1","school":"6","age":"11"},{"start_time":1551800647523,"click_time":1551800649377,"finger_time":1551800649256,"fix_duration":1124.418881348381,"trial":18,"RT":1733,"MT":121,"sideResp":2,"stimulus":[],"xmouse":[822,822,822,822,822,822,822,822,822,822,822,822,822,822,822,822,822,822,822,822,822,822,822,822,822,822,822,822,822,822,822,822,822,822,822,822,822,822,822,822,822,822,822,822,822,822,822,822,822,822,822,822,822,822,822,822,822,822,822,822,822,822,822,822,822,822,820,811,810,810,810,810,810,810,810,810,810,810,810,810,810,810,810,810,810,810,813,898,961,1026,1074,1106,1136],"ymouse":[487,487,487,487,487,487,487,487,487,487,487,487,487,487,487,487,487,487,487,487,487,487,487,487,487,487,487,487,487,487,487,487,487,487,487,487,487,487,487,487,487,487,487,487,487,487,487,487,487,487,487,487,487,487,487,487,487,487,487,487,487,487,487,487,487,484,477,455,453,452,452,452,452,452,452,452,452,452,452,452,452,452,452,452,452,450,444,358,299,233,175,124,40],"timestamp_mouse":[12,37,52,72,93,112,134,153,172,194,213,232,252,272,293,314,332,352,373,392,413,432,452,474,493,514,533,553,574,594,612,633,653,672,693,713,733,753,773,792,813,832,853,872,892,913,932,953,972,994,1013,1033,1053,1073,1094,1112,1133,1154,1174,1193,1213,1234,1252,1273,1293,1313,1332,1354,1374,1392,1413,1434,1452,1472,1494,1513,1533,1552,1572,1593,1613,1634,1652,1673,1693,1712,1733,1754,1773,1793,1813,1834,1854],"xSR":741.5,"ySR":449.15000000000003,"xT1":424.9,"yT1":0,"xT2":1058.1,"yT2":0,"toosoon":0,"cond_shown":"Incongruent","ratio_trial":200,"L_num":1,"L_den":3,"R_num":2,"R_den":15,"correct_side":1,"subjID":"anamartinez16","gender":"1","school":"6","age":"11"},{"start_time":1551800653256,"click_time":1551800655075,"finger_time":1551800654717,"fix_duration":259.50955205113644,"trial":19,"RT":1461,"MT":358,"sideResp":1,"stimulus":[],"xmouse":[825,825,825,825,825,825,825,825,825,825,825,825,825,825,825,825,825,825,825,825,825,825,825,825,825,825,825,825,825,825,825,825,825,825,825,825,825,825,825,825,825,825,825,825,825,825,825,825,825,825,825,825,825,825,825,825,825,825,825,825,825,825,825,825,825,825,825,825,825,825,825,818,789,753,720,696,652,639,634,630,628,623,618,614,609,598,561,549,539,531,521],"ymouse":[510,510,510,510,510,510,510,510,510,510,510,510,510,510,510,510,510,510,510,510,510,510,510,510,510,510,510,510,510,510,510,510,510,510,510,510,510,510,510,510,510,510,510,510,510,510,510,510,510,510,510,510,510,510,510,510,510,510,510,510,510,510,510,510,510,510,510,510,510,510,510,482,415,346,295,259,201,186,179,174,170,165,161,158,154,148,127,118,112,104,96],"timestamp_mouse":[19,39,60,79,99,119,140,160,180,200,221,241,260,279,300,320,340,361,379,399,420,440,461,480,499,520,539,561,580,600,619,640,659,681,700,720,740,761,780,799,821,839,860,879,901,919,940,960,979,1000,1020,1040,1061,1079,1099,1119,1139,1159,1180,1199,1220,1241,1259,1280,1300,1320,1341,1359,1380,1400,1419,1440,1461,1481,1500,1520,1539,1560,1580,1601,1619,1639,1659,1680,1700,1720,1739,1760,1780,1801,1819],"xSR":741.5,"ySR":449.15000000000003,"xT1":424.9,"yT1":0,"xT2":1058.1,"yT2":0,"toosoon":0,"cond_shown":"Congruent","ratio_trial":100,"L_num":6,"L_den":20,"R_num":5,"R_den":25,"correct_side":1,"subjID":"anamartinez16","gender":"1","school":"6","age":"11"},{"start_time":1551800656700,"click_time":1551800658516,"finger_time":1551800658136,"fix_duration":724.3370475256048,"trial":20,"RT":1436,"MT":380,"sideResp":2,"stimulus":[],"xmouse":[780,780,780,780,780,780,780,780,780,780,780,780,780,780,780,780,780,780,780,780,780,780,780,780,780,780,780,780,780,780,780,780,780,780,780,780,780,780,780,780,780,780,780,780,780,780,780,780,780,780,780,780,780,780,780,780,780,780,780,780,780,780,780,780,780,780,780,780,780,781,799,818,842,864,907,924,943,960,973,985,990,995,999,1003,1009,1015,1021,1028,1036,1053,1065],"ymouse":[474,474,474,474,474,474,474,474,474,474,474,474,474,474,474,474,474,474,474,474,474,474,474,474,474,474,474,474,474,474,474,474,474,474,474,474,474,474,474,474,474,474,474,474,474,474,474,474,474,474,474,474,474,474,474,474,474,474,474,474,474,474,474,474,474,474,474,474,474,474,453,434,419,407,385,372,355,339,324,295,280,266,249,213,182,158,138,117,99,65,50],"timestamp_mouse":[15,43,54,75,95,114,134,156,174,195,216,236,255,275,294,314,334,355,374,394,415,434,456,476,495,515,534,554,574,594,614,634,654,676,694,714,735,755,774,795,815,834,854,876,894,916,934,954,975,994,1015,1035,1054,1075,1094,1114,1134,1154,1174,1195,1214,1234,1254,1274,1295,1315,1334,1355,1374,1394,1415,1436,1455,1474,1494,1515,1535,1556,1574,1595,1616,1634,1654,1675,1694,1715,1735,1754,1774,1795,1815],"xSR":741.5,"ySR":449.15000000000003,"xT1":424.9,"yT1":0,"xT2":1058.1,"yT2":0,"toosoon":0,"cond_shown":"Congruent","ratio_trial":200,"L_num":3,"L_den":12,"R_num":9,"R_den":20,"correct_side":2,"subjID":"anamartinez16","gender":"1","school":"6","age":"11"},{"start_time":1551800660529,"click_time":1551800662235,"finger_time":1551800661855,"fix_duration":351.2961427638994,"trial":21,"RT":1326,"MT":380,"sideResp":2,"stimulus":[],"xmouse":[791,791,791,791,791,791,791,791,791,791,791,791,791,791,791,791,791,791,791,791,791,791,791,791,791,791,791,791,791,791,791,791,791,791,791,791,791,790,790,790,790,790,790,790,790,790,790,790,790,790,790,790,790,790,790,790,790,790,790,790,790,791,793,808,817,828,844,906,960,1026,1092,1168,1168,1168,1168,1168,1168,1168,1168,1168,1168,1168,1168,1168,1168,1138],"ymouse":[522,522,522,522,522,522,522,522,522,522,522,522,522,522,522,522,522,522,522,522,522,522,522,522,522,522,522,522,522,522,522,522,522,522,522,522,522,521,521,521,521,521,521,521,521,521,521,521,521,521,521,521,521,521,521,521,521,521,521,521,521,517,515,497,487,472,449,356,277,187,107,15,15,15,15,15,15,15,15,15,15,15,15,15,15,7],"timestamp_mouse":[7,26,47,65,85,106,125,147,165,185,205,225,245,265,285,306,325,345,365,385,405,425,446,466,486,506,526,547,566,585,605,625,646,666,685,706,725,746,766,785,806,825,847,867,885,905,927,946,967,986,1005,1025,1045,1067,1086,1107,1125,1146,1165,1186,1205,1226,1246,1265,1285,1305,1326,1346,1366,1385,1406,1426,1445,1465,1486,1507,1525,1547,1565,1586,1607,1625,1646,1665,1686,1705],"xSR":741.5,"ySR":449.15000000000003,"xT1":424.9,"yT1":0,"xT2":1058.1,"yT2":0,"toosoon":0,"cond_shown":"Congruent","ratio_trial":200,"L_num":3,"L_den":12,"R_num":9,"R_den":20,"correct_side":2,"subjID":"anamartinez16","gender":"1","school":"6","age":"11"},{"start_time":1551800663710,"click_time":1551800665094,"finger_time":1551800664776,"fix_duration":273.51387131617423,"trial":22,"RT":1066,"MT":318,"sideResp":2,"stimulus":[],"xmouse":[813,813,813,813,813,813,813,813,813,813,813,813,813,813,813,813,813,813,813,813,813,813,813,813,813,813,813,813,813,813,813,813,813,813,813,813,813,813,813,813,813,813,813,813,813,813,813,813,813,813,813,813,829,888,941,979,1003,1024,1049,1054,1057,1060,1064,1066,1070,1070,1070,1066,1061,1060],"ymouse":[488,488,488,488,488,488,488,488,488,488,488,488,488,488,488,488,488,488,488,488,488,488,488,488,488,488,488,488,488,488,488,488,488,488,488,488,488,488,488,488,488,488,488,488,488,488,488,488,488,488,488,486,462,414,383,366,355,346,331,324,317,307,292,274,216,190,166,144,102,85],"timestamp_mouse":[8,35,45,65,86,106,124,145,166,184,204,226,244,266,286,304,325,345,366,386,405,426,445,465,484,505,524,544,565,584,605,626,644,664,685,705,726,745,764,785,804,825,844,866,886,905,926,945,965,985,1006,1024,1044,1066,1085,1105,1124,1144,1165,1184,1204,1225,1246,1264,1285,1305,1324,1344,1366,1384],"xSR":741.5,"ySR":449.15000000000003,"xT1":424.9,"yT1":0,"xT2":1058.1,"yT2":0,"toosoon":0,"cond_shown":"Congruent","ratio_trial":300,"L_num":2,"L_den":10,"R_num":12,"R_den":24,"correct_side":2,"subjID":"anamartinez16","gender":"1","school":"6","age":"11"},{"start_time":1551800666296,"click_time":1551800668015,"finger_time":1551800667574,"fix_duration":300.11132060356516,"trial":23,"RT":1278,"MT":441,"sideResp":2,"stimulus":[],"xmouse":[797,797,797,797,797,797,797,797,797,797,797,797,797,797,797,797,797,797,797,797,797,797,797,797,797,797,797,797,797,797,797,797,797,797,797,797,797,797,797,797,797,797,797,797,797,797,797,797,797,797,797,797,797,797,797,797,797,797,797,799,808,819,834,847,883,898,914,931,949,980,992,1000,1008,1010,1016,1019,1021,1022,1024,1031,1036,1040,1046,1060,1075,1084],"ymouse":[541,541,541,541,541,541,541,541,541,541,541,541,541,541,541,541,541,541,541,541,541,541,541,541,541,541,541,541,541,541,541,541,541,541,541,541,541,541,541,541,541,541,541,541,541,541,541,541,541,541,541,541,541,541,541,541,541,541,541,536,527,514,502,491,464,454,442,428,411,374,354,336,319,303,269,254,240,230,220,200,186,173,159,129,108,95],"timestamp_mouse":[34,39,59,78,98,119,138,159,178,198,219,238,259,278,298,318,338,358,379,398,419,439,460,478,498,519,539,560,580,598,618,639,658,678,698,719,738,759,779,800,818,838,859,878,900,919,938,959,979,999,1019,1038,1059,1079,1098,1118,1139,1159,1179,1199,1218,1238,1259,1278,1298,1320,1339,1359,1378,1398,1418,1439,1458,1480,1499,1520,1539,1559,1579,1598,1618,1640,1658,1679,1698,1719],"xSR":741.5,"ySR":449.15000000000003,"xT1":424.9,"yT1":0,"xT2":1058.1,"yT2":0,"toosoon":0,"cond_shown":"Congruent","ratio_trial":100,"L_num":2,"L_den":5,"R_num":11,"R_den":22,"correct_side":2,"subjID":"anamartinez16","gender":"1","school":"6","age":"11"},{"start_time":1551800670626,"click_time":1551800671935,"finger_time":1551800671535,"fix_duration":1250.0316710811505,"trial":24,"RT":909,"MT":400,"sideResp":2,"stimulus":[],"xmouse":[803,803,803,803,803,803,803,803,803,803,803,803,803,803,803,803,803,803,803,803,803,803,803,803,803,803,803,803,803,803,803,803,803,803,803,803,803,803,803,803,803,803,803,802,818,859,913,981,1147,1193,1232,1232,1232,1232,1232,1232,1232,1232,1232,1232,1232,1232,1232,1232,1232,1145],"ymouse":[531,531,531,531,531,531,531,531,531,531,531,531,531,531,531,531,531,531,531,531,531,531,531,531,531,531,531,531,531,531,531,531,531,531,531,531,531,531,531,531,531,531,531,529,503,465,414,341,142,74,10,10,10,10,10,10,10,10,10,10,10,10,10,10,10,2],"timestamp_mouse":[10,31,48,69,90,109,129,149,169,189,208,230,249,268,289,308,330,348,369,390,409,428,450,468,489,508,528,548,568,589,608,630,648,669,688,710,729,749,770,789,809,829,849,870,888,909,930,949,969,989,1009,1028,1048,1068,1088,1109,1130,1150,1169,1188,1209,1228,1249,1269,1288,1308],"xSR":741.5,"ySR":449.15000000000003,"xT1":424.9,"yT1":0,"xT2":1058.1,"yT2":0,"toosoon":0,"cond_shown":"Incongruent","ratio_trial":300,"L_num":13,"L_den":26,"R_num":12,"R_den":15,"correct_side":2,"subjID":"anamartinez16","gender":"1","school":"6","age":"11"},{"start_time":1551800674096,"click_time":1551800675916,"finger_time":1551800675515,"fix_duration":819.0446069810732,"trial":25,"RT":1419,"MT":401,"sideResp":2,"stimulus":[],"xmouse":[811,811,811,811,811,811,811,811,811,811,811,811,811,811,811,811,811,811,811,811,811,811,811,811,811,811,811,811,811,811,811,811,811,811,811,811,811,811,811,811,811,811,811,811,811,811,811,811,811,811,811,811,811,811,811,811,811,811,811,811,811,811,811,811,811,811,811,811,811,811,825,833,856,893,1005,1037,1064,1082,1100,1127,1136,1139,1141,1143,1145,1145,1145,1142,1130,1126,1121],"ymouse":[452,452,452,452,452,452,452,452,452,452,452,452,452,452,452,452,452,452,452,452,452,452,452,452,452,452,452,452,452,452,452,452,452,452,452,452,452,452,452,452,452,452,452,452,452,452,452,452,452,452,452,452,452,452,452,452,452,452,452,452,452,452,452,452,452,452,452,452,452,452,439,433,417,391,324,300,277,258,239,217,207,199,192,186,165,155,144,133,114,105,96],"timestamp_mouse":[18,38,58,78,99,119,138,160,178,199,218,238,259,278,298,319,339,358,379,399,419,439,458,480,498,520,540,559,578,600,618,638,660,679,698,719,739,759,779,798,818,839,860,879,900,918,939,958,979,999,1019,1039,1059,1078,1099,1119,1139,1158,1179,1198,1220,1238,1258,1279,1299,1319,1338,1360,1378,1398,1419,1438,1459,1478,1499,1518,1539,1560,1579,1598,1619,1640,1659,1678,1698,1720,1739,1758,1779,1798,1819],"xSR":741.5,"ySR":449.15000000000003,"xT1":424.9,"yT1":0,"xT2":1058.1,"yT2":0,"toosoon":0,"cond_shown":"Congruent","ratio_trial":300,"L_num":1,"L_den":3,"R_num":19,"R_den":30,"correct_side":2,"subjID":"anamartinez16","gender":"1","school":"6","age":"11"},{"start_time":1551800678830,"click_time":1551800680555,"finger_time":1551800680076,"fix_duration":1353.3210254358605,"trial":26,"RT":1246,"MT":479,"sideResp":2,"stimulus":[],"xmouse":[765,765,765,765,765,765,765,765,765,765,765,765,765,765,765,765,765,765,765,765,765,765,765,765,765,765,765,765,765,765,765,765,765,765,765,765,765,765,765,765,765,765,765,765,765,765,765,765,765,765,765,765,765,765,765,765,765,765,768,787,808,837,920,972,1030,1088,1135,1166,1199,1207,1210,1213,1216,1216,1216,1214,1214,1213,1210,1209,1209,1206,1201,1183,1171,1160,1150],"ymouse":[514,514,514,514,514,514,514,514,514,514,514,514,514,514,514,514,514,514,514,514,514,514,514,514,514,514,514,514,514,514,514,514,514,514,514,514,514,514,514,514,514,514,514,514,514,514,514,514,514,514,514,514,514,514,514,514,514,514,510,498,484,472,429,394,352,306,261,226,160,121,97,78,60,38,30,24,21,19,18,18,18,18,19,30,35,38,41],"timestamp_mouse":[10,31,45,64,86,105,125,145,165,185,204,224,244,265,286,304,326,344,364,385,405,425,444,466,485,505,525,544,564,585,605,624,644,666,685,705,726,744,764,785,805,825,846,864,884,905,925,945,964,985,1006,1025,1045,1064,1086,1104,1126,1144,1166,1184,1204,1224,1246,1264,1286,1306,1324,1344,1364,1385,1404,1424,1444,1465,1484,1505,1526,1544,1565,1585,1604,1625,1644,1665,1685,1704,1724],"xSR":741.5,"ySR":449.15000000000003,"xT1":424.9,"yT1":0,"xT2":1058.1,"yT2":0,"toosoon":0,"cond_shown":"Incongruent","ratio_trial":200,"L_num":1,"L_den":3,"R_num":2,"R_den":15,"correct_side":1,"subjID":"anamartinez16","gender":"1","school":"6","age":"11"},{"start_time":1551800682266,"click_time":1551800683994,"finger_time":1551800683654,"fix_duration":250,"trial":27,"RT":1388,"MT":340,"sideResp":1,"stimulus":[],"xmouse":[832,832,832,832,832,832,832,832,832,832,832,832,832,832,832,832,832,832,832,832,832,832,832,832,832,832,832,832,832,832,832,832,832,832,832,832,832,832,832,832,832,832,832,832,832,832,832,832,832,832,832,832,832,832,832,832,832,832,832,832,832,832,832,832,832,832,832,825,811,794,769,708,676,641,612,586,546,539,536,534,532,525,520,518,516,509,499],"ymouse":[518,518,518,518,518,518,518,518,518,518,518,518,518,518,518,518,518,518,518,518,518,518,518,518,518,518,518,518,518,518,518,518,518,518,518,518,518,518,518,518,518,518,518,518,518,518,518,518,518,518,518,518,518,518,518,518,518,518,518,518,518,518,518,518,518,518,518,502,472,431,386,296,263,234,218,207,194,189,187,185,183,176,169,163,152,121,97],"timestamp_mouse":[13,55,56,68,88,108,128,150,169,190,208,228,249,268,288,308,330,348,369,389,408,428,448,469,488,508,528,550,569,588,610,628,649,668,688,708,728,748,769,788,810,828,849,868,889,908,928,949,969,989,1008,1028,1048,1069,1089,1110,1128,1148,1169,1188,1208,1230,1248,1269,1288,1309,1328,1348,1369,1388,1409,1429,1448,1470,1488,1508,1528,1550,1568,1589,1608,1628,1648,1668,1688,1709,1728],"xSR":741.5,"ySR":449.15000000000003,"xT1":424.9,"yT1":0,"xT2":1058.1,"yT2":0,"toosoon":0,"cond_shown":"Congruent","ratio_trial":200,"L_num":6,"L_den":15,"R_num":3,"R_den":15,"correct_side":1,"subjID":"anamartinez16","gender":"1","school":"6","age":"11"},{"start_time":1551800685741,"click_time":1551800687535,"finger_time":1551800687194,"fix_duration":924.2235062603266,"trial":28,"RT":1453,"MT":341,"sideResp":2,"stimulus":[],"xmouse":[795,795,795,795,795,795,795,795,795,795,795,795,795,795,795,795,795,795,795,795,795,795,795,795,795,795,795,795,795,795,795,795,795,795,795,795,795,795,795,795,795,795,795,795,795,795,795,795,795,795,795,795,795,795,795,795,795,795,795,795,795,795,795,795,795,795,795,795,795,795,795,800,835,890,964,1040,1107,1142,1144,1146,1146,1150,1155,1158,1160,1160,1160,1155,1153,1152],"ymouse":[483,483,483,483,483,483,483,483,483,483,483,483,483,483,483,483,483,483,483,483,483,483,483,483,483,483,483,483,483,483,483,483,483,483,483,483,483,483,483,483,483,483,483,483,483,483,483,483,483,483,483,483,483,483,483,483,483,483,483,483,483,483,483,483,483,483,483,483,483,483,483,482,448,410,371,336,308,291,288,285,279,250,218,197,175,157,141,115,107,98],"timestamp_mouse":[13,34,53,74,94,113,134,153,175,193,213,233,255,273,293,313,333,354,374,395,413,433,454,474,494,513,534,554,573,594,615,634,654,673,694,714,734,754,775,793,815,833,854,875,893,913,935,953,974,993,1013,1033,1053,1073,1093,1114,1133,1153,1175,1194,1213,1234,1254,1274,1293,1314,1334,1354,1374,1393,1415,1434,1453,1474,1495,1514,1533,1553,1573,1594,1614,1635,1653,1673,1693,1713,1733,1753,1774,1793],"xSR":741.5,"ySR":449.15000000000003,"xT1":424.9,"yT1":0,"xT2":1058.1,"yT2":0,"toosoon":0,"cond_shown":"Congruent","ratio_trial":100,"L_num":7,"L_den":14,"R_num":9,"R_den":15,"correct_side":2,"subjID":"anamartinez16","gender":"1","school":"6","age":"11"},{"start_time":1551800688866,"click_time":1551800690194,"finger_time":1551800689894,"fix_duration":250,"trial":29,"RT":1028,"MT":300,"sideResp":1,"stimulus":[],"xmouse":[801,801,801,801,801,801,801,801,801,801,801,801,801,801,801,801,801,801,801,801,801,801,801,801,801,801,801,801,801,801,801,801,801,801,801,801,801,801,801,801,801,801,801,801,801,801,801,801,798,791,782,738,709,680,660,618,589,575,566,559,553,553,553,553,552,536,518],"ymouse":[531,531,531,531,531,531,531,531,531,531,531,531,531,531,531,531,531,531,531,531,531,531,531,531,531,531,531,531,531,531,531,531,531,531,531,531,531,531,531,531,531,531,531,531,531,531,531,531,528,502,476,390,342,287,236,151,101,79,68,61,58,58,58,58,58,58,61],"timestamp_mouse":[8,42,48,69,88,109,129,148,168,189,210,229,249,268,289,309,330,349,368,388,410,430,448,468,489,508,528,549,569,588,609,630,648,668,689,708,729,749,768,789,808,829,848,870,889,908,929,950,968,988,1008,1028,1048,1070,1089,1110,1129,1148,1169,1188,1210,1228,1248,1270,1289,1309,1328],"xSR":741.5,"ySR":449.15000000000003,"xT1":424.9,"yT1":0,"xT2":1058.1,"yT2":0,"toosoon":0,"cond_shown":"Incongruent","ratio_trial":300,"L_num":4,"L_den":5,"R_num":8,"R_den":16,"correct_side":1,"subjID":"anamartinez16","gender":"1","school":"6","age":"11"},{"start_time":1551800692464,"click_time":1551800694015,"finger_time":1551800693595,"fix_duration":907.2287852025779,"trial":30,"RT":1131,"MT":420,"sideResp":2,"stimulus":[],"xmouse":[836,836,836,836,836,836,836,836,836,836,836,836,836,836,836,836,836,836,836,836,836,836,836,836,836,836,836,836,836,836,836,836,836,836,836,836,836,836,836,836,836,836,836,836,836,836,836,836,836,836,836,836,836,836,836,840,859,914,979,1041,1160,1206,1239,1254,1259,1261,1261,1255,1248,1241,1234,1223,1216,1208,1202,1183,1168,1152],"ymouse":[491,491,491,491,491,491,491,491,491,491,491,491,491,491,491,491,491,491,491,491,491,491,491,491,491,491,491,491,491,491,491,491,491,491,491,491,491,491,491,491,491,491,491,491,491,491,491,491,491,491,491,491,491,491,491,491,485,468,442,414,337,292,245,199,158,121,72,46,34,26,21,16,14,13,13,14,21,27],"timestamp_mouse":[10,30,51,70,90,110,130,150,172,191,210,230,250,271,291,310,331,352,371,390,410,431,451,472,490,511,530,551,571,592,610,630,651,670,691,710,731,751,770,791,810,831,851,870,891,911,930,951,972,991,1010,1031,1051,1071,1090,1110,1131,1152,1171,1190,1211,1230,1251,1270,1291,1312,1332,1351,1370,1390,1410,1431,1450,1470,1490,1511,1530,1551],"xSR":741.5,"ySR":449.15000000000003,"xT1":424.9,"yT1":0,"xT2":1058.1,"yT2":0,"toosoon":0,"cond_shown":"Incongruent","ratio_trial":300,"L_num":4,"L_den":20,"R_num":2,"R_den":4,"correct_side":2,"subjID":"anamartinez16","gender":"1","school":"6","age":"11"},{"start_time":1551800699634,"click_time":1551800701534,"finger_time":1551800700795,"fix_duration":856.8545926994217,"trial":31,"RT":1161,"MT":739,"sideResp":2,"stimulus":[],"xmouse":[790,790,790,790,790,790,790,790,790,790,790,790,790,790,790,790,790,790,790,790,790,790,790,790,790,790,790,790,790,790,790,790,790,790,790,790,790,790,790,790,790,790,790,790,790,790,790,790,790,790,790,790,790,790,790,790,794,806,826,839,852,874,906,1019,1073,1122,1159,1196,1246,1246,1246,1246,1246,1246,1246,1246,1246,1246,1246,1246,1246,1246,1246,1246,1246,1246,1246,1246,1246,1246,1185,1181,1172,1167,1160,1154],"ymouse":[467,467,467,467,467,467,467,467,467,467,467,467,467,467,467,467,467,467,467,467,467,467,467,467,467,467,467,467,467,467,467,467,467,467,467,467,467,467,467,467,467,467,467,467,467,467,467,467,467,467,467,467,467,467,467,467,467,462,449,440,430,412,386,289,242,186,136,84,12,12,12,12,12,12,12,12,12,12,12,12,12,12,12,12,12,12,12,12,12,12,0,4,10,13,18,22],"timestamp_mouse":[8,21,41,60,80,101,120,141,161,180,201,220,240,261,280,302,320,340,361,382,400,420,441,462,480,500,520,541,561,580,600,620,642,661,682,700,722,740,760,780,800,821,840,861,882,900,921,940,960,981,1000,1020,1040,1060,1080,1101,1120,1141,1161,1181,1201,1222,1242,1260,1282,1300,1322,1340,1360,1381,1402,1422,1442,1460,1481,1500,1520,1540,1561,1581,1601,1620,1641,1660,1680,1702,1721,1740,1761,1781,1800,1821,1841,1860,1880,1900],"xSR":741.5,"ySR":449.15000000000003,"xT1":424.9,"yT1":0,"xT2":1058.1,"yT2":0,"toosoon":0,"cond_shown":"Congruent","ratio_trial":300,"L_num":9,"L_den":10,"R_num":3,"R_den":5,"correct_side":1,"subjID":"anamartinez16","gender":"1","school":"6","age":"11"},{"start_time":1551800707179,"click_time":1551800708855,"finger_time":1551800708454,"fix_duration":1441.2759225913812,"trial":32,"RT":1275,"MT":401,"sideResp":2,"stimulus":[],"xmouse":[771,771,771,771,771,771,771,771,771,771,771,771,771,771,771,771,771,771,771,771,771,771,771,771,771,771,771,771,771,771,771,771,771,771,771,771,771,771,771,771,771,771,771,771,771,771,771,771,771,771,771,771,771,771,771,771,771,771,771,771,771,771,785,811,899,935,960,980,993,1003,1013,1015,1017,1020,1024,1030,1036,1042,1051,1059,1073,1082,1087,1094],"ymouse":[464,464,464,464,464,464,464,464,464,464,464,464,464,464,464,464,464,464,464,464,464,464,464,464,464,464,464,464,464,464,464,464,464,464,464,464,464,464,464,464,464,464,464,464,464,464,464,464,464,464,464,464,464,464,464,464,464,464,464,464,464,464,454,440,402,384,369,353,336,318,285,277,267,257,243,212,194,179,160,146,122,110,103,97],"timestamp_mouse":[16,36,55,75,95,117,136,155,175,195,216,236,257,275,296,315,335,355,375,395,416,437,456,475,496,515,536,557,575,596,617,636,655,677,695,716,736,757,775,796,816,835,855,877,895,916,936,955,975,997,1016,1037,1056,1075,1095,1115,1135,1156,1177,1196,1215,1235,1257,1275,1297,1315,1335,1356,1376,1396,1415,1435,1456,1475,1495,1515,1536,1556,1577,1597,1616,1636,1656,1676],"xSR":741.5,"ySR":449.15000000000003,"xT1":424.9,"yT1":0,"xT2":1058.1,"yT2":0,"toosoon":0,"cond_shown":"Incongruent","ratio_trial":100,"L_num":3,"L_den":5,"R_num":11,"R_den":22,"correct_side":1,"subjID":"anamartinez16","gender":"1","school":"6","age":"11"},{"start_time":1551800710295,"click_time":1551800711295,"finger_time":1551800710974,"fix_duration":558.0189039548862,"trial":33,"RT":679,"MT":321,"sideResp":1,"stimulus":[],"xmouse":[775,775,775,775,775,775,775,775,775,775,775,775,775,775,775,775,775,775,775,775,775,775,775,775,775,775,775,775,775,775,775,775,775,782,788,809,810,809,801,787,753,741,727,712,696,657,616,591,567,545,502],"ymouse":[473,473,473,473,473,473,473,473,473,473,473,473,473,473,473,473,473,473,473,473,473,473,473,473,473,473,473,473,473,473,473,473,473,460,448,385,359,329,302,270,217,203,186,172,162,139,111,96,83,70,54],"timestamp_mouse":[1,20,39,59,79,100,120,139,159,181,199,219,239,260,279,301,320,340,359,380,399,421,439,459,480,500,519,540,559,579,600,619,639,660,679,699,719,741,760,779,799,819,839,860,880,899,919,940,960,979,1000],"xSR":741.5,"ySR":449.15000000000003,"xT1":424.9,"yT1":0,"xT2":1058.1,"yT2":0,"toosoon":0,"cond_shown":"Incongruent","ratio_trial":200,"L_num":3,"L_den":4,"R_num":11,"R_den":20,"correct_side":1,"subjID":"anamartinez16","gender":"1","school":"6","age":"11"},{"start_time":1551800714124,"click_time":1551800715754,"finger_time":1551800715294,"fix_duration":606.9489313960607,"trial":34,"RT":1170,"MT":460,"sideResp":2,"stimulus":[],"xmouse":[793,793,793,793,793,793,793,793,793,793,793,793,793,793,793,793,793,793,793,793,793,793,793,793,793,793,793,793,793,793,793,793,793,793,793,793,793,793,793,793,793,793,793,793,793,793,793,793,793,793,793,793,793,793,793,793,808,840,955,1024,1080,1112,1131,1147,1147,1147,1147,1147,1147,1145,1144,1143,1142,1140,1140,1140,1140,1140,1140,1140,1140,1140],"ymouse":[520,520,520,520,520,520,520,520,520,520,520,520,520,520,520,520,520,520,520,520,520,520,520,520,520,520,520,520,520,520,520,520,520,520,520,520,520,520,520,520,520,520,520,520,520,520,520,520,520,520,520,520,520,520,520,519,521,523,502,475,443,417,392,311,273,242,216,184,176,171,166,162,150,139,131,121,116,111,106,104,102,99],"timestamp_mouse":[10,37,51,72,91,110,131,151,170,191,210,231,250,270,292,310,330,352,370,391,410,430,451,471,491,511,530,550,570,590,610,630,650,671,690,712,730,751,770,791,811,832,850,870,891,910,931,950,970,990,1010,1031,1051,1070,1091,1111,1130,1150,1170,1191,1210,1230,1250,1270,1290,1310,1330,1351,1370,1391,1410,1430,1452,1470,1490,1510,1531,1550,1571,1592,1612,1630],"xSR":741.5,"ySR":449.15000000000003,"xT1":424.9,"yT1":0,"xT2":1058.1,"yT2":0,"toosoon":0,"cond_shown":"Congruent","ratio_trial":200,"L_num":7,"L_den":15,"R_num":18,"R_den":27,"correct_side":2,"subjID":"anamartinez16","gender":"1","school":"6","age":"11"},{"start_time":1551800717409,"click_time":1551800719135,"finger_time":1551800718834,"fix_duration":451.4331911836258,"trial":35,"RT":1425,"MT":301,"sideResp":1,"stimulus":[],"xmouse":[785,785,785,785,785,785,785,785,785,785,785,785,785,785,785,785,785,785,785,785,785,785,785,785,785,785,785,785,785,785,785,785,785,785,785,785,785,785,785,785,785,785,785,785,785,785,785,785,785,785,785,785,785,785,785,785,785,785,785,785,785,785,785,785,785,785,785,785,785,785,785,785,785,770,742,704,664,627,581,559,548,540,535,528,527,526,521],"ymouse":[505,505,505,505,505,505,505,505,505,505,505,505,505,505,505,505,505,505,505,505,505,505,505,505,505,505,505,505,505,505,505,505,505,505,505,505,505,505,505,505,505,505,505,505,505,505,505,505,505,505,505,505,505,505,505,505,505,505,505,505,505,505,505,505,505,505,505,505,505,496,475,444,403,298,243,194,153,122,84,66,55,46,41,36,36,36,35],"timestamp_mouse":[15,39,45,66,85,106,126,146,165,186,205,225,246,265,286,305,326,345,365,386,405,425,445,465,485,505,526,546,565,587,605,625,646,665,686,705,725,745,765,785,805,825,846,865,886,905,925,945,965,986,1006,1025,1045,1065,1086,1105,1125,1145,1165,1186,1205,1225,1245,1265,1286,1305,1325,1345,1365,1385,1405,1425,1446,1466,1485,1506,1525,1546,1566,1585,1606,1625,1645,1666,1685,1705,1726],"xSR":741.5,"ySR":449.15000000000003,"xT1":424.9,"yT1":0,"xT2":1058.1,"yT2":0,"toosoon":0,"cond_shown":"Congruent","ratio_trial":200,"L_num":16,"L_den":20,"R_num":12,"R_den":20,"correct_side":1,"subjID":"anamartinez16","gender":"1","school":"6","age":"11"},{"start_time":1551800721097,"click_time":1551800722375,"finger_time":1551800722194,"fix_duration":942.3191321401107,"trial":36,"RT":1097,"MT":181,"sideResp":1,"stimulus":[],"xmouse":[761,761,761,761,761,761,761,761,761,761,761,761,761,761,761,761,761,761,761,761,761,761,761,761,761,761,761,761,761,761,761,761,761,761,761,761,761,761,761,761,761,761,761,761,761,761,761,761,761,761,761,761,761,761,738,692,648,598,555,548,540,534,526,514],"ymouse":[481,481,481,481,481,481,481,481,481,481,481,481,481,481,481,481,481,481,481,481,481,481,481,481,481,481,481,481,481,481,481,481,481,481,481,481,481,481,481,481,481,481,481,481,481,481,481,481,481,481,481,481,478,469,370,261,191,132,69,52,39,28,20,11],"timestamp_mouse":[17,37,57,77,97,118,138,157,178,198,217,238,258,278,298,317,337,357,377,398,418,437,458,479,498,518,539,558,578,597,617,637,657,677,697,717,738,757,778,797,817,837,858,877,897,917,937,957,978,998,1018,1037,1057,1077,1097,1117,1137,1158,1178,1197,1217,1237,1258,1278],"xSR":741.5,"ySR":449.15000000000003,"xT1":424.9,"yT1":0,"xT2":1058.1,"yT2":0,"toosoon":0,"cond_shown":"Incongruent","ratio_trial":200,"L_num":4,"L_den":5,"R_num":6,"R_den":10,"correct_side":1,"subjID":"anamartinez16","gender":"1","school":"6","age":"11"},{"start_time":1551800723770,"click_time":1551800725674,"finger_time":1551800725394,"fix_duration":293.57133044257455,"trial":37,"RT":1624,"MT":280,"sideResp":1,"stimulus":[],"xmouse":[775,775,775,775,775,775,775,775,775,775,775,775,775,775,775,775,775,775,775,775,775,775,775,775,775,775,775,775,775,775,775,775,775,775,775,775,775,775,775,775,775,775,775,775,775,775,775,775,775,775,775,775,775,775,775,775,775,775,775,775,775,775,775,775,775,775,775,775,775,775,775,775,775,775,775,775,775,775,775,775,774,743,722,699,679,634,609,591,579,570,555,548,543,536,530,523],"ymouse":[492,492,492,492,492,492,492,492,492,492,492,492,492,492,492,492,492,492,492,492,492,492,492,492,492,492,492,492,492,492,492,492,492,492,492,492,492,492,492,492,492,492,492,492,492,492,492,492,492,492,492,492,492,492,492,492,492,492,492,492,492,492,492,492,492,492,492,492,492,492,492,492,492,492,492,492,492,492,492,473,451,386,359,332,305,249,218,188,166,145,118,105,99,91,84,76],"timestamp_mouse":[9,25,44,65,85,104,125,145,164,184,206,224,245,265,285,306,324,345,366,384,405,425,444,465,485,505,524,545,565,585,605,625,644,665,685,705,724,745,765,785,805,825,845,864,885,904,924,945,966,984,1004,1024,1045,1064,1085,1105,1125,1145,1164,1185,1206,1224,1245,1264,1284,1305,1324,1344,1365,1385,1404,1425,1446,1464,1485,1504,1525,1546,1565,1585,1604,1624,1645,1664,1684,1705,1724,1745,1772,1784,1805,1824,1844,1864,1885,1904],"xSR":741.5,"ySR":449.15000000000003,"xT1":424.9,"yT1":0,"xT2":1058.1,"yT2":0,"toosoon":0,"cond_shown":"Congruent","ratio_trial":300,"L_num":4,"L_den":5,"R_num":2,"R_den":4,"correct_side":1,"subjID":"anamartinez16","gender":"1","school":"6","age":"11"},{"start_time":1551800727195,"click_time":1551800728734,"finger_time":1551800728234,"fix_duration":479.71035755733294,"trial":38,"RT":1039,"MT":500,"sideResp":2,"stimulus":[],"xmouse":[819,819,819,819,819,819,819,819,819,819,819,819,819,819,819,819,819,819,819,819,819,819,819,819,819,819,819,819,819,819,819,819,819,819,819,819,819,819,819,819,819,819,819,819,819,819,819,819,819,819,819,821,853,907,954,1068,1129,1196,1258,1346,1368,1381,1383,1383,1373,1365,1354,1343,1333,1321,1293,1281,1269,1253,1236,1196,1171,1149],"ymouse":[497,497,497,497,497,497,497,497,497,497,497,497,497,497,497,497,497,497,497,497,497,497,497,497,497,497,497,497,497,497,497,497,497,497,497,497,497,497,497,497,497,497,497,497,497,497,497,497,497,497,497,496,499,505,511,511,500,470,431,337,291,247,224,204,174,160,145,133,124,117,109,107,103,96,89,73,61,54],"timestamp_mouse":[1,32,39,59,79,99,119,140,159,180,199,219,239,259,279,299,319,340,359,379,400,419,440,460,480,499,519,539,559,579,599,619,640,659,679,699,719,741,760,780,799,819,840,859,879,900,919,939,959,980,1001,1020,1039,1060,1080,1099,1120,1140,1160,1180,1199,1220,1239,1259,1280,1299,1319,1340,1360,1380,1400,1419,1439,1459,1479,1499,1520,1539],"xSR":741.5,"ySR":449.15000000000003,"xT1":424.9,"yT1":0,"xT2":1058.1,"yT2":0,"toosoon":0,"cond_shown":"Congruent","ratio_trial":200,"L_num":6,"L_den":20,"R_num":11,"R_den":22,"correct_side":2,"subjID":"anamartinez16","gender":"1","school":"6","age":"11"},{"start_time":1551800730844,"click_time":1551800732594,"finger_time":1551800732195,"fix_duration":1288.0353425342796,"trial":39,"RT":1351,"MT":399,"sideResp":2,"stimulus":[],"xmouse":[810,810,810,810,810,810,810,810,810,810,810,810,810,810,810,810,810,810,810,810,810,810,810,810,810,810,810,810,810,810,810,810,810,810,810,810,810,810,810,810,810,810,810,810,810,810,810,810,810,810,810,810,810,810,810,810,810,810,810,810,810,810,810,810,810,816,829,928,988,1036,1078,1117,1194,1211,1220,1221,1221,1221,1221,1221,1221,1220,1208,1199,1191,1183,1170,1158],"ymouse":[514,514,514,514,514,514,514,514,514,514,514,514,514,514,514,514,514,514,514,514,514,514,514,514,514,514,514,514,514,514,514,514,514,514,514,514,514,514,514,514,514,514,514,514,514,514,514,514,514,514,514,514,514,514,514,514,514,514,514,514,514,514,514,514,514,513,512,494,477,459,436,404,315,275,242,218,199,164,150,132,116,101,80,72,68,65,59,55],"timestamp_mouse":[10,35,50,71,91,111,131,152,170,191,211,231,250,270,290,310,330,351,370,390,410,431,450,471,491,511,532,550,571,590,611,631,651,670,691,711,730,750,771,790,810,831,851,871,890,910,931,951,970,991,1011,1031,1050,1070,1090,1110,1131,1151,1170,1190,1210,1230,1251,1270,1290,1310,1330,1351,1370,1390,1411,1431,1451,1470,1490,1510,1530,1550,1570,1591,1611,1630,1651,1670,1691,1710,1731,1750],"xSR":741.5,"ySR":449.15000000000003,"xT1":424.9,"yT1":0,"xT2":1058.1,"yT2":0,"toosoon":0,"cond_shown":"Incongruent","ratio_trial":100,"L_num":2,"L_den":4,"R_num":8,"R_den":20,"correct_side":1,"subjID":"anamartinez16","gender":"1","school":"6","age":"11"},{"start_time":1551800734645,"click_time":1551800735694,"finger_time":1551800735334,"fix_duration":250,"trial":40,"RT":689,"MT":360,"sideResp":1,"stimulus":[],"xmouse":[820,820,820,820,820,820,820,820,820,820,820,820,820,820,820,820,820,820,820,820,820,820,820,820,820,820,820,820,820,820,820,820,820,821,821,818,811,784,775,767,758,750,732,726,717,702,684,633,613,593,571,551,510],"ymouse":[468,468,468,468,468,468,468,468,468,468,468,468,468,468,468,468,468,468,468,468,468,468,468,468,468,468,468,468,468,468,468,468,468,465,442,402,355,238,207,187,176,169,156,152,143,130,115,75,63,51,43,36,28],"timestamp_mouse":[10,31,49,69,90,109,130,149,169,190,210,231,250,269,290,310,329,349,369,389,409,430,450,469,489,509,529,549,569,589,609,629,649,669,689,709,729,749,769,789,810,829,850,869,890,909,930,949,969,989,1009,1029,1049],"xSR":741.5,"ySR":449.15000000000003,"xT1":424.9,"yT1":0,"xT2":1058.1,"yT2":0,"toosoon":0,"cond_shown":"Incongruent","ratio_trial":300,"L_num":4,"L_den":5,"R_num":8,"R_den":16,"correct_side":1,"subjID":"anamartinez16","gender":"1","school":"6","age":"11"},{"start_time":1551800737231,"click_time":1551800738894,"finger_time":1551800738515,"fix_duration":734.0525709158793,"trial":41,"RT":1284,"MT":379,"sideResp":1,"stimulus":[],"xmouse":[796,796,796,796,796,796,796,796,796,796,796,796,796,796,796,796,796,796,796,796,796,796,796,796,796,796,796,796,796,796,796,796,796,796,796,796,796,796,796,796,796,796,796,796,796,796,796,796,796,796,796,796,796,796,796,796,796,796,796,796,796,796,796,796,796,796,790,779,748,734,718,698,682,657,649,636,623,599,583,572,562,551,541,522],"ymouse":[474,474,474,474,474,474,474,474,474,474,474,474,474,474,474,474,474,474,474,474,474,474,474,474,474,474,474,474,474,474,474,474,474,474,474,474,474,474,474,474,474,474,474,474,474,474,474,474,474,474,474,474,474,474,474,474,474,474,474,474,474,474,474,455,411,377,346,312,251,235,219,205,194,171,161,152,145,133,122,113,104,90,79,57],"timestamp_mouse":[8,36,44,63,84,104,123,144,164,183,204,223,243,263,283,303,324,343,363,383,403,423,444,464,483,503,523,544,563,584,604,623,643,663,683,703,723,743,764,783,803,823,844,864,883,903,923,944,963,984,1003,1023,1043,1064,1083,1104,1124,1143,1163,1183,1203,1224,1244,1264,1284,1303,1323,1343,1363,1383,1403,1423,1443,1463,1483,1504,1523,1544,1563,1584,1603,1623,1643,1663],"xSR":741.5,"ySR":449.15000000000003,"xT1":424.9,"yT1":0,"xT2":1058.1,"yT2":0,"toosoon":0,"cond_shown":"Incongruent","ratio_trial":100,"L_num":3,"L_den":5,"R_num":8,"R_den":16,"correct_side":1,"subjID":"anamartinez16","gender":"1","school":"6","age":"11"},{"start_time":1551800740448,"click_time":1551800741514,"finger_time":1551800741255,"fix_duration":472.7180658111023,"trial":42,"RT":807,"MT":259,"sideResp":2,"stimulus":[],"xmouse":[802,802,802,802,802,802,802,802,802,802,802,802,802,802,802,802,802,802,802,802,802,802,802,802,802,802,802,802,802,802,802,802,802,802,802,802,802,802,802,818,864,921,1019,1058,1090,1104,1109,1120,1129,1133,1138,1138,1133,1129],"ymouse":[517,517,517,517,517,517,517,517,517,517,517,517,517,517,517,517,517,517,517,517,517,517,517,517,517,517,517,517,517,517,517,517,517,517,517,517,517,517,516,516,516,515,497,477,451,427,398,316,262,227,196,168,113,86],"timestamp_mouse":[10,42,47,66,86,106,126,146,166,188,207,226,248,267,286,308,326,347,366,387,406,427,447,466,486,507,526,546,566,587,606,626,647,666,686,707,726,746,767,786,807,826,847,866,886,907,926,946,966,986,1006,1026,1046,1066],"xSR":741.5,"ySR":449.15000000000003,"xT1":424.9,"yT1":0,"xT2":1058.1,"yT2":0,"toosoon":0,"cond_shown":"Incongruent","ratio_trial":300,"L_num":4,"L_den":20,"R_num":2,"R_den":4,"correct_side":2,"subjID":"anamartinez16","gender":"1","school":"6","age":"11"},{"start_time":1551800743664,"click_time":1551800744694,"finger_time":1551800744455,"fix_duration":1247.1417141114644,"trial":43,"RT":791,"MT":239,"sideResp":1,"stimulus":[],"xmouse":[777,777,777,777,777,777,777,777,777,777,777,777,777,777,777,777,777,777,777,777,777,777,777,777,777,777,777,777,777,777,777,777,777,777,777,777,777,778,789,796,798,797,791,778,766,731,694,657,611,568,533,487],"ymouse":[540,540,540,540,540,540,540,540,540,540,540,540,540,540,540,540,540,540,540,540,540,540,540,540,540,540,540,540,540,540,540,540,540,540,540,540,528,501,462,410,348,318,279,235,202,145,111,88,68,52,37,17],"timestamp_mouse":[11,45,50,70,90,110,130,155,171,190,210,230,250,270,291,310,331,350,370,391,410,430,450,470,491,510,530,550,571,590,610,631,650,670,690,711,730,750,771,791,811,830,851,871,892,911,930,951,970,990,1011,1030],"xSR":741.5,"ySR":449.15000000000003,"xT1":424.9,"yT1":0,"xT2":1058.1,"yT2":0,"toosoon":0,"cond_shown":"Congruent","ratio_trial":300,"L_num":24,"L_den":30,"R_num":2,"R_den":4,"correct_side":1,"subjID":"anamartinez16","gender":"1","school":"6","age":"11"},{"start_time":1551800747025,"click_time":1551800748654,"finger_time":1551800748376,"fix_duration":1428.2095076905855,"trial":44,"RT":1351,"MT":278,"sideResp":2,"stimulus":[],"xmouse":[776,776,776,776,776,776,776,776,776,776,776,776,776,776,776,776,776,776,776,776,776,776,776,776,776,776,776,776,776,776,776,776,776,776,776,776,776,776,776,776,776,776,776,776,776,776,776,776,776,776,776,776,776,776,781,783,784,784,784,784,784,784,785,793,805,820,841,874,978,1027,1077,1115,1148,1181,1183,1183,1181,1175,1169,1165,1158,1150],"ymouse":[482,482,482,482,482,482,482,482,482,482,482,482,482,482,482,482,482,482,482,482,482,482,482,482,482,482,482,482,482,482,482,482,482,482,482,482,482,482,482,482,482,482,482,482,482,482,482,482,482,482,482,482,482,482,482,482,482,482,482,482,482,482,482,480,478,475,470,463,418,385,349,315,284,239,221,211,202,192,161,129,109,90],"timestamp_mouse":[11,32,51,69,90,109,129,150,169,190,209,229,250,269,289,310,329,349,371,389,410,429,450,469,489,509,530,550,571,589,609,630,650,670,689,709,730,749,769,789,809,829,850,870,889,909,929,949,970,989,1010,1031,1050,1070,1089,1109,1129,1149,1170,1189,1209,1230,1251,1270,1289,1309,1329,1351,1369,1390,1409,1430,1449,1469,1489,1510,1529,1550,1570,1589,1609,1629],"xSR":741.5,"ySR":449.15000000000003,"xT1":424.9,"yT1":0,"xT2":1058.1,"yT2":0,"toosoon":0,"cond_shown":"Incongruent","ratio_trial":300,"L_num":4,"L_den":20,"R_num":2,"R_den":4,"correct_side":2,"subjID":"anamartinez16","gender":"1","school":"6","age":"11"},{"start_time":1551800750196,"click_time":1551800751996,"finger_time":1551800751594,"fix_duration":658.2186235056421,"trial":45,"RT":1398,"MT":402,"sideResp":2,"stimulus":[],"xmouse":[785,785,785,785,785,785,785,785,785,785,785,785,785,785,785,785,785,785,785,785,785,785,785,785,785,785,785,785,785,785,785,785,785,785,785,785,785,785,785,785,785,785,785,785,785,785,785,785,785,785,785,785,785,785,785,785,785,785,785,785,785,785,785,785,785,785,785,785,794,830,861,871,879,887,903,939,960,976,996,1027,1042,1050,1060,1068,1079,1085,1090,1098,1107,1117,1136],"ymouse":[469,469,469,469,469,469,469,469,469,469,469,469,469,469,469,469,469,469,469,469,469,469,469,469,469,469,469,469,469,469,469,469,469,469,469,469,469,469,469,469,469,469,469,469,469,469,469,469,469,469,469,469,469,469,469,469,469,469,469,469,469,469,469,469,469,469,469,469,470,470,464,461,459,456,445,411,389,372,357,332,315,303,286,268,227,209,188,166,144,121,72],"timestamp_mouse":[1,33,39,58,78,98,118,138,159,178,198,218,239,258,279,299,318,339,358,379,399,419,439,458,479,498,519,538,558,579,598,618,639,658,678,698,718,738,758,778,799,818,839,858,878,899,919,938,958,979,998,1020,1039,1058,1079,1099,1118,1138,1158,1178,1198,1219,1239,1258,1278,1299,1318,1339,1359,1379,1398,1418,1438,1459,1478,1498,1518,1539,1559,1579,1598,1618,1639,1660,1679,1698,1719,1739,1758,1779,1800],"xSR":741.5,"ySR":449.15000000000003,"xT1":424.9,"yT1":0,"xT2":1058.1,"yT2":0,"toosoon":0,"cond_shown":"Incongruent","ratio_trial":200,"L_num":6,"L_den":20,"R_num":3,"R_den":6,"correct_side":2,"subjID":"anamartinez16","gender":"1","school":"6","age":"11"},{"start_time":1551800753993,"click_time":1551800756215,"finger_time":1551800755695,"fix_duration":1196.4634022608236,"trial":46,"RT":1702,"MT":520,"sideResp":2,"stimulus":[],"xmouse":[753,753,753,753,753,753,753,753,753,753,753,753,753,753,753,753,753,753,753,753,753,753,753,753,753,753,753,753,753,753,753,753,753,753,753,753,753,753,753,753,753,753,753,753,753,753,753,753,753,753,753,753,753,753,753,753,753,753,753,753,753,753,753,753,753,753,753,753,753,753,753,753,753,753,753,753,753,753,753,753,753,759,772,787,826,848,870,891,909,953,990,1009,1027,1036,1044,1060,1072,1086,1108,1142,1155,1160,1165,1169,1171,1172,1169,1167,1166,1165,1160,1158],"ymouse":[486,486,486,486,486,486,486,486,486,486,486,486,486,486,486,486,486,486,486,486,486,486,486,486,486,486,486,486,486,486,486,486,486,486,486,486,486,486,486,486,486,486,486,486,486,486,486,486,486,486,486,486,486,486,486,486,486,486,486,486,486,486,486,486,486,486,486,486,486,486,486,486,486,486,486,486,486,486,486,486,486,484,477,473,467,463,456,448,434,403,378,363,348,331,313,266,239,207,174,131,107,96,85,74,68,60,56,55,55,54,53,53],"timestamp_mouse":[11,36,41,62,81,101,121,141,162,182,202,222,241,261,281,302,321,342,361,381,401,422,442,461,481,501,521,541,561,581,601,621,642,663,681,701,721,741,761,781,801,821,843,861,881,902,922,941,961,981,1001,1022,1042,1061,1081,1101,1122,1141,1161,1181,1201,1222,1241,1261,1281,1302,1322,1341,1361,1381,1401,1421,1441,1461,1481,1501,1521,1542,1561,1581,1601,1621,1641,1662,1682,1702,1721,1741,1761,1783,1801,1821,1841,1861,1881,1901,1921,1942,1961,1983,2001,2022,2042,2062,2081,2101,2121,2142,2161,2181,2201,2222],"xSR":741.5,"ySR":449.15000000000003,"xT1":424.9,"yT1":0,"xT2":1058.1,"yT2":0,"toosoon":0,"cond_shown":"Incongruent","ratio_trial":300,"L_num":1,"L_den":2,"R_num":3,"R_den":15,"correct_side":1,"subjID":"anamartinez16","gender":"1","school":"6","age":"11"},{"start_time":1551800759862,"click_time":1551800761734,"finger_time":1551800761275,"fix_duration":1046.6759308053656,"trial":47,"RT":1413,"MT":459,"sideResp":1,"stimulus":[],"xmouse":[795,795,795,795,795,795,795,795,795,795,795,795,795,795,795,795,795,795,795,795,795,795,795,795,795,795,795,795,795,795,795,795,795,795,795,795,795,795,795,795,795,795,795,795,795,795,795,795,795,795,795,795,795,795,795,795,795,795,795,795,795,795,795,795,795,795,795,795,795,795,794,791,786,784,782,780,765,757,750,743,737,722,711,703,695,683,670,657,639,620,599,557,535,517],"ymouse":[503,503,503,503,503,503,503,503,503,503,503,503,503,503,503,503,503,503,503,503,503,503,503,503,503,503,503,503,503,503,503,503,503,503,503,503,503,503,503,503,503,503,503,503,503,503,503,503,503,503,503,503,503,503,503,503,503,503,503,503,503,503,503,503,503,503,503,503,502,495,445,426,409,395,383,372,328,310,293,275,261,233,219,208,197,178,165,155,145,134,120,97,87,80],"timestamp_mouse":[13,36,52,72,92,112,132,153,173,192,212,233,252,272,293,313,332,352,372,393,412,432,452,472,493,513,532,552,572,592,612,633,652,672,692,712,733,752,772,793,812,833,852,873,892,913,932,952,973,993,1012,1032,1052,1072,1092,1112,1132,1152,1172,1192,1213,1232,1252,1273,1293,1313,1332,1352,1373,1392,1413,1432,1452,1473,1492,1512,1532,1552,1572,1593,1612,1632,1652,1672,1692,1713,1732,1753,1772,1793,1813,1833,1853,1872],"xSR":741.5,"ySR":449.15000000000003,"xT1":424.9,"yT1":0,"xT2":1058.1,"yT2":0,"toosoon":0,"cond_shown":"Congruent","ratio_trial":100,"L_num":12,"L_den":30,"R_num":13,"R_den":26,"correct_side":2,"subjID":"anamartinez16","gender":"1","school":"6","age":"11"},{"start_time":1551800764065,"click_time":1551800765875,"finger_time":1551800765575,"fix_duration":629.8028979919413,"trial":48,"RT":1510,"MT":300,"sideResp":2,"stimulus":[],"xmouse":[782,782,782,782,782,782,782,782,782,782,782,782,782,782,782,782,782,782,782,782,782,782,782,782,782,782,782,782,782,782,782,782,782,782,782,782,782,782,782,782,781,779,777,777,777,777,777,777,777,777,777,777,777,777,777,777,777,777,777,777,777,777,777,777,777,777,777,777,777,777,777,777,777,795,803,852,927,994,1073,1145,1210,1284,1294,1298,1298,1298,1278,1264,1246,1218,1157],"ymouse":[489,489,489,489,489,489,489,489,489,489,489,489,489,489,489,489,489,489,489,489,489,489,489,489,489,489,489,489,489,489,489,489,489,489,489,489,489,489,489,489,489,489,489,489,489,489,489,489,489,489,489,489,489,489,489,489,489,489,489,489,489,489,489,489,489,489,489,489,489,489,489,489,489,484,480,455,429,401,365,334,304,257,242,228,214,199,144,118,91,56,4],"timestamp_mouse":[9,40,49,70,89,110,129,150,170,189,210,229,249,270,289,310,330,349,369,390,410,430,450,470,489,509,529,551,570,591,610,629,650,669,689,711,730,750,771,790,809,830,850,870,890,911,930,949,969,989,1009,1030,1049,1069,1089,1109,1129,1150,1170,1189,1209,1229,1250,1269,1289,1309,1329,1350,1370,1390,1409,1429,1450,1470,1490,1510,1529,1550,1570,1589,1609,1629,1649,1670,1689,1711,1731,1749,1770,1789,1809],"xSR":741.5,"ySR":449.15000000000003,"xT1":424.9,"yT1":0,"xT2":1058.1,"yT2":0,"toosoon":0,"cond_shown":"Incongruent","ratio_trial":100,"L_num":9,"L_den":15,"R_num":13,"R_den":26,"correct_side":1,"subjID":"anamartinez16","gender":"1","school":"6","age":"11"},{"start_time":1551800766987,"click_time":1551800768594,"finger_time":1551800768135,"fix_duration":250.37025525604184,"trial":49,"RT":1148,"MT":459,"sideResp":1,"stimulus":[],"xmouse":[816,816,816,816,816,816,816,816,816,816,816,816,816,816,816,816,816,816,816,816,816,816,816,816,816,816,815,815,815,815,815,815,815,815,815,815,815,815,815,815,815,815,815,815,815,815,815,815,815,815,815,815,815,815,814,810,807,800,787,771,746,739,736,734,730,723,713,700,685,672,644,624,610,597,581,534,512,494,479,461,450],"ymouse":[531,531,531,531,531,531,531,531,531,531,531,531,531,531,531,531,531,531,531,531,531,531,531,531,531,531,529,529,529,529,529,529,529,529,529,529,529,529,529,529,529,529,529,529,529,529,529,529,529,529,529,529,529,518,513,483,460,419,358,308,255,243,238,236,232,228,222,215,207,198,183,175,170,166,161,142,130,119,111,100,94],"timestamp_mouse":[8,40,48,67,88,107,128,147,168,187,207,228,248,267,288,307,327,348,367,388,408,427,447,467,487,508,528,547,567,588,607,627,647,667,687,707,727,748,769,787,808,828,848,868,887,907,927,947,967,987,1008,1028,1047,1068,1087,1107,1127,1148,1167,1187,1207,1227,1247,1268,1288,1308,1327,1348,1368,1388,1408,1427,1448,1468,1487,1507,1527,1548,1569,1587,1607],"xSR":741.5,"ySR":449.15000000000003,"xT1":424.9,"yT1":0,"xT2":1058.1,"yT2":0,"toosoon":0,"cond_shown":"Incongruent","ratio_trial":100,"L_num":13,"L_den":26,"R_num":12,"R_den":20,"correct_side":2,"subjID":"anamartinez16","gender":"1","school":"6","age":"11"},{"start_time":1551800769947,"click_time":1551800771595,"finger_time":1551800771194,"fix_duration":430.63921345480185,"trial":50,"RT":1247,"MT":401,"sideResp":1,"stimulus":[],"xmouse":[782,782,782,782,782,782,782,782,782,782,782,782,782,782,782,782,782,782,782,782,782,782,782,782,782,782,782,782,782,782,782,782,782,782,782,782,782,782,782,782,782,782,782,782,782,782,782,782,782,782,782,782,782,782,782,782,782,782,782,782,782,783,790,790,782,762,719,702,685,667,645,645,645,645,645,645,645,645,645,645,645,645,430],"ymouse":[475,475,475,475,475,475,475,475,475,475,475,475,475,475,475,475,475,475,475,475,475,475,475,475,475,475,475,475,475,475,475,475,475,475,475,475,475,475,475,475,475,475,475,475,475,475,475,475,475,475,475,475,475,475,475,475,475,475,475,475,475,476,420,360,292,226,139,96,60,28,1,1,1,1,1,1,1,1,1,1,1,1,10],"timestamp_mouse":[9,43,47,67,87,107,127,147,168,187,208,227,247,267,287,308,327,348,367,387,407,428,448,467,488,507,529,548,567,587,607,628,647,667,688,707,728,747,767,788,807,827,847,868,889,907,928,948,967,987,1007,1027,1047,1068,1088,1108,1128,1148,1167,1187,1208,1227,1247,1267,1288,1307,1328,1347,1367,1388,1407,1428,1448,1467,1488,1507,1527,1548,1568,1588,1608,1627,1648],"xSR":741.5,"ySR":449.15000000000003,"xT1":424.9,"yT1":0,"xT2":1058.1,"yT2":0,"toosoon":0,"cond_shown":"Congruent","ratio_trial":300,"L_num":24,"L_den":30,"R_num":8,"R_den":16,"correct_side":1,"subjID":"anamartinez16","gender":"1","school":"6","age":"11"},{"start_time":1551800773148,"click_time":1551800775075,"finger_time":1551800774475,"fix_duration":312.68251030613203,"trial":51,"RT":1327,"MT":600,"sideResp":2,"stimulus":[],"xmouse":[776,776,776,776,776,776,776,776,776,776,776,776,776,776,776,776,776,776,776,776,776,776,776,776,776,776,776,776,776,776,776,776,776,776,776,776,776,776,776,776,776,776,776,776,776,776,776,776,776,776,776,776,776,776,776,776,776,776,776,776,776,776,776,776,785,813,934,1019,1110,1210,1309,1389,1473,1476,1474,1464,1449,1419,1410,1404,1401,1393,1380,1369,1356,1339,1319,1283,1268,1252,1237,1221,1188,1179,1171,1162,1139],"ymouse":[452,452,452,452,452,452,452,452,452,452,452,452,452,452,452,452,452,452,452,452,452,452,452,452,452,452,452,452,452,452,452,452,452,452,452,452,452,452,452,452,452,452,452,452,452,452,452,452,452,452,452,452,452,452,452,452,452,452,452,452,452,452,452,452,452,451,430,411,378,330,271,209,85,61,45,31,24,18,16,15,15,17,23,27,32,36,39,41,41,41,41,41,46,48,48,51,59],"timestamp_mouse":[9,26,46,67,87,106,126,146,166,186,206,227,246,267,287,306,326,346,366,387,406,427,446,466,486,506,527,546,566,587,606,627,647,666,686,706,726,746,767,787,806,827,847,867,886,906,927,947,966,986,1006,1027,1047,1066,1086,1106,1127,1147,1167,1186,1208,1227,1246,1266,1286,1306,1327,1346,1367,1387,1406,1426,1448,1466,1486,1506,1526,1546,1566,1587,1607,1627,1646,1666,1687,1706,1726,1746,1767,1787,1806,1826,1846,1866,1887,1907,1927],"xSR":741.5,"ySR":449.15000000000003,"xT1":424.9,"yT1":0,"xT2":1058.1,"yT2":0,"toosoon":0,"cond_shown":"Incongruent","ratio_trial":100,"L_num":11,"L_den":22,"R_num":9,"R_den":15,"correct_side":2,"subjID":"anamartinez16","gender":"1","school":"6","age":"11"},{"start_time":1551800779708,"click_time":1551800781594,"finger_time":1551800781155,"fix_duration":250,"trial":52,"RT":1447,"MT":439,"sideResp":1,"stimulus":[],"xmouse":[795,795,795,795,795,795,795,795,795,795,795,795,795,795,795,795,795,795,795,795,795,795,795,795,795,795,795,795,795,795,795,795,795,795,795,795,795,795,795,795,795,795,795,795,795,795,795,795,795,795,795,795,795,795,795,795,795,795,795,795,795,795,795,795,795,795,795,795,795,795,795,795,795,798,800,800,791,776,762,741,735,731,728,723,719,712,700,686,666,631,612,592,570,537,521],"ymouse":[471,471,471,471,471,471,471,471,471,471,471,471,471,471,471,471,471,471,471,471,471,471,471,471,471,471,471,471,471,471,471,471,471,471,471,471,471,471,471,471,471,471,471,471,471,471,471,471,471,471,471,471,471,471,471,471,471,471,471,471,471,471,471,471,471,471,471,471,471,471,471,471,442,363,308,269,238,203,175,138,125,120,117,115,114,113,111,106,101,87,82,75,71,66,64],"timestamp_mouse":[10,31,47,67,86,106,127,147,166,187,206,226,247,266,287,306,326,347,368,387,406,426,446,466,487,505,527,546,567,586,605,629,647,666,686,707,725,746,766,787,806,826,846,866,887,907,926,947,967,986,1006,1027,1046,1065,1087,1106,1127,1146,1167,1187,1206,1227,1246,1266,1287,1306,1326,1347,1367,1386,1405,1426,1446,1467,1486,1506,1526,1546,1567,1587,1606,1627,1646,1666,1686,1706,1726,1746,1766,1786,1806,1826,1846,1866,1886],"xSR":741.5,"ySR":449.15000000000003,"xT1":424.9,"yT1":0,"xT2":1058.1,"yT2":0,"toosoon":0,"cond_shown":"Incongruent","ratio_trial":200,"L_num":3,"L_den":10,"R_num":1,"R_den":2,"correct_side":2,"subjID":"anamartinez16","gender":"1","school":"6","age":"11"},{"start_time":1551800783566,"click_time":1551800785295,"finger_time":1551800784894,"fix_duration":250,"trial":53,"RT":1328,"MT":401,"sideResp":2,"stimulus":[],"xmouse":[823,823,823,823,823,823,823,823,823,823,823,823,823,823,823,823,823,823,823,823,823,823,823,823,823,823,823,823,823,823,823,823,823,823,823,823,823,823,823,823,823,823,823,823,823,823,823,823,823,823,823,823,823,823,823,823,823,823,823,823,823,823,823,823,823,826,870,924,991,1073,1223,1286,1298,1299,1295,1289,1279,1276,1272,1266,1250,1240,1218,1201,1183,1165,1131],"ymouse":[476,475,475,475,475,475,475,475,475,475,475,475,475,475,475,475,475,475,475,475,475,475,475,475,475,475,475,475,475,475,475,475,475,475,475,475,475,475,475,475,475,475,475,475,475,475,475,475,475,475,475,475,475,475,475,475,475,475,475,475,475,475,475,475,475,475,447,424,396,350,264,211,187,165,142,121,90,79,71,64,58,55,52,52,52,52,52],"timestamp_mouse":[9,39,48,68,89,107,128,149,167,189,207,228,249,268,289,308,329,348,368,388,408,427,448,468,488,509,528,549,569,588,609,627,648,668,689,708,728,748,768,788,808,828,848,869,888,909,929,949,969,988,1009,1028,1049,1068,1089,1109,1129,1149,1169,1189,1208,1228,1248,1268,1289,1308,1328,1348,1369,1388,1408,1428,1449,1469,1489,1508,1528,1549,1569,1588,1609,1628,1648,1669,1688,1708,1729],"xSR":741.5,"ySR":449.15000000000003,"xT1":424.9,"yT1":0,"xT2":1058.1,"yT2":0,"toosoon":0,"cond_shown":"Incongruent","ratio_trial":100,"L_num":3,"L_den":9,"R_num":7,"R_den":30,"corre