[{"start_time":1552328753608,"click_time":1552328755972,"finger_time":1552328754872,"fix_duration":650.4631492661432,"trial":0,"RT":1264,"MT":1100,"sideResp":2,"stimulus":"img/250/equaldotanddens/R/10_Ratio_250_L_4_R_16.png","xmouse":[786,786,786,786,786,786,786,786,786,786,786,786,786,786,786,786,786,786,786,786,786,786,786,786,786,786,786,786,786,786,786,786,786,786,786,786,786,786,786,786,786,786,786,786,786,786,786,786,786,786,786,786,786,786,786,786,786,786,786,786,786,795,823,972,1018,1034,1034,1034,1034,1034,1034,1036,1038,1051,1063,1078,1096,1117,1149,1158,1161,1162,1163,1163,1163,1163,1163,1163,1163,1163,1163,1163,1164,1169,1170,1170,1172,1177,1185,1189,1191,1193,1194,1197,1197,1198,1198,1198,1193,1190,1184,1181,1179,1178,1178,1178,1174,1169,1152],"ymouse":[510,510,510,510,510,510,510,510,510,510,510,510,510,510,510,510,510,510,510,510,510,510,510,510,510,510,510,510,510,510,510,510,510,510,510,510,510,510,510,510,510,510,510,510,510,510,510,510,510,510,510,510,510,510,510,510,510,510,510,510,510,508,501,491,503,507,508,508,508,508,508,508,501,468,450,435,418,407,396,393,393,393,393,393,393,393,393,393,393,393,392,390,386,375,367,365,360,347,318,303,293,282,274,263,260,257,255,251,224,201,178,158,143,130,126,121,112,100,73],"timestamp_mouse":[10,30,45,64,84,105,125,143,163,184,205,223,244,263,285,305,324,343,365,383,403,425,444,463,485,503,524,543,564,585,603,623,643,665,685,704,724,743,763,784,804,823,843,863,885,905,924,944,965,985,1003,1025,1045,1064,1085,1105,1124,1144,1163,1183,1204,1224,1244,1264,1283,1304,1324,1343,1363,1385,1404,1423,1443,1465,1483,1503,1524,1544,1564,1583,1605,1624,1643,1664,1683,1704,1725,1745,1764,1784,1804,1824,1843,1865,1883,1904,1924,1943,1964,1983,2004,2024,2043,2065,2083,2103,2123,2144,2164,2183,2204,2224,2244,2265,2283,2303,2323,2344,2363],"xSR":741.5,"ySR":469.95,"xT1":424.9,"yT1":0,"xT2":1058.1,"yT2":0,"toosoon":0,"cond_shown":"equaldotanddens","ratio_trial":250,"smaller_num":"4","larger_num":"16","correct_side":2,"subjID":"mariagaravito5","gender":"1","age":"9","school":"4","test":{"fix_dur":[250,1500],"timestim":300,"targets_dim":[100,100],"targets_relative_coord":[0.3,0.7],"size_stim":[880,420],"start_dim":[100,100],"size_start":[300,300],"size_fix":60,"samplingrate":20,"img_types":["equaldotsize","equaldotanddens","randomdotsizeEA"],"ratios":[250,500,750,900],"rep_conds":9,"nTrials":120,"trials_to_rest":500,"Trials_order":[49,16,76,0,13,30,112,58,27,110,66,44,28,57,43,74,34,95,63,37,46,86,6,79,81,23,103,19,117,109,77,48,87,82,7,29,104,9,85,2,41,60,75,59,24,18,45,14,78,73,93,108,61,70,94,118,91,80,50,55,84,101,98,100,69,88,83,3,99,47,90,40,17,107,92,15,89,5,67,31,51,111,97,8,12,105,1,22,25,114,4,26,39,115,52,33,102,62,96,106,35,53,64,68,54,119,11,72,38,56,116,71,10,65,21,113,36,20,42,32],"cond_shown":["equaldotanddens","equaldotanddens","equaldotanddens","equaldotsize","equaldotanddens","equaldotsize","equaldotanddens","equaldotanddens","equaldotsize","randomdotsizeEA","equaldotsize","randomdotsizeEA","equaldotanddens","equaldotsize","equaldotanddens","randomdotsizeEA","equaldotanddens","randomdotsizeEA","equaldotsize","equaldotanddens","equaldotanddens","randomdotsizeEA","equaldotsize","equaldotanddens","equaldotsize","randomdotsizeEA","equaldotanddens","equaldotanddens","equaldotsize","equaldotanddens","randomdotsizeEA","equaldotsize","equaldotsize","equaldotanddens","equaldotanddens","randomdotsizeEA","randomdotsizeEA","equaldotsize","equaldotanddens","randomdotsizeEA","randomdotsizeEA","equaldotsize","equaldotsize","randomdotsizeEA","equaldotsize","equaldotsize","equaldotsize","randomdotsizeEA","equaldotsize","equaldotanddens","equaldotsize","equaldotsize","equaldotanddens","equaldotanddens","equaldotanddens","equaldotanddens","equaldotanddens","randomdotsizeEA","randomdotsizeEA","equaldotanddens","equaldotsize","randomdotsizeEA","randomdotsizeEA","equaldotanddens","equaldotsize","equaldotanddens","randomdotsizeEA","equaldotsize","equaldotsize","randomdotsizeEA","equaldotsize","equaldotanddens","randomdotsizeEA","randomdotsizeEA","randomdotsizeEA","equaldotsize","randomdotsizeEA","randomdotsizeEA","equaldotanddens","equaldotanddens","equaldotsize","equaldotsize","equaldotanddens","randomdotsizeEA","equaldotsize","equaldotsize","equaldotanddens","equaldotanddens","equaldotanddens","equaldotsize","equaldotanddens","randomdotsizeEA","equaldotsize","equaldotanddens","equaldotanddens","equaldotsize","equaldotsize","randomdotsizeEA","equaldotsize","equaldotanddens","randomdotsizeEA","randomdotsizeEA","equaldotanddens","randomdotsizeEA","equaldotsize","randomdotsizeEA","randomdotsizeEA","equaldotsize","randomdotsizeEA","randomdotsizeEA","randomdotsizeEA","randomdotsizeEA","equaldotanddens","randomdotsizeEA","equaldotsize","randomdotsizeEA","equaldotsize","randomdotsizeEA","equaldotsize","randomdotsizeEA"],"ratio_trial":[250,500,500,250,250,750,500,900,500,250,750,750,500,900,750,250,900,900,500,250,900,250,750,750,900,900,750,750,900,250,500,250,500,900,750,500,750,900,250,250,500,250,500,900,250,750,900,250,750,250,900,250,250,900,900,900,750,750,250,750,250,500,250,500,900,500,900,500,500,900,750,500,500,900,750,500,500,500,750,750,500,500,250,750,250,900,250,900,250,750,500,250,500,750,500,900,750,250,250,900,900,500,500,750,750,900,900,250,250,750,750,900,900,500,900,500,250,750,750,750],"smaller_num":["4","2","1","6","2","6","9","18","4","4","3","3","4","18","15","3","18","18","2","2","18","3","9","6","18","18","3","15","18","2","6","1","2","18","15","2","6","9","3","2","5","6","1","18","3","12","18","3","3","6","18","6","3","18","18","9","6","18","3","3","2","6","3","4","18","6","18","6","5","9","15","4","9","18","3","1","2","10","3","3","9","6","2","3","2","18","4","18","6","15","2","3","1","3","9","18","18","2","3","18","9","10","9","9","18","18","9","2","3","6","15","18","9","4","18","9","3","15","3","3"],"larger_num":["16","4","2","24","8","8","18","20","8","16","4","4","8","20","20","12","20","20","4","8","20","12","12","8","20","20","4","20","20","8","12","4","4","20","20","4","8","10","12","8","10","24","2","20","12","16","20","12","4","24","20","24","12","20","20","10","8","24","12","4","8","12","12","8","20","12","20","12","10","10","20","8","18","20","4","2","4","20","4","4","18","12","8","4","8","20","16","20","24","20","4","12","2","4","18","20","24","8","12","20","10","20","18","12","24","20","10","8","12","8","20","20","10","8","20","18","12","20","4","4"],"correct_side":[2,2,2,2,1,1,1,1,1,2,2,2,1,1,2,2,2,1,2,1,1,1,2,1,1,1,2,1,1,1,1,2,2,2,2,2,1,1,2,2,1,1,2,1,1,2,1,2,1,1,2,2,2,2,1,2,1,1,1,1,1,1,2,1,1,1,1,1,1,2,2,1,1,2,1,2,2,2,1,2,2,1,1,2,1,1,1,1,2,1,1,2,2,2,1,1,1,1,2,1,1,2,2,2,1,1,2,1,1,1,1,1,2,1,1,2,1,1,1,1],"img_shown":["img/250/equaldotanddens/R/10_Ratio_250_L_4_R_16.png","img/500/equaldotanddens/R/9_Ratio_500_L_2_R_4.png","img/500/equaldotanddens/R/12_Ratio_500_L_1_R_2.png","img/250/equaldotsize/R/6_Ratio_250_L_6_R_24.png","img/250/equaldotanddens/L/3_Ratio_250_L_8_R_2.png","img/750/equaldotsize/L/13_Ratio_750_L_8_R_6.png","img/500/equaldotanddens/L/4_Ratio_500_L_18_R_9.png","img/900/equaldotanddens/L/2_Ratio_900_L_20_R_18.png","img/500/equaldotsize/L/8_Ratio_500_L_8_R_4.png","img/250/randomdotsizeEA/R/10_Ratio_250_L_4_R_16.png","img/750/equaldotsize/R/12_Ratio_750_L_3_R_4.png","img/750/randomdotsizeEA/R/12_Ratio_750_L_3_R_4.png","img/500/equaldotanddens/L/8_Ratio_500_L_8_R_4.png","img/900/equaldotsize/L/8_Ratio_900_L_20_R_18.png","img/750/equaldotanddens/R/3_Ratio_750_L_15_R_20.png","img/250/randomdotsizeEA/R/4_Ratio_250_L_3_R_12.png","img/900/equaldotanddens/R/9_Ratio_900_L_18_R_20.png","img/900/randomdotsizeEA/L/10_Ratio_900_L_20_R_18.png","img/500/equaldotsize/R/9_Ratio_500_L_2_R_4.png","img/250/equaldotanddens/L/7_Ratio_250_L_8_R_2.png","img/900/equaldotanddens/L/8_Ratio_900_L_20_R_18.png","img/250/randomdotsizeEA/L/15_Ratio_250_L_12_R_3.png","img/750/equaldotsize/R/15_Ratio_750_L_9_R_12.png","img/750/equaldotanddens/L/13_Ratio_750_L_8_R_6.png","img/900/equaldotsize/L/4_Ratio_900_L_20_R_18.png","img/900/randomdotsizeEA/L/2_Ratio_900_L_20_R_18.png","img/750/equaldotanddens/R/7_Ratio_750_L_3_R_4.png","img/750/equaldotanddens/L/1_Ratio_750_L_20_R_15.png","img/900/equaldotsize/L/8_Ratio_900_L_20_R_18.png","img/250/equaldotanddens/L/3_Ratio_250_L_8_R_2.png","img/500/randomdotsizeEA/L/11_Ratio_500_L_12_R_6.png","img/250/equaldotsize/R/8_Ratio_250_L_1_R_4.png","img/500/equaldotsize/R/9_Ratio_500_L_2_R_4.png","img/900/equaldotanddens/R/14_Ratio_900_L_18_R_20.png","img/750/equaldotanddens/R/4_Ratio_750_L_15_R_20.png","img/500/randomdotsizeEA/R/9_Ratio_500_L_2_R_4.png","img/750/randomdotsizeEA/L/14_Ratio_750_L_8_R_6.png","img/900/equaldotsize/L/1_Ratio_900_L_10_R_9.png","img/250/equaldotanddens/R/11_Ratio_250_L_3_R_12.png","img/250/randomdotsizeEA/R/13_Ratio_250_L_2_R_8.png","img/500/randomdotsizeEA/L/7_Ratio_500_L_10_R_5.png","img/250/equaldotsize/L/5_Ratio_250_L_24_R_6.png","img/500/equaldotsize/R/12_Ratio_500_L_1_R_2.png","img/900/randomdotsizeEA/L/4_Ratio_900_L_20_R_18.png","img/250/equaldotsize/L/14_Ratio_250_L_12_R_3.png","img/750/equaldotsize/R/11_Ratio_750_L_12_R_16.png","img/900/equaldotsize/L/10_Ratio_900_L_20_R_18.png","img/250/randomdotsizeEA/R/9_Ratio_250_L_3_R_12.png","img/750/equaldotsize/L/8_Ratio_750_L_4_R_3.png","img/250/equaldotanddens/L/5_Ratio_250_L_24_R_6.png","img/900/equaldotsize/R/11_Ratio_900_L_18_R_20.png","img/250/equaldotsize/R/6_Ratio_250_L_6_R_24.png","img/250/equaldotanddens/R/4_Ratio_250_L_3_R_12.png","img/900/equaldotanddens/R/11_Ratio_900_L_18_R_20.png","img/900/equaldotanddens/L/2_Ratio_900_L_20_R_18.png","img/900/equaldotanddens/R/3_Ratio_900_L_9_R_10.png","img/750/equaldotanddens/L/13_Ratio_750_L_8_R_6.png","img/750/randomdotsizeEA/L/6_Ratio_750_L_24_R_18.png","img/250/randomdotsizeEA/L/14_Ratio_250_L_12_R_3.png","img/750/equaldotanddens/L/10_Ratio_750_L_4_R_3.png","img/250/equaldotsize/L/3_Ratio_250_L_8_R_2.png","img/500/randomdotsizeEA/L/13_Ratio_500_L_12_R_6.png","img/250/randomdotsizeEA/R/4_Ratio_250_L_3_R_12.png","img/500/equaldotanddens/L/8_Ratio_500_L_8_R_4.png","img/900/equaldotsize/L/4_Ratio_900_L_20_R_18.png","img/500/equaldotanddens/L/13_Ratio_500_L_12_R_6.png","img/900/randomdotsizeEA/L/10_Ratio_900_L_20_R_18.png","img/500/equaldotsize/L/11_Ratio_500_L_12_R_6.png","img/500/equaldotsize/L/7_Ratio_500_L_10_R_5.png","img/900/randomdotsizeEA/R/7_Ratio_900_L_9_R_10.png","img/750/equaldotsize/R/4_Ratio_750_L_15_R_20.png","img/500/equaldotanddens/L/8_Ratio_500_L_8_R_4.png","img/500/randomdotsizeEA/L/4_Ratio_500_L_18_R_9.png","img/900/randomdotsizeEA/R/14_Ratio_900_L_18_R_20.png","img/750/randomdotsizeEA/L/10_Ratio_750_L_4_R_3.png","img/500/equaldotsize/R/15_Ratio_500_L_1_R_2.png","img/500/randomdotsizeEA/R/9_Ratio_500_L_2_R_4.png","img/500/randomdotsizeEA/R/3_Ratio_500_L_10_R_20.png","img/750/equaldotanddens/L/8_Ratio_750_L_4_R_3.png","img/750/equaldotanddens/R/7_Ratio_750_L_3_R_4.png","img/500/equaldotsize/R/1_Ratio_500_L_9_R_18.png","img/500/equaldotsize/L/13_Ratio_500_L_12_R_6.png","img/250/equaldotanddens/L/1_Ratio_250_L_8_R_2.png","img/750/randomdotsizeEA/R/12_Ratio_750_L_3_R_4.png","img/250/equaldotsize/L/7_Ratio_250_L_8_R_2.png","img/900/equaldotsize/L/2_Ratio_900_L_20_R_18.png","img/250/equaldotanddens/L/2_Ratio_250_L_16_R_4.png","img/900/equaldotanddens/L/8_Ratio_900_L_20_R_18.png","img/250/equaldotanddens/R/6_Ratio_250_L_6_R_24.png","img/750/equaldotsize/L/1_Ratio_750_L_20_R_15.png","img/500/equaldotanddens/L/5_Ratio_500_L_4_R_2.png","img/250/randomdotsizeEA/R/4_Ratio_250_L_3_R_12.png","img/500/equaldotsize/R/12_Ratio_500_L_1_R_2.png","img/750/equaldotanddens/R/12_Ratio_750_L_3_R_4.png","img/500/equaldotanddens/L/4_Ratio_500_L_18_R_9.png","img/900/equaldotsize/L/8_Ratio_900_L_20_R_18.png","img/750/equaldotsize/L/6_Ratio_750_L_24_R_18.png","img/250/randomdotsizeEA/L/1_Ratio_250_L_8_R_2.png","img/250/equaldotsize/R/4_Ratio_250_L_3_R_12.png","img/900/equaldotanddens/L/2_Ratio_900_L_20_R_18.png","img/900/randomdotsizeEA/L/1_Ratio_900_L_10_R_9.png","img/500/randomdotsizeEA/R/3_Ratio_500_L_10_R_20.png","img/500/equaldotanddens/R/1_Ratio_500_L_9_R_18.png","img/750/randomdotsizeEA/R/15_Ratio_750_L_9_R_12.png","img/750/equaldotsize/L/6_Ratio_750_L_24_R_18.png","img/900/randomdotsizeEA/L/10_Ratio_900_L_20_R_18.png","img/900/randomdotsizeEA/R/15_Ratio_900_L_9_R_10.png","img/250/equaldotsize/L/1_Ratio_250_L_8_R_2.png","img/250/randomdotsizeEA/L/14_Ratio_250_L_12_R_3.png","img/750/randomdotsizeEA/L/14_Ratio_750_L_8_R_6.png","img/750/randomdotsizeEA/L/1_Ratio_750_L_20_R_15.png","img/900/randomdotsizeEA/L/4_Ratio_900_L_20_R_18.png","img/900/equaldotanddens/R/15_Ratio_900_L_9_R_10.png","img/500/randomdotsizeEA/L/8_Ratio_500_L_8_R_4.png","img/900/equaldotsize/L/8_Ratio_900_L_20_R_18.png","img/500/randomdotsizeEA/R/1_Ratio_500_L_9_R_18.png","img/250/equaldotsize/L/14_Ratio_250_L_12_R_3.png","img/750/randomdotsizeEA/L/1_Ratio_750_L_20_R_15.png","img/750/equaldotsize/L/9_Ratio_750_L_4_R_3.png","img/750/randomdotsizeEA/L/8_Ratio_750_L_4_R_3.png"],"Rat0":[["12_Ratio_0_L_9_R_0.png","13_Ratio_0_L_6_R_0.png","5_Ratio_0_L_2_R_0.png","6_Ratio_0_L_4_R_0.png","8_Ratio_0_L_6_R_0.png"],["1_Ratio_0_L_0_R_17.png","10_Ratio_0_L_0_R_22.png","11_Ratio_0_L_0_R_1.png","14_Ratio_0_L_0_R_24.png","15_Ratio_0_L_0_R_4.png","2_Ratio_0_L_0_R_5.png","3_Ratio_0_L_0_R_17.png","4_Ratio_0_L_0_R_7.png","7_Ratio_0_L_0_R_19.png","9_Ratio_0_L_0_R_15.png"]],"Rat250":[["1_Ratio_250_L_8_R_2.png","14_Ratio_250_L_12_R_3.png","15_Ratio_250_L_12_R_3.png","2_Ratio_250_L_16_R_4.png","3_Ratio_250_L_8_R_2.png","5_Ratio_250_L_24_R_6.png","7_Ratio_250_L_8_R_2.png"],["10_Ratio_250_L_4_R_16.png","11_Ratio_250_L_3_R_12.png","12_Ratio_250_L_5_R_20.png","13_Ratio_250_L_2_R_8.png","4_Ratio_250_L_3_R_12.png","6_Ratio_250_L_6_R_24.png","8_Ratio_250_L_1_R_4.png","9_Ratio_250_L_3_R_12.png"]],"Rat500":[["10_Ratio_500_L_4_R_2.png","11_Ratio_500_L_12_R_6.png","13_Ratio_500_L_12_R_6.png","4_Ratio_500_L_18_R_9.png","5_Ratio_500_L_4_R_2.png","7_Ratio_500_L_10_R_5.png","8_Ratio_500_L_8_R_4.png"],["1_Ratio_500_L_9_R_18.png","12_Ratio_500_L_1_R_2.png","14_Ratio_500_L_5_R_10.png","15_Ratio_500_L_1_R_2.png","2_Ratio_500_L_3_R_6.png","3_Ratio_500_L_10_R_20.png","6_Ratio_500_L_9_R_18.png","9_Ratio_500_L_2_R_4.png"]],"Rat750":[["1_Ratio_750_L_20_R_15.png","10_Ratio_750_L_4_R_3.png","13_Ratio_750_L_8_R_6.png","14_Ratio_750_L_8_R_6.png","6_Ratio_750_L_24_R_18.png","8_Ratio_750_L_4_R_3.png","9_Ratio_750_L_4_R_3.png"],["11_Ratio_750_L_12_R_16.png","12_Ratio_750_L_3_R_4.png","15_Ratio_750_L_9_R_12.png","2_Ratio_750_L_6_R_8.png","3_Ratio_750_L_15_R_20.png","4_Ratio_750_L_15_R_20.png","5_Ratio_750_L_15_R_20.png","7_Ratio_750_L_3_R_4.png"]],"Rat900":[["1_Ratio_900_L_10_R_9.png","10_Ratio_900_L_20_R_18.png","2_Ratio_900_L_20_R_18.png","4_Ratio_900_L_20_R_18.png","8_Ratio_900_L_20_R_18.png"],["11_Ratio_900_L_18_R_20.png","12_Ratio_900_L_18_R_20.png","13_Ratio_900_L_18_R_20.png","14_Ratio_900_L_18_R_20.png","15_Ratio_900_L_9_R_10.png","3_Ratio_900_L_9_R_10.png","5_Ratio_900_L_9_R_10.png","6_Ratio_900_L_9_R_10.png","7_Ratio_900_L_9_R_10.png","9_Ratio_900_L_18_R_20.png"]],"Rat1000":[["10_Ratio_1000_L_16_R_16.png","11_Ratio_1000_L_6_R_6.png","12_Ratio_1000_L_14_R_14.png","13_Ratio_1000_L_20_R_20.png","15_Ratio_1000_L_15_R_15.png","2_Ratio_1000_L_17_R_17.png","4_Ratio_1000_L_9_R_9.png","5_Ratio_1000_L_6_R_6.png","6_Ratio_1000_L_19_R_19.png","8_Ratio_1000_L_14_R_14.png","9_Ratio_1000_L_25_R_25.png"],["1_Ratio_1000_L_1_R_1.png","14_Ratio_1000_L_17_R_17.png","3_Ratio_1000_L_17_R_17.png","7_Ratio_1000_L_6_R_6.png"]]}},{"start_time":1552328761864,"click_time":1552328763394,"finger_time":1552328762691,"fix_duration":1270.8165388793077,"trial":1,"RT":827,"MT":703,"sideResp":2,"stimulus":"img/500/equaldotanddens/R/9_Ratio_500_L_2_R_4.png","xmouse":[772,772,772,772,772,772,772,772,772,772,772,772,772,772,772,772,772,772,772,772,772,772,772,772,778,783,795,795,795,795,795,795,795,795,795,795,795,795,795,795,797,811,826,857,885,910,967,1005,1027,1048,1048,1048,1048,1048,1048,1048,1048,1048,1048,1048,1048,1048,1048,1048,1048,1048,1048,1048,1048,1048,1048,1048,1048,1048,1048,1106,1111],"ymouse":[522,522,522,522,522,522,522,522,522,522,522,522,522,522,522,522,522,522,522,522,522,522,522,522,518,512,499,497,497,497,497,497,497,497,497,497,497,497,497,497,494,464,438,384,332,277,165,94,54,20,20,20,20,20,20,20,20,20,20,20,20,20,20,20,20,20,20,20,20,20,20,20,20,20,20,0,12],"timestamp_mouse":[13,31,48,67,87,108,128,148,168,188,209,228,247,268,288,309,327,348,369,388,407,427,447,468,488,509,527,548,569,587,608,629,648,668,687,708,729,747,767,787,808,827,848,868,888,907,929,947,968,988,1008,1027,1048,1068,1088,1108,1129,1148,1169,1188,1207,1229,1247,1268,1288,1309,1329,1347,1368,1388,1407,1428,1447,1468,1487,1508,1529],"xSR":741.5,"ySR":469.95,"xT1":424.9,"yT1":0,"xT2":1058.1,"yT2":0,"toosoon":0,"cond_shown":"equaldotanddens","ratio_trial":500,"smaller_num":"2","larger_num":"4","correct_side":2,"subjID":"mariagaravito5","gender":"1","age":"9","school":"4"},{"start_time":1552328764855,"click_time":1552328766171,"finger_time":1552328765732,"fix_duration":461.60966458441885,"trial":2,"RT":877,"MT":439,"sideResp":2,"stimulus":"img/500/equaldotanddens/R/12_Ratio_500_L_1_R_2.png","xmouse":[784,784,784,784,784,784,784,784,784,784,784,784,784,784,784,784,784,784,784,784,784,784,784,784,784,784,784,784,784,784,784,784,784,784,784,784,784,784,784,784,784,790,819,845,863,876,884,887,892,901,909,931,941,950,958,967,974,996,1007,1019,1030,1046,1052,1056,1058,1060],"ymouse":[529,529,529,529,529,529,529,529,529,529,529,529,529,529,529,529,529,529,529,529,529,529,529,529,529,529,529,529,529,529,529,529,529,529,529,529,529,529,529,529,529,516,477,441,416,397,378,367,350,330,313,281,267,252,239,224,211,174,158,142,127,105,99,94,92,90],"timestamp_mouse":[17,37,58,76,96,117,137,157,176,196,217,236,257,276,297,317,337,358,376,398,417,437,458,476,497,517,536,556,577,597,618,638,657,677,696,716,736,756,777,798,817,837,857,877,897,916,939,956,977,997,1017,1038,1057,1076,1097,1116,1137,1156,1177,1196,1216,1238,1256,1277,1296,1316],"xSR":741.5,"ySR":469.95,"xT1":424.9,"yT1":0,"xT2":1058.1,"yT2":0,"toosoon":0,"cond_shown":"equaldotanddens","ratio_trial":500,"smaller_num":"1","larger_num":"2","correct_side":2,"subjID":"mariagaravito5","gender":"1","age":"9","school":"4"},{"start_time":1552328769365,"click_time":1552328770453,"finger_time":1552328770011,"fix_duration":693.2158855262004,"trial":3,"RT":646,"MT":442,"sideResp":2,"stimulus":"img/250/equaldotsize/R/6_Ratio_250_L_6_R_24.png","xmouse":[798,798,798,798,798,798,798,798,798,798,798,798,798,798,798,798,798,798,798,798,798,798,798,798,798,798,798,798,798,798,800,806,854,888,928,950,957,961,963,965,972,982,1002,1011,1018,1023,1032,1040,1063,1077,1093,1099,1104,1106,1108],"ymouse":[525,525,525,525,525,525,525,525,525,525,525,525,525,525,525,525,525,525,525,525,525,525,525,525,525,525,525,525,525,525,523,517,456,407,352,313,294,284,271,269,258,247,226,217,209,198,185,170,142,132,120,116,110,104,94],"timestamp_mouse":[20,37,46,66,87,106,126,146,166,187,207,226,246,268,286,306,326,346,366,387,406,426,448,467,486,506,528,547,568,586,607,627,646,667,686,706,728,747,768,787,807,827,847,867,888,908,928,947,967,986,1007,1027,1046,1066,1087],"xSR":741.5,"ySR":469.95,"xT1":424.9,"yT1":0,"xT2":1058.1,"yT2":0,"toosoon":0,"cond_shown":"equaldotsize","ratio_trial":250,"smaller_num":"6","larger_num":"24","correct_side":2,"subjID":"mariagaravito5","gender":"1","age":"9","school":"4"},{"start_time":1552328772773,"click_time":1552328774113,"finger_time":1552328773611,"fix_duration":1160.709813200087,"trial":4,"RT":838,"MT":502,"sideResp":1,"stimulus":"img/250/equaldotanddens/L/3_Ratio_250_L_8_R_2.png","xmouse":[809,809,809,809,809,809,809,809,809,809,809,809,809,809,809,809,809,809,809,809,809,809,809,809,809,809,809,809,809,809,809,809,809,809,809,806,803,800,799,798,789,771,727,714,708,705,704,704,698,684,669,652,616,604,592,583,574,561,557,553,551,548,541,538,533,529,521],"ymouse":[518,518,518,518,518,518,518,518,518,518,518,518,518,518,518,518,518,518,518,518,518,518,518,518,518,518,518,518,518,518,518,518,518,518,518,517,515,514,513,513,489,451,385,368,358,352,350,350,344,324,304,281,227,205,182,163,143,110,101,93,88,80,70,65,60,57,50],"timestamp_mouse":[19,39,60,78,98,119,140,159,178,199,220,240,260,279,300,319,339,359,378,399,419,439,459,480,499,518,538,560,580,599,618,639,660,679,699,718,740,759,779,799,820,838,859,879,898,919,939,958,978,998,1019,1038,1058,1078,1098,1119,1138,1158,1179,1199,1218,1239,1258,1279,1300,1320,1340],"xSR":741.5,"ySR":469.95,"xT1":424.9,"yT1":0,"xT2":1058.1,"yT2":0,"toosoon":0,"cond_shown":"equaldotanddens","ratio_trial":250,"smaller_num":"2","larger_num":"8","correct_side":1,"subjID":"mariagaravito5","gender":"1","age":"9","school":"4"},{"start_time":1552328776038,"click_time":1552328776993,"finger_time":1552328776711,"fix_duration":705.6909409497713,"trial":5,"RT":673,"MT":282,"sideResp":2,"stimulus":"img/750/equaldotsize/L/13_Ratio_750_L_8_R_6.png","xmouse":[803,803,803,803,803,803,803,803,803,803,803,803,803,803,803,803,803,803,803,803,803,803,803,803,803,803,808,812,816,818,819,824,829,843,871,887,901,914,926,954,974,992,1019,1033,1052,1060,1071,1085],"ymouse":[504,504,504,504,504,504,504,504,504,504,504,504,504,504,504,504,504,504,504,504,504,504,504,504,504,504,496,491,487,485,483,477,471,451,418,398,379,362,345,301,274,248,208,187,155,140,119,98],"timestamp_mouse":[13,35,53,73,94,113,134,153,174,193,214,235,253,274,295,314,334,353,375,394,414,435,455,473,495,514,533,553,573,595,613,634,653,673,694,713,733,753,774,793,814,835,854,875,893,913,933,954],"xSR":741.5,"ySR":469.95,"xT1":424.9,"yT1":0,"xT2":1058.1,"yT2":0,"toosoon":0,"cond_shown":"equaldotsize","ratio_trial":750,"smaller_num":"6","larger_num":"8","correct_side":1,"subjID":"mariagaravito5","gender":"1","age":"9","school":"4"},{"start_time":1552328778787,"click_time":1552328779951,"finger_time":1552328779511,"fix_duration":733.8527017315952,"trial":6,"RT":724,"MT":440,"sideResp":1,"stimulus":"img/500/equaldotanddens/L/4_Ratio_500_L_18_R_9.png","xmouse":[786,786,786,786,786,786,786,786,787,787,787,790,792,792,792,792,792,792,792,792,792,792,792,793,793,795,795,795,795,795,795,795,795,794,782,771,760,743,697,674,653,639,627,615,613,611,606,600,596,595,593,589,573,558,549,541,536,527,524],"ymouse":[531,531,531,531,531,531,531,531,530,530,530,528,527,527,527,527,527,527,527,527,527,527,527,526,526,519,518,518,518,518,517,517,516,514,501,481,455,411,288,232,188,155,134,109,103,97,86,77,72,70,69,67,61,55,51,47,45,43,41],"timestamp_mouse":[12,24,44,64,84,105,125,144,166,185,205,226,244,265,285,305,325,345,366,384,404,425,445,464,484,506,525,544,565,584,605,625,644,665,684,705,724,745,765,784,804,824,845,865,884,904,924,945,965,985,1006,1024,1045,1064,1084,1104,1124,1145,1164],"xSR":741.5,"ySR":469.95,"xT1":424.9,"yT1":0,"xT2":1058.1,"yT2":0,"toosoon":0,"cond_shown":"equaldotanddens","ratio_trial":500,"smaller_num":"9","larger_num":"18","correct_side":1,"subjID":"mariagaravito5","gender":"1","age":"9","school":"4"},{"start_time":1552328782291,"click_time":1552328783711,"finger_time":1552328783112,"fix_duration":1277.846373168633,"trial":7,"RT":821,"MT":599,"sideResp":1,"stimulus":"img/900/equaldotanddens/L/2_Ratio_900_L_20_R_18.png","xmouse":[790,790,790,790,790,790,790,790,790,790,790,790,790,790,790,790,790,790,790,790,790,790,790,790,790,790,790,790,790,789,789,789,788,787,785,785,783,778,770,757,745,728,687,663,647,635,627,616,608,601,597,592,581,575,571,568,566,564,560,558,555,552,542,534,527,521,514,509,500,495,494,490],"ymouse":[548,548,548,548,548,548,548,548,548,548,548,548,548,548,548,548,548,548,548,548,548,548,548,547,547,547,547,547,547,546,545,545,545,545,544,544,543,541,538,533,530,522,493,473,454,439,427,409,397,387,380,367,333,317,302,290,278,261,237,228,219,212,193,184,174,165,155,147,126,116,106,94],"timestamp_mouse":[11,20,40,61,82,102,121,141,160,180,202,222,241,261,281,300,320,342,360,381,400,420,441,460,480,501,522,541,561,581,602,622,642,660,681,701,721,741,760,781,801,821,842,860,880,901,920,942,960,981,1001,1021,1042,1060,1082,1101,1120,1140,1161,1180,1200,1220,1242,1260,1281,1302,1320,1340,1360,1380,1400,1420],"xSR":741.5,"ySR":469.95,"xT1":424.9,"yT1":0,"xT2":1058.1,"yT2":0,"toosoon":0,"cond_shown":"equaldotanddens","ratio_trial":900,"smaller_num":"18","larger_num":"20","correct_side":1,"subjID":"mariagaravito5","gender":"1","age":"9","school":"4"},{"start_time":1552328786815,"click_time":1552328787853,"finger_time":1552328787472,"fix_duration":1461.490160511962,"trial":8,"RT":657,"MT":381,"sideResp":1,"stimulus":"img/500/equaldotsize/L/8_Ratio_500_L_8_R_4.png","xmouse":[748,748,748,748,748,748,748,748,748,748,748,755,765,770,771,771,771,771,771,771,771,771,771,771,771,771,771,771,771,771,767,749,742,734,729,722,708,702,695,687,678,656,646,638,626,615,590,565,549,533,519,494],"ymouse":[524,524,524,524,524,524,524,524,524,524,524,524,523,522,522,522,522,522,522,522,522,522,522,522,522,522,522,522,522,521,514,477,460,443,430,415,379,360,340,311,291,256,242,229,216,203,177,153,139,125,112,91],"timestamp_mouse":[17,36,58,77,98,116,137,157,178,198,216,236,257,278,296,317,336,356,377,398,417,438,458,476,497,517,538,557,577,598,618,637,657,677,696,718,736,756,777,798,817,837,857,877,897,918,936,956,977,998,1017,1037],"xSR":741.5,"ySR":469.95,"xT1":424.9,"yT1":0,"xT2":1058.1,"yT2":0,"toosoon":0,"cond_shown":"equaldotsize","ratio_trial":500,"smaller_num":"4","larger_num":"8","correct_side":1,"subjID":"mariagaravito5","gender":"1","age":"9","school":"4"},{"start_time":1552328790611,"click_time":1552328796132,"finger_time":1552328795671,"fix_duration":1256.907634891143,"trial":9,"RT":5060,"MT":461,"sideResp":1,"stimulus":"img/250/randomdotsizeEA/R/10_Ratio_250_L_4_R_16.png","xmouse":[812,812,812,812,812,812,812,812,812,812,812,812,812,812,812,812,812,812,812,812,812,812,812,812,812,812,812,812,812,812,812,812,812,812,812,812,812,812,812,812,812,812,812,812,812,812,812,812,812,812,812,812,812,812,812,812,812,812,812,812,812,812,812,812,812,812,812,812,812,812,812,812,812,812,812,812,812,812,812,812,812,812,812,812,812,812,812,812,812,812,812,812,812,812,812,812,812,812,812,812,812,812,812,812,812,812,812,812,812,812,812,812,812,812,812,812,812,812,812,812,812,812,812,812,812,812,812,812,812,812,812,812,812,812,812,812,812,812,812,812,812,812,812,812,812,812,812,812,812,812,812,812,812,812,812,812,812,812,812,812,812,812,812,812,812,812,812,812,812,812,812,812,812,812,812,812,812,812,812,812,812,812,812,812,812,812,812,812,812,812,812,812,812,812,812,812,812,812,812,812,812,812,812,812,812,812,812,812,812,812,812,812,812,812,812,812,812,812,812,812,812,812,812,812,812,812,812,812,812,812,812,812,812,812,812,812,812,812,812,812,812,812,812,812,812,812,812,812,812,812,810,807,786,703,637,617,589,584,578,576,571,563,553,534,528,521,517,512,504,500,496,494,493,489,489,489,488],"ymouse":[507,507,507,507,507,507,507,507,507,507,507,507,507,507,507,507,507,507,507,507,507,507,507,507,507,507,507,507,507,507,507,507,507,507,507,507,507,507,507,507,507,507,507,507,507,507,507,507,507,507,507,507,507,507,507,507,507,507,507,507,507,507,507,507,507,507,507,507,507,507,507,507,507,507,507,507,507,507,507,507,507,507,507,507,507,507,507,507,507,507,507,507,507,507,507,507,507,507,507,507,507,507,507,507,507,507,507,507,507,507,507,507,507,507,507,507,507,507,507,507,507,507,507,507,507,507,507,507,507,507,507,507,507,507,507,507,507,507,507,507,507,507,507,507,507,507,507,507,507,507,507,507,507,507,507,507,507,507,507,507,507,507,507,507,507,507,507,507,507,507,507,507,507,507,507,507,507,507,507,507,507,507,507,507,507,507,507,507,507,507,507,507,507,507,507,507,507,507,507,507,507,507,507,507,507,507,507,507,507,507,507,507,507,507,507,507,507,507,507,507,507,507,507,507,507,507,507,507,507,507,507,507,507,507,507,507,507,507,507,507,507,507,507,507,507,507,507,507,507,507,507,506,475,391,331,316,288,282,272,266,255,241,226,199,189,177,171,164,149,142,137,131,126,116,112,107,99],"timestamp_mouse":[10,21,42,62,82,101,120,141,160,182,202,220,241,261,282,300,321,341,361,382,401,420,441,462,481,502,520,541,561,580,601,622,642,661,681,701,722,741,760,781,802,822,841,861,882,900,920,940,961,982,1002,1022,1042,1061,1081,1102,1121,1141,1160,1182,1201,1222,1242,1262,1281,1300,1320,1340,1361,1381,1402,1421,1442,1461,1482,1501,1520,1542,1562,1582,1602,1622,1641,1660,1682,1701,1721,1740,1760,1782,1802,1821,1840,1862,1882,1902,1920,1940,1961,1981,2002,2021,2040,2061,2080,2101,2122,2142,2161,2181,2200,2221,2242,2261,2281,2301,2320,2341,2361,2381,2402,2422,2442,2461,2481,2501,2522,2541,2561,2582,2602,2622,2642,2661,2681,2701,2722,2741,2761,2782,2801,2822,2840,2861,2882,2902,2922,2942,2961,2980,3000,3022,3041,3062,3081,3101,3121,3141,3160,3181,3200,3222,3241,3261,3282,3301,3321,3340,3361,3380,3402,3422,3441,3461,3480,3502,3522,3541,3561,3580,3601,3621,3642,3661,3681,3701,3722,3740,3761,3782,3802,3821,3840,3861,3882,3901,3921,3941,3962,3981,4001,4021,4042,4061,4081,4101,4122,4140,4161,4182,4201,4222,4240,4261,4280,4301,4321,4341,4361,4380,4402,4420,4441,4462,4481,4502,4521,4540,4562,4581,4601,4622,4641,4661,4680,4701,4722,4742,4762,4781,4801,4822,4842,4861,4880,4902,4921,4942,4961,4980,5001,5021,5041,5060,5080,5102,5121,5141,5161,5181,5202,5221,5241,5261,5281,5301,5321,5340,5361,5380,5401,5421,5441,5461,5480,5500,5520],"xSR":741.5,"ySR":469.95,"xT1":424.9,"yT1":0,"xT2":1058.1,"yT2":0,"toosoon":0,"cond_shown":"randomdotsizeEA","ratio_trial":250,"smaller_num":"4","larger_num":"16","correct_side":2,"subjID":"mariagaravito5","gender":"1","age":"9","school":"4"},{"start_time":1552328799027,"click_time":1552328800312,"finger_time":1552328800012,"fix_duration":434.79850791379215,"trial":10,"RT":985,"MT":300,"sideResp":1,"stimulus":"img/750/equaldotsize/R/12_Ratio_750_L_3_R_4.png","xmouse":[796,796,796,796,796,796,796,796,797,797,797,797,797,797,797,797,797,797,797,797,797,797,797,797,797,797,797,797,797,797,797,797,797,797,797,797,797,797,797,797,797,797,797,795,791,787,784,778,763,750,736,718,681,668,659,648,639,628,608,597,585,568,543,526,510],"ymouse":[544,544,544,544,544,544,544,544,543,541,541,541,540,540,540,540,540,540,540,540,540,540,540,540,540,540,540,540,540,540,540,540,540,540,540,540,540,540,540,540,540,540,539,532,523,515,508,497,473,457,440,419,369,345,324,296,268,233,164,143,128,114,98,88,80],"timestamp_mouse":[5,26,45,65,85,104,125,145,165,186,206,225,244,266,286,305,325,345,366,384,406,425,446,465,484,504,526,545,565,585,604,625,645,665,684,705,726,746,766,784,805,826,845,865,885,905,925,945,965,985,1005,1024,1047,1065,1085,1105,1126,1145,1165,1185,1204,1225,1246,1264,1285],"xSR":741.5,"ySR":469.95,"xT1":424.9,"yT1":0,"xT2":1058.1,"yT2":0,"toosoon":0,"cond_shown":"equaldotsize","ratio_trial":750,"smaller_num":"3","larger_num":"4","correct_side":2,"subjID":"mariagaravito5","gender":"1","age":"9","school":"4"},{"start_time":1552328802525,"click_time":1552328803833,"finger_time":1552328803492,"fix_duration":1052.38189235262,"trial":11,"RT":967,"MT":341,"sideResp":2,"stimulus":"img/750/randomdotsizeEA/R/12_Ratio_750_L_3_R_4.png","xmouse":[771,771,771,771,771,771,771,771,771,771,771,771,771,771,771,771,771,771,771,771,771,771,771,771,771,771,771,771,771,771,771,771,771,771,771,771,771,771,771,771,771,771,771,771,771,771,771,778,871,934,970,979,980,986,993,1006,1018,1032,1046,1053,1063,1073,1084,1097,1101,1103],"ymouse":[506,506,506,506,506,506,506,506,506,506,506,506,506,506,506,506,506,506,506,506,506,506,506,506,506,506,506,506,506,506,506,506,506,506,506,506,506,506,506,506,506,506,506,506,506,506,506,503,442,399,373,363,357,335,316,294,275,254,233,221,205,188,170,134,116,98],"timestamp_mouse":[12,30,46,66,88,106,128,147,168,188,208,228,247,266,288,307,328,346,366,388,408,428,447,467,487,507,528,547,566,587,606,627,647,668,686,706,726,747,767,788,808,827,847,867,888,907,928,946,967,987,1007,1026,1047,1067,1087,1106,1127,1146,1166,1187,1208,1227,1246,1266,1287,1308],"xSR":741.5,"ySR":469.95,"xT1":424.9,"yT1":0,"xT2":1058.1,"yT2":0,"toosoon":0,"cond_shown":"randomdotsizeEA","ratio_trial":750,"smaller_num":"3","larger_num":"4","correct_side":2,"subjID":"mariagaravito5","gender":"1","age":"9","school":"4"},{"start_time":1552328805408,"click_time":1552328806632,"finger_time":1552328806333,"fix_duration":513.7672447635218,"trial":12,"RT":925,"MT":299,"sideResp":1,"stimulus":"img/500/equaldotanddens/L/8_Ratio_500_L_8_R_4.png","xmouse":[760,760,760,760,760,760,760,760,760,762,763,764,764,764,765,765,765,765,765,765,765,765,765,765,765,765,765,765,765,765,765,765,765,765,765,765,765,765,765,765,765,765,765,765,766,753,736,718,700,674,660,655,649,643,619,605,591,579,568,547,537,520],"ymouse":[523,523,523,523,523,523,523,523,523,523,523,524,524,524,524,524,524,524,524,524,524,524,524,524,524,524,524,524,524,524,524,524,524,524,524,524,524,524,524,524,524,524,524,524,521,482,444,407,378,337,317,309,300,291,258,239,216,193,170,130,113,87],"timestamp_mouse":[13,30,45,64,84,105,124,145,165,185,207,223,243,263,284,305,324,343,364,385,403,424,444,464,483,505,524,545,564,584,604,623,643,665,685,703,724,745,764,783,804,823,844,863,885,904,925,945,965,984,1003,1024,1044,1064,1084,1103,1123,1144,1164,1184,1204,1224],"xSR":741.5,"ySR":469.95,"xT1":424.9,"yT1":0,"xT2":1058.1,"yT2":0,"toosoon":0,"cond_shown":"equaldotanddens","ratio_trial":500,"smaller_num":"4","larger_num":"8","correct_side":1,"subjID":"mariagaravito5","gender":"1","age":"9","school":"4"},{"start_time":1552328808466,"click_time":1552328810012,"finger_time":1552328809612,"fix_duration":850.5349977283266,"trial":13,"RT":1146,"MT":400,"sideResp":2,"stimulus":"img/900/equaldotsize/L/8_Ratio_900_L_20_R_18.png","xmouse":[806,806,806,806,806,806,806,806,806,806,806,806,806,806,806,806,806,806,806,806,806,806,806,806,806,806,806,806,806,806,806,806,806,806,806,806,806,806,806,806,806,806,806,806,806,806,806,806,806,806,806,806,806,806,806,807,813,851,868,883,895,921,936,949,960,970,994,1002,1012,1023,1031,1046,1053,1060,1068,1074,1080,1089],"ymouse":[529,529,529,529,529,529,529,529,529,529,529,529,529,529,529,529,529,529,529,529,529,529,529,529,529,529,529,529,529,529,529,529,529,529,529,529,529,529,529,529,529,529,529,529,529,529,529,529,529,529,529,529,529,529,529,529,529,493,477,462,447,413,396,380,364,347,305,284,260,234,214,184,171,154,137,122,100,80],"timestamp_mouse":[12,26,47,66,87,106,127,145,167,187,205,227,247,266,287,306,327,346,365,387,406,427,446,466,486,505,526,546,566,586,607,626,646,667,686,707,727,746,766,785,806,827,847,866,885,905,926,946,965,987,1007,1026,1047,1065,1087,1106,1126,1146,1165,1186,1206,1227,1246,1267,1286,1306,1327,1346,1366,1386,1407,1427,1446,1466,1485,1505,1525,1545],"xSR":741.5,"ySR":469.95,"xT1":424.9,"yT1":0,"xT2":1058.1,"yT2":0,"toosoon":0,"cond_shown":"equaldotsize","ratio_trial":900,"smaller_num":"18","larger_num":"20","correct_side":1,"subjID":"mariagaravito5","gender":"1","age":"9","school":"4"},{"start_time":1552328812758,"click_time":1552328813712,"finger_time":1552328813352,"fix_duration":1424.8609917737701,"trial":14,"RT":594,"MT":360,"sideResp":1,"stimulus":"img/750/equaldotanddens/R/3_Ratio_750_L_15_R_20.png","xmouse":[806,806,806,806,806,806,806,806,806,806,806,806,806,806,806,806,806,806,806,806,806,806,806,806,807,809,810,810,810,810,809,807,793,786,777,768,758,732,710,677,659,644,617,605,592,575,558,520],"ymouse":[524,524,524,524,524,524,524,524,524,524,524,524,524,524,524,524,524,524,524,524,524,524,524,524,504,488,480,471,470,468,462,453,424,410,395,380,364,321,290,243,216,191,149,132,112,92,72,42],"timestamp_mouse":[14,35,54,75,93,114,134,155,174,195,215,235,253,273,294,314,334,353,373,395,413,434,455,474,494,514,533,554,574,594,614,634,654,675,694,713,734,753,773,794,815,835,854,874,894,914,935,954],"xSR":741.5,"ySR":469.95,"xT1":424.9,"yT1":0,"xT2":1058.1,"yT2":0,"toosoon":0,"cond_shown":"equaldotanddens","ratio_trial":750,"smaller_num":"15","larger_num":"20","correct_side":2,"subjID":"mariagaravito5","gender":"1","age":"9","school":"4"},{"start_time":1552328816020,"click_time":1552328817392,"finger_time":1552328817072,"fix_duration":1147.7650938831976,"trial":15,"RT":1052,"MT":320,"sideResp":1,"stimulus":"img/250/randomdotsizeEA/R/4_Ratio_250_L_3_R_12.png","xmouse":[774,774,774,774,774,774,774,774,774,774,774,774,774,774,774,774,774,774,774,774,774,774,774,774,774,774,774,774,774,774,774,774,774,774,774,774,774,774,774,774,774,774,774,774,774,774,774,773,772,767,761,749,737,721,691,679,668,659,651,645,635,630,625,616,603,556,540,527,520],"ymouse":[544,544,544,544,544,544,544,544,544,544,544,544,544,544,544,544,544,544,544,544,544,544,544,544,544,544,544,544,544,544,544,544,544,544,544,544,544,544,544,544,544,544,544,544,544,544,544,542,542,540,536,522,507,487,426,389,351,319,291,269,231,213,196,182,163,116,103,93,88],"timestamp_mouse":[13,36,53,71,91,113,133,151,171,193,213,232,252,272,293,311,332,353,373,392,412,432,451,473,491,513,533,551,571,591,612,632,652,673,693,712,732,752,773,793,813,833,852,873,892,913,931,952,972,992,1012,1033,1052,1071,1093,1112,1132,1151,1173,1192,1212,1232,1251,1272,1292,1312,1332,1351,1371],"xSR":741.5,"ySR":469.95,"xT1":424.9,"yT1":0,"xT2":1058.1,"yT2":0,"toosoon":0,"cond_shown":"randomdotsizeEA","ratio_trial":250,"smaller_num":"3","larger_num":"12","correct_side":2,"subjID":"mariagaravito5","gender":"1","age":"9","school":"4"},{"start_time":1552328819634,"click_time":1552328821093,"finger_time":1552328820852,"fix_duration":1019.5358312764595,"trial":16,"RT":1218,"MT":241,"sideResp":1,"stimulus":"img/900/equaldotanddens/R/9_Ratio_900_L_18_R_20.png","xmouse":[781,781,781,781,781,781,781,781,781,781,781,781,781,781,781,781,781,781,781,781,781,781,781,781,781,781,781,781,781,781,781,781,781,781,781,781,781,781,781,781,781,781,781,781,781,781,781,781,781,781,781,780,779,777,774,772,772,772,771,759,734,708,665,647,630,621,609,594,573,521,496,475,450],"ymouse":[538,538,538,538,538,538,538,538,538,538,538,538,538,538,538,538,538,538,538,538,538,538,538,538,538,538,538,538,538,538,538,538,538,538,538,538,538,538,538,538,538,538,538,538,538,538,538,538,538,538,537,537,536,535,533,533,533,533,532,517,489,461,415,393,356,335,309,279,248,180,153,129,98],"timestamp_mouse":[18,38,58,78,99,119,137,157,178,199,218,237,258,278,299,319,339,359,378,398,418,438,458,479,499,518,538,558,579,598,618,639,658,678,698,717,737,759,778,797,817,839,859,879,898,919,939,957,978,997,1018,1037,1058,1078,1098,1118,1139,1158,1178,1197,1218,1238,1257,1279,1298,1318,1337,1358,1377,1397,1419,1439,1459],"xSR":741.5,"ySR":469.95,"xT1":424.9,"yT1":0,"xT2":1058.1,"yT2":0,"toosoon":0,"cond_shown":"equaldotanddens","ratio_trial":900,"smaller_num":"18","larger_num":"20","correct_side":2,"subjID":"mariagaravito5","gender":"1","age":"9","school":"4"},{"start_time":1552328823303,"click_time":1552328824791,"finger_time":1552328824252,"fix_duration":1129.3630022738125,"trial":17,"RT":949,"MT":539,"sideResp":1,"stimulus":"img/900/randomdotsizeEA/L/10_Ratio_900_L_20_R_18.png","xmouse":[760,760,760,760,760,760,760,760,760,760,760,760,760,760,760,760,760,760,760,760,760,760,760,760,760,760,760,760,760,760,760,760,760,760,760,760,760,760,760,760,760,760,760,760,760,760,760,747,698,662,628,603,572,562,553,553,553,553,553,553,553,553,553,553,553,553,553,553,553,553,553,553,553,553,502],"ymouse":[498,498,498,498,498,498,498,498,498,498,498,498,498,498,498,498,498,498,498,498,498,498,498,498,498,498,498,498,498,498,498,498,498,498,498,498,498,498,498,498,498,498,498,498,498,498,498,458,346,280,214,160,73,34,2,2,2,2,2,2,2,2,2,2,2,2,2,2,2,2,2,2,2,2,2],"timestamp_mouse":[13,40,49,68,88,109,129,149,169,190,209,230,250,269,289,310,329,348,368,389,408,430,449,469,489,509,529,548,570,589,609,628,650,669,689,710,729,749,769,789,808,829,850,870,889,909,929,949,969,989,1010,1028,1049,1069,1088,1109,1130,1149,1170,1189,1209,1230,1250,1269,1290,1310,1330,1349,1369,1390,1409,1429,1449,1468,1488],"xSR":741.5,"ySR":469.95,"xT1":424.9,"yT1":0,"xT2":1058.1,"yT2":0,"toosoon":0,"cond_shown":"randomdotsizeEA","ratio_trial":900,"smaller_num":"18","larger_num":"20","correct_side":1,"subjID":"mariagaravito5","gender":"1","age":"9","school":"4"},{"start_time":1552328827014,"click_time":1552328828272,"finger_time":1552328827853,"fix_duration":1181.1071013883093,"trial":18,"RT":839,"MT":419,"sideResp":2,"stimulus":"img/500/equaldotsize/R/9_Ratio_500_L_2_R_4.png","xmouse":[777,777,777,777,777,777,777,777,777,777,777,777,777,777,777,777,777,777,777,777,777,777,777,777,777,777,777,777,777,777,777,777,777,777,777,777,777,777,777,777,799,838,883,919,934,941,954,964,975,987,996,1015,1025,1036,1045,1067,1074,1080,1083,1083,1087,1093,1096],"ymouse":[493,493,493,493,493,493,493,493,493,493,493,493,493,493,493,493,493,493,493,493,493,493,493,493,493,493,493,493,493,493,493,493,493,493,493,493,493,493,493,493,480,451,425,401,388,375,340,318,297,280,266,245,231,218,206,175,162,149,133,129,117,101,97],"timestamp_mouse":[18,38,58,78,98,118,138,159,179,199,219,239,259,278,297,317,339,359,379,398,419,438,458,478,498,519,538,559,579,598,618,637,659,678,699,719,738,758,778,798,819,839,858,878,899,918,938,958,977,999,1018,1037,1057,1077,1099,1119,1138,1157,1177,1198,1218,1237,1257],"xSR":741.5,"ySR":469.95,"xT1":424.9,"yT1":0,"xT2":1058.1,"yT2":0,"toosoon":0,"cond_shown":"equaldotsize","ratio_trial":500,"smaller_num":"2","larger_num":"4","correct_side":2,"subjID":"mariagaravito5","gender":"1","age":"9","school":"4"},{"start_time":1552328830376,"click_time":1552328831512,"finger_time":1552328831251,"fix_duration":721.1809671615185,"trial":19,"RT":875,"MT":261,"sideResp":1,"stimulus":"img/250/equaldotanddens/L/7_Ratio_250_L_8_R_2.png","xmouse":[798,798,798,798,798,798,798,798,798,798,798,798,798,798,798,798,798,798,798,798,798,798,798,798,798,798,798,798,798,798,798,798,798,798,798,798,798,798,798,796,792,782,771,748,736,724,709,687,637,618,595,583,573,553,541,529,518],"ymouse":[545,545,545,545,545,545,545,545,545,545,545,545,545,545,545,545,545,545,545,545,545,545,545,545,545,545,545,545,545,545,545,545,545,545,545,545,545,545,545,542,539,517,497,453,432,412,388,356,286,256,217,197,179,142,123,107,90],"timestamp_mouse":[20,40,57,75,97,115,136,156,177,196,217,237,255,275,297,316,337,355,376,397,417,436,455,476,495,515,535,557,576,595,617,636,655,676,697,715,735,755,777,796,816,836,857,875,896,915,936,956,976,996,1016,1035,1056,1075,1096,1117,1136],"xSR":741.5,"ySR":469.95,"xT1":424.9,"yT1":0,"xT2":1058.1,"yT2":0,"toosoon":0,"cond_shown":"equaldotanddens","ratio_trial":250,"smaller_num":"2","larger_num":"8","correct_side":1,"subjID":"mariagaravito5","gender":"1","age":"9","school":"4"},{"start_time":1552328833411,"click_time":1552328834431,"finger_time":1552328834051,"fix_duration":877.9942763254529,"trial":20,"RT":640,"MT":380,"sideResp":2,"stimulus":"img/900/equaldotanddens/L/8_Ratio_900_L_20_R_18.png","xmouse":[782,782,782,782,782,782,782,782,782,782,782,782,782,782,782,782,782,782,782,782,782,782,782,782,782,782,782,782,782,782,793,812,840,889,899,907,913,916,933,944,953,961,966,976,981,987,994,1014,1031,1042,1054,1065],"ymouse":[528,528,528,528,528,528,528,528,528,528,528,528,528,528,528,528,528,528,528,528,528,528,528,528,528,528,528,528,528,528,504,477,445,384,367,355,346,339,311,292,275,261,249,224,213,200,188,156,133,114,96,81],"timestamp_mouse":[10,21,48,61,82,102,122,140,161,182,202,220,241,261,282,301,321,341,361,382,402,422,442,461,482,502,522,542,561,581,601,620,640,660,681,701,721,742,762,781,801,821,841,860,880,900,922,941,960,981,1001,1020],"xSR":741.5,"ySR":469.95,"xT1":424.9,"yT1":0,"xT2":1058.1,"yT2":0,"toosoon":0,"cond_shown":"equaldotanddens","ratio_trial":900,"smaller_num":"18","larger_num":"20","correct_side":1,"subjID":"mariagaravito5","gender":"1","age":"9","school":"4"},{"start_time":1552328836393,"click_time":1552328838233,"finger_time":1552328837411,"fix_duration":1098.7558960600347,"trial":21,"RT":1018,"MT":822,"sideResp":1,"stimulus":"img/250/randomdotsizeEA/L/15_Ratio_250_L_12_R_3.png","xmouse":[818,818,818,818,818,818,818,818,818,818,818,818,818,818,818,818,818,818,818,818,818,818,818,818,818,818,818,818,818,818,818,818,818,818,818,818,818,818,818,818,818,818,818,818,818,818,818,818,818,830,846,860,874,893,899,905,912,914,918,920,921,923,923,923,923,923,923,923,923,917,900,882,867,843,832,823,814,798,776,767,757,748,738,712,695,676,654,614,555,531,512,499],"ymouse":[518,518,518,518,518,518,518,518,518,518,518,518,518,518,518,518,518,518,518,518,518,518,518,518,518,518,518,518,518,518,518,518,518,518,518,518,518,518,518,518,518,518,518,518,518,518,518,518,518,513,503,494,481,462,450,436,421,411,399,394,390,388,386,384,384,384,384,384,384,385,393,405,418,446,458,466,473,482,491,492,493,493,485,451,427,390,351,277,183,143,108,86],"timestamp_mouse":[19,38,59,79,99,118,139,159,179,200,220,240,259,278,299,319,340,359,379,400,419,439,459,478,499,518,539,559,579,600,620,640,660,680,698,720,740,759,778,798,818,840,860,880,898,919,940,960,979,999,1018,1038,1059,1078,1100,1120,1139,1160,1178,1198,1218,1240,1258,1278,1300,1319,1339,1358,1378,1398,1419,1438,1459,1478,1500,1520,1539,1560,1579,1598,1620,1638,1659,1679,1699,1719,1739,1758,1778,1799,1818,1840],"xSR":741.5,"ySR":469.95,"xT1":424.9,"yT1":0,"xT2":1058.1,"yT2":0,"toosoon":0,"cond_shown":"randomdotsizeEA","ratio_trial":250,"smaller_num":"3","larger_num":"12","correct_side":1,"subjID":"mariagaravito5","gender":"1","age":"9","school":"4"},{"start_time":1552328839639,"click_time":1552328840832,"finger_time":1552328840533,"fix_duration":445.5443115496764,"trial":22,"RT":894,"MT":299,"sideResp":2,"stimulus":"img/750/equaldotsize/R/15_Ratio_750_L_9_R_12.png","xmouse":[792,792,792,792,792,792,792,792,792,792,792,792,792,792,792,792,792,792,792,792,792,792,792,792,792,792,792,792,792,792,792,792,792,792,792,792,792,792,792,792,792,792,792,816,849,877,912,923,935,947,962,1003,1026,1035,1040,1042,1050,1056,1063,1070],"ymouse":[523,523,523,523,523,523,523,523,523,523,523,523,523,523,523,523,523,523,523,523,523,523,523,523,523,523,523,523,523,523,523,523,523,523,523,523,523,523,523,523,523,523,522,490,454,418,368,349,329,307,283,222,186,170,158,148,125,114,103,93],"timestamp_mouse":[14,33,54,72,92,114,133,154,173,194,214,233,253,274,293,313,332,353,373,394,413,432,453,473,493,513,534,553,572,592,614,634,653,674,693,713,732,754,773,793,814,833,853,872,894,912,933,952,973,993,1013,1033,1053,1072,1093,1112,1133,1153,1173,1193],"xSR":741.5,"ySR":469.95,"xT1":424.9,"yT1":0,"xT2":1058.1,"yT2":0,"toosoon":0,"cond_shown":"equaldotsize","ratio_trial":750,"smaller_num":"9","larger_num":"12","correct_side":2,"subjID":"mariagaravito5","gender":"1","age":"9","school":"4"},{"start_time":1552328842597,"click_time":1552328843712,"finger_time":1552328843371,"fix_duration":704.9318364055348,"trial":23,"RT":774,"MT":341,"sideResp":1,"stimulus":"img/750/equaldotanddens/L/13_Ratio_750_L_8_R_6.png","xmouse":[780,780,780,780,780,780,780,780,780,780,780,780,780,780,780,780,780,780,780,780,780,780,780,780,780,780,780,780,780,780,780,780,780,780,780,780,780,774,761,701,662,631,605,599,586,581,574,563,551,540,539,539,539,539,531,518],"ymouse":[493,493,493,493,493,493,493,493,493,493,493,493,493,493,493,493,493,493,493,493,493,493,493,493,493,493,493,493,493,493,493,493,493,493,493,493,493,479,446,347,292,250,206,196,162,147,132,113,98,83,81,81,81,81,79,73],"timestamp_mouse":[15,34,56,75,95,115,136,155,175,195,214,235,254,276,295,314,334,354,375,395,414,435,456,475,494,514,535,556,574,594,615,634,655,675,695,716,734,754,774,794,815,834,854,875,895,915,935,954,976,994,1015,1036,1056,1075,1095,1115],"xSR":741.5,"ySR":469.95,"xT1":424.9,"yT1":0,"xT2":1058.1,"yT2":0,"toosoon":0,"cond_shown":"equaldotanddens","ratio_trial":750,"smaller_num":"6","larger_num":"8","correct_side":1,"subjID":"mariagaravito5","gender":"1","age":"9","school":"4"},{"start_time":1552328844724,"click_time":1552328846212,"finger_time":1552328845632,"fix_duration":250,"trial":24,"RT":908,"MT":580,"sideResp":2,"stimulus":"img/900/equaldotsize/L/4_Ratio_900_L_20_R_18.png","xmouse":[793,793,793,793,793,793,793,793,793,793,793,793,793,793,793,793,793,793,793,793,793,793,793,793,793,793,793,793,793,793,793,793,793,793,793,793,793,793,793,793,793,793,802,823,836,846,855,863,878,888,901,917,932,956,965,975,979,993,1016,1026,1037,1044,1050,1059,1062,1066,1069,1071,1072,1072,1072,1072,1072,1073,1074],"ymouse":[511,511,511,511,511,511,511,511,511,511,511,511,511,511,511,511,511,511,511,511,511,511,511,511,511,511,511,511,511,511,511,511,511,511,511,511,511,511,511,511,511,511,508,499,493,486,477,466,445,432,412,391,370,326,308,282,274,242,204,187,173,163,153,138,133,125,117,112,109,109,109,109,109,105,99],"timestamp_mouse":[16,35,47,69,87,108,128,148,168,189,207,229,248,268,288,309,329,349,367,389,408,428,448,468,487,509,529,549,568,588,608,629,648,668,688,707,729,749,768,789,809,828,848,868,888,908,928,948,967,988,1008,1027,1048,1067,1089,1108,1129,1148,1169,1187,1207,1228,1249,1268,1288,1308,1328,1347,1367,1388,1408,1428,1449,1468,1487],"xSR":741.5,"ySR":469.95,"xT1":424.9,"yT1":0,"xT2":1058.1,"yT2":0,"toosoon":0,"cond_shown":"equaldotsize","ratio_trial":900,"smaller_num":"18","larger_num":"20","correct_side":1,"subjID":"mariagaravito5","gender":"1","age":"9","school":"4"},{"start_time":1552328854824,"click_time":1552328855672,"finger_time":1552328855412,"fix_duration":1170.7961658628985,"trial":25,"RT":588,"MT":260,"sideResp":2,"stimulus":"img/900/randomdotsizeEA/L/2_Ratio_900_L_20_R_18.png","xmouse":[758,758,758,758,758,758,758,758,758,758,758,758,758,758,758,758,758,758,758,758,758,758,758,758,758,758,758,758,760,763,763,763,763,763,763,763,763,786,821,946,1013,1057,1092],"ymouse":[513,513,513,513,513,513,513,513,513,513,513,513,513,513,513,513,513,513,513,513,513,513,513,513,513,513,513,513,501,460,458,457,457,457,457,457,456,409,359,219,161,121,85],"timestamp_mouse":[12,31,49,69,89,108,129,149,169,188,207,228,249,268,289,309,329,348,367,389,409,428,449,469,488,508,527,548,568,588,608,627,647,668,688,709,728,747,767,788,808,828,848],"xSR":741.5,"ySR":469.95,"xT1":424.9,"yT1":0,"xT2":1058.1,"yT2":0,"toosoon":0,"cond_shown":"randomdotsizeEA","ratio_trial":900,"smaller_num":"18","larger_num":"20","correct_side":1,"subjID":"mariagaravito5","gender":"1","age":"9","school":"4"},{"start_time":1552328857995,"click_time":1552328858933,"finger_time":1552328858732,"fix_duration":1042.4871043845721,"trial":26,"RT":737,"MT":201,"sideResp":1,"stimulus":"img/750/equaldotanddens/R/7_Ratio_750_L_3_R_4.png","xmouse":[789,789,789,789,789,789,789,789,789,789,789,789,789,789,789,789,789,789,789,789,789,789,789,789,789,789,789,789,789,789,789,789,787,781,776,772,770,769,767,763,745,725,691,644,591,519,475],"ymouse":[514,514,514,514,514,514,514,514,514,514,514,514,514,514,514,514,514,514,514,514,514,514,514,514,514,514,514,514,514,514,514,514,502,488,479,470,466,463,455,445,410,376,329,266,202,120,56],"timestamp_mouse":[17,37,58,77,96,117,137,157,178,198,216,238,258,276,296,317,336,356,378,397,416,438,458,478,496,518,537,556,577,596,618,637,656,678,698,717,737,756,777,797,817,837,856,877,896,917,937],"xSR":741.5,"ySR":469.95,"xT1":424.9,"yT1":0,"xT2":1058.1,"yT2":0,"toosoon":0,"cond_shown":"equaldotanddens","ratio_trial":750,"smaller_num":"3","larger_num":"4","correct_side":2,"subjID":"mariagaravito5","gender":"1","age":"9","school":"4"},{"start_time":1552328861011,"click_time":1552328862511,"finger_time":1552328862112,"fix_duration":277.86243240349575,"trial":27,"RT":1101,"MT":399,"sideResp":1,"stimulus":"img/750/equaldotanddens/L/1_Ratio_750_L_20_R_15.png","xmouse":[794,794,794,794,794,794,794,794,794,794,794,794,794,794,794,794,794,794,794,794,794,794,794,794,794,794,794,794,794,794,794,794,794,794,794,794,794,794,794,794,794,794,794,794,794,794,794,794,794,794,794,794,794,782,773,732,663,634,612,603,597,593,591,588,584,580,579,576,572,564,553,537,531,528,525,520],"ymouse":[554,554,554,554,554,554,554,554,554,554,554,554,554,554,554,554,554,554,554,554,554,554,554,554,554,554,554,554,554,554,554,554,554,554,554,554,554,554,554,554,554,554,554,554,554,554,554,554,554,554,554,554,554,526,505,427,300,242,193,165,145,128,124,119,112,106,104,102,98,92,85,73,70,69,67,66],"timestamp_mouse":[6,23,41,60,80,100,120,140,160,182,202,222,242,262,282,301,322,341,361,381,401,421,441,461,481,501,521,542,561,581,601,621,641,661,682,701,721,742,761,781,801,822,841,861,880,900,920,942,960,981,1002,1021,1040,1061,1081,1101,1120,1141,1161,1180,1200,1221,1241,1260,1282,1301,1321,1341,1360,1381,1403,1420,1442,1461,1480,1500],"xSR":741.5,"ySR":469.95,"xT1":424.9,"yT1":0,"xT2":1058.1,"yT2":0,"toosoon":0,"cond_shown":"equaldotanddens","ratio_trial":750,"smaller_num":"15","larger_num":"20","correct_side":1,"subjID":"mariagaravito5","gender":"1","age":"9","school":"4"},{"start_time":1552328866552,"click_time":1552328867453,"finger_time":1552328867032,"fix_duration":719.6386500825878,"trial":28,"RT":480,"MT":421,"sideResp":2,"stimulus":"img/900/equaldotsize/L/8_Ratio_900_L_20_R_18.png","xmouse":[787,787,787,787,787,787,787,787,787,787,787,787,787,787,787,787,787,787,787,792,797,800,804,807,824,835,852,865,874,897,913,923,933,946,971,987,996,1001,1005,1014,1020,1026,1033,1041,1055,1064],"ymouse":[545,545,545,545,545,545,545,545,545,545,545,545,545,545,545,545,545,545,544,529,520,510,503,495,465,445,414,393,373,324,291,265,243,216,167,143,133,126,120,111,108,104,100,97,90,86],"timestamp_mouse":[10,19,41,60,81,99,120,140,160,181,200,220,239,260,281,300,320,339,359,380,400,421,440,460,480,499,519,539,559,580,600,620,640,661,681,699,726,740,760,779,799,819,840,860,880,901],"xSR":741.5,"ySR":469.95,"xT1":424.9,"yT1":0,"xT2":1058.1,"yT2":0,"toosoon":0,"cond_shown":"equaldotsize","ratio_trial":900,"smaller_num":"18","larger_num":"20","correct_side":1,"subjID":"mariagaravito5","gender":"1","age":"9","school":"4"},{"start_time":1552328869788,"click_time":1552328870572,"finger_time":1552328870211,"fix_duration":854.2089562283235,"trial":29,"RT":423,"MT":361,"sideResp":2,"stimulus":"img/250/equaldotanddens/L/3_Ratio_250_L_8_R_2.png","xmouse":[774,774,774,775,775,776,778,779,782,783,785,785,786,787,788,789,793,799,812,819,828,838,869,882,895,907,924,945,985,1001,1014,1024,1046,1053,1060,1066,1070,1075,1081,1083],"ymouse":[544,544,544,544,544,543,543,541,539,539,539,538,537,537,537,536,533,524,506,496,482,467,425,407,387,368,344,316,257,235,216,202,167,155,143,133,124,115,100,92],"timestamp_mouse":[12,23,43,64,84,104,123,143,163,184,204,224,244,264,283,304,323,343,363,384,403,423,445,463,483,503,524,543,563,583,603,624,645,663,683,704,723,744,763,783],"xSR":741.5,"ySR":469.95,"xT1":424.9,"yT1":0,"xT2":1058.1,"yT2":0,"toosoon":0,"cond_shown":"equaldotanddens","ratio_trial":250,"smaller_num":"2","larger_num":"8","correct_side":1,"subjID":"mariagaravito5","gender":"1","age":"9","school":"4"},{"start_time":1552328872919,"click_time":1552328874133,"finger_time":1552328873812,"fix_duration":1345.6295831671252,"trial":30,"RT":893,"MT":321,"sideResp":2,"stimulus":"img/500/randomdotsizeEA/L/11_Ratio_500_L_12_R_6.png","xmouse":[762,762,762,762,762,762,762,762,762,762,762,762,762,762,762,762,762,762,762,762,762,762,762,762,762,762,762,762,762,762,762,762,762,762,762,762,762,762,767,772,780,799,816,822,850,868,916,934,949,955,960,969,976,984,993,1003,1022,1032,1042,1054,1068],"ymouse":[533,533,533,533,533,533,533,533,533,533,533,533,533,533,533,533,533,533,533,533,533,533,533,533,533,533,533,533,533,533,533,533,533,533,533,533,533,533,530,526,521,507,494,489,463,443,358,310,282,265,254,235,216,204,190,174,141,124,108,89,71],"timestamp_mouse":[12,36,53,74,92,112,133,154,172,193,213,233,252,274,294,313,332,352,372,393,414,433,452,473,493,514,534,553,573,592,613,634,653,672,693,713,733,753,773,793,813,833,854,873,893,913,933,952,972,992,1013,1032,1052,1074,1093,1114,1132,1152,1174,1194,1214],"xSR":741.5,"ySR":469.95,"xT1":424.9,"yT1":0,"xT2":1058.1,"yT2":0,"toosoon":0,"cond_shown":"randomdotsizeEA","ratio_trial":500,"smaller_num":"6","larger_num":"12","correct_side":1,"subjID":"mariagaravito5","gender":"1","age":"9","school":"4"},{"start_time":1552328876080,"click_time":1552328876912,"finger_time":1552328876591,"fix_duration":887.4285019299105,"trial":31,"RT":511,"MT":321,"sideResp":1,"stimulus":"img/250/equaldotsize/R/8_Ratio_250_L_1_R_4.png","xmouse":[752,752,752,752,752,752,752,752,752,752,752,752,752,752,752,752,752,752,752,752,752,752,752,752,753,736,723,707,686,677,667,654,638,612,603,600,595,587,561,540,519,500],"ymouse":[515,515,515,515,515,515,515,515,515,515,515,515,515,515,515,515,515,515,515,515,515,515,515,515,500,457,435,409,378,363,345,323,295,261,245,238,229,214,174,144,118,98],"timestamp_mouse":[19,34,52,71,92,111,133,153,171,191,211,232,252,272,292,311,333,351,371,393,413,432,451,472,492,511,531,552,572,591,612,631,651,673,692,712,731,752,772,791,812,832],"xSR":741.5,"ySR":469.95,"xT1":424.9,"yT1":0,"xT2":1058.1,"yT2":0,"toosoon":0,"cond_shown":"equaldotsize","ratio_trial":250,"smaller_num":"1","larger_num":"4","correct_side":2,"subjID":"mariagaravito5","gender":"1","age":"9","school":"4"},{"start_time":1552328878857,"click_time":1552328879771,"finger_time":1552328879671,"fix_duration":844.8675667562921,"trial":32,"RT":814,"MT":100,"sideResp":2,"stimulus":"img/500/equaldotsize/R/9_Ratio_500_L_2_R_4.png","xmouse":[798,798,798,798,798,798,798,798,798,798,798,798,798,798,798,798,798,798,798,798,798,798,798,798,798,798,798,798,798,798,798,798,798,798,798,798,798,798,798,821,876,926,978,1020,1086,1101],"ymouse":[547,547,547,547,547,547,547,547,547,547,547,547,547,547,547,547,547,547,547,547,547,547,547,547,547,547,547,547,547,547,547,547,547,547,547,547,547,547,547,515,454,398,326,259,124,91],"timestamp_mouse":[16,39,55,75,95,116,135,154,175,195,215,234,255,276,295,315,335,356,375,395,415,436,455,475,495,515,536,556,574,595,615,636,655,674,696,715,736,756,774,795,814,835,855,875,896,914],"xSR":741.5,"ySR":469.95,"xT1":424.9,"yT1":0,"xT2":1058.1,"yT2":0,"toosoon":0,"cond_shown":"equaldotsize","ratio_trial":500,"smaller_num":"2","larger_num":"4","correct_side":2,"subjID":"mariagaravito5","gender":"1","age":"9","school":"4"},{"start_time":1552328881876,"click_time":1552328883132,"finger_time":1552328882832,"fix_duration":1062.6205257961935,"trial":33,"RT":956,"MT":300,"sideResp":1,"stimulus":"img/900/equaldotanddens/R/14_Ratio_900_L_18_R_20.png","xmouse":[765,765,765,765,765,765,765,765,765,765,765,765,765,765,765,765,765,765,765,765,765,765,765,765,765,765,765,765,765,765,765,765,765,765,765,765,765,765,765,765,765,765,765,765,765,765,756,739,723,682,656,648,630,622,612,609,606,601,594,582,552,532,522],"ymouse":[539,539,539,539,539,539,539,539,539,539,539,539,539,539,539,539,539,539,539,539,539,539,539,539,539,539,539,539,539,539,539,539,539,539,539,539,539,539,539,539,539,539,539,539,539,540,505,467,429,333,272,254,215,195,174,169,164,160,152,143,119,99,88],"timestamp_mouse":[16,39,56,76,96,117,136,157,177,195,215,236,256,276,295,316,336,357,377,396,416,436,455,477,497,516,535,556,576,595,615,636,657,676,696,717,736,756,776,797,816,836,857,877,895,915,935,956,975,996,1016,1036,1057,1076,1095,1116,1135,1156,1176,1195,1216,1235,1256],"xSR":741.5,"ySR":469.95,"xT1":424.9,"yT1":0,"xT2":1058.1,"yT2":0,"toosoon":0,"cond_shown":"equaldotanddens","ratio_trial":900,"smaller_num":"18","larger_num":"20","correct_side":2,"subjID":"mariagaravito5","gender":"1","age":"9","school":"4"},{"start_time":1552328886135,"click_time":1552328887591,"finger_time":1552328887053,"fix_duration":481.24616671640376,"trial":34,"RT":918,"MT":538,"sideResp":2,"stimulus":"img/750/equaldotanddens/R/4_Ratio_750_L_15_R_20.png","xmouse":[792,792,792,792,792,792,792,792,792,792,792,792,792,792,792,792,792,792,792,792,792,792,792,792,792,792,792,792,792,792,792,792,792,792,792,792,792,792,792,792,792,794,801,809,817,828,839,868,881,891,900,906,917,925,931,946,974,990,1008,1024,1038,1045,1049,1051,1052,1052,1054,1054,1054,1054,1054,1054,1059],"ymouse":[525,525,525,525,525,525,525,525,525,525,525,525,525,525,525,525,525,525,525,525,525,525,525,525,525,525,525,525,525,525,525,525,525,525,525,525,525,525,525,525,525,524,512,498,483,463,442,369,339,313,293,278,251,236,221,196,150,127,103,85,72,66,63,63,62,62,61,61,61,61,61,61,61],"timestamp_mouse":[18,37,56,77,96,116,137,158,177,198,218,237,257,277,298,318,336,357,376,397,416,437,456,477,496,517,536,558,577,596,617,636,656,678,697,718,737,756,776,798,816,837,856,877,898,918,938,958,977,996,1018,1036,1056,1076,1096,1116,1138,1156,1176,1196,1216,1236,1256,1277,1297,1318,1337,1356,1376,1396,1417,1438,1456],"xSR":741.5,"ySR":469.95,"xT1":424.9,"yT1":0,"xT2":1058.1,"yT2":0,"toosoon":0,"cond_shown":"equaldotanddens","ratio_trial":750,"smaller_num":"15","larger_num":"20","correct_side":2,"subjID":"mariagaravito5","gender":"1","age":"9","school":"4"},{"start_time":1552328888831,"click_time":1552328889991,"finger_time":1552328889391,"fix_duration":318.567955475465,"trial":35,"RT":560,"MT":600,"sideResp":1,"stimulus":"img/500/randomdotsizeEA/R/9_Ratio_500_L_2_R_4.png","xmouse":[812,812,812,812,812,812,812,812,812,812,812,812,812,812,812,812,812,812,812,812,812,812,812,812,812,812,811,802,765,750,738,729,721,706,696,684,673,658,637,627,617,604,594,574,565,559,554,551,547,544,540,535,532,531,531,531,531,529,520],"ymouse":[525,525,525,525,525,525,525,525,525,525,525,525,525,525,525,525,525,525,525,525,525,525,525,525,525,525,525,510,453,437,426,418,411,398,390,380,368,356,331,315,297,266,243,195,175,161,143,127,93,70,47,20,13,12,12,12,12,11,15],"timestamp_mouse":[10,21,40,61,81,101,120,142,161,180,200,220,242,260,280,301,321,340,361,382,401,421,440,460,482,502,520,541,560,581,601,621,640,661,680,700,720,741,760,781,801,821,841,860,880,901,920,941,960,980,1000,1021,1042,1061,1082,1101,1120,1140,1160],"xSR":741.5,"ySR":469.95,"xT1":424.9,"yT1":0,"xT2":1058.1,"yT2":0,"toosoon":0,"cond_shown":"randomdotsizeEA","ratio_trial":500,"smaller_num":"2","larger_num":"4","correct_side":2,"subjID":"mariagaravito5","gender":"1","age":"9","school":"4"},{"start_time":1552328891444,"click_time":1552328892373,"finger_time":1552328892031,"fix_duration":250,"trial":36,"RT":587,"MT":342,"sideResp":2,"stimulus":"img/750/randomdotsizeEA/L/14_Ratio_750_L_8_R_6.png","xmouse":[778,778,778,778,778,778,778,778,778,778,778,778,778,778,778,778,778,778,778,778,778,778,778,778,778,778,779,788,805,814,820,825,839,850,871,893,909,928,936,946,953,962,982,995,1013,1035,1060],"ymouse":[524,524,524,524,524,524,524,524,524,524,524,524,524,524,524,524,524,524,524,524,524,524,524,524,524,524,524,505,477,459,445,431,389,357,298,252,219,187,175,162,155,147,133,123,111,98,83],"timestamp_mouse":[13,32,47,69,89,107,128,148,169,188,208,228,248,268,287,308,329,349,368,389,409,429,449,468,488,509,529,547,567,587,609,628,648,668,688,708,728,748,768,788,808,828,848,868,887,907,928],"xSR":741.5,"ySR":469.95,"xT1":424.9,"yT1":0,"xT2":1058.1,"yT2":0,"toosoon":0,"cond_shown":"randomdotsizeEA","ratio_trial":750,"smaller_num":"6","larger_num":"8","correct_side":1,"subjID":"mariagaravito5","gender":"1","age":"9","school":"4"},{"start_time":1552328894480,"click_time":1552328895353,"finger_time":1552328894892,"fix_duration":905.3636841847012,"trial":37,"RT":412,"MT":461,"sideResp":1,"stimulus":"img/900/equaldotsize/L/1_Ratio_900_L_10_R_9.png","xmouse":[816,816,816,816,816,816,816,816,816,816,815,815,813,813,810,806,798,790,783,777,764,756,746,736,725,712,675,648,619,587,539,528,524,523,523,523,523,523,523,523,523,521,513,503],"ymouse":[519,519,519,519,519,519,519,519,519,519,519,519,519,519,518,512,500,490,482,472,456,444,430,417,403,388,344,307,268,221,157,139,133,132,132,132,132,132,132,132,132,121,107,94],"timestamp_mouse":[12,40,53,72,93,112,131,151,173,191,213,231,252,271,293,313,332,351,372,391,412,432,452,472,492,513,532,551,573,591,613,631,652,673,691,712,731,753,771,792,813,831,852,873],"xSR":741.5,"ySR":469.95,"xT1":424.9,"yT1":0,"xT2":1058.1,"yT2":0,"toosoon":0,"cond_shown":"equaldotsize","ratio_trial":900,"smaller_num":"9","larger_num":"10","correct_side":1,"subjID":"mariagaravito5","gender":"1","age":"9","school":"4"},{"start_time":1552328897650,"click_time":1552328898472,"finger_time":1552328898072,"fix_duration":855.9295691531789,"trial":38,"RT":422,"MT":400,"sideResp":2,"stimulus":"img/250/equaldotanddens/R/11_Ratio_250_L_3_R_12.png","xmouse":[801,801,801,801,801,801,801,801,801,801,801,801,801,801,801,801,801,802,807,817,824,831,834,834,834,840,845,851,861,865,868,874,881,901,914,929,945,970,1005,1029,1055,1081],"ymouse":[509,509,509,509,509,509,509,509,509,509,509,509,509,509,509,509,509,511,510,492,471,457,453,453,451,438,427,414,393,385,378,370,358,324,304,281,260,228,178,145,109,73],"timestamp_mouse":[15,27,41,61,83,103,122,143,163,181,202,222,243,261,281,301,322,343,362,381,401,422,442,461,482,501,521,541,563,581,603,622,642,661,682,702,722,742,762,782,801,821],"xSR":741.5,"ySR":469.95,"xT1":424.9,"yT1":0,"xT2":1058.1,"yT2":0,"toosoon":0,"cond_shown":"equaldotanddens","ratio_trial":250,"smaller_num":"3","larger_num":"12","correct_side":2,"subjID":"mariagaravito5","gender":"1","age":"9","school":"4"},{"start_time":1552328900095,"click_time":1552328901372,"finger_time":1552328901053,"fix_duration":500.6415307758615,"trial":39,"RT":958,"MT":319,"sideResp":2,"stimulus":"img/250/randomdotsizeEA/R/13_Ratio_250_L_2_R_8.png","xmouse":[801,801,801,801,801,801,801,801,801,801,801,801,801,801,801,801,801,801,801,801,801,801,801,801,801,801,801,801,801,801,801,801,801,801,801,801,801,801,801,801,801,801,801,801,801,814,832,851,866,875,890,898,914,924,936,963,978,995,1009,1025,1037,1058,1071,1081],"ymouse":[525,525,525,525,525,525,525,525,525,525,525,525,525,525,525,525,525,525,525,525,525,525,525,525,525,525,525,525,525,525,525,525,525,525,525,525,525,525,525,525,525,525,525,525,526,519,507,492,477,465,431,410,376,353,330,283,257,228,202,175,154,122,105,94],"timestamp_mouse":[18,37,58,76,96,118,138,156,178,197,216,236,256,276,297,317,337,357,376,396,416,438,457,477,498,517,536,558,577,596,617,636,658,677,697,718,736,756,777,797,816,837,858,876,896,917,936,958,976,997,1017,1037,1057,1078,1097,1117,1136,1157,1177,1197,1216,1237,1256,1276],"xSR":741.5,"ySR":469.95,"xT1":424.9,"yT1":0,"xT2":1058.1,"yT2":0,"toosoon":0,"cond_shown":"randomdotsizeEA","ratio_trial":250,"smaller_num":"2","larger_num":"8","correct_side":2,"subjID":"mariagaravito5","gender":"1","age":"9","school":"4"},{"start_time":1552328904800,"click_time":1552328906072,"finger_time":1552328905732,"fix_duration":1067.3721040993826,"trial":40,"RT":932,"MT":340,"sideResp":1,"stimulus":"img/500/randomdotsizeEA/L/7_Ratio_500_L_10_R_5.png","xmouse":[795,794,794,794,794,794,794,794,794,794,794,794,793,792,792,792,792,792,792,792,792,792,792,792,792,792,792,792,792,792,792,792,792,792,792,792,792,792,791,791,790,788,782,775,763,755,739,731,724,718,713,701,694,687,679,671,645,624,604,588,573,542,528,512],"ymouse":[523,522,522,522,522,522,522,522,522,522,522,522,522,521,521,521,521,521,521,521,521,521,521,521,521,521,521,521,521,521,521,521,521,521,521,521,521,521,520,520,520,518,511,500,487,480,460,447,429,407,380,323,299,277,250,229,181,156,131,113,97,76,67,57],"timestamp_mouse":[20,38,52,72,92,113,132,152,171,192,211,233,252,272,292,311,331,352,371,393,413,432,452,472,492,513,533,552,572,592,611,633,653,672,691,712,732,751,772,791,813,831,851,872,891,912,932,952,971,992,1012,1032,1051,1072,1092,1111,1132,1152,1171,1192,1211,1231,1252,1272],"xSR":741.5,"ySR":469.95,"xT1":424.9,"yT1":0,"xT2":1058.1,"yT2":0,"toosoon":0,"cond_shown":"randomdotsizeEA","ratio_trial":500,"smaller_num":"5","larger_num":"10","correct_side":1,"subjID":"mariagaravito5","gender":"1","age":"9","school":"4"},{"start_time":1552328907925,"click_time":1552328909031,"finger_time":1552328908631,"fix_duration":871.00118998396,"trial":41,"RT":706,"MT":400,"sideResp":1,"stimulus":"img/250/equaldotsize/L/5_Ratio_250_L_24_R_6.png","xmouse":[769,770,770,770,770,770,770,770,770,770,770,770,770,770,770,770,770,772,776,778,782,782,783,783,783,783,783,783,783,783,783,783,783,783,780,756,723,714,694,688,681,678,672,664,652,625,607,591,571,562,547,542,534,529,522,518],"ymouse":[519,519,519,519,519,519,519,519,519,519,519,519,519,519,519,519,519,518,517,516,515,515,515,515,515,515,515,515,515,515,515,515,515,515,494,441,372,349,305,287,260,250,237,224,209,182,171,159,145,140,128,124,117,111,104,98],"timestamp_mouse":[15,34,47,66,88,107,128,148,168,187,207,228,248,268,287,307,327,346,367,387,407,426,446,467,488,508,527,548,566,586,608,628,646,666,687,706,726,748,768,787,807,826,846,866,886,906,927,947,967,987,1006,1027,1047,1066,1087,1106],"xSR":741.5,"ySR":469.95,"xT1":424.9,"yT1":0,"xT2":1058.1,"yT2":0,"toosoon":0,"cond_shown":"equaldotsize","ratio_trial":250,"smaller_num":"6","larger_num":"24","correct_side":1,"subjID":"mariagaravito5","gender":"1","age":"9","school":"4"},{"start_time":1552328911500,"click_time":1552328912551,"finger_time":1552328912113,"fix_duration":767.6615651410432,"trial":42,"RT":613,"MT":438,"sideResp":2,"stimulus":"img/500/equaldotsize/R/12_Ratio_500_L_1_R_2.png","xmouse":[762,762,762,762,762,762,762,762,762,762,762,762,762,762,762,762,762,762,762,762,762,762,762,762,762,762,762,763,773,809,866,925,1004,1019,1025,1029,1044,1054,1058,1060,1062,1066,1070,1074,1078,1080,1081,1081,1081,1082,1084,1086,1088],"ymouse":[513,513,513,513,513,513,513,513,513,513,513,513,513,513,513,513,513,513,513,513,513,513,513,513,513,513,513,514,514,498,475,449,406,392,382,366,329,307,296,290,286,270,257,244,229,215,188,168,152,138,127,116,90],"timestamp_mouse":[13,31,52,71,91,111,131,153,172,192,211,232,252,273,292,312,332,352,372,393,413,431,452,471,492,512,531,552,571,592,613,632,651,671,691,712,732,752,772,791,812,832,851,871,892,912,933,951,972,991,1011,1032,1051],"xSR":741.5,"ySR":469.95,"xT1":424.9,"yT1":0,"xT2":1058.1,"yT2":0,"toosoon":0,"cond_shown":"equaldotsize","ratio_trial":500,"smaller_num":"1","larger_num":"2","correct_side":2,"subjID":"mariagaravito5","gender":"1","age":"9","school":"4"},{"start_time":1552328914873,"click_time":1552328916452,"finger_time":1552328916213,"fix_duration":1460.77214478418,"trial":43,"RT":1340,"MT":239,"sideResp":2,"stimulus":"img/900/randomdotsizeEA/L/4_Ratio_900_L_20_R_18.png","xmouse":[772,772,772,772,772,772,772,772,772,772,772,772,772,772,772,772,772,772,772,772,772,772,772,772,772,772,772,772,772,772,772,772,772,772,772,772,772,772,772,772,772,772,772,772,772,772,772,772,772,772,772,772,772,772,772,772,772,772,772,772,772,772,773,789,809,826,846,857,876,887,897,908,921,967,1003,1042,1093,1114,1139],"ymouse":[521,521,521,521,521,521,521,521,521,521,521,521,521,521,521,521,521,521,521,521,521,521,521,521,521,521,521,521,521,521,521,521,521,521,521,521,521,521,521,521,521,521,521,521,521,521,521,521,521,521,521,521,521,521,521,521,521,521,521,521,521,521,521,513,500,483,455,439,403,390,377,362,343,286,243,197,139,113,68],"timestamp_mouse":[19,38,59,80,100,119,139,160,180,198,219,240,258,279,299,318,339,360,380,398,419,440,459,479,500,519,538,559,578,600,619,638,658,678,699,720,739,760,779,798,819,840,859,879,899,920,940,958,979,1000,1020,1038,1059,1079,1098,1118,1138,1159,1180,1199,1218,1238,1259,1278,1298,1318,1340,1359,1378,1398,1419,1438,1459,1478,1499,1518,1538,1558,1579],"xSR":741.5,"ySR":469.95,"xT1":424.9,"yT1":0,"xT2":1058.1,"yT2":0,"toosoon":0,"cond_shown":"randomdotsizeEA","ratio_trial":900,"smaller_num":"18","larger_num":"20","correct_side":1,"subjID":"mariagaravito5","gender":"1","age":"9","school":"4"},{"start_time":1552328917604,"click_time":1552328918632,"finger_time":1552328918292,"fix_duration":250,"trial":44,"RT":688,"MT":340,"sideResp":1,"stimulus":"img/250/equaldotsize/L/14_Ratio_250_L_12_R_3.png","xmouse":[771,773,775,776,776,776,776,776,776,776,776,776,776,776,776,776,776,776,776,776,776,776,776,775,771,767,765,761,760,758,756,755,749,746,739,734,724,706,654,634,620,607,571,546,525,502,487,465,459,450,446,444],"ymouse":[566,548,539,525,525,525,525,525,525,525,525,525,525,525,525,525,525,525,525,524,524,524,524,523,522,521,520,519,519,518,518,518,515,514,510,508,504,496,473,463,453,439,375,333,289,245,216,168,147,117,103,91],"timestamp_mouse":[13,28,47,67,87,109,129,148,168,189,209,227,247,268,287,309,328,348,368,387,409,429,448,467,487,507,528,548,568,589,607,627,648,667,688,708,729,748,768,787,807,827,848,868,889,908,927,948,968,988,1008,1028],"xSR":741.5,"ySR":469.95,"xT1":424.9,"yT1":0,"xT2":1058.1,"yT2":0,"toosoon":0,"cond_shown":"equaldotsize","ratio_trial":250,"smaller_num":"3","larger_num":"12","correct_side":1,"subjID":"mariagaravito5","gender":"1","age":"9","school":"4"},{"start_time":1552328920412,"click_time":1552328922032,"finger_time":1552328921372,"fix_duration":779.1599752260613,"trial":45,"RT":960,"MT":660,"sideResp":2,"stimulus":"img/750/equaldotsize/R/11_Ratio_750_L_12_R_16.png","xmouse":[787,787,787,787,787,787,787,787,787,787,787,787,787,787,787,787,787,787,787,787,787,787,787,787,787,787,787,787,787,787,787,787,787,787,787,787,787,787,787,787,787,787,787,787,787,787,787,809,837,858,873,883,919,947,974,1004,1033,1033,1033,1033,1033,1033,1033,1033,1033,1033,1033,1033,1033,1033,1033,1033,1033,1033,1033,1033,1033,1033,1033,1033,1087],"ymouse":[544,544,544,544,544,544,544,544,544,544,544,544,544,544,544,544,544,544,544,544,544,544,544,544,544,544,544,544,544,544,544,544,544,544,544,544,544,544,544,544,544,544,544,544,544,544,544,451,387,347,318,294,212,159,112,59,8,8,8,8,8,8,8,8,8,8,8,8,8,8,8,8,8,8,8,8,8,8,8,8,3],"timestamp_mouse":[20,39,60,80,99,120,139,160,181,199,221,240,260,279,299,320,340,359,380,400,419,439,461,481,500,520,540,561,581,600,619,640,661,680,699,720,740,759,781,799,819,841,861,880,900,919,939,960,980,999,1020,1040,1059,1079,1100,1119,1140,1160,1179,1200,1219,1241,1259,1280,1300,1320,1341,1361,1379,1399,1419,1440,1460,1479,1500,1520,1541,1560,1580,1600,1620],"xSR":741.5,"ySR":469.95,"xT1":424.9,"yT1":0,"xT2":1058.1,"yT2":0,"toosoon":0,"cond_shown":"equaldotsize","ratio_trial":750,"smaller_num":"12","larger_num":"16","correct_side":2,"subjID":"mariagaravito5","gender":"1","age":"9","school":"4"},{"start_time":1552328924260,"click_time":1552328925412,"finger_time":1552328924773,"fix_duration":1086.3306195640898,"trial":46,"RT":513,"MT":639,"sideResp":1,"stimulus":"img/900/equaldotsize/L/10_Ratio_900_L_20_R_18.png","xmouse":[806,806,806,806,806,806,806,806,806,806,806,806,806,806,806,806,806,806,806,806,806,806,806,812,829,846,851,853,853,853,853,853,853,847,836,813,799,783,768,757,731,718,700,683,653,611,596,583,573,563,544,531,528,526,525,525,525,524],"ymouse":[512,512,512,512,512,512,512,512,512,512,512,512,512,512,512,512,512,512,512,512,512,512,512,511,500,488,483,478,477,477,477,477,476,460,445,412,393,373,357,342,306,289,266,243,203,153,136,121,110,101,83,67,65,60,60,60,60,59],"timestamp_mouse":[13,38,53,72,92,112,132,152,172,192,212,233,252,271,292,311,332,351,371,393,412,431,453,472,492,513,531,552,573,591,611,632,651,673,692,711,731,752,772,792,811,833,851,871,891,911,931,952,972,992,1012,1031,1051,1071,1091,1111,1131,1152],"xSR":741.5,"ySR":469.95,"xT1":424.9,"yT1":0,"xT2":1058.1,"yT2":0,"toosoon":0,"cond_shown":"equaldotsize","ratio_trial":900,"smaller_num":"18","larger_num":"20","correct_side":1,"subjID":"mariagaravito5","gender":"1","age":"9","school":"4"},{"start_time":1552328928867,"click_time":1552328930491,"finger_time":1552328929672,"fix_duration":895.4858268889152,"trial":47,"RT":805,"MT":819,"sideResp":2,"stimulus":"img/250/randomdotsizeEA/R/9_Ratio_250_L_3_R_12.png","xmouse":[782,782,782,782,782,782,782,782,782,782,782,782,782,782,782,781,781,781,781,781,781,781,781,781,781,781,781,781,781,781,781,781,780,777,776,771,766,761,755,748,735,726,717,707,695,681,664,658,656,655,655,657,662,665,667,671,672,672,673,674,677,700,733,758,785,809,838,850,859,873,942,971,1000,1019,1033,1043,1046,1049,1052,1059,1075,1084],"ymouse":[528,528,528,528,528,528,528,528,528,528,528,528,528,528,528,527,527,527,527,527,527,527,527,527,527,527,527,527,527,527,527,526,526,524,524,522,519,517,512,507,487,476,465,451,432,410,373,360,353,351,350,348,346,345,343,342,341,341,341,341,341,341,341,341,341,341,335,330,323,310,253,229,206,189,174,158,152,144,140,133,111,97],"timestamp_mouse":[12,32,45,64,85,106,125,144,166,185,204,226,244,264,285,305,326,344,366,385,404,424,444,465,484,504,524,546,564,584,606,625,646,665,684,705,724,744,765,785,805,824,844,865,885,905,924,945,964,985,1004,1025,1045,1064,1084,1106,1125,1145,1164,1184,1204,1224,1245,1264,1284,1304,1325,1344,1364,1384,1406,1424,1445,1465,1484,1505,1524,1545,1565,1585,1606,1624],"xSR":741.5,"ySR":469.95,"xT1":424.9,"yT1":0,"xT2":1058.1,"yT2":0,"toosoon":0,"cond_shown":"randomdotsizeEA","ratio_trial":250,"smaller_num":"3","larger_num":"12","correct_side":2,"subjID":"mariagaravito5","gender":"1","age":"9","school":"4"},{"start_time":1552328934052,"click_time":1552328935252,"finger_time":1552328935051,"fix_duration":1177.3008766128862,"trial":48,"RT":999,"MT":201,"sideResp":1,"stimulus":"img/750/equaldotsize/L/8_Ratio_750_L_4_R_3.png","xmouse":[779,779,779,779,779,779,779,779,779,779,779,779,779,779,779,779,779,779,779,779,779,779,779,779,779,779,779,779,779,779,779,779,779,779,779,779,779,779,779,779,779,779,779,779,779,779,779,779,775,759,728,694,619,589,562,548,533,511,495,469,452],"ymouse":[533,533,533,533,533,533,533,533,533,533,533,533,533,533,533,533,533,533,533,533,533,533,533,533,533,533,533,533,533,533,533,533,533,533,533,533,533,533,533,533,533,533,533,533,533,533,533,531,530,494,446,399,306,271,239,219,199,162,141,106,83],"timestamp_mouse":[10,21,40,60,79,99,120,140,159,179,201,219,240,259,281,300,319,340,360,380,401,419,439,459,481,501,520,539,561,581,599,620,641,661,679,700,720,739,761,781,801,819,840,859,880,901,920,939,961,979,999,1019,1039,1059,1081,1100,1120,1140,1159,1179,1200],"xSR":741.5,"ySR":469.95,"xT1":424.9,"yT1":0,"xT2":1058.1,"yT2":0,"toosoon":0,"cond_shown":"equaldotsize","ratio_trial":750,"smaller_num":"3","larger_num":"4","correct_side":1,"subjID":"mariagaravito5","gender":"1","age":"9","school":"4"},{"start_time":1552328936543,"click_time":1552328938293,"finger_time":1552328937931,"fix_duration":250,"trial":49,"RT":1388,"MT":362,"sideResp":1,"stimulus":"img/250/equaldotanddens/L/5_Ratio_250_L_24_R_6.png","xmouse":[771,771,771,771,771,771,771,771,771,771,771,771,771,771,771,771,771,771,771,771,771,771,771,771,771,771,771,771,771,771,771,771,771,771,771,771,771,771,771,771,771,771,771,771,771,771,771,771,771,771,771,771,771,771,771,771,771,771,771,771,771,771,771,771,771,771,770,769,752,721,683,641,605,564,554,543,535,520,515,513,511,511,510,509,508,506,503,484],"ymouse":[501,501,501,501,501,501,501,501,501,501,501,501,501,501,501,501,501,501,502,502,502,502,502,502,502,502,502,502,502,502,502,502,502,502,502,502,502,502,502,502,502,502,502,502,502,502,502,502,502,502,502,502,502,502,502,502,502,502,502,502,502,502,502,502,502,503,503,503,487,445,395,347,306,255,239,222,210,183,173,165,160,156,149,147,142,136,124,85],"timestamp_mouse":[19,29,49,70,89,109,128,150,168,189,209,229,248,270,290,310,329,348,368,388,409,429,448,468,490,510,529,549,570,590,608,629,649,670,690,709,729,749,770,790,810,828,848,869,888,910,930,949,968,989,1010,1029,1048,1069,1090,1109,1128,1149,1170,1189,1209,1228,1249,1270,1288,1309,1328,1349,1368,1388,1409,1429,1449,1469,1488,1510,1529,1550,1568,1589,1609,1628,1649,1669,1688,1708,1730,1749],"xSR":741.5,"ySR":469.95,"xT1":424.9,"yT1":0,"xT2":1058.1,"yT2":0,"toosoon":0,"cond_shown":"equaldotanddens","ratio_trial":250,"smaller_num":"6","larger_num":"24","correct_side":1,"subjID":"mariagaravito5","gender":"1","age":"9","school":"4"},{"start_time":1552328940391,"click_time":1552328941594,"finger_time":1552328941152,"fix_duration":1216.8202430662172,"trial":50,"RT":761,"MT":442,"sideResp":2,"stimulus":"img/900/equaldotsize/R/11_Ratio_900_L_18_R_20.png","xmouse":[776,776,776,776,776,777,777,777,777,777,777,777,777,777,777,776,776,776,776,776,776,776,776,776,775,775,773,773,773,773,773,773,773,773,773,772,782,790,797,801,803,805,806,810,813,818,837,852,865,879,900,930,950,968,982,995,1010,1017,1025,1041,1059],"ymouse":[520,520,520,520,520,520,520,520,520,520,520,520,520,519,519,519,519,519,519,519,519,519,519,519,519,519,518,518,518,518,518,518,518,518,518,515,488,474,459,451,448,440,435,428,419,409,376,356,337,317,289,242,216,194,174,159,137,125,110,79,43],"timestamp_mouse":[9,20,42,60,80,100,121,141,162,182,201,221,242,261,280,300,321,341,362,381,401,422,442,461,481,501,521,541,560,580,601,620,642,661,681,700,720,741,761,781,801,820,841,861,881,902,921,940,961,982,1001,1021,1040,1061,1081,1100,1121,1141,1161,1181,1202],"xSR":741.5,"ySR":469.95,"xT1":424.9,"yT1":0,"xT2":1058.1,"yT2":0,"toosoon":0,"cond_shown":"equaldotsize","ratio_trial":900,"smaller_num":"18","larger_num":"20","correct_side":2,"subjID":"mariagaravito5","gender":"1","age":"9","school":"4"},{"start_time":1552328943121,"click_time":1552328944172,"finger_time":1552328943751,"fix_duration":607.5809004271098,"trial":51,"RT":630,"MT":421,"sideResp":2,"stimulus":"img/250/equaldotsize/R/6_Ratio_250_L_6_R_24.png","xmouse":[806,806,806,806,806,806,806,806,806,806,806,806,806,806,806,806,806,806,806,806,806,806,806,806,806,806,806,806,806,806,806,820,871,912,975,991,1008,1022,1050,1050,1050,1050,1050,1050,1050,1050,1050,1050,1050,1050,1050,1050,1094],"ymouse":[503,503,503,503,503,503,503,503,503,503,503,503,503,503,503,503,503,503,503,503,503,503,503,503,503,503,503,503,503,503,503,453,350,283,190,155,117,80,14,14,14,14,14,14,14,14,14,14,14,14,14,14,14],"timestamp_mouse":[12,33,51,70,92,112,130,150,172,190,212,231,250,272,290,311,331,351,371,392,411,431,450,471,491,511,531,550,571,590,612,630,651,671,691,710,730,751,772,791,812,832,851,871,892,911,931,950,970,990,1011,1030,1051],"xSR":741.5,"ySR":469.95,"xT1":424.9,"yT1":0,"xT2":1058.1,"yT2":0,"toosoon":0,"cond_shown":"equaldotsize","ratio_trial":250,"smaller_num":"6","larger_num":"24","correct_side":2,"subjID":"mariagaravito5","gender":"1","age":"9","school":"4"},{"start_time":1552328945702,"click_time":1552328947112,"finger_time":1552328946412,"fix_duration":408.77811833076436,"trial":52,"RT":710,"MT":700,"sideResp":2,"stimulus":"img/250/equaldotanddens/R/4_Ratio_250_L_3_R_12.png","xmouse":[789,789,789,789,789,789,789,789,789,789,789,789,789,789,789,789,789,789,789,789,789,789,789,789,789,789,789,789,789,789,789,790,802,816,831,854,863,869,876,883,891,906,915,925,940,965,979,989,1001,1010,1025,1030,1034,1036,1038,1040,1041,1042,1044,1046,1048,1055,1056,1059,1060,1063,1065,1067,1068,1070,1074],"ymouse":[520,520,520,520,520,520,520,520,520,520,520,520,520,520,520,520,520,520,520,520,520,520,520,520,520,520,520,520,520,520,520,520,512,495,477,439,421,407,398,389,380,358,346,332,314,278,261,246,231,218,194,183,175,168,162,157,155,152,150,146,141,125,121,117,115,113,112,108,106,101,94],"timestamp_mouse":[10,36,51,69,90,111,129,150,171,190,209,231,251,269,290,309,331,349,370,389,410,429,450,470,491,511,531,549,571,589,610,630,649,670,689,710,729,750,769,789,809,830,850,870,890,910,929,949,969,990,1011,1029,1050,1069,1090,1110,1129,1150,1169,1190,1210,1231,1250,1271,1290,1310,1329,1349,1369,1389,1409],"xSR":741.5,"ySR":469.95,"xT1":424.9,"yT1":0,"xT2":1058.1,"yT2":0,"toosoon":0,"cond_shown":"equaldotanddens","ratio_trial":250,"smaller_num":"3","larger_num":"12","correct_side":2,"subjID":"mariagaravito5","gender":"1","age":"9","school":"4"},{"start_time":1552328948747,"click_time":1552328949972,"finger_time":1552328949532,"fix_duration":254.62747250626117,"trial":53,"RT":785,"MT":440,"sideResp":1,"stimulus":"img/900/equaldotanddens/R/11_Ratio_900_L_18_R_20.png","xmouse":[804,804,804,804,804,804,804,804,804,804,804,804,804,804,804,804,804,804,804,804,804,804,804,804,804,804,804,804,804,804,804,804,804,804,804,804,804,801,775,704,670,639,619,590,577,558,539,522,505,495,494,494,496,499,500,500,500,500,500,500,500,499],"ymouse":[544,544,544,544,544,544,544,544,544,544,544,544,544,544,544,544,544,544,544,544,544,544,544,544,544,544,544,544,544,544,544,544,544,544,544,544,544,541,503,435,399,367,346,303,287,267,251,236,220,200,190,183,175,166,157,152,150,142,136,120,106,84],"timestamp_mouse":[9,35,45,66,84,104,124,145,165,185,205,225,246,264,285,304,325,345,366,384,404,425,445,464,484,505,526,544,565,586,605,624,644,665,685,705,724,746,765,785,804,826,845,866,884,905,924,945,965,985,1004,1024,1045,1064,1084,1106,1125,1146,1165,1185,1204,1225],"xSR":741.5,"ySR":469.95,"xT1":424.9,"yT1":0,"xT2":1058.1,"yT2":0,"toosoon":0,"cond_shown":"equaldotanddens","ratio_trial":900,"smaller_num":"18","larger_num":"20","correct_side":2,"subjID":"mariagaravito5","gender":"1","age":"9","school":"4"},{"start_time":1552328954046,"click_time":1552328954932,"finger_time":1552328954652,"fix_duration":1492.8232994351197,"trial":54,"RT":606,"MT":280,"sideResp":1,"stimulus":"img/900/equaldotanddens/L/2_Ratio_900_L_20_R_18.png","xmouse":[784,784,784,784,784,784,784,784,784,784,784,784,784,784,784,784,784,784,784,784,784,784,784,784,784,784,784,784,781,770,727,703,683,663,638,628,619,608,596,581,558,546,532,516,498],"ymouse":[533,533,533,533,533,533,533,533,533,533,533,533,533,533,533,533,533,533,533,533,533,533,533,533,533,533,533,531,522,500,438,405,372,340,294,272,251,229,208,183,151,137,120,106,92],"timestamp_mouse":[12,32,46,65,85,106,127,146,165,187,206,225,246,265,286,305,327,346,367,387,406,425,447,465,486,507,525,545,567,585,606,625,646,666,686,705,725,746,767,786,807,825,845,866,886],"xSR":741.5,"ySR":469.95,"xT1":424.9,"yT1":0,"xT2":1058.1,"yT2":0,"toosoon":0,"cond_shown":"equaldotanddens","ratio_trial":900,"smaller_num":"18","larger_num":"20","correct_side":1,"subjID":"mariagaravito5","gender":"1","age":"9","school":"4"},{"start_time":1552328957940,"click_time":1552328959391,"finger_time":1552328958551,"fix_duration":1367.8944510814026,"trial":55,"RT":611,"MT":840,"sideResp":2,"stimulus":"img/900/equaldotanddens/R/3_Ratio_900_L_9_R_10.png","xmouse":[762,762,762,762,762,762,762,762,762,762,762,762,762,762,762,762,762,762,762,762,762,762,762,762,762,762,762,762,763,762,744,732,719,700,686,658,647,637,631,625,620,620,620,620,623,682,758,850,931,1038,1074,1082,1096,1111,1126,1177,1215,1242,1256,1258,1252,1239,1227,1218,1216,1210,1208,1208,1208,1208,1191,1163,1098],"ymouse":[518,518,518,518,518,518,518,518,518,518,518,518,518,518,518,518,518,518,518,518,518,518,518,518,518,518,518,518,508,491,456,437,421,399,382,344,323,306,290,280,271,271,271,271,267,255,255,255,255,254,245,242,233,214,198,158,131,112,100,86,75,60,48,41,39,37,36,36,36,36,38,43,53],"timestamp_mouse":[11,36,51,71,93,112,132,153,171,191,212,233,251,271,292,311,333,353,371,392,413,433,452,472,491,512,533,552,571,593,611,632,652,672,691,711,732,752,772,794,812,832,853,873,892,912,931,952,972,993,1019,1032,1052,1073,1092,1112,1131,1152,1172,1193,1211,1232,1253,1271,1291,1312,1332,1352,1373,1392,1411,1431,1451],"xSR":741.5,"ySR":469.95,"xT1":424.9,"yT1":0,"xT2":1058.1,"yT2":0,"toosoon":0,"cond_shown":"equaldotanddens","ratio_trial":900,"smaller_num":"9","larger_num":"10","correct_side":2,"subjID":"mariagaravito5","gender":"1","age":"9","school":"4"},{"start_time":1552328960885,"click_time":1552328961711,"finger_time":1552328961552,"fix_duration":250,"trial":56,"RT":667,"MT":159,"sideResp":1,"stimulus":"img/750/equaldotanddens/L/13_Ratio_750_L_8_R_6.png","xmouse":[794,794,794,794,794,794,794,794,794,794,794,794,794,794,794,794,794,794,794,794,794,794,794,794,794,794,794,794,794,794,794,794,788,701,646,588,546,519,501,497,494,494],"ymouse":[513,513,513,513,513,513,513,513,513,513,513,513,513,513,513,513,513,513,513,513,513,513,513,513,513,513,513,513,513,513,513,513,508,382,315,250,199,161,124,115,106,98],"timestamp_mouse":[11,30,47,67,88,106,127,147,168,187,207,228,248,266,287,306,328,346,366,387,406,428,448,467,487,508,528,546,567,586,608,628,647,667,686,706,727,746,766,788,808,826],"xSR":741.5,"ySR":469.95,"xT1":424.9,"yT1":0,"xT2":1058.1,"yT2":0,"toosoon":0,"cond_shown":"equaldotanddens","ratio_trial":750,"smaller_num":"6","larger_num":"8","correct_side":1,"subjID":"mariagaravito5","gender":"1","age":"9","school":"4"},{"start_time":1552328964065,"click_time":1552328965071,"finger_time":1552328964573,"fix_duration":1291.8559756289876,"trial":57,"RT":508,"MT":498,"sideResp":2,"stimulus":"img/750/randomdotsizeEA/L/6_Ratio_750_L_24_R_18.png","xmouse":[803,803,803,803,803,803,803,803,803,803,803,803,803,803,803,803,803,803,803,803,803,803,803,803,803,817,829,842,847,854,856,859,867,877,911,930,948,965,979,997,1001,1009,1014,1020,1030,1031,1032,1036,1045,1065,1074],"ymouse":[491,491,491,491,491,491,491,491,491,491,491,491,491,491,491,491,491,491,491,491,491,491,491,491,491,468,457,443,435,425,422,417,405,390,343,313,284,254,229,190,177,162,149,139,125,125,124,121,119,105,95],"timestamp_mouse":[12,31,47,66,87,107,127,147,166,186,208,227,247,266,288,307,326,346,366,386,408,426,446,468,486,508,526,546,566,587,606,627,647,667,688,706,728,747,766,788,806,826,846,866,888,906,927,947,966,987,1006],"xSR":741.5,"ySR":469.95,"xT1":424.9,"yT1":0,"xT2":1058.1,"yT2":0,"toosoon":0,"cond_shown":"randomdotsizeEA","ratio_trial":750,"smaller_num":"18","larger_num":"24","correct_side":1,"subjID":"mariagaravito5","gender":"1","age":"9","school":"4"},{"start_time":1552328966968,"click_time":1552328967892,"finger_time":1552328967391,"fix_duration":775.4383066442878,"trial":58,"RT":423,"MT":501,"sideResp":1,"stimulus":"img/250/randomdotsizeEA/L/14_Ratio_250_L_12_R_3.png","xmouse":[758,758,758,758,758,758,758,758,758,758,758,758,758,758,758,758,758,757,755,753,747,745,741,738,734,721,713,702,686,666,650,629,606,589,576,558,552,543,527,517,505,504,504,504,504,504,503],"ymouse":[505,505,505,505,505,505,505,505,505,505,505,505,505,505,505,505,503,499,492,486,472,466,459,450,441,413,397,381,358,324,303,273,244,224,209,185,176,165,146,135,120,114,110,108,108,103,99],"timestamp_mouse":[14,30,43,63,83,105,124,144,164,184,205,224,243,264,284,303,323,343,364,384,403,423,444,464,484,503,523,545,565,586,603,623,644,664,683,704,724,744,765,783,804,823,844,865,883,904,924],"xSR":741.5,"ySR":469.95,"xT1":424.9,"yT1":0,"xT2":1058.1,"yT2":0,"toosoon":0,"cond_shown":"randomdotsizeEA","ratio_trial":250,"smaller_num":"3","larger_num":"12","correct_side":1,"subjID":"mariagaravito5","gender":"1","age":"9","school":"4"},{"start_time":1552328969504,"click_time":1552328970552,"finger_time":1552328969991,"fix_duration":250,"trial":59,"RT":487,"MT":561,"sideResp":2,"stimulus":"img/750/equaldotanddens/L/10_Ratio_750_L_4_R_3.png","xmouse":[762,762,762,762,762,763,763,765,766,766,768,769,770,771,771,771,772,773,777,783,788,791,794,802,809,818,828,840,854,891,897,898,898,898,898,898,898,898,898,901,912,931,956,991,1001,1007,1012,1017,1029,1037,1046,1056,1063],"ymouse":[511,511,511,511,511,511,511,510,509,509,509,508,508,507,507,507,506,506,503,499,496,493,488,476,465,452,436,416,395,355,348,347,347,347,347,347,347,347,347,345,332,314,289,249,231,217,205,192,163,148,125,108,92],"timestamp_mouse":[12,27,48,69,87,109,127,149,167,187,207,228,249,268,287,308,327,347,367,388,407,428,447,468,487,508,527,548,568,589,607,628,648,667,687,708,727,748,768,789,807,828,848,868,887,907,927,947,967,987,1007,1027,1048],"xSR":741.5,"ySR":469.95,"xT1":424.9,"yT1":0,"xT2":1058.1,"yT2":0,"toosoon":0,"cond_shown":"equaldotanddens","ratio_trial":750,"smaller_num":"3","larger_num":"4","correct_side":1,"subjID":"mariagaravito5","gender":"1","age":"9","school":"4"},{"start_time":1552328972277,"click_time":1552328973373,"finger_time":1552328972971,"fix_duration":704.3014087781545,"trial":60,"RT":694,"MT":402,"sideResp":1,"stimulus":"img/250/equaldotsize/L/3_Ratio_250_L_8_R_2.png","xmouse":[769,769,769,769,769,769,769,769,769,769,769,769,769,769,769,769,769,771,773,779,790,792,793,793,793,793,793,793,793,793,793,792,783,773,760,733,722,712,697,690,661,650,642,633,616,603,589,576,564,548,534,528,524,521,518],"ymouse":[531,531,531,531,531,531,531,531,531,531,531,531,531,531,531,531,531,530,529,524,512,509,507,507,507,507,507,507,507,507,507,505,492,478,461,428,412,398,376,367,326,308,293,278,249,232,216,198,178,146,122,115,110,105,97],"timestamp_mouse":[15,39,55,74,95,116,134,155,175,196,216,236,255,275,296,315,334,354,375,395,415,434,455,475,496,516,534,554,576,595,614,634,655,674,694,714,735,755,776,794,814,834,854,875,896,914,934,954,976,994,1014,1035,1054,1074,1096],"xSR":741.5,"ySR":469.95,"xT1":424.9,"yT1":0,"xT2":1058.1,"yT2":0,"toosoon":0,"cond_shown":"equaldotsize","ratio_trial":250,"smaller_num":"2","larger_num":"8","correct_side":1,"subjID":"mariagaravito5","gender":"1","age":"9","school":"4"},{"start_time":1552328975009,"click_time":1552328975892,"finger_time":1552328975691,"fix_duration":576.4836201194336,"trial":61,"RT":682,"MT":201,"sideResp":2,"stimulus":"img/500/randomdotsizeEA/L/13_Ratio_500_L_12_R_6.png","xmouse":[803,803,803,803,803,803,803,803,803,803,803,803,803,803,803,803,803,803,803,803,803,803,803,803,803,803,803,803,803,803,803,803,805,810,850,887,924,951,987,1000,1016,1037,1057,1078,1091],"ymouse":[517,517,517,517,517,517,517,517,517,517,517,517,517,517,517,517,517,517,517,517,517,517,517,517,517,517,517,517,517,517,517,517,518,516,469,432,394,364,317,293,263,216,173,117,75],"timestamp_mouse":[11,30,43,63,82,102,123,142,162,184,204,222,244,262,282,302,323,343,362,384,404,423,443,463,482,504,524,543,563,582,603,623,643,663,682,702,722,743,764,783,803,823,843,863,883],"xSR":741.5,"ySR":469.95,"xT1":424.9,"yT1":0,"xT2":1058.1,"yT2":0,"toosoon":0,"cond_shown":"randomdotsizeEA","ratio_trial":500,"smaller_num":"6","larger_num":"12","correct_side":1,"subjID":"mariagaravito5","gender":"1","age":"9","school":"4"},{"start_time":1552328978437,"click_time":1552328979752,"finger_time":1552328979352,"fix_duration":1445.7176194494089,"trial":62,"RT":915,"MT":400,"sideResp":2,"stimulus":"img/250/randomdotsizeEA/R/4_Ratio_250_L_3_R_12.png","xmouse":[784,784,784,784,784,784,784,784,784,784,784,784,784,784,784,784,784,784,784,784,784,784,784,784,784,784,784,784,784,784,784,784,784,784,784,784,784,784,784,784,784,784,784,793,811,842,878,944,954,963,971,981,1010,1026,1038,1042,1045,1046,1046,1046,1047,1050,1056,1060,1065,1071],"ymouse":[512,512,512,512,512,512,512,512,512,512,512,512,512,512,512,512,512,512,512,512,512,512,512,512,512,512,512,512,512,512,512,512,512,512,512,512,512,512,512,512,512,512,512,507,494,471,440,363,346,329,313,294,253,230,213,201,194,184,174,167,156,143,122,113,104,95],"timestamp_mouse":[15,34,55,76,94,114,135,156,176,196,215,234,255,275,294,315,334,354,376,394,415,434,455,474,494,515,535,555,576,595,614,635,655,676,695,716,735,754,775,794,816,836,855,874,895,915,935,955,974,994,1016,1035,1055,1074,1095,1115,1134,1155,1175,1194,1215,1235,1254,1274,1295,1315],"xSR":741.5,"ySR":469.95,"xT1":424.9,"yT1":0,"xT2":1058.1,"yT2":0,"toosoon":0,"cond_shown":"randomdotsizeEA","ratio_trial":250,"smaller_num":"3","larger_num":"12","correct_side":2,"subjID":"mariagaravito5","gender":"1","age":"9","school":"4"},{"start_time":1552328982758,"click_time":1552328984011,"finger_time":1552328983552,"fix_duration":585.8017524115353,"trial":63,"RT":794,"MT":459,"sideResp":1,"stimulus":"img/500/equaldotanddens/L/8_Ratio_500_L_8_R_4.png","xmouse":[762,762,762,762,762,762,762,762,762,762,762,762,762,762,762,762,762,762,762,762,762,762,762,762,762,762,762,762,762,762,762,762,762,762,762,762,762,762,757,738,663,611,536,525,521,521,520,518,518,521,526,532,535,535,535,535,533,529,528,528,528,525,522],"ymouse":[511,511,511,511,511,511,511,511,511,511,511,511,511,511,511,511,511,511,511,511,511,511,511,511,511,511,511,511,511,511,511,511,511,511,511,511,511,511,491,459,355,286,178,153,140,131,125,119,115,108,102,92,84,80,78,75,71,66,65,65,65,63,63],"timestamp_mouse":[16,33,54,73,93,114,134,153,174,193,214,233,254,273,294,314,334,355,373,394,414,434,454,473,494,513,534,554,575,594,613,634,655,675,695,714,733,754,773,794,815,834,854,873,894,914,934,953,974,994,1014,1035,1055,1073,1094,1114,1134,1153,1173,1193,1214,1235,1253],"xSR":741.5,"ySR":469.95,"xT1":424.9,"yT1":0,"xT2":1058.1,"yT2":0,"toosoon":0,"cond_shown":"equaldotanddens","ratio_trial":500,"smaller_num":"4","larger_num":"8","correct_side":1,"subjID":"mariagaravito5","gender":"1","age":"9","school":"4"},{"start_time":1552328986479,"click_time":1552328988812,"finger_time":1552328988612,"fix_duration":1225.928127534125,"trial":64,"RT":2133,"MT":200,"sideResp":1,"stimulus":"img/900/equaldotsize/L/4_Ratio_900_L_20_R_18.png","xmouse":[795,795,795,795,795,795,795,795,795,795,795,795,795,795,795,795,795,795,795,795,795,795,795,795,795,795,795,795,795,795,795,795,795,795,795,795,795,795,795,795,795,795,795,795,795,795,795,795,795,795,795,795,795,795,795,795,795,795,795,795,795,795,795,795,795,795,795,795,795,795,795,795,795,795,795,795,795,795,795,795,795,795,795,795,795,795,795,795,795,795,795,795,795,795,795,795,795,795,795,795,794,789,786,782,775,762,726,703,673,649,626,594,580,572,562,543,518],"ymouse":[518,518,518,518,518,518,518,518,518,518,518,518,518,518,518,518,518,518,518,518,518,518,518,518,518,518,518,518,518,518,518,518,518,518,518,518,518,518,518,518,518,518,518,518,518,518,518,518,518,518,518,518,518,518,518,518,518,518,518,518,518,518,518,518,518,518,518,518,518,518,518,518,518,518,518,518,518,518,518,518,518,518,518,518,518,518,518,518,518,518,518,518,518,518,518,518,518,518,518,518,518,517,516,514,510,499,460,429,378,324,273,195,148,121,85,46,6],"timestamp_mouse":[14,32,52,72,94,114,133,153,173,193,214,232,252,272,293,312,333,353,373,394,412,432,453,473,494,513,534,553,574,592,612,633,654,672,693,713,734,752,773,793,814,833,854,873,892,912,932,952,973,993,1013,1032,1052,1074,1092,1113,1133,1152,1173,1194,1212,1233,1254,1272,1293,1312,1332,1353,1372,1392,1413,1434,1452,1473,1492,1513,1534,1553,1572,1593,1612,1632,1653,1672,1694,1713,1734,1753,1773,1793,1814,1832,1854,1873,1894,1913,1933,1952,1973,1993,2014,2033,2052,2072,2099,2113,2133,2152,2173,2192,2213,2232,2254,2273,2292,2312,2333],"xSR":741.5,"ySR":469.95,"xT1":424.9,"yT1":0,"xT2":1058.1,"yT2":0,"toosoon":0,"cond_shown":"equaldotsize","ratio_trial":900,"smaller_num":"18","larger_num":"20","correct_side":1,"subjID":"mariagaravito5","gender":"1","age":"9","school":"4"},{"start_time":1552328991615,"click_time":1552328992572,"finger_time":1552328992431,"fix_duration":1421.1654516052433,"trial":65,"RT":816,"MT":141,"sideResp":1,"stimulus":"img/500/equaldotanddens/L/13_Ratio_500_L_12_R_6.png","xmouse":[782,782,782,782,782,782,782,782,782,782,782,782,782,782,782,782,782,782,782,782,782,782,782,782,782,782,782,782,782,782,782,782,782,782,782,782,782,780,778,770,729,691,657,600,561,511,499,491],"ymouse":[495,495,495,495,495,495,495,495,495,495,495,495,495,495,495,495,495,495,495,495,495,495,495,495,495,495,495,495,495,495,495,495,495,495,495,495,495,495,494,491,450,402,353,266,216,138,110,90],"timestamp_mouse":[17,36,57,78,97,116,138,158,177,197,217,237,256,278,296,317,337,357,377,396,418,438,456,476,496,518,536,556,577,597,618,638,658,677,696,717,736,757,777,797,816,836,857,877,898,916,936,957],"xSR":741.5,"ySR":469.95,"xT1":424.9,"yT1":0,"xT2":1058.1,"yT2":0,"toosoon":0,"cond_shown":"equaldotanddens","ratio_trial":500,"smaller_num":"6","larger_num":"12","correct_side":1,"subjID":"mariagaravito5","gender":"1","age":"9","school":"4"},{"start_time":1552328994005,"click_time":1552328995231,"finger_time":1552328994892,"fix_duration":250,"trial":66,"RT":887,"MT":339,"sideResp":1,"stimulus":"img/900/randomdotsizeEA/L/10_Ratio_900_L_20_R_18.png","xmouse":[782,782,782,782,782,782,782,782,782,782,782,782,782,782,782,782,782,782,782,782,782,782,782,782,782,782,782,782,782,782,782,782,782,782,782,782,782,782,782,782,782,782,782,766,741,712,650,631,619,607,600,584,576,569,566,562,551,541,525,505,480,435],"ymouse":[526,526,526,526,526,526,526,526,526,526,526,526,526,526,526,526,526,526,526,526,526,526,526,526,526,526,526,526,526,526,526,526,526,526,526,526,526,526,526,526,526,526,528,497,465,431,358,324,294,268,242,198,186,181,178,175,168,161,149,130,105,51],"timestamp_mouse":[13,37,46,66,86,107,127,148,166,18