[{"start_time":1552312899396,"click_time":1552312901838,"finger_time":1552312900577,"fix_duration":1495.797313324088,"trial":0,"RT":1181,"MT":1261,"sideResp":2,"stimulus":[],"xmouse":[768,768,768,768,768,768,768,768,768,768,768,768,768,768,768,768,768,768,768,768,768,768,768,768,768,768,768,768,768,768,768,768,768,768,768,768,768,768,768,768,768,768,768,768,768,768,768,768,768,768,768,768,768,768,768,768,796,836,845,845,845,845,845,845,845,845,845,845,845,845,845,845,845,850,861,865,866,866,866,866,866,866,866,866,866,867,901,976,1051,1198,1264,1309,1329,1335,1360,1364,1372,1374,1375,1374,1371,1363,1347,1324,1287,1267,1256,1249,1246,1244,1241,1240,1238,1236,1233,1229,1225,1220,1211,1197,1171,1157],"ymouse":[541,541,541,541,541,541,541,541,541,541,541,541,541,541,541,541,541,541,541,541,541,541,541,541,541,541,541,541,541,541,541,541,541,541,541,541,541,541,541,541,541,541,541,541,541,541,541,541,541,541,541,541,541,541,541,541,526,501,495,495,495,495,495,495,495,495,495,495,495,495,495,495,495,493,491,491,491,491,491,491,491,491,491,491,491,491,471,443,410,342,305,272,250,236,200,194,178,167,152,129,122,111,100,91,80,76,75,74,74,72,71,70,70,69,69,69,69,68,67,65,58,54],"timestamp_mouse":[11,48,62,82,102,121,141,163,181,202,222,242,262,281,302,321,342,363,382,402,423,442,463,483,501,521,542,563,582,602,622,642,661,682,702,721,742,763,782,802,821,843,863,882,902,922,943,962,982,1001,1023,1041,1063,1083,1103,1122,1143,1161,1181,1202,1222,1243,1263,1281,1301,1322,1341,1361,1383,1403,1422,1442,1461,1482,1502,1521,1541,1561,1583,1602,1622,1641,1661,1683,1701,1721,1742,1761,1782,1801,1822,1842,1862,1882,1902,1921,1941,1962,1981,2002,2022,2041,2062,2081,2102,2121,2141,2161,2181,2202,2222,2241,2262,2282,2302,2321,2341,2362,2381,2402,2421,2442],"xSR":741.5,"ySR":500.5,"xT1":424.9,"yT1":0,"xT2":1058.1,"yT2":0,"toosoon":0,"cond_shown":"Congruent","ratio_trial":100,"L_num":11,"L_den":22,"R_num":6,"R_den":15,"correct_side":1,"subjID":"MARIAJOSECAMBEROS29","gender":"1","age":"9","school":"4","test":{"fix_dur":[250,1500],"timestim":1000,"targets_dim":[100,100],"targets_relative_coord":[0.3,0.7],"size_stim":[880,420],"start_dim":[100,100],"size_start":[300,300],"size_fix":60,"samplingrate":20,"img_types":["Congruent","Incongruent"],"ratios":[100,200,300],"rep_conds":19,"nTrials":120,"trials_to_rest":500,"Trials_order":[60,62,37,35,57,27,23,42,71,83,9,6,101,98,54,109,70,15,34,40,118,84,104,47,111,96,13,103,95,86,20,56,29,19,100,65,76,73,25,67,58,107,91,78,30,26,55,43,45,38,31,68,108,97,81,12,110,41,32,72,82,33,80,48,1,63,116,112,94,87,74,75,64,88,21,11,119,18,106,114,17,51,105,7,85,93,2,66,10,39,8,5,92,117,53,3,49,16,99,90,102,28,36,113,52,44,69,46,59,0,89,50,4,61,77,14,115,79,24,22],"cond_shown":["Congruent","Congruent","Incongruent","Incongruent","Incongruent","Incongruent","Incongruent","Congruent","Incongruent","Incongruent","Incongruent","Congruent","Incongruent","Congruent","Congruent","Incongruent","Congruent","Incongruent","Congruent","Congruent","Congruent","Congruent","Congruent","Incongruent","Incongruent","Congruent","Incongruent","Incongruent","Incongruent","Congruent","Congruent","Congruent","Incongruent","Incongruent","Congruent","Incongruent","Congruent","Incongruent","Incongruent","Incongruent","Congruent","Incongruent","Incongruent","Congruent","Congruent","Congruent","Incongruent","Incongruent","Incongruent","Congruent","Incongruent","Congruent","Congruent","Incongruent","Incongruent","Congruent","Congruent","Incongruent","Congruent","Congruent","Congruent","Incongruent","Congruent","Congruent","Incongruent","Incongruent","Congruent","Congruent","Congruent","Incongruent","Congruent","Incongruent","Congruent","Congruent","Incongruent","Incongruent","Incongruent","Congruent","Congruent","Congruent","Incongruent","Incongruent","Incongruent","Incongruent","Incongruent","Incongruent","Congruent","Congruent","Congruent","Incongruent","Congruent","Incongruent","Congruent","Incongruent","Incongruent","Incongruent","Incongruent","Congruent","Incongruent","Congruent","Congruent","Congruent","Congruent","Incongruent","Congruent","Congruent","Incongruent","Congruent","Incongruent","Congruent","Incongruent","Congruent","Congruent","Incongruent","Incongruent","Congruent","Incongruent","Incongruent","Congruent","Congruent"],"ratio_trial":[100,200,100,300,200,200,300,100,300,300,200,100,300,200,100,100,300,200,300,300,300,100,200,300,200,100,100,100,300,200,200,200,300,100,300,300,300,100,100,100,300,300,100,100,100,200,100,100,200,200,100,200,100,100,200,100,200,300,200,100,300,200,200,100,100,200,200,300,300,200,200,200,300,300,200,300,300,100,300,100,300,200,200,100,100,200,200,100,300,200,200,300,200,200,300,200,100,300,200,100,100,300,100,300,300,200,200,300,300,100,300,200,300,100,300,200,100,100,100,300],"left_num":[11,3,2,4,11,7,13,7,3,7,9,11,4,9,7,9,12,7,3,4,5,3,6,4,14,11,13,3,2,21,21,8,4,13,18,4,11,3,6,3,24,1,6,6,6,9,12,6,4,3,3,7,7,2,1,15,13,13,12,11,3,4,3,2,13,3,7,1,5,7,20,4,1,11,11,4,13,11,8,3,4,11,4,11,9,4,12,9,2,11,6,13,3,4,1,9,9,1,1,3,7,1,2,13,1,6,3,4,4,3,7,4,20,6,8,3,9,6,3,4],"right_num":[6,11,8,2,3,12,12,15,4,8,8,6,2,13,9,20,2,12,4,1,6,4,3,6,12,4,6,11,6,2,2,7,6,12,9,2,1,4,13,11,8,3,13,15,5,13,2,3,14,11,8,2,9,8,3,13,14,12,6,4,11,14,14,11,6,11,2,19,6,4,9,6,8,4,3,2,12,6,1,4,2,3,1,9,20,14,6,8,12,3,7,12,14,14,2,8,14,11,2,4,15,19,6,12,3,11,11,13,8,4,8,3,8,11,9,11,20,13,4,1],"left_den":[22,10,4,20,20,10,26,14,6,10,15,22,20,30,14,10,24,10,6,10,25,20,15,5,30,22,26,5,4,30,30,15,5,26,20,20,22,6,10,5,30,2,10,12,20,30,30,12,6,10,5,21,14,4,2,25,26,26,20,22,12,6,10,5,26,4,21,3,25,15,25,5,30,22,20,20,26,22,16,20,20,20,30,22,10,6,20,15,10,20,12,26,10,6,2,15,15,5,3,20,14,3,5,26,5,20,4,20,5,20,10,10,25,10,10,10,10,10,20,10],"right_den":[15,22,20,4,4,24,15,25,20,20,10,15,4,26,15,25,10,24,5,10,12,16,15,12,18,10,10,22,30,4,4,21,12,20,15,4,5,10,26,22,16,15,26,25,25,26,4,5,30,22,16,15,15,20,10,26,20,15,15,10,20,30,28,22,10,20,15,30,12,6,15,10,24,20,4,4,15,15,5,16,4,4,3,15,25,30,15,16,24,4,10,15,28,30,10,10,28,22,15,16,25,30,12,15,6,22,20,26,16,16,20,15,16,22,18,22,25,26,16,10],"correct_side":[1,2,1,2,2,1,2,2,1,1,2,1,2,2,2,1,1,1,2,1,2,2,1,1,2,1,2,1,1,1,1,1,1,2,1,2,1,1,1,1,1,1,1,2,1,2,2,2,1,2,1,1,2,1,1,1,2,2,1,1,2,1,2,2,2,1,1,2,2,2,1,1,2,1,2,2,2,1,1,2,2,2,2,2,1,1,1,1,2,2,2,2,2,1,1,2,1,2,1,2,2,2,2,2,2,2,1,2,1,2,1,1,1,1,1,2,1,1,2,1],"img_shown":["img2/100/Congruent/L/C_Dist_100_LN_11_LD_22_RN_6_RD_15_0.png","img2/200/Congruent/R/C_Dist_200_LN_3_LD_10_RN_11_RD_22_1.png","img2/100/Incongruent/L/I_Dist_100_LN_2_LD_4_RN_8_RD_20_0.png","img2/300/Incongruent/R/I_Dist_300_LN_4_LD_20_RN_2_RD_4_1.png","img2/200/Incongruent/R/I_Dist_200_LN_11_LD_20_RN_3_RD_4_1.png","img2/200/Incongruent/L/I_Dist_200_LN_7_LD_10_RN_12_RD_24_0.png","img2/300/Incongruent/R/I_Dist_300_LN_13_LD_26_RN_12_RD_15_1.png","img2/100/Congruent/R/C_Dist_100_LN_7_LD_14_RN_15_RD_25_1.png","img2/300/Incongruent/L/I_Dist_300_LN_3_LD_6_RN_4_RD_20_0.png","img2/300/Incongruent/L/I_Dist_300_LN_7_LD_10_RN_8_RD_20_0.png","img2/200/Incongruent/R/I_Dist_200_LN_9_LD_15_RN_8_RD_10_1.png","img2/100/Congruent/L/C_Dist_100_LN_11_LD_22_RN_6_RD_15_0.png","img2/300/Incongruent/R/I_Dist_300_LN_4_LD_20_RN_2_RD_4_1.png","img2/200/Congruent/R/C_Dist_200_LN_9_LD_30_RN_13_RD_26_1.png","img2/100/Congruent/R/C_Dist_100_LN_7_LD_14_RN_9_RD_15_1.png","img2/100/Incongruent/L/I_Dist_100_LN_9_LD_10_RN_20_RD_25_0.png","img2/300/Congruent/L/C_Dist_300_LN_12_LD_24_RN_2_RD_10_0.png","img2/200/Incongruent/L/I_Dist_200_LN_7_LD_10_RN_12_RD_24_0.png","img2/300/Congruent/R/C_Dist_300_LN_3_LD_6_RN_4_RD_5_1.png","img2/300/Congruent/L/C_Dist_300_LN_4_LD_10_RN_1_RD_10_0.png","img2/300/Congruent/R/C_Dist_300_LN_5_LD_25_RN_6_RD_12_1.png","img2/100/Congruent/R/C_Dist_100_LN_3_LD_20_RN_4_RD_16_1.png","img2/200/Congruent/L/C_Dist_200_LN_6_LD_15_RN_3_RD_15_0.png","img2/300/Incongruent/L/I_Dist_300_LN_4_LD_5_RN_6_RD_12_0.png","img2/200/Incongruent/R/I_Dist_200_LN_14_LD_30_RN_12_RD_18_1.png","img2/100/Congruent/L/C_Dist_100_LN_11_LD_22_RN_4_RD_10_0.png","img2/100/Incongruent/R/I_Dist_100_LN_13_LD_26_RN_6_RD_10_1.png","img2/100/Incongruent/L/I_Dist_100_LN_3_LD_5_RN_11_RD_22_0.png","img2/300/Incongruent/L/I_Dist_300_LN_2_LD_4_RN_6_RD_30_0.png","img2/200/Congruent/L/C_Dist_200_LN_21_LD_30_RN_2_RD_4_0.png","img2/200/Congruent/L/C_Dist_200_LN_21_LD_30_RN_2_RD_4_0.png","img2/200/Congruent/L/C_Dist_200_LN_8_LD_15_RN_7_RD_21_0.png","img2/300/Incongruent/L/I_Dist_300_LN_4_LD_5_RN_6_RD_12_0.png","img2/100/Incongruent/R/I_Dist_100_LN_13_LD_26_RN_12_RD_20_1.png","img2/300/Congruent/L/C_Dist_300_LN_18_LD_20_RN_9_RD_15_0.png","img2/300/Incongruent/R/I_Dist_300_LN_4_LD_20_RN_2_RD_4_1.png","img2/300/Congruent/L/C_Dist_300_LN_11_LD_22_RN_1_RD_5_0.png","img2/100/Incongruent/L/I_Dist_100_LN_3_LD_6_RN_4_RD_10_0.png","img2/100/Incongruent/L/I_Dist_100_LN_6_LD_10_RN_13_RD_26_0.png","img2/100/Incongruent/L/I_Dist_100_LN_3_LD_5_RN_11_RD_22_0.png","img2/300/Congruent/L/C_Dist_300_LN_24_LD_30_RN_8_RD_16_0.png","img2/300/Incongruent/L/I_Dist_300_LN_1_LD_2_RN_3_RD_15_0.png","img2/100/Incongruent/L/I_Dist_100_LN_6_LD_10_RN_13_RD_26_0.png","img2/100/Congruent/R/C_Dist_100_LN_6_LD_12_RN_15_RD_25_1.png","img2/100/Congruent/L/C_Dist_100_LN_6_LD_20_RN_5_RD_25_0.png","img2/200/Congruent/R/C_Dist_200_LN_9_LD_30_RN_13_RD_26_1.png","img2/100/Incongruent/R/I_Dist_100_LN_12_LD_30_RN_2_RD_4_1.png","img2/100/Incongruent/R/I_Dist_100_LN_6_LD_12_RN_3_RD_5_1.png","img2/200/Incongruent/L/I_Dist_200_LN_4_LD_6_RN_14_RD_30_0.png","img2/200/Congruent/R/C_Dist_200_LN_3_LD_10_RN_11_RD_22_1.png","img2/100/Incongruent/L/I_Dist_100_LN_3_LD_5_RN_8_RD_16_0.png","img2/200/Congruent/L/C_Dist_200_LN_7_LD_21_RN_2_RD_15_0.png","img2/100/Congruent/R/C_Dist_100_LN_7_LD_14_RN_9_RD_15_1.png","img2/100/Incongruent/L/I_Dist_100_LN_2_LD_4_RN_8_RD_20_0.png","img2/200/Incongruent/L/I_Dist_200_LN_1_LD_2_RN_3_RD_10_0.png","img2/100/Congruent/L/C_Dist_100_LN_15_LD_25_RN_13_RD_26_0.png","img2/200/Congruent/R/C_Dist_200_LN_13_LD_26_RN_14_RD_20_1.png","img2/300/Incongruent/R/I_Dist_300_LN_13_LD_26_RN_12_RD_15_1.png","img2/200/Congruent/L/C_Dist_200_LN_12_LD_20_RN_6_RD_15_0.png","img2/100/Congruent/L/C_Dist_100_LN_11_LD_22_RN_4_RD_10_0.png","img2/300/Congruent/R/C_Dist_300_LN_3_LD_12_RN_11_RD_20_1.png","img2/200/Incongruent/L/I_Dist_200_LN_4_LD_6_RN_14_RD_30_0.png","img2/200/Congruent/R/C_Dist_200_LN_3_LD_10_RN_14_RD_28_1.png","img2/100/Congruent/R/C_Dist_100_LN_2_LD_5_RN_11_RD_22_1.png","img2/100/Incongruent/R/I_Dist_100_LN_13_LD_26_RN_6_RD_10_1.png","img2/200/Incongruent/L/I_Dist_200_LN_3_LD_4_RN_11_RD_20_0.png","img2/200/Congruent/L/C_Dist_200_LN_7_LD_21_RN_2_RD_15_0.png","img2/300/Congruent/R/C_Dist_300_LN_1_LD_3_RN_19_RD_30_1.png","img2/300/Congruent/R/C_Dist_300_LN_5_LD_25_RN_6_RD_12_1.png","img2/200/Incongruent/R/I_Dist_200_LN_7_LD_15_RN_4_RD_6_1.png","img2/200/Congruent/L/C_Dist_200_LN_20_LD_25_RN_9_RD_15_0.png","img2/200/Incongruent/L/I_Dist_200_LN_4_LD_5_RN_6_RD_10_0.png","img2/300/Congruent/R/C_Dist_300_LN_1_LD_30_RN_8_RD_24_1.png","img2/300/Congruent/L/C_Dist_300_LN_11_LD_22_RN_4_RD_20_0.png","img2/200/Incongruent/R/I_Dist_200_LN_11_LD_20_RN_3_RD_4_1.png","img2/300/Incongruent/R/I_Dist_300_LN_4_LD_20_RN_2_RD_4_1.png","img2/300/Incongruent/R/I_Dist_300_LN_13_LD_26_RN_12_RD_15_1.png","img2/100/Congruent/L/C_Dist_100_LN_11_LD_22_RN_6_RD_15_0.png","img2/300/Congruent/L/C_Dist_300_LN_8_LD_16_RN_1_RD_5_0.png","img2/100/Congruent/R/C_Dist_100_LN_3_LD_20_RN_4_RD_16_1.png","img2/300/Incongruent/R/I_Dist_300_LN_4_LD_20_RN_2_RD_4_1.png","img2/200/Incongruent/R/I_Dist_200_LN_11_LD_20_RN_3_RD_4_1.png","img2/200/Incongruent/R/I_Dist_200_LN_4_LD_30_RN_1_RD_3_1.png","img2/100/Incongruent/R/I_Dist_100_LN_11_LD_22_RN_9_RD_15_1.png","img2/100/Incongruent/L/I_Dist_100_LN_9_LD_10_RN_20_RD_25_0.png","img2/200/Incongruent/L/I_Dist_200_LN_4_LD_6_RN_14_RD_30_0.png","img2/200/Congruent/L/C_Dist_200_LN_12_LD_20_RN_6_RD_15_0.png","img2/100/Congruent/L/C_Dist_100_LN_9_LD_15_RN_8_RD_16_0.png","img2/300/Congruent/R/C_Dist_300_LN_2_LD_10_RN_12_RD_24_1.png","img2/200/Incongruent/R/I_Dist_200_LN_11_LD_20_RN_3_RD_4_1.png","img2/200/Congruent/R/C_Dist_200_LN_6_LD_12_RN_7_RD_10_1.png","img2/300/Incongruent/R/I_Dist_300_LN_13_LD_26_RN_12_RD_15_1.png","img2/200/Congruent/R/C_Dist_200_LN_3_LD_10_RN_14_RD_28_1.png","img2/200/Incongruent/L/I_Dist_200_LN_4_LD_6_RN_14_RD_30_0.png","img2/300/Incongruent/L/I_Dist_300_LN_1_LD_2_RN_2_RD_10_0.png","img2/200/Incongruent/R/I_Dist_200_LN_9_LD_15_RN_8_RD_10_1.png","img2/100/Incongruent/L/I_Dist_100_LN_9_LD_15_RN_14_RD_28_0.png","img2/300/Congruent/R/C_Dist_300_LN_1_LD_5_RN_11_RD_22_1.png","img2/200/Incongruent/L/I_Dist_200_LN_1_LD_3_RN_2_RD_15_0.png","img2/100/Congruent/R/C_Dist_100_LN_3_LD_20_RN_4_RD_16_1.png","img2/100/Congruent/R/C_Dist_100_LN_7_LD_14_RN_15_RD_25_1.png","img2/300/Congruent/R/C_Dist_300_LN_1_LD_3_RN_19_RD_30_1.png","img2/100/Congruent/R/C_Dist_100_LN_2_LD_5_RN_6_RD_12_1.png","img2/300/Incongruent/R/I_Dist_300_LN_13_LD_26_RN_12_RD_15_1.png","img2/300/Congruent/R/C_Dist_300_LN_1_LD_5_RN_3_RD_6_1.png","img2/200/Congruent/R/C_Dist_200_LN_6_LD_20_RN_11_RD_22_1.png","img2/200/Incongruent/L/I_Dist_200_LN_3_LD_4_RN_11_RD_20_0.png","img2/300/Congruent/R/C_Dist_300_LN_4_LD_20_RN_13_RD_26_1.png","img2/300/Incongruent/L/I_Dist_300_LN_4_LD_5_RN_8_RD_16_0.png","img2/100/Congruent/R/C_Dist_100_LN_3_LD_20_RN_4_RD_16_1.png","img2/300/Incongruent/L/I_Dist_300_LN_7_LD_10_RN_8_RD_20_0.png","img2/200/Congruent/L/C_Dist_200_LN_4_LD_10_RN_3_RD_15_0.png","img2/300/Congruent/L/C_Dist_300_LN_20_LD_25_RN_8_RD_16_0.png","img2/100/Incongruent/L/I_Dist_100_LN_6_LD_10_RN_11_RD_22_0.png","img2/300/Incongruent/L/I_Dist_300_LN_8_LD_10_RN_9_RD_18_0.png","img2/200/Congruent/R/C_Dist_200_LN_3_LD_10_RN_11_RD_22_1.png","img2/100/Incongruent/L/I_Dist_100_LN_9_LD_10_RN_20_RD_25_0.png","img2/100/Incongruent/L/I_Dist_100_LN_6_LD_10_RN_13_RD_26_0.png","img2/100/Congruent/R/C_Dist_100_LN_3_LD_20_RN_4_RD_16_1.png","img2/300/Congruent/L/C_Dist_300_LN_4_LD_10_RN_1_RD_10_0.png"],"dist100_C":[["C_Dist_100_LN_10_LD_25_RN_3_RD_10_0.png","C_Dist_100_LN_11_LD_22_RN_4_RD_10_0.png","C_Dist_100_LN_11_LD_22_RN_6_RD_15_0.png","C_Dist_100_LN_15_LD_25_RN_13_RD_26_0.png","C_Dist_100_LN_3_LD_6_RN_2_RD_5_0.png","C_Dist_100_LN_6_LD_20_RN_5_RD_25_0.png","C_Dist_100_LN_8_LD_16_RN_2_RD_5_0.png","C_Dist_100_LN_9_LD_15_RN_8_RD_16_0.png"],["C_Dist_100_LN_1_LD_2_RN_18_RD_30_1.png","C_Dist_100_LN_1_LD_2_RN_3_RD_5_1.png","C_Dist_100_LN_12_LD_30_RN_13_RD_26_1.png","C_Dist_100_LN_2_LD_5_RN_11_RD_22_1.png","C_Dist_100_LN_2_LD_5_RN_6_RD_12_1.png","C_Dist_100_LN_3_LD_20_RN_4_RD_16_1.png","C_Dist_100_LN_4_LD_10_RN_15_RD_30_1.png","C_Dist_100_LN_4_LD_8_RN_6_RD_10_1.png","C_Dist_100_LN_6_LD_12_RN_15_RD_25_1.png","C_Dist_100_LN_7_LD_14_RN_15_RD_25_1.png","C_Dist_100_LN_7_LD_14_RN_9_RD_15_1.png"]],"dist100_I":[["I_Dist_100_LN_1_LD_2_RN_8_RD_20_0.png","I_Dist_100_LN_2_LD_4_RN_6_RD_15_0.png","I_Dist_100_LN_2_LD_4_RN_8_RD_20_0.png","I_Dist_100_LN_3_LD_5_RN_11_RD_22_0.png","I_Dist_100_LN_3_LD_5_RN_8_RD_16_0.png","I_Dist_100_LN_3_LD_6_RN_4_RD_10_0.png","I_Dist_100_LN_3_LD_9_RN_7_RD_30_0.png","I_Dist_100_LN_4_LD_8_RN_8_RD_20_0.png","I_Dist_100_LN_6_LD_10_RN_11_RD_22_0.png","I_Dist_100_LN_6_LD_10_RN_13_RD_26_0.png","I_Dist_100_LN_6_LD_10_RN_7_RD_14_0.png","I_Dist_100_LN_9_LD_10_RN_20_RD_25_0.png","I_Dist_100_LN_9_LD_15_RN_13_RD_26_0.png","I_Dist_100_LN_9_LD_15_RN_14_RD_28_0.png"],["I_Dist_100_LN_10_LD_25_RN_8_RD_16_1.png","I_Dist_100_LN_10_LD_25_RN_9_RD_18_1.png","I_Dist_100_LN_11_LD_22_RN_9_RD_15_1.png","I_Dist_100_LN_12_LD_24_RN_9_RD_15_1.png","I_Dist_100_LN_12_LD_30_RN_2_RD_4_1.png","I_Dist_100_LN_13_LD_26_RN_12_RD_20_1.png","I_Dist_100_LN_13_LD_26_RN_6_RD_10_1.png","I_Dist_100_LN_17_LD_30_RN_10_RD_15_1.png","I_Dist_100_LN_6_LD_12_RN_3_RD_5_1.png","I_Dist_100_LN_8_LD_16_RN_6_RD_10_1.png","I_Dist_100_LN_8_LD_20_RN_1_RD_2_1.png","I_Dist_100_LN_9_LD_18_RN_6_RD_10_1.png"]],"dist100_S":[["E_Dist_100_LN_2_LD_12_RN_2_RD_30_0.png","E_Dist_100_LN_6_LD_10_RN_6_RD_12_0.png"],["E_Dist_100_LN_6_LD_12_RN_6_RD_10_1.png"]],"dist200_C":[["C_Dist_200_LN_11_LD_22_RN_3_RD_10_0.png","C_Dist_200_LN_12_LD_15_RN_6_RD_10_0.png","C_Dist_200_LN_12_LD_20_RN_6_RD_15_0.png","C_Dist_200_LN_14_LD_28_RN_6_RD_20_0.png","C_Dist_200_LN_15_LD_25_RN_4_RD_10_0.png","C_Dist_200_LN_16_LD_20_RN_12_RD_20_0.png","C_Dist_200_LN_16_LD_30_RN_9_RD_27_0.png","C_Dist_200_LN_20_LD_25_RN_9_RD_15_0.png","C_Dist_200_LN_21_LD_30_RN_2_RD_4_0.png","C_Dist_200_LN_4_LD_10_RN_3_RD_15_0.png","C_Dist_200_LN_4_LD_8_RN_3_RD_10_0.png","C_Dist_200_LN_6_LD_15_RN_3_RD_15_0.png","C_Dist_200_LN_7_LD_21_RN_2_RD_15_0.png","C_Dist_200_LN_8_LD_15_RN_2_RD_6_0.png","C_Dist_200_LN_8_LD_15_RN_3_RD_9_0.png","C_Dist_200_LN_8_LD_15_RN_7_RD_21_0.png","C_Dist_200_LN_9_LD_20_RN_4_RD_16_0.png"],["C_Dist_200_LN_1_LD_2_RN_21_RD_30_1.png","C_Dist_200_LN_13_LD_26_RN_14_RD_20_1.png","C_Dist_200_LN_3_LD_10_RN_11_RD_22_1.png","C_Dist_200_LN_3_LD_10_RN_14_RD_28_1.png","C_Dist_200_LN_3_LD_10_RN_7_RD_14_1.png","C_Dist_200_LN_3_LD_12_RN_9_RD_20_1.png","C_Dist_200_LN_3_LD_6_RN_14_RD_20_1.png","C_Dist_200_LN_5_LD_10_RN_14_RD_20_1.png","C_Dist_200_LN_6_LD_12_RN_7_RD_10_1.png","C_Dist_200_LN_6_LD_20_RN_11_RD_22_1.png","C_Dist_200_LN_7_LD_15_RN_18_RD_27_1.png","C_Dist_200_LN_9_LD_30_RN_13_RD_26_1.png"]],"dist200_I":[["I_Dist_200_LN_1_LD_2_RN_3_RD_10_0.png","I_Dist_200_LN_1_LD_3_RN_2_RD_15_0.png","I_Dist_200_LN_3_LD_4_RN_11_RD_20_0.png","I_Dist_200_LN_4_LD_5_RN_6_RD_10_0.png","I_Dist_200_LN_4_LD_6_RN_14_RD_30_0.png","I_Dist_200_LN_7_LD_10_RN_12_RD_24_0.png","I_Dist_200_LN_7_LD_10_RN_14_RD_28_0.png","I_Dist_200_LN_7_LD_10_RN_8_RD_16_0.png"],["I_Dist_200_LN_11_LD_20_RN_3_RD_4_1.png","I_Dist_200_LN_14_LD_30_RN_12_RD_18_1.png","I_Dist_200_LN_14_LD_30_RN_6_RD_9_1.png","I_Dist_200_LN_3_LD_10_RN_1_RD_2_1.png","I_Dist_200_LN_4_LD_30_RN_1_RD_3_1.png","I_Dist_200_LN_6_LD_20_RN_3_RD_6_1.png","I_Dist_200_LN_7_LD_15_RN_4_RD_6_1.png","I_Dist_200_LN_7_LD_15_RN_6_RD_9_1.png","I_Dist_200_LN_9_LD_15_RN_8_RD_10_1.png"]],"dist200_S":[["E_Dist_200_LN_3_LD_6_RN_3_RD_10_0.png"],["E_Dist_200_LN_3_LD_10_RN_3_RD_6_1.png"]],"dist300_C":[["C_Dist_300_LN_11_LD_22_RN_1_RD_5_0.png","C_Dist_300_LN_11_LD_22_RN_2_RD_10_0.png","C_Dist_300_LN_11_LD_22_RN_4_RD_20_0.png","C_Dist_300_LN_12_LD_24_RN_2_RD_10_0.png","C_Dist_300_LN_18_LD_20_RN_9_RD_15_0.png","C_Dist_300_LN_20_LD_25_RN_13_RD_26_0.png","C_Dist_300_LN_20_LD_25_RN_14_RD_28_0.png","C_Dist_300_LN_20_LD_25_RN_5_RD_10_0.png","C_Dist_300_LN_20_LD_25_RN_8_RD_16_0.png","C_Dist_300_LN_20_LD_25_RN_9_RD_18_0.png","C_Dist_300_LN_24_LD_30_RN_2_RD_4_0.png","C_Dist_300_LN_24_LD_30_RN_8_RD_16_0.png","C_Dist_300_LN_3_LD_6_RN_2_RD_10_0.png","C_Dist_300_LN_4_LD_10_RN_1_RD_10_0.png","C_Dist_300_LN_4_LD_5_RN_2_RD_4_0.png","C_Dist_300_LN_8_LD_16_RN_1_RD_5_0.png","C_Dist_300_LN_9_LD_10_RN_3_RD_5_0.png"],["C_Dist_300_LN_1_LD_20_RN_7_RD_20_1.png","C_Dist_300_LN_1_LD_3_RN_19_RD_30_1.png","C_Dist_300_LN_1_LD_30_RN_8_RD_24_1.png","C_Dist_300_LN_1_LD_5_RN_11_RD_22_1.png","C_Dist_300_LN_1_LD_5_RN_3_RD_6_1.png","C_Dist_300_LN_1_LD_5_RN_6_RD_12_1.png","C_Dist_300_LN_2_LD_10_RN_12_RD_24_1.png","C_Dist_300_LN_2_LD_20_RN_10_RD_25_1.png","C_Dist_300_LN_3_LD_12_RN_11_RD_20_1.png","C_Dist_300_LN_3_LD_6_RN_4_RD_5_1.png","C_Dist_300_LN_4_LD_20_RN_13_RD_26_1.png","C_Dist_300_LN_5_LD_25_RN_6_RD_12_1.png","C_Dist_300_LN_5_LD_25_RN_7_RD_14_1.png","C_Dist_300_LN_7_LD_14_RN_20_RD_25_1.png","C_Dist_300_LN_8_LD_15_RN_10_RD_12_1.png"]],"dist300_I":[["I_Dist_300_LN_1_LD_2_RN_2_RD_10_0.png","I_Dist_300_LN_1_LD_2_RN_3_RD_15_0.png","I_Dist_300_LN_2_LD_4_RN_6_RD_30_0.png","I_Dist_300_LN_3_LD_6_RN_4_RD_20_0.png","I_Dist_300_LN_4_LD_5_RN_6_RD_12_0.png","I_Dist_300_LN_4_LD_5_RN_8_RD_16_0.png","I_Dist_300_LN_7_LD_10_RN_8_RD_20_0.png","I_Dist_300_LN_8_LD_10_RN_14_RD_28_0.png","I_Dist_300_LN_8_LD_10_RN_9_RD_18_0.png"],["I_Dist_300_LN_13_LD_26_RN_12_RD_15_1.png","I_Dist_300_LN_4_LD_20_RN_2_RD_4_1.png"]],"dist300_S":[["E_Dist_300_LN_9_LD_12_RN_9_RD_20_0.png"],["E_Dist_300_LN_18_LD_30_RN_18_RD_20_1.png","E_Dist_300_LN_3_LD_10_RN_3_RD_5_1.png","E_Dist_300_LN_9_LD_20_RN_9_RD_12_1.png"]],"dist500_C":[["C_Dist_500_LN_10_LD_13_RN_7_RD_26_0.png","C_Dist_500_LN_10_LD_15_RN_4_RD_24_0.png","C_Dist_500_LN_12_LD_16_RN_3_RD_12_0.png","C_Dist_500_LN_12_LD_18_RN_4_RD_24_0.png","C_Dist_500_LN_15_LD_18_RN_5_RD_15_0.png","C_Dist_500_LN_15_LD_20_RN_1_RD_4_0.png","C_Dist_500_LN_18_LD_27_RN_1_RD_6_0.png","C_Dist_500_LN_20_LD_24_RN_1_RD_3_0.png","C_Dist_500_LN_20_LD_24_RN_3_RD_9_0.png","C_Dist_500_LN_20_LD_24_RN_7_RD_21_0.png","C_Dist_500_LN_20_LD_28_RN_3_RD_14_0.png","C_Dist_500_LN_21_LD_28_RN_6_RD_24_0.png","C_Dist_500_LN_22_LD_28_RN_2_RD_7_0.png","C_Dist_500_LN_25_LD_30_RN_9_RD_27_0.png","C_Dist_500_LN_4_LD_6_RN_1_RD_6_0.png","C_Dist_500_LN_5_LD_6_RN_2_RD_6_0.png","C_Dist_500_LN_6_LD_9_RN_1_RD_6_0.png","C_Dist_500_LN_7_LD_10_RN_1_RD_5_0.png","C_Dist_500_LN_8_LD_12_RN_1_RD_6_0.png","C_Dist_500_LN_8_LD_12_RN_4_RD_24_0.png"],["C_Dist_500_LN_1_LD_4_RN_12_RD_16_1.png","C_Dist_500_LN_1_LD_4_RN_9_RD_12_1.png","C_Dist_500_LN_1_LD_9_RN_11_RD_18_1.png","C_Dist_500_LN_10_LD_24_RN_22_RD_24_1.png","C_Dist_500_LN_2_LD_12_RN_10_RD_15_1.png","C_Dist_500_LN_2_LD_12_RN_12_RD_18_1.png","C_Dist_500_LN_2_LD_12_RN_4_RD_6_1.png","C_Dist_500_LN_2_LD_24_RN_7_RD_12_1.png","C_Dist_500_LN_2_LD_5_RN_18_RD_20_1.png","C_Dist_500_LN_2_LD_5_RN_9_RD_10_1.png","C_Dist_500_LN_2_LD_8_RN_12_RD_16_1.png","C_Dist_500_LN_2_LD_8_RN_21_RD_28_1.png","C_Dist_500_LN_3_LD_10_RN_4_RD_5_1.png","C_Dist_500_LN_3_LD_12_RN_15_RD_20_1.png","C_Dist_500_LN_3_LD_30_RN_6_RD_10_1.png","C_Dist_500_LN_3_LD_8_RN_14_RD_16_1.png","C_Dist_500_LN_4_LD_16_RN_15_RD_20_1.png","C_Dist_500_LN_4_LD_24_RN_12_RD_18_1.png","C_Dist_500_LN_5_LD_14_RN_6_RD_7_1.png","C_Dist_500_LN_7_LD_21_RN_20_RD_24_1.png","C_Dist_500_LN_7_LD_28_RN_12_RD_16_1.png","C_Dist_500_LN_7_LD_28_RN_9_RD_12_1.png","C_Dist_500_LN_9_LD_27_RN_20_RD_24_1.png"]],"dist500_I":[["I_Dist_500_LN_2_LD_3_RN_4_RD_24_0.png","I_Dist_500_LN_5_LD_6_RN_6_RD_18_0.png","I_Dist_500_LN_7_LD_8_RN_9_RD_24_0.png"],["I_Dist_500_LN_7_LD_21_RN_5_RD_6_1.png"]],"dist500_S":[["E_Dist_500_LN_6_LD_8_RN_6_RD_24_0.png"],["E_Dist_500_LN_2_LD_12_RN_2_RD_3_1.png","E_Dist_500_LN_6_LD_24_RN_6_RD_8_1.png"]]}},{"start_time":1552312908136,"click_time":1552312909438,"finger_time":1552312908679,"fix_duration":1176.2256928483403,"trial":1,"RT":543,"MT":759,"sideResp":1,"stimulus":[],"xmouse":[785,785,785,785,785,785,785,785,785,785,785,785,785,785,785,785,785,785,785,785,785,785,785,785,790,794,797,806,820,858,878,888,900,904,904,904,904,904,904,904,904,904,904,904,904,904,904,904,608,585,582,581,576,568,552,549,549,549,549,549,549,549,549,549,541,523],"ymouse":[551,551,551,551,551,551,551,551,551,551,551,551,551,551,551,551,551,551,551,551,551,548,542,536,516,502,490,460,429,323,253,182,108,34,34,34,34,34,34,34,34,34,34,34,34,34,34,34,7,22,23,23,23,23,23,23,23,23,23,23,23,23,23,23,23,27],"timestamp_mouse":[12,22,44,62,81,103,122,143,162,181,202,223,242,262,281,301,322,341,361,381,401,422,441,462,481,501,521,543,562,582,601,622,641,661,681,702,722,743,761,781,801,822,842,862,881,901,921,941,961,981,1001,1021,1041,1061,1081,1101,1122,1142,1161,1181,1202,1222,1242,1262,1281,1302],"xSR":741.5,"ySR":469.95,"xT1":424.9,"yT1":0,"xT2":1058.1,"yT2":0,"toosoon":0,"cond_shown":"Congruent","ratio_trial":200,"L_num":3,"L_den":10,"R_num":11,"R_den":22,"correct_side":2,"subjID":"MARIAJOSECAMBEROS29","gender":"1","school":"4","age":"9"},{"start_time":1552312913795,"click_time":1552312914637,"finger_time":1552312914177,"fix_duration":1375.6486530367451,"trial":2,"RT":382,"MT":460,"sideResp":2,"stimulus":[],"xmouse":[751,751,751,751,751,751,751,751,751,751,751,751,751,751,751,751,753,782,811,851,900,956,980,1006,1027,1048,1067,1095,1107,1115,1117,1117,1116,1115,1114,1109,1102,1085,1077,1072,1069,1069,1073],"ymouse":[485,485,485,485,485,485,485,485,485,485,485,485,485,485,485,485,485,481,477,472,463,444,433,418,403,387,368,329,308,289,269,263,250,244,230,213,192,147,128,117,109,105,90],"timestamp_mouse":[12,24,42,62,82,102,123,143,163,182,204,223,243,264,282,303,323,342,363,382,403,424,443,462,482,503,522,542,563,582,602,623,642,662,683,702,724,742,763,782,803,823,842],"xSR":741.5,"ySR":469.95,"xT1":424.9,"yT1":0,"xT2":1058.1,"yT2":0,"toosoon":0,"cond_shown":"Incongruent","ratio_trial":100,"L_num":2,"L_den":4,"R_num":8,"R_den":20,"correct_side":1,"subjID":"MARIAJOSECAMBEROS29","gender":"1","school":"4","age":"9"},{"start_time":1552312921039,"click_time":1552312921858,"finger_time":1552312921397,"fix_duration":1278.9730971512677,"trial":3,"RT":358,"MT":461,"sideResp":1,"stimulus":[],"xmouse":[804,804,804,804,804,804,804,804,804,804,804,804,804,804,804,798,788,774,756,735,703,691,680,666,646,586,573,573,573,573,573,573,573,573,573,573,573,573,573,495,492],"ymouse":[513,513,513,513,513,513,513,513,513,513,513,513,513,513,513,503,484,462,433,398,323,289,248,206,163,31,1,1,1,1,1,1,1,1,1,1,1,1,1,0,6],"timestamp_mouse":[35,40,60,78,99,120,139,160,179,199,220,240,259,279,299,320,338,358,378,398,418,439,458,478,498,519,538,559,578,598,618,640,659,679,700,719,738,759,778,799,819],"xSR":741.5,"ySR":469.95,"xT1":424.9,"yT1":0,"xT2":1058.1,"yT2":0,"toosoon":0,"cond_shown":"Incongruent","ratio_trial":300,"L_num":4,"L_den":20,"R_num":2,"R_den":4,"correct_side":2,"subjID":"MARIAJOSECAMBEROS29","gender":"1","school":"4","age":"9"},{"start_time":1552312925810,"click_time":1552312926417,"finger_time":1552312926277,"fix_duration":250,"trial":4,"RT":467,"MT":140,"sideResp":2,"stimulus":[],"xmouse":[789,789,789,789,789,789,789,789,789,789,789,789,789,789,789,789,789,789,789,789,789,794,805,824,831,865,896,974,1019,1066,1116],"ymouse":[507,507,507,507,507,507,507,507,507,507,507,507,507,507,507,507,507,507,507,507,507,505,486,454,441,383,332,227,174,120,70],"timestamp_mouse":[16,28,47,68,87,107,127,149,168,187,208,228,249,267,287,309,327,347,367,389,407,427,447,467,487,508,528,547,568,587,607],"xSR":741.5,"ySR":469.95,"xT1":424.9,"yT1":0,"xT2":1058.1,"yT2":0,"toosoon":0,"cond_shown":"Incongruent","ratio_trial":200,"L_num":11,"L_den":20,"R_num":3,"R_den":4,"correct_side":2,"subjID":"MARIAJOSECAMBEROS29","gender":"1","school":"4","age":"9"},{"start_time":1552312929531,"click_time":1552312930138,"finger_time":1552312929977,"fix_duration":1490.2096071376209,"trial":5,"RT":446,"MT":161,"sideResp":2,"stimulus":[],"xmouse":[764,764,764,764,764,764,764,764,764,764,764,764,764,764,764,764,764,764,764,764,767,772,777,783,793,805,884,938,1003,1071,1126],"ymouse":[491,491,491,491,491,491,491,491,491,491,491,491,491,491,491,491,491,491,491,491,485,474,463,449,431,410,317,269,211,147,85],"timestamp_mouse":[11,26,47,67,87,108,126,147,168,188,208,228,247,268,286,306,327,347,367,386,406,427,446,466,487,507,528,546,567,588,607],"xSR":741.5,"ySR":469.95,"xT1":424.9,"yT1":0,"xT2":1058.1,"yT2":0,"toosoon":0,"cond_shown":"Incongruent","ratio_trial":200,"L_num":7,"L_den":10,"R_num":12,"R_den":24,"correct_side":1,"subjID":"MARIAJOSECAMBEROS29","gender":"1","school":"4","age":"9"},{"start_time":1552312935990,"click_time":1552312937118,"finger_time":1552312936478,"fix_duration":250,"trial":6,"RT":488,"MT":640,"sideResp":1,"stimulus":[],"xmouse":[789,789,789,789,789,789,789,789,789,789,789,789,789,789,789,789,789,789,789,789,789,788,788,788,781,769,754,735,713,662,662,662,662,662,662,662,662,662,662,662,306,299,290,282,274,276,290,305,323,370,383,392,401,410,427,439,451],"ymouse":[520,520,520,520,520,520,520,520,520,520,520,520,520,520,520,520,520,520,520,520,520,519,511,487,428,382,318,255,177,0,0,0,0,0,0,0,0,0,0,0,12,41,74,106,169,199,227,242,244,230,215,196,176,155,118,100,85],"timestamp_mouse":[15,35,48,69,88,108,128,148,169,188,208,229,248,269,288,309,329,349,369,389,409,428,449,468,488,508,528,548,570,588,608,629,649,669,688,708,729,749,769,788,808,829,849,868,889,908,927,949,969,990,1007,1028,1048,1068,1088,1108,1128],"xSR":741.5,"ySR":469.95,"xT1":424.9,"yT1":0,"xT2":1058.1,"yT2":0,"toosoon":0,"cond_shown":"Incongruent","ratio_trial":300,"L_num":13,"L_den":26,"R_num":12,"R_den":15,"correct_side":2,"subjID":"MARIAJOSECAMBEROS29","gender":"1","school":"4","age":"9"},{"start_time":1552312940550,"click_time":1552312941738,"finger_time":1552312941079,"fix_duration":270.85275332615123,"trial":7,"RT":529,"MT":659,"sideResp":2,"stimulus":[],"xmouse":[781,781,781,781,781,781,781,781,781,781,781,781,781,781,781,781,781,781,781,781,781,781,781,781,789,801,832,854,881,908,970,1010,1054,1127,1148,1160,1167,1169,1169,1170,1170,1170,1170,1170,1170,1168,1159,1144,1137,1128,1125,1120,1119,1119,1119,1119,1119,1119,1119,1120],"ymouse":[492,492,492,492,492,492,492,492,492,492,492,492,492,492,492,492,492,492,492,492,492,492,492,492,488,479,452,435,412,387,339,305,272,220,199,187,180,177,175,175,174,174,174,174,172,170,165,155,151,145,143,140,139,139,138,134,130,115,106,99],"timestamp_mouse":[10,38,49,68,89,108,128,148,168,188,209,229,249,269,288,308,328,348,368,388,408,428,448,468,488,508,529,549,569,588,609,628,648,668,689,708,728,748,768,788,808,828,848,868,888,908,928,948,968,988,1008,1029,1048,1068,1088,1108,1128,1148,1169,1188],"xSR":741.5,"ySR":469.95,"xT1":424.9,"yT1":0,"xT2":1058.1,"yT2":0,"toosoon":0,"cond_shown":"Congruent","ratio_trial":100,"L_num":7,"L_den":14,"R_num":15,"R_den":25,"correct_side":2,"subjID":"MARIAJOSECAMBEROS29","gender":"1","school":"4","age":"9"},{"start_time":1552312948929,"click_time":1552312949698,"finger_time":1552312949538,"fix_duration":449.426149626423,"trial":8,"RT":609,"MT":160,"sideResp":1,"stimulus":[],"xmouse":[769,769,769,769,769,769,769,769,769,769,769,769,769,769,769,769,769,769,769,769,769,771,773,778,787,791,795,797,798,795,782,759,721,685,608,576,540,504,445],"ymouse":[558,558,558,558,558,558,558,558,558,558,558,558,558,558,558,558,558,558,558,558,557,552,550,545,532,524,515,506,498,478,463,438,397,357,261,224,183,142,84],"timestamp_mouse":[11,39,49,69,89,109,129,150,170,189,209,230,250,269,290,309,330,351,369,390,409,430,449,469,489,510,529,550,569,590,609,630,649,669,689,709,729,749,769],"xSR":741.5,"ySR":469.95,"xT1":424.9,"yT1":0,"xT2":1058.1,"yT2":0,"toosoon":0,"cond_shown":"Incongruent","ratio_trial":300,"L_num":3,"L_den":6,"R_num":4,"R_den":20,"correct_side":1,"subjID":"MARIAJOSECAMBEROS29","gender":"1","school":"4","age":"9"},{"start_time":1552312954165,"click_time":1552312955338,"finger_time":1552312954718,"fix_duration":746.4962388805359,"trial":9,"RT":553,"MT":620,"sideResp":1,"stimulus":[],"xmouse":[790,787,787,787,787,787,788,791,791,791,791,791,791,791,791,791,791,791,791,791,791,791,791,791,791,795,800,811,812,812,803,782,724,688,668,656,649,638,628,611,591,574,559,558,558,558,558,558,558,558,558,558,558,558,558,558,557,539,506],"ymouse":[531,533,533,533,533,533,533,535,535,535,535,535,535,535,535,535,535,535,535,535,535,535,535,535,535,526,502,420,370,313,248,185,74,28,13,7,6,6,8,17,31,45,65,66,66,66,66,66,66,66,66,66,66,66,66,66,66,66,58],"timestamp_mouse":[16,38,53,73,93,113,133,153,175,193,213,233,253,274,293,314,334,353,374,394,413,433,453,473,494,514,533,553,573,593,613,634,654,673,693,714,733,753,773,793,813,834,854,874,893,914,934,953,974,994,1014,1034,1053,1073,1093,1114,1133,1153,1173],"xSR":741.5,"ySR":469.95,"xT1":424.9,"yT1":0,"xT2":1058.1,"yT2":0,"toosoon":0,"cond_shown":"Incongruent","ratio_trial":300,"L_num":7,"L_den":10,"R_num":8,"R_den":20,"correct_side":1,"subjID":"MARIAJOSECAMBEROS29","gender":"1","school":"4","age":"9"},{"start_time":1552312962934,"click_time":1552312964139,"finger_time":1552312963498,"fix_duration":1393.6008573566155,"trial":10,"RT":564,"MT":641,"sideResp":1,"stimulus":[],"xmouse":[776,776,776,776,776,776,776,776,776,776,776,776,776,776,776,776,776,776,776,776,776,776,776,776,776,776,776,775,775,770,714,663,634,634,634,634,634,634,634,634,634,634,634,634,565,563,561,559,557,556,552,546,543,541,538,532,530,530,529,526,509],"ymouse":[521,521,521,521,521,521,521,521,521,521,521,521,521,521,521,521,521,521,521,521,521,521,521,521,521,521,521,510,452,380,198,74,14,14,14,14,14,14,14,14,14,14,14,14,2,21,32,41,47,49,55,59,61,61,62,63,64,64,64,64,66],"timestamp_mouse":[11,36,44,64,84,104,125,144,165,185,204,224,245,265,284,304,325,345,365,384,404,424,444,464,484,504,524,545,564,585,605,624,644,665,685,705,725,744,764,785,805,825,845,864,884,905,924,944,964,985,1007,1024,1044,1064,1084,1104,1124,1144,1164,1185,1204],"xSR":741.5,"ySR":469.95,"xT1":424.9,"yT1":0,"xT2":1058.1,"yT2":0,"toosoon":0,"cond_shown":"Incongruent","ratio_trial":200,"L_num":9,"L_den":15,"R_num":8,"R_den":10,"correct_side":2,"subjID":"MARIAJOSECAMBEROS29","gender":"1","school":"4","age":"9"},{"start_time":1552312970981,"click_time":1552312971519,"finger_time":1552312971318,"fix_duration":1441.2457917511144,"trial":11,"RT":337,"MT":201,"sideResp":2,"stimulus":[],"xmouse":[795,795,795,795,795,795,795,795,795,795,799,802,811,818,823,831,840,854,890,909,923,940,958,1014,1040,1055,1064],"ymouse":[525,525,525,525,525,525,525,525,525,525,522,519,510,501,492,481,468,451,397,365,332,301,258,126,75,40,18],"timestamp_mouse":[17,42,58,77,97,117,137,158,178,197,218,237,258,277,298,317,337,357,377,397,417,438,458,477,497,517,538],"xSR":741.5,"ySR":469.95,"xT1":424.9,"yT1":0,"xT2":1058.1,"yT2":0,"toosoon":0,"cond_shown":"Congruent","ratio_trial":100,"L_num":11,"L_den":22,"R_num":6,"R_den":15,"correct_side":1,"subjID":"MARIAJOSECAMBEROS29","gender":"1","school":"4","age":"9"},{"start_time":1552312975271,"click_time":1552312976218,"finger_time":1552312975778,"fix_duration":1009.711486172295,"trial":12,"RT":507,"MT":440,"sideResp":1,"stimulus":[],"xmouse":[765,765,765,765,765,765,765,765,765,765,765,765,765,765,765,765,765,765,765,765,765,765,765,764,759,728,700,660,581,518,394,350,324,308,302,302,302,302,302,302,327,349,369,385,397,412,417,426],"ymouse":[491,491,491,491,491,491,491,491,491,491,491,491,491,491,491,491,491,491,491,491,491,491,491,480,471,416,377,329,252,201,125,102,94,89,89,89,89,89,89,89,89,89,89,88,86,80,76,73],"timestamp_mouse":[16,31,48,67,87,107,129,148,167,188,208,227,247,267,287,307,327,347,368,388,408,428,448,467,487,507,527,548,568,588,607,627,647,667,689,707,728,748,768,787,808,827,847,867,888,907,927,947],"xSR":741.5,"ySR":469.95,"xT1":424.9,"yT1":0,"xT2":1058.1,"yT2":0,"toosoon":0,"cond_shown":"Incongruent","ratio_trial":300,"L_num":4,"L_den":20,"R_num":2,"R_den":4,"correct_side":2,"subjID":"MARIAJOSECAMBEROS29","gender":"1","school":"4","age":"9"},{"start_time":1552312979090,"click_time":1552312980478,"finger_time":1552312979978,"fix_duration":751.9803377708006,"trial":13,"RT":888,"MT":500,"sideResp":2,"stimulus":[],"xmouse":[813,813,813,813,813,813,813,813,815,816,817,817,817,817,817,817,817,817,817,817,817,817,817,817,817,817,817,817,817,817,817,817,817,818,819,823,825,825,825,825,825,826,829,838,860,901,953,1009,1053,1113,1128,1139,1147,1151,1160,1169,1174,1176,1176,1176,1176,1172,1166,1163,1154,1144,1135,1124,1113,1105],"ymouse":[566,566,566,566,566,566,566,566,560,557,548,548,548,548,548,548,548,548,548,548,548,548,548,548,548,548,548,548,548,548,548,548,548,547,543,537,530,526,521,509,503,498,492,484,468,456,448,433,420,389,370,350,328,303,249,214,197,189,187,186,186,186,183,181,170,155,141,123,104,72],"timestamp_mouse":[12,39,48,67,89,108,129,148,168,188,208,228,249,269,288,309,329,348,369,388,409,429,449,469,488,508,529,549,569,588,608,628,648,668,688,708,728,749,768,788,808,828,848,868,887,910,929,948,968,988,1008,1028,1048,1068,1089,1108,1128,1148,1172,1188,1208,1228,1248,1268,1288,1309,1328,1349,1368,1388],"xSR":741.5,"ySR":469.95,"xT1":424.9,"yT1":0,"xT2":1058.1,"yT2":0,"toosoon":0,"cond_shown":"Congruent","ratio_trial":200,"L_num":9,"L_den":30,"R_num":13,"R_den":26,"correct_side":2,"subjID":"MARIAJOSECAMBEROS29","gender":"1","school":"4","age":"9"},{"start_time":1552312984729,"click_time":1552312987239,"finger_time":1552312985479,"fix_duration":508.5581318447612,"trial":14,"RT":750,"MT":1760,"sideResp":1,"stimulus":[],"xmouse":[760,760,760,760,760,760,760,760,760,760,760,760,760,760,760,760,760,760,760,760,760,760,760,760,760,760,760,760,760,760,760,760,760,760,760,760,760,753,728,710,683,673,649,615,604,597,592,591,591,592,603,616,631,659,668,675,676,674,669,668,668,665,651,607,579,543,513,489,462,454,446,442,441,441,441,441,441,441,442,446,447,449,450,450,450,450,450,451,451,451,451,451,452,452,452,452,452,452,452,452,452,452,452,452,452,452,452,452,452,452,452,452,452,452,452,452,452,452,452,452,452,452,452,452,452,454],"ymouse":[499,499,499,499,499,499,499,499,499,499,499,499,499,499,499,499,499,499,499,499,499,499,499,499,499,499,499,499,499,499,499,499,499,499,499,497,488,467,415,386,352,345,332,329,332,336,340,342,343,343,333,313,289,226,188,154,130,110,90,89,89,88,89,101,109,119,127,134,139,139,140,140,140,140,140,140,140,139,135,128,125,117,114,112,110,109,107,106,105,105,105,103,100,100,100,100,100,100,100,100,100,100,100,100,100,100,100,100,100,100,100,100,100,100,100,100,100,100,100,100,100,100,100,100,100,98],"timestamp_mouse":[12,37,49,69,89,109,130,149,169,190,210,230,249,270,289,309,330,349,370,389,410,430,450,470,490,509,529,550,570,590,609,630,649,669,689,709,729,750,769,789,809,829,850,868,889,909,930,949,969,989,1009,1030,1049,1069,1089,1109,1130,1149,1169,1188,1209,1230,1249,1269,1289,1310,1329,1349,1369,1390,1410,1429,1449,1470,1489,1509,1529,1550,1569,1588,1609,1629,1650,1669,1689,1710,1730,1749,1769,1790,1809,1830,1849,1869,1889,1910,1929,1950,1969,1990,2009,2030,2050,2069,2089,2110,2129,2150,2169,2190,2209,2229,2250,2269,2289,2309,2330,2350,2370,2389,2409,2430,2449,2469,2489,2510],"xSR":741.5,"ySR":469.95,"xT1":424.9,"yT1":0,"xT2":1058.1,"yT2":0,"toosoon":0,"cond_shown":"Congruent","ratio_trial":100,"L_num":7,"L_den":14,"R_num":9,"R_den":15,"correct_side":2,"subjID":"MARIAJOSECAMBEROS29","gender":"1","school":"4","age":"9"},{"start_time":1552312990847,"click_time":1552312992118,"finger_time":1552312991299,"fix_duration":1147.4998828259713,"trial":15,"RT":452,"MT":819,"sideResp":1,"stimulus":[],"xmouse":[794,794,794,794,794,794,794,794,794,794,794,794,794,794,794,794,794,794,794,799,807,820,862,877,886,894,898,900,901,901,902,902,902,892,879,852,812,635,499,358,222,222,222,222,222,222,222,222,222,222,222,163,222,301,322,337,347,353,373,382,389,399,408,428],"ymouse":[519,519,519,519,519,519,519,519,519,519,519,519,519,519,519,519,519,519,519,519,516,507,478,467,458,451,444,440,435,433,429,422,418,397,382,362,339,233,160,84,6,6,6,6,6,6,6,6,6,6,6,4,21,43,49,53,54,55,60,62,64,69,73,82],"timestamp_mouse":[20,43,52,72,91,111,132,152,171,191,212,231,252,271,292,312,331,352,371,392,411,432,452,471,491,512,531,551,571,592,611,632,651,671,691,711,731,752,771,792,811,831,852,871,891,912,932,952,971,991,1011,1032,1051,1071,1090,1111,1131,1152,1171,1191,1211,1231,1251,1271],"xSR":741.5,"ySR":469.95,"xT1":424.9,"yT1":0,"xT2":1058.1,"yT2":0,"toosoon":0,"cond_shown":"Incongruent","ratio_trial":100,"L_num":9,"L_den":10,"R_num":20,"R_den":25,"correct_side":1,"subjID":"MARIAJOSECAMBEROS29","gender":"1","school":"4","age":"9"},{"start_time":1552312997469,"click_time":1552312998739,"finger_time":1552312997938,"fix_duration":1449.9692628959829,"trial":16,"RT":469,"MT":801,"sideResp":2,"stimulus":[],"xmouse":[785,785,785,785,785,785,785,785,785,785,785,785,785,785,785,785,785,785,785,785,785,785,777,768,757,746,733,708,687,674,657,639,610,603,601,600,600,599,599,599,601,602,607,611,615,618,623,625,636,648,668,695,768,810,840,865,887,903,948,965,986,1011,1041,1106],"ymouse":[528,528,528,528,528,528,528,528,528,528,528,528,528,528,528,528,528,528,528,528,527,518,486,465,443,422,403,379,365,358,349,341,326,322,321,320,320,320,317,309,295,278,226,195,169,150,136,132,131,134,147,162,200,215,225,230,236,237,236,227,213,189,150,23],"timestamp_mouse":[10,40,49,70,90,110,129,150,169,191,210,229,250,269,290,309,329,349,369,389,410,429,449,469,490,509,529,551,569,589,609,629,650,669,690,710,730,750,769,789,810,829,850,869,891,909,929,949,970,989,1010,1029,1050,1069,1090,1110,1129,1150,1169,1189,1210,1230,1250,1269],"xSR":741.5,"ySR":469.95,"xT1":424.9,"yT1":0,"xT2":1058.1,"yT2":0,"toosoon":0,"cond_shown":"Congruent","ratio_trial":300,"L_num":12,"L_den":24,"R_num":2,"R_den":10,"correct_side":1,"subjID":"MARIAJOSECAMBEROS29","gender":"1","school":"4","age":"9"},{"start_time":1552313002420,"click_time":1552313005858,"finger_time":1552313004978,"fix_duration":320.41553323190476,"trial":17,"RT":2558,"MT":880,"sideResp":1,"stimulus":[],"xmouse":[789,789,789,789,789,789,789,789,789,789,789,789,789,789,789,789,789,789,789,789,790,790,793,794,794,795,796,797,797,797,797,797,797,797,797,797,797,797,797,797,802,804,806,806,808,808,808,808,808,808,808,808,808,808,808,808,808,808,808,808,808,808,808,808,808,808,808,808,808,808,808,808,808,808,808,808,808,808,808,808,808,808,808,808,808,808,808,808,808,808,808,808,808,808,808,808,808,808,808,808,799,793,788,786,784,782,782,782,782,780,780,776,774,772,768,760,758,755,755,754,754,755,756,757,758,760,761,761,762,762,762,762,764,764,764,765,765,765,765,765,764,759,751,742,728,715,686,659,637,618,587,583,581,581,581,581,580,575,574,573,570,568,563,558,552,538,530,527,522,517,513,501],"ymouse":[537,537,537,537,537,537,537,537,537,537,537,537,537,537,537,537,537,537,536,535,528,526,522,521,519,513,511,507,506,504,503,502,500,499,498,498,498,498,498,496,491,486,483,481,478,478,477,477,477,477,477,477,477,477,477,477,477,477,477,477,477,477,477,477,477,477,477,477,477,477,477,477,477,477,477,477,477,477,477,477,477,477,477,477,477,477,477,477,477,477,477,477,477,477,477,477,477,477,477,476,476,476,476,476,476,477,477,477,477,479,480,488,495,504,512,528,533,540,543,548,551,558,562,563,564,567,569,570,571,571,571,571,570,570,568,566,565,565,564,562,555,549,538,527,511,495,455,406,369,334,303,291,280,264,249,202,175,149,141,136,129,127,123,119,114,108,104,104,102,102,100,95],"timestamp_mouse":[19,38,58,78,99,118,138,158,179,199,220,239,258,280,299,319,339,358,378,399,418,438,458,478,498,518,538,558,579,598,619,638,660,679,699,719,738,759,779,798,818,838,859,878,899,918,938,958,979,999,1018,1039,1059,1079,1098,1118,1139,1159,1178,1198,1219,1239,1259,1279,1298,1319,1339,1360,1380,1398,1419,1438,1459,1479,1498,1518,1539,1559,1579,1598,1619,1638,1659,1678,1699,1718,1740,1759,1779,1799,1819,1839,1859,1878,1898,1919,1938,1958,1978,1999,2018,2038,2059,2078,2099,2118,2138,2159,2178,2198,2218,2238,2259,2278,2299,2318,2339,2358,2378,2399,2418,2438,2458,2478,2499,2518,2538,2558,2578,2599,2619,2638,2659,2678,2698,2718,2739,2758,2778,2798,2818,2838,2859,2879,2898,2918,2938,2958,2979,2999,3018,3038,3058,3079,3098,3119,3139,3158,3178,3198,3219,3238,3258,3278,3298,3319,3338,3358,3378,3398,3418,3438],"xSR":741.5,"ySR":469.95,"xT1":424.9,"yT1":0,"xT2":1058.1,"yT2":0,"toosoon":0,"cond_shown":"Incongruent","ratio_trial":200,"L_num":7,"L_den":10,"R_num":12,"R_den":24,"correct_side":1,"subjID":"MARIAJOSECAMBEROS29","gender":"1","school":"4","age":"9"},{"start_time":1552313009710,"click_time":1552313010818,"finger_time":1552313010139,"fix_duration":250,"trial":18,"RT":429,"MT":679,"sideResp":1,"stimulus":[],"xmouse":[789,789,789,789,789,789,789,789,789,789,789,789,789,789,789,789,789,786,781,775,764,732,719,704,688,669,648,606,591,576,558,548,531,523,516,511,508,505,504,504,504,504,504,503,503,503,502,501,501,501,501,501,501,501,502,504],"ymouse":[536,536,536,536,536,536,536,536,536,536,536,536,536,536,536,536,534,520,509,495,477,426,404,384,364,344,326,295,285,276,265,260,253,249,245,240,237,229,224,217,210,189,183,175,168,161,154,145,140,137,130,126,115,110,102,97],"timestamp_mouse":[10,38,49,69,88,109,129,148,168,189,209,229,249,268,288,308,329,348,368,388,409,429,448,468,488,508,529,548,568,589,608,628,648,668,689,708,728,748,769,789,809,830,849,868,889,908,929,948,968,988,1008,1028,1048,1068,1088,1108],"xSR":741.5,"ySR":469.95,"xT1":424.9,"yT1":0,"xT2":1058.1,"yT2":0,"toosoon":0,"cond_shown":"Congruent","ratio_trial":300,"L_num":3,"L_den":6,"R_num":4,"R_den":5,"correct_side":2,"subjID":"MARIAJOSECAMBEROS29","gender":"1","school":"4","age":"9"},{"start_time":1552313014113,"click_time":1552313015298,"finger_time":1552313014718,"fix_duration":512.6823382481111,"trial":19,"RT":605,"MT":580,"sideResp":2,"stimulus":[],"xmouse":[800,800,800,800,800,800,800,800,800,800,800,800,800,800,800,800,800,800,800,800,800,800,800,800,800,800,800,800,802,820,862,915,980,995,1008,1020,1034,1058,1077,1088,1094,1097,1098,1098,1092,1080,1062,1002,939,905,884,879,879,879,880,889,909,979,1064,1113],"ymouse":[540,540,540,540,540,540,540,540,540,540,540,540,540,540,540,540,540,540,540,540,540,540,540,540,540,540,540,540,540,538,518,488,444,423,403,382,360,315,281,264,252,247,244,243,242,238,234,217,197,185,176,174,174,174,170,166,159,138,101,79],"timestamp_mouse":[13,25,45,65,86,105,126,146,165,185,206,226,246,265,286,306,326,345,365,385,405,426,445,466,485,506,525,545,566,585,605,625,645,665,685,705,725,746,765,785,805,825,845,865,885,905,927,946,965,985,1005,1025,1045,1065,1086,1105,1125,1146,1165,1185],"xSR":741.5,"ySR":469.95,"xT1":424.9,"yT1":0,"xT2":1058.1,"yT2":0,"toosoon":0,"cond_shown":"Congruent","ratio_trial":300,"L_num":4,"L_den":10,"R_num":1,"R_den":10,"correct_side":1,"subjID":"MARIAJOSECAMBEROS29","gender":"1","school":"4","age":"9"},{"start_time":1552313018223,"click_time":1552313019959,"finger_time":1552313018978,"fix_duration":823.081575920297,"trial":20,"RT":755,"MT":981,"sideResp":2,"stimulus":[],"xmouse":[798,798,798,798,798,798,798,798,798,798,798,798,798,798,798,798,798,798,798,798,798,798,798,796,794,794,794,794,794,794,794,791,784,779,775,770,765,757,755,753,753,753,753,753,753,753,753,753,753,754,758,766,787,800,819,837,855,898,917,934,955,966,984,990,997,1004,1009,1020,1029,1031,1036,1040,1046,1050,1054,1058,1061,1068,1070,1071,1072,1072,1072,1073,1075,1080,1086],"ymouse":[526,526,526,526,526,526,526,526,526,526,526,526,526,526,526,526,526,526,526,526,526,526,526,525,523,523,523,523,523,523,522,519,509,502,495,487,480,468,464,461,461,461,460,460,458,458,457,453,451,448,444,434,413,401,385,371,358,332,321,311,297,286,264,255,242,230,217,193,179,175,165,158,148,142,138,133,130,122,120,118,116,116,116,115,111,104,96],"timestamp_mouse":[16,39,55,75,95,116,136,156,177,196,216,236,256,275,296,316,336,355,375,395,416,435,455,475,496,516,535,555,576,595,615,636,655,675,696,716,735,755,775,795,816,835,855,875,895,915,936,955,976,995,1016,1035,1055,1075,1096,1115,1135,1155,1176,1195,1215,1236,1256,1275,1295,1315,1335,1355,1376,1395,1415,1435,1455,1475,1495,1515,1536,1555,1576,1595,1616,1637,1656,1675,1695,1715,1736],"xSR":741.5,"ySR":469.95,"xT1":424.9,"yT1":0,"xT2":1058.1,"yT2":0,"toosoon":0,"cond_shown":"Congruent","ratio_trial":300,"L_num":5,"L_den":25,"R_num":6,"R_den":12,"correct_side":2,"subjID":"MARIAJOSECAMBEROS29","gender":"1","school":"4","age":"9"},{"start_time":1552313025369,"click_time":1552313028479,"finger_time":1552313027698,"fix_duration":250,"trial":21,"RT":2329,"MT":781,"sideResp":2,"stimulus":[],"xmouse":[765,765,765,765,765,765,765,765,765,765,765,765,765,765,765,765,765,765,765,765,765,765,765,765,765,765,765,765,765,765,765,765,765,765,765,765,765,765,765,765,765,765,765,765,765,765,765,765,765,765,765,765,765,765,765,765,765,765,765,765,765,765,765,765,765,765,765,765,765,765,765,765,765,765,765,765,765,765,765,765,765,765,765,765,765,765,765,764,764,764,764,764,764,764,764,764,764,764,764,764,764,764,764,764,764,764,764,764,764,764,764,764,763,762,759,753,738,732,728,726,726,726,726,726,726,726,726,726,726,726,726,726,726,726,726,726,726,726,726,726,732,761,784,811,843,884,954,977,994,1011,1020,1039,1046,1054,1057,1062],"ymouse":[527,527,527,527,527,527,527,527,527,527,527,527,527,527,527,527,527,527,527,527,527,527,527,527,527,527,527,527,527,527,527,527,527,527,527,527,527,527,527,527,527,527,527,527,527,527,527,527,527,527,527,527,527,527,527,527,527,527,527,527,527,527,527,527,527,527,527,527,527,527,527,527,527,527,527,527,527,527,527,527,526,524,524,524,524,524,524,524,524,524,524,524,524,524,524,524,524,524,524,524,524,524,524,524,524,524,524,524,524,524,524,524,517,508,497,482,455,444,440,440,440,440,440,440,440,440,440,440,440,440,440,440,440,440,440,440,440,440,440,439,438,427,417,404,386,357,302,271,237,202,180,138,120,103,90,79],"timestamp_mouse":[14,40,49,70,90,110,130,150,170,189,210,231,249,270,289,309,330,349,369,389,410,429,449,471,490,510,529,550,570,589,609,630,651,669,690,710,729,749,769,790,809,830,850,869,890,910,930,950,969,990,1009,1030,1049,1069,1091,1109,1129,1150,1169,1189,1210,1230,1250,1270,1291,1311,1330,1349,1370,1389,1409,1430,1449,1469,1490,1509,1530,1549,1569,1590,1610,1630,1649,1670,1690,1710,1729,1750,1769,1789,1810,1830,1849,1870,1890,1909,1930,1950,1969,1990,2010,2029,2049,2070,2091,2109,2130,2149,2169,2190,2210,2229,2249,2269,2290,2309,2329,2350,2369,2390,2409,2429,2450,2470,2489,2510,2529,2549,2569,2590,2609,2629,2649,2670,2690,2709,2729,2749,2770,2790,2809,2829,2850,2869,2890,2910,2929,2949,2969,2989,3010,3029,3049,3069,3089,3110],"xSR":741.5,"ySR":469.95,"xT1":424.9,"yT1":0,"xT2":1058.1,"yT2":0,"toosoon":0,"cond_shown":"Congruent","ratio_trial":100,"L_num":3,"L_den":20,"R_num":4,"R_den":16,"correct_side":2,"subjID":"MARIAJOSECAMBEROS29","gender":"1","school":"4","age":"9"},{"start_time":1552313032331,"click_time":1552313033398,"finger_time":1552313032978,"fix_duration":410.7958248997036,"trial":22,"RT":647,"MT":420,"sideResp":1,"stimulus":[],"xmouse":[758,758,758,758,758,758,758,758,758,758,758,758,758,758,758,758,758,758,758,758,758,758,758,758,758,758,758,758,758,758,758,751,744,729,720,710,700,687,667,652,643,634,627,623,613,609,606,601,593,564,553,540,529,519],"ymouse":[497,497,497,497,497,497,497,497,497,497,497,497,497,497,497,497,497,497,497,497,497,497,497,497,497,497,497,497,497,497,490,475,457,422,401,380,354,328,283,243,219,199,182,169,147,137,127,116,102,61,45,32,20,15],"timestamp_mouse":[10,38,47,67,88,107,128,148,167,187,208,227,247,268,288,307,328,348,368,387,407,428,447,468,487,508,527,548,568,587,607,628,647,669,687,707,728,747,768,787,807,828,847,867,887,907,928,948,968,989,1007,1027,1048,1067],"xSR":741.5,"ySR":469.95,"xT1":424.9,"yT1":0,"xT2":1058.1,"yT2":0,"toosoon":0,"cond_shown":"Congruent","ratio_trial":200,"L_num":6,"L_den":15,"R_num":3,"R_den":15,"correct_side":1,"subjID":"MARIAJOSECAMBEROS29","gender":"1","school":"4","age":"9"},{"start_time":1552313036516,"click_time":1552313037759,"finger_time":1552313037078,"fix_duration":875.0985478238475,"trial":23,"RT":562,"MT":681,"sideResp":2,"stimulus":[],"xmouse":[790,790,790,790,790,790,790,790,790,790,790,790,790,790,790,790,790,790,790,790,790,790,790,790,790,793,810,830,836,851,864,870,875,884,896,924,935,953,962,970,980,982,984,986,986,988,990,991,992,992,992,992,992,993,997,1022,1039,1056,1064,1068,1080,1087,1092],"ymouse":[529,529,529,529,529,529,529,529,529,529,529,529,529,529,529,529,529,529,529,529,529,529,529,529,529,525,505,479,469,442,415,403,390,373,351,301,276,235,213,194,174,168,165,161,158,150,145,141,138,138,138,138,138,137,137,137,137,135,132,128,113,101,89],"timestamp_mouse":[11,22,44,63,83,102,123,143,163,182,203,223,242,262,283,302,323,343,363,383,404,423,442,462,483,502,522,542,562,582,602,622,643,662,683,702,723,743,762,783,802,822,842,863,882,902,922,942,963,982,1003,1022,1044,1062,1083,1102,1122,1142,1163,1182,1202,1222,1243],"xSR":741.5,"ySR":469.95,"xT1":424.9,"yT1":0,"xT2":1058.1,"yT2":0,"toosoon":0,"cond_shown":"Incongruent","ratio_trial":300,"L_num":4,"L_den":5,"R_num":6,"R_den":12,"correct_side":1,"subjID":"MARIAJOSECAMBEROS29","gender":"1","school":"4","age":"9"},{"start_time":1552313041326,"click_time":1552313042160,"finger_time":1552313041679,"fix_duration":1484.0775453770098,"trial":24,"RT":353,"MT":481,"sideResp":1,"stimulus":[],"xmouse":[784,784,784,784,784,784,784,784,784,784,784,784,783,782,780,775,767,755,738,715,707,696,689,676,658,648,641,637,633,632,632,632,631,627,624,608,596,583,568,537,527,522],"ymouse":[547,547,547,547,547,547,544,541,536,532,530,529,528,525,517,502,484,459,426,360,321,276,231,190,120,83,62,53,46,44,44,44,44,44,44,44,45,49,53,63,65,67],"timestamp_mouse":[14,43,52,73,93,113,132,153,172,193,212,232,252,272,292,313,332,353,372,392,412,432,452,473,493,512,532,552,572,593,612,632,652,672,692,712,732,752,772,793,815,834],"xSR":741.5,"ySR":469.95,"xT1":424.9,"yT1":0,"xT2":1058.1,"yT2":0,"toosoon":0,"cond_shown":"Incongruent","ratio_trial":200,"L_num":14,"L_den":30,"R_num":12,"R_den":18,"correct_side":2,"subjID":"MARIAJOSECAMBEROS29","gender":"1","school":"4","age":"9"},{"start_time":1552313044123,"click_time":1552313045038,"finger_time":1552313044719,"fix_duration":363.6255269779054,"trial":25,"RT":596,"MT":319,"sideResp":2,"stimulus":[],"xmouse":[789,789,789,789,789,789,789,789,789,789,789,789,789,789,789,789,789,789,789,789,789,789,789,789,789,789,789,789,791,807,817,833,851,881,898,925,938,951,964,977,999,1017,1024,1040,1051,1073],"ymouse":[492,492,492,492,492,492,492,492,492,492,492,492,492,492,492,492,492,492,492,492,492,492,492,492,492,492,492,490,486,459,440,420,397,362,342,304,286,267,250,231,197,168,159,133,116,85],"timestamp_mouse":[15,44,55,75,95,116,136,156,175,196,216,236,255,276,296,316,336,355,375,395,416,435,455,476,495,516,536,556,576,596,615,635,655,677,696,716,736,756,775,795,815,835,855,876,895,915],"xSR":741.5,"ySR":469.95,"xT1":424.9,"yT1":0,"xT2":1058.1,"yT2":0,"toosoon":0,"cond_shown":"Congruent","ratio_trial":100,"L_num":11,"L_den":22,"R_num":4,"R_den":10,"correct_side":1,"subjID":"MARIAJOSECAMBEROS29","gender":"1","school":"4","age":"9"},{"start_time":1552313047211,"click_time":1552313048078,"finger_time":1552313047638,"fix_duration":250,"trial":26,"RT":427,"MT":440,"sideResp":1,"stimulus":[],"xmouse":[751,751,751,751,751,751,751,751,751,751,751,751,751,751,751,753,754,756,757,758,758,758,758,752,740,727,687,661,653,627,609,585,579,574,570,568,562,560,553,545,538,524,517,508],"ymouse":[523,523,523,523,523,523,523,523,523,523,523,523,523,523,523,522,515,511,504,486,470,426,400,371,337,311,253,217,207,176,155,126,117,112,109,107,107,106,105,104,103,101,100,99],"timestamp_mouse":[13,43,48,67,87,108,127,147,168,187,207,228,248,268,289,309,328,348,368,387,407,427,447,467,488,507,528,547,568,587,607,628,647,667,687,709,727,747,767,787,807,827,847,867],"xSR":741.5,"ySR":469.95,"xT1":424.9,"yT1":0,"xT2":1058.1,"yT2":0,"toosoon":0,"cond_shown":"Incongruent","ratio_trial":100,"L_num":13,"L_den":26,"R_num":6,"R_den":10,"correct_side":2,"subjID":"MARIAJOSECAMBEROS29","gender":"1","school":"4","age":"9"},{"start_time":1552313049773,"click_time":1552313051659,"finger_time":1552313051178,"fix_duration":250,"trial":27,"RT":1405,"MT":481,"sideResp":1,"stimulus":[],"xmouse":[771,771,771,771,771,771,771,771,771,771,771,771,771,771,771,771,771,771,771,771,771,771,771,771,771,771,771,771,771,771,771,771,771,771,771,771,771,771,771,771,771,771,771,771,771,771,771,771,771,771,771,771,771,771,771,771,771,771,771,771,771,771,771,771,771,769,768,767,765,752,743,730,712,678,655,627,595,575,575,575,575,575,575,575,575,575,575,575,575,575,575,575,575,575,445],"ymouse":[511,512,512,512,512,512,512,512,512,512,512,512,512,512,512,512,512,512,512,512,512,512,512,512,512,512,512,512,512,512,512,512,512,512,512,512,512,512,512,512,512,512,512,512,512,512,512,512,512,512,512,512,512,512,512,512,512,512,512,512,512,512,512,512,512,512,511,507,505,475,453,421,369,257,191,126,58,23,23,23,23,23,23,23,23,23,23,23,23,23,23,23,23,23,5],"timestamp_mouse":[15,36,46,66,86,106,127,146,166,185,205,225,246,265,286,305,325,346,365,386,405,426,445,465,485,505,525,545,566,585,605,625,646,666,686,706,726,745,766,786,805,826,846,865,886,905,925,946,965,986,1006,1025,1045,1066,1085,1106,1126,1147,1166,1186,1205,1226,1245,1266,1285,1306,1326,1346,1366,1385,1405,1426,1446,1467,1485,1505,1525,1546,1566,1585,1605,1625,1646,1666,1686,1705,1726,1745,1765,1786,1805,1826,1846,1865,1886],"xSR":741.5,"ySR":469.95,"xT1":424.9,"yT1":0,"xT2":1058.1,"yT2":0,"toosoon":0,"cond_shown":"Incongruent","ratio_trial":100,"L_num":3,"L_den":5,"R_num":11,"R_den":22,"correct_side":1,"subjID":"MARIAJOSECAMBEROS29","gender":"1","school":"4","age":"9"},{"start_time":1552313056033,"click_time":1552313057338,"finger_time":1552313057157,"fix_duration":574.7440045329239,"trial":28,"RT":1124,"MT":181,"sideResp":1,"stimulus":[],"xmouse":[780,780,780,780,780,780,780,780,780,780,780,780,780,780,780,780,780,780,780,780,780,780,780,780,780,780,780,780,780,780,780,780,780,780,780,780,780,780,780,780,780,780,780,780,780,780,780,780,780,780,780,780,780,780,775,770,761,737,727,718,708,682,629,579,535,485],"ymouse":[512,512,512,512,512,512,512,512,512,512,512,512,512,512,512,512,512,512,512,512,512,512,512,512,512,512,512,512,512,512,512,512,512,512,512,512,512,512,512,512,512,512,512,512,512,512,512,512,512,512,512,512,510,505,497,485,468,435,422,409,396,348,265,196,129,70],"timestamp_mouse":[15,41,44,65,84,104,124,144,166,186,205,224,245,265,286,304,324,345,364,385,405,425,446,465,485,505,525,545,566,585,605,624,646,666,685,704,725,744,764,792,805,825,845,865,884,906,924,944,966,984,1005,1025,1044,1064,1084,1105,1124,1145,1166,1185,1204,1225,1244,1264,1285,1304],"xSR":741.5,"ySR":469.95,"xT1":424.9,"yT1":0,"xT2":1058.1,"yT2":0,"toosoon":0,"cond_shown":"Incongruent","ratio_trial":300,"L_num":2,"L_den":4,"R_num":6,"R_den":30,"correct_side":1,"subjID":"MARIAJOSECAMBEROS29","gender":"1","school":"4","age":"9"},{"start_time":1552313063175,"click_time":1552313064558,"finger_time":1552313063618,"fix_duration":1075.8118531007224,"trial":29,"RT":443,"MT":940,"sideResp":2,"stimulus":[],"xmouse":[767,767,767,767,767,767,767,767,767,767,767,767,767,767,767,767,767,767,767,767,767,774,781,787,787,787,787,783,775,763,748,745,738,731,720,706,702,699,698,696,696,697,703,707,711,724,731,737,743,754,771,785,797,822,844,895,919,941,965,987,1023,1033,1041,1044,1047,1052,1053,1055,1058,1060],"ymouse":[493,493,493,493,493,493,493,493,493,493,493,493,493,493,493,493,493,493,493,493,493,476,466,456,453,449,446,443,440,436,430,428,421,413,402,379,369,360,353,349,349,346,338,330,321,297,284,274,264,251,230,218,207,190,178,154,142,133,119,105,88,82,79,78,77,75,74,73,72,71],"timestamp_mouse":[11,37,43,62,83,103,123,143,162,183,204,222,243,264,282,303,324,342,362,383,404,424,443,462,483,502,523,543,562,582,603,624,643,663,684,703,723,743,762,784,803,823,842,862,883,903,923,943,962,983,1003,1022,1044,1064,1083,1102,1122,1143,1163,1182,1202,1223,1243,1263,1284,1302,1323,1342,1362,1383],"xSR":741.5,"ySR":469.95,"xT1":424.9,"yT1":0,"xT2":1058.1,"yT2":0,"toosoon":0,"cond_shown":"Congruent","ratio_trial":200,"L_num":21,"L_den":30,"R_num":2,"R_den":4,"correct_side":1,"subjID":"MARIAJOSECAMBEROS29","gender":"1","school":"4","age":"9"},{"start_time":1552313071502,"click_time":1552313072678,"finger_time":1552313072297,"fix_duration":502.1144088504721,"trial":30,"RT":795,"MT":381,"sideResp":2,"stimulus":[],"xmouse":[823,823,823,823,823,823,823,823,823,823,823,823,823,823,823,823,823,823,823,823,823,823,823,823,823,823,823,823,823,823,823,823,823,823,823,824,826,831,839,857,868,887,919,945,992,1009,1022,1034,1044,1060,1067,1070,1071,1071,1072,1073,1075,1077,1080],"ymouse":[555,555,555,555,555,555,555,555,555,555,555,555,555,555,555,555,555,555,555,555,555,555,555,555,555,555,555,555,555,555,555,555,555,555,555,554,551,541,528,493,469,436,366,314,227,199,177,161,147,124,116,113,112,112,110,109,106,102,96],"timestamp_mouse":[16,37,56,76,96,117,137,156,176,196,216,236,255,277,295,315,336,357,376,397,416,435,456,476,497,515,537,557,577,596,615,636,656,676,696,715,736,756,776,795,816,837,856,876,895,915,935,955,976,996,1016,1036,1056,1075,1095,1115,1136,1155,1176],"xSR":741.5,"ySR":469.95,"xT1":424.9,"yT1":0,"xT2":1058.1,"yT2":0,"toosoon":0,"cond_shown":"Congruent","ratio_trial":200,"L_num":21,"L_den":30,"R_num":2,"R_den":4,"correct_side":1,"subjID":"MARIAJOSECAMBEROS29","gender":"1","school":"4","age":"9"},{"start_time":1552313076280,"click_time":1552313077699,"finger_time":1552313077098,"fix_duration":740.6917552427508,"trial":31,"RT":818,"MT":601,"sideResp":1,"stimulus":[],"xmouse":[759,759,759,759,759,759,759,759,759,759,759,759,759,759,759,759,759,759,759,759,759,759,759,759,759,759,759,759,759,759,759,759,759,760,760,760,760,756,751,747,738,730,725,717,706,678,664,652,642,635,629,625,623,620,615,609,592,581,572,563,554,552,551,548,542,537,528,524,521,514,491],"ymouse":[514,514,514,514,514,514,514,514,514,514,514,514,514,514,514,514,514,514,514,514,514,514,514,514,514,514,514,514,514,514,514,514,512,510,509,506,504,500,495,490,478,470,463,452,436,400,380,361,342,326,309,284,274,261,249,233,196,178,163,149,132,130,128,126,123,120,116,114,112,108,96],"timestamp_mouse":[28,37,57,79,97,117,138,157,179,197,217,238,259,277,297,318,338,358,377,399,418,438,458,479,497,518,539,558,578,598,618,638,657,677,698,718,737,757,778,798,818,838,857,877,897,919,938,959,977,997,1018,1037,1058,1079,1097,1119,1137,1158,1178,1199,1219,1237,1257,1278,1299,1318,1337,1359,1378,1398,1419],"xSR":741.5,"ySR":469.95,"xT1":424.9,"yT1":0,"xT2":1058.1,"yT2":0,"toosoon":0,"cond_shown":"Congruent","ratio_trial":200,"L_num":8,"L_den":15,"R_num":7,"R_den":21,"correct_side":1,"subjID":"MARIAJOSECAMBEROS29","gender":"1","school":"4","age":"9"},{"start_time":1552313085924,"click_time":1552313087218,"finger_time":1552313086598,"fix_duration":1464.8389985348833,"trial":32,"RT":674,"MT":620,"sideResp":1,"stimulus":[],"xmouse":[816,816,816,816,816,816,816,816,816,816,816,816,816,816,816,816,816,816,816,817,818,819,820,821,823,827,827,828,830,832,834,837,840,845,852,863,868,871,871,858,841,820,794,774,758,698,672,636,602,578,534,518,509,505,503,503,503,503,503,503,505,506,506,507,495],"ymouse":[521,521,521,521,521,521,521,521,521,521,521,521,521,521,521,521,520,518,517,515,512,510,508,506,503,497,496,494,492,487,484,480,475,465,450,424,409,394,379,347,331,319,307,296,285,249,230,204,180,162,137,129,126,125,124,124,124,124,123,118,113,110,107,105,90],"timestamp_mouse":[13,41,53,75,93,114,133,153,173,194,213,233,255,273,293,313,333,353,375,394,414,434,453,474,494,513,533,554,574,594,613,634,654,674,693,713,734,755,774,796,813,834,853,874,893,913,934,955,975,993,1014,1033,1053,1073,1094,1115,1135,1153,1173,1194,1213,1233,1253,1274,1294],"xSR":741.5,"ySR":469.95,"xT1":424.9,"yT1":0,"xT2":1058.1,"yT2":0,"toosoon":0,"cond_shown":"Incongruent","ratio_trial":300,"L_num":4,"L_den":5,"R_num":6,"R_den":12,"correct_side":1,"subjID":"MARIAJOSECAMBEROS29","gender":"1","school":"4","age":"9"},{"start_time":1552313092520,"click_time":1552313094439,"finger_time":1552313093518,"fix_duration":1461.0890001517794,"trial":33,"RT":998,"MT":921,"sideResp":2,"stimulus":[],"xmouse":[805,805,805,805,805,805,805,805,805,805,805,805,805,805,805,805,805,805,805,805,805,805,805,805,805,805,805,805,805,805,805,805,805,805,805,805,805,805,805,805,805,806,807,808,810,815,823,829,836,843,854,868,876,886,899,913,945,965,987,1014,1054,1076,1089,1102,1114,1129,1132,1134,1134,1134,1134,1134,1134,1131,1126,1118,1114,1111,1109,1108,1108,1110,1113,1115,1117,1119,1120,1120,1120,1120,1120,1120,1120,1120,1120,1122],"ymouse":[491,491,491,491,491,491,491,491,491,491,491,491,491,491,491,491,491,491,491,491,491,491,491,491,491,491,491,491,491,491,491,491,491,491,491,491,491,491,491,491,491,490,488,488,487,483,479,477,474,471,464,454,447,439,427,416,385,369,349,327,285,255,238,219,205,188,183,182,181,181,181,181,181,181,178,173,170,165,157,150,134,128,123,118,114,108,105,104,103,103,103,103,103,101,100,92],"timestamp_mouse":[18,40,59,78,98,118,137,157,179,198,218,238,257,277,299,318,338,357,377,397,417,438,459,478,497,517,537,559,579,597,618,639,658,678,699,718,738,757,778,799,819,837,858,878,897,919,937,957,977,998,1017,1038,1057,1077,1097,1118,1137,1158,1177,1197,1218,1238,1258,1279,1298,1319,1337,1358,1378,1397,1418,1437,1457,1477,1498,1518,1537,1558,1578,1597,1619,1637,1657,1678,1697,1718,1737,1758,1778,1798,1818,1839,1857,1877,1899,1919],"xSR":741.5,"ySR":469.95,"xT1":424.9,"yT1":0,"xT2":1058.1,"yT2":0,"toosoon":0,"cond_shown":"Incongruent","ratio_trial":100,"L_num":13,"L_den":26,"R_num":12,"R_den":20,"correct_side":2,"subjID":"MARIAJOSECAMBEROS29","gender":"1","school":"4","age":"9"},{"start_time":1552313099084,"click_time":1552313100598,"finger_time":1552313099877,"fix_duration":385.9518627712917,"trial":34,"RT":793,"MT":721,"sideResp":1,"stimulus":[],"xmouse":[776,776,776,776,776,776,776,776,776,776,776,776,776,776,776,776,776,776,776,776,776,776,776,776,776,776,776,776,776,776,776,776,776,776,776,776,776,776,776,770,754,740,731,715,708,701,694,687,679,672,671,671,671,671,671,670,668,667,665,664,661,658,653,645,629,622,617,615,611,602,596,585,574,561,533,521],"ymouse":[496,496,496,496,496,496,496,496,496,496,496,496,496,496,496,496,496,496,496,496,496,496,496,496,496,496,496,496,496,496,496,496,496,496,496,496,496,496,488,439,374,328,290,238,215,192,172,156,142,131,130,130,130,130,129,129,130,132,137,138,142,144,144,144,144,143,143,142,141,138,135,129,121,114,98,91],"timestamp_mouse":[15,37,55,75,95,113,134,155,175,194,214,233,255,274,295,314,333,353,374,394,415,434,453,473,494,513,535,555,573,594,614,633,654,673,695,715,734,754,773,793,814,834,854,874,894,913,933,953,973,994,1013,1035,1053,1073,1093,1114,1133,1153,1174,1193,1214,1233,1253,1273,1293,1314,1333,1353,1374,1394,1413,1434,1453,1473,1494,1514],"xSR":741.5,"ySR":469.95,"xT1":424.9,"yT1":0,"xT2":1058.1,"yT2":0,"toosoon":0,"cond_shown":"Congruent","ratio_trial":300,"L_num":18,"L_den":20,"R_num":9,"R_den":15,"correct_side":1,"subjID":"MARIAJOSECAMBEROS29","gender":"1","school":"4","age":"9"},{"start_time":1552313102929,"click_time":1552313104337,"finger_time":1552313104258,"fix_duration":250,"trial":35,"RT":1329,"MT":79,"sideResp":2,"stimulus":[],"xmouse":[771,771,771,771,771,771,771,771,771,771,771,771,771,771,771,771,771,771,771,771,771,771,771,771,771,771,771,771,771,771,771,771,771,771,771,771,771,771,771,771,771,771,771,771,771,771,771,771,771,771,771,771,771,771,771,771,771,771,771,771,771,771,771,771,771,772,943,1034,1089,1117,1134],"ymouse":[491,491,491,491,491,491,491,491,491,491,491,491,491,491,491,491,491,491,491,491,491,491,491,491,491,491,491,491,491,491,491,491,491,491,491,491,491,491,491,491,491,491,491,491,491,491,491,491,491,491,491,491,491,491,491,491,491,491,491,491,491,491,491,491,491,491,333,238,161,109,73],"timestamp_mouse":[12,37,49,68,88,109,129,148,168,189,210,228,250,269,289,310,329,348,369,390,409,428,448,470,488,508,530,549,569,588,610,629,649,668,689,709,728,748,769,788,810,830,849,869,890,910,928,949,968,989,1008,1029,1049,1069,1088,1110,1130,1149,1169,1190,1208,1229,1248,1269,1288,1308,1329,1348,1369,1389,1408],"xSR":741.5,"ySR":469.95,"xT1":424.9,"yT1":0,"xT2":1058.1,"yT2":0,"toosoon":0,"cond_shown":"Incongruent","ratio_trial":300,"L_num":4,"L_den":20,"R_num":2,"R_den":4,"correct_side":2,"subjID":"MARIAJOSECAMBEROS29","gender":"1","school":"4","age":"9"},{"start_time":1552313109090,"click_time":1552313110498,"finger_time":1552313109897,"fix_duration":250,"trial":36,"RT":807,"MT":601,"sideResp":1,"stimulus":[],"xmouse":[746,746,746,746,746,746,746,746,746,746,746,746,746,746,746,746,746,746,746,746,746,746,746,746,746,746,746,747,750,753,753,753,753,753,753,751,749,749,748,743,737,730,722,711,699,669,655,641,629,611,603,594,587,578,553,528,508,490,473,448,443,442,442,442,442,442,442,443,446,454,460],"ymouse":[552,552,552,552,552,552,552,552,552,552,552,552,552,552,552,552,552,552,552,552,552,552,552,552,552,552,552,549,545,535,530,525,519,514,511,503,500,498,495,481,472,457,442,426,407,367,349,334,321,299,290,280,272,262,233,203,180,161,142,119,115,115,115,115,115,114,112,110,106,100,96],"timestamp_mouse":[14,28,47,67,88,109,128,147,169,187,208,228,248,268,288,307,328,347,369,389,408,427,448,469,488,508,528,549,568,587,607,628,647,669,688,708,727,748,767,788,807,829,847,868,888,908,928,948,968,987,1007,1029,1047,1067,1087,1108,1128,1148,1167,1187,1207,1227,1247,1268,1288,1307,1327,1348,1369,1388,1407],"xSR":741.5,"ySR":469.95,"xT1":424.9,"yT1":0,"xT2":1058.1,"yT2":0,"toosoon":0,"cond_shown":"Congruent","ratio_trial":300,"L_num":11,"L_den":22,"R_num":1,"R_den":5,"correct_side":1,"subjID":"MARIAJOSECAMBEROS29","gender":"1","school":"4","age":"9"},{"start_time":1552313114909,"click_time":1552313116138,"finger_time":1552313115378,"fix_duration":1167.0893949688527,"trial":37,"RT":469,"MT":760,"sideResp":1,"stimulus":[],"xmouse":[750,750,750,750,750,750,750,750,750,750,750,750,750,750,750,750,750,750,750,750,750,750,750,750,749,745,738,732,725,710,702,689,683,679,676,676,676,676,676,676,674,672,662,651,625,612,596,584,572,554,547,542,537,536,535,534,532,529,524,515,506,499],"ymouse":[503,503,503,503,503,503,503,503,503,503,503,503,503,503,503,503,503,503,502,496,492,487,477,469,446,432,417,405,392,374,367,358,354,351,348,348,348,348,348,348,346,343,330,319,293,277,259,244,229,204,191,183,173,170,166,164,159,154,145,127,110,99],"timestamp_mouse":[12,35,48,68,89,110,128,149,170,189,208,229,249,268,289,309,330,350,369,389,410,429,449,469,489,509,530,550,569,589,609,629,649,669,689,709,729,749,769,789,809,829,849,869,889,909,929,950,969,989,1009,1029,1049,1069,1090,1109,1130,1149,1169,1189,1210,1229],"xSR":741.5,"ySR":469.95,"xT1":424.9,"yT1":0,"xT2":1058.1,"yT2":0,"toosoon":0,"cond_shown":"Incongruent","ratio_trial":100,"L_num":3,"L_den":6,"R_num":4,"R_den":10,"correct_side":1,"subjID":"MARIAJOSECAMBEROS29","gender":"1","school":"4","age":"9"},{"start_time":1552313118977,"click_time":1552313120119,"finger_time":1552313119538,"fix_duration":1437.716269150176,"trial":38,"RT":561,"MT":581,"sideResp":1,"stimulus":[],"xmouse":[765,765,765,765,765,765,765,765,765,765,765,765,765,765,765,765,765,765,765,765,765,765,766,766,767,767,767,760,749,732,707,648,615,591,578,575,575,576,579,580,582,585,587,589,591,592,592,592,591,589,586,582,571,563,553,540,523,489],"ymouse":[529,529,529,529,528,528,528,528,528,528,528,528,528,528,528,528,528,528,528,528,527,525,523,520,517,512,507,484,468,448,419,349,314,288,273,267,263,260,257,253,250,242,237,234,229,225,215,211,207,202,198,192,178,169,157,142,123,81],"timestamp_mouse":[13,21,43,61,80,101,121,142,162,181,202,221,242,261,282,302,321,342,361,382,401,422,441,462,482,502,522,542,561,582,602,622,641,662,682,701,723,741,761,782,801,823,841,862,881,902,922,941,961,981,1001,1022,1041,1062,1081,1101,1121,1142],"xSR":741.5,"ySR":469.95,"xT1":424.9,"yT1":0,"xT2":1058.1,"yT2":0,"toosoon":0,"cond_shown":"Incongruent","ratio_trial":100,"L_num":6,"L_den":10,"R_num":13,"R_den":26,"correct_side":1,"subjID":"MARIAJOSECAMBEROS29","gender":"1","school":"4","age":"9"},{"start_time":1552313122018,"click_time":1552313123738,"finger_time":1552313122999,"fix_duration":699.9627237835653,"trial":39,"RT":981,"MT":739,"sideResp":2,"stimulus":[],"xmouse":[764,764,764,764,764,764,764,764,764,764,764,764,764,764,764,764,764,764,764,764,764,764,764,764,764,764,764,764,764,764,764,764,764,764,764,764,764,764,764,766,769,771,779,783,800,809,818,831,863,882,913,925,976,1020,1128,1172,1221,1264,1298,1346,1367,1381,1396,1404,1413,1414,1414,1408,1399,1363,1363,1363,1363,1363,1363,1363,1363,1363,1363,1363,1363,1363,1363,1363,1363,1111],"ymouse":[530,530,530,530,530,530,530,530,530,530,530,530,530,530,530,530,530,530,530,530,530,530,530,530,530,530,530,530,530,530,530,530,530,530,530,530,530,530,530,528,525,522,514,509,498,491,484,473,450,437,418,411,387,367,337,325,312,298,283,246,225,204,169,146,101,82,64,47,32,5,5,5,5,5,5,5,5,5,5,5,5,5,5,5,5,5],"timestamp_mouse":[35,40,60,81,100,121,141,160,180,201,221,240,261,281,301,321,341,360,380,401,420,441,461,480,501,520,540,560,580,601,621,640,661,680,700,721,741,760,780,800,821,840,861,880,900,920,941,961,981,1000,1020,1040,1061,1080,1100,1120,1140,1160,1180,1200,1222,1240,1259,1281,1300,1320,1341,1360,1381,1400,1420,1440,1460,1480,1501,1520,1541,1560,1581,1600,1621,1640,1660,1680,1700,1719],"xSR":741.5,"ySR":469.95,"xT1":424.9,"yT1":0,"xT2":1058.1,"yT2":0,"toosoon":0,"cond_shown":"Incongruent","ratio_trial":100,"L_num":3,"L_den":5,"R_num":11,"R_den":22,"correct_side":1,"subjID":"MARIAJOSECAMBEROS29","gender":"1","school":"4","age":"9"},{"start_time":1552313128164,"click_time":1552313129518,"finger_time":1552313128938,"fix_duration":1123.7647965645265,"trial":40,"RT":774,"MT":580,"sideResp":1,"stimulus":[],"xmouse":[829,829,828,826,825,823,823,823,823,823,823,822,822,822,822,822,822,821,817,814,810,807,804,803,802,802,802,802,802,802,802,802,801,800,800,799,799,798,796,793,788,779,754,744,738,729,719,697,686,677,669,661,655,645,638,629,620,608,587,578,572,567,564,559,553,544,531,519],"ymouse":[490,490,490,490,490,490,490,490,490,490,490,490,490,490,490,490,490,490,489,487,486,483,482,481,481,481,481,481,481,481,481,480,480,479,478,477,475,472,462,453,438,417,354,335,314,291,270,229,213,199,188,178,171,162,156,150,145,138,130,126,124,123,121,118,115,108,99,89],"timestamp_mouse":[21,40,54,74,95,114,134,154,174,195,214,234,255,274,295,314,334,355,374,395,414,435,455,474,495,515,534,555,574,595,614,635,655,674,694,715,734,754,774,795,814,834,855,874,895,915,935,955,974,994,1014,1034,1055,1074,1095,1114,1135,1154,1174,1194,1214,1234,1254,1274,1294,1314,1334,1354],"xSR":741.5,"ySR":469.95,"xT1":424.9,"yT1":0,"xT2":1058.1,"yT2":0,"toosoon":0,"cond_shown":"Congruent","ratio_trial":300,"L_num":24,"L_den":30,"R_num":8,"R_den":16,"correct_side":1,"subjID":"MARIAJOSECAMBEROS29","gender":"1","school":"4","age":"9"},{"start_time":1552313132921,"click_time":1552313134799,"finger_time":1552313134338,"fix_duration":1480.5080658366403,"trial":41,"RT":1417,"MT":461,"sideResp":2,"stimulus":[],"xmouse":[766,766,766,766,766,766,766,766,766,766,766,766,766,766,766,766,766,766,766,766,766,766,766,766,766,766,766,766,766,766,766,766,766,766,766,766,766,766,766,766,766,766,766,766,766,766,766,766,766,766,766,766,766,766,766,766,766,766,766,766,766,766,766,767,768,772,776,785,800,821,851,863,881,893,906,923,961,981,998,1013,1033,1039,1049,1053,1063,1071,1083,1088,1091,1092,1092,1092,1089,1088],"ymouse":[508,508,508,508,508,508,508,508,508,508,508,508,508,508,508,508,508,508,508,508,508,508,508,508,508,508,508,508,508,508,508,508,508,508,508,508,508,508,508,508,508,508,508,508,508,508,508,508,508,508,508,508,508,508,508,508,508,508,508,508,508,508,508,508,508,508,508,506,502,496,487,481,471,464,456,446,417,403,389,376,352,342,324,315,300,283,241,219,196,176,158,123,100,76],"timestamp_mouse":[17,37,57,78,98,118,138,157,178,197,217,237,258,278,297,317,337,358,377,397,417,438,458,478,498,517,538,558,577,598,617,638,658,678,698,718,737,758,777,797,817,837,858,878,898,917,937,958,977,998,1017,1037,1058,1077,1098,1118,1137,1157,1177,1198,1217,1237,1258,1277,1297,1317,1337,1358,1378,1397,1417,1438,1458,1477,1497,1517,1537,1557,1577,1598,1618,1637,1657,1677,1697,1717,1737,1758,1777,1797,1818,1838,1857,1877],"xSR":741.5,"ySR":469.95,"xT1":424.9,"yT1":0,"xT2":1058.1,"yT2":0,"toosoon":0,"cond_shown":"Incongruent","ratio_trial":300,"L_num":1,"L_den":2,"R_num":3,"R_den":15,"correct_side":1,"subjID":"MARIAJOSECAMBEROS29","gender":"1","school":"4","age":"9"},{"start_time":1552313138374,"click_time":1552313139739,"finger_time":1552313138858,"fix_duration":1493.818713533012,"trial":42,"RT":484,"MT":881,"sideResp":2,"stimulus":[],"xmouse":[816,816,816,816,816,816,816,816,816,816,816,816,816,816,816,816,816,816,816,816,817,821,827,835,850,856,861,866,879,884,887,891,892,893,893,893,893,893,893,893,893,893,894,894,897,899,902,907,920,950,968,987,1012,1037,1094,1126,1167,1184,1196,1201,1201,1201,1201,1200,1193,1187,1178,1165,1138],"ymouse":[495,495,495,495,495,495,495,495,495,495,495,495,495,495,495,495,495,495,495,495,494,491,486,476,455,445,435,422,390,377,367,360,356,353,352,352,352,352,352,352,352,352,350,350,347,346,345,343,340,332,328,322,312,299,264,241,208,191,176,168,168,168,167,165,156,146,131,115,86],"timestamp_mouse":[14,36,44,64,85,105,124,144,165,185,205,224,245,265,284,305,324,345,365,384,404,424,445,464,484,504,525,544,566,584,604,624,645,664,684,704,724,745,765,785,804,824,844,864,884,904,924,945,965,984,1004,1024,1045,1065,1084,1104,1124,1144,1164,1184,1205,1225,1244,1264,1284,1304,1324,1344,1364],"xSR":741.5,"ySR":469.95,"xT1":424.9,"yT1":0,"xT2":1058.1,"yT2":0,"toosoon":0,"cond_shown":"Incongruent","ratio_trial":100,"L_num":6,"L_den":10,"R_num":13,"R_den":26,"correct_side":1,"subjID":"MARIAJOSECAMBEROS29","gender":"1","school":"4","age":"9"},{"start_time":1552313142941,"click_time":1552313144398,"finger_time":1552313143678,"fix_duration":1101.6667026660955,"trial":43,"RT":737,"MT":720,"sideResp":1,"stimulus":[],"xmouse":[770,770,775,777,778,779,779,779,779,779,779,779,779,779,779,779,779,779,779,779,779,779,779,779,779,779,779,779,779,779,779,780,783,791,799,807,826,838,843,846,838,817,789,754,722,722,722,722,722,722,722,722,722,722,535,531,530,530,530,530,530,530,530,530,530,530,530,530,530,529,524,519,513],"ymouse":[523,523,521,517,516,514,514,514,514,514,514,514,514,514,514,514,514,514,514,514,514,514,514,514,514,514,514,514,514,514,514,512,508,501,493,482,445,401,363,321,213,160,100,49,7,7,7,7,7,7,7,7,7,7,4,29,52,70,86,100,124,129,131,131,131,131,131,131,132,130,118,106,94],"timestamp_mouse":[17,41,58,78,98,118,138,158,178,197,217,238,258,278,298,317,338,357,378,398,418,437,458,477,498,517,538,558,578,597,617,637,658,677,697,717,737,757,777,797,818,837,857,878,898,918,937,957,978,997,1017,1037,1058,1077,1098,1118,1137,1157,1177,1197,1218,1237,1257,1278,1298,1317,1337,1356,1377,1397,1418,1437,1457],"xSR":741.5,"ySR":469.95,"xT1":424.9,"yT1":0,"xT2":1058.1,"yT2":0,"toosoon":0,"cond_shown":"Congruent","ratio_trial":100,"L_num":6,"L_den":12,"R_num":15,"R_den":25,"correct_side":2,"subjID":"MARIAJOSECAMBEROS29","gender":"1","school":"4","age":"9"},{"start_time":1552313146751,"click_time":1552313149818,"finger_time":1552313148279,"fix_duration":1069.945684939406,"trial":44,"RT":1528,"MT":1539,"sideResp":1,"stimulus":[],"xmouse":[820,820,820,820,820,820,820,820,820,820,820,820,820,820,820,820,820,820,820,820,820,820,820,820,820,820,820,820,820,820,820,820,820,820,820,820,820,820,820,820,820,820,820,820,820,820,820,820,820,820,820,820,820,820,820,820,820,820,820,820,820,820,820,820,820,820,820,820,820,820,820,820,820,818,813,813,811,808,803,798,786,745,722,702,675,664,640,625,605,583,564,551,550,550,549,549,549,551,557,565,577,604,625,677,716,751,783,785,785,785,785,773,762,744,729,708,643,599,557,520,493,465,464,464,466,476,512,531,545,557,570,587,595,599,602,602,602,602,603,603,600,582,572,565,560,558,554,551,550,549,548,543,536,522],"ymouse":[532,532,532,532,532,532,532,532,532,532,532,532,532,532,532,532,532,532,532,532,532,532,532,532,532,532,532,532,532,532,532,532,532,532,532,532,532,532,532,532,532,532,532,532,532,532,532,532,532,532,532,532,532,532,532,532,532,532,532,532,532,532,532,532,532,532,532,532,532,532,532,532,529,522,497,489,460,442,421,399,364,301,278,263,244,236,225,223,223,223,223,225,225,226,226,226,226,227,227,227,223,211,201,174,150,121,85,78,78,78,78,86,94,106,114,124,144,151,158,161,161,161,161,161,157,148,123,110,100,90,82,71,67,64,61,61,61,61,60,60,59,54,50,47,45,44,43,42,42,42,42,42,42,43],"timestamp_mouse":[13,29,47,67,88,108,127,147,168,188,208,228,247,268,288,307,327,347,368,387,408,428,448,468,487,507,528,548,568,588,607,627,647,668,687,708,728,748,767,787,808,828,847,868,887,907,928,948,968,988,1007,1028,1047,1068,1087,1108,1128,1148,1167,1188,1207,1228,1248,1267,1288,1307,1328,1347,1367,1388,1408,1427,1448,1467,1488,1508,1528,1547,1567,1587,1607,1627,1648,1668,1688,1707,1727,1747,1767,1788,1808,1827,1847,1867,1887,1908,1927,1947,1967,1987,2007,2027,2048,2067,2087,2107,2127,2148,2167,2187,2207,2227,2248,2267,2288,2308,2327,2348,2368,2388,2408,2427,2447,2467,2487,2507,2528,2547,2568,2587,2608,2627,2647,2667,2687,2707,2727,2748,2767,2787,2807,2827,2847,2868,2887,2907,2927,2948,2967,2987,3008,3027,3047,3067],"xSR":741.5,"ySR":469.95,"xT1":424.9,"yT1":0,"xT2":1058.1,"yT2":0,"toosoon":0,"cond_shown":"Congruent","ratio_trial":100,"L_num":6,"L_den":20,"R_num":5,"R_den":25,"correct_side":1,"subjID":"MARIAJOSECAMBEROS29","gender":"1","school":"4","age":"9"},{"start_time":1552313154265,"click_time":1552313155398,"finger_time":1552313154599,"fix_duration":1445.7982751531235,"trial":45,"RT":334,"MT":799,"sideResp":1,"stimulus":[],"xmouse":[793,793,793,793,793,793,793,793,793,793,793,793,793,793,793,793,794,794,795,796,796,796,792,786,781,772,740,724,707,691,679,663,657,650,641,628,606,596,588,583,581,581,581,581,578,573,569,565,560,556,551,544,541,537,532,527,518],"ymouse":[470,470,470,470,470,470,470,470,470,470,470,470,470,470,470,470,469,466,461,453,443,416,402,384,369,354,315,298,284,270,260,243,235,228,219,206,189,181,177,173,171,171,171,171,170,164,159,152,144,138,130,118,112,107,100,94,86],"timestamp_mouse":[14,36,53,74,94,113,134,154,173,194,213,234,254,273,294,314,334,353,373,393,413,433,453,473,494,513,534,553,573,594,613,633,653,673,694,713,733,753,773,793,813,833,854,873,893,914,933,953,973,993,1014,1033,1054,1073,1094,1113,1133],"xSR":741.5,"ySR":469.95,"xT1":424.9,"yT1":0,"xT2":1058.1,"yT2":0,"toosoon":0,"cond_shown":"Congruent","ratio_trial":200,"L_num":9,"L_den":30,"R_num":13,"R_den":26,"correct_side":2,"subjID":"MARIAJOSECAMBEROS29","gender":"1","school":"4","age":"9"},{"start_time":1552313158564,"click_time":1552313160518,"finger_time":1552313159698,"fix_duration":1184.5546136954165,"trial":46,"RT":1134,"MT":820,"sideResp":1,"stimulus":[],"xmouse":[770,770,770,770,770,770,770,770,770,770,770,770,770,770,770,770,770,770,770,770,770,774,777,779,781,783,785,785,785,785,785,785,785,785,785,785,785,785,785,785,785,785,785,785,785,785,785,785,785,785,786,786,786,787,787,787,787,784,778,760,730,604,604,604,604,604,604,604,604,604,604,604,604,604,302,313,351,368,388,407,423,437,452,454,457,461,468,473,477,481,485,492,494,496,497,498,499,500],"ymouse":[513,513,513,513,513,513,513,513,513,513,513,513,513,513,513,513,513,513,513,513,513,510,507,505,502,499,497,497,497,497,497,497,497,497,497,497,497,497,497,497,497,497,497,497,497,497,497,497,497,497,496,493,489,486,481,476,459,441,419,357,280,43,43,43,43,43,43,43,43,43,43,43,43,43,1,24,85,109,138,161,180,192,201,201,201,199,191,178,167,154,141,118,111,107,104,102,100,99],"timestamp_mouse":[14,35,54,74,95,115,135,155,174,194,215,235,254,275,294,315,335,355,375,395,414,434,454,475,495,515,534,554,574,594,615,634,654,675,694,715,734,754,775,794,815,834,854,875,895,915,934,955,975,995,1014,1034,1054,1074,1094,1115,1134,1155,1175,1195,1214,1235,1254,1274,1294,1314,1334,1355,1374,1394,1414,1434,1454,1474,1494,1515,1535,1554,1575,1595,1613,1634,1654,1674,1694,1714,1734,1754,1774,1794,1814,1834,1854,1875,1894,1915,1934,1954],"xSR":741.5,"ySR":469.95,"xT1":424.9,"yT1":0,"xT2":1058.1,"yT2":0,"toosoon":0,"cond_shown":"Incongruent","ratio_trial":100,"L_num":12,"L_den":30,"R_num":2,"R_den":4,"correct_side":2,"subjID":"MARIAJOSECAMBEROS29","gender":"1","school":"4","age":"9"},{"start_time":1552313167385,"click_time":1552313173219,"finger_time":1552313168099,"fix_duration":1405.1470444659187,"trial":47,"RT":714,"MT":5120,"sideResp":1,"stimulus":[],"xmouse":[754,754,754,754,754,754,754,754,754,754,754,754,754,754,754,754,754,754,754,754,754,754,754,754,754,754,754,754,754,754,754,754,754,754,754,754,754,753,752,752,750,748,746,745,745,745,745,745,745,745,745,745,745,745,745,745,745,745,745,745,745,745,745,745,745,745,745,745,745,745,745,745,745,745,745,745,745,745,745,745,745,745,745,745,745,745,745,745,745,745,745,745,745,745,745,745,745,745,745,745,745,745,745,745,745,745,745,745,745,745,745,745,745,745,745,745,745,745,745,745,745,745,745,745,745,745,745,745,745,745,745,745,745,745,745,745,745,746,763,787,811,850,862,863,864,864,868,870,871,871,871,871,871,871,871,871,871,871,871,871,871,871,871,871,871,871,871,865,849,829,808,789,754,745,739,732,720,712,704,699,695,689,684,682,682,674,654,642,624,604,586,566,562,557,551,542,534,533,530,528,527,527,526,527,529,533,533,534,533,532,531,529,521,514,510,505,500,499,499,499,499,499,491,483,472,472,472,472,472,472,472,472,472,472,472,472,472,472,472,472,472,472,432,456,497,552,662,705,721,725,725,725,725,725,724,721,717,714,714,714,714,712,711,704,698,685,672,636,625,619,611,598,567,560,556,556,555,555,555,554,554,554,554,554,554,553,552,549,546,541,535,504],"ymouse":[507,507,507,507,507,507,507,507,507,507,507,507,507,507,507,507,507,507,507,507,507,507,507,507,507,507,507,507,507,507,507,507,507,507,507,578,578,578,578,577,575,571,569,569,569,569,569,569,569,569,569,569,569,569,569,569,569,569,569,569,569,569,569,569,569,569,569,569,569,569,569,569,569,569,569,569,569,569,569,569,569,569,569,569,569,569,569,569,569,569,569,569,569,569,569,569,569,569,569,569,569,569,569,569,569,569,569,569,569,569,569,569,569,569,569,569,569,569,569,569,569,569,569,569,569,569,569,569,569,569,569,569,569,569,569,569,569,569,569,569,566,566,575,577,581,584,590,593,593,593,594,594,594,594,594,594,594,594,594,594,594,594,594,594,594,594,594,590,578,563,549,538,521,519,517,517,518,522,526,530,541,565,581,588,596,609,653,677,718,757,793,824,827,829,831,834,836,837,839,843,846,846,847,848,850,850,850,850,846,845,844,842,838,835,835,835,835,835,835,835,835,835,849,861,878,878,878,878,878,878,878,878,878,878,878,878,878,878,878,878,878,878,878,825,728,599,364,291,266,255,248,239,235,235,235,237,241,244,244,244,243,227,188,165,144,124,109,87,84,83,83,92,117,126,131,134,136,137,137,138,138,134,120,113,108,103,100,97,97,97,97,97],"timestamp_mouse":[14,43,54,74,94,114,134,153,174,194,213,233,254,273,294,314,334,354,374,394,414,433,454,474,493,514,533,553,574,594,613,633,653,674,693,714,734,754,773,793,814,833,853,873,894,914,933,953,974,993,1013,1033,1053,1074,1094,1114,1133,1153,1174,1193,1213,1233,1253,1274,1294,1314,1334,1353,1373,1394,1414,1433,1454,1473,1494,1514,1533,1554,1574,1594,1613,1634,1654,1674,1694,1714,1733,1754,1774,1793,1814,1833,1853,1874,1893,1914,1933,1954,1974,1994,2014,2033,2053,2074,2094,2113,2134,2154,2174,2194,2213,2233,2254,2274,2294,2314,2333,2353,2373,2393,2414,2434,2453,2474,2494,2513,2533,2553,2573,2593,2613,2633,2654,2673,2693,2713,2733,2753,2774,2793,2814,2834,2853,2874,2894,2913,2934,2953,2973,2993,3014,3033,3053,3073,3094,3113,3133,3153,3174,3193,3213,3234,3253,3274,3294,3313,3334,3353,3373,3393,3414,3433,3454,3473,3494,3513,3534,3553,3573,3594,3613,3634,3653,3673,3693,3713,3735,3753,3773,3793,3814,3834,3853,3873,3894,3913,3933,3953,3973,3994,4013,4033,4054,4074,4093,4114,4137,4155,4173,4193,4213,4234,4254,4273,4293,4314,4335,4353,4373,4394,4414,4433,4453,4473,4493,4513,4538,4555,4573,4593,4614,4635,4653,4673,4694,4714,4735,4754,4773,4793,4814,4833,4853,4873,4894,4913,4935,4953,4973,4994,5013,5033,5054,5074,5093,5113,5133,5155,5173,5193,5214,5233,5253,5273,5294,5314,5334,5353,5373,5394,5414,5433,5453,5473,5493,5513,5533,5554,5573,5593,5613,5633,5653,5673,5693,5713,5734,5752,5773,5793,5813,5834],"xSR":741.5,"ySR":469.95,"xT1":424.9,"yT1":0,"xT2":1058.1,"yT2":0,"toosoon":0,"cond_shown":"Incongruent","ratio_trial":100,"L_num":6,"L_den":12,"R_num":3,"R_den":5,"correct_side":2,"subjID":"MARIAJOSECAMBEROS29","gender":"1","school":"4","age":"9"},{"start_time":1552313175481,"click_time":1552313177458,"finger_time":1552313176919,"fix_duration":981.9963293799689,"trial":48,"RT":1438,"MT":539,"sideResp":2,"stimulus":[],"xmouse":[817,817,817,817,817,817,817,817,817,817,817,817,817,817,817,817,817,817,817,817,817,817,817,817,817,816,815,815,814,814,813,812,810,810,808,808,808,808,807,806,804,803,803,803,803,803,803,803,803,803,803,803,803,803,803,803,803,803,803,803,803,803,803,803,803,803,803,803,803,802,806,814,840,846,847,852,858,873,880,886,893,897,904,904,905,906,906,906,906,906,908,913,933,943,962,972,985,1027,1062],"ymouse":[640,640,640,640,640,640,640,640,640,640,640,640,640,640,640,640,640,640,640,640,640,640,636,633,629,627,623,620,619,618,617,616,615,615,615,614,614,614,614,614,613,612,612,612,612,612,612,612,612,612,612,612,612,612,612,612,612,612,612,612,612,612,612,612,612,612,612,612,612,607,591,564,454,405,347,314,290,249,234,219,205,196,183,181,179,179,179,179,179,178,176,174,167,162,152,144,132,92,56],"timestamp_mouse":[17,38,58,78,97,117,138,157,178,198,217,238,258,278,298,318,338,357,378,398,417,437,457,478,498,518,537,557,577,597,617,637,657,677,697,717,737,758,777,797,817,838,859,878,897,917,938,957,977,997,1017,1037,1057,1077,1098,1117,1138,1158,1178,1198,1218,1237,1258,1277,1298,1317,1338,1358,1377,1397,1418,1438,1458,1477,1497,1518,1537,1557,1577,1597,1617,1637,1657,1678,1697,1718,1737,1758,1777,1798,1817,1838,1857,1878,1897,1917,1937,1957,1977],"xSR":741.5,"ySR":573.95,"xT1":424.9,"yT1":0,"xT2":1058.1,"yT2":0,"toosoon":0,"cond_shown":"Incongruent","ratio_trial":200,"L_num":4,"L_den":6,"R_num":14,"R_den":30,"correct_side":1,"subjID":"MARIAJOSECAMBEROS29","gender":"1","school":"4","age":"9"},{"start_time":1552313180210,"click_time":1552313181759,"finger_time":1552313181199,"fix_duration":250,"trial":49,"RT":989,"MT":560,"sideResp":1,"stimulus":[],"xmouse":[773,773,773,773,773,773,773,773,773,773,773,773,773,773,773,773,773,773,773,773,773,773,773,773,773,773,773,773,773,773,773,773,773,773,773,773,773,773,773,773,773,773,773,773,773,773,773,773,773,773,772,762,730,709,683,657,627,550,526,508,495,487,487,487,487,486,486,485,485,485,485,485,485,485,485,485,485,485],"ymouse":[607,607,607,607,607,607,607,607,607,607,607,607,607,607,607,607,607,607,607,607,607,607,607,607,607,607,607,607,607,607,607,607,607,607,607,607,607,607,607,607,607,607,607,607,607,607,607,599,588,570,548,513,436,392,349,304,260,187,172,165,162,160,160,160,160,160,150,144,143,143,143,143,143,143,140,120,100,64],"timestamp_mouse":[14,45,48,69,88,109,128,149,168,189,208,228,248,269,288,308,329,348,369,389,409,429,449,468,489,508,529,549,569,588,608,629,649,669,689,709,728,748,768,788,809,828,849,869,888,908,929,949,968,989,1008,1028,1048,1069,1088,1108,1128,1149,1168,1189,1208,1229,1248,1268,1288,1308,1329,1348,1368,1389,1408,1429,1449,1469,1488,1508,1528,1549],"xSR":741.5,"ySR":573.95,"xT1":424.9,"yT1":0,"xT2":1058.1,"yT2":0,"toosoon":0,"cond_shown":"Congruent","ratio_trial":200,"L_num":3,"L_den":10,"R_num":11,"R_den":22,"correct_side":2,"subjID":"MARIAJOSECAMBEROS29","gender":"1","school":"4","age":"9"},{"start_time":1552313192429,"click_time":1552313194479,"finger_time":1552313193778,"fix_duration":1468.6907229143565,"trial":50,"RT":1349,"MT":701,"sideResp":2,"stimulus":[],"xmouse":[772,772,772,772,772,772,772,772,772,772,772,772,772,772,772,772,772,772,772,772,772,772,772,772,772,772,772,772,772,772,772,772,772,772,772,772,772,772,772,772,772,772,772,772,772,772,772,772,772,772,772,772,772,772,772,772,772,772,772,772,772,772,772,772,773,776,787,817,829,845,874,921,974,992,1006,1018,1027,1033,1035,1035,1035,1035,1035,1035,1035,1035,1035,1035,1037,1039,1041,1044,1047,1047,1047,1047,1047,1047,1047,1047,1047,1049,1059],"ymouse":[637,637,637,637,637,637,637,637,637,637,637,637,637,637,637,637,637,637,637,637,637,637,637,637,637,637,637,637,637,637,637,637,637,637,637,637,637,637,637,637,637,637,637,637,637,637,637,637,637,637,637,637,637,637,637,637,637,637,637,637,637,637,635,634,632,628,611,550,516,457,389,280,156,116,74,38,8,0,0,0,0,0,0,1,8,14,20,23,30,36,42,45,49,49,50,50,50,50,50,50,50,50,53],"timestamp_mouse":[11,29,49,70,89,109,129,150,169,189,210,230,249,270,289,310,329,349,370,390,409,430,450,469,490,509,529,550,570,589,610,630,650,670,689,710,730,749,770,790,809,830,849,869,890,909,930,949,971,990,1009,1030,1049,1070,1089,1110,1129,1150,1169,1190,1210,1229,1250,1269,1290,1309,1329,1349,1369,1389,1410,1430,1450,1469,1490,1509,1529,1550,1569,1590,1609,1630,1649,1669,1689,1709,1729,1749,1770,1789,1810,1830,1850,1869,1890,1909,1930,1949,1970,1990,2008,2029,2049],"xSR":741.5,"ySR":573.95,"xT1":424.9,"yT1":0,"xT2":1058.1,"yT2":0,"toosoon":0,"cond_shown":"Incongruent","ratio_trial":100,"L_num":3,"L_den":5,"R_num":8,"R_den":16,"correct_side":1,"subjID":"MARIAJOSECAMBEROS29","gender":"1","school":"4","age":"9"},{"start_time":1552313198684,"click_time":1552313200558,"finger_time":1552313199838,"fix_duration":1244.8502217338423,"trial":51,"RT":1154,"MT":720,"sideResp":1,"stimulus":[],"xmouse":[807,807,807,807,807,807,807,807,807,807,807,807,807,807,807,807,807,807,807,807,807,807,807,807,807,807,807,807,807,807,807,807,807,807,807,807,807,807,807,807,807,807,807,807,806,806,806,806,806,806,806,806,806,806,806,806,806,808,811,814,816,816,817,817,818,814,805,793,773,696,653,618,586,542,514,474,464,460,459,459,465,473,483,502,507,530,534,536,536,536,536,533,530,520],"ymouse":[587,587,587,587,587,587,587,587,587,587,587,587,587,587,587,587,587,587,587,587,587,587,587,587,587,587,587,587,587,587,587,587,587,587,587,587,587,587,587,587,587,587,587,587,587,587,587,587,587,587,587,587,587,587,587,581,574,564,555,546,535,532,528,523,516,500,487,472,454,399,373,349,330,304,283,252,240,231,227,224,217,208,197,174,168,127,115,109,105,103,93,85,78,62],"timestamp_mouse":[16,46,54,75,94,114,134,154,174,194,214,234,255,275,294,315,334,355,374,395,415,434,455,475,495,515,534,554,575,594,614,634,654,675,694,715,735,754,774,794,814,835,855,875,894,914,935,954,975,995,1014,1034,1055,1075,1094,1114,1134,1154,1175,1194,1214,1234,1254,1275,1294,1314,1334,1355,1374,1395,1414,1435,1454,1474,1494,1514,1534,1554,1574,1594,1614,1635,1654,1675,1695,1714,1734,1754,1774,1794,1814,1835,1854,1874],"xSR":741.5,"ySR":573.95,"xT1":424.9,"yT1":0,"xT2":1058.1,"yT2":0,"toosoon":0,"cond_shown":"Congruent","ratio_trial":200,"L_num":7,"L_den":21,"R_num":2,"R_den":15,"correct_side":1,"subjID":"MARIAJOSECAMBEROS29","gender":"1","school":"4","age":"9"},{"start_time":1552313205033,"click_time":1552313206519,"finger_time":1552313205998,"fix_duration":1034.8349722943171,"trial":52,"RT":965,"MT":521,"sideResp":1,"stimulus":[],"xmouse":[800,800,800,800,800,800,800,800,800,800,800,800,800,800,800,800,800,800,800,800,800,800,800,800,801,801,801,802,803,803,803,803,803,803,803,803,803,803,803,803,803,803,803,803,799,792,784,774,747,732,719,705,691,666,656,642,632,622,599,589,579,569,560,540,534,529,527,527,527,529,531,532,532,531,522],"ymouse":[625,625,625,625,625,625,625,625,625,625,625,625,625,625,625,625,625,625,625,625,625,625,625,625,623,622,621,621,618,618,618,618,618,618,618,618,618,618,618,618,618,618,618,618,614,610,602,591,558,539,522,506,487,449,428,395,371,349,312,295,279,260,240,194,180,168,163,160,152,143,133,118,106,95,78],"timestamp_mouse":[13,35,46,65,85,105,126,146,166,186,205,226,245,266,285,305,326,346,367,385,406,426,445,465,485,505,526,546,565,585,605,625,646,665,686,706,725,745,766,785,806,825,845,865,886,905,926,945,965,985,1006,1025,1045,1065,1085,1105,1126,1145,1165,1185,1205,1226,1246,1266,1285,1305,1326,1345,1365,1385,1405,1425,1446,1465,1485],"xSR":741.5,"ySR":573.95,"xT1":424.9,"yT1":0,"xT2":1058.1,"yT2":0,"toosoon":0,"cond_shown":"Congruent","ratio_trial":100,"L_num":7,"L_den":14,"R_num":9,"R_den":15,"correct_side":2,"subjID":"MARIAJOSECAMBEROS29","gender":"1","school":"4","age":"9"},{"start_time":1552313214150,"click_time":1552313215798,"finger_time":1552313215118,"fix_duration":1129.6220839730308,"trial":53,"RT":968,"MT":680,"sideResp":2,"stimulus":[],"xmouse":[799,799,799,799,799,799,799,799,799,799,799,799,799,799,799,799,799,799,799,799,799,799,799,799,799,799,799,799,799,799,799,799,799,799,799,799,799,799,799,799,799,802,806,810,811,815,823,834,884,917,942,964,984,1027,1084,1131,1185,1240,1335,1363,1378,1385,1385,1381,1363,1350,1334,1320,1308,1289,1284,1279,1274,1266,1253,1246,1242,1238,1233,1212,1192,1168,1145],"ymouse":[647,647,647,647,647,647,647,647,647,647,647,647,647,647,647,647,647,647,647,647,647,647,647,647,647,647,647,647,647,647,647,647,647,647,647,647,647,647,647,647,647,645,642,638,638,638,638,638,638,638,635,629,617,559,475,409,331,242,54,0,0,0,0,0,0,0,2,6,9,14,16,19,22,27,35,38,39,39,39,39,37,36,36],"timestamp_mouse":[12,34,49,68,89,109,128,149,169,189,209,229,249,268,289,308,329,348,368,389,408,429,448,469,488,508,528,548,569,588,609,629,649,669,689,709,728,748,769,788,808,828,849,868,888,908,929,949,968,988,1009,1028,1048,1068,1088,1109,1128,1149,1169,1188,1208,1228,1249,1268,1288,1309,1329,1348,1369,1388,1408,1428,1449,1468,1489,1508,1529,1548,1570,1588,1609,1629,1648],"xSR":741.5,"ySR":573.95,"xT1":424.9,"yT1":0,"xT2":1058.1,"yT2":0,"toosoon":0,"cond_shown":"Incongruent","ratio_trial":100,"L_num":2,"L_den":4,"R_num":8,"R_den":20,"correct_side":1,"subjID":"MARIAJOSECAMBEROS29","gender":"1","school":"4","age":"9"},{"start_time":1552313221866,"click_time":1552313223018,"finger_time":1552313222738,"fix_duration":1127.503195211464,"trial":54,"RT":872,"MT":280,"sideResp":1,"stimulus":[],"xmouse":[792,792,792,792,792,792,792,792,792,792,792,792,792,792,792,792,792,792,792,792,792,792,792,792,792,792,792,792,792,792,792,792,792,792,792,792,792,792,792,792,792,789,787,776,758,739,716,689,657,600,577,558,547,531,528,526,525,524],"ymouse":[615,615,615,615,615,615,615,615,615,615,615,615,615,615,615,615,615,615,615,615,615,615,615,615,615,615,615,615,615,615,615,615,615,615,615,615,615,615,615,615,615,614,607,559,501,457,415,365,305,192,145,113,89,52,42,36,33,31],"timestamp_mouse":[14,42,52,73,93,112,132,152,172,192,213,233,252,273,292,313,332,352,373,393,412,432,453,472,493,512,532,553,572,593,612,633,652,672,692,713,733,752,773,792,812,832,852,872,892,912,932,952,972,992,1013,1032,1053,1072,1092,1113,1133,1152],"xSR":741.5,"ySR":573.95,"xT1":424.9,"yT1":0,"xT2":1058.1,"yT2":0,"toosoon":0,"cond_shown":"Incongruent","ratio_trial":200,"L_num":1,"L_den":2,"R_num":3,"R_den":10,"correct_side":1,"subjID":"MARIAJOSECAMBEROS29","gender":"1","school":"4","age":"9"},{"start_time":1552313228408,"click_time":1552313230178,"finger_time":1552313229519,"fix_duration":787.6370298567344,"trial":55,"RT":1111,"MT":659,"sideResp":2,"stimulus":[],"xmouse":[752,752,752,752,752,752,752,752,752,752,752,752,752,752,752,752,752,752,752,752,752,752,752,752,752,752,752,752,752,752,752,752,752,752,752,752,752,752,752,752,752,752,752,752,752,752,752,752,752,752,752,756,771,779,788,799,809,833,851,864,878,886,892,892,892,892,893,902,908,917,925,933,950,959,970,976,985,1002,1009,1013,1015,1017,1021,1023,1027,1034,1040,1054,1059],"ymouse":[625,625,625,625,625,625,625,625,625,625,625,625,625,625,625,625,625,625,625,625,625,625,625,625,625,625,625,625,625,625,625,625,625,625,625,625,625,625,625,625,625,625,625,625,625,625,625,625,625,625,625,621,606,596,584,568,553,510,477,445,412,390,342,313,303,284,272,246,235,224,212,201,178,168,155,149,140,129,125,122,119,117,114,112,109,107,105,101,99],"timestamp_mouse":[15,41,50,70,90,111,130,150,171,190,210,230,250,270,290,311,331,351,371,391,410,430,451,470,490,511,530,551,570,591,611,631,651,671,690,711,731,751,770,790,811,831,850,870,890,910,931,950,970,990,1011,1030,1050,1070,1090,1111,1131,1150,1170,1190,1210,1230,1250,1270,1290,1310,1330,1350,1370,1390,1411,1431,1451,1470,1491,1510,1530,1550,1570,1591,1610,1630,1650,1670,1691,1710,1730,1750,1770],"xSR":741.5,"ySR":573.95,"xT1":424.9,"yT1":0,"xT2":1058.1,"yT2":0,"toosoon":0,"cond_shown":"Congruent","ratio_trial":100,"L_num":15,"L_den":25,"R_num":13,"R_den":26,"correct_side":1,"subjID":"MARIAJOSECAMBEROS29","gender":"1","school":"4","age":"9"},{"start_time":1552313237447,"click_time":1552313239459,"finger_time":1552313238559,"fix_duration":848.3283899452541,"trial":56,"RT":1112,"MT":900,"sideResp":2,"stimulus":[],"xmouse":[779,779,779,779,779,779,779,779,779,779,779,779,779,779,779,779,779,779,779,779,779,779,779,779,779,779,779,779,779,779,779,779,779,779,779,779,779,779,779,779,779,779,779,779,779,779,779,779,779,779,779,779,780,782,785,788,793,798,799,808,815,825,853,870,888,906,950,1007,1028,1094,1136,1200,1217,1226,1230,1232,1232,1232,1232,1232,1232,1228,1224,1218,1214,1207,1186,1181,1178,1174,1173,1171,1170,1167,1163,1158,1150,1145,1142,1139,1136],"ymouse":[592,592,592,592,592,592,592,592,592,592,592,592,592,592,592,592,592,592,592,592,592,592,592,592,592,592,592,592,592,592,592,592,592,592,592,592,592,592,592,592,592,592,592,592,592,592,592,592,592,592,592,591,588,583,578,573,564,557,555,546,536,525,493,473,454,434,399,368,356,319,290,241,225,213,205,200,198,197,196,192,186,170,163,156,151,145,129,126,122,119,118,117,116,115,113,110,106,102,101,100,99],"timestamp_mouse":[10,30,