[{"start_time":1552313768425,"click_time":1552313771913,"finger_time":1552313771451,"fix_duration":250,"trial":0,"RT":3026,"MT":462,"sideResp":2,"stimulus":"img/900/randomdotsizeEA/L/4_Ratio_900_L_20_R_18.png","xmouse":[808,808,808,808,808,808,808,808,808,808,808,808,808,808,808,808,808,808,808,808,808,808,808,808,808,808,808,808,808,808,808,808,808,808,808,808,808,808,808,808,808,808,808,808,808,808,808,808,808,808,808,808,808,808,808,808,808,808,808,808,808,808,808,808,808,808,808,808,808,808,808,808,808,808,808,808,808,808,808,808,808,808,808,808,808,808,808,808,808,808,808,808,808,808,808,808,808,808,808,808,808,808,808,808,808,808,808,808,808,808,808,808,808,808,808,808,808,808,808,808,808,808,808,808,808,808,808,808,808,808,808,808,808,808,808,808,808,808,808,808,808,808,808,808,808,808,808,808,808,809,814,874,881,881,876,870,884,914,966,1029,1086,1169,1184,1187,1182,1168,1133,1121,1108,1097,1087,1063,1058,1058,1061],"ymouse":[551,551,551,551,551,551,551,551,551,551,551,551,551,551,551,551,551,551,551,551,551,551,551,551,551,551,551,551,551,551,551,551,551,551,551,551,551,551,551,551,551,551,551,551,551,551,551,551,551,551,551,551,551,551,551,551,551,551,551,551,551,551,551,551,551,551,551,551,551,551,551,551,551,551,551,551,551,551,551,551,551,551,551,551,551,551,551,551,551,551,551,551,551,551,551,551,551,551,551,551,551,551,551,551,551,551,551,551,551,551,551,551,551,551,551,551,551,551,551,551,551,551,551,551,551,551,551,551,551,551,551,551,551,551,551,551,551,551,551,551,551,551,551,551,551,551,551,551,551,552,553,588,591,591,587,583,580,580,580,580,572,540,520,494,451,399,301,267,240,214,188,130,114,101,94],"timestamp_mouse":[6,39,47,66,86,106,128,146,166,187,207,228,246,267,287,306,327,346,366,388,407,426,448,467,487,506,527,548,566,587,606,626,646,667,687,707,726,746,766,787,806,827,848,867,887,906,926,948,967,987,1008,1028,1048,1066,1086,1106,1128,1146,1166,1187,1207,1226,1246,1268,1286,1306,1327,1346,1366,1388,1406,1426,1446,1468,1487,1506,1528,1547,1567,1586,1606,1626,1646,1666,1686,1706,1728,1747,1767,1787,1806,1826,1846,1866,1886,1906,1927,1946,1966,1986,2006,2028,2048,2066,2087,2107,2127,2148,2167,2187,2206,2226,2247,2267,2287,2306,2327,2348,2367,2388,2406,2427,2447,2467,2488,2507,2527,2547,2568,2587,2606,2627,2647,2667,2686,2707,2728,2747,2767,2786,2806,2826,2846,2866,2887,2907,2928,2946,2967,2986,3007,3026,3047,3066,3087,3106,3126,3147,3166,3186,3206,3226,3246,3266,3286,3306,3327,3346,3367,3387,3406,3427,3446,3466,3487],"xSR":741.5,"ySR":501.8,"xT1":424.9,"yT1":0,"xT2":1058.1,"yT2":0,"toosoon":0,"cond_shown":"randomdotsizeEA","ratio_trial":900,"smaller_num":"18","larger_num":"20","correct_side":1,"subjID":"MARIAJOSECAMBEROS29","gender":"1","age":"9","school":"4","test":{"fix_dur":[250,1500],"timestim":300,"targets_dim":[100,100],"targets_relative_coord":[0.3,0.7],"size_stim":[880,420],"start_dim":[100,100],"size_start":[300,300],"size_fix":60,"samplingrate":20,"img_types":["equaldotsize","equaldotanddens","randomdotsizeEA"],"ratios":[250,500,750,900],"rep_conds":9,"nTrials":120,"trials_to_rest":500,"Trials_order":[119,4,98,100,23,9,60,18,51,106,86,112,27,83,59,10,25,67,8,104,20,110,54,33,118,38,80,84,16,89,11,74,42,53,50,73,39,90,70,58,6,3,13,52,114,99,1,97,41,63,81,95,37,76,48,88,57,26,14,45,109,117,77,75,36,61,79,21,55,34,2,30,29,47,116,78,15,72,87,91,102,32,12,96,24,0,93,92,103,82,40,64,56,105,17,66,35,71,62,108,7,113,28,49,31,68,107,111,19,115,101,46,65,22,43,44,85,5,69,94],"cond_shown":["randomdotsizeEA","equaldotanddens","randomdotsizeEA","equaldotanddens","randomdotsizeEA","equaldotsize","equaldotsize","equaldotsize","equaldotsize","equaldotanddens","randomdotsizeEA","equaldotanddens","equaldotsize","randomdotsizeEA","randomdotsizeEA","equaldotanddens","equaldotanddens","equaldotanddens","randomdotsizeEA","randomdotsizeEA","randomdotsizeEA","randomdotsizeEA","equaldotsize","equaldotsize","equaldotanddens","randomdotsizeEA","randomdotsizeEA","equaldotsize","equaldotanddens","randomdotsizeEA","randomdotsizeEA","randomdotsizeEA","equaldotsize","randomdotsizeEA","randomdotsizeEA","equaldotanddens","equaldotsize","equaldotsize","equaldotanddens","equaldotanddens","equaldotsize","equaldotsize","equaldotanddens","equaldotanddens","equaldotsize","equaldotsize","equaldotanddens","equaldotanddens","randomdotsizeEA","equaldotsize","equaldotsize","randomdotsizeEA","equaldotanddens","equaldotanddens","equaldotsize","equaldotanddens","equaldotsize","randomdotsizeEA","randomdotsizeEA","equaldotsize","equaldotanddens","equaldotsize","randomdotsizeEA","equaldotsize","equaldotsize","equaldotanddens","equaldotanddens","equaldotsize","equaldotanddens","equaldotanddens","randomdotsizeEA","equaldotsize","randomdotsizeEA","randomdotsizeEA","randomdotsizeEA","equaldotsize","equaldotsize","equaldotsize","equaldotsize","equaldotanddens","equaldotsize","randomdotsizeEA","equaldotsize","equaldotsize","equaldotsize","equaldotsize","equaldotsize","randomdotsizeEA","equaldotanddens","equaldotanddens","equaldotanddens","equaldotanddens","randomdotsizeEA","equaldotsize","randomdotsizeEA","equaldotsize","randomdotsizeEA","randomdotsizeEA","randomdotsizeEA","equaldotsize","equaldotanddens","randomdotsizeEA","equaldotanddens","equaldotanddens","equaldotanddens","randomdotsizeEA","randomdotsizeEA","equaldotsize","equaldotanddens","equaldotanddens","randomdotsizeEA","equaldotanddens","randomdotsizeEA","equaldotanddens","equaldotanddens","randomdotsizeEA","equaldotanddens","randomdotsizeEA","equaldotsize","equaldotanddens"],"ratio_trial":[900,500,250,500,900,900,250,750,500,900,250,500,500,900,900,900,250,750,750,750,750,250,750,900,900,250,750,250,500,500,900,250,750,500,250,250,500,750,900,900,750,500,250,500,750,500,250,250,500,500,900,900,250,500,250,500,900,250,250,900,250,900,500,500,250,250,750,900,750,900,250,750,500,900,750,750,500,250,500,750,750,750,250,250,250,250,900,750,750,900,500,500,750,900,500,750,900,900,250,250,750,500,500,250,750,750,900,500,750,750,500,900,500,900,750,750,250,500,900,900],"smaller_num":["18","4","3","6","9","9","4","6","6","18","3","3","2","18","9","9","4","3","3","12","6","5","15","18","9","5","9","2","2","3","9","2","9","1","1","6","1","3","18","18","3","2","3","6","3","9","3","3","1","9","18","18","3","9","6","1","9","2","5","9","4","18","6","1","2","3","18","9","15","9","3","3","9","18","15","3","1","2","6","15","18","6","2","4","3","3","18","3","15","9","9","1","12","9","1","9","9","18","1","2","15","2","5","3","12","3","18","9","3","3","9","18","6","18","15","15","2","2","18","18"],"larger_num":["20","8","12","12","10","10","16","8","12","20","12","6","4","20","10","10","16","4","4","16","8","20","20","20","10","20","12","8","4","6","10","8","12","2","4","24","2","4","20","20","4","4","12","12","4","18","12","12","2","18","20","20","12","18","24","2","10","8","20","10","16","20","12","2","8","12","24","10","20","10","12","4","18","20","20","4","2","8","12","20","24","8","8","16","12","12","20","4","20","10","18","2","16","10","2","12","10","20","4","8","20","4","10","12","16","4","20","18","4","4","18","20","12","20","20","20","8","4","20","20"],"correct_side":[1,1,2,1,2,2,2,1,1,1,2,2,2,1,2,2,1,2,2,2,2,2,2,1,2,2,2,1,1,2,1,1,2,2,2,1,2,1,1,1,1,2,1,1,1,1,1,2,2,1,2,1,2,2,2,2,2,2,2,2,2,1,1,2,1,1,1,1,2,2,1,1,2,2,2,2,2,2,1,2,1,2,1,1,2,1,1,1,2,2,2,2,2,2,2,2,2,2,2,1,2,1,2,2,2,2,2,1,1,1,2,2,1,1,2,1,1,1,1,2],"img_shown":["img/900/randomdotsizeEA/L/4_Ratio_900_L_20_R_18.png","img/500/equaldotanddens/L/8_Ratio_500_L_8_R_4.png","img/250/randomdotsizeEA/R/11_Ratio_250_L_3_R_12.png","img/500/equaldotanddens/L/11_Ratio_500_L_12_R_6.png","img/900/randomdotsizeEA/R/3_Ratio_900_L_9_R_10.png","img/900/equaldotsize/R/15_Ratio_900_L_9_R_10.png","img/250/equaldotsize/R/10_Ratio_250_L_4_R_16.png","img/750/equaldotsize/L/13_Ratio_750_L_8_R_6.png","img/500/equaldotsize/L/11_Ratio_500_L_12_R_6.png","img/900/equaldotanddens/L/8_Ratio_900_L_20_R_18.png","img/250/randomdotsizeEA/R/4_Ratio_250_L_3_R_12.png","img/500/equaldotanddens/R/2_Ratio_500_L_3_R_6.png","img/500/equaldotsize/R/9_Ratio_500_L_2_R_4.png","img/900/randomdotsizeEA/L/2_Ratio_900_L_20_R_18.png","img/900/randomdotsizeEA/R/3_Ratio_900_L_9_R_10.png","img/900/equaldotanddens/R/15_Ratio_900_L_9_R_10.png","img/250/equaldotanddens/L/2_Ratio_250_L_16_R_4.png","img/750/equaldotanddens/R/12_Ratio_750_L_3_R_4.png","img/750/randomdotsizeEA/R/7_Ratio_750_L_3_R_4.png","img/750/randomdotsizeEA/R/11_Ratio_750_L_12_R_16.png","img/750/randomdotsizeEA/R/2_Ratio_750_L_6_R_8.png","img/250/randomdotsizeEA/R/12_Ratio_250_L_5_R_20.png","img/750/equaldotsize/R/5_Ratio_750_L_15_R_20.png","img/900/equaldotsize/L/10_Ratio_900_L_20_R_18.png","img/900/equaldotanddens/R/3_Ratio_900_L_9_R_10.png","img/250/randomdotsizeEA/R/12_Ratio_250_L_5_R_20.png","img/750/randomdotsizeEA/R/15_Ratio_750_L_9_R_12.png","img/250/equaldotsize/L/1_Ratio_250_L_8_R_2.png","img/500/equaldotanddens/L/5_Ratio_500_L_4_R_2.png","img/500/randomdotsizeEA/R/2_Ratio_500_L_3_R_6.png","img/900/randomdotsizeEA/L/1_Ratio_900_L_10_R_9.png","img/250/randomdotsizeEA/L/7_Ratio_250_L_8_R_2.png","img/750/equaldotsize/R/15_Ratio_750_L_9_R_12.png","img/500/randomdotsizeEA/R/15_Ratio_500_L_1_R_2.png","img/250/randomdotsizeEA/R/8_Ratio_250_L_1_R_4.png","img/250/equaldotanddens/L/5_Ratio_250_L_24_R_6.png","img/500/equaldotsize/R/12_Ratio_500_L_1_R_2.png","img/750/equaldotsize/L/10_Ratio_750_L_4_R_3.png","img/900/equaldotanddens/L/8_Ratio_900_L_20_R_18.png","img/900/equaldotanddens/L/4_Ratio_900_L_20_R_18.png","img/750/equaldotsize/L/10_Ratio_750_L_4_R_3.png","img/500/equaldotsize/R/9_Ratio_500_L_2_R_4.png","img/250/equaldotanddens/L/14_Ratio_250_L_12_R_3.png","img/500/equaldotanddens/L/11_Ratio_500_L_12_R_6.png","img/750/equaldotsize/L/10_Ratio_750_L_4_R_3.png","img/500/equaldotsize/L/4_Ratio_500_L_18_R_9.png","img/250/equaldotanddens/L/14_Ratio_250_L_12_R_3.png","img/250/equaldotanddens/R/4_Ratio_250_L_3_R_12.png","img/500/randomdotsizeEA/R/15_Ratio_500_L_1_R_2.png","img/500/equaldotsize/L/4_Ratio_500_L_18_R_9.png","img/900/equaldotsize/R/12_Ratio_900_L_18_R_20.png","img/900/randomdotsizeEA/L/2_Ratio_900_L_20_R_18.png","img/250/equaldotanddens/R/9_Ratio_250_L_3_R_12.png","img/500/equaldotanddens/R/6_Ratio_500_L_9_R_18.png","img/250/equaldotsize/R/6_Ratio_250_L_6_R_24.png","img/500/equaldotanddens/R/12_Ratio_500_L_1_R_2.png","img/900/equaldotsize/R/15_Ratio_900_L_9_R_10.png","img/250/randomdotsizeEA/R/13_Ratio_250_L_2_R_8.png","img/250/randomdotsizeEA/R/12_Ratio_250_L_5_R_20.png","img/900/equaldotsize/R/3_Ratio_900_L_9_R_10.png","img/250/equaldotanddens/R/10_Ratio_250_L_4_R_16.png","img/900/equaldotsize/L/4_Ratio_900_L_20_R_18.png","img/500/randomdotsizeEA/L/11_Ratio_500_L_12_R_6.png","img/500/equaldotsize/R/12_Ratio_500_L_1_R_2.png","img/250/equaldotsize/L/7_Ratio_250_L_8_R_2.png","img/250/equaldotanddens/L/14_Ratio_250_L_12_R_3.png","img/750/equaldotanddens/L/6_Ratio_750_L_24_R_18.png","img/900/equaldotsize/L/1_Ratio_900_L_10_R_9.png","img/750/equaldotanddens/R/4_Ratio_750_L_15_R_20.png","img/900/equaldotanddens/R/3_Ratio_900_L_9_R_10.png","img/250/randomdotsizeEA/L/14_Ratio_250_L_12_R_3.png","img/750/equaldotsize/L/9_Ratio_750_L_4_R_3.png","img/500/randomdotsizeEA/R/1_Ratio_500_L_9_R_18.png","img/900/randomdotsizeEA/R/14_Ratio_900_L_18_R_20.png","img/750/randomdotsizeEA/R/5_Ratio_750_L_15_R_20.png","img/750/equaldotsize/R/12_Ratio_750_L_3_R_4.png","img/500/equaldotsize/R/12_Ratio_500_L_1_R_2.png","img/250/equaldotsize/R/13_Ratio_250_L_2_R_8.png","img/500/equaldotsize/L/11_Ratio_500_L_12_R_6.png","img/750/equaldotanddens/R/5_Ratio_750_L_15_R_20.png","img/750/equaldotsize/L/6_Ratio_750_L_24_R_18.png","img/750/randomdotsizeEA/R/2_Ratio_750_L_6_R_8.png","img/250/equaldotsize/L/7_Ratio_250_L_8_R_2.png","img/250/equaldotsize/L/2_Ratio_250_L_16_R_4.png","img/250/equaldotsize/R/9_Ratio_250_L_3_R_12.png","img/250/equaldotsize/L/14_Ratio_250_L_12_R_3.png","img/900/equaldotsize/L/8_Ratio_900_L_20_R_18.png","img/750/randomdotsizeEA/L/8_Ratio_750_L_4_R_3.png","img/750/equaldotanddens/R/3_Ratio_750_L_15_R_20.png","img/900/equaldotanddens/R/7_Ratio_900_L_9_R_10.png","img/500/equaldotanddens/R/6_Ratio_500_L_9_R_18.png","img/500/equaldotanddens/R/12_Ratio_500_L_1_R_2.png","img/750/randomdotsizeEA/R/11_Ratio_750_L_12_R_16.png","img/900/equaldotsize/R/7_Ratio_900_L_9_R_10.png","img/500/randomdotsizeEA/R/15_Ratio_500_L_1_R_2.png","img/750/equaldotsize/R/15_Ratio_750_L_9_R_12.png","img/900/randomdotsizeEA/R/7_Ratio_900_L_9_R_10.png","img/900/randomdotsizeEA/R/12_Ratio_900_L_18_R_20.png","img/250/randomdotsizeEA/R/8_Ratio_250_L_1_R_4.png","img/250/equaldotsize/L/3_Ratio_250_L_8_R_2.png","img/750/equaldotanddens/R/4_Ratio_750_L_15_R_20.png","img/500/randomdotsizeEA/L/10_Ratio_500_L_4_R_2.png","img/500/equaldotanddens/R/14_Ratio_500_L_5_R_10.png","img/250/equaldotanddens/R/11_Ratio_250_L_3_R_12.png","img/750/equaldotanddens/R/11_Ratio_750_L_12_R_16.png","img/750/randomdotsizeEA/R/12_Ratio_750_L_3_R_4.png","img/900/randomdotsizeEA/R/13_Ratio_900_L_18_R_20.png","img/500/equaldotsize/L/4_Ratio_500_L_18_R_9.png","img/750/equaldotanddens/L/10_Ratio_750_L_4_R_3.png","img/750/equaldotanddens/L/10_Ratio_750_L_4_R_3.png","img/500/randomdotsizeEA/R/6_Ratio_500_L_9_R_18.png","img/900/equaldotanddens/R/9_Ratio_900_L_18_R_20.png","img/500/randomdotsizeEA/L/13_Ratio_500_L_12_R_6.png","img/900/equaldotanddens/L/2_Ratio_900_L_20_R_18.png","img/750/equaldotanddens/R/5_Ratio_750_L_15_R_20.png","img/750/randomdotsizeEA/L/1_Ratio_750_L_20_R_15.png","img/250/equaldotanddens/L/3_Ratio_250_L_8_R_2.png","img/500/randomdotsizeEA/L/10_Ratio_500_L_4_R_2.png","img/900/equaldotsize/L/4_Ratio_900_L_20_R_18.png","img/900/equaldotanddens/R/9_Ratio_900_L_18_R_20.png"],"Rat0":[["12_Ratio_0_L_9_R_0.png","13_Ratio_0_L_6_R_0.png","5_Ratio_0_L_2_R_0.png","6_Ratio_0_L_4_R_0.png","8_Ratio_0_L_6_R_0.png"],["1_Ratio_0_L_0_R_17.png","10_Ratio_0_L_0_R_22.png","11_Ratio_0_L_0_R_1.png","14_Ratio_0_L_0_R_24.png","15_Ratio_0_L_0_R_4.png","2_Ratio_0_L_0_R_5.png","3_Ratio_0_L_0_R_17.png","4_Ratio_0_L_0_R_7.png","7_Ratio_0_L_0_R_19.png","9_Ratio_0_L_0_R_15.png"]],"Rat250":[["1_Ratio_250_L_8_R_2.png","14_Ratio_250_L_12_R_3.png","15_Ratio_250_L_12_R_3.png","2_Ratio_250_L_16_R_4.png","3_Ratio_250_L_8_R_2.png","5_Ratio_250_L_24_R_6.png","7_Ratio_250_L_8_R_2.png"],["10_Ratio_250_L_4_R_16.png","11_Ratio_250_L_3_R_12.png","12_Ratio_250_L_5_R_20.png","13_Ratio_250_L_2_R_8.png","4_Ratio_250_L_3_R_12.png","6_Ratio_250_L_6_R_24.png","8_Ratio_250_L_1_R_4.png","9_Ratio_250_L_3_R_12.png"]],"Rat500":[["10_Ratio_500_L_4_R_2.png","11_Ratio_500_L_12_R_6.png","13_Ratio_500_L_12_R_6.png","4_Ratio_500_L_18_R_9.png","5_Ratio_500_L_4_R_2.png","7_Ratio_500_L_10_R_5.png","8_Ratio_500_L_8_R_4.png"],["1_Ratio_500_L_9_R_18.png","12_Ratio_500_L_1_R_2.png","14_Ratio_500_L_5_R_10.png","15_Ratio_500_L_1_R_2.png","2_Ratio_500_L_3_R_6.png","3_Ratio_500_L_10_R_20.png","6_Ratio_500_L_9_R_18.png","9_Ratio_500_L_2_R_4.png"]],"Rat750":[["1_Ratio_750_L_20_R_15.png","10_Ratio_750_L_4_R_3.png","13_Ratio_750_L_8_R_6.png","14_Ratio_750_L_8_R_6.png","6_Ratio_750_L_24_R_18.png","8_Ratio_750_L_4_R_3.png","9_Ratio_750_L_4_R_3.png"],["11_Ratio_750_L_12_R_16.png","12_Ratio_750_L_3_R_4.png","15_Ratio_750_L_9_R_12.png","2_Ratio_750_L_6_R_8.png","3_Ratio_750_L_15_R_20.png","4_Ratio_750_L_15_R_20.png","5_Ratio_750_L_15_R_20.png","7_Ratio_750_L_3_R_4.png"]],"Rat900":[["1_Ratio_900_L_10_R_9.png","10_Ratio_900_L_20_R_18.png","2_Ratio_900_L_20_R_18.png","4_Ratio_900_L_20_R_18.png","8_Ratio_900_L_20_R_18.png"],["11_Ratio_900_L_18_R_20.png","12_Ratio_900_L_18_R_20.png","13_Ratio_900_L_18_R_20.png","14_Ratio_900_L_18_R_20.png","15_Ratio_900_L_9_R_10.png","3_Ratio_900_L_9_R_10.png","5_Ratio_900_L_9_R_10.png","6_Ratio_900_L_9_R_10.png","7_Ratio_900_L_9_R_10.png","9_Ratio_900_L_18_R_20.png"]],"Rat1000":[["10_Ratio_1000_L_16_R_16.png","11_Ratio_1000_L_6_R_6.png","12_Ratio_1000_L_14_R_14.png","13_Ratio_1000_L_20_R_20.png","15_Ratio_1000_L_15_R_15.png","2_Ratio_1000_L_17_R_17.png","4_Ratio_1000_L_9_R_9.png","5_Ratio_1000_L_6_R_6.png","6_Ratio_1000_L_19_R_19.png","8_Ratio_1000_L_14_R_14.png","9_Ratio_1000_L_25_R_25.png"],["1_Ratio_1000_L_1_R_1.png","14_Ratio_1000_L_17_R_17.png","3_Ratio_1000_L_17_R_17.png","7_Ratio_1000_L_6_R_6.png"]]}},{"start_time":1552313774189,"click_time":1552313775071,"finger_time":1552313774651,"fix_duration":534.76875812885,"trial":1,"RT":462,"MT":420,"sideResp":1,"stimulus":"img/500/equaldotanddens/L/8_Ratio_500_L_8_R_4.png","xmouse":[768,768,768,768,768,768,768,768,768,768,768,768,768,768,768,768,768,768,768,768,767,767,767,762,730,713,695,682,672,668,665,660,645,620,613,607,605,602,595,588,582,569,555,529,520],"ymouse":[521,521,521,521,521,521,521,521,521,521,521,521,521,521,521,521,521,521,521,521,512,504,484,454,349,307,264,222,167,143,121,99,67,31,22,17,15,15,15,15,15,15,14,9,7],"timestamp_mouse":[11,22,42,63,83,102,123,143,163,183,203,223,242,262,282,302,322,342,363,383,403,422,444,462,482,502,523,542,563,582,602,622,642,663,682,702,722,742,762,782,802,822,842,864,882],"xSR":741.5,"ySR":469.95,"xT1":424.9,"yT1":0,"xT2":1058.1,"yT2":0,"toosoon":0,"cond_shown":"equaldotanddens","ratio_trial":500,"smaller_num":"4","larger_num":"8","correct_side":1,"subjID":"MARIAJOSECAMBEROS29","gender":"1","age":"9","school":"4"},{"start_time":1552313778125,"click_time":1552313779671,"finger_time":1552313778751,"fix_duration":1212.188873663211,"trial":2,"RT":626,"MT":920,"sideResp":2,"stimulus":"img/250/randomdotsizeEA/R/11_Ratio_250_L_3_R_12.png","xmouse":[781,781,781,781,781,781,781,781,781,781,781,781,781,781,781,781,781,781,781,781,781,781,781,781,781,781,782,783,783,783,783,780,763,746,734,721,710,677,661,649,644,644,645,653,666,675,684,690,690,690,690,692,703,721,734,749,768,819,863,918,970,1027,1133,1181,1197,1204,1206,1207,1207,1207,1207,1207,1206,1202,1195,1182,1163,1119],"ymouse":[494,494,494,494,494,494,494,494,494,494,494,494,494,494,494,494,494,494,494,494,494,494,494,494,494,494,494,491,488,483,476,468,436,410,394,377,361,328,316,309,307,307,307,308,311,314,317,318,318,319,320,322,324,326,327,327,327,323,316,308,301,284,244,209,190,173,159,153,153,153,153,153,151,141,126,106,82,34],"timestamp_mouse":[13,27,46,67,86,107,126,146,167,187,208,227,247,266,287,306,327,347,367,386,406,428,446,466,487,506,527,546,566,587,606,626,646,667,686,706,727,747,766,787,807,827,846,866,886,906,926,946,967,986,1006,1026,1046,1067,1087,1106,1127,1146,1167,1186,1207,1226,1246,1266,1286,1306,1327,1346,1367,1386,1408,1427,1446,1466,1486,1506,1528,1546],"xSR":741.5,"ySR":469.95,"xT1":424.9,"yT1":0,"xT2":1058.1,"yT2":0,"toosoon":0,"cond_shown":"randomdotsizeEA","ratio_trial":250,"smaller_num":"3","larger_num":"12","correct_side":2,"subjID":"MARIAJOSECAMBEROS29","gender":"1","age":"9","school":"4"},{"start_time":1552313783431,"click_time":1552313784491,"finger_time":1552313784251,"fix_duration":1217.865291855923,"trial":3,"RT":820,"MT":240,"sideResp":1,"stimulus":"img/500/equaldotanddens/L/11_Ratio_500_L_12_R_6.png","xmouse":[766,766,766,766,766,766,766,766,766,766,766,766,766,766,766,766,766,766,766,766,766,766,766,766,766,766,766,766,766,766,766,766,766,766,766,766,766,776,792,811,826,840,848,849,840,828,816,775,752,708,668,626,532,485],"ymouse":[536,536,536,536,536,536,536,536,536,536,536,536,536,536,536,536,536,536,536,536,536,536,536,536,536,536,536,536,536,536,536,536,536,536,536,536,535,527,518,505,486,465,448,405,387,367,348,297,271,226,185,143,62,28],"timestamp_mouse":[10,20,40,60,80,100,121,141,161,180,201,220,241,262,280,300,321,340,360,380,400,420,441,460,480,500,520,540,561,580,600,621,642,661,681,702,721,741,760,780,801,820,841,860,880,900,920,942,960,980,1000,1021,1042,1060],"xSR":741.5,"ySR":469.95,"xT1":424.9,"yT1":0,"xT2":1058.1,"yT2":0,"toosoon":0,"cond_shown":"equaldotanddens","ratio_trial":500,"smaller_num":"6","larger_num":"12","correct_side":1,"subjID":"MARIAJOSECAMBEROS29","gender":"1","age":"9","school":"4"},{"start_time":1552313787393,"click_time":1552313788692,"finger_time":1552313788331,"fix_duration":1179.5399993177593,"trial":4,"RT":938,"MT":361,"sideResp":2,"stimulus":"img/900/randomdotsizeEA/R/3_Ratio_900_L_9_R_10.png","xmouse":[775,775,775,775,775,775,775,775,775,775,775,775,775,775,775,775,775,775,775,775,775,775,775,775,775,775,775,775,775,775,775,775,775,775,775,775,775,775,775,775,775,775,775,775,775,793,823,852,877,901,916,945,958,967,974,985,992,996,1002,1007,1015,1021,1027,1038,1053,1094],"ymouse":[554,554,554,554,554,554,554,554,554,554,554,554,554,554,554,554,554,554,554,554,554,554,554,554,554,554,554,554,554,554,554,554,554,554,554,554,554,554,554,554,554,554,554,552,549,518,478,434,389,349,322,281,265,253,240,217,197,185,171,158,138,130,121,109,93,69],"timestamp_mouse":[1,19,49,58,78,98,119,140,159,179,199,219,239,259,278,298,319,339,358,380,399,419,438,458,479,499,520,538,559,579,598,619,639,659,679,699,718,739,760,779,799,818,838,858,879,898,919,938,959,979,998,1018,1038,1058,1079,1098,1118,1138,1158,1178,1198,1218,1238,1258,1279,1298],"xSR":741.5,"ySR":469.95,"xT1":424.9,"yT1":0,"xT2":1058.1,"yT2":0,"toosoon":0,"cond_shown":"randomdotsizeEA","ratio_trial":900,"smaller_num":"9","larger_num":"10","correct_side":2,"subjID":"MARIAJOSECAMBEROS29","gender":"1","age":"9","school":"4"},{"start_time":1552313791328,"click_time":1552313792432,"finger_time":1552313791971,"fix_duration":1375.0246029122213,"trial":5,"RT":643,"MT":461,"sideResp":1,"stimulus":"img/900/equaldotsize/R/15_Ratio_900_L_9_R_10.png","xmouse":[805,805,805,805,805,805,805,805,805,805,805,805,805,805,805,805,805,805,805,805,805,805,805,805,805,806,806,807,808,809,810,810,810,809,797,788,781,768,756,728,717,706,695,677,669,661,656,645,624,612,601,588,576,546,532,521],"ymouse":[492,492,492,492,492,492,492,492,492,492,492,492,492,492,492,492,492,492,492,492,492,492,492,492,492,491,491,490,489,486,484,478,467,451,414,389,367,346,323,272,254,234,216,184,171,160,153,142,124,115,105,95,87,67,60,54],"timestamp_mouse":[10,24,44,64,83,104,123,144,163,184,204,224,245,263,284,303,324,343,363,385,404,423,444,463,483,503,524,543,563,584,603,624,643,663,683,704,723,743,763,783,803,823,843,865,883,903,924,943,964,983,1004,1023,1044,1064,1083,1104],"xSR":741.5,"ySR":469.95,"xT1":424.9,"yT1":0,"xT2":1058.1,"yT2":0,"toosoon":0,"cond_shown":"equaldotsize","ratio_trial":900,"smaller_num":"9","larger_num":"10","correct_side":2,"subjID":"MARIAJOSECAMBEROS29","gender":"1","age":"9","school":"4"},{"start_time":1552313794522,"click_time":1552313795791,"finger_time":1552313795032,"fix_duration":1028.8053539857024,"trial":6,"RT":510,"MT":759,"sideResp":2,"stimulus":"img/250/equaldotsize/R/10_Ratio_250_L_4_R_16.png","xmouse":[797,797,797,797,797,797,797,797,797,797,797,797,797,797,797,797,798,799,800,802,804,806,809,818,826,837,857,874,917,935,954,970,984,996,1017,1023,1032,1035,1039,1045,1046,1048,1050,1052,1055,1059,1066,1072,1077,1088,1094,1099,1106,1110,1116,1118,1119,1120,1120,1120,1122,1122,1123,1125],"ymouse":[520,520,520,520,520,520,520,520,520,520,520,520,520,520,520,520,521,520,519,516,514,512,508,492,481,468,440,417,355,317,289,266,246,230,203,193,178,169,161,147,144,141,139,137,134,130,125,123,119,115,112,109,106,104,103,103,103,103,103,103,101,101,100,99],"timestamp_mouse":[21,42,50,70,89,109,129,150,170,189,210,230,249,270,290,310,330,350,369,389,409,429,449,471,489,510,529,550,571,589,609,629,649,669,689,710,729,749,769,790,809,829,849,872,890,910,930,950,969,989,1010,1029,1049,1069,1089,1110,1129,1149,1170,1190,1210,1230,1249,1269],"xSR":741.5,"ySR":469.95,"xT1":424.9,"yT1":0,"xT2":1058.1,"yT2":0,"toosoon":0,"cond_shown":"equaldotsize","ratio_trial":250,"smaller_num":"4","larger_num":"16","correct_side":2,"subjID":"MARIAJOSECAMBEROS29","gender":"1","age":"9","school":"4"},{"start_time":1552313797906,"click_time":1552313799011,"finger_time":1552313798532,"fix_duration":593.0999145082317,"trial":7,"RT":626,"MT":479,"sideResp":1,"stimulus":"img/750/equaldotsize/L/13_Ratio_750_L_8_R_6.png","xmouse":[747,747,747,747,747,747,747,747,747,747,747,747,747,747,747,747,747,747,747,747,747,747,747,748,748,748,748,751,753,760,768,761,742,715,687,626,596,585,577,569,560,556,553,550,548,547,547,546,544,543,538,536,534,532,531,520],"ymouse":[550,550,550,550,550,550,550,550,550,550,550,550,550,550,550,550,550,550,550,550,550,550,550,550,550,550,550,549,547,533,502,469,417,357,290,169,125,109,98,90,78,73,65,59,55,54,53,53,53,53,53,53,53,54,54,54],"timestamp_mouse":[13,36,46,65,86,106,125,145,165,185,205,227,246,265,285,305,326,345,366,385,405,427,446,466,485,505,525,545,565,585,605,626,646,665,686,706,726,745,766,785,806,825,846,865,886,905,926,945,966,986,1006,1025,1045,1066,1087,1105],"xSR":741.5,"ySR":469.95,"xT1":424.9,"yT1":0,"xT2":1058.1,"yT2":0,"toosoon":0,"cond_shown":"equaldotsize","ratio_trial":750,"smaller_num":"6","larger_num":"8","correct_side":1,"subjID":"MARIAJOSECAMBEROS29","gender":"1","age":"9","school":"4"},{"start_time":1552313806243,"click_time":1552313807312,"finger_time":1552313806691,"fix_duration":609.7382013623952,"trial":8,"RT":448,"MT":621,"sideResp":1,"stimulus":"img/500/equaldotsize/L/11_Ratio_500_L_12_R_6.png","xmouse":[772,772,772,772,772,772,772,772,772,772,772,772,772,772,772,772,772,772,772,770,767,761,752,738,708,700,693,686,681,669,659,646,631,610,565,540,527,520,514,505,499,493,488,481,474,473,473,473,473,473,473,472,472,472],"ymouse":[545,545,545,545,545,545,545,545,545,545,545,545,545,545,545,543,539,532,526,505,491,473,452,430,379,368,358,347,341,324,312,297,279,258,218,196,184,177,168,152,143,134,124,116,105,104,104,104,104,104,103,100,100,97],"timestamp_mouse":[10,40,48,69,89,108,128,148,168,189,208,229,249,269,289,308,329,348,368,388,408,428,448,469,489,509,528,548,568,589,609,628,648,668,689,708,728,748,768,789,808,828,848,870,888,908,928,948,968,988,1009,1029,1048,1069],"xSR":741.5,"ySR":469.95,"xT1":424.9,"yT1":0,"xT2":1058.1,"yT2":0,"toosoon":0,"cond_shown":"equaldotsize","ratio_trial":500,"smaller_num":"6","larger_num":"12","correct_side":1,"subjID":"MARIAJOSECAMBEROS29","gender":"1","age":"9","school":"4"},{"start_time":1552313810133,"click_time":1552313812534,"finger_time":1552313811733,"fix_duration":580.4686243086054,"trial":9,"RT":1600,"MT":801,"sideResp":1,"stimulus":"img/900/equaldotanddens/L/8_Ratio_900_L_20_R_18.png","xmouse":[786,786,786,786,786,786,786,786,786,786,786,786,786,786,786,786,786,786,786,786,786,786,786,786,786,786,786,786,786,786,786,786,786,786,786,786,786,786,786,786,786,786,786,786,786,786,786,786,786,786,786,786,786,786,786,786,786,786,786,786,786,786,786,786,786,786,784,783,782,782,781,781,781,781,781,781,781,779,773,733,688,634,573,530,502,486,485,485,485,485,485,485,485,487,490,494,497,498,508,519,539,544,546,546,547,548,548,547,547,545,545,544,544,543,542,539,538,532,525,517],"ymouse":[486,486,486,486,486,486,486,486,486,486,486,486,486,486,486,486,486,486,486,486,486,486,486,486,486,486,486,486,486,486,486,486,486,486,486,486,486,486,486,486,486,486,486,486,486,486,486,486,486,486,486,486,486,486,486,486,486,486,486,486,486,486,486,486,486,486,487,488,488,491,492,493,493,493,493,493,493,488,478,433,394,349,297,260,234,213,212,212,212,212,210,207,202,196,188,164,157,154,144,134,122,118,114,110,105,96,89,84,79,73,66,63,61,58,56,52,51,50,48,47],"timestamp_mouse":[18,39,59,78,99,118,138,159,178,199,219,240,258,278,298,318,338,358,379,400,419,439,458,479,499,519,540,558,579,599,620,639,660,679,700,720,738,759,780,799,820,840,859,879,899,919,939,960,979,1000,1019,1040,1060,1079,1099,1119,1139,1160,1179,1200,1218,1240,1260,1280,1299,1320,1339,1358,1380,1400,1418,1439,1460,1480,1500,1520,1539,1559,1579,1600,1618,1638,1659,1679,1699,1718,1740,1760,1778,1798,1819,1839,1858,1879,1898,1919,1940,1959,1980,2001,2019,2040,2059,2080,2099,2119,2139,2158,2180,2199,2219,2239,2259,2280,2299,2318,2339,2359,2380,2400],"xSR":741.5,"ySR":469.95,"xT1":424.9,"yT1":0,"xT2":1058.1,"yT2":0,"toosoon":0,"cond_shown":"equaldotanddens","ratio_trial":900,"smaller_num":"18","larger_num":"20","correct_side":1,"subjID":"MARIAJOSECAMBEROS29","gender":"1","age":"9","school":"4"},{"start_time":1552313814140,"click_time":1552313815033,"finger_time":1552313814893,"fix_duration":585.8351128844964,"trial":10,"RT":753,"MT":140,"sideResp":1,"stimulus":"img/250/randomdotsizeEA/R/4_Ratio_250_L_3_R_12.png","xmouse":[790,790,790,790,790,790,790,790,790,790,790,790,790,790,790,790,790,790,790,790,790,790,790,790,790,790,790,790,790,790,790,790,790,790,789,784,771,760,739,716,656,619,582,546,519],"ymouse":[538,538,538,538,538,538,538,538,538,538,538,538,538,538,538,538,538,538,538,538,538,538,538,538,538,538,538,538,538,538,538,538,538,538,537,521,488,458,409,351,218,147,83,35,1],"timestamp_mouse":[15,44,53,72,93,111,133,153,171,193,213,231,253,273,292,312,333,351,373,392,413,432,452,473,493,511,533,552,573,592,612,632,653,671,693,712,733,753,773,792,812,833,852,871,893],"xSR":741.5,"ySR":469.95,"xT1":424.9,"yT1":0,"xT2":1058.1,"yT2":0,"toosoon":0,"cond_shown":"randomdotsizeEA","ratio_trial":250,"smaller_num":"3","larger_num":"12","correct_side":2,"subjID":"MARIAJOSECAMBEROS29","gender":"1","age":"9","school":"4"},{"start_time":1552313820700,"click_time":1552313821972,"finger_time":1552313821172,"fix_duration":387.85335376240937,"trial":11,"RT":472,"MT":800,"sideResp":2,"stimulus":"img/500/equaldotanddens/R/2_Ratio_500_L_3_R_6.png","xmouse":[799,799,799,799,799,799,799,799,799,799,799,799,799,799,799,799,799,799,799,799,800,807,814,852,861,883,902,926,968,983,996,1007,1014,1020,1022,1024,1026,1028,1033,1033,1033,1033,1033,1033,1033,1031,1030,1030,1030,1030,1030,1030,1030,1030,1035,1040,1045,1050,1053,1053,1053,1053,1056,1072],"ymouse":[502,502,502,502,502,502,502,502,502,502,502,502,502,502,502,502,502,502,502,502,499,493,483,441,431,400,368,335,254,219,184,157,136,107,89,77,65,56,35,32,30,30,30,30,29,30,31,31,31,31,31,31,31,32,33,35,37,39,41,41,41,41,43,55],"timestamp_mouse":[15,37,52,72,92,111,131,152,173,192,212,233,252,271,293,312,332,351,373,392,412,432,452,472,492,512,533,552,575,592,612,632,652,671,691,711,733,752,772,791,812,832,853,872,892,912,933,951,972,993,1012,1032,1052,1071,1093,1112,1132,1153,1172,1192,1213,1233,1252,1272],"xSR":741.5,"ySR":469.95,"xT1":424.9,"yT1":0,"xT2":1058.1,"yT2":0,"toosoon":0,"cond_shown":"equaldotanddens","ratio_trial":500,"smaller_num":"3","larger_num":"6","correct_side":2,"subjID":"MARIAJOSECAMBEROS29","gender":"1","age":"9","school":"4"},{"start_time":1552313828598,"click_time":1552313830352,"finger_time":1552313829551,"fix_duration":265.6845610614205,"trial":12,"RT":953,"MT":801,"sideResp":2,"stimulus":"img/500/equaldotsize/R/9_Ratio_500_L_2_R_4.png","xmouse":[790,791,791,792,792,792,792,792,792,792,792,792,792,791,789,786,785,781,779,773,772,772,772,772,772,772,772,772,772,772,772,772,772,772,772,772,772,772,772,772,775,778,779,781,781,781,782,783,784,792,793,797,801,805,819,843,871,928,1003,1228,1340,1414,1443,1449,1452,1452,1450,1446,1437,1404,1379,1346,1346,1346,1346,1346,1346,1346,1346,1346,1346,1346,1346,1346,1346,1346,1346,1115],"ymouse":[494,493,493,492,492,492,492,492,492,492,492,492,492,492,493,495,496,501,503,511,514,517,517,517,517,517,517,517,517,517,517,517,517,517,517,517,517,517,517,517,515,512,505,487,480,475,471,468,466,460,459,457,455,454,454,448,435,408,365,236,174,133,116,110,102,95,90,83,71,45,28,6,6,6,6,6,6,6,6,6,6,6,6,6,6,6,6,2],"timestamp_mouse":[16,43,55,75,94,115,134,154,175,194,213,235,254,275,294,315,335,353,374,395,414,435,455,475,495,514,534,555,574,595,614,634,654,675,695,715,734,755,773,793,813,835,854,875,894,915,933,953,974,994,1014,1034,1054,1074,1093,1114,1134,1155,1174,1193,1214,1234,1254,1274,1294,1313,1333,1354,1374,1393,1415,1434,1453,1473,1495,1514,1533,1554,1574,1594,1614,1634,1654,1674,1694,1714,1733,1754],"xSR":741.5,"ySR":469.95,"xT1":424.9,"yT1":0,"xT2":1058.1,"yT2":0,"toosoon":0,"cond_shown":"equaldotsize","ratio_trial":500,"smaller_num":"2","larger_num":"4","correct_side":2,"subjID":"MARIAJOSECAMBEROS29","gender":"1","age":"9","school":"4"},{"start_time":1552313833186,"click_time":1552313834832,"finger_time":1552313833873,"fix_duration":992.42612501996,"trial":13,"RT":687,"MT":959,"sideResp":1,"stimulus":"img/900/randomdotsizeEA/L/2_Ratio_900_L_20_R_18.png","xmouse":[794,794,794,794,794,794,794,794,794,794,794,794,794,794,794,794,794,794,794,794,794,794,794,794,794,795,795,796,796,796,796,797,797,797,797,797,797,797,797,797,798,798,798,798,798,798,798,798,798,798,798,798,797,797,795,791,787,781,772,761,731,712,700,687,676,650,641,636,631,628,621,621,621,621,621,621,621,621,621,621,621,621,508],"ymouse":[476,476,476,476,476,476,476,476,476,476,476,476,476,476,476,476,476,476,476,476,476,476,476,476,476,475,474,473,473,473,472,471,471,470,469,469,468,468,468,468,466,466,466,465,465,464,464,464,464,463,462,460,458,457,454,447,440,430,414,393,331,287,244,200,156,71,50,35,24,17,2,2,2,2,2,2,2,2,2,2,2,2,8],"timestamp_mouse":[15,37,46,66,85,106,126,146,167,186,206,226,246,267,287,306,326,346,366,387,406,427,447,465,486,506,527,546,566,586,606,626,647,665,687,707,726,746,765,785,806,826,846,867,887,906,926,946,966,985,1006,1025,1046,1067,1087,1107,1126,1146,1166,1186,1207,1228,1246,1266,1286,1306,1326,1346,1367,1387,1407,1426,1445,1465,1486,1506,1526,1546,1565,1585,1607,1625,1646],"xSR":741.5,"ySR":469.95,"xT1":424.9,"yT1":0,"xT2":1058.1,"yT2":0,"toosoon":0,"cond_shown":"randomdotsizeEA","ratio_trial":900,"smaller_num":"18","larger_num":"20","correct_side":1,"subjID":"MARIAJOSECAMBEROS29","gender":"1","age":"9","school":"4"},{"start_time":1552313837921,"click_time":1552313839732,"finger_time":1552313838452,"fix_duration":1368.7928488300458,"trial":14,"RT":531,"MT":1280,"sideResp":2,"stimulus":"img/900/randomdotsizeEA/R/3_Ratio_900_L_9_R_10.png","xmouse":[776,776,776,776,776,776,776,776,776,776,776,776,776,776,776,776,776,776,776,776,776,776,775,773,770,765,763,761,759,751,744,732,713,689,641,625,623,627,633,638,639,639,639,639,640,644,653,662,677,715,739,761,783,804,829,841,869,878,887,889,892,894,897,899,905,909,918,935,952,1031,1085,1111,1131,1153,1174,1188,1195,1199,1200,1197,1187,1176,1163,1163,1163,1163,1163,1163,1163,1163,1125],"ymouse":[480,480,480,480,480,480,480,480,480,480,480,480,480,480,480,480,480,480,480,480,480,480,480,480,476,471,469,466,463,443,419,380,327,280,193,163,150,147,144,140,136,136,136,136,135,136,143,153,166,196,211,224,232,236,235,227,204,189,160,148,138,132,128,127,127,127,128,135,142,169,183,189,189,183,164,140,122,104,86,55,38,21,6,6,6,6,6,6,6,6,1],"timestamp_mouse":[13,39,51,71,92,110,132,152,171,190,212,231,252,271,292,311,332,351,371,391,412,432,451,472,491,512,531,556,572,591,610,631,650,671,691,711,731,751,771,792,811,831,851,871,891,911,931,951,971,990,1012,1031,1051,1072,1091,1111,1130,1152,1175,1190,1211,1231,1250,1272,1291,1311,1331,1351,1373,1391,1410,1431,1450,1472,1491,1511,1531,1551,1570,1591,1610,1631,1651,1672,1692,1712,1731,1751,1771,1791,1811],"xSR":741.5,"ySR":469.95,"xT1":424.9,"yT1":0,"xT2":1058.1,"yT2":0,"toosoon":0,"cond_shown":"randomdotsizeEA","ratio_trial":900,"smaller_num":"9","larger_num":"10","correct_side":2,"subjID":"MARIAJOSECAMBEROS29","gender":"1","age":"9","school":"4"},{"start_time":1552313841922,"click_time":1552313843592,"finger_time":1552313842412,"fix_duration":449.94289525174634,"trial":15,"RT":490,"MT":1180,"sideResp":2,"stimulus":"img/900/equaldotanddens/R/15_Ratio_900_L_9_R_10.png","xmouse":[779,779,779,779,779,779,779,779,779,779,778,778,778,778,778,778,778,778,778,778,778,778,776,767,747,745,745,745,745,745,745,745,745,744,732,727,724,724,724,723,723,723,723,724,733,743,757,774,792,811,864,891,915,935,975,985,993,998,1001,1002,1003,1003,1003,1003,1005,1010,1018,1029,1041,1054,1068,1073,1074,1074,1074,1074,1074,1074,1074,1074,1074,1074,1074,1079],"ymouse":[476,476,476,476,476,476,476,476,476,476,476,476,476,476,476,476,476,476,476,476,476,475,475,473,468,468,468,468,468,467,466,466,466,465,463,461,460,459,459,459,459,459,459,459,454,446,430,411,388,360,279,245,217,195,154,144,138,133,129,127,126,126,126,126,124,123,121,117,115,113,107,104,104,103,103,103,103,103,103,103,103,103,103,97],"timestamp_mouse":[10,41,50,69,89,110,131,150,170,191,210,230,251,271,291,310,331,351,370,389,410,430,450,471,490,510,530,549,570,590,611,630,650,669,690,709,730,751,770,790,810,829,850,871,891,910,929,950,970,990,1010,1030,1051,1071,1090,1109,1130,1151,1170,1191,1210,1231,1250,1270,1291,1309,1329,1350,1370,1390,1410,1431,1450,1471,1491,1510,1529,1549,1570,1590,1609,1630,1650,1670],"xSR":741.5,"ySR":469.95,"xT1":424.9,"yT1":0,"xT2":1058.1,"yT2":0,"toosoon":0,"cond_shown":"equaldotanddens","ratio_trial":900,"smaller_num":"9","larger_num":"10","correct_side":2,"subjID":"MARIAJOSECAMBEROS29","gender":"1","age":"9","school":"4"},{"start_time":1552313846712,"click_time":1552313848092,"finger_time":1552313847572,"fix_duration":898.5372008996677,"trial":16,"RT":860,"MT":520,"sideResp":1,"stimulus":"img/250/equaldotanddens/L/2_Ratio_250_L_16_R_4.png","xmouse":[797,797,797,797,797,797,797,797,797,797,797,797,797,797,797,797,797,797,797,797,797,797,797,797,797,797,797,797,797,796,795,795,795,794,794,793,790,789,788,787,787,780,777,768,757,742,704,690,681,674,670,666,662,658,650,642,620,608,597,586,576,551,543,538,535,535,535,534,530,524],"ymouse":[526,526,526,526,526,526,526,526,526,526,526,526,526,526,526,526,526,526,526,526,526,526,526,526,526,526,526,525,525,524,524,524,524,524,523,523,523,522,522,521,520,496,485,457,414,370,285,260,240,230,223,216,209,201,191,176,139,123,108,94,81,50,40,35,33,33,33,33,33,35],"timestamp_mouse":[1,38,39,59,79,101,121,141,159,181,200,220,241,261,280,300,320,341,361,380,401,421,440,460,479,501,521,540,560,580,600,619,641,660,679,699,720,741,760,780,827,827,839,860,880,900,919,941,959,980,1001,1020,1040,1060,1080,1100,1119,1140,1161,1179,1200,1220,1241,1259,1280,1299,1320,1339,1361,1380],"xSR":741.5,"ySR":469.95,"xT1":424.9,"yT1":0,"xT2":1058.1,"yT2":0,"toosoon":0,"cond_shown":"equaldotanddens","ratio_trial":250,"smaller_num":"4","larger_num":"16","correct_side":1,"subjID":"MARIAJOSECAMBEROS29","gender":"1","age":"9","school":"4"},{"start_time":1552313850199,"click_time":1552313851672,"finger_time":1552313851032,"fix_duration":925.0815761137877,"trial":17,"RT":833,"MT":640,"sideResp":2,"stimulus":"img/750/equaldotanddens/R/12_Ratio_750_L_3_R_4.png","xmouse":[760,760,760,760,760,760,760,760,760,760,760,760,760,760,760,760,760,760,760,760,760,760,760,760,760,760,760,760,761,761,761,761,761,761,761,761,761,762,768,777,788,813,824,844,862,875,897,906,914,920,923,924,927,931,936,946,986,995,1001,1008,1013,1022,1026,1035,1042,1047,1053,1053,1055,1057,1061,1070,1079,1086],"ymouse":[503,503,503,503,503,503,503,503,503,503,503,503,503,503,503,503,503,503,503,503,503,503,503,503,503,503,503,503,502,502,502,502,502,502,502,502,502,500,496,490,480,441,414,375,345,326,299,290,284,281,279,278,277,276,273,270,253,244,233,220,209,193,186,175,164,155,138,134,130,127,123,114,106,99],"timestamp_mouse":[14,36,53,73,93,113,132,153,172,194,213,234,253,272,294,314,333,353,373,393,412,432,454,474,494,514,532,554,574,593,614,632,654,673,693,714,733,754,773,792,812,833,853,872,893,914,934,953,972,993,1013,1033,1053,1073,1094,1113,1133,1153,1173,1194,1214,1234,1252,1273,1293,1313,1333,1353,1373,1393,1412,1433,1452,1473],"xSR":741.5,"ySR":469.95,"xT1":424.9,"yT1":0,"xT2":1058.1,"yT2":0,"toosoon":0,"cond_shown":"equaldotanddens","ratio_trial":750,"smaller_num":"3","larger_num":"4","correct_side":2,"subjID":"MARIAJOSECAMBEROS29","gender":"1","age":"9","school":"4"},{"start_time":1552313853225,"click_time":1552313854552,"finger_time":1552313854332,"fix_duration":250,"trial":18,"RT":1107,"MT":220,"sideResp":2,"stimulus":"img/750/randomdotsizeEA/R/7_Ratio_750_L_3_R_4.png","xmouse":[756,756,756,756,756,756,756,756,756,756,756,756,756,756,756,756,756,756,756,756,756,756,756,755,754,752,752,752,752,752,752,752,752,752,752,752,752,752,752,752,752,752,752,752,752,752,752,752,754,756,760,774,784,799,821,841,882,898,913,927,947,1001,1021,1040,1069,1087,1108],"ymouse":[500,500,500,500,500,500,500,500,500,501,501,501,501,501,501,501,501,501,501,501,501,501,501,501,501,501,501,501,501,501,501,501,501,501,501,501,501,501,501,501,501,501,501,501,501,501,501,501,501,501,498,492,490,485,474,460,421,393,360,318,282,213,191,169,137,116,90],"timestamp_mouse":[11,41,47,67,87,107,127,148,167,188,207,228,248,268,287,308,328,346,368,386,408,427,448,467,487,508,528,548,566,588,607,628,647,667,688,706,727,747,768,786,808,827,847,866,886,908,927,947,967,987,1007,1027,1047,1067,1088,1107,1126,1148,1167,1186,1207,1227,1247,1267,1287,1306,1326],"xSR":741.5,"ySR":469.95,"xT1":424.9,"yT1":0,"xT2":1058.1,"yT2":0,"toosoon":0,"cond_shown":"randomdotsizeEA","ratio_trial":750,"smaller_num":"3","larger_num":"4","correct_side":2,"subjID":"MARIAJOSECAMBEROS29","gender":"1","age":"9","school":"4"},{"start_time":1552313858865,"click_time":1552313860631,"finger_time":1552313859913,"fix_duration":611.3440947941756,"trial":19,"RT":1048,"MT":718,"sideResp":2,"stimulus":"img/750/randomdotsizeEA/R/11_Ratio_750_L_12_R_16.png","xmouse":[778,778,778,778,778,778,778,778,778,778,778,778,778,778,778,778,778,778,778,778,778,778,778,778,778,778,778,778,778,778,778,778,778,778,778,778,778,778,778,778,778,778,778,778,778,778,779,779,781,785,787,790,792,795,798,798,798,794,792,792,792,793,796,802,825,839,855,874,921,1011,1061,1092,1118,1136,1162,1173,1179,1184,1188,1189,1189,1189,1189,1189,1189,1187,1181,1171,1156],"ymouse":[504,504,504,504,504,504,504,504,504,504,504,504,504,504,504,504,504,504,504,504,504,504,504,504,504,504,504,504,504,504,504,504,504,504,504,504,504,504,504,504,504,504,504,504,504,504,504,503,499,491,486,478,468,455,415,391,366,346,333,327,327,326,326,326,324,324,324,322,308,273,249,231,211,193,160,146,139,135,131,130,130,130,130,129,125,115,102,85,70],"timestamp_mouse":[9,40,47,67,86,108,128,148,167,186,208,228,248,268,288,307,328,347,368,388,408,427,448,466,488,507,527,548,568,586,608,628,647,668,687,707,728,748,768,787,808,827,848,866,887,908,927,947,967,987,1008,1027,1048,1068,1087,1107,1128,1148,1166,1188,1207,1226,1248,1267,1287,1306,1327,1347,1368,1387,1406,1426,1448,1468,1488,1506,1527,1546,1567,1587,1608,1627,1647,1666,1688,1707,1727,1746,1766],"xSR":741.5,"ySR":469.95,"xT1":424.9,"yT1":0,"xT2":1058.1,"yT2":0,"toosoon":0,"cond_shown":"randomdotsizeEA","ratio_trial":750,"smaller_num":"12","larger_num":"16","correct_side":2,"subjID":"MARIAJOSECAMBEROS29","gender":"1","age":"9","school":"4"},{"start_time":1552313867227,"click_time":1552313868713,"finger_time":1552313867733,"fix_duration":472.34120916184685,"trial":20,"RT":506,"MT":980,"sideResp":1,"stimulus":"img/750/randomdotsizeEA/R/2_Ratio_750_L_6_R_8.png","xmouse":[791,791,791,791,791,791,791,791,791,793,795,797,803,805,805,807,808,809,809,809,809,810,811,813,815,816,816,807,802,798,798,798,804,809,816,825,834,872,892,913,933,952,987,995,999,1001,1001,1000,1000,1000,1001,1001,1004,1005,1007,1009,1010,1010,1004,984,940,825,825,825,825,825,825,825,825,825,825,825,825,825,505],"ymouse":[533,533,533,533,533,533,533,533,533,532,531,528,524,522,521,520,519,518,518,518,518,514,503,490,474,456,435,378,359,344,336,332,327,325,321,318,313,290,276,258,240,221,186,170,157,146,134,124,123,122,122,122,119,116,114,109,104,101,97,90,74,18,18,18,18,18,18,18,18,18,18,18,18,18,11],"timestamp_mouse":[9,25,44,65,85,105,125,146,165,185,206,225,246,265,285,306,324,344,365,386,406,424,445,465,485,506,524,545,564,585,606,626,645,664,685,705,725,746,765,785,804,824,845,864,886,904,926,946,966,984,1005,1025,1045,1064,1085,1106,1125,1146,1165,1185,1205,1224,1245,1266,1284,1305,1326,1345,1365,1385,1404,1424,1445,1464,1485],"xSR":741.5,"ySR":469.95,"xT1":424.9,"yT1":0,"xT2":1058.1,"yT2":0,"toosoon":0,"cond_shown":"randomdotsizeEA","ratio_trial":750,"smaller_num":"6","larger_num":"8","correct_side":2,"subjID":"MARIAJOSECAMBEROS29","gender":"1","age":"9","school":"4"},{"start_time":1552313870565,"click_time":1552313871472,"finger_time":1552313871052,"fix_duration":250,"trial":21,"RT":487,"MT":420,"sideResp":2,"stimulus":"img/250/randomdotsizeEA/R/12_Ratio_250_L_5_R_20.png","xmouse":[782,782,782,782,782,780,777,777,776,776,774,772,772,772,772,772,772,772,772,772,773,777,782,791,806,824,873,918,960,992,1004,1018,1022,1025,1027,1028,1028,1028,1031,1035,1040,1057,1066,1076,1084,1092],"ymouse":[511,511,511,511,511,512,512,512,512,512,508,505,504,504,504,502,501,501,500,500,498,495,491,481,468,454,413,388,372,358,349,330,321,312,302,294,270,253,227,209,191,157,141,124,110,95],"timestamp_mouse":[21,44,47,68,88,108,127,147,167,188,207,227,247,267,288,309,327,348,366,387,408,427,447,467,487,507,526,547,567,586,606,627,647,667,687,708,727,747,767,786,807,827,847,867,887,907],"xSR":741.5,"ySR":469.95,"xT1":424.9,"yT1":0,"xT2":1058.1,"yT2":0,"toosoon":0,"cond_shown":"randomdotsizeEA","ratio_trial":250,"smaller_num":"5","larger_num":"20","correct_side":2,"subjID":"MARIAJOSECAMBEROS29","gender":"1","age":"9","school":"4"},{"start_time":1552313873705,"click_time":1552313875353,"finger_time":1552313873991,"fix_duration":1071.5253334049867,"trial":22,"RT":286,"MT":1362,"sideResp":2,"stimulus":"img/750/equaldotsize/R/5_Ratio_750_L_15_R_20.png","xmouse":[789,789,789,789,788,786,785,783,780,773,767,763,761,758,758,758,758,758,758,758,761,766,771,775,781,782,783,784,784,784,784,784,785,785,791,796,799,803,805,807,808,809,811,813,816,819,819,821,822,825,828,830,831,834,835,839,841,842,844,845,856,867,880,897,937,956,973,987,997,1016,1020,1024,1027,1028,1032,1034,1035,1038,1041,1047,1052,1055,1059],"ymouse":[485,485,485,487,489,495,499,505,514,533,545,555,563,567,570,570,570,570,570,570,567,561,556,551,543,542,540,539,539,539,539,539,539,538,527,518,509,500,493,487,486,485,483,480,471,466,462,456,449,429,409,396,385,375,366,352,347,342,336,330,306,293,273,254,217,198,180,164,152,129,124,121,118,116,113,112,110,108,106,102,100,99,97],"timestamp_mouse":[10,42,47,67,87,107,128,147,168,187,208,227,247,267,286,307,328,347,368,388,407,427,447,467,487,507,528,548,567,587,608,628,647,667,687,707,727,747,767,787,808,827,848,867,887,907,927,947,968,988,1008,1026,1047,1067,1087,1106,1127,1147,1167,1187,1207,1227,1247,1267,1287,1306,1328,1348,1367,1387,1407,1427,1447,1467,1487,1508,1528,1548,1566,1587,1607,1627,1647],"xSR":741.5,"ySR":469.95,"xT1":424.9,"yT1":0,"xT2":1058.1,"yT2":0,"toosoon":0,"cond_shown":"equaldotsize","ratio_trial":750,"smaller_num":"15","larger_num":"20","correct_side":2,"subjID":"MARIAJOSECAMBEROS29","gender":"1","age":"9","school":"4"},{"start_time":1552313882485,"click_time":1552313884113,"finger_time":1552313883112,"fix_duration":270.28229720759487,"trial":23,"RT":627,"MT":1001,"sideResp":2,"stimulus":"img/900/equaldotsize/L/10_Ratio_900_L_20_R_18.png","xmouse":[778,778,780,780,780,780,780,778,776,774,773,773,773,773,773,773,772,772,771,770,770,770,770,770,770,770,770,770,770,770,771,779,784,790,798,804,822,830,836,838,838,836,830,822,814,800,766,756,754,754,754,754,754,754,756,762,791,822,845,869,889,920,930,941,953,963,987,991,991,991,992,992,992,992,994,996,1015,1026,1034,1042,1048,1067],"ymouse":[484,484,483,483,483,483,483,484,485,486,487,487,487,487,487,487,488,488,489,489,490,490,490,490,490,490,489,486,483,480,476,464,455,445,433,421,390,372,347,331,314,271,247,219,188,151,85,74,72,72,72,72,72,72,72,72,72,76,79,82,83,83,83,83,83,83,86,87,87,87,87,87,87,87,87,87,89,89,89,89,89,85],"timestamp_mouse":[15,38,47,67,86,108,128,147,167,188,207,228,247,266,287,307,327,348,368,388,407,427,447,467,487,507,527,547,567,586,607,627,648,667,687,707,727,747,767,787,807,827,847,868,887,908,927,946,967,987,1008,1027,1048,1067,1087,1108,1127,1147,1166,1187,1208,1227,1246,1267,1287,1307,1327,1347,1368,1388,1407,1428,1446,1468,1487,1508,1527,1547,1567,1587,1606,1627],"xSR":741.5,"ySR":469.95,"xT1":424.9,"yT1":0,"xT2":1058.1,"yT2":0,"toosoon":0,"cond_shown":"equaldotsize","ratio_trial":900,"smaller_num":"18","larger_num":"20","correct_side":1,"subjID":"MARIAJOSECAMBEROS29","gender":"1","age":"9","school":"4"},{"start_time":1552313886565,"click_time":1552313888332,"finger_time":1552313887452,"fix_duration":250,"trial":24,"RT":887,"MT":880,"sideResp":2,"stimulus":"img/900/equaldotanddens/R/3_Ratio_900_L_9_R_10.png","xmouse":[784,784,784,784,784,784,784,784,784,784,784,784,784,784,784,784,784,784,784,784,784,784,784,784,784,784,784,784,784,784,784,784,784,784,784,784,784,784,784,784,784,784,795,825,862,902,941,1062,1140,1209,1260,1317,1317,1317,1317,1317,1317,1317,1317,1317,1317,1317,1317,1317,1317,1317,1317,1317,1291,1283,1273,1267,1257,1254,1253,1253,1252,1252,1250,1249,1237,1222,1208,1194,1189,1184,1178,1160,1151],"ymouse":[523,523,523,523,523,523,523,523,523,523,523,523,523,523,523,523,523,523,523,523,523,523,523,523,523,523,523,523,523,523,523,523,523,523,523,523,523,523,523,523,523,523,514,493,460,419,368,244,176,124,80,9,9,9,9,9,9,9,9,9,9,9,9,9,9,9,9,9,18,29,42,48,58,60,61,61,61,61,61,61,54,43,35,33,35,40,47,69,77],"timestamp_mouse":[14,37,47,66,88,108,128,147,167,188,207,228,248,267,287,307,328,347,367,388,407,428,446,468,487,507,528,548,568,588,608,628,647,667,686,708,728,748,767,787,807,828,847,867,887,908,927,949,967,988,1007,1027,1049,1067,1087,1107,1128,1147,1168,1187,1208,1227,1248,1267,1287,1307,1327,1348,1367,1387,1408,1428,1449,1467,1488,1507,1528,1547,1568,1588,1608,1627,1646,1667,1687,1707,1727,1749,1767],"xSR":741.5,"ySR":469.95,"xT1":424.9,"yT1":0,"xT2":1058.1,"yT2":0,"toosoon":0,"cond_shown":"equaldotanddens","ratio_trial":900,"smaller_num":"9","larger_num":"10","correct_side":2,"subjID":"MARIAJOSECAMBEROS29","gender":"1","age":"9","school":"4"},{"start_time":1552313890506,"click_time":1552313891673,"finger_time":1552313891331,"fix_duration":371.4795328468291,"trial":25,"RT":825,"MT":342,"sideResp":2,"stimulus":"img/250/randomdotsizeEA/R/12_Ratio_250_L_5_R_20.png","xmouse":[767,767,767,767,767,767,767,767,767,767,767,767,767,767,767,767,767,767,767,767,767,767,767,767,767,767,767,767,767,767,767,767,767,767,767,767,767,771,775,788,807,857,897,920,936,952,973,983,992,999,1007,1020,1028,1037,1044,1051,1067,1073,1080],"ymouse":[516,516,516,516,516,516,516,516,516,516,516,516,516,516,516,516,516,516,516,516,516,516,516,516,516,516,516,516,516,516,516,516,516,516,516,516,516,512,507,495,473,418,371,340,316,287,237,218,201,190,179,161,152,138,129,118,105,100,94],"timestamp_mouse":[20,37,46,67,86,106,126,146,167,185,207,226,246,267,286,306,327,347,366,386,406,426,447,467,485,507,527,545,567,586,606,627,647,666,686,706,727,746,767,786,806,825,847,866,887,906,926,947,966,986,1006,1026,1046,1066,1085,1107,1126,1146,1167],"xSR":741.5,"ySR":469.95,"xT1":424.9,"yT1":0,"xT2":1058.1,"yT2":0,"toosoon":0,"cond_shown":"randomdotsizeEA","ratio_trial":250,"smaller_num":"5","larger_num":"20","correct_side":2,"subjID":"MARIAJOSECAMBEROS29","gender":"1","age":"9","school":"4"},{"start_time":1552313893699,"click_time":1552313895252,"finger_time":1552313894412,"fix_duration":366.9322829303149,"trial":26,"RT":713,"MT":840,"sideResp":2,"stimulus":"img/750/randomdotsizeEA/R/15_Ratio_750_L_9_R_12.png","xmouse":[783,783,783,783,783,783,783,783,783,783,783,783,783,783,783,783,783,783,783,783,783,783,783,784,784,784,786,787,787,788,788,788,788,788,789,790,790,792,794,797,801,817,831,850,872,903,961,995,1028,1065,1097,1166,1187,1205,1221,1238,1277,1303,1329,1345,1352,1357,1357,1357,1357,1357,1352,1341,1326,1310,1284,1265,1236,1221,1205,1192,1166,1156],"ymouse":[487,487,487,487,487,487,487,487,487,487,487,487,487,487,487,487,487,487,487,487,487,486,484,480,479,478,475,474,473,472,472,471,471,471,470,469,469,469,469,469,468,457,446,433,409,372,291,256,224,196,177,151,144,139,134,130,112,103,92,85,81,75,75,75,75,75,74,74,75,79,80,84,88,90,90,90,83,76],"timestamp_mouse":[13,39,54,73,94,112,133,153,172,194,214,233,252,273,293,313,333,354,372,393,413,433,453,473,494,513,533,554,573,593,612,633,654,673,693,713,733,753,774,792,813,833,853,874,894,913,933,953,973,993,1013,1033,1053,1073,1093,1114,1134,1154,1173,1193,1213,1234,1253,1273,1293,1313,1334,1353,1373,1394,1414,1433,1454,1472,1493,1514,1534,1553],"xSR":741.5,"ySR":469.95,"xT1":424.9,"yT1":0,"xT2":1058.1,"yT2":0,"toosoon":0,"cond_shown":"randomdotsizeEA","ratio_trial":750,"smaller_num":"9","larger_num":"12","correct_side":2,"subjID":"MARIAJOSECAMBEROS29","gender":"1","age":"9","school":"4"},{"start_time":1552313899591,"click_time":1552313900633,"finger_time":1552313900232,"fix_duration":1097.5848933088823,"trial":27,"RT":641,"MT":401,"sideResp":1,"stimulus":"img/250/equaldotsize/L/1_Ratio_250_L_8_R_2.png","xmouse":[801,801,801,801,801,801,801,801,801,801,801,801,801,801,801,801,801,801,801,801,801,801,801,801,801,801,801,801,801,801,800,798,792,784,761,737,720,709,701,700,698,696,691,668,649,639,631,625,603,582,550,518,488],"ymouse":[486,486,486,486,486,486,486,486,486,486,486,486,486,486,486,486,486,486,486,486,486,486,486,486,486,486,486,486,486,486,484,482,469,450,402,352,318,301,285,283,282,279,274,250,227,214,205,198,180,165,140,111,84],"timestamp_mouse":[11,22,41,61,81,102,121,142,162,181,201,220,241,261,282,301,322,342,362,382,401,421,441,461,482,501,522,541,562,580,601,621,641,661,682,701,722,741,761,781,801,821,840,861,881,900,921,941,961,981,1001,1021,1042],"xSR":741.5,"ySR":469.95,"xT1":424.9,"yT1":0,"xT2":1058.1,"yT2":0,"toosoon":0,"cond_shown":"equaldotsize","ratio_trial":250,"smaller_num":"2","larger_num":"8","correct_side":1,"subjID":"MARIAJOSECAMBEROS29","gender":"1","age":"9","school":"4"},{"start_time":1552313908188,"click_time":1552313909253,"finger_time":1552313908633,"fix_duration":794.2194297514312,"trial":28,"RT":445,"MT":620,"sideResp":1,"stimulus":"img/500/equaldotanddens/L/5_Ratio_500_L_4_R_2.png","xmouse":[784,784,784,784,783,783,783,783,783,782,782,782,782,782,782,782,782,782,782,782,782,783,784,784,787,789,789,791,792,798,806,815,825,839,864,878,898,916,930,950,953,953,953,953,950,944,931,910,878,758,645,581,528,481],"ymouse":[510,510,510,509,506,504,502,500,498,495,492,489,487,485,484,483,482,481,480,476,473,471,468,466,458,453,450,447,444,434,423,411,400,387,360,343,322,301,280,226,216,212,208,206,201,196,187,173,152,96,56,39,28,22],"timestamp_mouse":[11,25,45,64,85,104,124,144,165,184,204,224,245,264,284,304,324,344,363,383,404,424,445,464,484,505,524,545,564,584,603,623,644,664,684,704,725,744,765,784,804,823,844,865,884,904,925,945,964,984,1005,1024,1045,1065],"xSR":741.5,"ySR":469.95,"xT1":424.9,"yT1":0,"xT2":1058.1,"yT2":0,"toosoon":0,"cond_shown":"equaldotanddens","ratio_trial":500,"smaller_num":"2","larger_num":"4","correct_side":1,"subjID":"MARIAJOSECAMBEROS29","gender":"1","age":"9","school":"4"},{"start_time":1552313919395,"click_time":1552313920713,"finger_time":1552313920131,"fix_duration":1001.7147024889609,"trial":29,"RT":736,"MT":582,"sideResp":2,"stimulus":"img/500/randomdotsizeEA/R/2_Ratio_500_L_3_R_6.png","xmouse":[777,777,777,777,777,777,777,777,777,777,777,777,777,777,777,777,777,777,777,777,777,777,777,777,777,777,777,777,777,777,777,777,777,778,781,786,793,802,818,867,892,917,937,964,1015,1030,1030,1030,1030,1030,1030,1030,1030,1030,1030,1030,1030,1030,1030,1030,1030,1030,1030,1030,1030,1073],"ymouse":[491,491,491,491,491,491,491,491,491,491,491,491,491,491,491,491,491,491,491,491,491,491,491,491,491,491,491,491,491,491,491,491,491,489,484,476,464,447,420,320,266,212,163,113,28,5,5,5,5,5,5,5,5,5,5,5,5,5,5,5,5,5,5,5,5,3],"timestamp_mouse":[18,44,57,77,97,118,138,157,178,197,216,238,258,278,297,316,337,358,377,397,418,438,457,478,497,518,537,558,577,597,618,638,658,678,697,718,736,757,777,798,817,837,857,876,898,917,937,957,977,998,1018,1037,1057,1078,1097,1117,1136,1157,1178,1197,1217,1237,1257,1278,1297,1318],"xSR":741.5,"ySR":469.95,"xT1":424.9,"yT1":0,"xT2":1058.1,"yT2":0,"toosoon":0,"cond_shown":"randomdotsizeEA","ratio_trial":500,"smaller_num":"3","larger_num":"6","correct_side":2,"subjID":"MARIAJOSECAMBEROS29","gender":"1","age":"9","school":"4"},{"start_time":1552313923396,"click_time":1552313926332,"finger_time":1552313925833,"fix_duration":1042.2237562797952,"trial":30,"RT":2437,"MT":499,"sideResp":2,"stimulus":"img/900/randomdotsizeEA/L/1_Ratio_900_L_10_R_9.png","xmouse":[784,784,784,784,784,784,784,784,784,784,784,784,784,784,784,784,784,784,784,784,784,784,784,784,784,784,784,784,784,784,784,784,784,784,784,784,784,784,784,784,784,784,784,784,784,784,784,784,784,784,784,784,784,784,784,784,784,784,784,784,784,784,784,784,784,784,784,784,784,784,784,784,784,784,784,784,785,785,785,785,785,785,785,785,785,785,786,786,786,786,786,786,786,786,786,786,786,786,786,786,786,786,786,786,786,786,786,786,786,786,786,786,787,788,789,792,794,796,800,807,830,855,904,936,961,991,1002,1012,1023,1033,1053,1057,1057,1057,1057,1057,1059,1056,1055,1055,1055,1055,1055,1055,1055,1055,1060],"ymouse":[537,536,536,536,536,536,536,536,536,536,536,536,536,536,536,536,536,536,536,536,536,536,536,536,536,536,536,536,536,536,536,536,536,536,536,536,536,536,536,536,536,536,536,536,536,536,536,536,536,536,536,536,536,536,536,536,536,536,536,536,536,536,536,536,536,536,536,536,536,536,536,536,536,536,536,536,536,536,536,536,536,536,536,536,536,536,534,534,534,534,534,534,534,534,534,534,534,534,534,534,534,534,534,534,534,534,534,534,534,534,534,534,533,532,531,528,525,522,516,507,472,437,345,274,203,114,85,64,46,32,7,1,1,1,1,1,0,6,10,13,15,15,15,15,15,15,16],"timestamp_mouse":[16,38,56,76,96,116,136,157,176,197,215,237,257,276,296,316,337,357,377,397,417,437,456,477,497,517,537,557,576,597,617,637,656,676,696,716,737,757,777,797,816,835,857,876,897,917,937,957,976,997,1017,1037,1057,1077,1097,1116,1137,1157,1177,1197,1216,1236,1257,1277,1296,1317,1337,1356,1377,1396,1416,1436,1456,1477,1496,1517,1536,1556,1577,1597,1616,1637,1657,1676,1696,1717,1736,1756,1777,1795,1817,1837,1857,1877,1895,1917,1936,1956,1975,1996,2017,2037,2056,2076,2096,2117,2136,2156,2176,2197,2217,2236,2256,2277,2296,2316,2336,2356,2376,2396,2415,2437,2456,2477,2496,2517,2535,2556,2576,2597,2616,2637,2657,2676,2696,2716,2736,2757,2777,2796,2815,2837,2856,2876,2896,2916,2936],"xSR":741.5,"ySR":469.95,"xT1":424.9,"yT1":0,"xT2":1058.1,"yT2":0,"toosoon":0,"cond_shown":"randomdotsizeEA","ratio_trial":900,"smaller_num":"9","larger_num":"10","correct_side":1,"subjID":"MARIAJOSECAMBEROS29","gender":"1","age":"9","school":"4"},{"start_time":1552313928012,"click_time":1552313929313,"finger_time":1552313928312,"fix_duration":258.5728552980836,"trial":31,"RT":300,"MT":1001,"sideResp":1,"stimulus":"img/250/randomdotsizeEA/L/7_Ratio_250_L_8_R_2.png","xmouse":[791,791,791,791,791,791,791,791,791,791,791,791,791,791,791,791,791,791,791,791,791,791,791,791,791,791,791,791,791,791,791,791,792,792,792,792,790,781,765,748,741,730,717,700,667,657,648,637,624,593,584,580,580,580,580,579,579,578,575,573,565,557,550,541,503],"ymouse":[482,482,482,482,482,482,482,482,482,482,482,480,478,473,464,459,456,453,450,446,445,445,445,445,445,445,445,445,444,444,444,443,441,441,436,431,425,414,392,358,342,321,300,270,209,187,168,151,134,102,97,97,97,97,97,97,97,97,97,97,96,92,89,85,58],"timestamp_mouse":[15,41,60,80,101,121,140,160,179,200,220,240,260,280,300,320,340,360,381,401,421,441,460,480,500,519,541,560,581,600,620,640,661,680,701,719,741,761,781,801,820,840,860,880,901,921,940,960,980,1001,1020,1040,1061,1080,1100,1119,1141,1161,1180,1200,1219,1240,1261,1280,1300],"xSR":741.5,"ySR":469.95,"xT1":424.9,"yT1":0,"xT2":1058.1,"yT2":0,"toosoon":0,"cond_shown":"randomdotsizeEA","ratio_trial":250,"smaller_num":"2","larger_num":"8","correct_side":1,"subjID":"MARIAJOSECAMBEROS29","gender":"1","age":"9","school":"4"},{"start_time":1552313931525,"click_time":1552313933812,"finger_time":1552313933172,"fix_duration":971.1469208706468,"trial":32,"RT":1647,"MT":640,"sideResp":1,"stimulus":"img/750/equaldotsize/R/15_Ratio_750_L_9_R_12.png","xmouse":[778,778,778,778,778,778,778,778,778,778,778,778,778,778,778,778,778,778,778,778,778,778,780,780,780,780,780,780,780,780,780,780,780,780,780,780,780,780,780,780,780,780,780,780,780,780,780,780,780,780,780,780,780,780,780,780,780,780,780,780,780,780,780,780,780,780,780,780,780,780,780,780,780,780,780,780,781,782,782,783,783,783,783,783,784,785,787,788,789,790,793,793,793,788,763,659,615,589,578,571,569,569,569,568,568,565,565,564,563,562,554,543,537,530,523],"ymouse":[499,499,499,499,499,499,499,499,499,499,498,498,498,498,498,498,498,498,498,498,498,498,497,497,497,497,497,497,497,497,497,497,497,497,497,497,497,497,497,497,497,497,497,497,497,497,497,497,497,497,497,497,497,497,497,497,497,497,497,497,497,497,497,497,497,497,497,497,497,497,497,497,497,497,497,497,496,496,493,488,477,472,468,466,462,460,455,452,447,442,429,419,401,380,337,202,150,117,102,94,91,91,91,91,91,92,92,93,95,96,96,95,92,89,86],"timestamp_mouse":[11,41,46,68,88,108,126,148,167,188,208,227,248,267,287,307,326,348,368,386,408,427,448,468,488,508,527,548,566,586,608,628,648,668,687,708,728,747,768,788,807,826,847,868,888,908,928,948,968,988,1008,1027,1048,1066,1086,1107,1126,1148,1168,1188,1208,1228,1248,1267,1288,1307,1327,1348,1368,1387,1408,1427,1447,1467,1487,1506,1527,1548,1567,1588,1607,1627,1647,1666,1689,1707,1727,1747,1767,1788,1807,1827,1848,1867,1887,1906,1927,1947,1967,1988,2008,2027,2047,2066,2086,2107,2128,2148,2167,2187,2207,2227,2247,2267,2287],"xSR":741.5,"ySR":469.95,"xT1":424.9,"yT1":0,"xT2":1058.1,"yT2":0,"toosoon":0,"cond_shown":"equaldotsize","ratio_trial":750,"smaller_num":"9","larger_num":"12","correct_side":2,"subjID":"MARIAJOSECAMBEROS29","gender":"1","age":"9","school":"4"},{"start_time":1552313935524,"click_time":1552313937352,"finger_time":1552313936531,"fix_duration":250,"trial":33,"RT":1007,"MT":821,"sideResp":2,"stimulus":"img/500/randomdotsizeEA/R/15_Ratio_500_L_1_R_2.png","xmouse":[749,749,749,749,749,749,749,749,749,749,749,749,749,749,749,749,749,749,749,749,749,749,749,749,749,749,749,749,749,749,749,749,749,749,749,749,749,749,749,749,749,749,749,749,749,750,750,753,754,755,759,766,774,788,807,864,889,902,912,921,939,945,951,959,965,972,982,984,986,986,986,989,991,994,1013,1018,1020,1022,1025,1037,1047,1053,1053,1053,1053,1053,1054,1054,1054,1055,1057,1061],"ymouse":[500,500,500,500,500,500,500,500,500,500,500,500,500,500,500,500,500,500,500,500,500,500,500,500,500,500,500,500,500,500,500,500,500,500,500,500,500,500,500,500,500,500,500,500,500,500,497,489,483,476,455,431,408,376,335,225,168,129,102,87,68,65,63,62,59,57,51,50,50,50,50,50,52,54,34,33,35,36,39,49,57,60,60,60,60,60,61,61,62,63,64,65],"timestamp_mouse":[12,36,48,68,88,108,129,149,168,189,208,227,249,269,288,308,329,348,368,387,408,429,449,469,487,508,528,548,569,589,607,628,649,667,689,707,729,749,769,789,809,828,849,869,889,909,928,949,968,989,1007,1029,1047,1068,1088,1108,1128,1148,1168,1188,1209,1228,1247,1269,1288,1308,1328,1349,1368,1388,1408,1428,1448,1468,1489,1509,1527,1548,1569,1589,1608,1629,1649,1669,1688,1708,1729,1749,1768,1788,1809,1828],"xSR":741.5,"ySR":469.95,"xT1":424.9,"yT1":0,"xT2":1058.1,"yT2":0,"toosoon":0,"cond_shown":"randomdotsizeEA","ratio_trial":500,"smaller_num":"1","larger_num":"2","correct_side":2,"subjID":"MARIAJOSECAMBEROS29","gender":"1","age":"9","school":"4"},{"start_time":1552313939784,"click_time":1552313941212,"finger_time":1552313940752,"fix_duration":930.2752200722048,"trial":34,"RT":968,"MT":460,"sideResp":2,"stimulus":"img/250/randomdotsizeEA/R/8_Ratio_250_L_1_R_4.png","xmouse":[782,782,782,782,782,782,782,782,782,782,782,782,782,782,782,782,782,782,782,782,782,782,782,782,782,782,782,782,782,782,782,782,782,782,782,782,782,782,782,782,782,782,782,784,787,789,795,800,820,833,852,870,890,925,940,953,975,991,1031,1052,1073,1088,1098,1108,1111,1114,1119,1124,1141,1147,1151,1152],"ymouse":[520,520,520,520,519,519,519,518,518,518,518,518,518,518,518,518,518,518,518,518,518,518,518,518,518,518,518,518,518,518,518,518,518,518,518,518,517,516,515,515,514,514,513,506,492,488,479,472,453,444,431,418,406,379,364,349,324,305,275,262,248,235,225,210,202,197,190,182,153,135,117,99],"timestamp_mouse":[13,37,48,67,88,108,127,148,169,187,209,228,249,269,289,307,329,349,369,387,408,429,448,468,489,509,529,549,568,589,609,627,648,669,689,708,729,748,769,789,809,829,849,867,888,908,929,947,968,988,1007,1028,1048,1067,1088,1108,1128,1148,1168,1188,1208,1228,1248,1267,1289,1308,1328,1348,1368,1387,1409,1428],"xSR":741.5,"ySR":469.95,"xT1":424.9,"yT1":0,"xT2":1058.1,"yT2":0,"toosoon":0,"cond_shown":"randomdotsizeEA","ratio_trial":250,"smaller_num":"1","larger_num":"4","correct_side":2,"subjID":"MARIAJOSECAMBEROS29","gender":"1","age":"9","school":"4"},{"start_time":1552313942689,"click_time":1552313943912,"finger_time":1552313943452,"fix_duration":253.71812250562752,"trial":35,"RT":763,"MT":460,"sideResp":1,"stimulus":"img/250/equaldotanddens/L/5_Ratio_250_L_24_R_6.png","xmouse":[773,773,773,773,773,773,773,773,773,773,773,773,773,773,773,773,773,773,773,773,773,773,773,773,773,773,773,773,773,773,773,774,774,775,775,775,775,775,775,772,753,726,697,656,648,646,645,645,638,626,620,616,612,607,602,598,592,584,557,544,527,510],"ymouse":[497,497,497,497,497,497,497,497,497,497,497,497,497,497,497,497,497,497,497,497,497,497,497,497,497,497,497,497,497,497,497,496,494,487,485,483,481,477,460,443,401,355,307,243,232,227,226,226,223,211,203,198,193,187,183,179,173,164,131,115,95,75],"timestamp_mouse":[10,22,42,63,84,104,122,144,164,183,203,224,244,264,284,303,322,344,363,384,403,423,444,464,483,502,522,543,563,583,604,624,643,663,683,704,722,744,763,783,802,824,843,863,883,903,924,943,963,984,1003,1024,1044,1063,1083,1104,1123,1143,1163,1184,1203,1223],"xSR":741.5,"ySR":469.95,"xT1":424.9,"yT1":0,"xT2":1058.1,"yT2":0,"toosoon":0,"cond_shown":"equaldotanddens","ratio_trial":250,"smaller_num":"6","larger_num":"24","correct_side":1,"subjID":"MARIAJOSECAMBEROS29","gender":"1","age":"9","school":"4"},{"start_time":1552313946130,"click_time":1552313947492,"finger_time":1552313946993,"fix_duration":916.3404399876516,"trial":36,"RT":863,"MT":499,"sideResp":2,"stimulus":"img/500/equaldotsize/R/12_Ratio_500_L_1_R_2.png","xmouse":[790,790,790,790,790,790,790,790,790,790,790,790,790,790,790,790,790,790,790,790,790,790,790,790,790,790,790,790,790,790,790,790,790,790,790,790,790,790,791,793,795,804,810,819,833,840,861,885,898,909,924,938,963,974,985,996,1012,1029,1037,1044,1050,1054,1062,1067,1072,1075,1082,1084,1086],"ymouse":[507,507,507,507,507,507,507,507,507,507,507,507,507,507,507,507,507,507,507,507,507,507,507,507,507,507,507,507,507,507,507,507,507,507,507,507,507,507,506,505,502,486,476,464,442,432,409,381,367,354,342,329,305,290,275,259,233,199,185,173,164,154,139,132,122,119,107,103,99],"timestamp_mouse":[10,40,42,62,82,102,122,142,162,183,202,222,242,263,283,302,322,343,362,382,403,423,441,463,482,503,523,542,563,581,603,622,642,663,683,703,722,743,762,782,802,823,842,863,882,903,922,943,962,981,1001,1023,1041,1062,1082,1102,1121,1141,1162,1182,1201,1223,1241,1262,1283,1302,1323,1342,1362],"xSR":741.5,"ySR":469.95,"xT1":424.9,"yT1":0,"xT2":1058.1,"yT2":0,"toosoon":0,"cond_shown":"equaldotsize","ratio_trial":500,"smaller_num":"1","larger_num":"2","correct_side":2,"subjID":"MARIAJOSECAMBEROS29","gender":"1","age":"9","school":"4"},{"start_time":1552313950171,"click_time":1552313951872,"finger_time":1552313951332,"fix_duration":1337.3755796785547,"trial":37,"RT":1161,"MT":540,"sideResp":2,"stimulus":"img/750/equaldotsize/L/10_Ratio_750_L_4_R_3.png","xmouse":[824,824,824,824,823,823,822,822,822,821,821,821,821,821,821,821,821,821,821,821,821,821,821,821,821,821,821,821,821,821,821,821,821,821,821,821,821,821,821,821,821,821,821,821,821,821,821,821,820,819,818,818,818,818,818,818,817,814,814,818,829,835,838,840,841,848,857,868,881,893,918,938,950,960,974,999,1013,1025,1036,1042,1052,1057,1065,1069,1073,1091],"ymouse":[507,507,507,507,507,507,507,507,507,507,507,507,507,507,507,507,507,507,507,507,507,507,507,507,507,507,507,507,507,507,507,507,507,507,507,507,507,507,507,507,507,507,507,507,507,507,507,507,506,506,504,504,504,504,504,503,499,489,465,427,342,316,309,306,304,301,297,293,286,280,267,259,253,248,243,229,219,207,191,176,145,134,121,114,110,97],"timestamp_mouse":[9,21,45,61,82,101,121,141,162,181,202,220,240,261,281,302,321,341,362,381,402,421,442,462,480,502,521,542,562,581,602,622,641,662,681,702,721,742,760,781,801,822,842,860,881,901,922,942,961,981,1001,1022,1040,1062,1081,1102,1121,1140,1161,1181,1201,1222,1240,1261,1280,1302,1321,1341,1361,1381,1401,1420,1441,1461,1481,1500,1521,1541,1562,1582,1601,1621,1641,1662,1681,1701],"xSR":741.5,"ySR":469.95,"xT1":424.9,"yT1":0,"xT2":1058.1,"yT2":0,"toosoon":0,"cond_shown":"equaldotsize","ratio_trial":750,"smaller_num":"3","larger_num":"4","correct_side":1,"subjID":"MARIAJOSECAMBEROS29","gender":"1","age":"9","school":"4"},{"start_time":1552313954875,"click_time":1552313956274,"finger_time":1552313955492,"fix_duration":1479.7097180260712,"trial":38,"RT":617,"MT":782,"sideResp":1,"stimulus":"img/900/equaldotanddens/L/8_Ratio_900_L_20_R_18.png","xmouse":[820,819,819,816,810,806,806,806,806,806,806,806,806,806,806,806,806,806,806,806,806,806,806,806,806,806,805,803,801,799,792,790,788,785,780,779,778,774,773,765,760,757,750,747,740,721,713,704,694,684,665,653,642,632,614,612,611,611,611,611,607,599,587,571,562,546,538,532,526,520],"ymouse":[543,541,541,538,528,522,521,521,521,521,521,521,521,521,521,521,521,521,521,521,521,521,521,521,519,516,511,504,491,477,449,438,428,421,409,406,402,399,394,377,367,357,341,336,322,285,271,255,238,222,190,174,162,151,133,132,132,132,132,132,131,128,122,111,101,79,70,62,55,50],"timestamp_mouse":[17,49,57,77,97,117,138,157,177,197,217,237,258,278,297,317,338,358,377,396,418,438,457,478,497,517,538,557,577,596,617,637,657,677,699,716,737,757,777,797,817,837,857,878,897,917,936,957,977,997,1017,1037,1057,1076,1098,1117,1138,1157,1177,1198,1217,1236,1258,1277,1298,1317,1337,1357,1377,1399],"xSR":741.5,"ySR":469.95,"xT1":424.9,"yT1":0,"xT2":1058.1,"yT2":0,"toosoon":0,"cond_shown":"equaldotanddens","ratio_trial":900,"smaller_num":"18","larger_num":"20","correct_side":1,"subjID":"MARIAJOSECAMBEROS29","gender":"1","age":"9","school":"4"},{"start_time":1552313957714,"click_time":1552313959092,"finger_time":1552313958612,"fix_duration":461.0167151080735,"trial":39,"RT":898,"MT":480,"sideResp":2,"stimulus":"img/900/equaldotanddens/L/4_Ratio_900_L_20_R_18.png","xmouse":[803,803,803,803,803,803,803,803,803,803,803,803,803,803,803,803,803,803,803,803,803,803,803,803,803,803,803,803,803,803,803,803,803,803,803,803,803,803,803,804,808,812,816,833,854,879,909,936,980,990,1003,1011,1018,1028,1033,1040,1047,1051,1059,1063,1064,1067,1067,1067,1067,1067,1067,1067,1069],"ymouse":[488,488,488,488,488,488,488,488,488,488,488,488,488,488,488,488,488,488,488,488,488,488,488,488,488,488,488,488,488,488,488,488,488,488,488,488,488,488,488,487,485,483,480,471,465,462,453,445,420,404,371,349,329,300,284,271,259,250,231,214,202,189,175,150,136,124,113,105,96],"timestamp_mouse":[19,41,59,79,98,118,139,158,178,197,219,237,259,278,299,318,338,359,379,398,419,439,459,479,497,519,539,558,579,599,618,637,659,678,699,719,739,759,779,799,818,837,858,877,898,918,938,958,978,998,1017,1039,1058,1078,1098,1118,1137,1158,1178,1198,1219,1238,1258,1278,1298,1319,1339,1358,1378],"xSR":741.5,"ySR":469.95,"xT1":424.9,"yT1":0,"xT2":1058.1,"yT2":0,"toosoon":0,"cond_shown":"equaldotanddens","ratio_trial":900,"smaller_num":"18","larger_num":"20","correct_side":1,"subjID":"MARIAJOSECAMBEROS29","gender":"1","age":"9","school":"4"},{"start_time":1552313960525,"click_time":1552313961793,"finger_time":1552313960892,"fix_duration":250,"trial":40,"RT":367,"MT":901,"sideResp":1,"stimulus":"img/750/equaldotsize/L/10_Ratio_750_L_4_R_3.png","xmouse":[789,789,789,789,789,789,789,789,789,789,789,789,789,789,789,789,788,788,788,785,782,779,775,771,769,766,762,757,741,724,715,703,694,679,673,667,662,658,654,651,649,647,644,640,628,622,616,608,588,579,572,564,555,545,543,540,539,537,535,532,530,529,525,522],"ymouse":[481,481,481,481,481,481,481,481,481,481,481,481,481,481,481,481,481,479,466,458,448,438,432,419,411,404,395,383,351,322,305,288,274,249,238,231,224,219,212,207,204,200,196,190,174,166,155,144,115,103,92,83,72,60,57,54,52,51,50,49,48,48,47,47],"timestamp_mouse":[19,26,47,67,87,108,128,147,167,187,207,228,247,267,286,307,327,348,367,388,407,427,447,467,487,507,527,547,567,588,606,627,647,667,686,707,728,748,767,788,806,828,846,867,887,907,927,948,967,987,1006,1028,1048,1068,1086,1108,1127,1147,1167,1188,1207,1228,1248,1268],"xSR":741.5,"ySR":469.95,"xT1":424.9,"yT1":0,"xT2":1058.1,"yT2":0,"toosoon":0,"cond_shown":"equaldotsize","ratio_trial":750,"smaller_num":"3","larger_num":"4","correct_side":1,"subjID":"MARIAJOSECAMBEROS29","gender":"1","age":"9","school":"4"},{"start_time":1552313963524,"click_time":1552313964772,"finger_time":1552313964192,"fix_duration":709.5349670339605,"trial":41,"RT":668,"MT":580,"sideResp":2,"stimulus":"img/500/equaldotsize/R/9_Ratio_500_L_2_R_4.png","xmouse":[786,786,786,786,786,786,786,786,786,786,786,786,786,786,786,786,786,786,786,786,786,786,786,787,787,787,787,788,789,789,791,791,793,797,800,805,811,821,841,880,912,943,973,1007,1024,1037,1046,1057,1076,1082,1088,1092,1096,1098,1098,1098,1098,1098,1098,1099,1100,1102,1103],"ymouse":[497,497,497,497,497,497,497,497,497,497,497,497,495,495,495,495,495,495,495,495,495,494,493,493,493,491,490,489,487,485,482,479,476,469,465,461,454,443,426,395,372,349,323,273,244,224,212,201,182,172,164,156,148,131,124,120,115,115,112,108,104,101,98],"timestamp_mouse":[12,35,48,68,89,108,129,149,167,189,209,229,248,269,289,307,329,348,368,388,408,429,448,468,488,507,529,549,568,589,608,629,648,668,687,708,727,748,768,789,809,829,848,869,888,908,929,948,968,989,1008,1028,1049,1069,1089,1108,1129,1149,1168,1189,1209,1228,1248],"xSR":741.5,"ySR":469.95,"xT1":424.9,"yT1":0,"xT2":1058.1,"yT2":0,"toosoon":0,"cond_shown":"equaldotsize","ratio_trial":500,"smaller_num":"2","larger_num":"4","correct_side":2,"subjID":"MARIAJOSECAMBEROS29","gender":"1","age":"9","school":"4"},{"start_time":1552313967325,"click_time":1552313968612,"finger_time":1552313968172,"fix_duration":1011.1278447922439,"trial":42,"RT":847,"MT":440,"sideResp":1,"stimulus":"img/250/equaldotanddens/L/14_Ratio_250_L_12_R_3.png","xmouse":[760,760,760,760,760,760,760,760,760,760,760,760,760,760,760,760,760,760,760,760,760,760,760,760,760,760,760,761,761,761,761,761,761,761,762,762,763,764,765,765,765,765,765,764,751,744,732,727,721,711,703,694,681,668,637,619,598,586,577,559,549,542,534,526,516],"ymouse":[552,552,552,552,552,552,552,552,552,552,552,552,552,552,552,552,552,552,552,552,552,552,552,552,552,552,552,552,551,551,550,550,549,549,546,540,535,530,524,507,496,481,466,450,413,396,376,368,361,350,341,332,318,302,261,239,212,197,182,158,142,130,114,101,80],"timestamp_mouse":[10,27,46,66,87,107,128,148,168,187,207,227,248,267,288,307,328,348,367,388,407,428,448,467,488,507,528,547,567,588,607,628,648,667,687,708,727,748,767,787,807,826,847,868,887,908,926,948,967,987,1006,1026,1046,1067,1087,1107,1126,1146,1167,1187,1207,1227,1247,1267,1287],"xSR":741.5,"ySR":469.95,"xT1":424.9,"yT1":0,"xT2":1058.1,"yT2":0,"toosoon":0,"cond_shown":"equaldotanddens","ratio_trial":250,"smaller_num":"3","larger_num":"12","correct_side":1,"subjID":"MARIAJOSECAMBEROS29","gender":"1","age":"9","school":"4"},{"start_time":1552313971425,"click_time":1552313973232,"finger_time":1552313972812,"fix_duration":1210.6374095306808,"trial":43,"RT":1387,"MT":420,"sideResp":1,"stimulus":"img/500/equaldotanddens/L/11_Ratio_500_L_12_R_6.png","xmouse":[778,778,778,778,778,778,778,778,778,778,778,778,778,778,778,778,778,778,778,778,778,778,778,778,778,778,778,778,778,778,778,778,778,778,778,778,778,778,778,778,778,778,778,778,778,778,778,778,778,778,779,781,781,782,782,783,783,783,783,783,783,783,783,783,783,782,780,776,769,736,720,708,700,695,691,680,673,664,657,647,621,608,596,586,567,559,548,532,510,482,474],"ymouse":[506,506,506,506,506,506,506,506,506,506,506,506,506,506,506,506,506,506,506,506,506,506,506,506,506,506,506,506,506,506,506,506,506,506,506,506,506,506,506,506,506,506,506,506,506,506,506,506,506,506,506,505,504,504,503,502,502,501,501,500,500,499,499,497,494,491,488,483,473,432,411,395,383,376,371,360,352,341,330,315,282,268,252,237,211,201,187,167,137,102,90],"timestamp_mouse":[12,35,48,66,86,108,126,147,168,187,208,227,246,267,286,307,328,348,366,387,407,428,446,468,487,506,528,547,567,586,607,627,648,668,688,707,728,748,766,788,808,827,847,868,887,907,927,947,968,988,1007,1027,1047,1067,1087,1108,1127,1148,1167,1188,1208,1226,1247,1267,1287,1307,1326,1347,1368,1387,1407,1427,1447,1467,1487,1507,1527,1548,1567,1588,1607,1626,1647,1667,1689,1707,1727,1747,1766,1788,1807],"xSR":741.5,"ySR":469.95,"xT1":424.9,"yT1":0,"xT2":1058.1,"yT2":0,"toosoon":0,"cond_shown":"equaldotanddens","ratio_trial":500,"smaller_num":"6","larger_num":"12","correct_side":1,"subjID":"MARIAJOSECAMBEROS29","gender":"1","age":"9","school":"4"},{"start_time":1552313974671,"click_time":1552313976735,"finger_time":1552313975553,"fix_duration":416.98607417220876,"trial":44,"RT":882,"MT":1182,"sideResp":1,"stimulus":"img/750/equaldotsize/L/10_Ratio_750_L_4_R_3.png","xmouse":[758,758,758,758,758,758,758,758,758,758,758,758,758,758,758,758,758,758,758,758,758,758,758,758,758,758,758,758,758,758,758,758,758,760,760,760,760,760,760,761,762,763,766,767,770,777,782,794,802,807,813,818,822,828,829,830,831,831,832,833,833,833,833,833,833,833,833,833,833,833,833,833,833,833,832,832,832,831,824,818,809,797,787,770,759,753,745,738,724,715,707,700,690,671,658,650,641,634,620,608,595,577,558,518],"ymouse":[479,479,479,479,479,479,479,479,479,479,479,479,479,479,479,479,479,479,479,479,479,479,479,479,479,479,479,479,479,479,479,479,479,479,479,479,479,479,478,477,475,474,471,471,468,463,460,453,449,446,443,439,437,433,431,430,429,429,425,425,424,424,424,424,424,424,424,424,424,423,421,420,418,416,413,413,411,407,393,381,367,351,337,314,299,291,282,274,255,244,236,227,216,198,186,177,170,163,151,143,133,119,102,65],"timestamp_mouse":[10,21,41,61,81,102,122,141,161,182,201,222,242,262,282,300,322,342,362,381,401,422,442,462,482,502,521,541,562,581,602,622,640,661,681,700,722,741,761,781,801,821,842,860,882,900,922,942,961,982,1000,1020,1042,1061,1082,1100,1121,1141,1161,1181,1201,1222,1242,1260,1280,1301,1321,1342,1361,1380,1401,1421,1442,1460,1482,1501,1521,1541,1562,1580,1602,1621,1642,1661,1682,1700,1721,1741,1760,1781,1801,1821,1841,1861,1881,1900,1921,1942,1960,1982,2002,2021,2041,2064],"xSR":741.5,"ySR":469.95,"xT1":424.9,"yT1":0,"xT2":1058.1,"yT2":0,"toosoon":0,"cond_shown":"equaldotsize","ratio_trial":750,"smaller_num":"3","larger_num":"4","correct_side":1,"subjID":"MARIAJOSECAMBEROS29","gender":"1","age":"9","school":"4"},{"start_time":1552313979996,"click_time":1552313982233,"finger_time":1552313981892,"fix_duration":863.7426683239635,"trial":45,"RT":1896,"MT":341,"sideResp":1,"stimulus":"img/500/equaldotsize/L/4_Ratio_500_L_18_R_9.png","xmouse":[778,778,778,778,778,778,778,778,778,778,778,778,778,778,778,778,778,778,778,778,778,778,778,778,778,778,778,778,778,778,778,778,778,778,778,778,778,778,778,778,778,778,778,778,778,778,778,779,779,779,779,779,779,779,779,779,779,779,779,779,779,779,779,779,779,779,779,779,779,779,779,779,779,779,779,779,779,779,779,777,776,776,776,774,773,770,765,764,764,764,764,764,762,759,743,735,639,589,552,536,534,534,534,534,534,534,534,531,530,526,522,506],"ymouse":[495,495,495,495,495,495,495,495,495,495,495,495,495,495,495,495,495,495,495,495,495,495,495,495,495,495,495,495,495,495,495,495,495,495,495,495,495,495,495,495,495,496,496,496,496,496,496,495,495,495,495,495,495,495,495,495,495,495,495,495,495,495,495,495,495,495,495,495,495,495,495,495,495,495,495,495,495,495,494,492,491,491,491,491,491,491,491,492,492,492,492,492,492,489,453,433,266,185,133,111,109,109,109,109,108,108,108,107,107,106,103,90],"timestamp_mouse":[15,37,56,76,96,116,136,156,176,196,217,236,257,275,297,317,336,356,376,396,415,436,457,476,495,517,536,557,576,595,616,636,657,676,697,717,736,757,776,797,817,837,857,877,897,915,936,957,976,997,1015,1037,1056,1077,1096,1116,1136,1157,1177,1196,1215,1236,1257,1276,1296,1317,1336,1356,1376,1397,1417,1436,1457,1477,1496,1517,1536,1557,1576,1596,1617,1636,1656,1676,1696,1717,1736,1755,1776,1797,1816,1836,1856,1876,1896,1917,1937,1956,1976,1996,2017,2037,2056,2076,2096,2116,2136,2156,2176,2196,2216,2237],"xSR":741.5,"ySR":469.95,"xT1":424.9,"yT1":0,"xT2":1058.1,"yT2":0,"toosoon":0,"cond_shown":"equaldotsize","ratio_trial":500,"smaller_num":"9","larger_num":"18","correct_side":1,"subjID":"MARIAJOSECAMBEROS29","gender":"1","age":"9","school":"4"},{"start_time":1552313983970,"click_time":1552313984952,"finger_time":1552313984572,"fix_duration":734.9582900141395,"trial":46,"RT":602,"MT":380,"sideResp":1,"stimulus":"img/250/equaldotanddens/L/14_Ratio_250_L_12_R_3.png","xmouse":[784,784,784,784,784,784,784,784,784,784,784,784,784,784,784,784,784,784,784,784,784,784,784,784,784,784,784,782,779,774,768,758,747,733,704,684,673,665,657,636,623,600,587,572,544,529,522,513,500,468],"ymouse":[505,505,505,505,505,505,505,505,505,505,505,505,505,505,505,505,505,505,505,505,505,505,505,505,505,505,503,498,492,481,468,450,432,411,367,338,322,308,294,264,245,232,212,193,161,147,140,132,119,82],"timestamp_mouse":[12,36,42,63,81,101,123,142,163,182,202,222,243,263,283,301,323,343,362,381,403,422,443,462,483,502,523,543,562,583,602,623,642,662,683,703,722,742,762,782,802,822,842,863,882,902,921,943,962,982],"xSR":741.5,"ySR":469.95,"xT1":424.9,"yT1":0,"xT2":1058.1,"yT2":0,"toosoon":0,"cond_shown":"equaldotanddens","ratio_trial":250,"smaller_num":"3","larger_num":"12","correct_side":1,"subjID":"MARIAJOSECAMBEROS29","gender":"1","age":"9","school":"4"},{"start_time":1552313988493,"click_time":1552313990054,"finger_time":1552313989452,"fix_duration":578.0443671931706,"trial":47,"RT":959,"MT":602,"sideResp":2,"stimulus":"img/250/equaldotanddens/R/4_Ratio_250_L_3_R_12.png","xmouse":[779,779,779,779,779,779,779,779,779,779,779,779,779,779,779,779,779,779,779,779,779,779,779,779,779,779,779,779,779,779,779,779,779,779,779,779,779,779,779,779,779,779,779,784,793,805,817,833,881,910,938,956,971,981,996,1002,1007,1011,1014,1020,1023,1025,1027,1031,1035,1037,1038,1039,1040,1042,1044,1046,1050,1062,1071,1082,1094,1106,1129],"ymouse":[513,513,513,513,513,513,513,513,513,513,513,513,513,513,513,513,513,513,513,513,513,513,513,513,513,513,513,513,513,513,513,513,513,513,513,513,513,513,513,513,513,513,513,509,504,495,486,475,455,446,438,430,417,405,378,364,350,336,323,283,270,258,247,216,198,184,177,172,171,166,164,161,157,143,135,123,112,102,84],"timestamp_mouse":[1,19,40,59,79,100,119,138,159,180,199,219,240,259,279,299,319,340,359,380,400,420,439,459,479,500,520,540,559,579,598,620,640,659,680,699,720,740,759,779,800,820,840,859,879,900,919,939,959,980,998,1020,1039,1059,1080,1099,1119,1140,1159,1179,1198,1219,1239,1259,1278,1299,1319,1339,1360,1380,1398,1420,1439,1460,1479,1500,1519,1538,1561],"xSR":741.5,"ySR":469.95,"xT1":424.9,"yT1":0,"xT2":1058.1,"yT2":0,"toosoon":0,"cond_shown":"equaldotanddens","ratio_trial":250,"smaller_num":"3","larger_num":"12","correct_side":2,"subjID":"MARIAJOSECAMBEROS29","gender":"1","age":"9","school":"4"},{"start_time":1552313992314,"click_time":1552313994033,"finger_time":1552313993232,"fix_duration":1119.3181233248322,"trial":48,"RT":918,"MT":801,"sideResp":2,"stimulus":"img/500/randomdotsizeEA/R/15_Ratio_500_L_1_R_2.png","xmouse":[771,771,772,772,772,773,773,773,773,773,774,774,774,774,775,775,775,775,776,776,778,778,779,780,780,780,781,781,781,781,782,782,782,782,782,782,783,783,783,783,783,784,788,796,799,812,823,850,865,881,903,923,961,984,998,1008,1017,1033,1040,1048,1054,1062,1074,1082,1086,1092,1098,1106,1108,1110,1110,1111,1111,1111,1111,1111,1111,1111,1111,1111,1111,1111,1111,1114,1118,1123],"ymouse":[503,503,502,502,502,501,501,501,501,501,501,501,499,499,499,499,498,498,496,496,495,494,492,492,492,492,491,491,491,490,489,489,488,488,488,488,488,488,488,488,487,486,484,479,477,467,458,431,421,409,392,377,343,323,310,299,288,273,264,254,248,240,223,210,202,192,181,160,152,146,143,141,141,141,141,141,141,141,141,141,141,141,138,124,109,84],"timestamp_mouse":[19,37,58,78,99,117,137,158,177,199,218,237,259,278,298,317,339,357,379,398,419,438,458,479,498,518,538,557,579,599,618,638,658,678,698,717,738,759,779,799,819,839,858,879,898,918,940,958,978,998,1018,1038,1057,1078,1097,1118,1138,1158,1178,1198,1219,1239,1257,1279,1297,1319,1339,1357,1378,1398,1417,1438,1458,1478,1498,1518,1539,1559,1578,1599,1618,1638,1657,1679,1697,1719],"xSR":741.5,"ySR":469.95,"xT1":424.9,"yT1":0,"xT2":1058.1,"yT2":0,"toosoon":0,"cond_shown":"randomdotsizeEA","ratio_trial":500,"smaller_num":"1","larger_num":"2","correct_side":2,"subjID":"MARIAJOSECAMBEROS29","gender":"1","age":"9","school":"4"},{"start_time":1552313997023,"click_time":1552313998832,"finger_time":1552313998132,"fix_duration":1329.8537577540337,"trial":49,"RT":1109,"MT":700,"sideResp":1,"stimulus":"img/500/equaldotsize/L/4_Ratio_500_L_18_R_9.png","xmouse":[762,762,762,762,762,762,762,762,762,762,762,762,762,762,762,762,762,762,762,762,762,762,762,762,762,762,762,762,762,762,762,762,762,762,762,762,762,762,762,762,762,762,762,762,762,762,762,763,765,766,767,768,768,768,768,767,764,747,739,729,723,713,686,675,663,652,641,630,612,611,610,610,609,605,597,584,573,543,534,529,523,519,516,512,511,509,509,508,504,497,484],"ymouse":[545,545,545,545,545,545,545,545,545,545,545,545,545,545,545,545,545,545,545,545,545,545,545,545,545,545,545,545,545,545,545,545,545,545,545,545,545,545,545,545,545,545,545,545,545,544,543,540,531,525,518,512,497,489,480,469,463,433,419,403,386,371,329,308,289,269,253,238,214,212,212,212,211,207,199,187,173,139,128,122,117,114,113,110,109,108,108,107,105,100,88],"timestamp_mouse":[12,35,49,70,89,108,130,150,169,189,209,230,249,270,288,310,329,350,369,390,410,430,449,469,488,510,530,549,569,590,609,628,648,670,689,709,729,750,768,789,810,829,849,869,890,909,929,948,969,989,1010,1029,1049,1069,1089,1109,1130,1149,1169,1188,1209,1229,1249,1269,1290,1309,1329,1348,1370,1390,1409,1429,1450,1468,1489,1509,1529,1550,1569,1588,1609,1629,1650,1669,1689,1710,1730,1749,1769,1789,1809],"xSR":741.5,"ySR":469.95,"xT1":424.9,"yT1":0,"xT2":1058.1,"yT2":0,"toosoon":0,"cond_shown":"equaldotsize","ratio_trial":500,"smaller_num":"9","larger_num":"18","correct_side":1,"subjID":"MARIAJOSECAMBEROS29","gender":"1","age":"9","school":"4"},{"start_time":1552314000195,"click_time":1552314001533,"finger_time":1552314001052,"fix_duration":399.61858402861327,"trial":50,"RT":857,"MT":481,"sideResp":2,"stimulus":"img/900/equaldotsize/R/12_Ratio_900_L_18_R_20.png","xmouse":[786,786,786,786,786,786,786,786,786,786,786,786,786,786,786,786,786,786,786,786,786,786,786,786,786,786,786,786,786,786,786,786,786,786,786,786,786,786,786,788,797,813,833,857,910,956,968,1008,1028,1055,1064,1069,1073,1077,1087,1092,1098,1103,1107,1112,1113,1113,1113,1113,1113,1113,1113],"ymouse":[496,496,496,496,496,496,496,496,496,496,496,496,496,496,496,496,496,496,496,496,496,496,496,496,496,496,496,496,496,496,496,496,496,496,496,496,496,496,496,494,486,476,461,444,406,369,358,324,307,277,266,258,252,247,236,230,218,208,198,178,170,163,156,137,124,106,98],"timestamp_mouse":[17,44,57,77,97,117,138,158,177,198,218,238,258,277,297,318,338,357,378,397,417,438,458,477,497,518,538,558,578,598,617,636,658,678,697,716,736,758,778,798,817,837,857,878,897,917,937,957,977,997,1017,1037,1056,1076,1097,1117,1137,1158,1178,1197,1217,1238,1257,1278,1297,1317,1338],"xSR":741.5,"ySR":469.95,"xT1":424.9,"yT1":0,"xT2":1058.1,"yT2":0,"toosoon":0,"cond_shown":"equaldotsize","ratio_trial":900,"smaller_num":"18","larger_num":"20","correct_side":2,"subjID":"MARIAJOSECAMBEROS29","gender":"1","age":"9","school":"4"},{"start_time":1552314002904,"click_time":1552314004492,"finger_time":1552314003973,"fix_duration":250,"trial":51,"RT":1069,"MT":519,"sideResp":1,"stimulus":"img/900/randomdotsizeEA/L/2_Ratio_900_L_20_R_18.png","xmouse":[771,770,770,770,770,770,770,770,770,770,770,770,770,770,770,770,770,770,770,770,770,770,770,770,770,770,770,770,770,770,770,770,770,770,770,770,770,770,770,770,770,770,770,770,770,769,769,769,769,768,766,765,762,758,750,747,742,737,733,722,709,698,687,674,651,640,630,621,613,595,590,587,582,578,567,558,549,540,532,504],"ymouse":[506,506,506,506,506,506,506,506,506,506,506,506,506,506,506,506,506,506,506,506,506,506,505,505,505,505,505,504,504,504,504,504,504,504,504,504,504,504,504,504,504,504,504,504,504,502,502,502,500,498,489,484,477,468,450,440,429,419,407,383,360,341,323,304,268,251,237,223,210,186,180,175,168,162,145,133,120,107,95,52],"timestamp_mouse":[20,40,49,68,89,109,127,149,168,189,209,228,248,269,288,309,329,347,367,389,409,427,449,468,488,509,529,549,568,588,608,628,648,669,689,708,729,749,769,789,808,829,849,869,888,908,928,949,968,988,1009,1028,1049,1069,1088,1108,1128,1148,1168,1188,1209,1228,1248,1268,1288,1308,1328,1348,1369,1389,1408,1427,1449,1467,1487,1509,1529,1547,1567,1588],"xSR":741.5,"ySR":469.95,"xT1":424.9,"yT1":0,"xT2":1058.1,"yT2":0,"toosoon":0,"cond_shown":"randomdotsizeEA","ratio_trial":900,"smaller_num":"18","larger_num":"20","correct_side":1,"subjID":"MARIAJOSECAMBEROS29","gender":"1","age":"9","school":"4"},{"start_time":1552314006288,"click_time":1552314007672,"finger_time":1552314007032,"fix_duration":674.7837222823878,"trial":52,"RT":744,"MT":640,"sideResp":2,"stimulus":"img/250/equaldotanddens/R/9_Ratio_250_L_3_R_12.png","xmouse":[786,786,786,786,786,786,786,786,786,786,786,786,786,786,786,786,786,786,786,786,786,786,786,786,786,786,786,786,786,786,786,786,787,789,795,806,840,857,868,891,918,944,956,966,977,993,997,999,1001,1002,1005,1007,1010,1013,1015,1017,1017,1018,1019,1020,1024,1031,1035,1041,1045,1055,1059,1063,1065,1067],"ymouse":[485,485,485,485,485,485,485,485,485,485,485,485,485,485,485,485,485,485,485,485,485,485,485,485,485,485,485,485,485,485,485,485,485,485,485,485,479,474,474,470,457,434,418,401,385,353,339,324,313,303,278,266,253,237,226,217,216,215,213,212,207,197,191,180,171,144,129,113,100,87],"timestamp_mouse":[9,40,44,64,85,104,124,144,163,183,204,225,243,263,285,303,325,345,364,384,405,424,445,464,483,505,525,543,565,585,604,625,644,664,684,704,724,744,764,783,805,824,843,864,884,904,923,944,964,985,1004,1024,1044,1064,1085,1104,1124,1143,1164,1184,1203,1225,1244,1264,1285,1304,1325,1344,1364,1384],"xSR":741.5,"ySR":469.95,"xT1":424.9,"yT1":0,"xT2":1058.1,"yT2":0,"toosoon":0,"cond_shown":"equaldotanddens","ratio_trial":250,"smaller_num":"3","larger_num":"12","correct_side":2,"subjID":"MARIAJOSECAMBEROS29","gender":"1","age":"9","school":"4"},{"start_time":1552314010243,"click_time":1552314011333,"finger_time":1552314011052,"fix_duration":1447.230692431261,"trial":53,"RT":809,"MT":281,"sideResp":2,"stimulus":"img/500/equaldotanddens/R/6_Ratio_500_L_9_R_18.png","xmouse":[755,755,755,755,755,755,755,755,755,755,755,754,754,754,754,754,754,754,754,754,754,754,754,754,754,754,754,754,754,754,754,754,754,754,754,755,758,761,773,787,799,819,844,908,932,949,966,978,1002,1012,1025,1034,1043,1057,1064],"ymouse":[512,512,512,512,512,512,512,512,512,512,512,512,512,512,512,512,512,512,512,512,512,512,512,512,512,512,512,512,512,512,512,512,512,512,511,509,505,501,489,478,468,452,429,343,293,253,225,205,175,164,147,136,123,102,90],"timestamp_mouse":[10,36,49,70,89,110,128,150,170,188,209,229,250,269,289,310,329,350,370,389,410,430,450,469,489,509,530,549,570,588,608,628,649,670,689,710,729,749,769,788,809,830,849,868,889,909,929,949,969,990,1008,1029,1049,1068,1090],"xSR":741.5,"ySR":469.95,"xT1":424.9,"yT1":0,"xT2":1058.1,"yT2":0,"toosoon":0,"cond_shown":"equaldotanddens","ratio_trial":500,"smaller_num":"9","larger_num":"18","correct_side":2,"subjID":"MARIAJOSECAMBEROS29","gender":"1","age":"9","school":"4"},{"start_time":1552314013471,"click_time":1552314015012,"finger_time":1552314014433,"fix_duration":1137.2252011838727,"trial":54,"RT":962,"MT":579,"sideResp":2,"stimulus":"img/250/equaldotsize/R/6_Ratio_250_L_6_R_24.png","xmouse":[786,786,786,786,786,786,786,786,786,786,786,786,786,786,786,786,786,786,786,786,786,786,786,786,786,786,786,786,786,786,786,786,786,786,786,786,786,786,786,786,786,788,789,792,795,802,812,840,851,860,879,903,939,954,962,969,975,987,991,995,1000,1006,1010,1013,1015,1017,1018,1025,1028,1032,1035,1039,1045,1049,1054,1059,1063,1069],"ymouse":[484,484,484,484,484,484,484,484,484,484,484,484,484,484,484,484,484,484,484,484,484,484,484,484,484,484,484,484,484,484,484,484,484,484,484,484,484,484,484,484,484,484,484,484,484,482,479,470,459,447,431,408,342,295,267,246,229,208,203,195,185,176,170,164,162,159,158,152,149,146,144,139,132,127,121,114,108,98],"timestamp_mouse":[9,22,42,61,80,102,122,142,160,182,202,222,242,261,281,301,321,342,362,382,402,422,442,462,482,500,522,542,560,582,602,622,641,662,682,700,722,741,762,780,802,822,841,861,880,901,921,941,962,981,1001,1021,1042,1060,1080,1101,1122,1141,1161,1181,1201,1221,1241,1261,1281,1301,1320,1341,1361,1380,1402,1421,1442,1461,1480,1500,1521,1541],"xSR":741.5,"ySR":469.95,"xT1":424.9,"yT1":0,"xT2":1058.1,"yT2":0,"toosoon":0,"cond_shown":"equaldotsize","ratio_trial":250,"smaller_num":"6","larger_num":"24","correct_side":2,"subjID":"MARIAJOSECAMBEROS29","gender":"1","age":"9","school":"4"},{"start_time":1552314017023,"click_time":1552314018432,"finger_time":1552314017852,"fix_duration":770.2694029662947,"trial":55,"RT":829,"MT":580,"sideResp":2,"stimulus":"img/500/equaldotanddens/R/12_Ratio_500_L_1_R_2.png","xmouse":[755,755,755,755,755,755,755,755,755,755,755,755,755,755,755,755,755,755,755,755,755,755,755,755,755,755,755,755,755,755,755,755,755,755,755,755,755,756,759,765,787,803,824,843,863,910,935,943,968,1001,1015,1028,1041,1052,1067,1071,1073,1075,1075,1075,1077,1078,1079,1081,1083,1088,1090,1093,1098,1101,1108],"ymouse":[497,497,497,497,497,497,497,497,497,497,497,497,497,497,497,497,497,497,497,497,497,497,497,497,497,497,497,497,497,497,497,497,497,497,497,497,497,496,494,489,473,462,447,432,416,367,330,320,290,251,233,214,195,178,153,146,142,141,141,141,138,137,135,132,130,122,118,114,105,100,82],"timestamp_mouse":[9,28,49,68,90,109,129,148,169,190,209,230,250,270,290,309,330,349,369,390,410,429,448,468,490,508,530,550,568,590,610,629,648,670,688,708,729,749,769,789,809,829,849,869,888,908,929,949,970,991,1008,1030,1049,1069,1090,1108,1130,1149,1168,1188,1209,1229,1249,1268,1290,1309,1330,1349,1370,1391,1408],"xSR":741.5,"ySR":469.95,"xT1":424.9,"yT1":0,"xT2":1058.1,"yT2":0,"toosoon":0,"cond_shown":"equaldotanddens","ratio_trial":500,"smaller_num":"1","larger_num":"2","correct_side":2,"subjID":"MARIAJOSECAMBEROS29","gender":"1","age":"9","school":"4"},{"start_time":1552314020002,"click_time":1552314021453,"finger_time":1552314020831,"fix_duration":668.2024957234815,"trial":56,"RT":829,"MT":622,"sideResp":2,"stimulus":"img/900/equaldotsize/R/15_Ratio_900_L_9_R_10.png","xmouse":[781,781,781,781,781,781,781,781,781,781,781,781,781,781,781,781,781,781,781,781,781,781,781,781,781,781,781,781,781,781,781,781,781,781,781,781,782,783,786,788,792,806,818,831,835,839,845,851,855,860,867,889,901,914,926,939,966,986,999,1008,1018,1035,1041,1047,1050,1052,1055,1056,1056,1056,1056,1057,1059],"ymouse":[502,502,502,502,502,502,502,502,502,502,502,502,502,502,502,502,502,502,502,502,502,502,502,502,502,502,502,502,502,502,502,502,502,502,502,502,500,500,496,492,488,462,446,435,428,421,412,407,403,397,393,377,367,356,342,326,291,261,239,217,193,153,136,125,114,107,99,96,95,95,95,93,92],"timestamp_mouse":[20,42,50,71,91,111,130,151,171,190,211,231,251,271,289,309,330,350,370,391,410,429,451,470,490,510,530,551,571,590,610,631,651,670,691,709,730,751,770,791,811,829,850,870,890,911,930,951,970,990,1010,1029,1051,1070,1090,1110,1129,1150,1169,1190,1210,1230,1251,1270,1290,1311,1330,1351,1371,1390,1410,1429,1450],"xSR":741.5,"ySR":469.95,"xT1":424.9,"yT1":0,"xT2":1058.1,"yT2":0,"toosoon":0,"cond_shown":"equaldotsize","ratio_trial":900,"smaller_num":"9","larger_num":"10","correct_side":2,"subjID":"MARIAJOSECAMBEROS29","gender":"1","age":"9","school":"4"},{"start_time":1552314024845,"click_time":1552314026353,"finger_time":1552314025592,"fix_duration":250,"trial":57,"RT":747,"MT":761,"sideResp":2,"stimulus":"img/250/randomdotsizeEA/R/13_Ratio_250_L_2_R_8.png","xmouse":[752,752,752,752,752,752,752,752,752,752,752,752,752,752,752,752,752,752,752,752,752,752,752,752,752,752,752,752,752,752,753,754,755,756,763,769,778,789,799,824,838,853,871,902,931,989,1014,1030,1044,1058,1088,1102,1115,1126,1146,1164,1172,1176,1176,1177,1177,1177,1177,1177,1177,1177,1177,1177,1177,1177,1177,1177,1177,1177,1177,1157],"ymouse":[509,509,509,509,509,509,509,509,509,509,509,509,509,509,509,509,509,509,509,509,509,509,509,509,509,509,509,509,509,509,509,509,507,506,496,486,476,465,455,431,420,407,392,365,340,281,252,232,215,200,177,169,160,151,135,119,113,110,109,109,109,109,109,109,109,109,107,107,106,104,102,101,100,100,100,95],"timestamp_mouse":[10,30,48,67,87,108,127,146,168,187,207,228,246,268,287,307,327,346,368,387,406,426,447,468,488,507,528,548,566,587,607,628,647,667,687,708,727,747,767,789,806,828,846,867,887,907,927,947,967,987,1006,1027,1047,1068,1088,1107,1127,1147,1167,1188,1207,1228,1248,1266,1287,1306,1326,1347,1368,1387,1407,1428,1448,1467,1487,1508],"xSR":741.5,"ySR":469.95,"xT1":424.9,"yT1":0,"xT2":1058.1,"yT2":0,"toosoon":0,"cond_shown":"randomdotsizeEA","ratio_trial":250,"smaller_num":"2","larger_num":"8","correct_side":2,"subjID":"MARIAJOSECAMBEROS29","gender":"1","age":"9","school":"4"},{"start_time":1552314028991,"click_time":1552314030072,"finger_time":1552314029752,"fix_duration":1377.7753157928191,"trial":58,"RT":761,"MT":320,"sideResp":2,"stimulus":"img/250/randomdotsizeEA/R/12_Ratio_250_L_5_R_20.png","xmouse":[772,772,772,772,772,772,772,772,772,772,772,772,772,772,772,772,772,772,772,772,772,772,772,772,772,772,772,772,772,772,772,772,773,774,776,779,784,789,819,836,855,875,899,947,985,1002,1014,1024,1034,1039,1045,1052,1058,1067,1072],"ymouse":[497,497,497,497,497,497,497,497,497,497,497,497,497,497,497,497,497,497,497,497,497,497,497,497,497,497,497,497,497,497,497,497,496,494,492,490,485,480,459,446,429,411,388,326,268,237,215,195,171,162,153,141,128,100,83],"timestamp_mouse":[9,21,44,62,80,101,120,140,162,180,201,221,241,262,281,301,320,342,360,382,401,420,442,460,481,502,520,541,562,580,602,622,641,660,682,701,722,740,761,781,801,821,841,861,881,901,922,941,961,982,1000,1020,1042,1061,1081],"xSR":741.5,"ySR":469.95,"xT1":424.9,"yT1":0,"xT2":1058.1,"yT2":0,"toosoon":0,"cond_shown":"randomdotsizeEA","ratio_trial":250,"smaller_num":"5","larger_num":"20","correct_side":2,"subjID":"MARIAJOSECAMBEROS29","gender":"1","age":"9","school":"4"},{"start_time":1552314032235,"click_time":1552314033712,"finger_time":1552314033092,"fix_duration":1182.820760017658,"trial":59,"RT":857,"MT":620,"sideResp":2,"stimulus":"img/900/equaldotsize/R/3_Ratio_900_L_9_R_10.png","xmouse":[776,776,776,776,776,776,776,776,776,776,776,776,776,776,776,776,776,776,776,776,776,776,776,776,776,776,776,776,776,776,776,776,776,776,776,776,776,776,776,778,786,795,805,821,832,840,852,855,860,862,877,884,894,907,920,948,965,977,988,998,1015,1023,1029,1033,1037,1040,1041,1042,1044,1046,1052,1054,1058,1062],"ymouse":[537,537,537,536,536,536,536,536,535,535,535,534,534,534,534,534,534,534,534,534,534,534,534,534,534,534,534,534,534,534,534,534,534,534,534,532,530,528,527,525,511,486,446,394,350,330,307,303,301,299,291,287,281,275,266,244,229,214,197,178,141,128,119,112,106,101,100,98,97,96,90,89,86,81],"timestamp_mouse":[17,38,57,77,98,117,137,158,177,197,217,236,258,278,298,318,338,357,376,398,417,437,457,478,497,516,537,557,578,596,617,637,657,677,698,717,736,757,778,798,817,837,857,878,896,918,937,957,977,997,1018,1037,1056,1077,1098,1118,1138,1157,1177,1198,1217,1237,1257,1277,1297,1317,1337,1356,1377,1397,1417,1438,1458,1477],"xSR":741.5,"ySR":469.95,"xT1":424.9,"yT1":0,"xT2":1058.1,"yT2":0,"toosoon":0,"cond_shown":"equaldotsize","ratio_trial