[{"start_time":1552313240101,"click_time":1552313255076,"finger_time":1552313240116,"fix_duration":1402.8653554195766,"trial":0,"RT":15,"MT":14960,"sideResp":2,"stimulus":[],"xmouse":[981,981,981,981,981,981,981,981,981,999,999,798,617,540,507,500,499,496,488,464,434,380,362,361,361,361,370,379,394,408,416,419,419,420,421,438,471,529,587,624,644,650,650,650,650,650,650,650,650,650,650,647,647,647,647,647,647,647,647,647,647,647,647,647,647,647,647,647,647,647,647,647,647,647,647,647,647,647,647,647,647,647,647,647,647,647,647,647,647,647,647,647,647,647,647,647,647,647,647,648,648,648,649,649,649,649,649,649,649,649,649,649,649,649,649,649,649,649,649,649,649,649,649,649,649,649,650,650,650,650,650,650,650,650,650,650,659,670,679,694,704,734,744,750,753,755,754,752,751,746,738,729,735,748,764,812,843,868,876,877,877,874,866,846,815,767,720,720,720,720,722,725,725,729,731,733,742,751,762,770,776,776,776,776,776,776,776,773,768,766,766,766,766,766,766,766,766,766,766,766,766,766,766,766,766,766,766,766,766,766,766,766,766,766,766,766,766,766,766,766,766,766,766,766,766,766,766,766,766,766,766,766,766,766,766,768,770,770,770,770,770,770,770,770,767,758,750,742,733,724,718,714,714,714,714,714,718,719,719,720,720,728,729,730,731,734,743,750,757,764,771,790,795,795,796,796,796,796,796,796,796,796,796,796,796,796,796,796,796,796,796,796,796,796,796,796,796,796,796,796,796,796,796,796,796,796,796,796,796,796,796,796,796,796,796,796,796,796,796,796,796,797,797,797,797,797,797,797,797,796,796,796,796,796,796,796,796,796,796,796,796,796,796,796,796,796,798,804,808,815,821,827,827,827,827,827,827,827,823,817,808,796,795,794,791,790,783,780,779,778,777,777,777,777,777,777,776,776,776,775,775,775,775,775,774,774,774,774,774,776,779,791,805,816,833,846,860,861,861,861,861,857,850,837,823,809,785,778,775,775,775,775,771,767,762,753,744,743,741,741,741,741,741,741,741,741,741,741,741,741,740,738,738,738,738,738,738,738,738,738,738,738,738,738,738,738,738,738,738,738,738,738,738,738,738,738,738,742,747,754,759,761,761,762,763,764,764,764,764,764,764,764,764,764,764,764,764,764,764,764,764,764,764,764,764,764,764,764,764,764,764,764,764,764,764,764,764,764,764,764,764,764,764,764,764,764,764,764,764,764,764,764,764,764,764,764,764,764,764,764,764,764,764,764,764,764,764,764,764,764,764,764,764,764,764,764,764,764,764,764,764,764,764,764,764,764,764,764,764,764,764,764,764,764,764,764,764,764,764,764,764,764,764,764,764,764,764,764,764,764,764,764,764,764,764,764,764,764,764,764,764,764,764,764,764,764,764,764,764,764,764,764,764,764,764,764,764,764,764,764,764,764,764,764,764,764,764,776,787,813,833,847,847,847,847,847,844,842,840,840,840,840,840,841,842,842,842,842,842,842,842,842,842,842,842,842,842,842,842,842,842,842,842,842,842,842,842,842,842,842,842,842,842,842,842,842,842,842,842,842,842,842,842,842,842,842,840,815,775,746,746,744,744,746,756,768,787,791,791,791,791,791,791,791,797,801,801,801,801,801,801,801,801,801,801,801,801,801,801,801,801,801,801,802,801,795,795,794,794,798,801,806,808,809,809,804,803,802,802,802,802,802,802,802,802,802,802,802,802,802,801,798,797,797,797,805,827,873,941,1017,1091,1180,1197,1198,1194,1185,1155,1134,1113],"ymouse":[684,684,684,684,684,684,684,684,684,705,705,542,467,438,421,410,405,394,374,331,281,192,165,164,164,165,195,208,215,219,220,220,220,220,221,233,249,284,335,399,457,509,525,526,526,526,526,526,527,530,537,567,577,583,584,584,584,584,584,584,584,584,584,584,584,584,584,584,584,584,584,584,584,583,582,582,580,580,580,580,580,580,580,580,580,580,580,580,580,580,580,580,580,580,580,579,577,576,574,571,570,569,568,568,568,568,568,568,568,568,568,568,568,567,567,567,567,567,567,567,567,567,567,567,567,565,561,560,556,553,550,544,538,524,507,487,442,422,410,403,402,439,462,483,498,506,511,512,513,516,525,553,570,579,580,556,533,511,500,498,497,496,496,503,508,512,517,517,517,517,512,508,508,508,508,508,511,518,526,532,535,535,535,535,535,535,535,530,525,523,523,523,523,523,523,523,523,523,523,523,523,523,523,523,523,523,523,523,523,523,523,523,523,523,523,523,523,523,523,523,523,523,523,523,523,523,523,523,523,523,523,523,523,521,519,514,485,472,458,451,444,444,444,444,446,461,472,484,497,508,519,536,536,536,536,536,533,533,533,533,533,534,534,534,534,534,527,524,523,523,524,533,536,536,537,537,537,537,537,537,537,537,537,537,537,537,537,537,537,537,537,537,537,537,537,537,537,537,537,537,537,537,537,537,537,537,537,537,537,537,537,537,537,537,537,537,537,537,537,536,534,531,527,525,525,524,522,522,522,521,519,504,500,498,497,496,496,496,496,496,496,496,496,496,496,495,492,485,477,468,460,449,449,449,449,449,449,449,453,462,478,506,506,511,516,523,538,542,545,546,547,547,547,547,547,548,548,548,549,549,549,549,549,549,550,550,550,550,550,547,543,528,511,497,472,442,393,387,387,387,387,402,430,474,520,560,597,603,605,605,605,600,596,589,585,581,577,573,560,543,523,493,489,486,485,484,484,484,484,484,482,473,464,462,462,462,462,462,462,462,462,462,462,462,462,462,462,462,462,462,462,462,462,462,462,462,462,467,474,486,493,502,507,514,524,529,532,532,532,532,532,532,532,532,532,532,532,532,532,532,532,532,532,532,532,532,532,532,532,532,532,532,532,532,532,532,532,532,532,532,532,532,532,532,532,532,532,532,532,532,532,532,532,532,532,532,532,532,532,532,532,532,532,532,532,532,532,532,532,532,532,532,532,532,532,532,532,532,532,532,532,532,532,532,532,532,532,532,532,532,532,532,532,532,532,532,532,532,532,532,532,532,532,532,532,532,532,532,532,532,532,532,532,532,532,532,532,532,532,532,532,532,532,532,532,532,532,532,532,532,532,532,532,532,532,532,532,532,532,532,532,532,532,532,532,532,532,530,529,529,529,522,522,522,522,522,525,531,537,542,547,561,568,572,574,574,574,574,574,574,574,574,574,574,574,574,574,574,574,574,574,574,574,574,574,574,574,574,574,574,574,574,574,574,574,574,574,574,574,574,574,574,574,574,574,574,560,526,486,467,467,467,473,495,527,561,606,619,623,625,626,626,626,627,624,619,619,619,619,619,619,619,619,619,619,619,619,619,619,619,619,619,619,619,619,619,619,618,616,612,604,586,573,553,531,489,483,482,482,482,482,482,482,482,482,482,482,482,482,482,483,486,489,489,489,481,459,429,398,361,320,235,187,170,159,154,133,117,94],"timestamp_mouse":[15,34,54,74,95,113,133,155,175,194,214,234,255,275,295,316,334,354,374,394,414,434,454,474,494,514,534,554,574,595,614,635,654,674,694,715,734,754,775,795,815,834,855,874,895,913,933,954,975,994,1015,1033,1055,1075,1095,1114,1134,1155,1175,1194,1215,1234,1254,1275,1294,1315,1334,1355,1374,1394,1414,1435,1455,1475,1494,1514,1534,1553,1574,1595,1614,1635,1655,1676,1695,1716,1735,1756,1776,1795,1816,1836,1856,1876,1896,1915,1935,1955,1976,1995,2015,2035,2055,2076,2095,2115,2136,2155,2176,2196,2217,2235,2255,2275,2296,2315,2336,2356,2376,2395,2416,2436,2457,2475,2495,2515,2536,2555,2576,2596,2616,2635,2656,2675,2696,2716,2735,2756,2776,2796,2815,2835,2855,2875,2895,2915,2935,2955,2976,2995,3015,3035,3055,3075,3097,3117,3135,3156,3176,3196,3216,3235,3256,3276,3296,3316,3335,3355,3376,3396,3416,3435,3455,3475,3495,3515,3535,3555,3575,3596,3615,3636,3655,3677,3696,3716,3736,3755,3776,3797,3815,3836,3856,3877,3896,3916,3936,3955,3975,3996,4017,4036,4055,4076,4097,4115,4136,4156,4176,4195,4215,4237,4256,4275,4295,4317,4337,4357,4376,4396,4415,4436,4455,4475,4495,4515,4535,4555,4575,4595,4616,4635,4655,4676,4695,4715,4736,4757,4777,4796,4816,4836,4856,4877,4896,4916,4937,4956,4976,4995,5015,5035,5057,5075,5096,5115,5135,5157,5175,5195,5216,5236,5256,5275,5296,5316,5335,5355,5376,5396,5415,5436,5455,5476,5496,5516,5536,5556,5576,5595,5615,5635,5656,5676,5696,5715,5735,5755,5775,5795,5815,5835,5855,5876,5896,5915,5935,5955,5976,5997,6017,6035,6056,6075,6095,6116,6136,6156,6175,6197,6215,6236,6256,6275,6296,6315,6335,6356,6376,6396,6416,6435,6456,6476,6495,6516,6536,6555,6575,6596,6615,6635,6657,6677,6696,6716,6736,6756,6775,6795,6816,6836,6856,6876,6895,6915,6936,6956,6975,6996,7016,7035,7056,7075,7095,7117,7136,7155,7176,7196,7216,7235,7256,7275,7295,7315,7337,7357,7375,7396,7415,7436,7455,7475,7495,7515,7536,7555,7576,7595,7616,7636,7656,7676,7695,7716,7736,7755,7776,7795,7815,7836,7856,7875,7895,7916,7935,7955,7976,7996,8015,8035,8056,8077,8095,8115,8136,8156,8176,8196,8217,8236,8255,8275,8296,8316,8336,8355,8376,8396,8415,8436,8455,8475,8496,8515,8535,8555,8576,8595,8617,8635,8656,8675,8695,8716,8735,8755,8775,8796,8816,8836,8857,8877,8897,8916,8936,8955,8975,8995,9016,9037,9055,9075,9095,9116,9135,9156,9175,9197,9216,9235,9256,9276,9296,9315,9336,9356,9376,9396,9416,9435,9455,9475,9495,9516,9536,9555,9576,9597,9615,9637,9656,9675,9696,9715,9736,9755,9775,9795,9816,9835,9857,9877,9896,9916,9936,9956,9975,9996,10015,10036,10056,10075,10097,10115,10135,10155,10175,10195,10217,10235,10255,10276,10297,10316,10336,10355,10375,10396,10416,10436,10455,10475,10495,10515,10536,10555,10577,10597,10615,10636,10656,10675,10697,10715,10735,10755,10776,10795,10815,10836,10856,10875,10895,10915,10937,10956,10975,10997,11016,11035,11056,11075,11096,11115,11137,11155,11175,11195,11216,11237,11256,11275,11296,11315,11337,11356,11376,11395,11415,11435,11456,11477,11497,11517,11535,11555,11576,11597,11616,11637,11655,11676,11696,11716,11736,11756,11775,11795,11815,11837,11856,11876,11895,11916,11935,11955,11975,11996,12016,12037,12056,12076,12096,12115,12135,12155,12176,12197,12216,12235,12255,12276,12296,12316,12335,12356,12376,12395,12415,12435,12455,12476,12495,12515,12536,12555,12576,12595,12615,12636,12656,12676,12697,12716,12736,12755,12775,12795,12815,12836,12856,12876,12897,12916,12935,12955,12976,12995,13016,13035,13057,13075,13095,13116,13136,13155,13175,13195,13217,13235,13255,13275,13296,13315,13336,13356,13376,13395,13416,13435,13455,13476,13495,13515,13535,13556,13575,13596,13615,13635,13655,13676,13695,13715,13736,13755,13775,13795,13816,13836,13856,13876,13897,13916,13935,13956,13976,13996,14015,14035,14056,14076,14096,14116,14137,14157,14176,14195,14216,14235,14255,14275,14295,14317,14335,14356,14376,14395,14416,14435,14456,14475,14496,14517,14536,14556,14575,14595,14616,14636,14656,14676,14696,14715,14735,14755,14775,14796,14815,14835,14855,14876,14896,14916,14935,14957,14975],"xSR":741.5,"ySR":469.95,"xT1":424.9,"yT1":0,"xT2":1058.1,"yT2":0,"toosoon":0,"cond_shown":"Congruent","ratio_trial":100,"L_num":6,"L_den":20,"R_num":5,"R_den":25,"correct_side":1,"subjID":"marianacruzbernal35","gender":"1","age":"10","school":"4","test":{"fix_dur":[250,1500],"timestim":1000,"targets_dim":[100,100],"targets_relative_coord":[0.3,0.7],"size_stim":[880,420],"start_dim":[100,100],"size_start":[300,300],"size_fix":60,"samplingrate":20,"img_types":["Congruent","Incongruent"],"ratios":[100,200,300],"rep_conds":19,"nTrials":120,"trials_to_rest":500,"Trials_order":[90,78,70,73,107,13,74,54,27,36,82,51,68,48,114,17,53,69,94,84,43,109,6,60,79,39,83,25,110,98,103,111,45,46,7,4,40,92,87,86,118,9,81,5,75,23,66,49,88,100,50,37,89,8,56,30,14,77,47,22,19,91,108,15,97,57,80,44,113,61,85,34,63,65,28,3,35,72,1,26,115,21,32,10,58,67,104,119,18,20,76,95,31,55,2,106,93,117,116,29,102,62,33,41,12,42,105,71,0,64,38,11,112,96,99,16,24,59,101,52],"cond_shown":["Congruent","Congruent","Congruent","Incongruent","Incongruent","Incongruent","Congruent","Congruent","Incongruent","Congruent","Congruent","Incongruent","Congruent","Congruent","Congruent","Incongruent","Incongruent","Incongruent","Congruent","Congruent","Incongruent","Incongruent","Congruent","Congruent","Incongruent","Incongruent","Incongruent","Incongruent","Congruent","Congruent","Incongruent","Incongruent","Incongruent","Congruent","Incongruent","Congruent","Congruent","Congruent","Incongruent","Congruent","Congruent","Incongruent","Incongruent","Incongruent","Incongruent","Incongruent","Congruent","Incongruent","Congruent","Congruent","Congruent","Incongruent","Incongruent","Congruent","Congruent","Congruent","Congruent","Incongruent","Incongruent","Congruent","Incongruent","Incongruent","Congruent","Incongruent","Incongruent","Incongruent","Congruent","Congruent","Incongruent","Incongruent","Incongruent","Congruent","Incongruent","Incongruent","Congruent","Incongruent","Incongruent","Congruent","Incongruent","Congruent","Incongruent","Incongruent","Congruent","Congruent","Congruent","Incongruent","Congruent","Incongruent","Congruent","Congruent","Congruent","Incongruent","Incongruent","Incongruent","Congruent","Congruent","Incongruent","Incongruent","Congruent","Incongruent","Congruent","Congruent","Incongruent","Incongruent","Congruent","Congruent","Incongruent","Incongruent","Congruent","Congruent","Congruent","Incongruent","Congruent","Congruent","Incongruent","Congruent","Congruent","Incongruent","Incongruent","Congruent"],"ratio_trial":[100,100,300,100,300,100,200,100,200,100,300,200,200,100,100,300,300,200,300,100,100,100,100,100,100,200,300,100,200,200,100,200,200,300,100,300,300,200,200,200,300,200,200,300,200,300,100,100,300,300,200,100,300,200,200,100,200,300,300,300,100,100,100,200,100,200,200,200,300,100,100,300,200,300,300,200,300,100,100,200,100,200,200,300,300,100,200,300,100,200,300,300,100,100,200,300,200,200,200,300,100,200,200,300,100,100,200,300,100,300,200,300,300,100,200,300,100,300,300,300],"left_num":[6,7,1,3,13,9,3,15,7,1,24,11,4,4,3,4,13,7,1,9,9,2,2,11,10,7,13,10,9,14,6,4,14,18,6,1,4,6,7,6,24,3,4,1,3,4,1,13,12,2,5,8,1,12,1,10,3,4,8,1,13,9,1,1,17,14,21,14,13,13,6,11,14,13,1,9,2,6,6,3,12,3,5,3,8,13,7,1,3,3,1,4,2,3,12,1,4,7,16,13,7,14,1,13,7,4,6,1,9,1,5,13,20,8,7,11,7,4,3,11],"right_num":[5,15,6,4,12,6,11,13,12,3,2,3,3,6,2,2,12,6,19,8,20,6,6,4,8,6,12,8,13,6,11,14,12,9,11,3,1,11,8,11,2,11,1,2,1,2,3,6,2,12,14,1,3,6,21,3,9,6,14,6,6,6,18,2,10,12,2,6,12,12,3,2,6,12,19,8,6,15,11,9,9,11,14,11,10,12,2,2,2,14,8,2,6,7,6,6,6,6,9,12,9,6,3,12,9,15,3,3,8,7,14,12,5,2,14,1,15,2,4,4],"left_den":[20,14,5,6,26,18,10,25,10,2,30,20,8,8,6,20,26,15,3,15,10,4,5,22,25,15,26,25,30,28,10,6,30,20,10,5,10,20,10,20,30,4,30,2,10,20,2,26,24,10,10,20,2,20,2,25,12,5,10,5,26,18,2,3,30,30,30,28,26,26,12,22,30,26,3,15,4,12,10,12,24,4,10,12,15,26,21,2,6,6,30,20,4,9,20,5,5,15,30,26,14,28,2,26,14,10,20,2,15,20,10,26,25,16,10,22,14,20,6,22],"right_den":[25,25,12,10,15,10,22,26,24,5,4,4,10,10,5,4,15,9,30,16,25,15,12,10,16,9,15,16,26,20,22,30,18,15,22,6,10,22,16,22,4,20,3,10,2,4,5,10,10,24,20,2,15,15,30,10,20,12,28,12,10,10,30,15,15,18,4,20,15,20,5,10,9,15,30,10,30,25,22,20,15,20,20,20,12,20,15,10,5,20,24,4,15,30,15,12,10,9,27,15,15,20,10,15,15,30,6,15,16,20,20,15,10,5,28,5,25,4,20,20],"correct_side":[1,2,2,1,2,2,2,1,1,2,1,2,1,2,1,2,2,2,2,1,1,1,2,1,2,2,2,2,2,1,1,1,2,1,1,2,1,2,1,2,1,1,2,1,2,2,2,2,1,2,2,2,1,1,2,1,2,1,1,2,2,2,2,1,2,2,1,1,2,2,2,1,2,2,2,2,1,2,1,2,2,1,2,2,2,2,1,1,1,2,2,2,1,1,1,2,1,2,1,2,2,1,1,2,2,2,2,1,1,2,2,2,1,1,1,1,2,2,1,1],"img_shown":["img2/100/Congruent/L/C_Dist_100_LN_6_LD_20_RN_5_RD_25_0.png","img2/100/Congruent/R/C_Dist_100_LN_7_LD_14_RN_15_RD_25_1.png","img2/300/Congruent/R/C_Dist_300_LN_1_LD_5_RN_6_RD_12_1.png","img2/100/Incongruent/L/I_Dist_100_LN_3_LD_6_RN_4_RD_10_0.png","img2/300/Incongruent/R/I_Dist_300_LN_13_LD_26_RN_12_RD_15_1.png","img2/100/Incongruent/R/I_Dist_100_LN_9_LD_18_RN_6_RD_10_1.png","img2/200/Congruent/R/C_Dist_200_LN_3_LD_10_RN_11_RD_22_1.png","img2/100/Congruent/L/C_Dist_100_LN_15_LD_25_RN_13_RD_26_0.png","img2/200/Incongruent/L/I_Dist_200_LN_7_LD_10_RN_12_RD_24_0.png","img2/100/Congruent/R/C_Dist_100_LN_1_LD_2_RN_3_RD_5_1.png","img2/300/Congruent/L/C_Dist_300_LN_24_LD_30_RN_2_RD_4_0.png","img2/200/Incongruent/R/I_Dist_200_LN_11_LD_20_RN_3_RD_4_1.png","img2/200/Congruent/L/C_Dist_200_LN_4_LD_8_RN_3_RD_10_0.png","img2/100/Congruent/R/C_Dist_100_LN_4_LD_8_RN_6_RD_10_1.png","img2/100/Congruent/L/C_Dist_100_LN_3_LD_6_RN_2_RD_5_0.png","img2/300/Incongruent/R/I_Dist_300_LN_4_LD_20_RN_2_RD_4_1.png","img2/300/Incongruent/R/I_Dist_300_LN_13_LD_26_RN_12_RD_15_1.png","img2/200/Incongruent/R/I_Dist_200_LN_7_LD_15_RN_6_RD_9_1.png","img2/300/Congruent/R/C_Dist_300_LN_1_LD_3_RN_19_RD_30_1.png","img2/100/Congruent/L/C_Dist_100_LN_9_LD_15_RN_8_RD_16_0.png","img2/100/Incongruent/L/I_Dist_100_LN_9_LD_10_RN_20_RD_25_0.png","img2/100/Incongruent/L/I_Dist_100_LN_2_LD_4_RN_6_RD_15_0.png","img2/100/Congruent/R/C_Dist_100_LN_2_LD_5_RN_6_RD_12_1.png","img2/100/Congruent/L/C_Dist_100_LN_11_LD_22_RN_4_RD_10_0.png","img2/100/Incongruent/R/I_Dist_100_LN_10_LD_25_RN_8_RD_16_1.png","img2/200/Incongruent/R/I_Dist_200_LN_7_LD_15_RN_6_RD_9_1.png","img2/300/Incongruent/R/I_Dist_300_LN_13_LD_26_RN_12_RD_15_1.png","img2/100/Incongruent/R/I_Dist_100_LN_10_LD_25_RN_8_RD_16_1.png","img2/200/Congruent/R/C_Dist_200_LN_9_LD_30_RN_13_RD_26_1.png","img2/200/Congruent/L/C_Dist_200_LN_14_LD_28_RN_6_RD_20_0.png","img2/100/Incongruent/L/I_Dist_100_LN_6_LD_10_RN_11_RD_22_0.png","img2/200/Incongruent/L/I_Dist_200_LN_4_LD_6_RN_14_RD_30_0.png","img2/200/Incongruent/R/I_Dist_200_LN_14_LD_30_RN_12_RD_18_1.png","img2/300/Congruent/L/C_Dist_300_LN_18_LD_20_RN_9_RD_15_0.png","img2/100/Incongruent/L/I_Dist_100_LN_6_LD_10_RN_11_RD_22_0.png","img2/300/Congruent/R/C_Dist_300_LN_1_LD_5_RN_3_RD_6_1.png","img2/300/Congruent/L/C_Dist_300_LN_4_LD_10_RN_1_RD_10_0.png","img2/200/Congruent/R/C_Dist_200_LN_6_LD_20_RN_11_RD_22_1.png","img2/200/Incongruent/L/I_Dist_200_LN_7_LD_10_RN_8_RD_16_0.png","img2/200/Congruent/R/C_Dist_200_LN_6_LD_20_RN_11_RD_22_1.png","img2/300/Congruent/L/C_Dist_300_LN_24_LD_30_RN_2_RD_4_0.png","img2/200/Incongruent/L/I_Dist_200_LN_3_LD_4_RN_11_RD_20_0.png","img2/200/Incongruent/R/I_Dist_200_LN_4_LD_30_RN_1_RD_3_1.png","img2/300/Incongruent/L/I_Dist_300_LN_1_LD_2_RN_2_RD_10_0.png","img2/200/Incongruent/R/I_Dist_200_LN_3_LD_10_RN_1_RD_2_1.png","img2/300/Incongruent/R/I_Dist_300_LN_4_LD_20_RN_2_RD_4_1.png","img2/100/Congruent/R/C_Dist_100_LN_1_LD_2_RN_3_RD_5_1.png","img2/100/Incongruent/R/I_Dist_100_LN_13_LD_26_RN_6_RD_10_1.png","img2/300/Congruent/L/C_Dist_300_LN_12_LD_24_RN_2_RD_10_0.png","img2/300/Congruent/R/C_Dist_300_LN_2_LD_10_RN_12_RD_24_1.png","img2/200/Congruent/R/C_Dist_200_LN_5_LD_10_RN_14_RD_20_1.png","img2/100/Incongruent/R/I_Dist_100_LN_8_LD_20_RN_1_RD_2_1.png","img2/300/Incongruent/L/I_Dist_300_LN_1_LD_2_RN_3_RD_15_0.png","img2/200/Congruent/L/C_Dist_200_LN_12_LD_20_RN_6_RD_15_0.png","img2/200/Congruent/R/C_Dist_200_LN_1_LD_2_RN_21_RD_30_1.png","img2/100/Congruent/L/C_Dist_100_LN_10_LD_25_RN_3_RD_10_0.png","img2/200/Congruent/R/C_Dist_200_LN_3_LD_12_RN_9_RD_20_1.png","img2/300/Incongruent/L/I_Dist_300_LN_4_LD_5_RN_6_RD_12_0.png","img2/300/Incongruent/L/I_Dist_300_LN_8_LD_10_RN_14_RD_28_0.png","img2/300/Congruent/R/C_Dist_300_LN_1_LD_5_RN_6_RD_12_1.png","img2/100/Incongruent/R/I_Dist_100_LN_13_LD_26_RN_6_RD_10_1.png","img2/100/Incongruent/R/I_Dist_100_LN_9_LD_18_RN_6_RD_10_1.png","img2/100/Congruent/R/C_Dist_100_LN_1_LD_2_RN_18_RD_30_1.png","img2/200/Incongruent/L/I_Dist_200_LN_1_LD_3_RN_2_RD_15_0.png","img2/100/Incongruent/R/I_Dist_100_LN_17_LD_30_RN_10_RD_15_1.png","img2/200/Incongruent/R/I_Dist_200_LN_14_LD_30_RN_12_RD_18_1.png","img2/200/Congruent/L/C_Dist_200_LN_21_LD_30_RN_2_RD_4_0.png","img2/200/Congruent/L/C_Dist_200_LN_14_LD_28_RN_6_RD_20_0.png","img2/300/Incongruent/R/I_Dist_300_LN_13_LD_26_RN_12_RD_15_1.png","img2/100/Incongruent/R/I_Dist_100_LN_13_LD_26_RN_12_RD_20_1.png","img2/100/Incongruent/R/I_Dist_100_LN_6_LD_12_RN_3_RD_5_1.png","img2/300/Congruent/L/C_Dist_300_LN_11_LD_22_RN_2_RD_10_0.png","img2/200/Incongruent/R/I_Dist_200_LN_14_LD_30_RN_6_RD_9_1.png","img2/300/Incongruent/R/I_Dist_300_LN_13_LD_26_RN_12_RD_15_1.png","img2/300/Congruent/R/C_Dist_300_LN_1_LD_3_RN_19_RD_30_1.png","img2/200/Incongruent/R/I_Dist_200_LN_9_LD_15_RN_8_RD_10_1.png","img2/300/Incongruent/L/I_Dist_300_LN_2_LD_4_RN_6_RD_30_0.png","img2/100/Congruent/R/C_Dist_100_LN_6_LD_12_RN_15_RD_25_1.png","img2/100/Incongruent/L/I_Dist_100_LN_6_LD_10_RN_11_RD_22_0.png","img2/200/Congruent/R/C_Dist_200_LN_3_LD_12_RN_9_RD_20_1.png","img2/100/Incongruent/R/I_Dist_100_LN_12_LD_24_RN_9_RD_15_1.png","img2/200/Incongruent/L/I_Dist_200_LN_3_LD_4_RN_11_RD_20_0.png","img2/200/Congruent/R/C_Dist_200_LN_5_LD_10_RN_14_RD_20_1.png","img2/300/Congruent/R/C_Dist_300_LN_3_LD_12_RN_11_RD_20_1.png","img2/300/Congruent/R/C_Dist_300_LN_8_LD_15_RN_10_RD_12_1.png","img2/100/Incongruent/R/I_Dist_100_LN_13_LD_26_RN_12_RD_20_1.png","img2/200/Congruent/L/C_Dist_200_LN_7_LD_21_RN_2_RD_15_0.png","img2/300/Incongruent/L/I_Dist_300_LN_1_LD_2_RN_2_RD_10_0.png","img2/100/Congruent/L/C_Dist_100_LN_3_LD_6_RN_2_RD_5_0.png","img2/200/Congruent/R/C_Dist_200_LN_3_LD_6_RN_14_RD_20_1.png","img2/300/Congruent/R/C_Dist_300_LN_1_LD_30_RN_8_RD_24_1.png","img2/300/Incongruent/R/I_Dist_300_LN_4_LD_20_RN_2_RD_4_1.png","img2/100/Incongruent/L/I_Dist_100_LN_2_LD_4_RN_6_RD_15_0.png","img2/100/Incongruent/L/I_Dist_100_LN_3_LD_9_RN_7_RD_30_0.png","img2/200/Congruent/L/C_Dist_200_LN_12_LD_20_RN_6_RD_15_0.png","img2/300/Congruent/R/C_Dist_300_LN_1_LD_5_RN_6_RD_12_1.png","img2/200/Incongruent/L/I_Dist_200_LN_4_LD_5_RN_6_RD_10_0.png","img2/200/Incongruent/R/I_Dist_200_LN_7_LD_15_RN_6_RD_9_1.png","img2/200/Congruent/L/C_Dist_200_LN_16_LD_30_RN_9_RD_27_0.png","img2/300/Incongruent/R/I_Dist_300_LN_13_LD_26_RN_12_RD_15_1.png","img2/100/Congruent/R/C_Dist_100_LN_7_LD_14_RN_9_RD_15_1.png","img2/200/Congruent/L/C_Dist_200_LN_14_LD_28_RN_6_RD_20_0.png","img2/200/Incongruent/L/I_Dist_200_LN_1_LD_2_RN_3_RD_10_0.png","img2/300/Incongruent/R/I_Dist_300_LN_13_LD_26_RN_12_RD_15_1.png","img2/100/Congruent/R/C_Dist_100_LN_7_LD_14_RN_9_RD_15_1.png","img2/100/Congruent/R/C_Dist_100_LN_4_LD_10_RN_15_RD_30_1.png","img2/200/Incongruent/R/I_Dist_200_LN_6_LD_20_RN_3_RD_6_1.png","img2/300/Incongruent/L/I_Dist_300_LN_1_LD_2_RN_3_RD_15_0.png","img2/100/Congruent/L/C_Dist_100_LN_9_LD_15_RN_8_RD_16_0.png","img2/300/Congruent/R/C_Dist_300_LN_1_LD_20_RN_7_RD_20_1.png","img2/200/Congruent/R/C_Dist_200_LN_5_LD_10_RN_14_RD_20_1.png","img2/300/Incongruent/R/I_Dist_300_LN_13_LD_26_RN_12_RD_15_1.png","img2/300/Congruent/L/C_Dist_300_LN_20_LD_25_RN_5_RD_10_0.png","img2/100/Congruent/L/C_Dist_100_LN_8_LD_16_RN_2_RD_5_0.png","img2/200/Incongruent/L/I_Dist_200_LN_7_LD_10_RN_14_RD_28_0.png","img2/300/Congruent/L/C_Dist_300_LN_11_LD_22_RN_1_RD_5_0.png","img2/100/Congruent/R/C_Dist_100_LN_7_LD_14_RN_15_RD_25_1.png","img2/300/Incongruent/R/I_Dist_300_LN_4_LD_20_RN_2_RD_4_1.png","img2/300/Incongruent/L/I_Dist_300_LN_3_LD_6_RN_4_RD_20_0.png","img2/300/Congruent/L/C_Dist_300_LN_11_LD_22_RN_4_RD_20_0.png"],"dist100_C":[["C_Dist_100_LN_10_LD_25_RN_3_RD_10_0.png","C_Dist_100_LN_11_LD_22_RN_4_RD_10_0.png","C_Dist_100_LN_11_LD_22_RN_6_RD_15_0.png","C_Dist_100_LN_15_LD_25_RN_13_RD_26_0.png","C_Dist_100_LN_3_LD_6_RN_2_RD_5_0.png","C_Dist_100_LN_6_LD_20_RN_5_RD_25_0.png","C_Dist_100_LN_8_LD_16_RN_2_RD_5_0.png","C_Dist_100_LN_9_LD_15_RN_8_RD_16_0.png"],["C_Dist_100_LN_1_LD_2_RN_18_RD_30_1.png","C_Dist_100_LN_1_LD_2_RN_3_RD_5_1.png","C_Dist_100_LN_12_LD_30_RN_13_RD_26_1.png","C_Dist_100_LN_2_LD_5_RN_11_RD_22_1.png","C_Dist_100_LN_2_LD_5_RN_6_RD_12_1.png","C_Dist_100_LN_3_LD_20_RN_4_RD_16_1.png","C_Dist_100_LN_4_LD_10_RN_15_RD_30_1.png","C_Dist_100_LN_4_LD_8_RN_6_RD_10_1.png","C_Dist_100_LN_6_LD_12_RN_15_RD_25_1.png","C_Dist_100_LN_7_LD_14_RN_15_RD_25_1.png","C_Dist_100_LN_7_LD_14_RN_9_RD_15_1.png"]],"dist100_I":[["I_Dist_100_LN_1_LD_2_RN_8_RD_20_0.png","I_Dist_100_LN_2_LD_4_RN_6_RD_15_0.png","I_Dist_100_LN_2_LD_4_RN_8_RD_20_0.png","I_Dist_100_LN_3_LD_5_RN_11_RD_22_0.png","I_Dist_100_LN_3_LD_5_RN_8_RD_16_0.png","I_Dist_100_LN_3_LD_6_RN_4_RD_10_0.png","I_Dist_100_LN_3_LD_9_RN_7_RD_30_0.png","I_Dist_100_LN_4_LD_8_RN_8_RD_20_0.png","I_Dist_100_LN_6_LD_10_RN_11_RD_22_0.png","I_Dist_100_LN_6_LD_10_RN_13_RD_26_0.png","I_Dist_100_LN_6_LD_10_RN_7_RD_14_0.png","I_Dist_100_LN_9_LD_10_RN_20_RD_25_0.png","I_Dist_100_LN_9_LD_15_RN_13_RD_26_0.png","I_Dist_100_LN_9_LD_15_RN_14_RD_28_0.png"],["I_Dist_100_LN_10_LD_25_RN_8_RD_16_1.png","I_Dist_100_LN_10_LD_25_RN_9_RD_18_1.png","I_Dist_100_LN_11_LD_22_RN_9_RD_15_1.png","I_Dist_100_LN_12_LD_24_RN_9_RD_15_1.png","I_Dist_100_LN_12_LD_30_RN_2_RD_4_1.png","I_Dist_100_LN_13_LD_26_RN_12_RD_20_1.png","I_Dist_100_LN_13_LD_26_RN_6_RD_10_1.png","I_Dist_100_LN_17_LD_30_RN_10_RD_15_1.png","I_Dist_100_LN_6_LD_12_RN_3_RD_5_1.png","I_Dist_100_LN_8_LD_16_RN_6_RD_10_1.png","I_Dist_100_LN_8_LD_20_RN_1_RD_2_1.png","I_Dist_100_LN_9_LD_18_RN_6_RD_10_1.png"]],"dist100_S":[["E_Dist_100_LN_2_LD_12_RN_2_RD_30_0.png","E_Dist_100_LN_6_LD_10_RN_6_RD_12_0.png"],["E_Dist_100_LN_6_LD_12_RN_6_RD_10_1.png"]],"dist200_C":[["C_Dist_200_LN_11_LD_22_RN_3_RD_10_0.png","C_Dist_200_LN_12_LD_15_RN_6_RD_10_0.png","C_Dist_200_LN_12_LD_20_RN_6_RD_15_0.png","C_Dist_200_LN_14_LD_28_RN_6_RD_20_0.png","C_Dist_200_LN_15_LD_25_RN_4_RD_10_0.png","C_Dist_200_LN_16_LD_20_RN_12_RD_20_0.png","C_Dist_200_LN_16_LD_30_RN_9_RD_27_0.png","C_Dist_200_LN_20_LD_25_RN_9_RD_15_0.png","C_Dist_200_LN_21_LD_30_RN_2_RD_4_0.png","C_Dist_200_LN_4_LD_10_RN_3_RD_15_0.png","C_Dist_200_LN_4_LD_8_RN_3_RD_10_0.png","C_Dist_200_LN_6_LD_15_RN_3_RD_15_0.png","C_Dist_200_LN_7_LD_21_RN_2_RD_15_0.png","C_Dist_200_LN_8_LD_15_RN_2_RD_6_0.png","C_Dist_200_LN_8_LD_15_RN_3_RD_9_0.png","C_Dist_200_LN_8_LD_15_RN_7_RD_21_0.png","C_Dist_200_LN_9_LD_20_RN_4_RD_16_0.png"],["C_Dist_200_LN_1_LD_2_RN_21_RD_30_1.png","C_Dist_200_LN_13_LD_26_RN_14_RD_20_1.png","C_Dist_200_LN_3_LD_10_RN_11_RD_22_1.png","C_Dist_200_LN_3_LD_10_RN_14_RD_28_1.png","C_Dist_200_LN_3_LD_10_RN_7_RD_14_1.png","C_Dist_200_LN_3_LD_12_RN_9_RD_20_1.png","C_Dist_200_LN_3_LD_6_RN_14_RD_20_1.png","C_Dist_200_LN_5_LD_10_RN_14_RD_20_1.png","C_Dist_200_LN_6_LD_12_RN_7_RD_10_1.png","C_Dist_200_LN_6_LD_20_RN_11_RD_22_1.png","C_Dist_200_LN_7_LD_15_RN_18_RD_27_1.png","C_Dist_200_LN_9_LD_30_RN_13_RD_26_1.png"]],"dist200_I":[["I_Dist_200_LN_1_LD_2_RN_3_RD_10_0.png","I_Dist_200_LN_1_LD_3_RN_2_RD_15_0.png","I_Dist_200_LN_3_LD_4_RN_11_RD_20_0.png","I_Dist_200_LN_4_LD_5_RN_6_RD_10_0.png","I_Dist_200_LN_4_LD_6_RN_14_RD_30_0.png","I_Dist_200_LN_7_LD_10_RN_12_RD_24_0.png","I_Dist_200_LN_7_LD_10_RN_14_RD_28_0.png","I_Dist_200_LN_7_LD_10_RN_8_RD_16_0.png"],["I_Dist_200_LN_11_LD_20_RN_3_RD_4_1.png","I_Dist_200_LN_14_LD_30_RN_12_RD_18_1.png","I_Dist_200_LN_14_LD_30_RN_6_RD_9_1.png","I_Dist_200_LN_3_LD_10_RN_1_RD_2_1.png","I_Dist_200_LN_4_LD_30_RN_1_RD_3_1.png","I_Dist_200_LN_6_LD_20_RN_3_RD_6_1.png","I_Dist_200_LN_7_LD_15_RN_4_RD_6_1.png","I_Dist_200_LN_7_LD_15_RN_6_RD_9_1.png","I_Dist_200_LN_9_LD_15_RN_8_RD_10_1.png"]],"dist200_S":[["E_Dist_200_LN_3_LD_6_RN_3_RD_10_0.png"],["E_Dist_200_LN_3_LD_10_RN_3_RD_6_1.png"]],"dist300_C":[["C_Dist_300_LN_11_LD_22_RN_1_RD_5_0.png","C_Dist_300_LN_11_LD_22_RN_2_RD_10_0.png","C_Dist_300_LN_11_LD_22_RN_4_RD_20_0.png","C_Dist_300_LN_12_LD_24_RN_2_RD_10_0.png","C_Dist_300_LN_18_LD_20_RN_9_RD_15_0.png","C_Dist_300_LN_20_LD_25_RN_13_RD_26_0.png","C_Dist_300_LN_20_LD_25_RN_14_RD_28_0.png","C_Dist_300_LN_20_LD_25_RN_5_RD_10_0.png","C_Dist_300_LN_20_LD_25_RN_8_RD_16_0.png","C_Dist_300_LN_20_LD_25_RN_9_RD_18_0.png","C_Dist_300_LN_24_LD_30_RN_2_RD_4_0.png","C_Dist_300_LN_24_LD_30_RN_8_RD_16_0.png","C_Dist_300_LN_3_LD_6_RN_2_RD_10_0.png","C_Dist_300_LN_4_LD_10_RN_1_RD_10_0.png","C_Dist_300_LN_4_LD_5_RN_2_RD_4_0.png","C_Dist_300_LN_8_LD_16_RN_1_RD_5_0.png","C_Dist_300_LN_9_LD_10_RN_3_RD_5_0.png"],["C_Dist_300_LN_1_LD_20_RN_7_RD_20_1.png","C_Dist_300_LN_1_LD_3_RN_19_RD_30_1.png","C_Dist_300_LN_1_LD_30_RN_8_RD_24_1.png","C_Dist_300_LN_1_LD_5_RN_11_RD_22_1.png","C_Dist_300_LN_1_LD_5_RN_3_RD_6_1.png","C_Dist_300_LN_1_LD_5_RN_6_RD_12_1.png","C_Dist_300_LN_2_LD_10_RN_12_RD_24_1.png","C_Dist_300_LN_2_LD_20_RN_10_RD_25_1.png","C_Dist_300_LN_3_LD_12_RN_11_RD_20_1.png","C_Dist_300_LN_3_LD_6_RN_4_RD_5_1.png","C_Dist_300_LN_4_LD_20_RN_13_RD_26_1.png","C_Dist_300_LN_5_LD_25_RN_6_RD_12_1.png","C_Dist_300_LN_5_LD_25_RN_7_RD_14_1.png","C_Dist_300_LN_7_LD_14_RN_20_RD_25_1.png","C_Dist_300_LN_8_LD_15_RN_10_RD_12_1.png"]],"dist300_I":[["I_Dist_300_LN_1_LD_2_RN_2_RD_10_0.png","I_Dist_300_LN_1_LD_2_RN_3_RD_15_0.png","I_Dist_300_LN_2_LD_4_RN_6_RD_30_0.png","I_Dist_300_LN_3_LD_6_RN_4_RD_20_0.png","I_Dist_300_LN_4_LD_5_RN_6_RD_12_0.png","I_Dist_300_LN_4_LD_5_RN_8_RD_16_0.png","I_Dist_300_LN_7_LD_10_RN_8_RD_20_0.png","I_Dist_300_LN_8_LD_10_RN_14_RD_28_0.png","I_Dist_300_LN_8_LD_10_RN_9_RD_18_0.png"],["I_Dist_300_LN_13_LD_26_RN_12_RD_15_1.png","I_Dist_300_LN_4_LD_20_RN_2_RD_4_1.png"]],"dist300_S":[["E_Dist_300_LN_9_LD_12_RN_9_RD_20_0.png"],["E_Dist_300_LN_18_LD_30_RN_18_RD_20_1.png","E_Dist_300_LN_3_LD_10_RN_3_RD_5_1.png","E_Dist_300_LN_9_LD_20_RN_9_RD_12_1.png"]],"dist500_C":[["C_Dist_500_LN_10_LD_13_RN_7_RD_26_0.png","C_Dist_500_LN_10_LD_15_RN_4_RD_24_0.png","C_Dist_500_LN_12_LD_16_RN_3_RD_12_0.png","C_Dist_500_LN_12_LD_18_RN_4_RD_24_0.png","C_Dist_500_LN_15_LD_18_RN_5_RD_15_0.png","C_Dist_500_LN_15_LD_20_RN_1_RD_4_0.png","C_Dist_500_LN_18_LD_27_RN_1_RD_6_0.png","C_Dist_500_LN_20_LD_24_RN_1_RD_3_0.png","C_Dist_500_LN_20_LD_24_RN_3_RD_9_0.png","C_Dist_500_LN_20_LD_24_RN_7_RD_21_0.png","C_Dist_500_LN_20_LD_28_RN_3_RD_14_0.png","C_Dist_500_LN_21_LD_28_RN_6_RD_24_0.png","C_Dist_500_LN_22_LD_28_RN_2_RD_7_0.png","C_Dist_500_LN_25_LD_30_RN_9_RD_27_0.png","C_Dist_500_LN_4_LD_6_RN_1_RD_6_0.png","C_Dist_500_LN_5_LD_6_RN_2_RD_6_0.png","C_Dist_500_LN_6_LD_9_RN_1_RD_6_0.png","C_Dist_500_LN_7_LD_10_RN_1_RD_5_0.png","C_Dist_500_LN_8_LD_12_RN_1_RD_6_0.png","C_Dist_500_LN_8_LD_12_RN_4_RD_24_0.png"],["C_Dist_500_LN_1_LD_4_RN_12_RD_16_1.png","C_Dist_500_LN_1_LD_4_RN_9_RD_12_1.png","C_Dist_500_LN_1_LD_9_RN_11_RD_18_1.png","C_Dist_500_LN_10_LD_24_RN_22_RD_24_1.png","C_Dist_500_LN_2_LD_12_RN_10_RD_15_1.png","C_Dist_500_LN_2_LD_12_RN_12_RD_18_1.png","C_Dist_500_LN_2_LD_12_RN_4_RD_6_1.png","C_Dist_500_LN_2_LD_24_RN_7_RD_12_1.png","C_Dist_500_LN_2_LD_5_RN_18_RD_20_1.png","C_Dist_500_LN_2_LD_5_RN_9_RD_10_1.png","C_Dist_500_LN_2_LD_8_RN_12_RD_16_1.png","C_Dist_500_LN_2_LD_8_RN_21_RD_28_1.png","C_Dist_500_LN_3_LD_10_RN_4_RD_5_1.png","C_Dist_500_LN_3_LD_12_RN_15_RD_20_1.png","C_Dist_500_LN_3_LD_30_RN_6_RD_10_1.png","C_Dist_500_LN_3_LD_8_RN_14_RD_16_1.png","C_Dist_500_LN_4_LD_16_RN_15_RD_20_1.png","C_Dist_500_LN_4_LD_24_RN_12_RD_18_1.png","C_Dist_500_LN_5_LD_14_RN_6_RD_7_1.png","C_Dist_500_LN_7_LD_21_RN_20_RD_24_1.png","C_Dist_500_LN_7_LD_28_RN_12_RD_16_1.png","C_Dist_500_LN_7_LD_28_RN_9_RD_12_1.png","C_Dist_500_LN_9_LD_27_RN_20_RD_24_1.png"]],"dist500_I":[["I_Dist_500_LN_2_LD_3_RN_4_RD_24_0.png","I_Dist_500_LN_5_LD_6_RN_6_RD_18_0.png","I_Dist_500_LN_7_LD_8_RN_9_RD_24_0.png"],["I_Dist_500_LN_7_LD_21_RN_5_RD_6_1.png"]],"dist500_S":[["E_Dist_500_LN_6_LD_8_RN_6_RD_24_0.png"],["E_Dist_500_LN_2_LD_12_RN_2_RD_3_1.png","E_Dist_500_LN_6_LD_24_RN_6_RD_8_1.png"]]}},{"start_time":1552313256775,"click_time":1552313258018,"finger_time":1552313257817,"fix_duration":376.370210622242,"trial":1,"RT":1042,"MT":201,"sideResp":2,"stimulus":[],"xmouse":[753,753,753,753,753,753,758,766,778,783,784,785,786,786,786,786,787,788,789,790,791,791,791,791,791,791,791,791,791,791,791,791,792,793,795,799,801,804,805,805,805,805,805,805,805,805,805,805,805,805,806,809,835,960,1032,1071,1094,1106,1112,1112,1114,1117,1119],"ymouse":[533,533,533,533,534,535,537,539,542,542,542,542,541,540,540,539,538,536,531,525,524,523,523,523,523,523,523,522,522,522,522,522,522,519,514,506,499,492,488,488,488,488,488,488,488,488,488,488,488,488,488,484,463,348,264,202,149,121,109,109,106,102,98],"timestamp_mouse":[9,21,42,61,82,101,122,141,161,182,201,222,242,262,281,302,322,341,363,381,402,422,441,462,481,502,523,541,562,581,602,622,641,661,682,701,721,741,762,781,802,822,841,861,882,902,922,941,963,981,1001,1022,1041,1061,1082,1102,1122,1142,1162,1181,1201,1221,1242],"xSR":741.5,"ySR":469.95,"xT1":424.9,"yT1":0,"xT2":1058.1,"yT2":0,"toosoon":0,"cond_shown":"Congruent","ratio_trial":100,"L_num":7,"L_den":14,"R_num":15,"R_den":25,"correct_side":2,"subjID":"marianacruzbernal35","gender":"1","school":"4","age":"10"},{"start_time":1552313260457,"click_time":1552313283237,"finger_time":1552313261736,"fix_duration":1019.6968326217612,"trial":2,"RT":1279,"MT":21501,"sideResp":1,"stimulus":[],"xmouse":[772,772,772,773,774,774,774,774,774,775,776,776,776,778,779,780,780,780,780,780,780,780,780,780,780,780,780,781,781,781,781,781,781,781,781,781,781,781,781,781,782,783,783,783,783,783,784,784,785,785,785,785,785,785,785,785,786,786,787,788,791,796,801,812,815,815,815,815,815,815,815,815,815,815,815,812,803,792,765,760,757,757,757,757,757,757,757,757,757,757,757,757,757,757,757,757,757,757,757,757,758,758,759,761,762,762,762,762,762,763,764,764,764,764,764,764,764,764,764,764,764,764,764,764,764,764,764,764,764,764,764,764,764,764,764,764,764,764,759,745,725,698,683,683,683,683,683,683,683,683,683,683,683,672,694,714,726,734,738,738,738,738,738,738,739,744,757,773,839,855,859,859,859,855,848,842,835,826,815,808,802,798,797,797,797,797,796,796,796,796,796,796,796,796,796,796,796,796,796,796,796,796,796,796,796,795,794,794,793,790,788,787,785,785,785,785,785,784,783,783,783,783,782,781,781,781,781,781,781,781,781,781,781,781,781,781,781,781,781,781,780,778,775,765,764,764,764,764,764,764,764,764,764,764,764,764,764,764,764,764,764,764,764,764,764,764,764,764,764,764,764,764,764,763,763,765,765,766,767,767,767,769,769,772,774,778,783,789,793,794,795,796,796,797,798,798,798,798,798,798,798,800,802,809,814,816,818,819,819,819,819,819,819,820,820,820,820,820,820,820,820,820,820,820,820,820,820,820,820,820,820,820,820,820,820,820,820,820,820,820,820,820,820,820,820,820,820,820,820,820,821,821,821,822,823,824,824,824,824,824,824,824,824,824,824,824,824,824,824,824,824,824,824,824,824,823,821,820,820,820,820,820,820,820,820,820,820,820,820,820,820,820,820,820,820,820,820,820,820,820,820,820,820,820,820,820,820,820,820,820,820,820,820,820,820,820,820,820,820,820,820,820,820,820,820,820,820,820,820,820,820,820,820,820,820,820,820,820,820,820,820,820,820,820,820,819,819,819,819,819,819,819,819,819,819,819,819,819,819,819,819,818,817,817,817,817,817,817,817,817,817,817,816,816,816,816,816,815,813,809,807,807,807,804,804,803,803,803,803,803,803,803,803,803,803,803,803,803,803,803,803,803,803,803,803,803,803,803,803,803,803,803,803,803,803,803,805,807,807,807,807,807,807,807,807,807,807,805,805,805,805,805,805,805,805,805,805,805,805,805,805,805,805,805,805,803,803,803,803,803,803,803,803,803,803,803,803,803,803,803,803,803,803,803,803,803,803,803,803,803,803,803,802,802,802,802,802,802,802,802,802,802,802,802,802,802,802,802,802,802,802,802,802,802,802,802,802,802,802,802,802,802,802,802,802,802,802,802,802,802,802,802,802,802,802,802,802,802,802,802,802,802,802,802,802,799,795,786,778,778,778,778,779,780,780,780,780,780,780,780,780,780,780,780,780,780,780,780,780,781,786,790,794,796,796,796,796,796,796,796,796,796,796,796,796,796,796,796,796,796,796,796,796,796,796,796,796,796,796,796,796,796,798,799,806,817,823,825,828,833,834,834,834,835,835,835,835,835,835,835,835,835,835,835,835,835,835,835,835,835,835,835,835,835,835,835,835,835,835,835,836,836,840,842,842,842,842,842,842,842,842,842,842,842,842,842,842,842,842,842,839,831,822,816,815,820,823,823,824,822,814,814,810,794,790,784,776,768,756,755,753,753,753,753,753,753,753,753,753,753,753,752,751,751,751,751,750,749,747,747,747,747,747,747,747,747,747,747,747,747,747,747,747,747,747,747,747,747,747,747,747,747,747,747,747,747,747,747,747,747,747,746,746,745,744,743,743,743,743,743,743,742,742,742,742,742,742,742,742,742,742,742,742,742,742,742,742,742,742,742,742,742,742,742,742,742,742,742,742,742,742,742,742,742,742,742,742,742,742,742,742,742,742,742,742,742,742,742,742,742,742,742,742,742,742,741,741,741,741,741,741,741,741,741,741,741,741,741,741,741,741,741,741,741,741,741,741,741,741,741,741,741,741,741,741,741,741,741,741,741,741,741,741,741,741,741,741,741,741,741,741,741,741,741,741,741,741,741,741,741,741,741,741,741,741,741,741,741,741,741,741,741,741,742,745,746,746,746,746,746,746,746,746,746,746,746,746,746,746,746,746,746,746,746,746,746,746,746,746,746,746,746,746,746,749,756,762,765,767,767,767,767,767,767,767,767,767,767,767,767,767,767,767,767,767,767,768,767,764,764,764,764,764,764,764,764,764,750,753,758,765,771,773,774,774,774,774,774,774,774,774,774,774,774,774,774,775,776,779,780,778,778,778,778,778,778,778,778,778,778,780,780,780,780,780,780,780,781,773,774,776,777,778,779,779,779,779,779,779,779,779,779,779,779,779,779,779,779,779,779,779,778,778,777,783,792,800,809,816,816,816,816,816,816,816,813,806,806,806,806,806,806,806,806,806,806,806,806,806,806,779,779,779,779,779,779,779,778,778,778,778,778,778,778,778,778,778,778,778,778,778,778,778,778,778,778,778,778,778,778,778,780,782,765,742,706,651,580,515],"ymouse":[513,513,513,513,512,512,512,512,512,512,512,512,512,511,510,509,509,509,509,509,509,509,509,508,507,507,507,506,506,506,504,504,504,504,504,504,504,504,504,504,503,503,502,501,501,500,500,499,497,497,497,497,497,497,497,496,496,495,491,487,483,477,470,454,449,449,449,449,449,449,449,449,449,449,449,449,457,470,504,515,521,521,521,521,521,522,522,522,522,522,522,522,522,522,522,522,522,522,522,522,522,522,521,518,517,517,517,517,517,516,514,514,513,513,513,513,513,513,513,513,513,513,513,513,513,513,513,513,513,513,513,513,513,513,513,513,513,513,516,532,568,625,674,674,674,674,674,674,674,674,674,674,674,690,629,581,551,532,525,524,524,524,524,524,523,518,507,496,441,427,425,425,425,439,456,477,497,518,547,558,566,569,570,570,570,570,570,570,570,570,570,570,570,570,570,570,570,570,570,570,570,570,570,570,570,570,570,568,568,568,567,567,567,567,567,567,567,567,567,567,567,566,566,566,566,566,566,566,566,566,566,566,565,558,558,558,558,558,558,557,556,556,556,553,552,552,552,552,552,552,552,552,552,552,552,552,552,552,552,552,552,552,552,552,552,552,552,552,552,552,552,552,552,552,551,549,549,548,547,546,546,544,541,533,529,525,521,519,517,517,517,517,517,517,517,517,517,517,517,517,517,517,516,510,507,505,504,503,503,503,503,503,503,502,502,502,502,502,502,502,502,502,502,502,502,502,502,502,503,503,503,503,503,503,503,503,503,503,503,503,505,505,506,506,506,506,506,506,506,506,506,506,505,502,501,500,498,497,497,497,497,497,497,497,497,497,497,497,497,497,497,497,497,497,499,503,507,510,512,512,512,512,512,512,512,512,512,512,512,512,512,512,512,512,512,512,512,512,512,512,512,512,512,512,512,512,512,512,512,512,512,512,512,512,512,512,512,512,512,512,512,512,512,512,512,512,512,512,512,512,512,512,512,512,512,512,512,512,512,512,512,512,512,514,515,515,515,515,515,515,515,515,515,515,515,515,515,515,515,515,516,517,523,529,532,536,541,546,554,558,560,563,565,565,565,565,566,567,568,571,572,572,572,578,580,580,581,582,585,585,585,585,585,585,585,585,585,585,585,585,585,585,585,585,585,585,585,585,585,585,585,585,585,584,582,582,579,579,579,579,579,580,580,580,580,582,582,583,584,584,584,584,584,584,584,584,584,584,584,584,584,584,584,584,584,585,585,585,585,585,585,585,585,585,585,585,585,585,585,585,585,585,585,585,585,585,586,586,588,589,589,589,590,591,592,593,594,595,597,597,597,598,598,598,598,598,598,598,598,598,598,598,598,598,598,598,598,598,598,598,598,598,598,598,598,598,598,598,598,598,598,598,598,598,598,598,598,598,598,598,598,598,597,589,583,576,569,557,542,542,542,541,540,539,538,538,538,538,538,538,538,538,538,538,538,538,538,538,538,538,538,540,542,543,543,543,543,543,543,543,543,543,543,543,543,543,543,543,543,543,543,543,543,543,543,543,543,543,543,543,543,543,546,548,555,568,572,573,575,580,585,587,587,587,587,587,587,587,587,587,587,587,587,587,587,587,587,587,587,587,587,587,587,587,587,587,587,587,587,587,587,587,587,586,585,583,583,582,582,582,582,582,582,582,582,582,582,582,582,582,581,580,579,578,578,581,582,582,585,588,590,590,590,590,585,572,557,539,514,510,507,505,505,505,505,505,505,505,505,505,505,503,502,496,489,481,477,475,474,474,474,474,474,474,474,474,474,474,474,474,474,474,474,474,474,474,474,474,474,474,474,474,474,474,474,474,474,474,474,474,474,473,473,461,455,451,447,445,442,439,437,437,437,437,437,437,437,437,437,437,437,437,437,437,437,437,437,437,437,437,437,437,437,437,437,437,437,437,437,437,437,437,437,437,437,437,437,437,437,437,437,437,437,437,437,437,437,437,437,437,437,437,437,437,437,436,434,434,434,434,433,433,433,433,433,433,433,433,433,433,433,433,433,433,433,433,433,433,433,433,433,433,433,433,433,433,433,433,433,433,433,433,433,433,433,433,433,433,433,433,433,433,433,433,433,433,433,433,433,433,433,433,433,433,433,433,433,433,433,433,433,433,433,430,427,426,426,426,426,426,426,426,426,426,426,426,426,426,426,426,426,426,426,426,426,426,426,426,426,426,426,426,426,426,426,426,426,426,426,426,426,426,426,426,426,426,426,426,426,426,426,426,426,426,426,426,426,428,431,431,431,431,431,431,431,431,431,506,506,506,506,506,506,506,506,506,506,506,506,506,506,506,506,506,506,506,506,506,502,492,483,483,483,483,483,483,483,483,483,483,488,488,488,488,488,488,488,540,570,570,569,568,567,566,566,566,566,566,566,566,566,566,566,566,566,566,566,566,566,566,565,564,563,556,551,548,547,544,543,543,543,543,543,543,543,543,547,547,547,547,547,547,547,547,547,547,547,547,547,547,555,555,555,555,555,555,555,555,555,555,555,555,555,555,555,555,555,555,555,555,555,555,555,555,555,555,554,552,544,538,534,524,507,395,324,258,181,103,32],"timestamp_mouse":[20,39,60,79,100,120,140,159,179,200,220,240,260,279,301,319,339,359,380,399,420,440,461,479,500,519,539,559,580,600,620,639,659,679,700,720,741,760,779,799,821,840,860,880,900,919,939,959,979,1000,1019,1041,1059,1079,1100,1119,1139,1159,1179,1201,1219,1240,1260,1279,1299,1320,1340,1360,1379,1401,1419,1440,1460,1479,1499,1519,1539,1560,1581,1599,1620,1639,1659,1680,1699,1721,1739,1760,1779,1799,1820,1841,1860,1879,1900,1919,1940,1960,1979,1999,2020,2040,2060,2079,2099,2119,2139,2160,2180,2199,2220,2241,2259,2279,2299,2320,2340,2360,2380,2400,2420,2439,2460,2479,2499,2519,2539,2561,2580,2600,2619,2640,2660,2679,2699,2719,2739,2759,2779,2800,2820,2840,2859,2879,2899,2919,2939,2959,2980,2999,3020,3040,3061,3080,3099,3120,3140,3159,3179,3199,3221,3240,3261,3281,3299,3319,3339,3359,3379,3399,3419,3440,3460,3479,3500,3521,3540,3559,3579,3600,3619,3640,3660,3680,3700,3720,3740,3759,3779,3800,3819,3840,3859,3879,3899,3921,3939,3959,3979,3999,4020,4039,4059,4079,4100,4120,4141,4159,4179,4200,4220,4241,4259,4280,4301,4320,4340,4359,4381,4400,4420,4439,4459,4479,4499,4521,4539,4559,4580,4601,4621,4640,4660,4679,4699,4719,4739,4760,4781,4799,4820,4840,4859,4879,4899,4919,4940,4960,4980,4999,5020,5039,5059,5079,5099,5120,5139,5159,5179,5201,5220,5239,5260,5281,5299,5320,5340,5359,5380,5401,5419,5439,5459,5480,5499,5520,5540,5559,5580,5599,5619,5640,5660,5679,5700,5720,5740,5760,5779,5799,5819,5839,5860,5879,5900,5919,5939,5959,5981,6000,6020,6039,6059,6079,6100,6120,6140,6160,6181,6200,6219,6241,6259,6279,6300,6319,6339,6361,6380,6400,6419,6440,6459,6480,6499,6519,6539,6560,6580,6600,6620,6639,6660,6679,6700,6719,6740,6760,6779,6801,6820,6839,6859,6880,6900,6920,6939,6961,6979,6999,7020,7039,7059,7079,7100,7120,7139,7160,7180,7199,7219,7239,7259,7281,7300,7320,7339,7360,7379,7401,7420,7439,7459,7479,7500,7520,7539,7560,7581,7599,7620,7641,7659,7679,7699,7719,7740,7759,7781,7801,7819,7841,7859,7880,7899,7920,7940,7960,7981,7999,8020,8039,8061,8079,8100,8121,8140,8159,8180,8200,8220,8239,8259,8280,8299,8321,8339,8360,8380,8400,8420,8440,8459,8480,8500,8519,8539,8559,8579,8600,8619,8639,8659,8679,8699,8721,8740,8761,8780,8800,8819,8840,8860,8879,8900,8920,8940,8960,8979,8999,9020,9039,9059,9079,9101,9121,9140,9160,9179,9200,9219,9240,9260,9280,9299,9320,9341,9359,9380,9401,9419,9440,9459,9479,9499,9521,9540,9560,9579,9599,9619,9640,9659,9679,9699,9719,9740,9759,9779,9799,9820,9839,9861,9880,9899,9921,9939,9960,9979,9999,10019,10040,10061,10080,10100,10120,10139,10159,10180,10199,10219,10239,10261,10279,10300,10319,10339,10360,10379,10400,10419,10440,10460,10479,10499,10519,10540,10560,10579,10599,10620,10639,10660,10679,10700,10719,10740,10760,10780,10801,10820,10840,10859,10879,10900,10919,10939,10960,10979,10999,11020,11040,11059,11080,11099,11120,11139,11159,11180,11200,11219,11240,11261,11279,11300,11320,11340,11360,11379,11399,11420,11440,11459,11480,11499,11520,11540,11560,11579,11599,11620,11640,11660,11679,11700,11720,11740,11759,11779,11799,11820,11839,11861,11879,11899,11920,11940,11960,11980,11999,12019,12040,12060,12079,12100,12119,12139,12160,12180,12200,12220,12240,12261,12279,12299,12319,12340,12359,12379,12399,12420,12440,12459,12479,12500,12520,12540,12559,12579,12599,12619,12639,12661,12679,12699,12720,12740,12759,12779,12799,12820,12840,12861,12879,12901,12921,12940,12961,12981,13000,13019,13039,13059,13080,13099,13121,13140,13160,13180,13201,13220,13240,13259,13279,13299,13320,13341,13359,13379,13400,13420,13440,13459,13480,13500,13519,13539,13560,13581,13600,13620,13639,13660,13681,13700,13719,13740,13759,13779,13799,13819,13840,13860,13879,13899,13920,13939,13959,13979,14000,14020,14039,14061,14080,14100,14120,14139,14160,14179,14200,14219,14239,14260,14279,14299,14319,14339,14359,14379,14399,14420,14439,14460,14479,14500,14521,14539,14560,14579,14600,14621,14639,14660,14680,14700,14719,14739,14759,14780,14800,14819,14839,14860,14879,14899,14920,14940,14960,14979,14999,15020,15040,15060,15080,15099,15119,15139,15160,15179,15200,15219,15240,15260,15280,15299,15319,15340,15360,15380,15399,15420,15439,15459,15480,15499,15519,15539,15559,15579,15599,15619,15641,15659,15679,15700,15720,15739,15759,15781,15800,15820,15839,15861,15879,15900,15920,15939,15959,15979,16000,16020,16039,16060,16081,16100,16119,16140,16160,16180,16200,16220,16239,16259,16279,16299,16319,16339,16360,16379,16399,16419,16439,16459,16479,16500,16521,16539,16560,16579,16599,16619,16640,16660,16680,16700,16720,16739,16759,16779,16799,16821,16840,16860,16879,16899,16919,16939,16960,16980,16999,17019,17039,17060,17080,17099,17119,17141,17159,17179,17199,17219,17239,17261,17279,17300,17320,17340,17360,17379,17400,17419,17439,17460,17480,17500,17520,17540,17561,17580,17600,17619,17640,17659,17679,17700,17721,17740,17760,17780,17799,17819,17840,17861,17879,17899,17919,17939,17959,17980,18000,18020,18040,18060,18079,18099,18119,18140,18160,18179,18200,18219,18239,18260,18279,18300,18319,18339,18359,18380,18399,18420,18440,18460,18479,18499,18520,18540,18560,18579,18599,18620,18640,18660,18680,18699,18719,18739,18760,18780,18800,18819,18839,18860,18879,18899,18920,18939,18960,18979,18999,19020,19040,19060,19079,19099,19121,19140,19160,19180,19200,19220,19240,19260,19279,19299,19320,19340,19361,19380,19400,19419,19439,19461,19479,19499,19519,19539,19559,19579,19600,19619,19640,19659,19679,19699,19719,19740,19760,19779,19801,19819,19840,19859,19879,19900,19919,19939,19960,19980,20000,20019,20040,20059,20080,20100,20119,20139,20159,20179,20199,20219,20240,20259,20280,20301,20321,20339,20360,20380,20400,20421,20440,20459,20480,20499,20521,20540,20559,20579,20599,20619,20639,20661,20680,20699,20719,20740,20760,20780,20799,20819,20841,20859,20880,20900,20919,20940,20959,20981,21000,21021,21039,21060,21079,21100,21119,21139,21159,21180,21199,21221,21239,21259,21280,21301,21320,21340,21359,21381,21400,21420,21440,21460,21479,21499,21521,21540,21559,21579,21600,21620,21639,21659,21681,21700,21719,21739,21760,21780,21800,21819,21840,21861,21879,21900,21919,21940,21959,21979,22001,22020,22039,22060,22081,22101,22119,22140,22160,22179,22200,22221,22241,22259,22279,22299,22319,22340,22360,22381,22401,22420,22440,22459,22479,22500,22519,22540,22559,22579,22601,22620,22640,22659,22679,22699,22719,22739,22759,22779],"xSR":741.5,"ySR":469.95,"xT1":424.9,"yT1":0,"xT2":1058.1,"yT2":0,"toosoon":0,"cond_shown":"Congruent","ratio_trial":300,"L_num":1,"L_den":5,"R_num":6,"R_den":12,"correct_side":2,"subjID":"marianacruzbernal35","gender":"1","school":"4","age":"10"},{"start_time":1552313287111,"click_time":1552313288137,"finger_time":1552313287536,"fix_duration":553.792632654373,"trial":3,"RT":425,"MT":601,"sideResp":2,"stimulus":[],"xmouse":[768,768,768,768,768,768,768,768,768,768,768,768,768,768,768,768,768,768,768,771,774,782,779,753,728,709,697,697,697,700,708,739,808,891,1018,1159,1334,1344,1344,1344,1340,1270,1166,1109,1074,1066,1065,1067,1068,1068,1068,1069],"ymouse":[497,497,497,497,497,497,497,497,497,497,497,497,497,497,497,497,497,497,497,493,489,414,355,284,227,197,179,179,177,170,158,121,92,87,125,192,322,330,330,330,324,264,192,150,123,115,113,111,109,106,100,93],"timestamp_mouse":[11,38,45,65,85,106,126,147,167,186,205,226,245,266,285,306,325,346,366,386,405,425,445,466,486,506,525,545,565,586,606,625,645,665,687,705,726,746,766,786,806,825,845,865,885,906,925,945,965,986,1006,1026],"xSR":741.5,"ySR":469.95,"xT1":424.9,"yT1":0,"xT2":1058.1,"yT2":0,"toosoon":0,"cond_shown":"Incongruent","ratio_trial":100,"L_num":3,"L_den":6,"R_num":4,"R_den":10,"correct_side":1,"subjID":"marianacruzbernal35","gender":"1","school":"4","age":"10"},{"start_time":1552313294502,"click_time":1552313295516,"finger_time":1552313294997,"fix_duration":281.2771685654627,"trial":4,"RT":495,"MT":519,"sideResp":1,"stimulus":[],"xmouse":[751,751,751,751,751,751,751,751,751,751,751,751,751,751,751,751,751,751,751,751,751,756,762,773,781,783,709,649,595,556,540,536,536,536,536,536,536,535,535,531,528,522,519,519,519,519,517,514,510,504,491],"ymouse":[544,544,544,544,544,544,544,544,544,544,544,544,544,544,544,544,544,544,544,544,544,538,532,506,469,406,254,179,119,80,66,63,63,63,63,63,63,64,66,71,78,100,105,105,105,105,105,105,105,101,91],"timestamp_mouse":[16,35,55,74,94,114,134,154,174,195,214,235,254,274,294,314,334,354,375,395,414,434,454,476,495,514,534,554,574,595,615,634,654,675,694,715,735,754,774,794,814,834,854,874,895,915,934,955,974,995,1014],"xSR":741.5,"ySR":469.95,"xT1":424.9,"yT1":0,"xT2":1058.1,"yT2":0,"toosoon":0,"cond_shown":"Incongruent","ratio_trial":300,"L_num":13,"L_den":26,"R_num":12,"R_den":15,"correct_side":2,"subjID":"marianacruzbernal35","gender":"1","school":"4","age":"10"},{"start_time":1552313302583,"click_time":1552313309437,"finger_time":1552313302597,"fix_duration":483.16311626314103,"trial":5,"RT":14,"MT":6840,"sideResp":2,"stimulus":[],"xmouse":[749,749,749,749,750,751,753,757,757,758,759,759,762,764,765,765,765,759,747,719,684,655,646,646,646,646,646,670,680,680,680,680,680,680,680,680,680,680,675,673,673,673,675,681,692,702,712,733,734,736,741,748,757,762,764,767,770,784,790,794,797,800,801,801,801,801,801,801,800,797,795,794,793,793,793,793,793,793,793,793,793,793,793,793,793,793,793,793,793,793,793,793,793,793,793,793,793,793,793,791,790,789,788,787,787,787,787,787,787,787,790,795,802,805,808,811,814,814,814,814,814,814,814,814,814,814,814,814,814,814,814,814,814,814,814,814,814,814,814,814,814,814,814,814,814,814,814,814,814,814,814,814,814,814,814,814,814,814,814,814,814,814,842,852,852,852,852,852,852,852,852,852,852,852,849,846,836,809,798,789,782,780,778,778,782,785,793,811,815,819,822,824,826,827,827,827,827,827,826,824,822,821,820,820,818,817,816,815,814,814,814,814,814,814,814,814,814,813,812,811,808,802,801,800,797,795,792,783,780,780,779,779,779,779,779,779,779,779,779,779,779,779,779,779,779,779,779,779,779,779,779,779,779,779,779,779,779,779,779,779,779,779,779,779,779,779,779,779,779,779,779,779,779,779,779,779,779,779,779,779,779,779,779,779,779,779,779,779,779,779,779,779,779,779,779,779,779,779,779,779,779,779,779,779,779,779,779,787,800,819,843,869,929,960,988,1008,1018,1023,1024,1025,1029,1036,1040,1046,1053,1060,1065,1076,1088,1090,1097,1099,1100,1100,1100,1100,1100,1100,1100,1102,1114,1131,1156],"ymouse":[524,524,524,524,523,517,502,482,479,476,473,471,465,460,454,452,451,457,481,553,670,798,874,874,874,874,874,822,629,507,426,406,405,405,405,405,405,412,427,448,477,505,551,573,599,622,649,687,687,686,682,670,635,620,612,607,602,587,581,576,572,570,569,569,569,569,570,571,576,579,584,585,588,588,588,588,588,588,588,588,588,588,588,588,588,588,588,588,588,588,588,588,588,588,588,588,588,588,588,590,592,594,595,596,596,596,596,596,596,596,595,591,584,580,577,569,564,564,564,564,564,564,564,564,564,564,564,564,564,564,564,564,564,564,564,564,564,564,564,564,564,564,564,564,564,564,564,564,564,564,564,564,564,564,564,564,564,564,564,564,564,562,561,561,561,561,561,561,561,561,561,561,561,561,563,566,572,590,601,616,626,635,641,641,642,642,641,632,629,625,623,618,614,612,610,609,609,609,609,609,609,609,609,609,610,610,611,613,614,614,614,614,614,614,614,614,614,614,615,615,615,615,615,615,615,615,615,615,614,614,614,614,614,614,614,614,614,614,614,614,614,614,614,614,614,614,614,614,614,614,614,614,614,614,614,614,614,614,614,614,614,614,614,614,614,614,614,614,614,614,614,614,614,614,614,614,614,614,614,614,614,614,614,614,614,614,614,614,614,614,614,614,614,614,614,614,614,614,614,614,614,614,614,614,614,614,614,614,611,610,610,610,610,610,610,613,614,615,615,615,614,601,591,576,556,520,458,312,213,171,134,115,112,112,112,112,112,112,112,112,113,113,95],"timestamp_mouse":[14,35,55,75,95,115,134,154,175,195,215,235,255,275,294,314,335,354,374,394,414,435,455,474,495,514,535,555,575,594,614,635,655,674,693,714,735,754,774,794,815,834,854,874,894,914,933,955,974,994,1015,1034,1054,1074,1094,1114,1134,1155,1175,1195,1215,1235,1254,1274,1294,1315,1336,1354,1375,1395,1415,1435,1454,1474,1495,1515,1534,1554,1574,1595,1615,1635,1654,1675,1694,1714,1735,1754,1774,1794,1815,1835,1854,1875,1894,1914,1935,1954,1974,1994,2014,2035,2054,2074,2095,2114,2134,2155,2175,2194,2215,2234,2254,2275,2295,2315,2334,2355,2374,2395,2415,2435,2454,2475,2495,2514,2535,2554,2574,2594,2614,2635,2654,2675,2694,2714,2736,2754,2775,2795,2815,2835,2855,2875,2895,2915,2934,2955,2975,2995,3014,3035,3054,3075,3094,3114,3136,3155,3174,3195,3215,3235,3255,3274,3294,3315,3335,3354,3374,3393,3414,3435,3455,3473,3495,3513,3534,3554,3575,3595,3615,3634,3655,3674,3694,3715,3735,3754,3774,3795,3815,3835,3854,3875,3895,3914,3935,3954,3975,3994,4014,4035,4054,4075,4095,4115,4134,4154,4174,4194,4215,4235,4253,4274,4294,4315,4334,4354,4375,4395,4414,4435,4454,4475,4494,4515,4535,4554,4574,4595,4614,4635,4654,4674,4694,4714,4735,4754,4774,4795,4815,4834,4855,4874,4895,4915,4934,4955,4974,4994,5015,5034,5054,5075,5095,5115,5134,5155,5174,5195,5215,5235,5254,5274,5295,5314,5336,5355,5374,5395,5414,5435,5455,5474,5494,5515,5535,5555,5575,5594,5615,5635,5654,5674,5695,5715,5735,5755,5774,5795,5814,5833,5855,5874,5894,5915,5934,5955,5974,5995,6014,6034,6054,6075,6094,6114,6135,6154,6175,6195,6215,6234,6254,6275,6294,6314,6334,6354,6374,6394,6415,6435,6454,6475,6494,6514,6535,6555,6574,6595,6614,6635,6654,6674,6694,6714,6735,6754,6774,6794,6814,6834,6854],"xSR":741.5,"ySR":469.95,"xT1":424.9,"yT1":0,"xT2":1058.1,"yT2":0,"toosoon":0,"cond_shown":"Incongruent","ratio_trial":100,"L_num":9,"L_den":18,"R_num":6,"R_den":10,"correct_side":2,"subjID":"marianacruzbernal35","gender":"1","school":"4","age":"10"},{"start_time":1552313316041,"click_time":1552313316477,"finger_time":1552313316378,"fix_duration":1382.123047635182,"trial":6,"RT":337,"MT":99,"sideResp":2,"stimulus":[],"xmouse":[778,777,777,776,773,768,763,761,760,760,760,760,760,760,760,780,802,836,891,1003,1047,1078],"ymouse":[629,629,629,628,627,626,624,624,624,624,624,624,623,621,612,589,554,498,421,251,166,96],"timestamp_mouse":[17,45,56,77,96,117,137,157,177,196,216,237,256,276,296,316,337,356,377,396,417,436],"xSR":741.5,"ySR":573.95,"xT1":424.9,"yT1":0,"xT2":1058.1,"yT2":0,"toosoon":0,"cond_shown":"Congruent","ratio_trial":200,"L_num":3,"L_den":10,"R_num":11,"R_den":22,"correct_side":2,"subjID":"marianacruzbernal35","gender":"1","school":"4","age":"10"},{"start_time":1552313322526,"click_time":1552313323297,"finger_time":1552313322937,"fix_duration":605.4832055220955,"trial":7,"RT":411,"MT":360,"sideResp":2,"stimulus":[],"xmouse":[756,756,756,756,756,756,756,756,756,756,756,756,756,756,756,756,756,756,762,768,863,925,984,1037,1079,1158,1181,1191,1197,1198,1198,1198,1198,1198,1198,1191,1184,1180,1153],"ymouse":[646,646,646,646,646,646,646,646,646,646,646,646,646,646,646,646,646,646,643,639,572,520,467,406,336,193,141,106,81,71,70,70,70,69,64,55,54,52,45],"timestamp_mouse":[13,39,51,71,91,111,131,151,171,191,212,231,251,272,291,312,331,352,371,391,411,431,451,472,492,511,531,552,572,591,611,631,651,671,692,711,731,751,771],"xSR":741.5,"ySR":573.95,"xT1":424.9,"yT1":0,"xT2":1058.1,"yT2":0,"toosoon":0,"cond_shown":"Congruent","ratio_trial":100,"L_num":15,"L_den":25,"R_num":13,"R_den":26,"correct_side":1,"subjID":"marianacruzbernal35","gender":"1","school":"4","age":"10"},{"start_time":1552313329409,"click_time":1552313335079,"finger_time":1552313331718,"fix_duration":410.0538327448363,"trial":8,"RT":2309,"MT":3361,"sideResp":1,"stimulus":[],"xmouse":[775,775,775,775,775,775,775,775,775,775,775,775,775,775,775,775,775,775,775,775,775,775,775,775,775,775,775,775,775,775,775,775,775,775,775,775,775,775,775,775,775,775,775,775,775,775,775,775,775,775,775,775,775,775,775,775,775,775,775,775,775,775,775,775,775,775,775,775,775,775,775,775,775,775,775,775,775,775,775,775,775,775,775,775,775,775,775,775,775,775,775,775,775,775,775,775,775,775,775,775,775,775,775,775,775,775,775,775,775,775,775,775,775,787,799,855,902,918,923,923,923,923,923,924,924,924,918,905,885,853,816,753,752,752,752,752,752,752,741,740,740,740,740,740,740,740,740,740,740,740,740,740,740,740,740,740,731,731,731,731,731,731,731,731,731,731,731,731,731,731,731,731,731,731,731,731,731,731,731,731,731,731,731,731,731,730,719,714,696,696,696,586,415,285,155,64,21,20,20,26,47,133,184,238,273,304,345,351,357,369,391,429,447,469,482,482,482,482,482,486,491,497,497,497,497,499,502,511,524,535,544,556,558,558,557,541,522,519,519,519,519,519,519,519,519,519,519,519,519,519,519,519,519,519,519,519,519,514,511,509,507,504,503,502,502,502,502,502,502,502,502,502,502,502,502,502,502,502,502,502,502,502,502,503],"ymouse":[655,655,655,655,655,655,655,655,655,655,655,655,655,655,655,655,655,655,655,655,655,655,655,655,655,655,655,655,655,655,655,655,655,655,655,655,655,655,655,655,655,655,655,655,655,655,655,655,655,655,655,655,655,655,655,655,655,655,655,655,655,655,655,655,655,655,655,655,655,655,655,655,655,655,655,655,655,655,655,655,655,655,655,655,655,655,655,655,655,655,655,655,655,655,655,655,655,655,655,655,655,655,655,655,655,655,655,655,655,655,655,655,655,643,634,583,551,537,532,532,532,532,532,530,520,501,431,360,300,246,196,141,140,140,140,140,140,140,137,137,137,137,137,137,137,137,137,137,137,137,137,137,137,137,137,137,135,135,135,135,135,135,135,135,135,135,135,135,135,135,135,135,135,135,135,135,135,135,135,135,135,135,135,135,135,135,135,135,132,132,132,94,29,0,0,0,0,0,4,13,19,45,64,87,101,115,129,129,130,132,135,146,154,160,164,164,164,164,164,166,166,167,167,167,167,167,165,158,149,142,135,123,120,120,119,114,107,106,106,106,106,106,106,106,106,106,106,106,106,106,106,106,106,106,106,106,106,104,104,103,102,102,101,101,101,101,101,101,101,101,101,101,101,101,101,101,101,101,101,101,101,101,100,98],"timestamp_mouse":[13,36,48,68,88,108,128,148,169,188,208,228,248,268,288,308,328,348,369,388,408,429,448,468,489,509,529,548,569,589,608,628,648,669,688,709,728,748,769,789,808,829,848,868,889,908,928,949,969,988,1010,1029,1048,1068,1089,1109,1129,1148,1169,1188,1208,1228,1248,1269,1289,1309,1329,1348,1369,1388,1408,1428,1448,1470,1489,1508,1528,1548,1568,1588,1609,1628,1648,1669,1688,1709,1728,1748,1769,1789,1809,1828,1849,1868,1898,1909,1928,1948,1968,1989,2008,2029,2049,2069,2089,2109,2129,2149,2167,2189,2209,2228,2248,2268,2288,2309,2328,2348,2368,2388,2409,2429,2449,2468,2489,2509,2528,2548,2568,2588,2608,2628,2648,2669,2688,2708,2729,2748,2769,2788,2808,2828,2848,2869,2888,2909,2928,2948,2968,2988,3009,3027,3048,3068,3088,3108,3128,3148,3169,3188,3208,3228,3248,3268,3289,3308,3329,3349,3369,3388,3409,3428,3448,3468,3488,3509,3529,3548,3568,3588,3609,3629,3649,3668,3688,3708,3728,3748,3769,3789,3809,3829,3848,3868,3888,3908,3929,3949,3968,3989,4009,4030,4048,4068,4088,4108,4128,4148,4168,4188,4208,4229,4249,4268,4288,4309,4328,4349,4368,4388,4408,4429,4448,4468,4488,4508,4529,4548,4568,4589,4609,4628,4648,4669,4688,4709,4728,4748,4768,4789,4809,4828,4848,4868,4889,4909,4928,4948,4969,4989,5009,5029,5048,5069,5088,5109,5128,5148,5168,5189,5209,5228,5249,5269,5288,5308,5329,5348,5368,5388,5409,5429,5449,5469,5488,5509,5528,5548,5569,5589,5609,5629,5648,5669],"xSR":741.5,"ySR":573.95,"xT1":424.9,"yT1":0,"xT2":1058.1,"yT2":0,"toosoon":0,"cond_shown":"Incongruent","ratio_trial":200,"L_num":7,"L_den":10,"R_num":12,"R_den":24,"correct_side":1,"subjID":"marianacruzbernal35","gender":"1","school":"4","age":"10"},{"start_time":1552313337370,"click_time":1552313338438,"finger_time":1552313337919,"fix_duration":250,"trial":9,"RT":549,"MT":519,"sideResp":2,"stimulus":[],"xmouse":[775,775,775,775,775,775,775,775,775,775,775,775,775,775,775,775,775,775,775,775,775,775,775,775,775,775,775,762,737,715,692,679,677,691,713,738,791,858,995,1090,1107,1136,1161,1190,1203,1213,1222,1227,1233,1230,1213,1181,1143,1089],"ymouse":[618,618,618,618,618,618,618,618,618,618,618,618,618,618,618,618,618,618,618,618,618,618,618,618,618,617,612,572,524,485,451,426,413,399,392,387,379,363,315,242,224,181,136,62,30,6,0,0,0,0,0,0,0,3],"timestamp_mouse":[9,32,48,68,87,108,128,148,167,187,208,227,248,267,287,307,327,347,368,387,407,428,448,468,488,508,527,549,568,587,607,627,647,667,688,707,727,747,767,794,808,828,848,867,888,907,927,947,968,987,1008,1028,1047,1068],"xSR":741.5,"ySR":573.95,"xT1":424.9,"yT1":0,"xT2":1058.1,"yT2":0,"toosoon":0,"cond_shown":"Congruent","ratio_trial":100,"L_num":1,"L_den":2,"R_num":3,"R_den":5,"correct_side":2,"subjID":"marianacruzbernal35","gender":"1","school":"4","age":"10"},{"start_time":1552313351936,"click_time":1552313352998,"finger_time":1552313352438,"fix_duration":1495.3158211565146,"trial":10,"RT":502,"MT":560,"sideResp":2,"stimulus":[],"xmouse":[773,773,773,773,775,776,778,778,778,778,778,778,778,778,778,778,779,779,780,781,783,788,793,801,815,862,905,955,1001,1044,1110,1126,1137,1143,1149,1157,1160,1162,1164,1165,1169,1176,1180,1184,1186,1186,1181,1173,1162,1154,1136,1131,1128,1127],"ymouse":[620,620,620,620,620,620,620,620,620,620,620,620,620,620,620,620,620,620,620,620,621,622,622,623,623,616,606,590,577,557,514,498,483,469,455,435,429,426,424,423,420,410,400,388,353,331,311,286,255,225,157,118,103,94],"timestamp_mouse":[8,21,41,62,82,101,122,142,162,181,201,221,242,262,281,301,321,341,361,382,402,422,441,461,482,502,521,542,562,581,601,622,642,662,682,701,721,742,762,782,801,821,841,861,882,901,921,941,962,981,1001,1021,1041,1062],"xSR":741.5,"ySR":573.95,"xT1":424.9,"yT1":0,"xT2":1058.1,"yT2":0,"toosoon":0,"cond_shown":"Congruent","ratio_trial":300,"L_num":24,"L_den":30,"R_num":2,"R_den":4,"correct_side":1,"subjID":"marianacruzbernal35","gender":"1","school":"4","age":"10"},{"start_time":1552313361410,"click_time":1552313364298,"finger_time":1552313363599,"fix_duration":250,"trial":11,"RT":2189,"MT":699,"sideResp":1,"stimulus":[],"xmouse":[779,779,779,779,779,779,779,779,779,779,779,779,779,779,779,779,779,779,779,779,779,779,779,779,779,779,779,779,779,779,779,779,779,779,779,779,779,779,779,779,779,779,780,780,780,780,780,780,780,780,780,780,780,780,780,780,780,780,780,783,785,792,793,796,798,800,800,800,800,800,800,800,800,800,800,800,800,800,800,800,800,800,800,800,800,800,800,803,814,823,827,829,829,829,829,829,829,829,829,829,829,829,829,828,827,826,826,826,826,826,826,823,816,807,795,778,734,705,686,665,637,608,585,563,541,512,444,435,433,433,432,424,418,411,404,394,380,377,377,377,377,383,392,408,426],"ymouse":[600,600,600,600,600,600,600,600,600,600,600,600,600,600,600,600,600,600,600,600,600,600,600,600,600,600,600,600,600,600,600,600,600,600,600,600,600,600,600,600,600,600,599,599,599,599,599,599,599,599,599,599,599,599,599,599,599,599,599,599,599,599,599,598,597,596,596,596,596,596,596,596,596,596,596,596,596,596,596,596,596,596,596,596,596,596,596,596,596,598,599,600,600,600,600,600,600,600,600,600,600,600,600,600,600,600,600,597,587,569,551,501,470,437,401,363,281,229,197,160,107,14,0,0,0,0,0,0,0,0,0,11,19,31,43,55,76,84,86,86,86,84,79,71,62],"timestamp_mouse":[9,36,47,67,88,108,127,148,168,188,207,227,247,268,289,308,328,347,367,388,407,427,448,468,489,508,529,548,569,589,608,629,649,669,689,708,728,748,768,789,808,829,849,869,889,908,929,948,969,989,1008,1029,1049,1069,1089,1108,1128,1149,1168,1189,1209,1229,1248,1268,1288,1309,1329,1348,1369,1388,1408,1429,1449,1468,1489,1509,1528,1548,1569,1588,1609,1628,1649,1668,1688,1709,1728,1748,1769,1789,1808,1829,1849,1868,1888,1909,1928,1949,1969,1989,2007,2029,2049,2068,2088,2109,2129,2149,2169,2189,2208,2228,2248,2268,2288,2308,2328,2348,2368,2388,2408,2428,2448,2470,2488,2508,2528,2549,2567,2588,2608,2629,2647,2668,2688,2709,2728,2748,2769,2788,2808,2829,2848,2869,2888],"xSR":741.5,"ySR":573.95,"xT1":424.9,"yT1":0,"xT2":1058.1,"yT2":0,"toosoon":0,"cond_shown":"Incongruent","ratio_trial":200,"L_num":11,"L_den":20,"R_num":3,"R_den":4,"correct_side":2,"subjID":"marianacruzbernal35","gender":"1","school":"4","age":"10"},{"start_time":1552313367338,"click_time":1552313368098,"finger_time":1552313367719,"fix_duration":758.3699320108409,"trial":12,"RT":381,"MT":379,"sideResp":2,"stimulus":[],"xmouse":[768,768,769,769,769,769,769,769,769,769,769,769,769,769,769,770,776,789,808,834,910,975,1004,1024,1038,1053,1055,1055,1055,1056,1057,1057,1057,1057,1057,1057,1057,1057,1060],"ymouse":[626,626,626,626,626,626,626,626,626,626,626,626,626,626,626,626,623,612,593,564,473,378,313,255,206,153,136,123,112,105,99,99,99,99,99,99,99,98,98],"timestamp_mouse":[1,24,46,59,81,101,121,141,160,181,201,220,241,261,281,300,321,341,360,381,401,420,440,461,479,500,520,541,561,581,600,620,641,660,681,700,721,739,760],"xSR":741.5,"ySR":573.95,"xT1":424.9,"yT1":0,"xT2":1058.1,"yT2":0,"toosoon":0,"cond_shown":"Congruent","ratio_trial":200,"L_num":4,"L_den":8,"R_num":3,"R_den":10,"correct_side":1,"subjID":"marianacruzbernal35","gender":"1","school":"4","age":"10"},{"start_time":1552313369571,"click_time":1552313369998,"finger_time":1552313369878,"fix_duration":250,"trial":13,"RT":307,"MT":120,"sideResp":1,"stimulus":[],"xmouse":[750,750,750,750,750,750,750,751,752,754,755,757,760,769,775,777,772,752,648,597,544,497],"ymouse":[619,619,619,619,619,619,619,619,619,619,618,617,615,605,593,569,531,471,277,204,137,84],"timestamp_mouse":[6,28,47,66,88,108,128,146,167,188,207,227,248,268,287,307,327,346,367,387,407,427],"xSR":741.5,"ySR":573.95,"xT1":424.9,"yT1":0,"xT2":1058.1,"yT2":0,"toosoon":0,"cond_shown":"Congruent","ratio_trial":100,"L_num":4,"L_den":8,"R_num":6,"R_den":10,"correct_side":2,"subjID":"marianacruzbernal35","gender":"1","school":"4","age":"10"},{"start_time":1552313376273,"click_time":1552313377259,"finger_time":1552313376538,"fix_duration":1033.2119879196914,"trial":14,"RT":265,"MT":721,"sideResp":2,"stimulus":[],"xmouse":[833,833,833,833,833,833,834,834,834,834,836,836,840,843,846,847,847,847,846,846,847,849,851,863,872,881,891,896,902,903,903,903,903,902,902,903,910,912,917,921,927,935,943,955,958,965,977,993,1041,1063],"ymouse":[635,635,635,635,635,635,635,635,635,635,634,633,631,626,622,617,610,601,578,568,561,555,551,536,524,509,497,487,464,450,432,412,392,349,334,315,293,272,218,190,156,130,111,96,96,96,96,96,90,89],"timestamp_mouse":[10,27,45,65,85,104,125,145,166,186,205,225,245,265,285,305,326,346,365,385,406,424,445,465,486,505,525,545,565,586,605,625,645,666,685,705,726,744,764,785,805,825,846,865,885,905,925,946,965,986],"xSR":741.5,"ySR":573.95,"xT1":424.9,"yT1":0,"xT2":1058.1,"yT2":0,"toosoon":0,"cond_shown":"Congruent","ratio_trial":100,"L_num":3,"L_den":6,"R_num":2,"R_den":5,"correct_side":1,"subjID":"marianacruzbernal35","gender":"1","school":"4","age":"10"},{"start_time":1552313379960,"click_time":1552313382338,"finger_time":1552313380299,"fix_duration":839.5968026926982,"trial":15,"RT":339,"MT":2039,"sideResp":1,"stimulus":[],"xmouse":[812,812,812,813,814,814,814,814,814,814,814,814,814,814,815,817,818,820,820,820,820,820,820,820,820,820,820,820,820,820,820,820,820,820,820,820,820,820,820,820,820,820,820,818,801,788,776,766,759,755,755,755,755,755,755,755,755,755,755,755,755,755,755,755,755,755,755,755,755,746,745,745,745,745,745,745,746,746,746,748,748,751,753,757,763,766,768,770,771,772,772,774,776,779,779,770,757,738,718,686,677,669,660,648,617,606,598,592,586,576,572,570,570,569,569,569,568,565,559,515],"ymouse":[648,648,648,647,645,643,639,636,633,627,623,618,615,612,600,592,582,570,558,530,523,520,519,519,519,519,519,519,519,519,519,519,519,519,519,519,519,519,519,519,519,519,519,522,545,559,571,585,594,598,598,598,598,598,597,596,596,596,596,596,596,596,596,596,596,596,610,618,636,663,668,668,668,668,668,668,667,667,667,666,666,664,662,659,652,648,646,644,642,641,640,639,634,623,579,551,514,473,441,408,405,403,402,400,394,390,386,382,376,353,323,300,279,258,213,190,166,142,114,20],"timestamp_mouse":[1,19,39,59,78,98,118,139,158,179,199,218,239,259,279,299,318,339,359,377,398,418,439,458,478,498,517,538,559,578,598,618,638,658,679,698,718,738,759,778,798,818,838,858,879,899,918,938,958,978,998,1019,1038,1059,1079,1099,1119,1138,1158,1178,1199,1217,1239,1258,1279,1297,1317,1337,1358,1379,1398,1418,1439,1458,1479,1499,1518,1539,1558,1578,1599,1619,1639,1658,1679,1698,1718,1738,1759,1779,1798,1817,1838,1858,1877,1898,1918,1939,1959,1978,1998,2017,2038,2057,2079,2098,2118,2138,2159,2179,2199,2219,2238,2258,2278,2298,2318,2338,2359,2378],"xSR":741.5,"ySR":573.95,"xT1":424.9,"yT1":0,"xT2":1058.1,"yT2":0,"toosoon":0,"cond_shown":"Incongruent","ratio_trial":300,"L_num":4,"L_den":20,"R_num":2,"R_den":4,"correct_side":2,"subjID":"marianacruzbernal35","gender":"1","school":"4","age":"10"},{"start_time":1552313385240,"click_time":1552313398938,"finger_time":1552313388358,"fix_duration":1041.982690894054,"trial":16,"RT":3118,"MT":10580,"sideResp":2,"stimulus":[],"xmouse":[796,796,798,799,804,804,805,806,806,806,806,806,806,806,806,806,806,806,806,806,806,806,806,806,806,806,807,807,807,808,808,808,808,808,808,808,808,808,808,808,808,808,808,808,808,808,808,808,808,808,808,808,808,808,808,808,808,808,808,808,808,808,808,808,808,808,808,808,808,808,808,808,808,808,808,808,808,808,808,808,808,808,808,808,808,808,808,808,808,808,808,808,808,808,807,805,804,804,804,803,803,802,800,797,789,779,772,768,765,762,762,762,762,762,762,762,762,762,762,762,762,762,762,762,762,762,762,762,762,762,762,762,762,762,762,762,762,762,762,762,762,762,762,762,762,762,762,762,762,762,763,763,766,771,778,778,778,778,778,778,778,778,778,778,778,778,778,778,778,778,778,778,778,777,774,773,773,773,773,773,773,773,773,773,778,787,793,800,805,822,839,857,875,889,896,896,896,896,896,896,885,860,802,687,650,646,646,646,646,646,651,673,705,740,806,831,832,832,832,825,804,773,744,729,719,718,718,718,717,717,716,716,713,712,707,701,696,686,678,651,639,635,633,633,633,633,633,633,633,633,633,633,633,633,633,633,633,633,633,633,633,633,633,633,633,633,633,633,633,633,633,633,633,633,633,633,633,633,633,633,633,633,633,633,633,633,633,633,633,633,633,633,633,633,633,633,633,633,633,633,633,633,633,633,633,633,633,633,633,633,633,633,633,633,633,633,633,633,633,633,633,633,633,633,633,633,633,633,633,633,633,633,633,633,633,633,633,633,633,633,633,633,633,633,633,633,633,633,633,633,633,633,633,633,633,633,633,633,633,633,633,633,633,633,633,633,633,633,633,633,633,633,633,633,633,633,633,633,633,633,633,633,633,633,633,633,633,633,633,633,633,633,633,633,633,633,633,633,633,633,633,633,633,633,633,633,633,633,633,633,633,633,633,633,633,633,633,633,633,633,633,633,633,633,633,633,633,633,633,633,633,633,633,633,633,633,633,633,633,633,633,633,633,633,633,633,633,633,633,633,633,633,633,633,633,633,633,633,633,633,633,633,633,633,633,633,633,633,633,633,633,633,633,633,633,633,634,634,635,635,635,635,635,635,635,633,632,632,632,632,632,632,632,632,632,634,636,638,639,639,639,639,639,639,639,639,639,639,639,639,639,639,639,639,639,639,639,639,639,646,660,676,695,714,758,765,768,769,770,770,770,770,770,770,768,758,747,733,710,708,706,706,706,706,720,742,766,802,852,907,910,910,910,910,910,910,896,881,876,876,876,876,876,875,862,850,837,822,795,782,777,776,776,776,776,776,776,776,776,776,776,776,776,776,776,776,776,776,776,776,776,776,776,776,776,776,776,776,776,776,776,776,776,776,776,777,777,778,778,780,781,783,785,786,789,791,793,794,795,797,798,799,799,799,799,799,799,799,799,799,799,799,799,799,799,799,799,799,799,799,799,799,801,802,810,815,816,816,816,816,816,816,816,816,816,816,816,816,816,816,816,818,824,839,925,968,1000,1016,1023,1018,1015,1013,1012,1012,1012,1012,1012,1012,1012,1012,1012,1016,1028,1045,1069],"ymouse":[620,620,622,623,624,624,624,624,624,624,624,624,624,624,624,624,624,624,624,624,624,624,624,624,624,624,623,622,622,621,621,621,621,621,621,621,621,621,621,621,621,621,621,621,621,621,621,621,621,621,621,621,621,621,621,621,621,621,621,621,621,621,621,621,621,621,621,621,621,621,621,621,621,621,621,621,621,621,621,621,621,621,621,621,621,621,621,621,621,621,621,621,621,622,624,625,626,626,626,626,626,626,626,626,628,632,634,637,637,639,639,639,639,639,639,639,639,639,639,639,639,639,639,639,639,639,639,639,639,639,639,639,639,639,639,639,639,639,639,639,639,639,639,639,639,639,639,639,639,639,638,634,625,610,575,573,572,572,572,572,572,572,572,572,572,572,572,572,572,572,572,572,572,580,593,598,598,598,598,598,598,598,598,599,600,603,607,611,613,619,623,629,634,638,639,639,639,639,639,639,633,613,571,487,465,463,463,463,463,463,468,481,506,535,604,639,644,645,646,646,644,638,630,626,625,625,625,625,627,627,627,627,627,626,625,625,625,625,625,622,619,618,618,618,618,618,618,618,618,618,618,618,618,618,618,618,618,618,618,618,618,618,618,618,618,618,618,618,618,618,618,618,618,618,618,618,618,618,618,618,618,618,618,618,618,618,618,618,618,618,618,618,618,618,618,618,618,618,618,618,618,618,618,618,618,618,618,618,618,618,618,618,618,618,618,618,618,618,618,618,618,618,618,618,618,618,618,618,618,618,618,618,618,618,618,618,618,618,618,618,618,618,618,618,618,618,618,618,618,618,618,618,618,618,618,618,618,618,618,618,618,618,618,618,618,618,618,618,618,618,618,618,618,619,624,627,629,630,630,630,630,630,630,630,630,630,630,630,630,630,630,630,630,630,630,630,630,630,630,630,630,630,630,630,630,630,630,630,630,630,630,630,630,630,630,630,630,630,630,630,630,630,630,630,630,630,630,630,630,630,630,630,630,630,630,630,630,630,630,630,630,630,630,630,630,630,630,630,630,630,630,630,630,630,630,630,630,630,630,630,630,630,630,630,630,630,630,630,630,630,630,630,630,630,630,630,630,630,630,630,630,630,630,630,630,629,628,628,628,628,628,628,628,628,628,628,628,628,628,628,628,628,628,628,628,628,628,628,628,628,628,628,628,628,628,628,628,628,628,627,627,629,632,636,642,643,645,645,645,645,645,645,645,645,645,645,644,642,638,637,637,637,637,637,639,643,650,658,667,675,676,676,676,676,676,676,676,675,674,674,674,674,674,674,671,670,668,666,661,659,658,658,658,658,658,658,658,658,658,658,658,658,658,658,658,658,658,658,658,658,658,658,658,658,658,658,658,658,658,658,658,658,658,658,658,658,658,658,658,658,658,658,658,658,658,658,658,658,658,658,658,658,657,657,657,657,657,657,657,657,657,657,657,657,657,657,657,657,657,657,657,657,657,657,657,657,657,657,657,657,657,657,657,657,657,657,657,657,657,657,657,651,633,586,388,278,170,64,0,0,0,0,0,0,0,0,0,0,0,0,0,0,1,6,19],"timestamp_mouse":[36,38,59,79,99,117,144,158,179,199,218,239,259,278,297,317,339,358,378,398,419,438,459,479,499,519,538,559,579,599,619,639,658,679,698,719,739,758,778,798,819,839,858,879,898,918,938,959,978,999,1019,1038,1059,1078,1099,1118,1139,1158,1177,1199,1218,1238,1258,1279,1299,1318,1339,1359,1378,1399,1419,1438,1458,1479,1499,1518,1538,1558,1579,1598,1618,1639,1659,1679,1698,1718,1738,1758,1778,1799,1818,1838,1858,1879,1898,1918,1939,1958,1979,1998,2019,2038,2058,2079,2098,2119,2139,2158,2178,2198,2219,2238,2257,2279,2299,2318,2338,2359,2378,2399,2418,2439,2458,2479,2497,2518,2539,2559,2579,2599,2618,2639,2658,2678,2699,2718,2739,2758,2777,2798,2818,2838,2857,2879,2899,2918,2938,2959,2978,2998,3018,3038,3057,3079,3098,3118,3138,3159,3179,3199,3218,3239,3258,3278,3299,3318,3338,3358,3379,3398,3418,3438,3459,3479,3499,3518,3539,3558,3579,3599,3617,3639,3659,3678,3699,3719,3739,3758,3779,3798,3819,3838,3858,3879,3899,3918,3938,3958,3989,3998,4018,4039,4058,4079,4098,4118,4139,4159,4179,4199,4219,4239,4258,4279,4298,4319,4338,4359,4379,4399,4419,4439,4457,4479,4498,4518,4538,4559,4579,4598,4619,4638,4659,4678,4698,4719,4737,4759,4778,4797,4818,4838,4858,4877,4898,4917,4939,4958,4979,4999,5018,5038,5058,5078,5098,5118,5138,5159,5178,5199,5219,5238,5259,5279,5298,5318,5338,5357,5378,5398,5418,5438,5459,5479,5498,5519,5538,5558,5579,5599,5619,5639,5659,5679,5697,5719,5738,5758,5778,5797,5818,5839,5859,5879,5899,5917,5939,5958,5978,5999,6018,6038,6059,6078,6098,6118,6138,6158,6179,6199,6219,6238,6258,6278,6299,6319,6338,6359,6378,6399,6419,6438,6459,6478,6499,6518,6539,6557,6577,6598,6619,6639,6659,6679,6698,6717,6739,6759,6778,6799,6818,6838,6858,6879,6899,6918,6938,6958,6978,6998,7018,7039,7058,7079,7099,7118,7139,7159,7179,7198,7218,7239,7259,7278,7299,7319,7339,7359,7377,7398,7419,7438,7458,7478,7499,7518,7539,7559,7579,7598,7619,7638,7659,7678,7699,7718,7739,7759,7779,7799,7819,7838,7859,7879,7898,7918,7939,7959,7978,7998,8018,8038,8058,8079,8098,8118,8139,8158,8178,8199,8218,8239,8258,8279,8298,8318,8339,8359,8378,8399,8419,8439,8459,8478,8498,8518,8538,8558,8579,8599,8618,8638,8658,8679,8699,8718,8739,8758,8778,8798,8818,8839,8859,8878,8899,8918,8938,8958,8979,8999,9019,9038,9058,9079,9098,9118,9139,9158,9178,9199,9219,9239,9258,9278,9298,9319,9338,9358,9378,9398,9419,9438,9459,9478,9499,9519,9539,9558,9578,9599,9619,9639,9658,9679,9698,9719,9738,9758,9778,9799,9818,9838,9858,9879,9899,9919,9938,9958,9977,9999,10018,10038,10058,10079,10097,10118,10139,10158,10179,10199,10218,10239,10257,10279,10299,10318,10338,10357,10378,10398,10418,10439,10458,10478,10499,10518,10538,10558,10578,10599,10618,10638,10658,10678,10697,10719,10739,10758,10779,10797,10818,10838,10859,10878,10898,10918,10939,10958,10977,10998,11018,11038,11059,11078,11099,11119,11139,11158,11179,11198,11218,11239,11258,11279,11297,11318,11339,11357,11379,11399,11418,11439,11458,11479,11499,11519,11538,11557,11579,11599,11618,11638,11659,11679,11698,11718,11737,11759,11779,11798,11819,11838,11858,11879,11899,11918,11938,11958,11979,11998,12019,12038,12059,12078,12098,12118,12138,12159,12177,12198,12218,12238,12259,12279,12299,12318,12338,12359,12378,12399,12419,12438,12459,12478,12499,12518,12538,12559,12578,12599,12619,12638,12659,12678,12698,12719,12737,12757,12779,12799,12818,12839,12858,12878,12898,12919,12939,12958,12978,12999,13019,13038,13059,13079,13099,13118,13139,13158,13178,13199,13217,13238,13258,13279,13297,13318,13338,13358,13379,13398,13418,13438,13458,13478,13499,13519,13538,13559,13578,13599,13619,13639,13658,13677,13698],"xSR":741.5,"ySR":573.95,"xT1":424.9,"yT1":0,"xT2":1058.1,"yT2":0,"toosoon":0,"cond_shown":"Incongruent","ratio_trial":300,"L_num":13,"L_den":26,"R_num":12,"R_den":15,"correct_side":2,"subjID":"marianacruzbernal35","gender":"1","school":"4","age":"10"},{"start_time":1552313402629,"click_time":1552313403539,"finger_time":1552313403158,"fix_duration":250,"trial":17,"RT":529,"MT":381,"sideResp":2,"stimulus":[],"xmouse":[745,745,745,745,745,745,745,745,745,745,745,745,745,745,745,745,745,745,745,745,745,745,745,745,745,754,767,774,774,780,795,828,877,933,988,1059,1060,1057,1047,1039,1039,1039,1039,1039,1041,1155],"ymouse":[598,598,598,598,598,598,598,598,598,598,598,598,598,598,598,598,598,598,598,598,598,598,598,598,598,587,562,520,468,404,246,155,65,0,0,0,0,0,0,0,0,0,0,0,0,30],"timestamp_mouse":[11,35,49,70,89,109,129,149,170,189,210,228,250,270,289,309,328,350,369,389,410,430,450,470,490,508,529,550,570,590,610,629,650,670,690,709,729,749,769,790,811,828,849,870,890,910],"xSR":741.5,"ySR":573.95,"xT1":424.9,"yT1":0,"xT2":1058.1,"yT2":0,"toosoon":0,"cond_shown":"Incongruent","ratio_trial":200,"L_num":7,"L_den":15,"R_num":6,"R_den":9,"correct_side":2,"subjID":"marianacruzbernal35","gender":"1","school":"4","age":"10"},{"start_time":1552313405291,"click_time":1552313406158,"finger_time":1552313405619,"fix_duration":310.4030695892496,"trial":18,"RT":328,"MT":539,"sideResp":2,"stimulus":[],"xmouse":[780,780,780,780,780,780,780,780,780,780,780,780,780,780,779,790,823,906,942,964,970,970,965,965,965,965,965,965,965,965,968,992,1031,1037,1037,1038,1038,1038,1038,1038,1038,1039,1048,1063],"ymouse":[619,619,619,619,619,619,619,619,619,619,619,619,619,619,613,594,524,350,269,188,129,90,58,58,58,58,58,58,58,58,58,62,67,68,68,68,68,68,68,68,68,68,66,66],"timestamp_mouse":[9,37,48,68,88,108,128,147,168,188,207,228,247,267,288,308,328,348,367,388,408,427,447,467,488,507,528,547,568,587,607,628,648,667,687,706,727,748,767,788,807,828,848,866],"xSR":741.5,"ySR":573.95,"xT1":424.9,"yT1":0,"xT2":1058.1,"yT2":0,"toosoon":0,"cond_shown":"Congruent","ratio_trial":300,"L_num":1,"L_den":3,"R_num":19,"R_den":30,"correct_side":2,"subjID":"marianacruzbernal35","gender":"1","school":"4","age":"10"},{"start_time":1552313414020,"click_time":1552313415158,"finger_time":1552313414839,"fix_duration":740.0273433341387,"trial":19,"RT":819,"MT":319,"sideResp":2,"stimulus":[],"xmouse":[778,778,778,778,778,778,778,778,778,778,778,778,778,778,778,778,778,778,778,779,779,779,780,780,780,780,780,780,780,780,780,780,780,780,780,783,786,791,799,808,872,915,948,979,1003,1005,1003,1000,996,991,988,988,989,994,1002,1045,1065],"ymouse":[659,659,659,659,659,659,659,659,659,659,659,659,659,659,659,659,659,657,656,656,653,653,651,651,651,651,650,650,650,650,650,650,650,650,650,644,636,623,606,584,493,442,377,328,266,229,209,205,203,200,199,198,194,184,168,101,71],"timestamp_mouse":[30,39,57,79,99,119,138,158,178,198,218,238,259,278,299,319,338,358,379,399,419,439,458,478,499,518,539,558,577,598,618,639,658,678,698,718,738,758,778,799,819,838,859,878,899,918,938,959,979,998,1018,1038,1058,1078,1098,1118,1138],"xSR":741.5,"ySR":573.95,"xT1":424.9,"yT1":0,"xT2":1058.1,"yT2":0,"toosoon":0,"cond_shown":"Congruent","ratio_trial":100,"L_num":9,"L_den":15,"R_num":8,"R_den":16,"correct_side":1,"subjID":"marianacruzbernal35","gender":"1","school":"4","age":"10"},{"start_time":1552313425210,"click_time":1552313426220,"finger_time":1552313425660,"fix_duration":729.2611348578571,"trial":20,"RT":450,"MT":560,"sideResp":2,"stimulus":[],"xmouse":[812,812,812,812,812,812,812,812,812,812,812,812,812,812,813,814,815,816,817,819,822,836,843,847,847,818,793,784,783,794,841,872,896,909,922,932,943,947,949,949,953,958,960,963,966,970,988,1011,1031,1051,1069],"ymouse":[624,624,624,624,624,624,624,624,624,624,624,624,624,624,624,623,622,621,620,617,615,605,599,591,573,510,461,431,404,381,321,286,261,244,223,196,162,143,132,124,117,108,104,98,94,89,82,80,80,80,80],"timestamp_mouse":[11,41,49,69,88,109,128,149,169,188,209,230,250,268,289,308,328,350,369,389,409,430,450,470,489,510,529,549,570,588,610,628,649,668,688,709,729,749,770,789,810,828,849,869,888,909,928,949,970,989,1010],"xSR":741.5,"ySR":573.95,"xT1":424.9,"yT1":0,"xT2":1058.1,"yT2":0,"toosoon":0,"cond_shown":"Incongruent","ratio_trial":100,"L_num":9,"L_den":10,"R_num":20,"R_den":25,"correct_side":1,"subjID":"marianacruzbernal35","gender":"1","school":"4","age":"10"},{"start_time":1552313429211,"click_time":1552313429899,"finger_time":1552313429478,"fix_duration":250,"trial":21,"RT":267,"MT":421,"sideResp":2,"stimulus":[],"xmouse":[800,804,808,815,816,819,821,821,821,819,816,810,807,805,805,805,806,822,829,839,851,869,875,880,883,886,889,895,905,922,972,999,1024,1049,1072],"ymouse":[641,637,633,627,625,622,618,616,614,612,609,597,578,548,494,418,279,219,203,188,173,154,146,142,140,134,127,120,112,104,95,93,93,93,93],"timestamp_mouse":[8,27,56,68,89,108,127,149,168,189,208,227,248,267,288,308,328,348,368,389,408,427,448,467,487,509,527,548,569,589,609,628,647,668,688],"xSR":741.5,"ySR":573.95,"xT1":424.9,"yT1":0,"xT2":1058.1,"yT2":0,"toosoon":0,"cond_shown":"Incongruent","ratio_trial":100,"L_num":2,"L_den":4,"R_num":6,"R_den":15,"correct_side":1,"subjID":"marianacruzbernal35","gender":"1","school":"4","age":"10"},{"start_time":1552313447431,"click_time":1552313448139,"finger_time":1552313447778,"fix_duration":250,"trial":22,"RT":347,"MT":361,"sideResp":2,"stimulus":[],"xmouse":[775,775,775,775,775,775,773,771,769,769,769,769,769,769,769,763,757,753,751,750,748,759,776,795,806,811,806,804,804,804,827,847,872,902,945,1084],"ymouse":[629,629,629,629,629,629,632,635,637,639,639,639,639,639,638,618,594,568,526,468,350,302,238,175,112,28,5,0,0,0,0,0,0,0,3,41],"timestamp_mouse":[12,35,48,67,87,108,129,148,169,187,208,229,248,269,289,308,329,347,368,387,408,428,449,469,488,508,528,548,568,588,608,628,648,668,688,707],"xSR":741.5,"ySR":573.95,"xT1":424.9,"yT1":0,"xT2":1058.1,"yT2":0,"toosoon":0,"cond_shown":"Congruent","ratio_trial":100,"L_num":2,"L_den":5,"R_num":6,"R_den":12,"correct_side":2,"subjID":"marianacruzbernal35","gender":"1","school":"4","age":"10"},{"start_time":1552313452474,"click_time":1552313455340,"finger_time":1552313452759,"fix_duration":1152.6574097968441,"trial":23,"RT":285,"MT":2581,"sideResp":2,"stimulus":[],"xmouse":[767,767,767,767,767,767,767,767,767,765,760,754,752,749,749,747,744,732,724,716,710,708,708,724,735,751,767,782,810,825,838,845,852,855,857,860,864,872,876,879,881,883,883,884,884,886,895,931,950,961,966,966,966,966,966,966,966,966,966,966,966,966,966,964,961,958,958,954,953,953,950,947,931,911,897,882,860,837,799,790,789,789,793,804,804,800,793,787,776,768,753,737,716,658,641,632,632,632,646,654,662,673,682,717,730,738,741,742,742,742,742,742,742,742,742,742,742,742,742,742,742,742,742,742,742,742,742,742,742,742,742,742,742,742,742,753,761,784,861,904,952,995,1076,1108],"ymouse":[620,620,620,620,620,620,620,620,619,613,604,595,590,576,569,561,551,522,506,488,473,460,446,410,392,366,341,315,273,253,235,220,200,192,187,179,172,153,144,135,129,126,125,125,125,125,125,126,128,130,131,131,131,131,131,131,131,131,131,131,132,132,133,138,143,146,149,154,155,156,160,165,187,213,234,258,291,328,410,453,502,559,629,748,777,799,816,826,833,834,834,831,822,793,781,772,767,761,743,732,720,705,689,646,633,627,624,624,624,624,624,624,624,624,624,624,624,624,624,624,624,624,624,624,624,624,624,624,624,624,624,624,624,624,624,616,609,592,491,426,358,283,110,25],"timestamp_mouse":[11,31,44,66,84,104,124,146,165,184,204,225,245,266,285,305,325,345,364,384,404,424,444,465,486,505,525,545,565,585,606,625,646,664,684,705,725,746,765,785,804,826,845,864,884,904,924,946,964,985,1006,1025,1045,1066,1085,1104,1125,1145,1165,1186,1205,1226,1245,1265,1286,1306,1326,1346,1365,1384,1405,1424,1445,1465,1486,1506,1525,1545,1565,1584,1604,1626,1645,1666,1685,1705,1725,1745,1765,1785,1805,1824,1845,1865,1885,1906,1925,1945,1966,1984,2004,2025,2045,2065,2085,2105,2125,2145,2165,2184,2205,2225,2246,2265,2285,2305,2324,2346,2366,2385,2404,2426,2445,2464,2486,2504,2525,2544,2564,2586,2605,2625,2646,2664,2686,2705,2726,2745,2765,2786,2805,2824,2846,2866],"xSR":741.5,"ySR":573.95,"xT1":424.9,"yT1":0,"xT2":1058.1,"yT2":0,"toosoon":0,"cond_shown":"Congruent","ratio_trial":100,"L_num":11,"L_den":22,"R_num":4,"R_den":10,"correct_side":1,"subjID":"marianacruzbernal35","gender":"1","school":"4","age":"10"},{"start_time":1552313464730,"click_time":1552313467579,"finger_time":1552313467339,"fix_duration":250,"trial":24,"RT":2609,"MT":240,"sideResp":1,"stimulus":[],"xmouse":[816,816,816,816,816,816,816,816,816,816,817,817,817,817,817,817,817,817,817,817,817,817,817,817,819,820,820,820,820,820,820,820,820,820,820,820,820,819,818,817,813,812,812,812,812,812,812,812,812,812,812,812,812,812,812,812,812,812,812,813,815,815,815,815,815,815,815,815,815,815,815,814,814,814,814,814,814,814,814,814,814,814,814,814,814,814,814,814,814,814,814,814,813,814,815,817,817,818,818,818,818,818,818,818,818,818,818,818,818,818,819,819,819,819,819,819,819,819,819,819,819,819,819,819,819,820,820,820,820,818,794,765,731,692,623,595,573,554,538,529,516,512,506],"ymouse":[626,627,627,627,627,627,627,627,627,627,627,627,627,627,627,627,627,627,627,627,627,627,627,627,625,622,622,622,622,622,622,622,622,622,622,622,623,625,627,630,636,637,637,637,637,637,637,637,637,637,637,637,637,637,637,637,637,637,637,637,634,634,634,634,634,634,633,633,633,633,633,633,633,633,633,633,633,633,633,633,633,633,633,633,633,633,633,633,633,633,633,633,631,629,628,626,625,624,624,624,624,624,624,624,624,624,624,624,624,624,624,624,624,624,624,624,624,624,624,624,624,624,624,624,624,623,623,622,619,611,554,481,403,312,155,88,39,0,0,0,0,0,1],"timestamp_mouse":[13,28,54,70,90,108,128,148,170,190,209,229,250,269,290,310,328,349,369,390,409,428,448,469,488,508,528,550,570,589,608,629,649,670,690,708,728,749,770,789,809,830,849,869,888,909,930,950,970,988,1008,1029,1050,1068,1088,1109,1130,1150,1168,1189,1209,1228,1249,1269,1288,1310,1330,1348,1368,1389,1410,1429,1448,1469,1490,1510,1530,1549,1568,1589,1609,1630,1650,1669,1688,1708,1729,1749,1769,1790,1809,1830,1849,1868,1890,1910,1929,1948,1969,1988,2008,2029,2050,2069,2089,2109,2129,2150,2169,2190,2209,2229,2249,2269,2290,2308,2328,2350,2368,2388,2409,2428,2449,2470,2489,2508,2529,2549,2570,2590,2609,2628,2648,2668,2690,2708,2728,2749,2770,2790,2810,2828,2848],"xSR":741.5,"ySR":573.95,"xT1":424.9,"yT1":0,"xT2":1058.1,"yT2":0,"toosoon":0,"cond_shown":"Incongruent","ratio_trial":100,"L_num":10,"L_den":25,"R_num":8,"R_den":16,"correct_side":2,"subjID":"marianacruzbernal35","gender":"1","school":"4","age":"10"},{"start_time":1552313471239,"click_time":1552313472221,"finger_time":1552313471640,"fix_duration":1200.2811046165477,"trial":25,"RT":401,"MT":581,"sideResp":2,"stimulus":[],"xmouse":[806,806,806,806,806,806,806,806,806,806,806,806,806,806,806,806,808,813,825,862,896,935,971,1003,1033,1033,1033,1033,1036,1049,1053,1056,1056,1056,1056,1056,1056,1056,1056,1056,1056,1056,1056,1056,1056,1056,1056,1058,1077],"ymouse":[618,618,618,618,618,618,618,618,618,618,618,618,618,618,618,618,618,614,603,553,487,396,307,229,81,32,10,0,0,0,0,0,0,0,0,0,0,0,0,0,0,0,0,0,0,0,0,0,5],"timestamp_mouse":[20,39,59,81,101,121,139,160,180,200,220,239,259,280,300,320,340,361,380,401,420,440,459,480,501,520,540,560,581,600,620,640,660,681,701,721,741,760,780,800,821,841,860,881,900,920,940,960,981],"xSR":741.5,"ySR":573.95,"xT1":424.9,"yT1":0,"xT2":1058.1,"yT2":0,"toosoon":0,"cond_shown":"Incongruent","ratio_trial":200,"L_num":7,"L_den":15,"R_num":6,"R_den":9,"correct_side":2,"subjID":"marianacruzbernal35","gender":"1","school":"4","age":"10"},{"start_time":1552313475608,"click_time":1552313480779,"finger_time":1552313480098,"fix_duration":488.08079968917696,"trial":26,"RT":4490,"MT":681,"sideResp":2,"stimulus":[],"xmouse":[806,806,806,806,806,806,806,806,806,806,806,806,806,806,807,807,808,808,808,808,808,809,810,810,811,811,811,811,812,812,813,814,814,814,814,814,814,814,814,814,814,815,815,815,815,815,815,815,815,815,815,815,815,815,815,815,815,815,816,816,816,816,816,818,818,818,818,818,819,819,819,819,819,819,819,819,819,819,819,819,819,819,819,819,819,819,819,819,819,819,819,819,819,819,819,819,819,819,819,819,819,819,819,819,819,819,819,819,819,819,819,819,819,819,819,819,819,819,819,819,820,820,820,820,820,820,820,820,820,820,820,820,820,820,820,820,820,820,820,820,820,820,820,820,820,820,820,820,820,820,820,820,820,820,820,820,820,820,820,820,820,820,820,820,820,820,820,820,820,820,820,820,820,820,820,820,820,820,820,820,820,820,820,820,820,820,820,820,820,820,820,820,820,820,820,820,820,820,820,820,820,820,820,820,820,820,820,820,820,820,821,821,823,823,824,824,824,825,826,826,826,826,825,824,824,824,824,824,825,827,829,832,835,837,842,848,880,897,915,937,982,1007,1040,1081,1124,1160,1217,1223,1224,1223,1201,1185,1170,1163,1161,1161,1160,1158,1155],"ymouse":[623,623,623,623,623,623,623,623,623,623,623,623,623,623,623,623,623,623,623,623,623,624,624,624,624,624,624,624,625,625,625,625,625,625,625,625,625,625,625,625,625,625,625,625,625,625,625,625,625,625,625,625,625,625,625,625,625,625,625,625,625,625,625,626,626,626,626,627,627,627,627,627,627,627,627,627,627,627,627,627,627,627,627,627,627,627,627,627,627,627,627,627,627,627,627,627,627,627,627,627,627,627,627,627,627,627,627,627,627,627,627,627,627,627,628,628,628,628,628,628,628,628,628,628,628,628,628,628,628,628,628,628,628,628,628,628,628,628,628,628,628,628,628,628,628,628,628,628,628,628,628,628,628,628,628,628,628,628,628,628,628,628,628,628,628,628,628,628,628,628,628,628,628,628,628,628,628,628,628,628,628,628,628,628,628,628,628,628,628,628,628,628,628,629,629,629,629,629,629,629,629,629,629,629,629,629,629,629,629,629,629,629,627,626,623,620,609,606,602,598,591,582,578,574,571,568,568,568,567,565,563,560,557,554,542,527,480,458,438,414,361,331,296,260,221,181,57,30,10,0,0,0,0,0,0,0,0,0,1],"timestamp_mouse":[13,33,51,71,90,112,131,152,171,191,211,230,252,271,290,312,331,350,371,390,412,432,452,472,490,512,532,552,570,592,612,630,650,670,692,710,730,750,771,791,812,831,850,871,890,912,931,950,972,990,1012,1032,1051,1071,1090,1110,1131,1151,1172,1192,1212,1230,1252,1272,1292,1310,1331,1351,1371,1391,1410,1431,1451,1472,1492,1511,1530,1552,1571,1590,1611,1631,1650,1670,1692,1712,1731,1750,1772,1791,1812,1831,1851,1871,1892,1912,1931,1951,1970,1992,2012,2031,2051,2070,2091,2110,2130,2151,2172,2192,2210,2230,2250,2272,2291,2310,2331,2352,2371,2390,2411,2432,2451,2470,2490,2511,2531,2551,2571,2592,2612,2631,2652,2671,2691,2711,2730,2751,2772,2792,2812,2832,2851,2872,2890,2910,2930,2951,2971,2990,3010,3031,3052,3071,3091,3112,3130,3152,3171,3190,3212,3232,3250,3271,3291,3312,3331,3351,3371,3390,3412,3431,3451,3471,3491,3511,3530,3551,3571,3592,3611,3630,3651,3672,3692,3712,3732,3753,3772,3791,3812,3831,3851,3871,3890,3911,3931,3951,3970,3992,4012,4031,4052,4072,4091,4112,4130,4152,4171,4190,4211,4232,4251,4272,4291,4310,4332,4351,4371,4391,4411,4431,4450,4471,4490,4511,4531,4550,4571,4591,4612,4632,4651,4670,4691,4711,4730,4751,4772,4791,4812,4831,4852,4872,4891,4911,4931,4951,4971,4992,5012,5031,5052,5072,5091,5110,5131,5151,5171],"xSR":741.5,"ySR":573.95,"xT1":424.9,"yT1":0,"xT2":1058.1,"yT2":0,"toosoon":0,"cond_shown":"Incongruent","ratio_trial":300,"L_num":13,"L_den":26,"R_num":12,"R_den":15,"correct_side":2,"subjID":"marianacruzbernal35","gender":"1","school":"4","age":"10"},{"start_time":1552313499259,"click_time":1552313520620,"finger_time":1552313505639,"fix_duration":978.8804384467649,"trial":27,"RT":6380,"MT":14981,"sideResp":2,"stimulus":[],"xmouse":[831,831,831,831,831,831,831,831,831,831,831,831,831,831,831,831,831,831,831,831,831,831,831,831,831,831,831,831,831,831,831,831,831,831,831,831,831,831,831,831,831,831,831,831,831,831,831,831,831,831,831,831,831,831,831,831,831,831,831,831,831,831,831,831,831,831,831,831,831,832,832,833,833,833,833,833,833,833,833,833,831,824,820,820,820,820,820,820,820,820,820,820,820,820,820,820,820,820,820,820,820,820,820,820,820,820,820,820,820,820,820,820,820,820,820,820,820,820,820,820,820,820,820,820,820,820,820,820,819,819,819,819,819,819,819,819,819,819,819,819,819,819,819,819,819,819,819,819,819,819,819,819,819,819,819,819,819,819,819,819,819,819,819,819,819,819,819,819,819,818,818,818,817,817,816,816,815,815,813,813,813,813,813,813,813,813,813,813,813,813,813,813,813,813,813,812,812,811,811,810,809,808,808,808,808,808,808,808,809,811,812,813,814,814,814,814,814,812,811,811,811,811,811,811,811,810,810,810,810,810,810,810,810,810,810,810,810,810,810,810,810,810,810,810,810,810,810,810,810,810,810,810,810,810,810,810,810,810,810,810,808,808,805,804,801,801,801,801,801,801,801,801,801,801,801,801,801,801,801,798,797,795,794,793,793,793,793,793,793,793,791,790,786,776,771,767,765,764,764,764,764,764,764,764,763,763,763,762,761,761,761,761,761,761,761,761,761,761,761,761,761,761,761,761,761,761,761,761,761,761,761,761,761,761,761,761,761,761,761,761,761,761,761,761,761,761,761,762,762,762,762,762,763,763,765,765,766,766,766,767,767,767,767,767,767,767,767,766,763,761,761,761,761,761,761,761,761,761,761,761,761,760,760,759,758,758,758,758,758,758,758,757,757,755,754,754,754,754,754,754,754,754,754,754,754,754,754,754,754,754,754,754,754,754,754,754,754,754,754,754,754,754,754,754,754,754,753,753,752,751,750,750,748,747,747,746,746,746,746,746,746,746,746,751,764,765,766,766,766,766,766,766,766,766,766,766,766,766,766,766,766,766,766,766,766,766,766,766,766,766,766,766,766,766,766,766,766,766,766,766,766,766,766,766,766,766,766,766,766,766,766,766,766,766,766,766,766,766,766,766,766,766,766,766,766,766,765,764,761,760,760,760,760,760,760,760,760,760,760,760,760,760,760,760,760,760,760,760,760,760,760,760,760,760,760,760,760,760,760,760,760,760,760,760,760,760,760,760,760,760,760,760,760,760,760,760,760,760,760,760,760,760,760,760,760,759,758,758,757,757,756,755,755,755,755,755,755,754,754,754,754,753,753,752,752,752,752,752,752,752,752,752,752,752,752,752,752,752,752,752,752,752,752,752,752,752,752,752,752,752,752,752,752,752,752,752,752,752,752,752,752,752,752,752,752,751,751,751,750,750,750,750,750,749,749,749,749,749,749,749,749,749,749,749,749,749,749,749,749,749,749,749,749,749,749,749,749,749,749,749,749,749,749,749,749,749,749,749,744,730,720,710,699,689,677,676,676,676,676,676,676,676,676,676,674,674,673,671,666,628,595,565,536,516,485,482,482,482,482,482,482,482,482,482,482,482,482,482,482,482,483,485,486,488,489,489,489,489,489,489,489,489,489,489,489,489,489,489,489,489,489,490,491,493,496,498,499,499,499,499,499,501,502,503,503,503,503,503,503,503,503,503,503,503,504,504,504,504,504,504,504,504,504,504,505,506,508,510,512,512,512,513,513,513,513,513,513,513,513,513,513,513,513,513,513,513,514,515,515,515,515,515,515,515,515,515,515,515,514,510,509,507,507,507,507,507,507,508,509,511,511,511,512,513,517,517,517,517,517,517,517,517,517,517,517,517,517,517,517,517,517,517,517,517,517,517,517,517,517,517,517,517,517,517,517,518,519,519,519,519,519,519,519,519,519,519,519,519,519,519,519,519,519,519,519,519,519,519,519,519,519,519,519,519,519,519,519,519,519,519,519,519,519,519,519,519,519,519,519,519,519,519,519,519,519,519,519,519,519,519,519,519,519,519,519,519,519,519,519,519,519,519,519,519,519,519,518,518,517,517,517,517,517,517,517,517,517,517,517,517,517,517,517,517,517,517,517,517,517,516,516,516,515,515,515,515,515,515,517,518,521,531,550,614,824,887,915,920,920,908,898,885,875,870,866,861,855,851,844,843,842,842,841,833,825,785,755,743,741,741,741,741,741,738,738,738,740,741,741,743,744,746,748,758,789,808,821,823,823,818,816,815,815,815,815,816,816,815,810,804,803,803,803,803,804,804,804,804,804,804,804,804,804,804,804,804,804,804,804,804,804,804,804,804,804,804,805,807,811,812,812,821,838,903,939,996,1028,1053,1101,1121,1137,1151,1158,1163,1167,1169,1173,1175,1175,1174,1174,1174,1174,1174,1173,1169,1165,1160,1147],"ymouse":[642,642,642,642,642,642,642,642,642,642,642,642,642,642,642,642,642,642,642,642,642,642,642,642,642,642,642,642,642,642,644,645,645,645,645,645,645,645,645,645,645,645,645,645,645,645,645,645,645,645,645,645,645,645,645,645,645,645,645,645,645,645,645,645,645,645,645,645,645,644,644,643,643,643,643,643,643,641,639,637,634,623,619,619,619,619,619,619,620,620,620,620,620,620,620,620,620,620,620,620,620,620,620,620,620,620,620,620,620,620,620,620,620,620,620,620,620,620,620,620,620,620,620,620,620,620,620,620,620,620,620,620,620,620,620,620,620,620,620,620,620,620,620,620,620,620,620,620,617,616,614,613,612,611,607,606,606,606,606,606,606,606,606,606,606,606,606,606,607,607,607,607,607,607,607,607,607,607,607,608,608,608,608,608,608,608,608,608,608,608,608,608,608,608,608,608,608,609,610,614,616,619,622,625,628,628,628,628,627,622,620,618,616,616,616,615,615,615,615,615,615,615,615,615,615,615,615,615,615,615,615,615,615,615,615,615,615,615,615,615,615,615,615,615,615,615,616,616,616,616,616,616,616,616,616,616,616,616,616,616,617,618,621,623,626,626,626,626,626,626,626,626,626,626,626,626,626,626,626,630,631,634,635,636,636,636,636,636,636,636,638,640,643,655,660,665,667,668,668,668,668,668,668,668,669,670,671,672,673,673,673,673,673,673,673,673,673,673,673,674,674,674,674,674,674,674,674,674,674,674