[{"start_time":1552069084184,"click_time":1552069097988,"finger_time":1552069084195,"fix_duration":1372.8440270785552,"trial":0,"RT":11,"MT":13793,"sideResp":1,"stimulus":[],"xmouse":[777,777,777,777,777,777,777,777,777,777,777,777,777,777,777,777,777,777,777,777,777,777,777,777,777,777,777,777,777,777,777,777,777,777,777,777,777,777,777,777,777,777,777,777,777,777,777,777,777,777,777,777,777,777,777,777,777,777,777,779,786,792,802,808,818,823,827,830,835,843,875,899,926,953,978,1048,1082,1121,1157,1181,1194,1195,1195,1195,1195,1196,1197,1197,1197,1197,1197,1197,1197,1197,1197,1197,1197,1197,1197,1197,1197,1197,1197,1197,1197,1197,1197,1197,1197,1197,1197,1197,1197,1197,1197,1197,1197,1197,1197,1197,1203,1207,1211,1212,1212,1212,1212,1212,1212,1212,1212,1212,1212,1212,1212,1212,1212,1214,1218,1227,1229,1228,1217,1206,1204,1204,1204,1203,1195,1179,1159,1100,1058,1037,1019,985,968,954,942,937,934,934,932,930,925,916,897,886,878,869,863,853,847,841,834,819,798,790,785,781,776,770,769,769,769,769,769,769,769,769,769,769,768,768,770,774,777,777,777,777,777,777,777,777,777,777,777,777,777,777,777,777,777,777,777,777,777,777,777,777,777,777,777,777,777,777,777,777,777,777,777,777,777,777,777,777,777,777,777,777,777,777,777,777,777,777,777,777,777,777,777,777,777,777,777,777,777,777,777,777,777,777,777,777,777,777,777,777,777,777,777,777,777,777,777,777,777,777,777,777,777,777,777,777,777,777,777,777,777,777,777,777,777,777,777,777,777,777,777,779,781,781,782,782,782,782,782,782,782,782,782,782,782,782,782,782,782,782,782,782,782,782,782,782,782,782,782,782,782,782,782,782,782,782,782,782,782,782,782,782,782,782,782,782,782,782,782,782,782,783,784,785,785,786,787,787,787,787,787,787,787,787,787,787,787,787,787,787,787,787,787,787,787,787,787,787,787,787,789,791,793,795,798,798,800,801,803,803,803,802,801,801,801,801,801,801,799,798,797,797,797,797,797,797,797,798,799,799,799,799,800,800,800,801,803,804,808,809,810,810,810,810,810,812,814,817,827,827,828,828,828,828,828,828,828,828,828,826,823,821,820,820,820,820,820,820,820,820,818,817,815,815,815,815,815,815,815,815,815,815,816,816,816,816,816,816,816,816,816,817,824,837,856,885,923,999,1131,1205,1271,1328,1363,1436,1468,1489,1503,1508,1509,1510,1510,1513,1520,1530,1531,1532,1533,1534,1535,1535,1535,1535,1535,1535,1535,1535,1535,1534,1528,1523,1517,1511,1507,1500,1495,1492,1487,1458,1445,1433,1426,1422,1420,1419,1415,1407,1398,1390,1379,1374,1365,1357,1333,1317,1305,1291,1283,1275,1272,1269,1261,1246,1227,1152,1111,1070,1034,977,961,950,946,943,939,937,935,933,932,931,933,939,945,949,950,950,950,951,951,936,933,933,933,933,933,935,935,935,936,936,936,936,936,936,933,931,928,927,925,921,890,864,839,811,785,758,753,748,745,742,740,740,740,740,740,735,722,698,674,635,634,634,634,634,648,657,662,666,668,671,678,684,691,702,717,746,759,776,784,793,796,797,798,801,806,813,815,817,817,817,817,817,817,817,817,813,803,778,774,771,770,770,770,770,770,770,770,770,770,770,770,770,770,770,770,774,778,785,786,786,786,786,786,786,786,784,782,780,780,773,768,761,747,724,701,660,644,631,627,623,619,607,587,562,504],"ymouse":[573,573,573,573,573,573,573,573,573,573,573,573,573,573,573,573,573,573,573,573,573,573,573,573,573,573,573,573,573,573,573,573,573,573,573,573,573,573,573,573,573,573,573,573,573,573,573,573,573,573,573,573,573,573,573,573,573,573,573,573,577,579,583,584,587,588,588,588,588,586,586,586,586,591,595,605,612,618,623,630,632,632,632,632,632,632,629,629,629,629,629,629,629,629,629,629,629,629,629,629,629,629,629,629,629,629,629,629,629,629,629,629,629,629,629,629,629,629,629,629,630,638,646,647,647,647,647,647,647,647,647,647,647,647,647,647,647,647,646,643,642,641,641,643,643,643,643,643,643,650,657,668,671,671,665,649,639,631,625,624,622,622,622,622,622,625,626,626,626,626,626,625,623,620,617,608,598,593,591,590,587,585,585,585,585,585,585,585,585,585,585,585,586,589,597,606,611,611,611,611,611,611,611,611,611,611,611,611,611,611,611,611,611,611,611,611,611,611,611,611,611,611,611,611,611,611,611,611,611,611,611,611,611,611,611,611,611,611,611,611,611,611,611,611,611,611,611,611,611,611,611,611,611,611,611,611,611,611,611,611,611,611,611,611,611,611,611,611,611,611,611,611,611,611,611,611,611,611,611,611,611,611,611,611,611,611,611,611,611,611,611,611,611,611,611,611,611,611,611,612,612,611,610,610,610,610,610,610,610,610,610,610,610,610,610,610,610,610,610,610,610,610,610,610,610,610,610,610,610,610,610,610,610,610,610,610,610,610,610,610,610,610,610,610,610,610,610,610,610,608,606,603,602,600,598,598,598,598,598,598,598,598,598,598,598,598,598,598,598,598,598,598,598,598,598,596,595,593,589,585,580,575,572,570,568,567,566,565,565,563,563,563,563,563,563,563,566,567,567,567,567,567,567,567,568,568,568,568,568,568,568,570,573,578,586,592,605,609,612,614,616,623,627,632,635,639,645,645,645,645,645,645,645,645,645,645,645,645,645,645,644,644,644,644,644,644,644,644,644,644,643,643,643,642,640,640,640,640,640,639,639,639,639,639,639,639,639,639,639,639,637,637,637,637,633,620,572,534,498,471,458,407,368,330,299,287,282,280,277,271,254,218,200,195,187,183,183,183,183,183,183,183,183,183,183,183,183,184,184,183,182,175,170,167,162,150,146,143,142,142,142,142,144,153,166,176,196,205,221,237,279,300,317,332,341,346,346,346,346,346,341,309,280,253,212,120,101,90,86,85,84,84,84,86,89,99,112,124,131,132,133,133,133,134,136,163,175,181,185,189,191,192,193,193,193,194,195,196,197,199,207,214,223,229,241,257,332,391,453,517,577,651,673,695,710,724,729,729,729,729,729,731,732,732,732,732,732,732,732,732,731,731,731,731,731,731,728,724,718,708,697,677,670,658,653,647,645,643,640,634,623,608,602,599,597,596,596,596,596,596,596,603,620,665,672,678,679,679,679,679,679,679,679,679,679,679,679,679,679,679,679,654,627,560,510,407,358,308,270,229,196,143,126,98,78,51,46,45,51,69,87,115,121,124,124,124,121,114,101,83,42],"timestamp_mouse":[10,23,43,63,83,103,122,142,162,183,203,222,242,262,283,303,323,343,363,383,403,422,443,463,482,503,522,543,563,583,603,622,643,662,684,703,723,743,763,783,803,823,843,863,884,903,923,942,963,983,1004,1022,1043,1062,1082,1103,1123,1143,1163,1183,1203,1222,1242,1262,1282,1302,1322,1342,1363,1382,1403,1422,1442,1462,1484,1503,1522,1542,1563,1582,1602,1622,1643,1663,1683,1703,1722,1742,1762,1782,1802,1822,1842,1862,1882,1902,1922,1942,1962,1982,2003,2022,2042,2062,2082,2102,2122,2142,2163,2183,2202,2222,2243,2262,2282,2303,2322,2343,2362,2383,2403,2422,2442,2462,2482,2502,2523,2543,2563,2582,2603,2622,2643,2663,2683,2703,2723,2742,2763,2782,2803,2822,2842,2862,2882,2903,2922,2942,2963,2982,3002,3022,3042,3062,3082,3103,3122,3142,3162,3183,3203,3222,3243,3262,3282,3302,3323,3342,3362,3383,3402,3423,3443,3462,3483,3502,3523,3542,3562,3582,3602,3622,3643,3662,3683,3702,3722,3742,3763,3783,3802,3823,3843,3862,3883,3902,3922,3943,3963,3983,4002,4023,4042,4062,4083,4103,4122,4143,4163,4182,4202,4222,4242,4262,4282,4303,4322,4343,4363,4382,4402,4423,4443,4463,4482,4503,4522,4544,4563,4582,4603,4623,4643,4664,4683,4703,4722,4743,4763,4783,4803,4823,4843,4862,4883,4903,4922,4942,4963,4982,5002,5023,5042,5062,5082,5102,5123,5142,5162,5182,5203,5222,5242,5263,5282,5302,5322,5342,5363,5383,5402,5423,5442,5463,5482,5502,5522,5542,5562,5583,5603,5623,5642,5662,5683,5703,5723,5743,5762,5783,5802,5823,5843,5863,5882,5902,5923,5943,5963,5982,6003,6023,6042,6063,6082,6102,6122,6143,6162,6182,6202,6223,6243,6263,6282,6303,6323,6343,6363,6382,6402,6423,6442,6462,6483,6502,6523,6542,6562,6582,6603,6623,6643,6663,6682,6703,6722,6742,6763,6783,6802,6823,6843,6863,6882,6903,6922,6942,6962,6982,7002,7022,7043,7063,7083,7103,7123,7142,7163,7183,7203,7222,7242,7263,7283,7302,7322,7342,7363,7382,7403,7422,7442,7462,7483,7503,7523,7543,7562,7583,7602,7622,7642,7664,7683,7703,7723,7742,7763,7782,7803,7822,7843,7863,7882,7902,7922,7942,7962,7983,8003,8022,8043,8062,8084,8103,8123,8142,8163,8182,8202,8222,8242,8263,8283,8302,8323,8342,8362,8383,8403,8422,8442,8462,8482,8502,8523,8543,8562,8583,8602,8622,8643,8662,8683,8702,8722,8743,8763,8782,8804,8822,8842,8863,8883,8902,8923,8942,8962,8982,9003,9023,9043,9062,9082,9102,9122,9143,9163,9182,9203,9223,9243,9262,9282,9303,9323,9343,9364,9382,9403,9422,9442,9462,9482,9503,9523,9543,9562,9582,9603,9622,9643,9662,9682,9702,9723,9742,9763,9782,9802,9822,9843,9862,9883,9903,9922,9942,9963,9982,10002,10022,10042,10063,10083,10103,10123,10143,10162,10182,10202,10223,10242,10262,10283,10303,10322,10342,10362,10383,10403,10422,10442,10462,10483,10502,10523,10542,10563,10583,10603,10622,10643,10663,10682,10702,10723,10742,10762,10782,10803,10822,10842,10863,10882,10902,10922,10942,10963,10982,11003,11022,11043,11062,11082,11102,11122,11142,11162,11183,11203,11223,11242,11262,11284,11302,11322,11342,11362,11382,11402,11423,11443,11462,11482,11503,11522,11542,11562,11582,11603,11622,11642,11662,11682,11702,11722,11742,11762,11782,11802,11822,11842,11863,11882,11903,11922,11943,11963,11982,12002,12022,12042,12062,12083,12103,12122,12143,12162,12183,12202,12222,12242,12263,12282,12302,12322,12342,12363,12382,12402,12422,12442,12462,12483,12502,12522,12542,12562,12583,12602,12622,12643,12662,12683,12703,12723,12743,12764,12782,12803,12822,12843,12863,12882,12902,12923,12942,12963,12982,13002,13023,13043,13062,13082,13102,13122,13142,13163,13182,13203,13222,13242,13262,13283,13302,13322,13342,13362,13382,13402,13423,13443,13462,13483,13503,13522,13543,13562,13582,13602,13623,13642,13662,13683,13703,13722,13743,13763,13782,13803],"xSR":733.5,"ySR":495.95,"xT1":420.09999999999997,"yT1":0,"xT2":1046.8999999999999,"yT2":0,"toosoon":0,"cond_shown":"Congruent","ratio_trial":100,"L_num":6,"L_den":20,"R_num":5,"R_den":25,"correct_side":1,"subjID":"marianaolarte27","gender":"1","age":"9","school":"4","test":{"fix_dur":[250,1500],"timestim":1000,"targets_dim":[100,100],"targets_relative_coord":[0.3,0.7],"size_stim":[880,420],"start_dim":[100,100],"size_start":[300,300],"size_fix":60,"samplingrate":20,"img_types":["Congruent","Incongruent"],"ratios":[100,200,300],"rep_conds":19,"nTrials":120,"trials_to_rest":500,"Trials_order":[18,27,72,29,47,23,97,5,76,62,38,31,9,115,40,100,71,112,110,82,81,93,44,91,33,48,109,114,96,61,108,32,53,117,36,107,83,15,74,77,16,3,39,87,1,8,12,85,90,60,19,92,45,56,35,66,58,21,14,79,22,43,34,24,111,86,20,73,98,106,11,30,10,6,54,17,84,0,119,26,75,13,69,80,116,42,7,101,51,59,57,78,63,50,52,102,67,28,95,46,55,113,37,64,94,65,41,89,25,4,103,70,105,49,88,68,99,2,118,104],"cond_shown":["Congruent","Incongruent","Congruent","Incongruent","Incongruent","Incongruent","Incongruent","Incongruent","Congruent","Congruent","Congruent","Incongruent","Incongruent","Incongruent","Congruent","Congruent","Incongruent","Congruent","Congruent","Congruent","Incongruent","Incongruent","Congruent","Incongruent","Incongruent","Congruent","Incongruent","Congruent","Congruent","Incongruent","Congruent","Congruent","Incongruent","Incongruent","Congruent","Incongruent","Incongruent","Incongruent","Congruent","Incongruent","Congruent","Incongruent","Incongruent","Incongruent","Incongruent","Congruent","Congruent","Incongruent","Congruent","Congruent","Incongruent","Congruent","Incongruent","Congruent","Incongruent","Congruent","Congruent","Incongruent","Congruent","Incongruent","Congruent","Incongruent","Congruent","Congruent","Incongruent","Congruent","Congruent","Incongruent","Congruent","Congruent","Incongruent","Congruent","Congruent","Congruent","Congruent","Incongruent","Congruent","Congruent","Incongruent","Congruent","Incongruent","Incongruent","Incongruent","Congruent","Congruent","Congruent","Incongruent","Incongruent","Incongruent","Incongruent","Incongruent","Congruent","Incongruent","Congruent","Congruent","Congruent","Incongruent","Congruent","Incongruent","Congruent","Incongruent","Incongruent","Incongruent","Congruent","Congruent","Incongruent","Incongruent","Incongruent","Incongruent","Congruent","Incongruent","Congruent","Incongruent","Incongruent","Congruent","Congruent","Incongruent","Congruent","Congruent","Congruent"],"ratio_trial":[100,200,100,300,300,300,100,300,300,200,200,100,200,100,300,300,300,300,200,300,200,200,200,100,200,100,100,100,100,100,100,200,300,200,100,300,300,200,200,300,300,200,200,200,100,200,100,100,100,100,100,200,200,200,300,100,300,200,200,100,300,100,300,100,200,200,200,100,200,300,300,100,300,100,100,300,100,100,300,200,200,100,200,200,200,100,100,300,200,300,200,100,200,200,300,100,100,300,300,300,100,300,100,300,300,300,300,300,100,300,100,300,200,100,300,200,200,200,300,200],"left_num":[6,7,7,7,1,13,6,4,1,9,9,6,1,2,24,20,13,3,1,4,7,4,7,9,14,4,4,11,11,12,7,3,13,14,6,4,8,1,6,8,3,7,11,6,1,6,15,3,1,15,9,16,7,8,13,1,1,14,3,4,1,12,24,6,4,8,7,3,5,4,8,4,4,4,15,4,10,3,4,4,7,3,1,14,6,3,10,4,1,1,9,10,3,7,11,7,6,5,8,1,4,4,4,5,2,13,3,7,6,1,17,20,7,10,1,6,4,16,3,9],"right_num":[5,14,9,8,3,12,3,2,7,13,13,11,3,8,8,5,12,11,21,13,14,14,18,13,6,15,8,4,6,2,9,14,12,12,5,2,9,2,11,14,4,4,3,3,8,3,13,7,3,13,13,12,8,2,12,3,11,12,9,8,19,2,8,5,14,7,18,4,14,1,14,15,13,15,13,2,3,2,8,3,14,8,2,6,3,2,9,2,2,3,8,3,1,18,4,15,7,6,14,19,8,2,8,6,12,12,4,8,7,3,10,5,8,9,19,11,1,12,11,13],"left_den":[20,10,14,10,2,26,12,20,20,30,30,10,2,4,30,25,26,12,2,20,10,6,15,15,30,10,8,22,22,30,14,10,26,30,20,20,10,3,20,10,6,15,20,20,2,15,25,9,2,25,15,20,10,15,26,2,5,30,12,8,3,30,30,20,6,15,15,6,10,10,10,10,20,10,25,20,25,6,5,10,10,5,3,28,15,6,25,20,3,2,15,25,10,15,22,14,10,25,10,3,8,20,8,25,10,26,6,10,10,5,30,25,10,25,3,20,30,20,12,30],"right_den":[25,28,15,20,15,15,5,4,20,26,26,22,10,20,16,10,15,20,30,26,28,30,27,26,9,30,20,10,15,4,15,28,15,18,25,4,18,15,22,28,5,6,4,6,20,15,26,30,5,26,26,20,16,6,15,5,22,18,20,20,30,4,16,25,30,21,27,10,20,10,28,30,26,30,26,4,10,5,16,15,28,16,15,20,15,5,18,4,15,15,10,10,2,27,20,25,14,12,28,30,20,4,20,12,24,15,20,20,14,6,15,10,16,18,30,22,3,20,20,26],"correct_side":[1,1,2,1,1,2,2,2,2,2,2,1,1,1,1,1,2,2,2,2,1,1,2,1,2,2,1,1,1,2,2,2,2,2,1,2,1,1,2,1,2,2,2,2,1,1,1,1,2,1,1,1,1,1,2,2,2,2,2,1,2,2,1,1,1,1,2,1,2,1,1,2,2,2,1,2,1,1,1,1,1,1,1,1,1,1,2,2,1,1,2,1,2,2,1,2,1,2,1,2,1,2,1,2,2,2,1,1,1,2,2,1,1,2,2,2,2,1,2,2],"img_shown":["img2/100/Congruent/L/C_Dist_100_LN_6_LD_20_RN_5_RD_25_0.png","img2/200/Incongruent/L/I_Dist_200_LN_7_LD_10_RN_14_RD_28_0.png","img2/100/Congruent/R/C_Dist_100_LN_7_LD_14_RN_9_RD_15_1.png","img2/300/Incongruent/L/I_Dist_300_LN_7_LD_10_RN_8_RD_20_0.png","img2/300/Incongruent/L/I_Dist_300_LN_1_LD_2_RN_3_RD_15_0.png","img2/300/Incongruent/R/I_Dist_300_LN_13_LD_26_RN_12_RD_15_1.png","img2/100/Incongruent/R/I_Dist_100_LN_6_LD_12_RN_3_RD_5_1.png","img2/300/Incongruent/R/I_Dist_300_LN_4_LD_20_RN_2_RD_4_1.png","img2/300/Congruent/R/C_Dist_300_LN_1_LD_20_RN_7_RD_20_1.png","img2/200/Congruent/R/C_Dist_200_LN_9_LD_30_RN_13_RD_26_1.png","img2/200/Congruent/R/C_Dist_200_LN_9_LD_30_RN_13_RD_26_1.png","img2/100/Incongruent/L/I_Dist_100_LN_6_LD_10_RN_11_RD_22_0.png","img2/200/Incongruent/L/I_Dist_200_LN_1_LD_2_RN_3_RD_10_0.png","img2/100/Incongruent/L/I_Dist_100_LN_2_LD_4_RN_8_RD_20_0.png","img2/300/Congruent/L/C_Dist_300_LN_24_LD_30_RN_8_RD_16_0.png","img2/300/Congruent/L/C_Dist_300_LN_20_LD_25_RN_5_RD_10_0.png","img2/300/Incongruent/R/I_Dist_300_LN_13_LD_26_RN_12_RD_15_1.png","img2/300/Congruent/R/C_Dist_300_LN_3_LD_12_RN_11_RD_20_1.png","img2/200/Congruent/R/C_Dist_200_LN_1_LD_2_RN_21_RD_30_1.png","img2/300/Congruent/R/C_Dist_300_LN_4_LD_20_RN_13_RD_26_1.png","img2/200/Incongruent/L/I_Dist_200_LN_7_LD_10_RN_14_RD_28_0.png","img2/200/Incongruent/L/I_Dist_200_LN_4_LD_6_RN_14_RD_30_0.png","img2/200/Congruent/R/C_Dist_200_LN_7_LD_15_RN_18_RD_27_1.png","img2/100/Incongruent/L/I_Dist_100_LN_9_LD_15_RN_13_RD_26_0.png","img2/200/Incongruent/R/I_Dist_200_LN_14_LD_30_RN_6_RD_9_1.png","img2/100/Congruent/R/C_Dist_100_LN_4_LD_10_RN_15_RD_30_1.png","img2/100/Incongruent/L/I_Dist_100_LN_4_LD_8_RN_8_RD_20_0.png","img2/100/Congruent/L/C_Dist_100_LN_11_LD_22_RN_4_RD_10_0.png","img2/100/Congruent/L/C_Dist_100_LN_11_LD_22_RN_6_RD_15_0.png","img2/100/Incongruent/R/I_Dist_100_LN_12_LD_30_RN_2_RD_4_1.png","img2/100/Congruent/R/C_Dist_100_LN_7_LD_14_RN_9_RD_15_1.png","img2/200/Congruent/R/C_Dist_200_LN_3_LD_10_RN_14_RD_28_1.png","img2/300/Incongruent/R/I_Dist_300_LN_13_LD_26_RN_12_RD_15_1.png","img2/200/Incongruent/R/I_Dist_200_LN_14_LD_30_RN_12_RD_18_1.png","img2/100/Congruent/L/C_Dist_100_LN_6_LD_20_RN_5_RD_25_0.png","img2/300/Incongruent/R/I_Dist_300_LN_4_LD_20_RN_2_RD_4_1.png","img2/300/Incongruent/L/I_Dist_300_LN_8_LD_10_RN_9_RD_18_0.png","img2/200/Incongruent/L/I_Dist_200_LN_1_LD_3_RN_2_RD_15_0.png","img2/200/Congruent/R/C_Dist_200_LN_6_LD_20_RN_11_RD_22_1.png","img2/300/Incongruent/L/I_Dist_300_LN_8_LD_10_RN_14_RD_28_0.png","img2/300/Congruent/R/C_Dist_300_LN_3_LD_6_RN_4_RD_5_1.png","img2/200/Incongruent/R/I_Dist_200_LN_7_LD_15_RN_4_RD_6_1.png","img2/200/Incongruent/R/I_Dist_200_LN_11_LD_20_RN_3_RD_4_1.png","img2/200/Incongruent/R/I_Dist_200_LN_6_LD_20_RN_3_RD_6_1.png","img2/100/Incongruent/L/I_Dist_100_LN_1_LD_2_RN_8_RD_20_0.png","img2/200/Congruent/L/C_Dist_200_LN_6_LD_15_RN_3_RD_15_0.png","img2/100/Congruent/L/C_Dist_100_LN_15_LD_25_RN_13_RD_26_0.png","img2/100/Incongruent/L/I_Dist_100_LN_3_LD_9_RN_7_RD_30_0.png","img2/100/Congruent/R/C_Dist_100_LN_1_LD_2_RN_3_RD_5_1.png","img2/100/Congruent/L/C_Dist_100_LN_15_LD_25_RN_13_RD_26_0.png","img2/100/Incongruent/L/I_Dist_100_LN_9_LD_15_RN_13_RD_26_0.png","img2/200/Congruent/L/C_Dist_200_LN_16_LD_20_RN_12_RD_20_0.png","img2/200/Incongruent/L/I_Dist_200_LN_7_LD_10_RN_8_RD_16_0.png","img2/200/Congruent/L/C_Dist_200_LN_8_LD_15_RN_2_RD_6_0.png","img2/300/Incongruent/R/I_Dist_300_LN_13_LD_26_RN_12_RD_15_1.png","img2/100/Congruent/R/C_Dist_100_LN_1_LD_2_RN_3_RD_5_1.png","img2/300/Congruent/R/C_Dist_300_LN_1_LD_5_RN_11_RD_22_1.png","img2/200/Incongruent/R/I_Dist_200_LN_14_LD_30_RN_12_RD_18_1.png","img2/200/Congruent/R/C_Dist_200_LN_3_LD_12_RN_9_RD_20_1.png","img2/100/Incongruent/L/I_Dist_100_LN_4_LD_8_RN_8_RD_20_0.png","img2/300/Congruent/R/C_Dist_300_LN_1_LD_3_RN_19_RD_30_1.png","img2/100/Incongruent/R/I_Dist_100_LN_12_LD_30_RN_2_RD_4_1.png","img2/300/Congruent/L/C_Dist_300_LN_24_LD_30_RN_8_RD_16_0.png","img2/100/Congruent/L/C_Dist_100_LN_6_LD_20_RN_5_RD_25_0.png","img2/200/Incongruent/L/I_Dist_200_LN_4_LD_6_RN_14_RD_30_0.png","img2/200/Congruent/L/C_Dist_200_LN_8_LD_15_RN_7_RD_21_0.png","img2/200/Congruent/R/C_Dist_200_LN_7_LD_15_RN_18_RD_27_1.png","img2/100/Incongruent/L/I_Dist_100_LN_3_LD_6_RN_4_RD_10_0.png","img2/200/Congruent/R/C_Dist_200_LN_5_LD_10_RN_14_RD_20_1.png","img2/300/Congruent/L/C_Dist_300_LN_4_LD_10_RN_1_RD_10_0.png","img2/300/Incongruent/L/I_Dist_300_LN_8_LD_10_RN_14_RD_28_0.png","img2/100/Congruent/R/C_Dist_100_LN_4_LD_10_RN_15_RD_30_1.png","img2/300/Congruent/R/C_Dist_300_LN_4_LD_20_RN_13_RD_26_1.png","img2/100/Congruent/R/C_Dist_100_LN_4_LD_10_RN_15_RD_30_1.png","img2/100/Congruent/L/C_Dist_100_LN_15_LD_25_RN_13_RD_26_0.png","img2/300/Incongruent/R/I_Dist_300_LN_4_LD_20_RN_2_RD_4_1.png","img2/100/Congruent/L/C_Dist_100_LN_10_LD_25_RN_3_RD_10_0.png","img2/100/Congruent/L/C_Dist_100_LN_3_LD_6_RN_2_RD_5_0.png","img2/300/Incongruent/L/I_Dist_300_LN_4_LD_5_RN_8_RD_16_0.png","img2/200/Congruent/L/C_Dist_200_LN_4_LD_10_RN_3_RD_15_0.png","img2/200/Incongruent/L/I_Dist_200_LN_7_LD_10_RN_14_RD_28_0.png","img2/100/Incongruent/L/I_Dist_100_LN_3_LD_5_RN_8_RD_16_0.png","img2/200/Incongruent/L/I_Dist_200_LN_1_LD_3_RN_2_RD_15_0.png","img2/200/Congruent/L/C_Dist_200_LN_14_LD_28_RN_6_RD_20_0.png","img2/200/Congruent/L/C_Dist_200_LN_6_LD_15_RN_3_RD_15_0.png","img2/100/Congruent/L/C_Dist_100_LN_3_LD_6_RN_2_RD_5_0.png","img2/100/Incongruent/R/I_Dist_100_LN_10_LD_25_RN_9_RD_18_1.png","img2/300/Incongruent/R/I_Dist_300_LN_4_LD_20_RN_2_RD_4_1.png","img2/200/Incongruent/L/I_Dist_200_LN_1_LD_3_RN_2_RD_15_0.png","img2/300/Incongruent/L/I_Dist_300_LN_1_LD_2_RN_3_RD_15_0.png","img2/200/Incongruent/R/I_Dist_200_LN_9_LD_15_RN_8_RD_10_1.png","img2/100/Congruent/L/C_Dist_100_LN_10_LD_25_RN_3_RD_10_0.png","img2/200/Incongruent/R/I_Dist_200_LN_3_LD_10_RN_1_RD_2_1.png","img2/200/Congruent/R/C_Dist_200_LN_7_LD_15_RN_18_RD_27_1.png","img2/300/Congruent/L/C_Dist_300_LN_11_LD_22_RN_4_RD_20_0.png","img2/100/Congruent/R/C_Dist_100_LN_7_LD_14_RN_15_RD_25_1.png","img2/100/Incongruent/L/I_Dist_100_LN_6_LD_10_RN_7_RD_14_0.png","img2/300/Congruent/R/C_Dist_300_LN_5_LD_25_RN_6_RD_12_1.png","img2/300/Incongruent/L/I_Dist_300_LN_8_LD_10_RN_14_RD_28_0.png","img2/300/Congruent/R/C_Dist_300_LN_1_LD_3_RN_19_RD_30_1.png","img2/100/Incongruent/L/I_Dist_100_LN_4_LD_8_RN_8_RD_20_0.png","img2/300/Incongruent/R/I_Dist_300_LN_4_LD_20_RN_2_RD_4_1.png","img2/100/Incongruent/L/I_Dist_100_LN_4_LD_8_RN_8_RD_20_0.png","img2/300/Congruent/R/C_Dist_300_LN_5_LD_25_RN_6_RD_12_1.png","img2/300/Congruent/R/C_Dist_300_LN_2_LD_10_RN_12_RD_24_1.png","img2/300/Incongruent/R/I_Dist_300_LN_13_LD_26_RN_12_RD_15_1.png","img2/300/Incongruent/L/I_Dist_300_LN_3_LD_6_RN_4_RD_20_0.png","img2/300/Incongruent/L/I_Dist_300_LN_7_LD_10_RN_8_RD_20_0.png","img2/100/Incongruent/L/I_Dist_100_LN_6_LD_10_RN_7_RD_14_0.png","img2/300/Congruent/R/C_Dist_300_LN_1_LD_5_RN_3_RD_6_1.png","img2/100/Incongruent/R/I_Dist_100_LN_17_LD_30_RN_10_RD_15_1.png","img2/300/Congruent/L/C_Dist_300_LN_20_LD_25_RN_5_RD_10_0.png","img2/200/Incongruent/L/I_Dist_200_LN_7_LD_10_RN_8_RD_16_0.png","img2/100/Incongruent/R/I_Dist_100_LN_10_LD_25_RN_9_RD_18_1.png","img2/300/Congruent/R/C_Dist_300_LN_1_LD_3_RN_19_RD_30_1.png","img2/200/Congruent/R/C_Dist_200_LN_6_LD_20_RN_11_RD_22_1.png","img2/200/Incongruent/R/I_Dist_200_LN_4_LD_30_RN_1_RD_3_1.png","img2/200/Congruent/L/C_Dist_200_LN_16_LD_20_RN_12_RD_20_0.png","img2/300/Congruent/R/C_Dist_300_LN_3_LD_12_RN_11_RD_20_1.png","img2/200/Congruent/R/C_Dist_200_LN_9_LD_30_RN_13_RD_26_1.png"],"dist100_C":[["C_Dist_100_LN_10_LD_25_RN_3_RD_10_0.png","C_Dist_100_LN_11_LD_22_RN_4_RD_10_0.png","C_Dist_100_LN_11_LD_22_RN_6_RD_15_0.png","C_Dist_100_LN_15_LD_25_RN_13_RD_26_0.png","C_Dist_100_LN_3_LD_6_RN_2_RD_5_0.png","C_Dist_100_LN_6_LD_20_RN_5_RD_25_0.png","C_Dist_100_LN_8_LD_16_RN_2_RD_5_0.png","C_Dist_100_LN_9_LD_15_RN_8_RD_16_0.png"],["C_Dist_100_LN_1_LD_2_RN_18_RD_30_1.png","C_Dist_100_LN_1_LD_2_RN_3_RD_5_1.png","C_Dist_100_LN_12_LD_30_RN_13_RD_26_1.png","C_Dist_100_LN_2_LD_5_RN_11_RD_22_1.png","C_Dist_100_LN_2_LD_5_RN_6_RD_12_1.png","C_Dist_100_LN_3_LD_20_RN_4_RD_16_1.png","C_Dist_100_LN_4_LD_10_RN_15_RD_30_1.png","C_Dist_100_LN_4_LD_8_RN_6_RD_10_1.png","C_Dist_100_LN_6_LD_12_RN_15_RD_25_1.png","C_Dist_100_LN_7_LD_14_RN_15_RD_25_1.png","C_Dist_100_LN_7_LD_14_RN_9_RD_15_1.png"]],"dist100_I":[["I_Dist_100_LN_1_LD_2_RN_8_RD_20_0.png","I_Dist_100_LN_2_LD_4_RN_6_RD_15_0.png","I_Dist_100_LN_2_LD_4_RN_8_RD_20_0.png","I_Dist_100_LN_3_LD_5_RN_11_RD_22_0.png","I_Dist_100_LN_3_LD_5_RN_8_RD_16_0.png","I_Dist_100_LN_3_LD_6_RN_4_RD_10_0.png","I_Dist_100_LN_3_LD_9_RN_7_RD_30_0.png","I_Dist_100_LN_4_LD_8_RN_8_RD_20_0.png","I_Dist_100_LN_6_LD_10_RN_11_RD_22_0.png","I_Dist_100_LN_6_LD_10_RN_13_RD_26_0.png","I_Dist_100_LN_6_LD_10_RN_7_RD_14_0.png","I_Dist_100_LN_9_LD_10_RN_20_RD_25_0.png","I_Dist_100_LN_9_LD_15_RN_13_RD_26_0.png","I_Dist_100_LN_9_LD_15_RN_14_RD_28_0.png"],["I_Dist_100_LN_10_LD_25_RN_8_RD_16_1.png","I_Dist_100_LN_10_LD_25_RN_9_RD_18_1.png","I_Dist_100_LN_11_LD_22_RN_9_RD_15_1.png","I_Dist_100_LN_12_LD_24_RN_9_RD_15_1.png","I_Dist_100_LN_12_LD_30_RN_2_RD_4_1.png","I_Dist_100_LN_13_LD_26_RN_12_RD_20_1.png","I_Dist_100_LN_13_LD_26_RN_6_RD_10_1.png","I_Dist_100_LN_17_LD_30_RN_10_RD_15_1.png","I_Dist_100_LN_6_LD_12_RN_3_RD_5_1.png","I_Dist_100_LN_8_LD_16_RN_6_RD_10_1.png","I_Dist_100_LN_8_LD_20_RN_1_RD_2_1.png","I_Dist_100_LN_9_LD_18_RN_6_RD_10_1.png"]],"dist100_S":[["E_Dist_100_LN_2_LD_12_RN_2_RD_30_0.png","E_Dist_100_LN_6_LD_10_RN_6_RD_12_0.png"],["E_Dist_100_LN_6_LD_12_RN_6_RD_10_1.png"]],"dist200_C":[["C_Dist_200_LN_11_LD_22_RN_3_RD_10_0.png","C_Dist_200_LN_12_LD_15_RN_6_RD_10_0.png","C_Dist_200_LN_12_LD_20_RN_6_RD_15_0.png","C_Dist_200_LN_14_LD_28_RN_6_RD_20_0.png","C_Dist_200_LN_15_LD_25_RN_4_RD_10_0.png","C_Dist_200_LN_16_LD_20_RN_12_RD_20_0.png","C_Dist_200_LN_16_LD_30_RN_9_RD_27_0.png","C_Dist_200_LN_20_LD_25_RN_9_RD_15_0.png","C_Dist_200_LN_21_LD_30_RN_2_RD_4_0.png","C_Dist_200_LN_4_LD_10_RN_3_RD_15_0.png","C_Dist_200_LN_4_LD_8_RN_3_RD_10_0.png","C_Dist_200_LN_6_LD_15_RN_3_RD_15_0.png","C_Dist_200_LN_7_LD_21_RN_2_RD_15_0.png","C_Dist_200_LN_8_LD_15_RN_2_RD_6_0.png","C_Dist_200_LN_8_LD_15_RN_3_RD_9_0.png","C_Dist_200_LN_8_LD_15_RN_7_RD_21_0.png","C_Dist_200_LN_9_LD_20_RN_4_RD_16_0.png"],["C_Dist_200_LN_1_LD_2_RN_21_RD_30_1.png","C_Dist_200_LN_13_LD_26_RN_14_RD_20_1.png","C_Dist_200_LN_3_LD_10_RN_11_RD_22_1.png","C_Dist_200_LN_3_LD_10_RN_14_RD_28_1.png","C_Dist_200_LN_3_LD_10_RN_7_RD_14_1.png","C_Dist_200_LN_3_LD_12_RN_9_RD_20_1.png","C_Dist_200_LN_3_LD_6_RN_14_RD_20_1.png","C_Dist_200_LN_5_LD_10_RN_14_RD_20_1.png","C_Dist_200_LN_6_LD_12_RN_7_RD_10_1.png","C_Dist_200_LN_6_LD_20_RN_11_RD_22_1.png","C_Dist_200_LN_7_LD_15_RN_18_RD_27_1.png","C_Dist_200_LN_9_LD_30_RN_13_RD_26_1.png"]],"dist200_I":[["I_Dist_200_LN_1_LD_2_RN_3_RD_10_0.png","I_Dist_200_LN_1_LD_3_RN_2_RD_15_0.png","I_Dist_200_LN_3_LD_4_RN_11_RD_20_0.png","I_Dist_200_LN_4_LD_5_RN_6_RD_10_0.png","I_Dist_200_LN_4_LD_6_RN_14_RD_30_0.png","I_Dist_200_LN_7_LD_10_RN_12_RD_24_0.png","I_Dist_200_LN_7_LD_10_RN_14_RD_28_0.png","I_Dist_200_LN_7_LD_10_RN_8_RD_16_0.png"],["I_Dist_200_LN_11_LD_20_RN_3_RD_4_1.png","I_Dist_200_LN_14_LD_30_RN_12_RD_18_1.png","I_Dist_200_LN_14_LD_30_RN_6_RD_9_1.png","I_Dist_200_LN_3_LD_10_RN_1_RD_2_1.png","I_Dist_200_LN_4_LD_30_RN_1_RD_3_1.png","I_Dist_200_LN_6_LD_20_RN_3_RD_6_1.png","I_Dist_200_LN_7_LD_15_RN_4_RD_6_1.png","I_Dist_200_LN_7_LD_15_RN_6_RD_9_1.png","I_Dist_200_LN_9_LD_15_RN_8_RD_10_1.png"]],"dist200_S":[["E_Dist_200_LN_3_LD_6_RN_3_RD_10_0.png"],["E_Dist_200_LN_3_LD_10_RN_3_RD_6_1.png"]],"dist300_C":[["C_Dist_300_LN_11_LD_22_RN_1_RD_5_0.png","C_Dist_300_LN_11_LD_22_RN_2_RD_10_0.png","C_Dist_300_LN_11_LD_22_RN_4_RD_20_0.png","C_Dist_300_LN_12_LD_24_RN_2_RD_10_0.png","C_Dist_300_LN_18_LD_20_RN_9_RD_15_0.png","C_Dist_300_LN_20_LD_25_RN_13_RD_26_0.png","C_Dist_300_LN_20_LD_25_RN_14_RD_28_0.png","C_Dist_300_LN_20_LD_25_RN_5_RD_10_0.png","C_Dist_300_LN_20_LD_25_RN_8_RD_16_0.png","C_Dist_300_LN_20_LD_25_RN_9_RD_18_0.png","C_Dist_300_LN_24_LD_30_RN_2_RD_4_0.png","C_Dist_300_LN_24_LD_30_RN_8_RD_16_0.png","C_Dist_300_LN_3_LD_6_RN_2_RD_10_0.png","C_Dist_300_LN_4_LD_10_RN_1_RD_10_0.png","C_Dist_300_LN_4_LD_5_RN_2_RD_4_0.png","C_Dist_300_LN_8_LD_16_RN_1_RD_5_0.png","C_Dist_300_LN_9_LD_10_RN_3_RD_5_0.png"],["C_Dist_300_LN_1_LD_20_RN_7_RD_20_1.png","C_Dist_300_LN_1_LD_3_RN_19_RD_30_1.png","C_Dist_300_LN_1_LD_30_RN_8_RD_24_1.png","C_Dist_300_LN_1_LD_5_RN_11_RD_22_1.png","C_Dist_300_LN_1_LD_5_RN_3_RD_6_1.png","C_Dist_300_LN_1_LD_5_RN_6_RD_12_1.png","C_Dist_300_LN_2_LD_10_RN_12_RD_24_1.png","C_Dist_300_LN_2_LD_20_RN_10_RD_25_1.png","C_Dist_300_LN_3_LD_12_RN_11_RD_20_1.png","C_Dist_300_LN_3_LD_6_RN_4_RD_5_1.png","C_Dist_300_LN_4_LD_20_RN_13_RD_26_1.png","C_Dist_300_LN_5_LD_25_RN_6_RD_12_1.png","C_Dist_300_LN_5_LD_25_RN_7_RD_14_1.png","C_Dist_300_LN_7_LD_14_RN_20_RD_25_1.png","C_Dist_300_LN_8_LD_15_RN_10_RD_12_1.png"]],"dist300_I":[["I_Dist_300_LN_1_LD_2_RN_2_RD_10_0.png","I_Dist_300_LN_1_LD_2_RN_3_RD_15_0.png","I_Dist_300_LN_2_LD_4_RN_6_RD_30_0.png","I_Dist_300_LN_3_LD_6_RN_4_RD_20_0.png","I_Dist_300_LN_4_LD_5_RN_6_RD_12_0.png","I_Dist_300_LN_4_LD_5_RN_8_RD_16_0.png","I_Dist_300_LN_7_LD_10_RN_8_RD_20_0.png","I_Dist_300_LN_8_LD_10_RN_14_RD_28_0.png","I_Dist_300_LN_8_LD_10_RN_9_RD_18_0.png"],["I_Dist_300_LN_13_LD_26_RN_12_RD_15_1.png","I_Dist_300_LN_4_LD_20_RN_2_RD_4_1.png"]],"dist300_S":[["E_Dist_300_LN_9_LD_12_RN_9_RD_20_0.png"],["E_Dist_300_LN_18_LD_30_RN_18_RD_20_1.png","E_Dist_300_LN_3_LD_10_RN_3_RD_5_1.png","E_Dist_300_LN_9_LD_20_RN_9_RD_12_1.png"]],"dist500_C":[["C_Dist_500_LN_10_LD_13_RN_7_RD_26_0.png","C_Dist_500_LN_10_LD_15_RN_4_RD_24_0.png","C_Dist_500_LN_12_LD_16_RN_3_RD_12_0.png","C_Dist_500_LN_12_LD_18_RN_4_RD_24_0.png","C_Dist_500_LN_15_LD_18_RN_5_RD_15_0.png","C_Dist_500_LN_15_LD_20_RN_1_RD_4_0.png","C_Dist_500_LN_18_LD_27_RN_1_RD_6_0.png","C_Dist_500_LN_20_LD_24_RN_1_RD_3_0.png","C_Dist_500_LN_20_LD_24_RN_3_RD_9_0.png","C_Dist_500_LN_20_LD_24_RN_7_RD_21_0.png","C_Dist_500_LN_20_LD_28_RN_3_RD_14_0.png","C_Dist_500_LN_21_LD_28_RN_6_RD_24_0.png","C_Dist_500_LN_22_LD_28_RN_2_RD_7_0.png","C_Dist_500_LN_25_LD_30_RN_9_RD_27_0.png","C_Dist_500_LN_4_LD_6_RN_1_RD_6_0.png","C_Dist_500_LN_5_LD_6_RN_2_RD_6_0.png","C_Dist_500_LN_6_LD_9_RN_1_RD_6_0.png","C_Dist_500_LN_7_LD_10_RN_1_RD_5_0.png","C_Dist_500_LN_8_LD_12_RN_1_RD_6_0.png","C_Dist_500_LN_8_LD_12_RN_4_RD_24_0.png"],["C_Dist_500_LN_1_LD_4_RN_12_RD_16_1.png","C_Dist_500_LN_1_LD_4_RN_9_RD_12_1.png","C_Dist_500_LN_1_LD_9_RN_11_RD_18_1.png","C_Dist_500_LN_10_LD_24_RN_22_RD_24_1.png","C_Dist_500_LN_2_LD_12_RN_10_RD_15_1.png","C_Dist_500_LN_2_LD_12_RN_12_RD_18_1.png","C_Dist_500_LN_2_LD_12_RN_4_RD_6_1.png","C_Dist_500_LN_2_LD_24_RN_7_RD_12_1.png","C_Dist_500_LN_2_LD_5_RN_18_RD_20_1.png","C_Dist_500_LN_2_LD_5_RN_9_RD_10_1.png","C_Dist_500_LN_2_LD_8_RN_12_RD_16_1.png","C_Dist_500_LN_2_LD_8_RN_21_RD_28_1.png","C_Dist_500_LN_3_LD_10_RN_4_RD_5_1.png","C_Dist_500_LN_3_LD_12_RN_15_RD_20_1.png","C_Dist_500_LN_3_LD_30_RN_6_RD_10_1.png","C_Dist_500_LN_3_LD_8_RN_14_RD_16_1.png","C_Dist_500_LN_4_LD_16_RN_15_RD_20_1.png","C_Dist_500_LN_4_LD_24_RN_12_RD_18_1.png","C_Dist_500_LN_5_LD_14_RN_6_RD_7_1.png","C_Dist_500_LN_7_LD_21_RN_20_RD_24_1.png","C_Dist_500_LN_7_LD_28_RN_12_RD_16_1.png","C_Dist_500_LN_7_LD_28_RN_9_RD_12_1.png","C_Dist_500_LN_9_LD_27_RN_20_RD_24_1.png"]],"dist500_I":[["I_Dist_500_LN_2_LD_3_RN_4_RD_24_0.png","I_Dist_500_LN_5_LD_6_RN_6_RD_18_0.png","I_Dist_500_LN_7_LD_8_RN_9_RD_24_0.png"],["I_Dist_500_LN_7_LD_21_RN_5_RD_6_1.png"]],"dist500_S":[["E_Dist_500_LN_6_LD_8_RN_6_RD_24_0.png"],["E_Dist_500_LN_2_LD_12_RN_2_RD_3_1.png","E_Dist_500_LN_6_LD_24_RN_6_RD_8_1.png"]]}},{"start_time":1552069100333,"click_time":1552069103487,"finger_time":1552069102006,"fix_duration":1024.0635111285717,"trial":1,"RT":1673,"MT":1481,"sideResp":1,"stimulus":[],"xmouse":[770,770,770,770,770,770,770,770,770,770,770,770,770,770,770,770,770,770,770,770,770,770,770,770,770,770,770,770,770,770,770,770,770,770,770,770,770,770,770,770,770,770,770,770,770,770,770,770,770,770,770,770,770,770,770,770,770,770,770,770,770,770,770,770,770,770,770,770,770,770,770,770,770,770,770,770,770,769,774,783,796,814,834,883,904,925,948,959,974,982,989,995,1001,1009,1011,1012,1012,1003,996,988,978,965,938,927,915,904,885,869,832,816,807,803,803,803,803,802,809,816,848,863,872,875,875,875,875,875,868,841,799,783,770,753,735,734,734,736,736,741,741,741,741,741,737,716,697,665,642,621,582,571,557,546,537,529,528,527,526,523],"ymouse":[647,647,647,647,647,647,647,647,647,647,647,647,647,647,647,647,647,647,647,647,647,647,647,647,647,647,647,647,647,647,647,647,647,647,647,647,647,647,647,647,647,647,647,647,647,647,647,647,647,647,647,647,647,647,647,647,647,647,647,647,647,647,647,647,647,647,647,647,647,647,647,647,647,647,647,647,647,647,638,632,619,603,584,534,510,488,460,441,395,369,344,322,304,267,249,233,228,213,210,210,212,223,247,259,275,290,308,322,345,353,358,359,359,359,359,356,338,312,255,237,229,226,224,224,224,224,226,237,243,233,209,171,117,109,108,105,104,103,103,103,103,103,103,96,86,73,60,49,36,34,33,33,38,44,45,48,49,51],"timestamp_mouse":[14,49,53,74,93,114,133,153,174,193,214,233,254,273,293,315,334,354,373,393,414,434,453,474,494,513,533,554,574,593,614,634,654,673,694,715,733,754,773,793,814,834,853,873,894,913,934,954,973,994,1013,1033,1053,1073,1094,1113,1134,1154,1173,1195,1213,1233,1254,1273,1295,1314,1334,1353,1373,1393,1414,1433,1454,1474,1493,1513,1534,1553,1574,1593,1614,1633,1654,1673,1694,1714,1733,1753,1774,1793,1813,1833,1853,1873,1893,1913,1933,1954,1973,1993,2013,2033,2054,2073,2094,2113,2133,2153,2174,2194,2214,2233,2253,2273,2293,2313,2333,2353,2373,2394,2414,2433,2454,2473,2493,2513,2533,2553,2573,2594,2614,2633,2654,2673,2694,2713,2733,2754,2773,2794,2813,2834,2853,2873,2894,2913,2933,2953,2974,2993,3013,3034,3054,3073,3094,3113,3134,3153],"xSR":741.5,"ySR":573.95,"xT1":424.9,"yT1":0,"xT2":1058.1,"yT2":0,"toosoon":0,"cond_shown":"Incongruent","ratio_trial":200,"L_num":7,"L_den":10,"R_num":14,"R_den":28,"correct_side":1,"subjID":"marianaolarte27","gender":"1","school":"4","age":"9"},{"start_time":1552069106576,"click_time":1552069108686,"finger_time":1552069108046,"fix_duration":668.4109949957492,"trial":2,"RT":1470,"MT":640,"sideResp":2,"stimulus":[],"xmouse":[797,797,797,797,797,797,797,797,797,797,797,797,797,797,797,797,797,797,797,797,797,797,797,797,797,797,797,797,797,797,797,797,797,797,797,797,797,797,797,797,797,797,797,797,797,797,797,797,797,797,797,797,797,797,797,797,797,797,797,797,797,797,797,797,797,797,797,796,796,796,795,795,794,793,792,792,851,895,951,1010,1080,1098,1108,1113,1115,1133,1150,1165,1179,1190,1200,1200,1200,1200,1196,1194,1184,1179,1175,1171,1166,1165,1164,1163,1162,1158],"ymouse":[611,611,611,611,611,611,611,611,611,611,611,611,611,611,611,611,611,611,611,611,611,611,611,611,611,611,611,611,611,611,611,611,611,611,611,611,611,611,611,611,611,611,611,611,611,611,611,611,611,611,611,611,611,611,611,611,611,611,611,611,611,611,611,611,611,611,611,609,607,602,591,587,581,569,564,543,451,378,311,263,226,217,210,202,198,167,138,106,79,55,30,26,26,26,25,26,29,30,31,32,34,34,34,34,34,34],"timestamp_mouse":[13,41,51,71,91,111,130,151,170,191,212,230,250,270,291,311,330,351,370,391,411,430,451,471,491,511,531,551,571,590,610,630,650,671,690,710,730,751,770,791,811,830,850,871,891,911,930,951,971,991,1010,1031,1051,1071,1090,1110,1131,1150,1171,1191,1211,1230,1250,1270,1291,1311,1330,1350,1371,1390,1411,1430,1451,1470,1490,1510,1530,1551,1570,1590,1611,1630,1651,1670,1690,1710,1730,1750,1770,1790,1810,1830,1850,1870,1892,1910,1930,1950,1970,1991,2011,2030,2050,2070,2091,2110],"xSR":741.5,"ySR":573.95,"xT1":424.9,"yT1":0,"xT2":1058.1,"yT2":0,"toosoon":0,"cond_shown":"Congruent","ratio_trial":100,"L_num":7,"L_den":14,"R_num":9,"R_den":15,"correct_side":2,"subjID":"marianaolarte27","gender":"1","school":"4","age":"9"},{"start_time":1552069110980,"click_time":1552069113146,"finger_time":1552069112786,"fix_duration":411.97203467825693,"trial":3,"RT":1806,"MT":360,"sideResp":2,"stimulus":[],"xmouse":[813,813,813,813,813,813,813,813,813,813,813,813,813,813,813,813,813,813,813,813,813,813,813,813,813,813,813,813,813,813,813,813,813,813,813,813,813,813,813,813,813,813,813,813,813,813,813,813,813,813,813,813,813,813,813,813,813,813,813,813,813,813,813,813,813,813,813,813,813,813,813,813,813,813,813,813,813,812,812,811,811,811,811,811,811,811,811,811,812,818,851,885,919,960,998,1061,1124,1141,1159,1169,1183,1187,1191,1194,1194,1188,1177,1169,1154],"ymouse":[642,642,642,642,642,642,642,642,642,642,642,642,642,642,642,642,642,642,642,642,642,642,642,642,642,642,642,642,642,642,642,642,642,642,642,642,642,642,642,642,642,642,642,642,642,642,642,642,642,642,642,642,642,642,642,642,642,642,642,642,642,642,642,642,642,642,642,642,642,642,642,642,642,642,642,642,642,641,640,640,640,640,640,640,640,640,640,637,634,630,600,566,525,463,401,318,230,203,178,162,134,120,100,74,33,13,4,4,12],"timestamp_mouse":[13,40,46,66,86,106,127,147,166,187,206,227,247,266,287,307,326,347,366,386,407,427,446,467,487,506,527,547,566,587,606,626,646,667,687,706,726,747,766,787,806,826,847,867,887,907,926,947,966,987,1007,1027,1046,1067,1086,1106,1126,1147,1167,1186,1206,1226,1247,1267,1286,1306,1326,1347,1366,1387,1406,1426,1446,1466,1486,1506,1526,1547,1566,1587,1606,1627,1646,1666,1687,1708,1726,1746,1767,1786,1806,1826,1846,1866,1886,1906,1927,1947,1966,1986,2006,2026,2047,2066,2086,2107,2127,2146,2166],"xSR":741.5,"ySR":573.95,"xT1":424.9,"yT1":0,"xT2":1058.1,"yT2":0,"toosoon":0,"cond_shown":"Incongruent","ratio_trial":300,"L_num":7,"L_den":10,"R_num":8,"R_den":20,"correct_side":1,"subjID":"marianaolarte27","gender":"1","school":"4","age":"9"},{"start_time":1552069116311,"click_time":1552069118646,"finger_time":1552069117906,"fix_duration":1424.7965417771152,"trial":4,"RT":1595,"MT":740,"sideResp":2,"stimulus":[],"xmouse":[809,809,809,809,809,809,809,809,809,809,809,809,809,809,809,809,809,809,809,809,809,809,809,809,809,809,809,809,809,809,809,809,809,809,809,809,809,809,809,809,809,809,809,809,809,809,809,809,809,809,809,809,809,809,809,809,809,809,809,809,809,809,809,809,809,809,809,809,809,809,809,809,809,809,809,809,812,814,823,843,848,848,862,933,984,1038,1097,1142,1242,1273,1298,1315,1328,1335,1340,1340,1329,1312,1292,1249,1231,1215,1205,1198,1198,1198,1198,1198,1198,1198,1197,1197,1194,1184,1175,1164,1151],"ymouse":[615,615,615,615,615,615,615,615,615,615,615,615,615,615,615,615,615,615,615,615,615,615,615,615,615,615,615,615,615,615,615,615,615,615,615,615,615,615,615,615,615,615,615,615,615,615,615,615,615,615,615,615,615,615,615,615,615,615,615,615,615,615,615,615,615,615,615,615,615,615,615,615,615,615,615,615,612,608,596,563,541,514,469,356,316,278,226,173,4,0,0,0,0,0,0,0,3,12,21,42,51,57,61,63,63,63,63,63,63,63,63,63,63,63,63,63,65],"timestamp_mouse":[16,39,56,76,95,116,136,156,176,196,216,236,256,275,295,315,335,356,376,395,416,435,455,475,495,516,535,555,575,595,616,636,655,676,695,716,737,756,775,795,816,836,857,876,896,916,935,957,977,996,1015,1035,1055,1076,1096,1115,1135,1157,1176,1195,1215,1237,1256,1275,1296,1316,1335,1357,1376,1396,1416,1435,1457,1476,1495,1515,1536,1555,1575,1595,1615,1635,1655,1676,1695,1716,1736,1756,1776,1795,1815,1837,1856,1875,1895,1915,1935,1956,1976,1995,2015,2035,2056,2077,2097,2116,2135,2156,2176,2196,2215,2236,2255,2277,2295,2315,2335],"xSR":741.5,"ySR":573.95,"xT1":424.9,"yT1":0,"xT2":1058.1,"yT2":0,"toosoon":0,"cond_shown":"Incongruent","ratio_trial":300,"L_num":1,"L_den":2,"R_num":3,"R_den":15,"correct_side":1,"subjID":"marianaolarte27","gender":"1","school":"4","age":"9"},{"start_time":1552069136499,"click_time":1552069138567,"finger_time":1552069138246,"fix_duration":1411.352436664193,"trial":5,"RT":1747,"MT":321,"sideResp":2,"stimulus":[],"xmouse":[792,792,792,792,792,792,792,792,792,792,792,792,792,792,792,792,792,792,792,792,792,792,792,792,792,792,792,792,792,792,792,792,792,792,792,792,792,792,792,792,792,792,792,792,792,792,792,792,792,792,792,792,792,792,792,792,792,792,792,792,792,792,792,792,792,792,792,792,792,792,792,792,792,792,792,792,792,792,792,792,792,792,792,792,792,804,831,882,999,1141,1165,1181,1192,1197,1198,1198,1199,1199,1199,1196,1188,1177,1163,1147],"ymouse":[616,616,616,616,616,616,616,616,616,616,616,616,616,616,616,616,616,616,616,616,616,616,616,616,616,616,616,616,616,616,616,616,616,616,616,616,616,616,616,616,616,616,616,616,616,616,616,616,616,616,616,616,616,616,616,616,616,616,616,616,616,616,616,616,616,616,616,616,616,616,616,616,616,616,616,616,616,616,616,616,616,616,616,616,616,609,589,549,443,259,228,209,199,195,195,195,195,192,188,165,147,126,105,83],"timestamp_mouse":[13,35,48,67,88,109,128,149,168,188,207,227,248,267,288,307,327,348,369,387,408,427,448,467,488,507,528,548,568,588,607,627,648,668,689,708,727,747,769,788,808,827,848,868,889,908,928,948,968,987,1007,1028,1048,1068,1088,1107,1129,1148,1168,1187,1208,1227,1249,1268,1288,1308,1328,1348,1368,1388,1407,1428,1448,1467,1488,1507,1528,1549,1567,1588,1607,1627,1649,1667,1688,1707,1727,1747,1767,1787,1807,1827,1847,1868,1888,1908,1929,1948,1968,1988,2007,2027,2047,2067],"xSR":741.5,"ySR":573.95,"xT1":424.9,"yT1":0,"xT2":1058.1,"yT2":0,"toosoon":0,"cond_shown":"Incongruent","ratio_trial":300,"L_num":13,"L_den":26,"R_num":12,"R_den":15,"correct_side":2,"subjID":"marianaolarte27","gender":"1","school":"4","age":"9"},{"start_time":1552069141272,"click_time":1552069143448,"finger_time":1552069142766,"fix_duration":1064.5439797467432,"trial":6,"RT":1494,"MT":682,"sideResp":1,"stimulus":[],"xmouse":[812,812,812,812,812,812,812,812,812,812,812,812,812,812,812,812,812,812,812,812,812,812,812,812,812,812,812,812,812,812,812,812,812,812,812,812,812,812,812,812,812,812,812,812,812,812,812,812,812,812,812,812,812,812,812,812,812,812,812,812,812,812,812,812,812,812,812,812,812,812,812,812,811,811,811,804,769,747,718,713,710,708,708,708,707,707,699,689,672,644,628,603,592,581,571,560,544,536,532,530,530,530,530,530,530,530,529,525,520],"ymouse":[624,624,624,624,624,624,624,624,624,624,624,624,624,624,624,624,624,624,624,624,624,624,624,624,624,624,624,624,624,624,624,624,624,624,624,624,624,624,624,624,624,624,624,624,624,624,624,624,624,624,624,624,624,624,624,624,624,624,624,624,624,624,624,624,624,624,624,624,624,624,624,624,618,598,564,489,250,123,7,0,0,0,0,0,0,0,0,0,7,22,34,50,54,59,61,63,63,63,62,62,62,62,62,62,62,62,62,62,62],"timestamp_mouse":[19,39,54,74,95,115,134,154,174,194,214,234,255,274,295,314,335,354,375,396,415,435,456,475,495,514,534,554,574,595,615,635,654,674,696,715,734,755,775,794,814,835,854,874,895,915,935,955,974,994,1014,1035,1056,1074,1095,1114,1135,1154,1175,1194,1214,1234,1255,1276,1295,1315,1335,1355,1375,1395,1415,1435,1454,1476,1494,1515,1534,1555,1574,1595,1616,1635,1654,1675,1694,1716,1734,1754,1776,1794,1814,1835,1854,1875,1895,1916,1935,1954,1975,1994,2014,2035,2054,2075,2094,2116,2134,2154,2175],"xSR":741.5,"ySR":573.95,"xT1":424.9,"yT1":0,"xT2":1058.1,"yT2":0,"toosoon":0,"cond_shown":"Incongruent","ratio_trial":100,"L_num":6,"L_den":12,"R_num":3,"R_den":5,"correct_side":2,"subjID":"marianaolarte27","gender":"1","school":"4","age":"9"},{"start_time":1552069157646,"click_time":1552069171207,"finger_time":1552069160146,"fix_duration":937.8754906648469,"trial":7,"RT":2500,"MT":11061,"sideResp":1,"stimulus":[],"xmouse":[793,793,793,793,793,793,793,793,793,793,793,793,793,793,793,793,793,793,793,793,793,793,793,793,793,793,793,793,793,793,793,793,793,793,793,793,793,793,793,793,793,793,793,793,793,793,793,793,793,793,793,793,793,793,793,793,793,793,793,793,793,793,793,793,793,793,793,793,793,793,793,793,793,793,793,793,793,793,793,793,793,793,793,793,793,793,793,793,793,793,793,793,793,793,793,793,793,793,793,793,793,793,793,793,793,793,793,793,793,793,793,793,793,793,793,793,793,793,793,793,793,794,803,809,816,823,834,848,872,883,890,893,900,911,916,920,926,934,934,934,934,934,934,934,934,934,934,934,934,934,934,934,934,934,934,934,934,934,934,934,934,934,934,934,934,934,934,934,934,934,934,934,934,934,934,934,934,934,934,934,934,934,934,934,934,934,934,934,934,934,934,934,934,934,934,934,934,934,934,934,934,934,934,934,934,934,934,934,934,934,934,934,934,934,934,934,934,934,934,934,934,934,934,934,934,934,934,934,934,934,934,934,934,934,934,934,934,934,934,934,934,934,934,934,934,934,934,934,934,934,934,934,934,934,934,934,934,934,934,934,934,934,934,934,934,934,934,934,934,934,934,934,934,934,934,934,934,934,934,934,934,934,934,934,934,934,934,934,934,934,934,934,934,934,934,934,934,934,934,934,934,934,934,934,934,934,934,934,934,934,934,934,934,934,934,934,934,934,934,934,934,934,934,934,934,934,934,934,934,934,934,934,934,934,934,934,934,934,934,934,934,934,934,934,934,934,934,934,934,934,934,934,934,934,934,934,934,934,934,934,934,934,934,934,934,934,934,934,934,934,934,934,934,934,934,934,934,934,934,934,934,934,934,934,934,934,934,934,934,934,934,934,934,934,934,934,934,934,934,934,934,934,934,934,934,934,934,934,934,934,934,934,934,934,934,934,934,934,934,934,934,934,934,934,934,934,934,934,934,934,934,934,934,934,934,934,934,934,934,934,934,934,934,934,934,934,934,934,934,934,934,934,934,934,934,934,934,934,934,934,934,934,934,934,934,934,934,934,934,934,934,934,934,934,934,934,934,934,934,934,934,934,934,934,934,934,934,934,934,934,934,934,934,934,934,934,934,934,934,934,934,934,934,934,934,934,934,934,934,934,934,934,934,934,934,934,934,934,934,934,934,934,934,934,934,934,934,934,934,934,934,934,934,934,934,934,934,934,934,934,934,934,934,934,934,934,934,934,934,934,934,934,934,934,934,934,934,934,934,934,934,934,934,934,934,934,934,934,934,934,934,934,934,934,934,934,934,934,934,934,934,934,934,934,934,934,934,934,934,934,934,934,934,1049,1484,1484,1484,1484,1484,1484,1576,1519,1501,1474,1466,1460,1454,1434,1412,1381,1340,1285,1220,1201,1185,1169,1155,1113,1086,1060,1032,1025,1020,1020,1020,1020,1012,962,891,801,697,594,438,250,186,151,134,121,119,117,117,115,113,116,126,139,150,160,172,181,189,200,213,221,236,256,277,313,331,349,359,369,381,386,389,398,406,419,421,420,414,411,410,410,412,414,417,420,430],"ymouse":[622,622,622,622,622,622,622,622,622,622,622,622,622,622,622,622,622,622,622,622,622,622,622,622,622,622,622,622,622,622,622,622,622,622,622,622,622,622,622,622,622,622,622,622,622,622,622,622,622,622,622,622,622,622,622,622,622,622,622,622,622,622,622,622,622,622,622,622,622,622,622,622,622,622,622,622,622,622,622,622,622,622,622,622,622,622,622,622,622,622,622,622,622,622,622,622,622,622,622,622,622,622,622,622,622,622,622,622,622,622,622,622,622,622,622,622,622,622,622,619,617,613,595,584,576,570,563,557,555,555,555,554,552,548,547,545,543,543,543,543,543,543,543,543,543,543,543,543,543,543,543,543,543,543,543,543,543,543,543,543,543,543,543,543,543,543,543,543,543,543,543,543,543,543,543,543,543,543,543,543,543,543,543,543,543,543,543,543,543,543,543,543,543,543,543,543,543,543,543,543,543,543,543,543,543,543,543,543,543,543,543,543,543,543,543,543,543,543,543,543,543,543,543,543,543,543,543,543,543,543,543,543,543,543,543,543,543,543,543,543,543,543,543,543,543,543,543,543,543,543,543,543,543,543,543,543,543,543,543,543,543,543,543,543,543,543,543,543,543,543,543,543,543,543,543,543,543,543,543,543,543,543,543,543,543,543,543,543,543,543,543,543,543,543,543,543,543,543,543,543,543,543,543,543,543,543,543,543,543,543,543,543,543,543,543,543,543,543,543,543,543,543,543,543,543,543,543,543,543,543,543,543,543,543,543,543,543,543,543,543,543,543,543,543,543,543,543,543,543,543,543,543,543,543,543,543,543,543,543,543,543,543,543,543,543,543,543,543,543,543,543,543,543,543,543,543,543,543,543,543,543,543,543,543,543,543,543,543,543,543,543,543,543,543,543,543,543,543,543,543,543,543,543,543,543,543,543,543,543,543,543,543,543,543,543,543,543,543,543,543,543,543,543,543,543,543,543,543,543,543,543,543,543,543,543,543,543,543,543,543,543,543,543,543,543,543,543,543,543,543,543,543,543,543,543,543,543,543,543,543,543,543,543,543,543,543,543,543,543,543,543,543,543,543,543,543,543,543,543,543,543,543,543,543,543,543,543,543,543,543,543,543,543,543,543,543,543,543,543,543,543,543,543,543,543,543,543,543,543,543,543,543,543,543,543,543,543,543,543,543,543,543,543,543,543,543,543,543,543,543,543,543,543,543,543,543,543,543,543,543,543,543,543,543,543,543,543,543,543,543,543,543,543,543,543,543,543,543,543,543,543,543,543,543,543,543,543,543,543,543,543,543,543,543,543,543,543,543,543,543,543,543,543,543,543,543,543,543,543,543,543,543,543,507,336,336,336,336,336,336,0,0,0,0,0,0,0,0,0,0,0,0,0,0,0,0,0,0,0,0,0,0,0,0,0,0,0,0,0,0,0,0,0,0,0,0,0,0,0,0,0,0,0,19,33,48,61,68,74,76,76,78,79,79,79,81,83,85,81,77,75,75,87,93,93,91,83,55,41,32,23,18,16,16,16,16,17,18,21],"timestamp_mouse":[13,21,41,61,81,101,120,140,160,182,202,220,241,261,280,301,320,340,360,380,401,421,440,460,480,501,521,540,561,581,600,621,640,660,681,701,722,741,761,781,801,822,841,861,881,902,921,940,961,982,1000,1021,1041,1061,1081,1100,1120,1141,1161,1180,1201,1220,1241,1260,1281,1300,1321,1340,1360,1382,1401,1420,1441,1460,1481,1500,1520,1541,1560,1581,1601,1620,1640,1660,1680,1700,1721,1740,1760,1782,1801,1820,1841,1861,1881,1900,1920,1940,1961,1981,2001,2021,2040,2060,2080,2101,2122,2140,2160,2180,2200,2222,2240,2260,2281,2301,2320,2342,2362,2381,2400,2420,2440,2460,2481,2500,2520,2540,2562,2581,2600,2620,2640,2660,2681,2700,2720,2741,2760,2780,2800,2820,2841,2860,2880,2900,2922,2941,2961,2980,3002,3022,3041,3060,3080,3100,3121,3141,3161,3182,3201,3221,3240,3260,3280,3301,3320,3341,3361,3380,3400,3420,3441,3461,3481,3500,3520,3541,3562,3580,3601,3620,3642,3661,3680,3700,3721,3741,3761,3781,3800,3820,3840,3860,3881,3900,3920,3941,3960,3980,4001,4020,4041,4061,4082,4101,4121,4141,4161,4181,4200,4221,4241,4261,4280,4301,4321,4341,4361,4380,4401,4420,4441,4461,4481,4500,4520,4540,4561,4580,4601,4621,4642,4661,4681,4700,4720,4741,4762,4780,4802,4822,4841,4860,4880,4900,4920,4941,4960,4980,5000,5020,5041,5062,5082,5101,5120,5141,5160,5180,5201,5221,5241,5260,5280,5301,5322,5341,5360,5381,5401,5421,5440,5462,5481,5501,5521,5541,5561,5581,5602,5621,5641,5661,5680,5701,5720,5741,5761,5780,5801,5820,5840,5862,5881,5901,5921,5941,5961,5981,6002,6021,6041,6061,6080,6100,6122,6141,6160,6181,6201,6220,6242,6262,6280,6301,6320,6341,6361,6380,6401,6421,6440,6462,6482,6502,6520,6541,6561,6581,6600,6621,6641,6660,6680,6701,6722,6741,6762,6781,6800,6820,6841,6860,6882,6901,6920,6941,6961,6981,7001,7022,7041,7061,7082,7100,7120,7141,7162,7181,7201,7220,7241,7261,7280,7300,7321,7341,7361,7380,7402,7421,7441,7460,7480,7500,7520,7541,7561,7581,7600,7620,7640,7662,7680,7700,7721,7740,7762,7781,7801,7821,7841,7861,7880,7901,7921,7941,7961,7981,8001,8021,8040,8061,8082,8102,8120,8141,8162,8181,8201,8220,8241,8262,8281,8300,8320,8340,8360,8382,8400,8420,8441,8460,8480,8501,8521,8541,8560,8581,8602,8620,8641,8660,8681,8701,8721,8740,8761,8781,8801,8822,8841,8861,8880,8900,8922,8941,8960,8981,9000,9021,9041,9060,9081,9101,9120,9141,9160,9181,9200,9221,9240,9261,9280,9302,9321,9340,9360,9381,9401,9421,9441,9461,9481,9501,9520,9541,9560,9581,9602,9620,9640,9661,9680,9700,9720,9741,9761,9782,9800,9821,9841,9860,9881,9901,9921,9941,9960,9980,10001,10021,10040,10061,10081,10100,10120,10141,10162,10182,10200,10220,10241,10261,10281,10301,10320,10341,10362,10382,10401,10421,10442,10461,10481,10500,10521,10540,10560,10580,10600,10620,10641,10662,10681,10701,10721,10741,10761,10781,10801,10820,10841,10861,10880,10901,10920,10941,10961,10980,11000,11021,11041,11061,11081,11100,11120,11142,11160,11180,11201,11221,11241,11261,11280,11301,11322,11341,11360,11380,11401,11420,11441,11460,11480,11501,11520,11541,11562,11582,11601,11620,11641,11661,11681,11701,11721,11741,11761,11780,11801,11820,11840,11860,11880,11900,11920,11941,11961,11981,12001,12020,12042,12060,12081,12101,12121,12140,12160,12180,12201,12221,12240,12260,12281,12300,12321,12341,12361,12380,12400,12421,12441,12461,12480,12500,12520,12542,12560,12580,12600,12620,12642,12660,12680,12701,12720,12741,12760,12781,12800,12821,12840,12861,12881,12901,12920,12940,12961,12981,13001,13030,13042,13060,13080,13101,13121,13141,13160,13181,13201,13220,13242,13260,13280,13300,13320,13341,13360,13380,13401,13421,13441,13460,13480,13500,13520,13540,13561],"xSR":741.5,"ySR":573.95,"xT1":424.9,"yT1":0,"xT2":1058.1,"yT2":0,"toosoon":0,"cond_shown":"Incongruent","ratio_trial":300,"L_num":4,"L_den":20,"R_num":2,"R_den":4,"correct_side":2,"subjID":"marianaolarte27","gender":"1","school":"4","age":"9"},{"start_time":1552069172358,"click_time":1552069174087,"finger_time":1552069173386,"fix_duration":250,"trial":8,"RT":1028,"MT":701,"sideResp":2,"stimulus":[],"xmouse":[777,781,782,783,783,783,783,783,783,783,783,783,783,783,783,783,783,783,783,783,783,784,784,784,784,784,784,784,784,784,784,784,784,784,784,784,784,784,784,784,784,784,784,784,784,784,784,784,784,789,795,857,920,984,1036,1050,1054,1045,1036,1029,1029,1054,1153,1221,1269,1292,1294,1294,1290,1287,1284,1275,1263,1254,1250,1234,1224,1211,1208,1205,1202,1200,1191,1183,1179,1165,1146],"ymouse":[614,615,615,615,615,615,615,615,615,615,615,615,615,615,615,615,615,615,615,615,615,615,615,615,615,615,615,615,615,615,615,615,615,615,615,615,615,615,615,615,615,615,615,615,615,615,615,615,615,613,611,573,540,514,489,479,466,454,434,417,397,354,249,187,136,76,20,10,0,0,0,1,5,8,9,13,18,22,23,23,24,24,24,25,27,32,39],"timestamp_mouse":[10,37,48,69,88,108,128,150,168,188,209,228,248,270,290,309,329,348,370,389,408,429,448,468,489,508,529,548,570,589,610,629,648,668,689,709,730,749,769,789,809,829,849,868,889,909,930,948,968,989,1008,1028,1048,1069,1088,1109,1129,1148,1168,1189,1208,1228,1248,1268,1288,1308,1328,1349,1369,1389,1409,1429,1450,1468,1489,1509,1528,1548,1568,1589,1609,1629,1648,1668,1690,1710,1728],"xSR":741.5,"ySR":573.95,"xT1":424.9,"yT1":0,"xT2":1058.1,"yT2":0,"toosoon":0,"cond_shown":"Congruent","ratio_trial":300,"L_num":1,"L_den":20,"R_num":7,"R_den":20,"correct_side":2,"subjID":"marianaolarte27","gender":"1","school":"4","age":"9"},{"start_time":1552069179134,"click_time":1552069181347,"finger_time":1552069180486,"fix_duration":585.9258093848654,"trial":9,"RT":1352,"MT":861,"sideResp":2,"stimulus":[],"xmouse":[779,779,779,779,779,779,779,779,779,779,779,779,779,779,779,779,779,779,779,779,779,779,779,779,779,779,779,779,779,779,779,779,779,779,779,779,779,779,779,779,779,779,779,779,779,779,779,779,779,779,779,779,779,779,779,779,779,779,779,779,779,779,779,779,780,784,789,789,790,790,790,790,790,790,791,793,801,813,822,840,867,917,1027,1061,1104,1162,1173,1206,1245,1267,1285,1295,1297,1297,1297,1295,1293,1286,1264,1252,1243,1238,1235,1233,1229,1221,1219,1207,1191,1167,1145],"ymouse":[652,652,652,652,652,652,652,652,652,652,652,652,652,652,652,652,652,652,652,652,652,652,652,652,652,652,652,652,652,652,652,652,652,652,652,652,652,652,652,652,652,652,652,652,652,652,652,652,652,652,652,652,652,652,652,652,652,652,652,652,652,652,652,646,640,625,588,559,512,489,465,441,427,407,395,388,381,379,378,371,361,341,294,283,270,248,241,210,143,104,74,63,62,62,62,61,61,60,60,61,62,62,62,62,63,65,65,69,71,74,76],"timestamp_mouse":[14,34,53,72,94,112,132,152,173,192,212,233,252,273,293,312,334,352,374,394,413,433,454,473,493,512,533,552,574,594,612,633,652,674,693,714,733,754,772,793,812,834,852,872,893,914,932,954,973,992,1012,1032,1053,1074,1093,1114,1133,1153,1172,1192,1213,1234,1253,1273,1293,1313,1333,1352,1373,1394,1414,1433,1452,1472,1493,1512,1534,1553,1573,1593,1613,1634,1653,1673,1692,1712,1733,1752,1773,1792,1813,1834,1856,1873,1893,1912,1933,1952,1973,1993,2013,2032,2053,2072,2093,2112,2134,2153,2172,2193,2213],"xSR":741.5,"ySR":573.95,"xT1":424.9,"yT1":0,"xT2":1058.1,"yT2":0,"toosoon":0,"cond_shown":"Congruent","ratio_trial":200,"L_num":9,"L_den":30,"R_num":13,"R_den":26,"correct_side":2,"subjID":"marianaolarte27","gender":"1","school":"4","age":"9"},{"start_time":1552069183941,"click_time":1552069186068,"finger_time":1552069185486,"fix_duration":1032.8713504367154,"trial":10,"RT":1545,"MT":582,"sideResp":2,"stimulus":[],"xmouse":[782,782,782,782,782,782,782,782,782,782,782,782,782,782,782,782,782,782,782,782,782,782,782,782,782,782,782,782,782,782,782,782,782,782,782,782,782,782,782,782,782,782,782,782,782,782,782,782,782,782,782,782,782,782,782,782,782,782,782,782,782,782,782,782,782,782,782,782,782,782,782,782,782,782,785,797,823,895,994,1034,1066,1102,1129,1161,1176,1203,1224,1254,1257,1257,1257,1257,1254,1230,1219,1218,1216,1215,1215,1215,1214,1210,1204,1185,1172,1163,1158],"ymouse":[631,631,631,631,631,631,631,631,631,631,631,631,631,631,631,631,631,631,631,631,631,631,631,631,631,631,631,631,631,631,631,631,631,631,631,631,631,631,631,631,631,631,631,631,631,631,631,631,631,631,631,631,631,631,631,631,631,631,631,631,631,631,631,631,631,631,631,631,631,631,631,631,630,625,617,606,587,518,361,285,226,177,138,69,34,0,0,0,0,0,0,0,9,68,93,98,108,112,112,112,112,112,112,101,87,78,70],"timestamp_mouse":[8,26,47,66,86,107,125,145,166,187,206,227,246,266,285,305,326,347,366,386,407,427,445,466,486,505,526,546,566,586,606,627,646,665,686,706,725,745,765,786,806,827,846,866,887,905,926,946,966,987,1006,1026,1046,1067,1085,1106,1127,1146,1165,1186,1207,1226,1246,1265,1286,1306,1326,1346,1366,1387,1406,1427,1446,1465,1485,1505,1527,1545,1565,1586,1605,1625,1645,1665,1686,1706,1725,1748,1766,1786,1806,1825,1845,1865,1886,1906,1926,1948,1966,1985,2006,2026,2046,2066,2086,2105,2127],"xSR":741.5,"ySR":573.95,"xT1":424.9,"yT1":0,"xT2":1058.1,"yT2":0,"toosoon":0,"cond_shown":"Congruent","ratio_trial":200,"L_num":9,"L_den":30,"R_num":13,"R_den":26,"correct_side":2,"subjID":"marianaolarte27","gender":"1","school":"4","age":"9"},{"start_time":1552069187516,"click_time":1552069189468,"finger_time":1552069189007,"fix_duration":327.87929030520644,"trial":11,"RT":1491,"MT":461,"sideResp":2,"stimulus":[],"xmouse":[792,792,792,792,792,792,792,792,792,792,792,792,792,792,792,792,792,792,792,792,792,792,792,792,792,792,792,792,792,792,792,792,792,792,792,792,792,792,792,792,792,792,792,792,792,792,792,792,792,792,792,792,792,792,792,792,792,792,792,792,792,792,792,792,792,792,792,792,792,792,792,792,794,829,861,924,1002,1110,1228,1264,1292,1309,1313,1307,1304,1303,1302,1302,1295,1287,1279,1268,1252,1213,1199,1183,1172,1151],"ymouse":[626,626,626,626,626,626,626,626,627,627,627,627,627,627,627,627,627,627,627,627,627,627,627,627,627,627,627,627,627,627,627,627,627,627,627,627,627,627,627,627,627,627,627,627,627,627,627,627,627,627,627,627,627,627,627,627,627,627,627,627,627,627,627,627,627,627,627,627,627,627,627,628,628,628,628,619,601,557,466,406,322,229,149,81,74,72,68,65,41,31,26,25,28,56,68,75,82,91],"timestamp_mouse":[15,38,51,72,91,111,130,152,171,191,212,231,252,272,291,311,332,352,371,390,411,430,451,470,492,510,531,551,571,590,610,630,652,671,692,711,731,750,772,792,812,831,852,872,890,911,931,950,972,991,1012,1032,1051,1071,1090,1110,1130,1150,1171,1192,1210,1232,1251,1271,1290,1311,1331,1350,1371,1390,1412,1431,1450,1471,1491,1511,1532,1552,1571,1591,1610,1630,1650,1671,1691,1711,1731,1750,1771,1791,1811,1831,1851,1871,1891,1911,1931,1952],"xSR":741.5,"ySR":573.95,"xT1":424.9,"yT1":0,"xT2":1058.1,"yT2":0,"toosoon":0,"cond_shown":"Incongruent","ratio_trial":100,"L_num":6,"L_den":10,"R_num":11,"R_den":22,"correct_side":1,"subjID":"marianaolarte27","gender":"1","school":"4","age":"9"},{"start_time":1552069191378,"click_time":1552069193027,"finger_time":1552069192886,"fix_duration":410.9671275820817,"trial":12,"RT":1508,"MT":141,"sideResp":2,"stimulus":[],"xmouse":[812,812,812,812,812,812,812,812,812,812,812,812,812,812,812,812,812,812,812,812,812,812,812,812,812,812,812,812,812,812,812,812,812,812,812,812,812,812,812,812,812,812,812,812,812,812,812,812,812,812,812,812,812,812,812,812,812,812,812,812,812,812,812,812,812,812,812,812,812,812,812,811,813,825,843,895,932,970,1008,1090,1122,1149],"ymouse":[655,655,655,655,655,655,655,655,655,655,655,655,655,655,655,655,655,655,655,655,655,655,655,655,655,655,655,655,655,655,655,655,655,655,655,655,655,655,655,655,655,655,655,655,655,655,655,655,655,655,655,655,655,655,655,655,655,655,655,655,655,655,655,655,655,655,655,655,655,655,655,652,647,628,600,498,424,350,284,171,124,88],"timestamp_mouse":[35,49,69,88,109,129,149,168,190,209,230,249,269,289,308,328,349,370,390,409,428,448,469,489,509,528,549,569,590,609,628,649,669,690,710,730,750,769,789,809,828,848,869,890,909,928,949,969,990,1008,1030,1050,1069,1089,1109,1128,1149,1169,1189,1208,1228,1250,1269,1288,1308,1330,1350,1368,1389,1410,1429,1449,1470,1489,1508,1529,1549,1569,1590,1609,1628,1648],"xSR":741.5,"ySR":573.95,"xT1":424.9,"yT1":0,"xT2":1058.1,"yT2":0,"toosoon":0,"cond_shown":"Incongruent","ratio_trial":200,"L_num":1,"L_den":2,"R_num":3,"R_den":10,"correct_side":1,"subjID":"marianaolarte27","gender":"1","school":"4","age":"9"},{"start_time":1552069199639,"click_time":1552069201827,"finger_time":1552069201287,"fix_duration":250,"trial":13,"RT":1648,"MT":540,"sideResp":2,"stimulus":[],"xmouse":[795,795,795,795,795,795,795,795,795,795,795,795,795,795,795,795,795,795,795,795,795,795,795,795,795,795,795,795,795,795,795,795,795,795,795,795,795,795,795,795,795,795,795,795,795,795,795,795,795,795,795,795,795,795,795,795,795,795,795,795,795,795,795,795,795,795,795,795,795,795,795,795,795,795,795,795,795,795,795,795,797,822,866,962,989,1010,1023,1037,1056,1063,1069,1085,1101,1131,1141,1144,1144,1144,1144,1144,1144,1146,1150,1152,1153,1156,1157,1157,1157,1157],"ymouse":[624,624,624,624,624,624,624,624,624,624,624,624,624,624,624,624,624,624,624,624,624,624,624,624,624,624,624,624,624,624,624,624,624,624,624,624,624,624,624,624,624,624,624,624,624,624,624,624,624,624,624,624,624,624,624,624,624,624,624,624,624,624,624,624,624,624,624,624,624,624,624,624,624,624,624,624,624,624,624,624,621,605,574,494,466,431,401,370,324,315,309,300,290,266,256,252,252,252,252,252,252,251,241,235,221,200,178,153,100,78],"timestamp_mouse":[12,35,47,67,89,108,128,148,167,188,208,229,249,267,289,309,328,347,369,387,407,428,447,467,487,507,528,549,568,587,607,629,648,668,688,709,727,749,769,788,808,828,849,867,887,908,928,948,967,987,1007,1028,1048,1069,1088,1108,1127,1149,1167,1188,1208,1229,1249,1267,1288,1309,1328,1349,1368,1387,1408,1427,1448,1469,1488,1507,1528,1548,1567,1589,1608,1628,1648,1668,1688,1708,1727,1748,1768,1788,1807,1829,1848,1868,1889,1908,1929,1948,1968,1987,2007,2028,2048,2068,2088,2109,2128,2147,2167,2187],"xSR":741.5,"ySR":573.95,"xT1":424.9,"yT1":0,"xT2":1058.1,"yT2":0,"toosoon":0,"cond_shown":"Incongruent","ratio_trial":100,"L_num":2,"L_den":4,"R_num":8,"R_den":20,"correct_side":1,"subjID":"marianaolarte27","gender":"1","school":"4","age":"9"},{"start_time":1552069204722,"click_time":1552069206287,"finger_time":1552069205766,"fix_duration":1412.4281379123015,"trial":14,"RT":1044,"MT":521,"sideResp":2,"stimulus":[],"xmouse":[795,795,795,795,795,795,795,795,795,795,795,795,795,795,795,795,795,795,795,795,795,795,795,795,795,795,795,795,795,795,795,795,795,795,795,795,795,795,795,795,795,797,798,798,798,798,798,798,798,803,817,837,875,932,1033,1075,1106,1132,1148,1153,1159,1162,1166,1171,1174,1176,1178,1179,1179,1178,1178,1178,1176,1174,1170,1166,1163,1160,1158],"ymouse":[670,670,670,670,670,670,670,670,670,670,670,670,670,670,670,670,670,670,670,670,670,670,670,670,670,670,670,670,670,670,670,670,670,670,670,670,670,670,670,670,670,670,670,670,670,670,670,670,670,668,661,644,610,555,437,376,325,262,221,206,197,189,181,164,151,139,125,112,108,107,107,106,105,98,82,74,70,67,65],"timestamp_mouse":[14,39,45,65,85,105,126,145,165,185,206,224,244,265,286,306,324,345,365,384,405,426,445,465,484,506,526,546,566,585,605,629,645,666,685,704,725,746,766,785,805,824,845,865,884,904,925,945,965,985,1004,1025,1044,1065,1084,1105,1126,1144,1165,1185,1204,1224,1245,1264,1285,1305,1326,1346,1365,1385,1405,1425,1445,1464,1484,1504,1524,1545,1564],"xSR":741.5,"ySR":573.95,"xT1":424.9,"yT1":0,"xT2":1058.1,"yT2":0,"toosoon":0,"cond_shown":"Congruent","ratio_trial":300,"L_num":24,"L_den":30,"R_num":8,"R_den":16,"correct_side":1,"subjID":"marianaolarte27","gender":"1","school":"4","age":"9"},{"start_time":1552069210680,"click_time":1552069211987,"finger_time":1552069211448,"fix_duration":1251.4283919742581,"trial":15,"RT":768,"MT":539,"sideResp":1,"stimulus":[],"xmouse":[774,774,774,774,774,774,774,774,774,774,774,774,774,774,774,774,774,774,774,774,774,774,774,774,774,774,774,774,774,774,774,774,774,774,774,774,776,779,783,785,785,785,785,784,782,767,750,729,699,663,625,612,604,600,598,592,591,588,587,583,578,555,544,533,525,514],"ymouse":[601,601,601,601,601,601,601,601,601,601,601,601,601,601,601,601,601,601,601,601,601,601,601,601,601,601,601,601,601,601,601,601,601,601,601,601,587,576,557,542,533,532,529,526,517,480,440,397,346,273,179,145,115,93,78,58,53,49,48,47,45,39,35,32,29,29],"timestamp_mouse":[13,37,47,67,86,107,126,146,167,188,207,227,247,268,287,307,328,347,367,388,406,428,447,467,487,508,527,546,566,586,608,626,646,666,688,708,726,748,768,787,807,826,847,867,888,907,926,946,967,986,1007,1026,1047,1067,1087,1106,1127,1148,1167,1186,1206,1226,1247,1266,1287,1307],"xSR":741.5,"ySR":573.95,"xT1":424.9,"yT1":0,"xT2":1058.1,"yT2":0,"toosoon":0,"cond_shown":"Congruent","ratio_trial":300,"L_num":20,"L_den":25,"R_num":5,"R_den":10,"correct_side":1,"subjID":"marianaolarte27","gender":"1","school":"4","age":"9"},{"start_time":1552069213539,"click_time":1552069214847,"finger_time":1552069214466,"fix_duration":250,"trial":16,"RT":927,"MT":381,"sideResp":2,"stimulus":[],"xmouse":[801,801,801,801,801,801,801,801,801,801,801,801,801,801,801,801,801,801,801,801,801,801,801,801,801,801,801,801,801,801,801,801,801,801,801,801,801,801,801,801,801,801,806,816,824,833,847,875,891,905,922,937,968,983,996,1009,1021,1043,1047,1049,1050,1052,1056,1057,1057,1059],"ymouse":[628,628,628,628,628,628,628,628,628,628,628,628,628,628,628,628,628,628,628,628,628,628,628,628,628,628,628,628,628,628,628,628,628,628,628,628,628,628,628,628,628,628,627,621,614,602,571,469,412,363,325,301,263,246,226,204,180,119,106,102,96,92,86,84,82,81],"timestamp_mouse":[12,35,48,68,89,108,127,149,168,189,208,228,247,268,289,309,328,348,367,389,408,428,449,468,487,508,529,549,568,587,608,629,647,668,688,708,727,747,767,787,809,827,848,868,887,908,927,948,969,988,1009,1027,1048,1067,1088,1107,1127,1148,1169,1188,1208,1227,1248,1267,1289,1308],"xSR":741.5,"ySR":573.95,"xT1":424.9,"yT1":0,"xT2":1058.1,"yT2":0,"toosoon":0,"cond_shown":"Incongruent","ratio_trial":300,"L_num":13,"L_den":26,"R_num":12,"R_den":15,"correct_side":2,"subjID":"marianaolarte27","gender":"1","school":"4","age":"9"},{"start_time":1552069227834,"click_time":1552069229847,"finger_time":1552069229286,"fix_duration":345.8022854796824,"trial":17,"RT":1452,"MT":561,"sideResp":2,"stimulus":[],"xmouse":[796,796,796,796,796,796,796,796,796,796,796,796,796,796,796,796,796,796,796,796,796,796,796,796,796,796,796,796,796,796,796,796,796,796,796,796,796,796,796,796,796,796,796,796,796,796,796,796,796,796,796,796,796,796,796,796,796,796,796,796,796,796,796,796,796,796,796,796,796,796,798,815,842,854,870,882,889,908,911,914,916,921,940,954,974,989,999,1003,1003,1003,1003,1003,1009,1017,1021,1027,1032,1041,1048,1055,1060],"ymouse":[641,641,641,641,641,641,641,641,641,641,641,641,641,641,641,641,641,641,641,641,641,641,641,641,641,641,641,641,641,641,641,641,641,641,641,641,641,641,641,641,641,641,641,641,641,641,641,641,641,641,641,641,641,641,641,641,641,641,641,641,641,641,641,641,641,641,641,641,641,635,624,582,515,481,446,421,396,348,329,313,294,275,219,186,135,84,39,0,0,0,0,0,11,18,22,27,32,45,54,63,67],"timestamp_mouse":[14,36,53,73,94,113,133,152,174,193,214,234,253,272,292,314,332,352,372,394,414,433,453,474,494,512,532,554,574,594,612,632,654,674,693,713,734,753,772,794,812,834,853,873,892,914,933,952,972,992,1014,1033,1052,1072,1093,1114,1134,1153,1172,1193,1214,1234,1253,1273,1294,1314,1333,1352,1372,1392,1413,1433,1452,1473,1492,1513,1533,1552,1572,1593,1613,1633,1652,1673,1692,1712,1734,1754,1772,1793,1813,1832,1853,1873,1894,1914,1933,1954,1972,1994,2013],"xSR":741.5,"ySR":573.95,"xT1":424.9,"yT1":0,"xT2":1058.1,"yT2":0,"toosoon":0,"cond_shown":"Congruent","ratio_trial":300,"L_num":3,"L_den":12,"R_num":11,"R_den":20,"correct_side":2,"subjID":"marianaolarte27","gender":"1","school":"4","age":"9"},{"start_time":1552069232258,"click_time":1552069233927,"finger_time":1552069233808,"fix_duration":1250.9278335877018,"trial":18,"RT":1550,"MT":119,"sideResp":2,"stimulus":[],"xmouse":[743,743,743,743,743,743,743,743,743,743,743,743,743,743,743,743,743,743,743,743,743,743,743,743,743,743,743,743,743,743,743,743,743,743,743,743,743,743,743,743,743,743,743,743,743,743,743,743,743,743,743,743,743,743,743,743,743,743,743,743,743,743,743,743,743,743,743,743,743,743,743,743,743,743,753,760,811,849,885,918,972,1043,1077,1104],"ymouse":[653,653,653,653,653,653,653,653,653,653,653,653,653,653,653,653,653,653,653,653,653,653,653,653,653,653,653,653,653,653,653,653,653,653,653,653,653,653,653,653,653,653,653,653,653,653,653,653,653,653,653,653,653,653,653,653,653,653,653,653,653,653,653,653,653,653,653,653,653,653,653,653,653,653,645,637,584,529,461,385,272,152,105,50],"timestamp_mouse":[12,35,49,68,89,109,129,148,168,189,209,229,249,268,290,308,330,349,368,390,409,429,448,468,490,510,530,548,569,588,610,630,649,669,688,709,728,749,770,788,808,830,849,869,889,908,929,948,968,989,1009,1029,1048,1069,1088,1110,1130,1148,1170,1188,1208,1228,1249,1270,1289,1309,1330,1348,1369,1389,1408,1428,1449,1469,1489,1508,1529,1550,1569,1590,1610,1629,1649,1669],"xSR":741.5,"ySR":573.95,"xT1":424.9,"yT1":0,"xT2":1058.1,"yT2":0,"toosoon":0,"cond_shown":"Congruent","ratio_trial":200,"L_num":1,"L_den":2,"R_num":21,"R_den":30,"correct_side":2,"subjID":"marianaolarte27","gender":"1","school":"4","age":"9"},{"start_time":1552069236020,"click_time":1552069237768,"finger_time":1552069237487,"fix_duration":471.9228290142993,"trial":19,"RT":1467,"MT":281,"sideResp":2,"stimulus":[],"xmouse":[771,771,771,771,771,771,771,771,771,771,771,771,771,771,771,771,771,771,771,771,771,771,771,771,771,771,771,771,771,771,771,771,771,771,771,771,771,771,771,771,771,771,771,771,771,771,771,771,771,771,771,771,771,771,771,771,771,771,771,771,771,771,771,771,771,771,771,771,771,771,771,773,774,796,816,851,902,961,1037,1054,1059,1062,1064,1065,1069,1075,1081,1088],"ymouse":[624,624,624,624,624,624,624,624,624,624,624,624,624,624,624,624,624,624,624,624,624,624,624,624,624,624,624,624,624,624,624,624,624,624,624,624,624,624,624,624,624,624,624,624,624,624,624,624,624,624,624,624,624,624,624,624,624,624,624,624,624,624,624,624,624,624,624,624,624,624,622,609,600,498,443,379,313,243,151,136,131,128,123,120,114,108,103,97],"timestamp_mouse":[13,29,47,66,86,108,126,146,166,188,208,226,248,268,286,308,327,346,368,387,408,428,446,467,488,506,527,547,567,588,606,626,648,666,686,707,727,748,767,788,806,827,846,868,886,906,928,947,968,986,1006,1027,1047,1067,1087,1107,1127,1147,1167,1186,1207,1227,1246,1268,1288,1307,1328,1348,1366,1388,1407,1426,1448,1467,1487,1507,1526,1546,1568,1586,1607,1627,1646,1667,1688,1707,1727,1748],"xSR":741.5,"ySR":573.95,"xT1":424.9,"yT1":0,"xT2":1058.1,"yT2":0,"toosoon":0,"cond_shown":"Congruent","ratio_trial":300,"L_num":4,"L_den":20,"R_num":13,"R_den":26,"correct_side":2,"subjID":"marianaolarte27","gender":"1","school":"4","age":"9"},{"start_time":1552069239607,"click_time":1552069240887,"finger_time":1552069240368,"fix_duration":798.4982824617017,"trial":20,"RT":761,"MT":519,"sideResp":2,"stimulus":[],"xmouse":[784,784,784,784,784,784,784,783,783,785,787,788,788,788,788,788,788,788,788,788,788,788,788,788,788,788,788,788,788,788,788,788,788,788,788,790,800,816,845,941,980,994,998,998,998,1000,1006,1013,1019,1025,1031,1035,1035,1036,1041,1044,1046,1046,1046,1046,1047,1048,1050,1057,1069],"ymouse":[663,663,663,663,663,663,663,662,660,658,655,654,654,654,654,654,654,654,654,654,654,654,654,654,654,654,654,654,654,654,654,654,654,654,654,653,637,606,537,285,194,164,157,156,156,153,143,126,109,91,60,49,48,46,38,36,34,34,34,34,34,34,34,35,39],"timestamp_mouse":[2,38,39,59,81,101,120,141,161,180,200,219,240,260,280,301,319,340,361,381,399,421,441,460,479,501,520,541,560,581,600,621,641,659,680,700,720,740,761,780,799,820,839,860,880,901,920,940,960,980,999,1019,1041,1061,1080,1099,1119,1140,1160,1180,1200,1221,1241,1260,1280],"xSR":741.5,"ySR":573.95,"xT1":424.9,"yT1":0,"xT2":1058.1,"yT2":0,"toosoon":0,"cond_shown":"Incongruent","ratio_trial":200,"L_num":7,"L_den":10,"R_num":14,"R_den":28,"correct_side":1,"subjID":"marianaolarte27","gender":"1","school":"4","age":"9"},{"start_time":1552069245717,"click_time":1552069247748,"finger_time":1552069246627,"fix_duration":1468.9544788935832,"trial":21,"RT":910,"MT":1121,"sideResp":2,"stimulus":[],"xmouse":[811,811,811,811,811,811,811,811,811,811,811,811,811,811,811,811,811,811,811,811,811,811,811,811,811,811,811,811,811,811,811,811,811,811,811,811,811,811,811,811,811,812,814,827,838,849,859,867,873,874,874,874,874,876,882,889,901,907,925,926,927,927,927,927,927,927,927,927,928,930,937,950,967,1037,1094,1158,1204,1235,1238,1238,1238,1238,1238,1238,1238,1238,1238,1238,1222,1200,1175,1160,1152,1150,1150,1149,1144,1140,1132,1131,1130,1130],"ymouse":[620,620,620,620,620,620,620,620,620,620,620,620,620,620,620,620,620,620,620,620,620,620,620,620,620,620,620,620,620,620,620,620,620,620,620,620,620,620,620,620,620,615,612,601,591,582,576,569,565,565,565,565,565,561,553,545,523,514,473,466,462,461,461,461,461,461,461,461,459,448,425,381,317,104,0,0,0,0,0,0,0,0,0,0,0,0,0,0,39,77,110,129,136,137,137,137,134,129,115,110,100,80],"timestamp_mouse":[13,36,51,70,90,110,129,150,170,190,210,229,251,271,290,310,331,351,371,389,410,429,451,471,491,510,529,551,570,591,611,630,651,670,689,710,731,751,769,789,810,829,851,870,891,910,930,949,969,989,1009,1030,1049,1070,1089,1110,1130,1149,1170,1190,1210,1230,1251,1271,1289,1309,1330,1350,1369,1390,1409,1430,1451,1470,1490,1510,1530,1550,1571,1591,1609,1630,1650,1670,1690,1710,1730,1751,1771,1789,1810,1831,1851,1870,1890,1910,1929,1951,1972,1990,2011,2031],"xSR":741.5,"ySR":573.95,"xT1":424.9,"yT1":0,"xT2":1058.1,"yT2":0,"toosoon":0,"cond_shown":"Incongruent","ratio_trial":200,"L_num":4,"L_den":6,"R_num":14,"R_den":30,"correct_side":1,"subjID":"marianaolarte27","gender":"1","school":"4","age":"9"},{"start_time":1552069267224,"click_time":1552069290347,"finger_time":1552069289487,"fix_duration":615.8628054613464,"trial":22,"RT":22263,"MT":860,"sideResp":1,"stimulus":[],"xmouse":[797,797,797,797,797,797,797,797,797,797,797,797,797,797,797,797,797,798,801,801,801,801,801,801,801,801,801,801,801,801,801,801,801,801,801,801,801,801,801,801,801,801,801,801,801,801,801,801,801,801,801,801,801,801,801,801,801,801,801,801,801,801,801,801,801,801,801,801,801,801,801,801,801,801,801,801,801,801,801,801,801,801,801,801,801,801,801,801,801,801,801,801,801,801,801,801,801,801,801,801,801,801,801,801,801,801,801,801,801,801,801,801,801,801,801,801,801,801,801,801,801,801,801,801,801,801,801,801,801,801,801,801,801,801,801,801,801,801,801,801,801,801,801,801,801,801,801,801,801,801,801,801,801,801,801,801,801,801,801,801,801,801,801,801,801,801,801,801,801,801,801,801,801,801,801,801,801,801,801,801,801,801,801,801,801,801,801,801,801,801,801,801,801,801,801,801,801,801,801,801,801,801,801,801,801,801,801,801,801,801,801,801,801,801,801,801,801,801,801,801,801,801,801,801,801,801,801,801,801,801,801,801,801,801,801,801,801,801,801,801,801,801,801,801,801,801,801,801,801,801,801,801,801,801,801,801,801,801,801,801,801,801,801,801,801,801,801,801,801,801,801,801,801,801,801,801,801,801,801,801,801,801,801,801,801,801,801,801,801,801,801,801,801,801,801,801,801,801,801,801,801,801,801,801,801,801,801,801,801,801,801,801,801,801,801,801,801,801,801,801,801,801,801,801,801,801,801,801,801,801,801,801,801,801,801,801,801,801,801,801,801,801,801,801,801,801,801,801,801,801,801,801,801,801,801,801,801,801,801,801,801,801,801,801,801,801,801,801,801,801,801,801,801,801,801,801,801,801,801,801,801,801,801,801,801,801,801,801,801,801,801,801,801,801,801,801,801,801,801,801,801,801,801,801,801,801,801,801,801,801,801,801,801,801,801,801,801,801,801,801,801,801,801,801,801,801,801,801,801,801,801,801,801,801,801,801,801,801,801,801,801,801,801,801,801,801,801,801,801,801,801,801,801,801,801,801,801,801,801,801,801,801,801,801,801,801,801,801,801,801,801,801,801,801,801,801,801,801,801,801,801,801,801,801,801,801,801,801,801,801,801,801,801,801,801,801,801,801,801,801,801,801,801,801,801,801,801,801,801,801,801,801,801,801,801,801,801,801,801,801,801,801,801,801,801,801,801,801,801,801,801,801,801,801,801,801,801,801,801,801,801,801,801,801,801,801,801,801,801,801,801,801,801,801,801,801,801,801,801,801,801,801,801,801,801,801,801,801,801,801,801,801,801,801,801,801,801,801,801,801,801,801,801,801,801,801,801,801,801,801,801,801,801,801,801,801,801,801,801,801,801,801,801,801,801,801,801,801,801,801,801,801,801,801,801,801,801,801,801,801,801,801,801,801,801,801,801,801,801,801,801,801,801,801,801,801,801,801,801,801,801,801,801,801,801,801,801,801,801,801,801,801,801,801,801,801,801,801,801,801,801,801,801,801,801,801,801,801,801,801,801,801,801,801,801,801,801,801,801,801,801,801,801,801,801,801,801,801,801,801,801,801,801,801,801,801,801,801,801,801,801,801,801,801,801,801,801,801,801,801,801,801,801,801,801,801,801,801,801,801,801,801,801,801,801,801,801,801,801,801,801,801,801,801,801,801,801,801,801,801,801,801,801,801,801,801,801,801,801,801,801,801,801,801,801,801,801,801,801,801,801,801,801,801,801,801,801,801,801,801,801,801,801,801,801,801,801,801,801,801,801,801,801,801,801,801,801,801,801,801,801,801,801,801,801,801,801,801,801,801,801,801,801,801,801,801,801,801,801,801,801,801,801,801,801,801,801,801,801,801,801,801,801,801,801,801,801,801,801,801,801,801,801,801,801,801,801,801,801,801,801,801,801,801,801,801,801,801,801,801,801,801,801,801,801,801,801,801,801,801,801,801,801,801,801,801,801,801,801,801,801,801,801,801,801,801,801,801,801,801,801,801,801,801,801,801,801,801,801,801,801,801,801,801,801,801,802,802,802,802,802,802,802,802,802,802,802,802,802,802,802,802,802,802,802,802,802,802,802,802,802,802,802,802,802,802,802,802,802,802,802,802,802,802,802,802,802,802,802,802,802,802,802,802,802,802,802,802,802,802,802,802,802,802,802,802,802,802,802,802,802,802,802,802,802,802,802,802,802,802,802,802,802,802,802,802,802,802,802,802,802,802,802,802,802,802,802,802,802,802,802,802,802,802,802,802,802,802,802,802,802,802,802,802,802,802,802,802,802,802,802,802,802,802,802,802,802,802,802,802,802,802,802,802,802,802,802,802,802,802,802,802,802,802,802,802,802,802,802,802,802,802,802,802,802,802,802,802,802,802,802,802,802,802,802,802,802,802,802,802,802,802,802,802,802,802,802,802,802,802,802,802,802,802,802,802,802,802,802,802,802,802,802,802,802,802,802,802,802,802,802,802,802,802,802,802,802,802,802,802,802,802,802,802,802,802,802,802,802,806,810,817,823,844,852,863,878,896,933,948,957,964,966,949,931,886,818,740,603,537,455,386,294,242,238,238,240,249,271,281,288,294,304,321,333,348,367,381,400,403,404,405,407,413,420,424,428],"ymouse":[640,640,640,640,640,640,640,640,640,640,640,640,640,640,640,640,640,640,638,638,638,638,638,638,638,638,638,638,638,638,638,638,638,638,638,638,638,638,638,638,638,638,638,638,638,638,638,638,638,638,638,638,638,638,638,638,638,638,638,638,638,638,638,638,638,638,638,638,638,638,638,638,638,638,638,638,638,638,638,638,638,638,638,638,638,638,638,638,638,638,638,638,638,638,638,638,638,638,638,638,638,638,638,638,638,638,638,638,638,638,638,638,638,638,638,638,638,638,638,638,638,638,638,638,638,638,638,638,638,638,638,638,638,638,638,638,638,638,638,638,638,638,638,638,638,638,638,638,638,638,638,638,638,638,638,638,638,638,638,638,638,638,638,638,638,638,638,638,638,638,638,638,638,638,638,638,638,638,638,638,638,638,638,638,638,638,638,638,638,638,638,638,638,638,638,638,638,638,638,638,638,638,638,638,638,638,638,638,638,638,638,638,638,638,638,638,638,638,638,638,638,638,638,638,638,638,638,638,638,638,638,638,638,638,638,638,638,638,638,638,638,638,638,638,638,638,638,638,638,638,638,638,638,638,638,638,638,638,638,638,638,638,638,638,638,638,638,638,638,638,638,638,638,638,638,638,638,638,638,638,638,638,638,638,638,638,638,638,638,638,638,638,638,638,638,638,638,638,638,638,638,638,638,638,638,638,638,638,638,638,638,638,638,638,638,638,638,638,638,638,638,638,638,638,638,638,638,638,638,638,638,638,638,638,638,638,638,638,638,638,638,638,638,638,638,638,638,638,638,638,638,638,638,638,638,638,638,638,638,638,638,638,638,638,638,638,638,638,638,638,638,638,638,638,638,638,638,638,638,638,638,638,638,638,638,638,638,638,638,638,638,638,638,638,638,638,638,638,638,638,638,638,638,638,638,638,638,638,638,638,638,638,638,638,638,638,638,638,638,638,638,638,638,638,638,638,638,638,638,638,638,638,638,638,638,638,638,638,638,638,638,638,638,638,638,638,638,638,638,638,638,638,638,638,638,638,638,638,638,638,638,638,638,638,638,638,638,638,638,638,638,638,638,638,638,638,638,638,638,638,638,638,638,638,638,638,638,638,638,638,638,638,638,638,638,638,638,638,638,638,638,638,638,638,638,638,638,638,638,638,638,638,638,638,638,638,638,638,638,638,638,638,638,638,638,638,638,638,638,638,638,638,638,638,638,638,638,638,638,638,638,638,638,638,638,638,638,638,638,638,638,638,638,638,638,638,638,638,638,638,638,638,638,638,638,638,638,638,638,638,638,638,638,638,638,638,638,638,638,638,638,638,638,638,638,638,638,638,638,638,638,638,638,638,638,638,638,638,638,638,638,638,638,638,638,638,638,638,638,638,638,638,638,638,638,638,638,638,638,638,638,638,638,638,638,638,638,638,638,638,638,638,638,638,638,638,638,638,638,638,638,638,638,638,638,638,638,638,638,638,638,638,638,638,638,638,638,638,638,638,638,638,638,638,638,638,638,638,638,638,638,638,638,638,638,638,638,638,638,638,638,638,638,638,638,638,638,638,638,638,638,638,638,638,638,638,638,638,638,638,638,638,638,638,638,638,638,638,638,638,638,638,638,638,638,638,638,638,638,638,638,638,638,638,638,638,638,638,638,638,638,638,638,638,638,638,638,638,638,638,638,638,638,638,638,638,638,638,638,638,638,638,638,638,638,638,638,638,638,638,638,638,638,638,638,638,638,638,638,638,638,638,638,638,638,638,638,638,638,638,638,638,638,638,638,638,638,638,638,638,638,638,638,638,638,638,638,638,638,638,638,638,638,638,638,638,638,638,638,638,638,638,638,638,638,638,638,638,638,638,638,638,638,638,638,638,638,638,638,638,638,638,638,638,638,638,638,638,638,638,638,638,638,638,638,638,638,638,638,638,638,638,638,638,638,638,638,638,638,638,638,638,638,638,638,638,638,638,638,638,638,638,638,638,638,638,638,638,638,638,638,638,638,638,638,638,638,638,638,638,638,638,638,638,638,638,638,638,638,638,638,638,638,638,638,638,638,638,638,638,638,638,638,638,638,638,638,638,638,638,638,638,638,638,638,638,638,638,638,638,638,638,638,638,638,638,638,638,638,638,638,638,638,638,638,638,638,638,638,638,638,638,638,638,638,638,638,638,638,638,638,638,638,638,638,638,638,638,638,638,638,638,638,638,638,638,638,638,638,638,638,638,638,638,638,638,638,638,638,638,638,638,638,638,638,638,638,638,638,638,638,638,638,638,638,638,638,638,638,638,638,638,638,638,638,638,638,638,638,638,638,638,638,638,638,638,638,638,638,638,638,638,638,638,638,638,638,638,638,638,638,638,638,638,638,638,638,638,638,638,638,638,638,638,638,638,638,638,638,638,638,638,638,638,638,638,638,638,638,638,638,638,638,638,638,638,638,638,638,638,638,638,638,638,638,638,638,638,638,638,638,638,638,638,638,638,638,638,638,638,638,638,638,638,638,638,638,638,638,636,632,626,619,590,582,576,568,558,531,520,511,499,489,459,444,417,385,352,295,263,221,181,121,79,75,75,73,71,70,70,70,70,70,74,79,85,93,99,102,102,102,101,99,97,93,91,88],"timestamp_mouse":[13,38,42,62,84,104,123,143,164,183,204,224,243,264,283,303,323,343,363,383,402,424,442,463,483,503,523,543,562,582,603,623,644,664,682,702,724,744,763,782,803,824,843,863,882,903,923,944,963,982,1003,1024,1043,1064,1082,1104,1122,1144,1163,1184,1204,1223,1244,1262,1282,1304,1322,1342,1363,1383,1404,1424,1443,1462,1482,1503,1523,1543,1562,1582,1603,1624,1644,1662,1682,1704,1724,1743,1763,1784,1804,1822,1844,1864,1883,1904,1922,1944,1964,1983,2002,2022,2043,2062,2083,2102,2122,2142,2164,2183,2203,2224,2242,2264,2283,2304,2322,2344,2364,2384,2403,2423,2444,2463,2482,2503,2522,2544,2564,2584,2602,2623,2643,2663,2684,2704,2723,2744,2763,2784,2803,2822,2844,2864,2882,2902,2923,2942,2964,2984,3003,3024,3043,3063,3084,3103,3123,3143,3163,3184,3202,3222,3244,3264,3283,3302,3323,3342,3362,3383,3403,3424,3442,3464,3483,3503,3523,3544,3564,3582,3603,3624,3644,3664,3683,3703,3723,3743,3763,3782,3803,3824,3844,3863,3884,3902,3923,3944,3964,3982,4003,4022,4043,4062,4084,4103,4124,4143,4162,4184,4204,4223,4243,4263,4284,4303,4324,4344,4363,4383,4404,4422,4444,4463,4484,4502,4523,4543,4563,4582,4603,4624,4644,4663,4684,4704,4722,4744,4762,4782,4804,4823,4843,4864,4883,4904,4924,4943,4963,4983,5004,5024,5042,5064,5084,5104,5122,5144,5163,5182,5204,5222,5243,5263,5283,5304,5323,5344,5362,5384,5404,5423,5442,5464,5483,5502,5524,5543,5564,5583,5604,5624,5643,5664,5683,5704,5722,5743,5762,5784,5804,5823,5844,5863,5884,5904,5922,5944,5964,5984,6004,6024,6043,6064,6082,6104,6123,6142,6164,6182,6204,6224,6243,6264,6282,6302,6324,6344,6363,6384,6403,6423,6444,6464,6482,6504,6523,6543,6564,6583,6604,6622,6642,6664,6683,6704,6723,6743,6764,6783,6803,6824,6842,6863,6882,6904,6924,6943,6962,6984,7004,7023,7044,7064,7082,7103,7124,7143,7164,7182,7204,7224,7242,7263,7284,7304,7322,7343,7363,7384,7404,7423,7443,7464,7484,7503,7524,7544,7563,7582,7604,7623,7644,7663,7682,7704,7724,7742,7764,7784,7802,7822,7844,7863,7884,7902,7924,7944,7962,7982,8004,8024,8042,8062,8084,8103,8123,8142,8163,8184,8204,8223,8243,8263,8282,8302,8324,8342,8364,8383,8403,8422,8442,8464,8483,8504,8524,8543,8563,8583,8603,8624,8644,8664,8684,8704,8723,8743,8763,8784,8803,8824,8843,8862,8882,8904,8924,8943,8964,8983,9004,9024,9042,9062,9082,9104,9122,9142,9164,9184,9202,9224,9243,9263,9283,9303,9323,9344,9363,9383,9404,9422,9442,9463,9483,9502,9524,9544,9563,9582,9604,9624,9643,9664,9684,9702,9722,9744,9764,9784,9802,9824,9842,9863,9884,9903,9924,9942,9963,9982,10002,10023,10044,10063,10083,10104,10124,10143,10164,10182,10204,10224,10244,10263,10282,10304,10324,10344,10363,10383,10402,10424,10444,10464,10483,10503,10523,10543,10562,10584,10603,10624,10642,10664,10683,10704,10724,10742,10764,10782,10803,10824,10844,10862,10883,10903,10924,10943,10963,10982,11003,11023,11044,11062,11084,11104,11122,11143,11163,11184,11202,11223,11244,11262,11283,11304,11323,11343,11364,11382,11403,11424,11444,11464,11484,11503,11522,11543,11562,11584,11603,11624,11644,11663,11682,11703,11723,11744,11763,11784,11803,11824,11843,11864,11883,11903,11924,11943,11964,11983,12004,12023,12042,12062,12082,12103,12124,12142,12163,12183,12203,12222,12244,12264,12284,12302,12324,12344,12362,12382,12402,12424,12442,12463,12483,12504,12524,12544,12564,12584,12603,12624,12643,12662,12684,12703,12722,12744,12764,12784,12802,12824,12842,12862,12883,12903,12924,12943,12964,12983,13003,13023,13043,13063,13082,13103,13122,13144,13163,13183,13202,13223,13243,13264,13282,13303,13324,13344,13363,13383,13403,13424,13442,13464,13482,13504,13523,13542,13562,13582,13604,13623,13642,13664,13684,13702,13723,13744,13764,13783,13802,13823,13843,13864,13883,13903,13923,13944,13962,13982,14004,14023,14044,14063,14084,14103,14122,14144,14163,14183,14204,14224,14242,14263,14283,14304,14324,14344,14363,14382,14403,14424,14443,14463,14484,14503,14522,14543,14563,14582,14603,14623,14644,14662,14683,14704,14723,14743,14764,14782,14803,14824,14844,14863,14882,14904,14924,14944,14963,14982,15003,15023,15044,15064,15083,15103,15124,15144,15164,15184,15203,15224,15243,15264,15284,15302,15322,15343,15363,15384,15403,15424,15443,15464,15483,15504,15524,15544,15564,15582,15603,15623,15644,15664,15683,15703,15723,15743,15763,15784,15804,15824,15844,15862,15883,15903,15923,15944,15964,15983,16004,16024,16043,16063,16083,16103,16124,16143,16164,16183,16202,16223,16242,16264,16282,16304,16323,16343,16364,16384,16404,16423,16442,16463,16484,16503,16523,16542,16563,16583,16603,16623,16643,16663,16683,16704,16722,16743,16764,16783,16803,16822,16843,16862,16883,16903,16923,16944,16963,16983,17004,17024,17043,17062,17084,17103,17124,17144,17163,17182,17203,17223,17243,17264,17284,17303,17322,17343,17363,17384,17403,17424,17443,17463,17482,17502,17522,17543,17563,17583,17604,17622,17643,17663,17683,17703,17723,17742,17764,17783,17802,17824,17844,17863,17884,17902,17924,17944,17964,17984,18002,18022,18042,18063,18083,18104,18123,18144,18163,18182,18203,18223,18244,18263,18284,18303,18323,18343,18364,18383,18404,18423,18443,18462,18484,18503,18523,18544,18562,18582,18602,18624,18644,18663,18684,18704,18723,18742,18762,18782,18802,18822,18842,18864,18882,18904,18923,18944,18963,18984,19003,19022,19043,19063,19084,19104,19123,19142,19164,19183,19203,19224,19243,19263,19283,19303,19324,19344,19363,19384,19403,19423,19443,19462,19484,19504,19524,19543,19564,19582,19603,19624,19643,19663,19684,19704,19724,19743,19762,19782,19803,19823,19844,19863,19882,19903,19923,19943,19964,19983,20002,20023,20044,20063,20083,20102,20124,20143,20163,20183,20203,20222,20243,20262,20283,20304,20324,20342,20363,20384,20402,20423,20444,20464,20483,20504,20523,20542,20563,20583,20604,20623,20642,20663,20684,20703,20724,20743,20762,20784,20802,20823,20843,20862,20882,20904,20923,20943,20963,20984,21004,21022,21044,21063,21084,21103,21122,21143,21164,21183,21203,21224,21243,21263,21282,21304,21324,21342,21362,21384,21404,21424,21442,21464,21483,21504,21524,21543,21563,21583,21604,21622,21643,21664,21684,21704,21724,21744,21763,21782,21804,21823,21844,21862,21883,21903,21923,21944,21964,21984,22003,22023,22042,22064,22084,22103,22124,22144,22163,22183,22203,22224,22243,22263,22284,22302,22324,22343,22362,22382,22402,22424,22443,22462,22483,22502,22523,22544,22562,22584,22602,22623,22644,22662,22684,22702,22724,22743,22763,22783,22803,22824,22844,22862,22882,22903,22923,22943,22962,22983,23004,23022,23042,23062,23084,23102,23123],"xSR":741.5,"ySR":573.95,"xT1":424.9,"yT1":0,"xT2":1058.1,"yT2":0,"toosoon":0,"cond_shown":"Congruent","ratio_trial":200,"L_num":7,"L_den":15,"R_num":18,"R_den":27,"correct_side":2,"subjID":"marianaolarte27","gender":"1","school":"4","age":"9"},{"start_time":1552069294655,"click_time":1552069296848,"finger_time":1552069296468,"fix_duration":967.8023397934506,"trial":23,"RT":1813,"MT":380,"sideResp":1,"stimulus":[],"xmouse":[813,813,813,813,813,813,813,813,813,813,813,813,813,813,813,813,813,813,813,813,813,813,813,813,813,813,813,813,813,813,812,812,812,812,812,812,812,812,812,812,812,812,812,812,812,812,812,812,812,812,812,812,812,812,812,812,812,812,812,812,812,812,812,812,812,812,812,812,812,812,812,812,812,812,812,812,812,812,812,812,812,812,812,812,812,807,792,780,769,760,752,731,723,714,703,693,675,669,662,654,649,632,619,602,583,566,534,518,502,491],"ymouse":[656,656,656,656,656,656,656,656,656,656,656,656,656,656,656,656,656,656,656,656,656,656,656,656,656,656,656,656,656,656,656,656,656,656,656,656,656,656,656,656,656,656,656,656,656,656,656,656,656,656,656,656,656,656,656,656,656,656,656,656,656,656,656,656,656,656,656,656,656,656,656,656,656,656,656,656,656,656,656,656,656,656,656,656,656,651,632,614,596,575,557,498,469,440,411,388,350,333,316,299,285,230,207,184,164,151,125,113,105,99],"timestamp_mouse":[14,36,51,73,91,112,133,151,171,193,211,233,252,273,293,312,332,353,371,393,411,432,452,472,492,513,532,551,573,593,612,632,652,673,692,712,733,752,772,792,812,832,852,871,893,913,933,952,971,993,1012,1031,1051,1073,1093,1113,1133,1151,1171,1193,1213,1232,1253,1272,1293,1311,1333,1353,1371,1393,1413,1432,1451,1472,1492,1513,1532,1553,1572,1591,1612,1631,1651,1673,1693,1711,1731,1751,1771,1792,1813,1831,1853,1872,1892,1913,1932,1953,1971,1992,2013,2032,2052,2071,2092,2113,2132,2152,2172,2192],"xSR":741.5,"ySR":573.95,"xT1":424.9,"yT1":0,"xT2":1058.1,"yT2":0,"toosoon":0,"cond_shown":"Incongruent","ratio_trial":100,"L_num":9,"L_den":15,"R_num":13,"R_den":26,"correct_side":1,"subjID":"marianaolarte27","gender":"1","school":"4","age":"9"},{"start_time":1552069298467,"click_time":1552069300448,"finger_time":1552069300046,"fix_duration":258.71656096434106,"trial":24,"RT":1579,"MT":402,"sideResp":1,"stimulus":[],"xmouse":[806,806,806,806,806,806,806,806,806,806,806,806,806,806,806,806,806,806,806,806,806,806,806,806,806,806,806,806,806,806,806,806,806,806,806,806,806,806,806,806,806,806,806,806,806,806,806,806,806,806,806,806,806,806,806,806,806,806,806,806,806,806,806,806,806,806,806,806,806,806,806,806,806,805,804,803,798,791,780,769,755,709,688,668,648,639,626,611,603,600,597,588,570,555,537,521,496,487,479,475],"ymouse":[623,623,623,623,623,623,623,623,623,623,623,623,623,623,623,623,623,623,623,623,623,623,623,623,623,623,623,623,623,623,623,623,623,623,623,623,623,623,623,623,623,623,623,623,623,623,623,623,623,623,623,623,623,623,623,623,623,623,623,623,623,623,623,623,623,623,623,623,623,623,623,623,623,621,617,614,604,592,576,558,537,466,435,403,366,345,313,292,275,265,257,234,209,192,173,158,127,113,100,89],"timestamp_mouse":[7,21,41,59,79,100,121,140,159,180,201,221,241,261,281,299,319,339,361,381,401,420,439,461,481,501,520,540,561,580,600,621,640,659,679,700,719,739,760,780,800,820,840,860,879,901,920,941,961,980,1000,1020,1040,1059,1081,1100,1120,1139,1160,1181,1201,1220,1239,1261,1280,1301,1320,1341,1361,1380,1400,1420,1441,1459,1480,1501,1520,1541,1560,1579,1599,1620,1641,1659,1679,1701,1720,1741,1760,1780,1801,1820,1840,1860,1881,1900,1920,1941,1960,1981],"xSR":741.5,"ySR":573.95,"xT1":424.9,"yT1":0,"xT2":1058.1,"yT2":0,"toosoon":0,"cond_shown":"Incongruent","ratio_trial":200,"L_num":14,"L_den":30,"R_num":6,"R_den":9,"correct_side":2,"subjID":"marianaolarte27","gender":"1","school":"4","age":"9"},{"start_time":1552069303215,"click_time":1552069305467,"finger_time":1552069304787,"fix_duration":1227.6469491417863,"trial":25,"RT":1572,"MT":680,"sideResp":2,"stimulus":[],"xmouse":[764,764,764,764,764,764,764,764,764,764,764,764,764,764,764,764,764,764,764,764,764,764,764,764,764,764,764,764,764,764,764,764,764,764,764,764,764,764,764,764,764,764,764,764,764,764,764,764,764,764,764,764,764,764,764,764,764,764,764,764,764,764,764,764,764,764,764,764,764,764,764,764,764,764,764,764,767,784,880,962,1029,1088,1158,1315,1428,1495,1543,1543,1543,1543,1543,1543,1543,1543,1543,1568,1544,1509,1415,1369,1334,1314,1304,1303,1302,1299,1291,1270,1190,1152,1124,1112,1103],"ymouse":[593,593,593,593,593,593,593,593,593,593,593,593,593,593,593,593,593,593,593,593,593,593,593,593,593,593,593,593,593,593,593,593,593,593,593,593,593,593,593,593,593,593,593,593,593,593,593,593,593,593,593,593,593,593,593,593,593,593,593,593,593,593,593,593,593,593,593,593,593,593,593,593,593,593,593,593,589,577,517,489,475,460,432,343,283,243,216,216,216,216,216,216,216,216,216,74,67,57,16,0,0,0,0,0,0,0,0,0,0,0,0,0,1],"timestamp_mouse":[14,36,53,71,93,112,132,153,172,192,211,232,252,273,292,313,331,352,373,392,411,432,453,472,493,511,532,552,573,592,613,632,653,673,692,711,731,753,772,792,813,832,853,873,892,913,932,953,971,992,1012,1032,1052,1072,1093,1112,1133,1153,1172,1191,1212,1232,1253,1271,1291,1312,1333,1353,1371,1393,1412,1431,1452,1473,1492,1512,1533,1551,1571,1592,1612,1632,1652,1672,1692,1711,1733,1753,1772,1793,1812,1833,1853,1871,1891,1911,1932,1952,1972,1992,2012,2032,2052,2072,2093,2112,2132,2152,2171,2191,2212,2233,2252],"xSR":741.5,"ySR":573.95,"xT1":424.9,"yT1":0,"xT2":1058.1,"yT2":0,"toosoon":0,"cond_shown":"Congruent","ratio_trial":100,"L_num":4,"L_den":10,"R_num":15,"R_den":30,"correct_side":2,"subjID":"marianaolarte27","gender":"1","school":"4","age":"9"},{"start_time":1552069307283,"click_time":1552069309267,"finger_time":1552069308587,"fix_duration":1094.9854156435538,"trial":26,"RT":1304,"MT":680,"sideResp":2,"stimulus":[],"xmouse":[789,789,789,789,789,789,789,789,789,789,789,789,789,789,789,789,789,789,789,789,789,789,789,789,789,789,789,789,789,789,789,789,789,789,789,789,789,789,789,789,789,789,789,789,789,789,789,789,789,789,789,789,789,789,789,789,789,789,789,789,789,789,796,806,820,866,913,983,1053,1147,1230,1249,1263,1275,1284,1292,1294,1294,1292,1279,1253,1244,1238,1232,1229,1229,1229,1229,1228,1226,1204,1194,1186,1180,1174,1172,1170,1170,1167,1153],"ymouse":[615,615,615,615,615,615,615,615,615,615,615,615,615,615,615,615,615,615,615,615,615,615,615,615,615,615,615,615,615,615,615,615,615,615,615,615,615,615,615,615,615,615,615,615,615,615,615,615,615,615,615,615,615,615,615,615,615,615,615,615,615,615,615,611,605,583,556,512,470,411,354,335,313,294,277,249,232,211,186,149,106,94,88,84,83,83,83,83,83,83,83,83,83,82,80,79,78,78,75,69],"timestamp_mouse":[14,39,44,65,85,105,124,145,164,184,204,223,244,265,285,304,324,344,364,385,404,424,444,464,484,505,523,545,564,583,604,624,644,664,684,705,725,744,763,785,805,825,845,864,884,904,925,944,965,983,1004,1024,1044,1065,1085,1105,1123,1145,1165,1185,1204,1225,1243,1264,1285,1304,1323,1344,1365,1385,1404,1425,1443,1464,1484,1504,1523,1544,1565,1584,1604,1623,1644,1665,1685,1704,1723,1743,1763,1784,1804,1824,1845,1864,1885,1904,1925,1943,1963,1984],"xSR":741.5,"ySR":573.95,"xT1":424.9,"yT1":0,"xT2":1058.1,"yT2":0,"toosoon":0,"cond_shown":"Incongruent","ratio_trial":100,"L_num":4,"L_den":8,"R_num":8,"R_den":20,"correct_side":1,"subjID":"marianaolarte27","gender":"1","school":"4","age":"9"},{"start_time":1552069310679,"click_time":1552069312527,"finger_time":1552069312208,"fix_duration":250,"trial":27,"RT":1529,"MT":319,"sideResp":1,"stimulus":[],"xmouse":[760,760,760,760,760,760,760,760,760,760,760,760,760,760,760,760,760,760,760,760,760,760,760,760,760,760,760,760,760,760,760,760,760,760,760,760,760,760,760,760,760,760,760,760,760,760,760,760,760,760,760,760,760,760,760,760,760,760,760,760,760,760,760,760,760,760,760,760,760,760,760,760,760,760,760,754,737,712,685,639,582,570,540,528,521,518,518,518,518,518,518,517,511],"ymouse":[670,670,670,670,670,670,670,670,670,670,670,670,670,670,670,670,670,670,670,670,670,670,670,670,670,670,670,670,670,670,670,670,670,670,670,670,670,670,670,670,670,670,670,670,670,670,670,670,670,670,670,670,670,670,670,670,670,670,670,670,670,670,670,670,670,670,670,670,670,670,670,670,670,670,670,661,622,553,458,298,85,40,0,0,0,0,0,0,0,0,0,0,3],"timestamp_mouse":[12,36,48,68,88,107,128,149,168,188,208,227,249,267,287,308,328,349,369,389,409,427,449,468,489,509,529,549,569,588,609,628,648,669,689,707,729,749,768,789,808,829,848,869,888,907,929,949,969,988,1007,1027,1049,1069,1088,1109,1127,1147,1168,1188,1207,1227,1249,1268,1288,1309,1329,1348,1368,1387,1408,1428,1448,1468,1489,1508,1529,1547,1567,1589,1608,1627,1648,1668,1689,1708,1729,1749,1768,1789,1808,1828,1848],"xSR":741.5,"ySR":573.95,"xT1":424.9,"yT1":0,"xT2":1058.1,"yT2":0,"toosoon":0,"cond_shown":"Congruent","ratio_trial":100,"L_num":11,"L_den":22,"R_num":4,"R_den":10,"correct_side":1,"subjID":"marianaolarte27","gender":"1","school":"4","age":"9"},{"start_time":1552069314608,"click_time":1552069317167,"finger_time":1552069316347,"fix_duration":858.9483305580593,"trial":28,"RT":1739,"MT":820,"sideResp":1,"stimulus":[],"xmouse":[786,786,786,786,786,786,786,786,786,786,786,786,786,786,786,786,786,786,786,786,786,786,786,786,786,786,786,786,786,786,786,786,786,786,786,786,786,786,786,786,786,786,786,786,786,786,786,786,786,786,786,786,786,786,786,786,786,786,786,786,786,786,786,786,786,786,786,786,786,786,786,786,786,786,786,786,786,786,786,786,786,786,786,786,786,786,802,815,855,971,1011,1032,1039,1041,1041,1041,1041,1039,1025,1002,940,859,833,757,720,682,678,678,678,678,676,667,662,649,637,628,609,584,557,512,498,492,492,492,492,491,490,489,489],"ymouse":[590,590,590,590,590,590,590,590,590,590,590,590,590,590,590,590,590,590,590,590,590,590,590,590,590,590,590,590,590,590,590,590,590,590,590,590,590,590,590,590,590,590,590,590,590,590,590,590,590,590,590,590,590,590,590,590,590,590,590,590,590,590,590,590,590,590,590,590,590,590,590,590,590,590,590,590,590,590,590,590,590,590,590,590,590,590,577,567,533,430,395,379,370,367,367,367,367,366,368,369,369,348,337,297,273,247,244,244,243,221,201,164,152,129,119,119,127,132,134,132,130,130,130,130,130,125,114,102,91],"timestamp_mouse":[1,35,38,59,79,98,119,138,160,179,199,219,240,259,279,300,319,338,360,380,400,419,440,460,479,499,519,539,559,579,599,619,639,658,678,698,720,739,758,779,800,818,838,859,880,899,919,938,958,979,999,1020,1038,1058,1080,1099,1119,1140,1160,1179,1199,1220,1238,1259,1280,1300,1319,1339,1360,1379,1400,1420,1438,1460,1480,1498,1518,1539,1558,1579,1599,1619,1639,1658,1680,1699,1719,1739,1760,1779,1799,1819,1840,1859,1879,1899,1919,1940,1960,1978,1998,2019,2039,2060,2078,2098,2119,2139,2160,2179,2199,2219,2239,2260,2279,2299,2318,2340,2359,2378,2398,2419,2439,2460,2479,2499,2519,2539,2559],"xSR":741.5,"ySR":573.95,"xT1":424.9,"yT1":0,"xT2":1058.1,"yT2":0,"toosoon":0,"cond_shown":"Congruent","ratio_trial":100,"L_num":11,"L_den":22,"R_num":6,"R_den":15,"correct_side":1,"subjID":"marianaolarte27","gender":"1","school":"4","age":"9"},{"start_time":1552069318833,"click_time":1552069321007,"finger_time":1552069320447,"fix_duration":464.8584361248265,"trial":29,"RT":1614,"MT":560,"sideResp":1,"stimulus":[],"xmouse":[794,794,794,794,794,794,794,794,794,794,794,794,794,794,794,794,794,794,794,794,794,794,794,794,794,794,794,794,794,794,794,794,794,794,794,794,794,794,794,794,794,794,794,794,794,794,794,794,794,794,794,794,794,794,794,794,794,794,794,794,794,794,794,794,794,794,794,794,794,794,794,794,794,794,794,794,794,794,794,794,797,802,807,809,809,809,807,806,798,793,771,771,75