[{"start_time":1552070111614,"click_time":1552070113722,"finger_time":1552070113442,"fix_duration":807.3906407220474,"trial":0,"RT":1828,"MT":280,"sideResp":1,"stimulus":"img/250/equaldotanddens/L/7_Ratio_250_L_8_R_2.png","xmouse":[808,808,808,808,808,808,808,808,808,808,808,808,808,808,808,808,808,808,808,808,808,808,808,808,808,808,808,808,808,808,808,808,808,808,808,808,808,808,808,808,808,808,808,808,808,808,808,808,808,808,808,808,808,808,808,808,808,808,808,808,808,808,808,808,808,808,808,808,808,808,808,808,808,808,808,808,808,808,808,808,808,808,808,808,802,798,794,784,771,753,691,633,544,455,360,369,394,415,427,440,445,456,467,482,504],"ymouse":[541,541,541,541,541,541,541,541,541,541,541,541,541,541,541,541,541,541,541,541,541,541,541,541,541,541,541,541,541,541,541,541,541,541,541,541,541,541,541,541,541,541,541,541,541,541,541,541,541,541,541,541,541,541,541,541,541,541,541,541,541,541,541,541,541,541,541,541,541,541,541,541,541,541,541,541,541,541,541,541,541,541,541,541,541,541,540,537,531,522,510,510,510,519,538,518,461,407,369,264,223,182,156,130,90],"timestamp_mouse":[10,47,66,87,106,128,146,167,187,207,227,247,266,288,307,327,347,367,386,406,427,446,467,486,507,528,547,566,587,608,628,647,666,687,708,726,747,767,786,808,828,846,867,886,908,926,946,967,987,1006,1026,1046,1066,1087,1107,1126,1146,1168,1188,1208,1226,1247,1266,1286,1307,1328,1347,1367,1386,1407,1428,1447,1468,1488,1507,1528,1547,1566,1587,1607,1627,1648,1667,1686,1707,1726,1747,1767,1787,1806,1828,1846,1866,1886,1907,1926,1947,1966,1986,2008,2028,2047,2068,2087,2107],"xSR":733.5,"ySR":495.95,"xT1":420.09999999999997,"yT1":0,"xT2":1046.8999999999999,"yT2":0,"toosoon":0,"cond_shown":"equaldotanddens","ratio_trial":250,"smaller_num":"2","larger_num":"8","correct_side":1,"subjID":"marianaolarte27","gender":"1","age":"9","school":"4","test":{"fix_dur":[250,1500],"timestim":300,"targets_dim":[100,100],"targets_relative_coord":[0.3,0.7],"size_stim":[880,420],"start_dim":[100,100],"size_start":[300,300],"size_fix":60,"samplingrate":20,"img_types":["equaldotsize","equaldotanddens","randomdotsizeEA"],"ratios":[250,500,750,900],"rep_conds":9,"nTrials":120,"trials_to_rest":500,"Trials_order":[25,108,77,27,11,114,99,19,103,104,58,102,94,41,31,47,12,57,6,81,3,74,117,89,54,65,61,46,71,13,97,93,32,26,80,86,63,69,22,42,28,35,15,87,49,119,1,29,70,64,113,90,110,30,79,36,24,85,39,45,38,112,100,16,7,48,82,40,96,18,72,76,115,83,21,75,92,91,62,98,10,37,55,53,0,118,107,73,111,50,101,106,33,52,109,105,59,5,66,9,84,8,2,88,23,14,44,95,43,4,34,56,17,51,78,20,67,60,68,116],"cond_shown":["equaldotanddens","equaldotsize","randomdotsizeEA","equaldotsize","randomdotsizeEA","equaldotsize","equaldotsize","equaldotanddens","equaldotanddens","randomdotsizeEA","equaldotanddens","equaldotsize","equaldotanddens","randomdotsizeEA","equaldotanddens","randomdotsizeEA","equaldotsize","equaldotsize","equaldotsize","equaldotsize","equaldotsize","randomdotsizeEA","equaldotsize","randomdotsizeEA","equaldotsize","randomdotsizeEA","equaldotanddens","equaldotanddens","randomdotsizeEA","equaldotanddens","equaldotanddens","equaldotsize","randomdotsizeEA","randomdotsizeEA","randomdotsizeEA","randomdotsizeEA","equaldotsize","equaldotsize","equaldotanddens","equaldotsize","equaldotanddens","randomdotsizeEA","equaldotsize","equaldotsize","equaldotanddens","randomdotsizeEA","equaldotanddens","randomdotsizeEA","equaldotanddens","equaldotanddens","randomdotsizeEA","equaldotsize","randomdotsizeEA","equaldotsize","equaldotanddens","equaldotsize","equaldotsize","equaldotanddens","equaldotsize","equaldotsize","randomdotsizeEA","equaldotanddens","equaldotanddens","equaldotanddens","equaldotanddens","equaldotsize","equaldotanddens","equaldotanddens","equaldotsize","equaldotsize","equaldotsize","equaldotanddens","equaldotanddens","randomdotsizeEA","equaldotsize","equaldotsize","randomdotsizeEA","equaldotanddens","randomdotsizeEA","randomdotsizeEA","equaldotanddens","equaldotanddens","equaldotanddens","randomdotsizeEA","equaldotsize","equaldotanddens","randomdotsizeEA","equaldotanddens","equaldotsize","randomdotsizeEA","randomdotsizeEA","equaldotanddens","equaldotsize","equaldotanddens","equaldotanddens","equaldotsize","randomdotsizeEA","randomdotsizeEA","equaldotsize","equaldotsize","equaldotsize","randomdotsizeEA","randomdotsizeEA","equaldotanddens","randomdotsizeEA","randomdotsizeEA","randomdotsizeEA","randomdotsizeEA","equaldotanddens","equaldotanddens","equaldotanddens","randomdotsizeEA","randomdotsizeEA","equaldotsize","equaldotsize","randomdotsizeEA","equaldotanddens","equaldotsize","randomdotsizeEA","randomdotsizeEA"],"ratio_trial":[250,250,500,500,900,750,500,750,750,750,900,750,900,500,750,900,250,900,750,900,500,250,900,500,750,500,250,900,900,250,250,900,750,250,750,250,500,900,900,750,500,900,500,500,250,900,250,500,900,500,500,750,250,750,750,250,250,250,500,900,250,500,500,500,750,250,900,500,250,750,250,500,750,900,900,500,750,750,250,250,900,250,750,500,250,900,900,250,500,250,500,900,900,500,250,900,900,500,750,900,250,750,250,500,900,250,750,900,750,500,900,750,500,500,750,750,750,250,750,750],"smaller_num":["2","3","6","9","9","15","9","3","12","15","18","6","18","1","3","18","3","18","6","18","5","2","18","6","15","9","2","18","18","2","2","18","3","3","6","2","6","18","9","15","1","18","1","3","2","9","6","2","9","1","10","3","6","6","12","3","6","3","6","9","2","1","4","4","3","5","18","2","6","15","6","9","3","18","9","3","3","15","6","3","18","2","15","9","4","18","9","1","2","3","2","18","9","5","2","9","18","2","15","9","3","15","2","2","9","2","9","9","3","2","18","3","9","6","15","15","9","3","15","15"],"larger_num":["8","12","12","18","10","20","18","4","16","20","20","8","20","2","4","20","12","20","8","20","10","8","20","12","20","18","8","20","20","8","8","20","4","12","8","8","12","20","10","20","2","20","2","6","8","10","24","4","10","2","20","4","24","8","16","12","24","12","12","10","8","2","8","8","4","20","20","4","24","20","24","18","4","20","10","6","4","20","24","12","20","8","20","18","16","20","10","4","4","12","4","20","10","10","8","10","20","4","20","10","12","20","8","4","10","8","12","10","4","4","20","4","18","12","20","20","12","12","20","20"],"correct_side":[1,1,1,1,2,1,2,1,2,2,1,2,2,2,2,1,1,1,2,1,1,1,2,1,1,1,1,1,2,2,1,1,2,2,1,1,1,1,1,2,2,1,2,2,1,2,1,2,2,2,2,1,1,1,2,2,2,2,1,1,1,2,1,1,1,2,1,2,1,1,2,2,2,1,1,2,1,2,1,1,2,1,1,1,1,1,2,2,2,2,1,2,2,1,1,2,1,1,2,2,2,1,1,1,2,1,2,2,2,1,2,2,1,1,1,2,2,2,2,2],"img_shown":["img/250/equaldotanddens/L/7_Ratio_250_L_8_R_2.png","img/250/equaldotsize/L/15_Ratio_250_L_12_R_3.png","img/500/randomdotsizeEA/L/13_Ratio_500_L_12_R_6.png","img/500/equaldotsize/L/4_Ratio_500_L_18_R_9.png","img/900/randomdotsizeEA/R/15_Ratio_900_L_9_R_10.png","img/750/equaldotsize/L/1_Ratio_750_L_20_R_15.png","img/500/equaldotsize/R/6_Ratio_500_L_9_R_18.png","img/750/equaldotanddens/L/9_Ratio_750_L_4_R_3.png","img/750/equaldotanddens/R/11_Ratio_750_L_12_R_16.png","img/750/randomdotsizeEA/R/5_Ratio_750_L_15_R_20.png","img/900/equaldotanddens/L/2_Ratio_900_L_20_R_18.png","img/750/equaldotsize/R/2_Ratio_750_L_6_R_8.png","img/900/equaldotanddens/R/14_Ratio_900_L_18_R_20.png","img/500/randomdotsizeEA/R/15_Ratio_500_L_1_R_2.png","img/750/equaldotanddens/R/7_Ratio_750_L_3_R_4.png","img/900/randomdotsizeEA/L/8_Ratio_900_L_20_R_18.png","img/250/equaldotsize/L/14_Ratio_250_L_12_R_3.png","img/900/equaldotsize/L/2_Ratio_900_L_20_R_18.png","img/750/equaldotsize/R/2_Ratio_750_L_6_R_8.png","img/900/equaldotsize/L/8_Ratio_900_L_20_R_18.png","img/500/equaldotsize/L/7_Ratio_500_L_10_R_5.png","img/250/randomdotsizeEA/L/3_Ratio_250_L_8_R_2.png","img/900/equaldotsize/R/9_Ratio_900_L_18_R_20.png","img/500/randomdotsizeEA/L/13_Ratio_500_L_12_R_6.png","img/750/equaldotsize/L/1_Ratio_750_L_20_R_15.png","img/500/randomdotsizeEA/L/4_Ratio_500_L_18_R_9.png","img/250/equaldotanddens/L/1_Ratio_250_L_8_R_2.png","img/900/equaldotanddens/L/8_Ratio_900_L_20_R_18.png","img/900/randomdotsizeEA/R/14_Ratio_900_L_18_R_20.png","img/250/equaldotanddens/R/13_Ratio_250_L_2_R_8.png","img/250/equaldotanddens/L/7_Ratio_250_L_8_R_2.png","img/900/equaldotsize/L/8_Ratio_900_L_20_R_18.png","img/750/randomdotsizeEA/R/7_Ratio_750_L_3_R_4.png","img/250/randomdotsizeEA/R/11_Ratio_250_L_3_R_12.png","img/750/randomdotsizeEA/L/14_Ratio_750_L_8_R_6.png","img/250/randomdotsizeEA/L/7_Ratio_250_L_8_R_2.png","img/500/equaldotsize/L/11_Ratio_500_L_12_R_6.png","img/900/equaldotsize/L/4_Ratio_900_L_20_R_18.png","img/900/equaldotanddens/L/1_Ratio_900_L_10_R_9.png","img/750/equaldotsize/R/4_Ratio_750_L_15_R_20.png","img/500/equaldotanddens/R/12_Ratio_500_L_1_R_2.png","img/900/randomdotsizeEA/L/2_Ratio_900_L_20_R_18.png","img/500/equaldotsize/R/15_Ratio_500_L_1_R_2.png","img/500/equaldotsize/R/2_Ratio_500_L_3_R_6.png","img/250/equaldotanddens/L/7_Ratio_250_L_8_R_2.png","img/900/randomdotsizeEA/R/5_Ratio_900_L_9_R_10.png","img/250/equaldotanddens/L/5_Ratio_250_L_24_R_6.png","img/500/randomdotsizeEA/R/9_Ratio_500_L_2_R_4.png","img/900/equaldotanddens/R/3_Ratio_900_L_9_R_10.png","img/500/equaldotanddens/R/15_Ratio_500_L_1_R_2.png","img/500/randomdotsizeEA/R/3_Ratio_500_L_10_R_20.png","img/750/equaldotsize/L/10_Ratio_750_L_4_R_3.png","img/250/randomdotsizeEA/L/5_Ratio_250_L_24_R_6.png","img/750/equaldotsize/L/13_Ratio_750_L_8_R_6.png","img/750/equaldotanddens/R/11_Ratio_750_L_12_R_16.png","img/250/equaldotsize/R/9_Ratio_250_L_3_R_12.png","img/250/equaldotsize/R/6_Ratio_250_L_6_R_24.png","img/250/equaldotanddens/R/11_Ratio_250_L_3_R_12.png","img/500/equaldotsize/L/11_Ratio_500_L_12_R_6.png","img/900/equaldotsize/L/1_Ratio_900_L_10_R_9.png","img/250/randomdotsizeEA/L/7_Ratio_250_L_8_R_2.png","img/500/equaldotanddens/R/12_Ratio_500_L_1_R_2.png","img/500/equaldotanddens/L/8_Ratio_500_L_8_R_4.png","img/500/equaldotanddens/L/8_Ratio_500_L_8_R_4.png","img/750/equaldotanddens/L/8_Ratio_750_L_4_R_3.png","img/250/equaldotsize/R/12_Ratio_250_L_5_R_20.png","img/900/equaldotanddens/L/2_Ratio_900_L_20_R_18.png","img/500/equaldotanddens/R/9_Ratio_500_L_2_R_4.png","img/250/equaldotsize/L/5_Ratio_250_L_24_R_6.png","img/750/equaldotsize/L/1_Ratio_750_L_20_R_15.png","img/250/equaldotsize/R/6_Ratio_250_L_6_R_24.png","img/500/equaldotanddens/R/1_Ratio_500_L_9_R_18.png","img/750/equaldotanddens/R/7_Ratio_750_L_3_R_4.png","img/900/randomdotsizeEA/L/4_Ratio_900_L_20_R_18.png","img/900/equaldotsize/L/1_Ratio_900_L_10_R_9.png","img/500/equaldotsize/R/2_Ratio_500_L_3_R_6.png","img/750/randomdotsizeEA/L/9_Ratio_750_L_4_R_3.png","img/750/equaldotanddens/R/5_Ratio_750_L_15_R_20.png","img/250/randomdotsizeEA/L/5_Ratio_250_L_24_R_6.png","img/250/randomdotsizeEA/L/14_Ratio_250_L_12_R_3.png","img/900/equaldotanddens/R/12_Ratio_900_L_18_R_20.png","img/250/equaldotanddens/L/7_Ratio_250_L_8_R_2.png","img/750/equaldotanddens/L/1_Ratio_750_L_20_R_15.png","img/500/randomdotsizeEA/L/4_Ratio_500_L_18_R_9.png","img/250/equaldotsize/L/2_Ratio_250_L_16_R_4.png","img/900/equaldotanddens/L/4_Ratio_900_L_20_R_18.png","img/900/randomdotsizeEA/R/15_Ratio_900_L_9_R_10.png","img/250/equaldotanddens/R/8_Ratio_250_L_1_R_4.png","img/500/equaldotsize/R/9_Ratio_500_L_2_R_4.png","img/250/randomdotsizeEA/R/11_Ratio_250_L_3_R_12.png","img/500/randomdotsizeEA/L/10_Ratio_500_L_4_R_2.png","img/900/equaldotanddens/R/12_Ratio_900_L_18_R_20.png","img/900/equaldotsize/R/6_Ratio_900_L_9_R_10.png","img/500/equaldotanddens/L/7_Ratio_500_L_10_R_5.png","img/250/equaldotanddens/L/3_Ratio_250_L_8_R_2.png","img/900/equaldotsize/R/15_Ratio_900_L_9_R_10.png","img/900/randomdotsizeEA/L/10_Ratio_900_L_20_R_18.png","img/500/randomdotsizeEA/L/10_Ratio_500_L_4_R_2.png","img/750/equaldotsize/R/4_Ratio_750_L_15_R_20.png","img/900/equaldotsize/R/7_Ratio_900_L_9_R_10.png","img/250/equaldotsize/R/4_Ratio_250_L_3_R_12.png","img/750/randomdotsizeEA/L/1_Ratio_750_L_20_R_15.png","img/250/randomdotsizeEA/L/1_Ratio_250_L_8_R_2.png","img/500/equaldotanddens/L/5_Ratio_500_L_4_R_2.png","img/900/randomdotsizeEA/R/5_Ratio_900_L_9_R_10.png","img/250/randomdotsizeEA/L/7_Ratio_250_L_8_R_2.png","img/750/randomdotsizeEA/R/15_Ratio_750_L_9_R_12.png","img/900/randomdotsizeEA/R/7_Ratio_900_L_9_R_10.png","img/750/equaldotanddens/R/12_Ratio_750_L_3_R_4.png","img/500/equaldotanddens/L/10_Ratio_500_L_4_R_2.png","img/900/equaldotanddens/R/9_Ratio_900_L_18_R_20.png","img/750/randomdotsizeEA/R/7_Ratio_750_L_3_R_4.png","img/500/randomdotsizeEA/L/4_Ratio_500_L_18_R_9.png","img/500/equaldotsize/L/13_Ratio_500_L_12_R_6.png","img/750/equaldotsize/L/1_Ratio_750_L_20_R_15.png","img/750/randomdotsizeEA/R/4_Ratio_750_L_15_R_20.png","img/750/equaldotanddens/R/15_Ratio_750_L_9_R_12.png","img/250/equaldotsize/R/4_Ratio_250_L_3_R_12.png","img/750/randomdotsizeEA/R/3_Ratio_750_L_15_R_20.png","img/750/randomdotsizeEA/R/3_Ratio_750_L_15_R_20.png"],"Rat0":[["12_Ratio_0_L_9_R_0.png","13_Ratio_0_L_6_R_0.png","5_Ratio_0_L_2_R_0.png","6_Ratio_0_L_4_R_0.png","8_Ratio_0_L_6_R_0.png"],["1_Ratio_0_L_0_R_17.png","10_Ratio_0_L_0_R_22.png","11_Ratio_0_L_0_R_1.png","14_Ratio_0_L_0_R_24.png","15_Ratio_0_L_0_R_4.png","2_Ratio_0_L_0_R_5.png","3_Ratio_0_L_0_R_17.png","4_Ratio_0_L_0_R_7.png","7_Ratio_0_L_0_R_19.png","9_Ratio_0_L_0_R_15.png"]],"Rat250":[["1_Ratio_250_L_8_R_2.png","14_Ratio_250_L_12_R_3.png","15_Ratio_250_L_12_R_3.png","2_Ratio_250_L_16_R_4.png","3_Ratio_250_L_8_R_2.png","5_Ratio_250_L_24_R_6.png","7_Ratio_250_L_8_R_2.png"],["10_Ratio_250_L_4_R_16.png","11_Ratio_250_L_3_R_12.png","12_Ratio_250_L_5_R_20.png","13_Ratio_250_L_2_R_8.png","4_Ratio_250_L_3_R_12.png","6_Ratio_250_L_6_R_24.png","8_Ratio_250_L_1_R_4.png","9_Ratio_250_L_3_R_12.png"]],"Rat500":[["10_Ratio_500_L_4_R_2.png","11_Ratio_500_L_12_R_6.png","13_Ratio_500_L_12_R_6.png","4_Ratio_500_L_18_R_9.png","5_Ratio_500_L_4_R_2.png","7_Ratio_500_L_10_R_5.png","8_Ratio_500_L_8_R_4.png"],["1_Ratio_500_L_9_R_18.png","12_Ratio_500_L_1_R_2.png","14_Ratio_500_L_5_R_10.png","15_Ratio_500_L_1_R_2.png","2_Ratio_500_L_3_R_6.png","3_Ratio_500_L_10_R_20.png","6_Ratio_500_L_9_R_18.png","9_Ratio_500_L_2_R_4.png"]],"Rat750":[["1_Ratio_750_L_20_R_15.png","10_Ratio_750_L_4_R_3.png","13_Ratio_750_L_8_R_6.png","14_Ratio_750_L_8_R_6.png","6_Ratio_750_L_24_R_18.png","8_Ratio_750_L_4_R_3.png","9_Ratio_750_L_4_R_3.png"],["11_Ratio_750_L_12_R_16.png","12_Ratio_750_L_3_R_4.png","15_Ratio_750_L_9_R_12.png","2_Ratio_750_L_6_R_8.png","3_Ratio_750_L_15_R_20.png","4_Ratio_750_L_15_R_20.png","5_Ratio_750_L_15_R_20.png","7_Ratio_750_L_3_R_4.png"]],"Rat900":[["1_Ratio_900_L_10_R_9.png","10_Ratio_900_L_20_R_18.png","2_Ratio_900_L_20_R_18.png","4_Ratio_900_L_20_R_18.png","8_Ratio_900_L_20_R_18.png"],["11_Ratio_900_L_18_R_20.png","12_Ratio_900_L_18_R_20.png","13_Ratio_900_L_18_R_20.png","14_Ratio_900_L_18_R_20.png","15_Ratio_900_L_9_R_10.png","3_Ratio_900_L_9_R_10.png","5_Ratio_900_L_9_R_10.png","6_Ratio_900_L_9_R_10.png","7_Ratio_900_L_9_R_10.png","9_Ratio_900_L_18_R_20.png"]],"Rat1000":[["10_Ratio_1000_L_16_R_16.png","11_Ratio_1000_L_6_R_6.png","12_Ratio_1000_L_14_R_14.png","13_Ratio_1000_L_20_R_20.png","15_Ratio_1000_L_15_R_15.png","2_Ratio_1000_L_17_R_17.png","4_Ratio_1000_L_9_R_9.png","5_Ratio_1000_L_6_R_6.png","6_Ratio_1000_L_19_R_19.png","8_Ratio_1000_L_14_R_14.png","9_Ratio_1000_L_25_R_25.png"],["1_Ratio_1000_L_1_R_1.png","14_Ratio_1000_L_17_R_17.png","3_Ratio_1000_L_17_R_17.png","7_Ratio_1000_L_6_R_6.png"]]}},{"start_time":1552070115619,"click_time":1552070116461,"finger_time":1552070116340,"fix_duration":917.4362866377288,"trial":1,"RT":721,"MT":121,"sideResp":1,"stimulus":"img/250/equaldotsize/L/15_Ratio_250_L_12_R_3.png","xmouse":[779,779,779,779,779,779,779,779,779,779,779,779,779,779,779,779,779,779,779,779,779,779,779,779,779,779,779,779,779,779,779,779,779,779,772,743,708,664,622,584,510,477,463],"ymouse":[555,555,555,555,555,555,555,555,555,555,555,555,555,555,555,555,555,555,555,555,555,555,555,555,555,555,555,555,555,555,555,555,555,555,552,505,444,371,304,238,140,105,94],"timestamp_mouse":[11,36,42,62,81,102,122,143,161,183,202,222,242,261,282,301,322,341,361,382,403,421,441,462,481,502,521,542,561,582,601,623,642,661,681,701,721,741,761,783,802,821,842],"xSR":733.5,"ySR":464.1,"xT1":420.09999999999997,"yT1":0,"xT2":1046.8999999999999,"yT2":0,"toosoon":0,"cond_shown":"equaldotsize","ratio_trial":250,"smaller_num":"3","larger_num":"12","correct_side":1,"subjID":"marianaolarte27","gender":"1","age":"9","school":"4"},{"start_time":1552070117656,"click_time":1552070118721,"finger_time":1552070118420,"fix_duration":473.30837344406626,"trial":2,"RT":764,"MT":301,"sideResp":2,"stimulus":"img/500/randomdotsizeEA/L/13_Ratio_500_L_12_R_6.png","xmouse":[781,781,781,781,781,781,781,781,781,781,781,781,781,781,781,781,781,781,781,781,781,781,781,781,781,781,781,781,781,781,781,781,781,788,798,810,823,831,844,852,858,861,865,883,886,890,896,902,913,926,944,974,1041,1133],"ymouse":[553,553,553,553,553,553,553,553,553,553,553,553,553,553,553,553,553,553,553,553,553,553,553,553,553,553,553,553,553,553,553,553,552,545,537,525,514,503,477,451,430,406,383,306,278,259,239,224,200,181,163,141,89,25],"timestamp_mouse":[27,28,44,65,84,104,124,144,164,186,204,225,244,264,284,305,324,345,364,385,404,424,446,464,484,504,526,544,565,585,605,624,644,665,684,705,726,746,764,784,804,825,845,864,884,904,924,944,964,986,1004,1025,1044,1064],"xSR":733.5,"ySR":464.1,"xT1":420.09999999999997,"yT1":0,"xT2":1046.8999999999999,"yT2":0,"toosoon":0,"cond_shown":"randomdotsizeEA","ratio_trial":500,"smaller_num":"6","larger_num":"12","correct_side":1,"subjID":"marianaolarte27","gender":"1","age":"9","school":"4"},{"start_time":1552070120665,"click_time":1552070121762,"finger_time":1552070121420,"fix_duration":1003.9505486004427,"trial":3,"RT":755,"MT":342,"sideResp":1,"stimulus":"img/500/equaldotsize/L/4_Ratio_500_L_18_R_9.png","xmouse":[766,766,766,766,766,766,766,766,766,766,766,767,768,768,768,768,768,768,768,768,768,768,768,768,768,768,768,768,768,768,768,768,768,768,768,767,762,730,699,685,680,679,679,678,674,669,661,648,633,616,599,581,541,525,510],"ymouse":[518,518,518,518,518,518,518,518,518,518,519,521,521,521,521,521,521,521,521,521,521,521,521,521,521,521,521,521,521,521,521,521,521,521,521,503,485,381,298,249,217,196,167,158,146,137,126,114,105,95,84,71,42,30,20],"timestamp_mouse":[15,36,56,75,97,117,137,155,176,196,216,235,256,276,296,316,335,356,377,396,416,436,457,475,496,515,536,556,576,596,616,637,656,675,697,715,735,755,776,796,816,835,856,875,896,916,937,956,975,995,1015,1035,1056,1075,1097],"xSR":733.5,"ySR":464.1,"xT1":420.09999999999997,"yT1":0,"xT2":1046.8999999999999,"yT2":0,"toosoon":0,"cond_shown":"equaldotsize","ratio_trial":500,"smaller_num":"9","larger_num":"18","correct_side":1,"subjID":"marianaolarte27","gender":"1","age":"9","school":"4"},{"start_time":1552070122953,"click_time":1552070124402,"finger_time":1552070123761,"fix_duration":250,"trial":4,"RT":808,"MT":641,"sideResp":2,"stimulus":"img/900/randomdotsizeEA/R/15_Ratio_900_L_9_R_10.png","xmouse":[775,775,775,775,775,775,775,775,775,775,775,775,775,775,775,775,775,775,775,775,775,775,775,775,775,775,775,775,775,775,775,775,775,775,775,775,775,775,782,796,818,844,865,917,927,929,931,931,931,931,932,933,936,950,961,974,986,996,1012,1015,1016,1017,1019,1028,1031,1032,1033,1033,1033,1035,1038,1042,1048],"ymouse":[526,526,526,526,526,526,526,526,526,526,526,526,526,526,526,526,526,526,526,526,526,526,526,526,526,526,526,526,526,526,526,526,526,526,526,526,526,526,516,493,460,422,389,300,266,245,229,217,210,206,203,201,194,178,171,163,156,150,140,138,136,133,129,108,101,95,92,92,92,88,83,76,69],"timestamp_mouse":[12,36,47,68,89,109,128,147,168,188,207,228,249,268,287,307,328,347,368,387,407,428,449,467,488,507,528,548,569,588,609,628,648,667,689,709,727,747,768,787,808,828,847,869,887,907,928,948,967,988,1007,1027,1048,1068,1087,1107,1128,1147,1168,1187,1207,1227,1247,1268,1288,1307,1329,1349,1368,1387,1408,1428,1448],"xSR":733.5,"ySR":464.1,"xT1":420.09999999999997,"yT1":0,"xT2":1046.8999999999999,"yT2":0,"toosoon":0,"cond_shown":"randomdotsizeEA","ratio_trial":900,"smaller_num":"9","larger_num":"10","correct_side":2,"subjID":"marianaolarte27","gender":"1","age":"9","school":"4"},{"start_time":1552070131572,"click_time":1552070132581,"finger_time":1552070132360,"fix_duration":250,"trial":5,"RT":788,"MT":221,"sideResp":1,"stimulus":"img/750/equaldotsize/L/1_Ratio_750_L_20_R_15.png","xmouse":[801,801,801,801,801,801,801,801,801,801,801,801,801,801,801,801,801,801,801,801,801,801,801,801,801,801,801,801,801,801,801,801,801,801,801,801,801,800,789,767,733,689,624,604,594,586,576,550,532,510,493],"ymouse":[495,495,495,495,495,495,495,495,495,495,495,495,495,495,495,495,495,495,495,495,495,495,495,495,495,495,495,495,495,495,495,495,495,495,495,495,495,493,476,448,408,357,282,249,231,215,199,159,133,102,75],"timestamp_mouse":[13,33,49,70,89,108,128,148,168,188,208,228,249,268,289,309,330,350,369,389,408,429,449,468,490,508,530,549,568,588,608,629,648,669,689,709,728,748,768,788,808,829,848,869,888,910,929,948,968,989,1009],"xSR":733.5,"ySR":464.1,"xT1":420.09999999999997,"yT1":0,"xT2":1046.8999999999999,"yT2":0,"toosoon":0,"cond_shown":"equaldotsize","ratio_trial":750,"smaller_num":"15","larger_num":"20","correct_side":1,"subjID":"marianaolarte27","gender":"1","age":"9","school":"4"},{"start_time":1552070134883,"click_time":1552070136742,"finger_time":1552070135641,"fix_duration":1421.6709134696541,"trial":6,"RT":758,"MT":1101,"sideResp":2,"stimulus":"img/500/equaldotsize/R/6_Ratio_500_L_9_R_18.png","xmouse":[782,782,782,782,782,782,782,782,782,782,782,782,782,782,782,782,782,782,782,782,782,782,782,782,782,782,782,782,782,782,782,782,782,782,786,799,813,848,858,870,883,907,914,918,921,925,939,960,975,985,991,992,992,994,997,1009,1058,1128,1180,1224,1242,1242,1242,1242,1242,1242,1242,1242,1242,1242,1242,1242,1242,1242,1242,1242,1242,1242,1242,1242,1242,1242,1034,1034,1034,1034,1034,1034,1034,1034,1034,1041,1048],"ymouse":[528,528,528,528,528,528,528,528,528,528,528,528,528,528,528,528,528,528,528,528,528,528,528,528,528,528,528,528,528,528,528,528,528,527,522,509,495,461,445,429,411,380,369,363,358,352,328,293,264,245,233,230,230,229,226,221,192,134,84,41,16,16,16,16,16,16,16,16,16,16,16,16,16,16,16,16,16,16,16,16,16,16,1,2,2,2,2,2,2,2,4,13,20],"timestamp_mouse":[19,39,59,79,98,117,139,157,179,199,218,237,257,279,297,317,337,357,378,397,418,438,459,478,499,518,538,557,578,598,619,638,657,678,697,718,737,758,777,798,818,837,857,878,898,918,938,957,977,999,1017,1038,1059,1078,1097,1117,1138,1158,1177,1199,1218,1238,1258,1277,1297,1317,1337,1358,1377,1397,1417,1438,1457,1478,1499,1518,1538,1557,1577,1597,1618,1639,1658,1677,1698,1719,1738,1757,1778,1798,1818,1838,1859],"xSR":733.5,"ySR":464.1,"xT1":420.09999999999997,"yT1":0,"xT2":1046.8999999999999,"yT2":0,"toosoon":0,"cond_shown":"equaldotsize","ratio_trial":500,"smaller_num":"9","larger_num":"18","correct_side":2,"subjID":"marianaolarte27","gender":"1","age":"9","school":"4"},{"start_time":1552070142367,"click_time":1552070144821,"finger_time":1552070143841,"fix_duration":345.9559404812418,"trial":7,"RT":1474,"MT":980,"sideResp":1,"stimulus":"img/750/equaldotanddens/L/9_Ratio_750_L_4_R_3.png","xmouse":[798,798,798,798,798,798,798,798,798,798,798,798,798,798,798,798,798,798,798,798,798,798,798,798,798,798,798,798,798,798,798,798,798,798,798,798,798,798,798,798,798,798,798,798,798,798,798,798,798,798,798,798,798,798,798,798,798,798,798,798,798,798,798,798,798,798,798,798,798,798,798,806,821,847,866,888,907,949,975,998,1028,1049,1077,1088,1091,1093,1093,1093,1089,1087,1087,1087,1087,1083,1069,1051,1030,996,983,967,949,925,850,826,811,799,794,791,784,771,754,738,700,661,637,610,585,544,533,527,524,522,512],"ymouse":[500,500,500,500,500,500,500,500,500,500,500,500,500,500,500,500,500,500,500,500,500,500,500,500,500,500,500,500,500,500,500,500,500,500,500,500,500,500,500,500,500,500,500,500,500,500,500,500,500,500,500,500,500,500,500,500,500,500,500,500,500,500,500,500,500,500,500,500,500,500,500,496,486,471,460,447,439,417,403,384,360,338,301,275,258,239,217,183,172,168,168,168,168,168,175,186,198,217,225,231,237,239,239,235,229,222,219,218,215,211,207,200,184,167,153,135,114,78,68,62,58,53,33],"timestamp_mouse":[13,33,53,74,95,113,134,154,174,193,214,233,253,273,294,314,334,354,374,393,413,434,454,473,493,513,534,553,573,594,613,633,653,674,693,714,733,754,774,793,815,833,854,875,893,913,935,954,974,995,1013,1033,1053,1074,1093,1113,1133,1153,1175,1193,1213,1235,1254,1274,1294,1313,1333,1354,1375,1394,1413,1435,1453,1474,1493,1514,1533,1554,1573,1594,1614,1633,1654,1675,1693,1715,1734,1753,1773,1794,1813,1833,1853,1873,1893,1914,1935,1953,1973,1994,2013,2033,2054,2075,2094,2114,2133,2154,2173,2194,2213,2234,2254,2273,2293,2314,2333,2354,2373,2393,2414,2434,2454],"xSR":733.5,"ySR":464.1,"xT1":420.09999999999997,"yT1":0,"xT2":1046.8999999999999,"yT2":0,"toosoon":0,"cond_shown":"equaldotanddens","ratio_trial":750,"smaller_num":"3","larger_num":"4","correct_side":1,"subjID":"marianaolarte27","gender":"1","age":"9","school":"4"},{"start_time":1552070146132,"click_time":1552070147121,"finger_time":1552070146841,"fix_duration":250,"trial":8,"RT":709,"MT":280,"sideResp":2,"stimulus":"img/750/equaldotanddens/R/11_Ratio_750_L_12_R_16.png","xmouse":[760,760,760,760,760,760,760,760,760,760,760,760,760,760,760,760,760,760,760,760,760,760,760,760,760,760,760,760,760,760,760,760,760,765,793,848,886,931,953,974,980,985,995,1003,1019,1037,1055,1068,1076,1083],"ymouse":[516,516,516,516,516,516,516,516,516,516,516,516,516,516,516,516,516,516,516,516,516,516,516,516,516,516,516,516,516,516,516,516,516,512,488,431,390,345,320,291,282,270,254,239,211,179,148,120,101,76],"timestamp_mouse":[17,42,48,69,89,109,130,148,169,188,208,228,248,268,290,308,328,348,369,389,409,429,448,469,489,509,529,550,569,589,609,628,650,670,688,709,728,750,769,789,808,829,849,868,889,908,929,949,969,989],"xSR":733.5,"ySR":464.1,"xT1":420.09999999999997,"yT1":0,"xT2":1046.8999999999999,"yT2":0,"toosoon":0,"cond_shown":"equaldotanddens","ratio_trial":750,"smaller_num":"12","larger_num":"16","correct_side":2,"subjID":"marianaolarte27","gender":"1","age":"9","school":"4"},{"start_time":1552070148588,"click_time":1552070150300,"finger_time":1552070149820,"fix_duration":666.1431145603485,"trial":9,"RT":1232,"MT":480,"sideResp":1,"stimulus":"img/750/randomdotsizeEA/R/5_Ratio_750_L_15_R_20.png","xmouse":[756,756,756,756,756,756,756,756,756,756,756,756,756,756,756,756,756,756,756,756,756,756,756,756,756,756,756,756,756,756,756,756,756,756,756,756,756,759,771,784,796,808,808,808,808,808,808,808,808,808,808,808,808,808,805,799,792,790,788,785,782,768,751,737,723,707,685,673,661,648,631,592,575,555,545,539,536,536,536,536,536,535,533,530,525,514],"ymouse":[521,521,521,521,521,521,521,521,521,521,521,521,521,521,521,521,521,521,521,521,521,521,521,521,521,521,521,521,521,521,521,521,521,521,521,521,521,518,510,501,493,486,486,486,486,486,486,486,486,486,486,486,486,486,486,486,483,482,480,479,476,464,443,427,412,394,361,345,329,311,288,236,211,178,155,136,114,108,104,102,102,99,97,95,91,86],"timestamp_mouse":[13,33,53,74,92,112,132,153,173,194,213,232,253,272,292,314,334,352,373,394,413,432,452,473,493,513,533,553,573,593,612,632,653,675,693,713,734,752,772,793,812,833,854,872,893,913,932,953,972,993,1012,1032,1052,1072,1093,1113,1132,1154,1173,1193,1214,1232,1253,1272,1293,1312,1334,1353,1373,1393,1412,1433,1453,1472,1493,1513,1532,1552,1573,1592,1612,1633,1653,1672,1692,1712],"xSR":733.5,"ySR":464.1,"xT1":420.09999999999997,"yT1":0,"xT2":1046.8999999999999,"yT2":0,"toosoon":0,"cond_shown":"randomdotsizeEA","ratio_trial":750,"smaller_num":"15","larger_num":"20","correct_side":2,"subjID":"marianaolarte27","gender":"1","age":"9","school":"4"},{"start_time":1552070153253,"click_time":1552070154343,"finger_time":1552070154061,"fix_duration":250,"trial":10,"RT":808,"MT":282,"sideResp":2,"stimulus":"img/900/equaldotanddens/L/2_Ratio_900_L_20_R_18.png","xmouse":[758,758,758,758,758,758,758,758,758,758,758,758,758,758,758,758,758,758,758,758,758,758,758,758,758,758,758,758,758,758,758,758,758,758,758,758,758,763,780,818,855,893,917,962,979,992,1001,1011,1024,1037,1045,1055,1075,1099,1117],"ymouse":[536,536,536,536,536,536,536,536,536,536,536,536,536,536,536,536,536,536,536,536,536,536,536,536,536,536,536,536,536,536,536,536,536,536,536,536,536,531,513,488,466,445,427,391,375,360,346,333,312,290,275,257,200,129,87],"timestamp_mouse":[20,40,48,68,87,107,128,147,167,187,208,227,247,268,288,307,329,347,367,389,408,427,448,467,487,508,528,548,568,588,608,627,648,668,688,707,727,747,768,789,808,829,848,869,887,908,928,949,969,988,1008,1028,1048,1069,1089],"xSR":733.5,"ySR":464.1,"xT1":420.09999999999997,"yT1":0,"xT2":1046.8999999999999,"yT2":0,"toosoon":0,"cond_shown":"equaldotanddens","ratio_trial":900,"smaller_num":"18","larger_num":"20","correct_side":1,"subjID":"marianaolarte27","gender":"1","age":"9","school":"4"},{"start_time":1552070156551,"click_time":1552070157541,"finger_time":1552070157301,"fix_duration":1329.1182046279673,"trial":11,"RT":750,"MT":240,"sideResp":2,"stimulus":"img/750/equaldotsize/R/2_Ratio_750_L_6_R_8.png","xmouse":[752,752,752,752,752,752,752,752,752,752,752,752,752,752,752,752,752,752,752,752,752,752,752,752,752,752,752,752,752,752,752,752,752,752,753,775,810,859,965,1006,1034,1063,1074,1080,1081,1081,1081,1081,1083,1084],"ymouse":[518,518,518,518,518,518,518,518,518,518,518,518,518,518,518,518,518,518,518,518,518,518,518,518,518,518,518,518,518,518,518,518,518,518,514,503,485,452,366,326,283,225,197,167,147,141,134,127,107,97],"timestamp_mouse":[13,35,51,70,90,110,131,149,169,191,211,231,250,271,290,310,330,351,370,391,410,430,451,470,490,510,530,551,570,591,611,631,650,670,691,710,730,750,771,789,810,830,850,871,889,910,930,950,970,990],"xSR":733.5,"ySR":464.1,"xT1":420.09999999999997,"yT1":0,"xT2":1046.8999999999999,"yT2":0,"toosoon":0,"cond_shown":"equaldotsize","ratio_trial":750,"smaller_num":"6","larger_num":"8","correct_side":2,"subjID":"marianaolarte27","gender":"1","age":"9","school":"4"},{"start_time":1552070161851,"click_time":1552070162902,"finger_time":1552070162561,"fix_duration":1429.7109598890022,"trial":12,"RT":710,"MT":341,"sideResp":2,"stimulus":"img/900/equaldotanddens/R/14_Ratio_900_L_18_R_20.png","xmouse":[778,779,779,780,780,780,780,780,780,780,780,780,780,780,780,780,780,780,780,780,780,780,780,780,780,780,780,780,780,780,780,780,780,780,791,815,865,917,953,992,999,1000,1000,1000,1000,1000,1000,1000,1004,1016,1027,1040,1055],"ymouse":[477,477,477,477,477,477,477,477,477,477,477,477,477,477,477,477,477,477,477,477,477,477,477,477,477,477,477,477,477,477,477,477,477,477,469,444,392,342,310,265,245,229,216,195,190,187,184,182,169,147,130,113,96],"timestamp_mouse":[14,39,50,71,90,111,130,151,169,190,211,231,249,271,289,311,330,350,370,390,410,431,450,470,490,510,530,550,571,591,610,630,650,670,690,710,730,750,770,791,810,830,849,870,890,910,929,951,970,991,1010,1030,1050],"xSR":733.5,"ySR":464.1,"xT1":420.09999999999997,"yT1":0,"xT2":1046.8999999999999,"yT2":0,"toosoon":0,"cond_shown":"equaldotanddens","ratio_trial":900,"smaller_num":"18","larger_num":"20","correct_side":2,"subjID":"marianaolarte27","gender":"1","age":"9","school":"4"},{"start_time":1552070164452,"click_time":1552070166241,"finger_time":1552070165461,"fix_duration":430.2108765860797,"trial":13,"RT":1009,"MT":780,"sideResp":2,"stimulus":"img/500/randomdotsizeEA/R/15_Ratio_500_L_1_R_2.png","xmouse":[795,794,794,794,794,794,794,794,794,794,793,791,791,791,791,791,791,791,791,791,791,791,791,791,791,791,791,791,791,791,791,791,791,791,791,791,791,791,791,791,791,791,791,791,791,791,791,794,808,826,836,842,849,873,886,897,903,907,912,914,915,920,925,934,944,958,969,977,977,977,977,977,977,978,989,1003,1021,1043,1087,1098,1106,1110,1111,1111,1111,1111,1111,1111,1111,1111],"ymouse":[534,534,534,534,534,534,534,534,534,534,534,534,534,534,534,534,534,534,534,534,534,534,534,534,534,534,534,534,534,534,534,534,534,534,534,534,534,534,534,534,534,534,534,534,534,534,534,530,506,466,430,403,381,308,283,267,255,245,228,215,203,193,182,161,148,132,121,115,113,112,112,112,112,110,109,109,109,109,112,112,108,104,101,101,101,101,101,100,100,98],"timestamp_mouse":[13,33,49,69,89,109,130,150,169,189,209,229,250,269,290,309,330,350,370,390,409,429,450,470,489,510,529,550,570,590,610,628,650,669,689,709,728,750,769,790,809,830,850,869,890,909,929,950,969,990,1009,1030,1049,1069,1089,1109,1129,1149,1170,1190,1209,1230,1249,1269,1289,1309,1329,1350,1369,1389,1409,1429,1449,1469,1489,1510,1529,1550,1569,1590,1609,1630,1650,1669,1689,1709,1729,1749,1769,1789],"xSR":733.5,"ySR":464.1,"xT1":420.09999999999997,"yT1":0,"xT2":1046.8999999999999,"yT2":0,"toosoon":0,"cond_shown":"randomdotsizeEA","ratio_trial":500,"smaller_num":"1","larger_num":"2","correct_side":2,"subjID":"marianaolarte27","gender":"1","age":"9","school":"4"},{"start_time":1552070168019,"click_time":1552070169222,"finger_time":1552070168761,"fix_duration":836.0458377921158,"trial":14,"RT":742,"MT":461,"sideResp":2,"stimulus":"img/750/equaldotanddens/R/7_Ratio_750_L_3_R_4.png","xmouse":[799,799,799,799,799,799,799,799,799,799,799,799,799,799,799,799,799,799,799,799,799,799,799,799,799,799,799,799,799,799,799,799,799,799,801,815,829,850,872,898,980,1047,1083,1103,1116,1121,1121,1121,1120,1119,1114,1105,1102,1099,1097,1093,1091,1089,1088,1088,1088],"ymouse":[510,510,510,510,510,510,510,510,510,510,510,510,510,510,510,510,510,510,510,510,510,510,510,510,510,510,510,510,510,510,510,510,510,510,509,501,493,481,468,447,380,329,299,279,261,237,231,227,224,220,208,187,174,156,139,116,112,107,105,102,98],"timestamp_mouse":[12,36,42,62,82,102,122,143,163,183,203,222,243,263,283,302,323,342,362,383,402,422,443,463,483,502,523,542,562,583,603,623,643,663,682,702,723,742,763,782,802,823,842,862,882,903,922,942,962,982,1002,1023,1042,1062,1082,1103,1123,1142,1162,1182,1203],"xSR":733.5,"ySR":464.1,"xT1":420.09999999999997,"yT1":0,"xT2":1046.8999999999999,"yT2":0,"toosoon":0,"cond_shown":"equaldotanddens","ratio_trial":750,"smaller_num":"3","larger_num":"4","correct_side":2,"subjID":"marianaolarte27","gender":"1","age":"9","school":"4"},{"start_time":1552070171238,"click_time":1552070172323,"finger_time":1552070172021,"fix_duration":1016.257777835011,"trial":15,"RT":783,"MT":302,"sideResp":2,"stimulus":"img/900/randomdotsizeEA/L/8_Ratio_900_L_20_R_18.png","xmouse":[756,756,756,756,756,756,756,756,756,756,756,756,756,756,756,756,756,756,756,756,756,756,756,756,756,756,756,756,756,756,756,756,756,756,756,759,765,785,813,856,974,1011,1039,1055,1068,1071,1072,1073,1073,1073,1075,1075,1075,1074,1073],"ymouse":[510,510,510,510,510,510,510,510,510,510,510,510,510,510,510,510,510,510,510,510,510,510,510,510,510,510,510,510,510,510,510,510,510,510,510,510,508,499,485,459,369,321,287,265,237,223,213,204,194,158,137,124,110,100,96],"timestamp_mouse":[13,35,43,63,83,103,124,144,163,184,204,224,244,264,284,302,324,344,364,383,404,424,443,463,483,503,522,543,563,583,604,623,643,664,684,703,724,743,763,783,803,823,843,863,883,904,923,944,963,984,1003,1023,1044,1063,1084],"xSR":733.5,"ySR":464.1,"xT1":420.09999999999997,"yT1":0,"xT2":1046.8999999999999,"yT2":0,"toosoon":0,"cond_shown":"randomdotsizeEA","ratio_trial":900,"smaller_num":"18","larger_num":"20","correct_side":1,"subjID":"marianaolarte27","gender":"1","age":"9","school":"4"},{"start_time":1552070173493,"click_time":1552070174321,"finger_time":1552070174242,"fix_duration":250,"trial":16,"RT":749,"MT":79,"sideResp":1,"stimulus":"img/250/equaldotsize/L/14_Ratio_250_L_12_R_3.png","xmouse":[764,764,764,762,762,762,762,762,762,762,762,762,762,762,762,762,762,762,762,762,762,762,762,762,762,762,762,762,762,762,762,762,762,762,762,762,747,719,675,609,552,487],"ymouse":[540,540,540,541,541,541,541,541,541,541,541,541,541,541,541,541,541,541,541,541,541,541,541,541,541,541,541,541,541,541,541,541,541,541,541,541,511,444,344,234,136,21],"timestamp_mouse":[12,44,47,68,89,108,128,148,169,188,208,228,249,268,289,308,328,349,369,388,407,428,449,468,488,508,529,549,569,589,608,628,648,668,688,709,728,749,768,789,808,828],"xSR":733.5,"ySR":464.1,"xT1":420.09999999999997,"yT1":0,"xT2":1046.8999999999999,"yT2":0,"toosoon":0,"cond_shown":"equaldotsize","ratio_trial":250,"smaller_num":"3","larger_num":"12","correct_side":1,"subjID":"marianaolarte27","gender":"1","age":"9","school":"4"},{"start_time":1552070176366,"click_time":1552070177622,"finger_time":1552070177021,"fix_duration":703.9641321496549,"trial":17,"RT":655,"MT":601,"sideResp":2,"stimulus":"img/900/equaldotsize/L/2_Ratio_900_L_20_R_18.png","xmouse":[795,795,795,795,795,795,795,795,795,795,795,795,795,795,795,795,795,795,795,795,795,795,795,795,795,795,795,795,795,795,795,802,838,871,890,898,905,911,914,912,909,906,908,918,935,946,953,957,958,963,971,986,1026,1050,1062,1065,1067,1067,1068,1068,1069,1069,1071],"ymouse":[540,540,540,540,540,540,540,540,540,540,540,540,540,540,540,540,540,540,540,540,540,540,540,540,540,540,540,540,540,540,539,531,486,430,377,354,338,320,283,261,242,220,192,176,162,151,145,144,144,144,145,145,146,146,146,146,146,146,145,145,142,136,99],"timestamp_mouse":[21,35,55,75,95,116,136,156,175,196,216,235,256,274,296,315,336,356,376,396,416,435,456,475,495,515,536,555,575,595,615,635,655,675,695,715,735,755,775,795,815,836,856,876,895,916,935,955,975,996,1015,1036,1055,1075,1095,1115,1135,1155,1176,1195,1216,1235,1256],"xSR":733.5,"ySR":464.1,"xT1":420.09999999999997,"yT1":0,"xT2":1046.8999999999999,"yT2":0,"toosoon":0,"cond_shown":"equaldotsize","ratio_trial":900,"smaller_num":"18","larger_num":"20","correct_side":1,"subjID":"marianaolarte27","gender":"1","age":"9","school":"4"},{"start_time":1552070178727,"click_time":1552070180181,"finger_time":1552070179481,"fix_duration":305.57662799141116,"trial":18,"RT":754,"MT":700,"sideResp":2,"stimulus":"img/750/equaldotsize/R/2_Ratio_750_L_6_R_8.png","xmouse":[766,766,766,766,765,765,765,765,765,765,765,765,765,765,765,765,765,765,765,765,765,765,765,765,765,765,765,765,765,765,765,765,765,765,766,777,790,805,824,874,893,909,922,931,938,942,945,954,965,996,1016,1031,1044,1052,1063,1085,1088,1090,1091,1099,1107,1110,1113,1113,1112,1112,1112,1111,1110,1108,1106,1103,1102],"ymouse":[502,502,502,502,503,503,503,503,503,503,503,503,503,503,503,503,503,503,503,503,503,503,503,503,503,503,503,503,503,503,503,503,503,503,500,490,477,462,444,392,371,351,336,324,314,307,302,293,280,251,237,227,218,212,204,184,178,175,173,166,158,151,143,139,131,131,129,127,124,115,108,102,97],"timestamp_mouse":[13,40,53,75,94,114,135,155,173,194,215,234,253,275,294,314,334,354,373,395,414,434,455,475,494,514,535,555,574,594,614,634,655,675,694,715,734,754,774,795,813,834,854,874,895,914,934,954,974,994,1014,1034,1054,1075,1094,1115,1134,1155,1174,1194,1215,1235,1255,1274,1294,1315,1333,1354,1374,1395,1415,1435,1454],"xSR":733.5,"ySR":464.1,"xT1":420.09999999999997,"yT1":0,"xT2":1046.8999999999999,"yT2":0,"toosoon":0,"cond_shown":"equaldotsize","ratio_trial":750,"smaller_num":"6","larger_num":"8","correct_side":2,"subjID":"marianaolarte27","gender":"1","age":"9","school":"4"},{"start_time":1552070182436,"click_time":1552070183481,"finger_time":1552070183181,"fix_duration":1351.2335419312267,"trial":19,"RT":745,"MT":300,"sideResp":2,"stimulus":"img/900/equaldotsize/L/8_Ratio_900_L_20_R_18.png","xmouse":[761,761,761,761,761,761,761,761,761,761,761,761,761,761,761,761,761,761,761,761,761,761,761,761,761,761,761,761,761,761,761,761,761,766,783,805,831,855,876,905,925,937,949,962,999,1025,1048,1064,1074,1086,1090,1095,1101],"ymouse":[511,511,511,511,511,511,511,511,511,511,511,511,511,511,511,511,511,511,511,511,511,511,511,511,511,511,511,511,511,511,511,511,511,510,500,487,467,449,434,414,398,384,368,350,298,266,240,215,195,157,126,105,82],"timestamp_mouse":[13,36,45,66,86,106,125,146,166,185,205,225,245,266,286,305,325,345,366,385,406,425,445,465,486,506,525,544,565,586,605,625,646,665,685,705,726,745,765,786,806,825,845,864,886,905,925,945,966,985,1006,1025,1045],"xSR":733.5,"ySR":464.1,"xT1":420.09999999999997,"yT1":0,"xT2":1046.8999999999999,"yT2":0,"toosoon":0,"cond_shown":"equaldotsize","ratio_trial":900,"smaller_num":"18","larger_num":"20","correct_side":1,"subjID":"marianaolarte27","gender":"1","age":"9","school":"4"},{"start_time":1552070185108,"click_time":1552070186742,"finger_time":1552070186041,"fix_duration":786.4271396906175,"trial":20,"RT":933,"MT":701,"sideResp":1,"stimulus":"img/500/equaldotsize/L/7_Ratio_500_L_10_R_5.png","xmouse":[772,772,772,772,772,772,772,772,772,772,772,772,772,772,772,772,772,772,772,772,772,772,772,772,772,772,772,772,772,772,772,772,772,772,772,772,772,772,772,772,772,772,772,772,772,778,930,1029,1107,1163,1203,1210,1211,1211,1211,1212,1212,1212,1212,1212,1205,1192,1168,1114,1032,819,731,646,591,568,548,547,547,547,545,540,539,539,539,536,521,511],"ymouse":[509,509,509,509,509,509,509,509,509,509,509,509,509,509,509,509,509,509,509,509,509,509,509,509,509,509,509,509,509,509,509,509,509,509,509,509,509,509,509,509,509,509,509,509,510,509,391,308,246,197,149,134,129,127,127,124,120,118,118,117,117,117,123,130,142,150,143,127,110,99,83,80,77,71,64,54,53,53,53,53,52,51],"timestamp_mouse":[14,46,54,73,94,114,134,153,174,194,213,235,253,274,294,313,333,353,374,394,413,433,454,474,494,513,534,553,574,593,614,633,653,674,693,713,732,754,774,793,813,834,854,873,893,913,933,953,973,993,1014,1032,1054,1074,1093,1113,1133,1153,1172,1193,1213,1233,1254,1273,1293,1314,1334,1353,1374,1394,1413,1432,1453,1473,1493,1513,1534,1554,1573,1594,1613,1634],"xSR":733.5,"ySR":464.1,"xT1":420.09999999999997,"yT1":0,"xT2":1046.8999999999999,"yT2":0,"toosoon":0,"cond_shown":"equaldotsize","ratio_trial":500,"smaller_num":"5","larger_num":"10","correct_side":1,"subjID":"marianaolarte27","gender":"1","age":"9","school":"4"},{"start_time":1552070188098,"click_time":1552070189441,"finger_time":1552070188921,"fix_duration":454.6933052993627,"trial":21,"RT":823,"MT":520,"sideResp":1,"stimulus":"img/250/randomdotsizeEA/L/3_Ratio_250_L_8_R_2.png","xmouse":[777,777,777,777,777,777,777,777,777,777,777,777,777,777,777,777,777,777,777,777,777,777,777,777,777,777,777,777,777,777,777,777,777,777,777,777,777,777,777,769,757,717,702,688,678,670,661,658,657,657,657,658,661,662,662,661,630,603,589,583,580,579,577,571,565,557,534,510],"ymouse":[539,539,539,539,539,539,539,539,539,539,539,539,539,539,539,539,539,539,539,539,539,539,539,539,539,539,539,539,539,539,539,539,539,539,539,539,539,539,538,532,520,482,461,441,422,405,373,350,333,317,299,255,231,203,176,149,82,46,30,24,21,20,20,19,18,18,21,35],"timestamp_mouse":[10,36,43,64,83,103,123,144,163,183,203,222,244,264,284,303,324,344,364,384,403,423,444,463,483,503,522,543,563,584,603,623,644,664,683,703,723,744,764,783,803,823,843,863,883,904,923,944,963,983,1003,1023,1043,1063,1082,1104,1123,1143,1163,1184,1203,1223,1243,1263,1283,1303,1323,1343],"xSR":733.5,"ySR":464.1,"xT1":420.09999999999997,"yT1":0,"xT2":1046.8999999999999,"yT2":0,"toosoon":0,"cond_shown":"randomdotsizeEA","ratio_trial":250,"smaller_num":"2","larger_num":"8","correct_side":1,"subjID":"marianaolarte27","gender":"1","age":"9","school":"4"},{"start_time":1552070190433,"click_time":1552070191241,"finger_time":1552070191121,"fix_duration":250,"trial":22,"RT":688,"MT":120,"sideResp":2,"stimulus":"img/900/equaldotsize/R/9_Ratio_900_L_18_R_20.png","xmouse":[753,753,753,753,753,753,753,753,753,753,753,753,753,753,753,753,753,753,753,753,750,748,748,748,748,748,748,748,748,748,747,752,767,802,910,958,995,1022,1040,1055,1062],"ymouse":[551,551,551,551,551,551,551,551,551,551,551,551,551,551,551,551,551,551,551,552,552,552,552,552,552,552,552,552,552,552,552,544,526,490,385,317,262,214,174,119,94],"timestamp_mouse":[16,36,49,67,88,109,129,147,168,188,208,229,247,268,288,309,328,348,368,388,408,428,448,468,488,508,528,549,567,588,609,628,649,668,688,709,728,749,768,788,808],"xSR":733.5,"ySR":464.1,"xT1":420.09999999999997,"yT1":0,"xT2":1046.8999999999999,"yT2":0,"toosoon":0,"cond_shown":"equaldotsize","ratio_trial":900,"smaller_num":"18","larger_num":"20","correct_side":2,"subjID":"marianaolarte27","gender":"1","age":"9","school":"4"},{"start_time":1552070197124,"click_time":1552070198641,"finger_time":1552070198221,"fix_duration":1141.498212507092,"trial":23,"RT":1097,"MT":420,"sideResp":1,"stimulus":"img/500/randomdotsizeEA/L/13_Ratio_500_L_12_R_6.png","xmouse":[784,784,784,784,784,784,784,784,784,784,784,784,784,784,784,784,784,784,784,784,784,784,784,784,784,784,784,784,784,784,784,784,784,784,784,784,784,784,784,784,784,784,784,784,784,784,784,784,784,784,784,784,780,774,754,737,728,721,717,710,704,700,695,686,671,654,640,627,613,578,559,559,559,559,559,512],"ymouse":[544,544,544,544,544,544,544,544,544,544,544,544,544,544,544,544,544,544,544,544,544,544,544,544,544,544,544,544,544,544,544,544,544,544,544,544,544,544,544,544,544,544,544,544,544,544,544,544,544,544,543,537,525,507,457,413,392,372,350,287,249,209,173,144,106,85,75,61,48,15,1,1,1,1,1,6],"timestamp_mouse":[17,37,58,77,98,117,138,157,178,197,217,238,257,277,297,317,338,357,377,397,418,437,457,478,497,518,537,557,577,598,617,637,657,677,697,718,737,758,777,797,817,837,858,877,897,917,937,958,977,996,1017,1038,1057,1077,1097,1117,1137,1158,1177,1198,1216,1237,1257,1278,1297,1317,1337,1357,1377,1398,1417,1440,1457,1477,1497,1516],"xSR":733.5,"ySR":464.1,"xT1":420.09999999999997,"yT1":0,"xT2":1046.8999999999999,"yT2":0,"toosoon":0,"cond_shown":"randomdotsizeEA","ratio_trial":500,"smaller_num":"6","larger_num":"12","correct_side":1,"subjID":"marianaolarte27","gender":"1","age":"9","school":"4"},{"start_time":1552070200308,"click_time":1552070201582,"finger_time":1552070201141,"fix_duration":505.62101444235117,"trial":24,"RT":833,"MT":441,"sideResp":2,"stimulus":"img/750/equaldotsize/L/1_Ratio_750_L_20_R_15.png","xmouse":[790,790,790,790,790,790,790,790,790,790,790,790,790,790,790,790,790,790,790,790,790,790,790,790,790,790,790,790,790,790,790,790,790,790,790,789,793,798,807,816,830,855,869,883,899,941,958,977,999,1035,1091,1113,1126,1132,1135,1135,1136,1136,1136,1136,1136,1136,1136,1136],"ymouse":[509,509,509,509,509,509,509,509,509,509,509,509,509,509,509,509,509,509,509,509,509,509,509,509,509,509,509,509,509,509,509,509,509,509,509,508,505,502,496,489,478,451,435,419,403,372,362,354,344,326,293,278,265,254,251,246,235,225,214,200,183,137,115,97],"timestamp_mouse":[12,36,54,73,94,112,133,154,173,193,214,232,254,273,293,313,333,354,374,393,414,433,453,474,494,513,533,554,573,593,614,634,652,674,693,713,734,753,773,793,813,833,853,873,893,913,933,953,973,993,1013,1032,1053,1073,1093,1114,1133,1153,1174,1193,1213,1233,1253,1273],"xSR":733.5,"ySR":464.1,"xT1":420.09999999999997,"yT1":0,"xT2":1046.8999999999999,"yT2":0,"toosoon":0,"cond_shown":"equaldotsize","ratio_trial":750,"smaller_num":"15","larger_num":"20","correct_side":1,"subjID":"marianaolarte27","gender":"1","age":"9","school":"4"},{"start_time":1552070203396,"click_time":1552070204722,"finger_time":1552070204242,"fix_duration":1053.8560426262661,"trial":25,"RT":846,"MT":480,"sideResp":1,"stimulus":"img/500/randomdotsizeEA/L/4_Ratio_500_L_18_R_9.png","xmouse":[761,761,761,761,761,761,761,761,761,761,761,761,761,761,761,761,761,761,761,761,761,761,761,761,761,761,761,761,761,761,761,761,761,761,761,761,761,761,761,761,760,758,733,717,699,680,651,639,628,617,607,600,587,583,579,574,563,558,555,551,547,545,545,544,538,533,520],"ymouse":[517,517,517,517,517,517,517,517,517,517,517,517,517,517,517,517,517,517,517,517,517,517,517,517,517,517,517,517,517,517,517,517,517,517,517,517,517,517,517,517,516,512,463,436,405,370,317,296,278,260,242,231,210,206,198,185,142,116,92,74,61,56,56,56,56,58,60],"timestamp_mouse":[12,25,45,66,84,106,126,145,165,185,205,226,246,265,285,305,326,346,365,386,405,425,446,465,486,505,525,545,565,586,605,625,645,665,686,704,726,746,765,786,806,825,846,866,885,905,925,944,965,985,1006,1025,1045,1065,1085,1104,1125,1146,1165,1186,1205,1225,1246,1265,1285,1306,1325],"xSR":733.5,"ySR":464.1,"xT1":420.09999999999997,"yT1":0,"xT2":1046.8999999999999,"yT2":0,"toosoon":0,"cond_shown":"randomdotsizeEA","ratio_trial":500,"smaller_num":"9","larger_num":"18","correct_side":1,"subjID":"marianaolarte27","gender":"1","age":"9","school":"4"},{"start_time":1552070206164,"click_time":1552070207422,"finger_time":1552070206881,"fix_duration":480.55542416928773,"trial":26,"RT":717,"MT":541,"sideResp":1,"stimulus":"img/250/equaldotanddens/L/1_Ratio_250_L_8_R_2.png","xmouse":[744,744,744,744,744,744,744,744,744,744,744,744,744,744,744,744,744,744,744,744,744,744,744,744,744,744,744,744,744,744,744,744,744,744,743,732,719,705,682,675,668,664,659,633,616,601,590,583,582,581,580,577,563,558,552,548,547,543,541,538,532,527,517],"ymouse":[540,540,540,540,540,540,540,540,540,540,540,540,540,540,540,540,540,540,540,540,540,540,540,540,540,540,540,540,540,540,540,540,540,540,536,518,494,464,407,390,378,372,368,353,344,332,321,306,300,293,283,268,219,200,184,171,165,154,149,139,127,115,85],"timestamp_mouse":[20,45,57,77,97,117,137,158,177,197,217,237,257,277,296,317,338,357,377,397,417,438,458,478,498,517,537,557,577,597,617,638,657,677,697,717,737,757,777,797,817,837,857,877,897,917,937,957,977,997,1016,1038,1058,1078,1097,1117,1137,1157,1177,1197,1217,1238,1258],"xSR":733.5,"ySR":464.1,"xT1":420.09999999999997,"yT1":0,"xT2":1046.8999999999999,"yT2":0,"toosoon":0,"cond_shown":"equaldotanddens","ratio_trial":250,"smaller_num":"2","larger_num":"8","correct_side":1,"subjID":"marianaolarte27","gender":"1","age":"9","school":"4"},{"start_time":1552070209595,"click_time":1552070211021,"finger_time":1552070210380,"fix_duration":1352.319185908582,"trial":27,"RT":785,"MT":641,"sideResp":2,"stimulus":"img/900/equaldotanddens/L/8_Ratio_900_L_20_R_18.png","xmouse":[770,770,770,770,770,770,770,770,770,770,770,770,770,770,770,770,770,770,770,770,770,770,770,770,770,770,770,770,770,770,770,771,772,774,780,785,800,815,830,841,850,873,891,901,910,919,930,933,936,940,950,988,1007,1021,1031,1038,1051,1060,1074,1090,1114,1173,1198,1203,1203,1203,1203,1203,1203,1202,1191,1140],"ymouse":[512,512,512,512,512,512,512,512,512,512,512,512,512,512,512,512,512,512,512,512,512,512,512,512,512,512,512,512,512,512,512,512,512,512,511,509,497,485,471,455,442,412,387,371,355,340,319,313,306,298,284,236,215,198,186,178,170,166,160,152,137,92,71,66,65,65,65,65,65,64,65,75],"timestamp_mouse":[12,39,46,67,87,106,127,147,166,187,206,226,246,266,286,307,326,347,367,386,406,426,446,466,487,506,527,546,566,586,607,626,646,666,687,706,726,746,766,785,807,826,846,866,887,906,926,947,966,985,1006,1026,1046,1066,1086,1106,1126,1145,1166,1186,1207,1226,1247,1266,1286,1307,1327,1346,1367,1387,1406,1426],"xSR":733.5,"ySR":464.1,"xT1":420.09999999999997,"yT1":0,"xT2":1046.8999999999999,"yT2":0,"toosoon":0,"cond_shown":"equaldotanddens","ratio_trial":900,"smaller_num":"18","larger_num":"20","correct_side":1,"subjID":"marianaolarte27","gender":"1","age":"9","school":"4"},{"start_time":1552070213467,"click_time":1552070215122,"finger_time":1552070214722,"fix_duration":1124.3593174772338,"trial":28,"RT":1255,"MT":400,"sideResp":2,"stimulus":"img/900/randomdotsizeEA/R/14_Ratio_900_L_18_R_20.png","xmouse":[788,788,788,788,788,788,788,788,788,788,788,788,788,788,788,788,788,788,788,788,788,788,788,788,788,788,788,788,788,788,788,788,788,788,788,788,788,788,788,788,788,788,788,788,788,788,788,788,788,788,788,788,788,788,788,789,791,802,811,816,819,823,838,843,848,855,864,879,893,905,916,925,936,939,941,942,944,951,958,972,1001,1048,1143],"ymouse":[485,485,485,485,485,485,485,485,485,485,485,485,485,485,485,485,485,485,485,485,485,485,485,485,485,485,485,485,485,485,485,485,485,485,485,485,485,485,485,485,485,485,485,485,485,485,485,485,485,485,485,485,485,485,485,485,485,482,481,480,479,478,469,466,461,455,448,430,410,393,376,359,335,328,322,318,314,297,284,261,220,166,85],"timestamp_mouse":[15,38,54,74,94,114,134,155,174,194,215,234,254,275,294,314,333,355,374,395,414,434,454,474,494,514,534,553,575,595,614,636,655,674,695,715,736,755,776,796,816,834,855,875,894,916,935,955,976,995,1014,1036,1055,1074,1096,1115,1136,1155,1175,1194,1215,1235,1255,1275,1294,1315,1336,1354,1375,1394,1414,1436,1456,1475,1495,1516,1534,1555,1574,1594,1615,1634,1655],"xSR":733.5,"ySR":464.1,"xT1":420.09999999999997,"yT1":0,"xT2":1046.8999999999999,"yT2":0,"toosoon":0,"cond_shown":"randomdotsizeEA","ratio_trial":900,"smaller_num":"18","larger_num":"20","correct_side":2,"subjID":"marianaolarte27","gender":"1","age":"9","school":"4"},{"start_time":1552070218632,"click_time":1552070219861,"finger_time":1552070219363,"fix_duration":1008.4203422648511,"trial":29,"RT":731,"MT":498,"sideResp":2,"stimulus":"img/250/equaldotanddens/R/13_Ratio_250_L_2_R_8.png","xmouse":[776,776,776,776,776,776,776,776,776,776,776,776,776,776,776,776,776,776,776,776,776,776,776,776,776,776,776,776,776,776,776,776,776,776,785,805,855,914,979,1086,1124,1139,1153,1165,1193,1209,1224,1235,1242,1245,1245,1245,1245,1245,1234,1227,1219,1210,1196,1167,1150,1142],"ymouse":[538,538,538,538,538,538,538,538,538,538,538,538,538,538,538,538,538,538,538,538,538,538,538,538,538,538,538,538,538,538,538,538,538,538,534,511,452,390,328,249,229,219,212,205,186,170,152,136,124,113,113,113,113,112,115,115,115,114,104,76,48,34],"timestamp_mouse":[12,35,50,70,90,110,130,150,169,191,210,230,250,270,290,309,330,351,370,389,410,430,449,471,491,509,531,550,571,590,609,631,649,670,689,709,731,750,770,790,810,829,850,870,890,910,930,949,970,990,1011,1030,1050,1069,1090,1109,1131,1150,1171,1190,1211,1229],"xSR":733.5,"ySR":464.1,"xT1":420.09999999999997,"yT1":0,"xT2":1046.8999999999999,"yT2":0,"toosoon":0,"cond_shown":"equaldotanddens","ratio_trial":250,"smaller_num":"2","larger_num":"8","correct_side":2,"subjID":"marianaolarte27","gender":"1","age":"9","school":"4"},{"start_time":1552070220973,"click_time":1552070222082,"finger_time":1552070221662,"fix_duration":250,"trial":30,"RT":689,"MT":420,"sideResp":1,"stimulus":"img/250/equaldotanddens/L/7_Ratio_250_L_8_R_2.png","xmouse":[752,752,752,752,752,752,752,752,752,752,752,752,752,752,752,752,752,752,752,752,752,752,752,752,752,752,752,752,752,752,752,752,752,748,732,705,678,624,599,582,569,563,558,558,560,560,561,559,556,555,555,555,552,542,526,505],"ymouse":[539,539,539,539,539,539,539,539,539,539,539,539,539,539,539,539,539,539,539,539,539,539,539,539,539,539,539,539,539,539,539,539,539,536,496,439,370,241,196,162,138,122,105,97,91,85,78,68,65,65,65,65,65,61,55,45],"timestamp_mouse":[19,29,49,69,89,110,130,148,169,190,209,228,249,269,290,309,330,349,368,390,410,429,450,468,489,510,528,549,569,589,610,630,649,669,689,709,729,748,768,788,809,830,848,869,888,909,928,949,968,990,1009,1029,1049,1068,1089,1109],"xSR":733.5,"ySR":464.1,"xT1":420.09999999999997,"yT1":0,"xT2":1046.8999999999999,"yT2":0,"toosoon":0,"cond_shown":"equaldotanddens","ratio_trial":250,"smaller_num":"2","larger_num":"8","correct_side":1,"subjID":"marianaolarte27","gender":"1","age":"9","school":"4"},{"start_time":1552070224178,"click_time":1552070225163,"finger_time":1552070224902,"fix_duration":1075.9314962063188,"trial":31,"RT":724,"MT":261,"sideResp":2,"stimulus":"img/900/equaldotsize/L/8_Ratio_900_L_20_R_18.png","xmouse":[751,751,751,751,751,751,751,751,751,751,751,751,751,751,751,751,751,751,751,751,751,751,751,751,751,751,751,751,751,751,751,751,751,753,772,790,811,848,861,869,881,894,963,1001,1028,1043,1048,1055,1057,1058],"ymouse":[478,478,478,478,478,478,478,478,478,478,478,478,478,478,478,478,478,478,478,478,478,478,478,478,478,478,478,478,478,478,478,478,478,479,475,470,464,454,448,439,426,407,286,222,174,146,128,105,101,99],"timestamp_mouse":[12,24,43,65,83,105,125,144,165,185,204,225,244,265,285,304,324,344,363,385,404,425,443,463,484,505,525,545,565,585,605,624,643,663,683,705,724,744,763,784,804,823,844,865,884,905,924,944,964,985],"xSR":733.5,"ySR":464.1,"xT1":420.09999999999997,"yT1":0,"xT2":1046.8999999999999,"yT2":0,"toosoon":0,"cond_shown":"equaldotsize","ratio_trial":900,"smaller_num":"18","larger_num":"20","correct_side":1,"subjID":"marianaolarte27","gender":"1","age":"9","school":"4"},{"start_time":1552070227250,"click_time":1552070229563,"finger_time":1552070228562,"fix_duration":1005.3169826361868,"trial":32,"RT":1312,"MT":1001,"sideResp":2,"stimulus":"img/750/randomdotsizeEA/R/7_Ratio_750_L_3_R_4.png","xmouse":[759,759,759,759,759,759,759,759,759,759,759,759,759,759,759,759,759,759,759,759,759,759,759,759,759,759,759,759,759,759,759,759,759,759,759,759,759,759,759,759,759,759,759,759,759,759,759,759,759,759,759,759,759,759,759,759,759,759,759,759,759,757,754,740,735,731,728,724,719,699,677,664,652,629,618,607,598,591,589,589,589,589,589,609,633,673,744,830,990,1071,1107,1137,1162,1224,1256,1283,1309,1329,1352,1356,1357,1357,1357,1357,1354,1353,1352,1346,1309,1262,1225,1195,1172,1131,1111,1091],"ymouse":[518,518,518,518,518,518,518,518,518,518,518,518,518,518,518,518,518,518,518,518,518,518,518,518,518,518,518,518,518,518,518,518,518,518,518,518,518,518,518,518,518,518,518,518,518,518,518,518,518,518,518,518,518,518,518,518,518,518,518,518,518,519,515,505,501,496,493,490,487,473,455,439,421,388,375,362,352,344,340,340,340,340,340,340,347,358,378,402,448,470,471,471,464,432,410,392,369,346,310,293,283,273,265,260,250,249,247,246,239,224,204,185,166,128,113,94],"timestamp_mouse":[12,38,52,73,92,113,133,153,172,192,211,233,252,273,292,311,331,351,373,393,412,432,452,472,493,513,532,552,573,593,612,632,653,672,692,712,733,752,772,792,812,833,853,872,893,912,933,952,973,992,1012,1032,1052,1072,1093,1112,1132,1151,1172,1193,1212,1232,1252,1271,1291,1312,1332,1351,1372,1391,1412,1431,1452,1472,1492,1511,1532,1552,1573,1592,1612,1632,1653,1672,1692,1712,1733,1751,1772,1793,1811,1833,1853,1872,1892,1911,1931,1952,1972,1992,2012,2031,2051,2071,2092,2113,2133,2152,2172,2192,2211,2232,2251,2272,2293,2313],"xSR":733.5,"ySR":464.1,"xT1":420.09999999999997,"yT1":0,"xT2":1046.8999999999999,"yT2":0,"toosoon":0,"cond_shown":"randomdotsizeEA","ratio_trial":750,"smaller_num":"3","larger_num":"4","correct_side":2,"subjID":"marianaolarte27","gender":"1","age":"9","school":"4"},{"start_time":1552070231409,"click_time":1552070232822,"finger_time":1552070232202,"fix_duration":985.1695960835583,"trial":33,"RT":793,"MT":620,"sideResp":2,"stimulus":"img/250/randomdotsizeEA/R/11_Ratio_250_L_3_R_12.png","xmouse":[822,822,822,822,822,822,822,822,822,822,822,822,822,822,822,822,822,822,822,822,822,822,822,822,822,822,822,822,822,822,822,822,822,822,822,822,822,825,833,855,922,969,998,1021,1045,1079,1093,1104,1110,1117,1130,1143,1154,1165,1174,1190,1192,1194,1194,1194,1192,1192,1192,1192,1192,1192,1192,1192,1192,1192,1144],"ymouse":[544,544,544,544,544,544,544,544,544,544,544,544,544,544,544,544,544,544,544,544,544,544,544,544,544,544,544,544,544,544,544,544,544,544,544,544,544,542,536,519,470,430,410,391,371,334,318,304,296,286,263,239,217,198,177,128,109,91,71,49,8,8,8,8,8,8,8,8,8,8,12],"timestamp_mouse":[14,38,54,73,94,113,134,152,174,194,213,232,254,274,292,312,333,354,374,394,414,433,453,472,493,514,534,554,574,593,613,633,653,673,693,713,732,753,773,793,813,833,852,873,894,913,934,954,972,992,1013,1033,1052,1072,1092,1113,1133,1154,1173,1194,1212,1232,1252,1274,1293,1312,1332,1353,1373,1392,1413],"xSR":733.5,"ySR":464.1,"xT1":420.09999999999997,"yT1":0,"xT2":1046.8999999999999,"yT2":0,"toosoon":0,"cond_shown":"randomdotsizeEA","ratio_trial":250,"smaller_num":"3","larger_num":"12","correct_side":2,"subjID":"marianaolarte27","gender":"1","age":"9","school":"4"},{"start_time":1552070235003,"click_time":1552070236522,"finger_time":1552070236102,"fix_duration":1180.5134639975533,"trial":34,"RT":1099,"MT":420,"sideResp":1,"stimulus":"img/750/randomdotsizeEA/L/14_Ratio_750_L_8_R_6.png","xmouse":[825,825,825,825,825,825,825,825,825,825,825,825,825,825,825,825,825,825,825,825,825,825,825,825,825,825,825,825,825,825,825,825,825,825,825,825,825,825,825,825,825,825,825,824,823,814,811,809,807,803,788,773,761,747,731,691,668,647,626,607,583,572,569,567,567,567,569,569,569,570,568,563,559,554,542,508],"ymouse":[520,520,520,520,520,520,520,520,520,520,520,520,520,520,520,520,520,520,520,520,520,520,520,520,520,520,520,520,520,520,520,520,520,520,520,520,520,520,520,520,520,520,520,522,522,522,522,522,522,522,518,516,513,507,498,473,457,440,417,378,266,181,148,127,112,103,100,98,94,91,83,78,77,77,77,79],"timestamp_mouse":[37,38,59,79,99,119,139,159,178,199,219,239,259,279,300,319,339,358,378,399,419,440,459,478,500,519,539,560,579,599,618,640,660,679,699,720,740,759,780,799,818,840,859,878,898,919,939,959,979,1000,1019,1038,1058,1078,1099,1118,1138,1158,1179,1200,1219,1240,1258,1278,1298,1318,1339,1359,1378,1400,1419,1439,1458,1478,1498,1519],"xSR":733.5,"ySR":464.1,"xT1":420.09999999999997,"yT1":0,"xT2":1046.8999999999999,"yT2":0,"toosoon":0,"cond_shown":"randomdotsizeEA","ratio_trial":750,"smaller_num":"6","larger_num":"8","correct_side":1,"subjID":"marianaolarte27","gender":"1","age":"9","school":"4"},{"start_time":1552070246131,"click_time":1552070247623,"finger_time":1552070246822,"fix_duration":808.2067803761215,"trial":35,"RT":691,"MT":801,"sideResp":1,"stimulus":"img/250/randomdotsizeEA/L/7_Ratio_250_L_8_R_2.png","xmouse":[782,782,782,782,782,782,782,782,782,782,782,782,782,782,782,782,782,782,782,782,782,782,782,782,782,782,782,782,782,782,780,776,761,743,693,622,550,479,397,323,323,323,323,323,323,323,323,323,323,323,323,323,323,323,323,323,323,323,323,323,323,323,323,323,323,323,323,323,323,330,355,375,394,411,428],"ymouse":[526,526,526,526,526,526,526,526,526,526,526,526,526,526,526,526,526,526,526,526,526,526,526,526,526,526,526,526,526,526,524,523,511,495,430,350,267,183,87,1,1,1,1,1,1,1,1,1,1,1,1,1,1,1,1,1,1,1,1,1,1,1,1,1,1,1,1,1,1,5,24,40,55,65,69],"timestamp_mouse":[13,37,51,70,90,112,132,150,170,191,211,231,252,271,291,311,330,352,372,391,411,432,451,471,490,510,532,552,571,590,611,630,651,670,691,712,730,750,771,791,810,830,850,872,891,911,932,951,971,990,1011,1031,1051,1072,1091,1111,1130,1150,1171,1190,1211,1231,1250,1271,1291,1312,1331,1350,1372,1390,1411,1430,1450,1472,1491],"xSR":733.5,"ySR":464.1,"xT1":420.09999999999997,"yT1":0,"xT2":1046.8999999999999,"yT2":0,"toosoon":0,"cond_shown":"randomdotsizeEA","ratio_trial":250,"smaller_num":"2","larger_num":"8","correct_side":1,"subjID":"marianaolarte27","gender":"1","age":"9","school":"4"},{"start_time":1552070250096,"click_time":1552070251262,"finger_time":1552070250922,"fix_duration":1211.4410798575561,"trial":36,"RT":826,"MT":340,"sideResp":1,"stimulus":"img/500/equaldotsize/L/11_Ratio_500_L_12_R_6.png","xmouse":[762,762,762,762,762,762,762,762,762,762,762,762,762,762,762,762,762,762,762,762,762,762,762,762,762,762,762,762,762,762,762,762,762,762,762,762,774,778,778,778,778,777,772,759,734,693,625,599,592,590,589,589,589,589,587,581,546,530,510],"ymouse":[494,494,494,494,494,494,494,494,494,494,494,494,494,494,494,494,494,494,494,494,494,494,494,494,494,494,494,494,494,494,494,494,494,494,494,494,486,480,475,470,465,450,437,416,379,319,229,195,180,174,172,172,171,171,168,158,115,94,73],"timestamp_mouse":[11,41,46,66,87,105,126,147,167,187,207,226,246,266,286,306,326,347,366,386,407,426,447,467,486,505,526,546,567,585,607,626,647,667,685,705,725,745,766,786,806,826,846,866,886,907,926,946,965,986,1005,1025,1047,1067,1086,1107,1126,1146,1165],"xSR":733.5,"ySR":464.1,"xT1":420.09999999999997,"yT1":0,"xT2":1046.8999999999999,"yT2":0,"toosoon":0,"cond_shown":"equaldotsize","ratio_trial":500,"smaller_num":"6","larger_num":"12","correct_side":1,"subjID":"marianaolarte27","gender":"1","age":"9","school":"4"},{"start_time":1552070252531,"click_time":1552070253722,"finger_time":1552070253221,"fix_duration":307.2535605447605,"trial":37,"RT":690,"MT":501,"sideResp":2,"stimulus":"img/900/equaldotsize/L/4_Ratio_900_L_20_R_18.png","xmouse":[761,761,761,761,761,761,761,761,761,761,761,761,761,761,761,761,761,761,761,764,768,772,775,776,776,776,776,776,776,776,780,782,787,797,835,856,891,928,966,1030,1062,1099,1119,1131,1138,1138,1138,1140,1142,1140,1134,1129,1123,1117,1112,1105,1105,1105,1105,1105],"ymouse":[498,498,498,498,498,498,498,498,498,498,498,498,498,498,498,498,498,498,498,498,497,497,496,496,496,496,496,496,496,496,495,495,495,493,480,469,442,409,376,313,280,243,226,215,210,210,210,204,196,169,157,149,142,132,125,112,110,106,103,99],"timestamp_mouse":[20,38,51,71,91,110,132,151,170,191,211,231,251,272,292,311,332,352,371,390,411,431,452,470,492,511,532,551,572,591,610,631,650,671,690,712,730,751,770,791,812,830,850,870,891,911,930,952,972,991,1010,1030,1052,1070,1090,1111,1130,1151,1170,1191],"xSR":733.5,"ySR":464.1,"xT1":420.09999999999997,"yT1":0,"xT2":1046.8999999999999,"yT2":0,"toosoon":0,"cond_shown":"equaldotsize","ratio_trial":900,"smaller_num":"18","larger_num":"20","correct_side":1,"subjID":"marianaolarte27","gender":"1","age":"9","school":"4"},{"start_time":1552070255948,"click_time":1552070257261,"finger_time":1552070256721,"fix_duration":1225.2121872732819,"trial":38,"RT":773,"MT":540,"sideResp":2,"stimulus":"img/900/equaldotanddens/L/1_Ratio_900_L_10_R_9.png","xmouse":[772,772,772,772,772,772,772,772,772,772,772,772,772,772,772,772,772,772,772,772,772,772,772,772,772,772,772,772,772,772,772,772,772,772,774,780,788,802,840,861,879,895,909,934,953,967,981,994,1014,1022,1027,1032,1038,1046,1050,1052,1052,1053,1056,1057,1059,1060,1062,1072,1078,1086],"ymouse":[517,517,517,517,517,517,517,517,517,517,517,517,517,517,517,517,517,517,517,517,517,517,517,517,517,517,517,517,517,517,517,517,517,517,518,518,518,518,506,494,481,467,453,419,395,379,361,342,300,279,259,239,221,188,169,160,153,142,131,128,124,123,120,108,101,92],"timestamp_mouse":[15,37,55,74,94,114,134,154,174,194,213,234,255,274,295,315,334,355,373,395,415,435,453,474,494,514,534,554,573,594,614,634,654,674,694,714,735,754,773,794,813,834,855,874,894,913,935,953,973,994,1015,1034,1053,1074,1094,1113,1134,1154,1174,1195,1215,1235,1255,1274,1295,1313],"xSR":733.5,"ySR":464.1,"xT1":420.09999999999997,"yT1":0,"xT2":1046.8999999999999,"yT2":0,"toosoon":0,"cond_shown":"equaldotanddens","ratio_trial":900,"smaller_num":"9","larger_num":"10","correct_side":1,"subjID":"marianaolarte27","gender":"1","age":"9","school":"4"},{"start_time":1552070262341,"click_time":1552070263402,"finger_time":1552070263121,"fix_duration":1196.2331143968631,"trial":39,"RT":780,"MT":281,"sideResp":2,"stimulus":"img/750/equaldotsize/R/4_Ratio_750_L_15_R_20.png","xmouse":[764,764,764,764,764,764,764,764,764,764,764,764,764,764,764,764,764,764,764,764,764,764,764,764,764,764,764,764,764,764,764,764,764,764,765,777,794,811,827,860,889,913,927,942,962,967,967,968,969,973,997,1015,1037,1054],"ymouse":[539,539,539,539,539,539,539,539,539,539,539,539,539,539,539,539,539,539,539,539,539,539,539,539,539,539,539,539,539,539,539,539,539,539,537,530,518,503,485,438,390,343,308,273,221,191,177,170,165,158,135,122,107,97],"timestamp_mouse":[9,33,40,61,82,101,121,142,160,182,202,221,241,261,281,301,321,341,362,382,401,420,441,460,481,502,522,542,561,580,602,622,640,662,681,701,720,741,761,780,800,820,841,861,881,901,920,941,960,981,1000,1022,1040,1061],"xSR":733.5,"ySR":464.1,"xT1":420.09999999999997,"yT1":0,"xT2":1046.8999999999999,"yT2":0,"toosoon":0,"cond_shown":"equaldotsize","ratio_trial":750,"smaller_num":"15","larger_num":"20","correct_side":2,"subjID":"marianaolarte27","gender":"1","age":"9","school":"4"},{"start_time":1552070265414,"click_time":1552070266743,"finger_time":1552070266243,"fix_duration":991.065668410239,"trial":40,"RT":829,"MT":500,"sideResp":2,"stimulus":"img/500/equaldotanddens/R/12_Ratio_500_L_1_R_2.png","xmouse":[784,784,784,784,784,784,784,784,784,784,784,784,784,784,784,784,784,784,784,784,784,784,784,784,784,784,784,784,784,784,784,784,784,784,784,784,784,784,784,788,822,870,907,933,953,964,982,992,1001,1013,1028,1039,1046,1048,1050,1053,1055,1059,1065,1071,1090,1093,1094,1095,1097,1116,1130],"ymouse":[516,516,516,516,516,516,516,516,516,516,516,516,516,516,516,516,516,516,516,516,516,516,516,516,516,516,516,516,516,516,516,516,516,516,516,516,516,516,516,516,498,462,429,405,382,364,339,329,322,314,294,266,248,235,221,197,191,183,174,164,139,135,133,131,127,102,82],"timestamp_mouse":[12,41,49,68,89,107,127,148,169,188,207,229,248,269,288,308,327,348,369,389,408,428,449,469,487,508,529,549,568,587,607,629,648,668,687,708,729,748,767,788,808,829,847,869,887,908,928,948,968,989,1008,1029,1047,1067,1087,1108,1127,1148,1169,1188,1208,1227,1247,1268,1289,1308,1328],"xSR":733.5,"ySR":464.1,"xT1":420.09999999999997,"yT1":0,"xT2":1046.8999999999999,"yT2":0,"toosoon":0,"cond_shown":"equaldotanddens","ratio_trial":500,"smaller_num":"1","larger_num":"2","correct_side":2,"subjID":"marianaolarte27","gender":"1","age":"9","school":"4"},{"start_time":1552070268066,"click_time":1552070269342,"finger_time":1552070268821,"fix_duration":444.3505137577807,"trial":41,"RT":755,"MT":521,"sideResp":2,"stimulus":"img/900/randomdotsizeEA/L/2_Ratio_900_L_20_R_18.png","xmouse":[765,765,765,765,765,765,765,765,765,765,765,765,765,765,765,765,765,765,765,765,765,765,765,765,765,765,765,765,765,765,765,765,765,765,765,773,781,861,900,931,954,971,997,1007,1014,1021,1027,1055,1079,1096,1113,1129,1148,1152,1157,1160,1164,1172,1174,1175,1175,1175,1162,1145],"ymouse":[557,557,557,557,557,557,557,557,557,557,557,557,557,557,557,557,557,557,557,557,557,557,557,557,557,557,557,557,557,557,557,557,557,557,557,550,542,469,432,395,367,346,311,299,288,280,270,234,196,170,145,123,90,79,71,63,53,16,6,2,2,2,0,9],"timestamp_mouse":[15,36,55,76,97,116,137,155,175,196,216,235,255,277,296,315,337,357,376,395,417,436,456,477,496,516,536,556,577,596,615,636,655,675,696,715,736,755,775,795,817,836,856,877,896,915,936,956,975,995,1016,1036,1056,1075,1096,1117,1136,1156,1176,1195,1216,1236,1255,1275],"xSR":733.5,"ySR":464.1,"xT1":420.09999999999997,"yT1":0,"xT2":1046.8999999999999,"yT2":0,"toosoon":0,"cond_shown":"randomdotsizeEA","ratio_trial":900,"smaller_num":"18","larger_num":"20","correct_side":1,"subjID":"marianaolarte27","gender":"1","age":"9","school":"4"},{"start_time":1552070271482,"click_time":1552070272603,"finger_time":1552070272181,"fix_duration":938.0232563026326,"trial":42,"RT":699,"MT":422,"sideResp":2,"stimulus":"img/500/equaldotsize/R/15_Ratio_500_L_1_R_2.png","xmouse":[771,771,771,771,771,771,771,771,771,771,771,771,771,771,771,771,771,771,771,771,771,771,771,771,771,771,771,771,771,771,771,771,771,782,799,865,939,1070,1126,1181,1225,1242,1247,1247,1248,1249,1256,1266,1272,1273,1272,1263,1224,1194,1169,1151,1143],"ymouse":[526,526,526,526,526,526,526,526,526,526,526,526,526,526,526,526,526,526,526,526,526,526,526,526,526,526,526,526,526,526,526,526,526,523,518,499,474,397,361,321,283,270,267,267,267,265,259,241,219,197,172,148,93,66,42,27,21],"timestamp_mouse":[1,20,40,60,80,100,121,139,159,181,201,220,240,260,279,300,319,340,361,379,399,420,441,460,481,499,520,541,560,580,600,620,641,659,680,699,720,739,760,779,801,821,840,861,880,899,920,940,959,979,1000,1020,1040,1059,1079,1100,1121],"xSR":733.5,"ySR":464.1,"xT1":420.09999999999997,"yT1":0,"xT2":1046.8999999999999,"yT2":0,"toosoon":0,"cond_shown":"equaldotsize","ratio_trial":500,"smaller_num":"1","larger_num":"2","correct_side":2,"subjID":"marianaolarte27","gender":"1","age":"9","school":"4"},{"start_time":1552070274172,"click_time":1552070275343,"finger_time":1552070274922,"fix_duration":388.38756006149123,"trial":43,"RT":750,"MT":421,"sideResp":2,"stimulus":"img/500/equaldotsize/R/2_Ratio_500_L_3_R_6.png","xmouse":[798,798,798,798,798,798,798,798,798,798,798,798,798,798,798,798,798,798,798,798,798,798,798,798,798,798,798,798,798,798,798,798,798,798,800,808,823,914,980,1042,1085,1117,1156,1163,1167,1170,1176,1185,1187,1189,1190,1190,1190,1190,1190,1190,1189,1163,1146],"ymouse":[516,516,516,516,516,516,516,516,516,516,516,516,516,516,516,516,516,516,516,516,516,516,516,516,516,516,516,516,516,516,516,516,516,516,513,499,474,365,296,230,186,160,139,136,135,133,128,115,109,104,100,98,97,97,97,97,96,81,71],"timestamp_mouse":[12,35,50,71,91,110,130,150,171,191,210,230,250,271,290,310,331,350,370,390,410,430,451,472,491,511,530,550,571,590,611,630,651,671,690,711,730,750,771,790,810,830,850,870,890,911,930,950,970,990,1011,1030,1050,1071,1090,1110,1131,1150,1171],"xSR":733.5,"ySR":464.1,"xT1":420.09999999999997,"yT1":0,"xT2":1046.8999999999999,"yT2":0,"toosoon":0,"cond_shown":"equaldotsize","ratio_trial":500,"smaller_num":"3","larger_num":"6","correct_side":2,"subjID":"marianaolarte27","gender":"1","age":"9","school":"4"},{"start_time":1552070278693,"click_time":1552070279763,"finger_time":1552070279422,"fix_duration":869.4031712476074,"trial":44,"RT":729,"MT":341,"sideResp":1,"stimulus":"img/250/equaldotanddens/L/7_Ratio_250_L_8_R_2.png","xmouse":[775,775,775,775,775,775,775,775,775,775,775,775,775,775,775,775,775,775,775,775,775,775,775,775,775,775,775,775,775,775,775,775,775,775,773,764,731,718,709,701,696,685,679,671,664,654,624,600,584,567,549,524,516,508],"ymouse":[492,492,492,492,492,492,492,492,492,492,492,492,492,492,492,492,492,492,492,492,492,492,492,492,492,492,492,492,492,492,492,492,492,489,486,473,423,401,381,365,352,335,327,317,310,300,273,247,226,203,174,134,114,97],"timestamp_mouse":[12,46,50,70,89,109,130,150,169,190,209,229,249,269,290,310,330,350,369,389,410,429,450,469,489,510,529,550,569,590,610,629,650,669,689,709,729,749,769,789,809,829,849,869,889,909,929,951,969,990,1009,1029,1049,1070],"xSR":733.5,"ySR":464.1,"xT1":420.09999999999997,"yT1":0,"xT2":1046.8999999999999,"yT2":0,"toosoon":0,"cond_shown":"equaldotanddens","ratio_trial":250,"smaller_num":"2","larger_num":"8","correct_side":1,"subjID":"marianaolarte27","gender":"1","age":"9","school":"4"},{"start_time":1552070281500,"click_time":1552070282582,"finger_time":1552070282162,"fix_duration":934.7657919389961,"trial":45,"RT":662,"MT":420,"sideResp":1,"stimulus":"img/900/randomdotsizeEA/R/5_Ratio_900_L_9_R_10.png","xmouse":[762,762,762,762,762,762,762,762,762,762,762,762,762,762,762,762,762,762,762,762,762,762,762,762,762,762,762,762,762,762,765,794,815,837,857,884,914,917,917,917,917,917,914,898,872,848,794,762,737,693,642,531,495,476,472],"ymouse":[536,536,536,536,536,536,536,536,536,536,536,536,536,536,536,536,536,536,536,536,536,536,536,536,536,536,536,536,536,535,532,511,494,473,451,420,378,369,368,368,368,368,368,369,373,376,373,358,340,309,266,168,131,109,99],"timestamp_mouse":[10,35,42,63,83,102,122,142,163,182,202,223,243,262,283,302,322,343,362,383,403,422,442,462,482,502,522,543,563,583,602,622,642,662,683,704,723,742,763,783,802,823,843,862,883,903,922,943,962,982,1002,1022,1043,1062,1082],"xSR":733.5,"ySR":464.1,"xT1":420.09999999999997,"yT1":0,"xT2":1046.8999999999999,"yT2":0,"toosoon":0,"cond_shown":"randomdotsizeEA","ratio_trial":900,"smaller_num":"9","larger_num":"10","correct_side":2,"subjID":"marianaolarte27","gender":"1","age":"9","school":"4"},{"start_time":1552070286996,"click_time":1552070287822,"finger_time":1552070287702,"fix_duration":811.305017312591,"trial":46,"RT":706,"MT":120,"sideResp":1,"stimulus":"img/250/equaldotanddens/L/5_Ratio_250_L_24_R_6.png","xmouse":[762,762,762,762,762,762,762,762,762,762,762,762,762,762,762,762,762,762,762,762,762,762,762,762,762,762,762,762,762,762,762,762,759,757,757,758,760,745,715,673,627,519],"ymouse":[508,508,508,508,508,508,508,508,508,508,508,508,508,508,508,508,508,508,508,508,508,508,508,508,508,508,508,508,508,508,508,506,498,486,474,459,417,366,296,226,168,36],"timestamp_mouse":[13,40,46,66,86,106,126,147,166,187,206,226,246,267,287,306,326,347,366,387,406,426,447,466,487,506,526,547,568,586,606,626,647,666,686,706,727,746,766,787,807,826],"xSR":733.5,"ySR":464.1,"xT1":420.09999999999997,"yT1":0,"xT2":1046.8999999999999,"yT2":0,"toosoon":0,"cond_shown":"equaldotanddens","ratio_trial":250,"smaller_num":"6","larger_num":"24","correct_side":1,"subjID":"marianaolarte27","gender":"1","age":"9","school":"4"},{"start_time":1552070291961,"click_time":1552070293043,"finger_time":1552070292662,"fix_duration":557.2833283318332,"trial":47,"RT":701,"MT":381,"sideResp":2,"stimulus":"img/500/randomdotsizeEA/R/9_Ratio_500_L_2_R_4.png","xmouse":[819,819,819,818,818,818,818,818,818,818,818,818,818,818,818,818,818,818,818,818,818,818,818,818,818,818,818,818,818,818,818,818,818,819,826,834,844,863,915,936,948,954,956,964,974,980,982,982,985,990,998,1010,1026,1060,1101],"ymouse":[503,503,503,503,503,503,503,503,503,503,503,503,503,503,503,503,503,503,503,503,503,503,503,503,503,503,503,503,503,503,503,503,503,501,496,489,480,465,399,370,357,351,350,338,314,295,276,260,234,220,204,188,169,132,95],"timestamp_mouse":[2,29,42,62,82,101,122,142,162,181,201,221,242,261,282,301,321,341,361,382,401,421,441,461,481,501,522,542,561,581,601,622,642,661,681,701,723,741,761,781,801,821,841,861,881,901,921,942,961,981,1002,1022,1041,1061,1082],"xSR":733.5,"ySR":464.1,"xT1":420.09999999999997,"yT1":0,"xT2":1046.8999999999999,"yT2":0,"toosoon":0,"cond_shown":"randomdotsizeEA","ratio_trial":500,"smaller_num":"2","larger_num":"4","correct_side":2,"subjID":"marianaolarte27","gender":"1","age":"9","school":"4"},{"start_time":1552070294669,"click_time":1552070295983,"finger_time":1552070295322,"fix_duration":744.7948454390432,"trial":48,"RT":653,"MT":661,"sideResp":2,"stimulus":"img/900/equaldotanddens/R/3_Ratio_900_L_9_R_10.png","xmouse":[791,791,791,791,791,791,791,791,791,791,791,791,791,791,791,791,791,791,791,791,791,791,791,791,791,791,791,791,791,791,791,799,818,834,850,868,883,897,923,929,937,948,976,994,1015,1044,1071,1115,1142,1161,1176,1189,1206,1211,1213,1214,1214,1214,1213,1210,1206,1200,1178,1165,1153,1143],"ymouse":[493,493,493,493,493,493,493,493,493,493,493,493,493,493,493,493,493,493,493,493,493,493,493,493,493,493,493,493,493,493,493,486,460,439,416,389,367,347,315,307,301,294,279,269,256,240,226,199,179,166,152,140,116,105,97,91,88,86,84,83,81,79,69,63,59,55],"timestamp_mouse":[14,40,53,73,93,114,134,153,173,194,213,233,253,274,294,313,333,354,374,394,414,433,453,474,493,514,533,553,573,593,614,633,653,674,693,714,733,753,774,793,813,833,854,873,893,913,934,953,973,994,1013,1033,1053,1074,1094,1113,1133,1153,1174,1193,1213,1232,1254,1274,1293,1314],"xSR":733.5,"ySR":464.1,"xT1":420.09999999999997,"yT1":0,"xT2":1046.8999999999999,"yT2":0,"toosoon":0,"cond_shown":"equaldotanddens","ratio_trial":900,"smaller_num":"9","larger_num":"10","correct_side":2,"subjID":"marianaolarte27","gender":"1","age":"9","school":"4"},{"start_time":1552070297289,"click_time":1552070298462,"finger_time":1552070298043,"fix_duration":465.78605810118455,"trial":49,"RT":754,"MT":419,"sideResp":2,"stimulus":"img/500/equaldotanddens/R/15_Ratio_500_L_1_R_2.png","xmouse":[795,795,795,795,795,795,795,795,795,795,795,795,795,795,795,795,795,795,795,795,795,795,795,795,795,795,795,795,795,795,795,795,795,795,798,807,818,968,1030,1083,1132,1188,1195,1195,1195,1196,1198,1200,1200,1201,1201,1201,1201,1199,1196,1187,1159,1148,1139],"ymouse":[511,511,511,511,511,511,511,511,511,511,511,511,511,511,511,511,511,511,511,511,511,511,511,511,511,511,511,511,511,511,511,511,511,511,511,503,497,388,333,278,217,122,102,99,99,99,99,98,98,97,97,97,97,97,97,97,90,83,78],"timestamp_mouse":[18,38,53,74,94,113,133,154,173,193,213,233,253,274,293,314,333,353,373,394,414,434,453,473,493,514,533,553,573,594,614,633,653,673,693,713,733,754,773,794,813,833,854,874,893,913,933,953,973,993,1013,1034,1053,1074,1094,1113,1133,1153,1173],"xSR":733.5,"ySR":464.1,"xT1":420.09999999999997,"yT1":0,"xT2":1046.8999999999999,"yT2":0,"toosoon":0,"cond_shown":"equaldotanddens","ratio_trial":500,"smaller_num":"1","larger_num":"2","correct_side":2,"subjID":"marianaolarte27","gender":"1","age":"9","school":"4"},{"start_time":1552070299800,"click_time":1552070300802,"finger_time":1552070300462,"fix_duration":376.6187020647743,"trial":50,"RT":662,"MT":340,"sideResp":2,"stimulus":"img/500/randomdotsizeEA/R/3_Ratio_500_L_10_R_20.png","xmouse":[784,784,784,784,784,784,784,784,784,784,784,784,784,784,784,784,784,784,784,784,784,784,784,784,784,784,784,784,784,784,784,787,806,822,840,862,900,912,927,940,952,975,994,1006,1018,1034,1070,1090,1104,1114,1122],"ymouse":[495,495,495,495,495,495,495,495,495,495,495,495,495,495,495,495,495,495,495,495,495,495,495,495,495,495,495,495,495,495,495,495,475,457,438,416,382,369,355,343,332,307,285,267,252,235,183,150,125,104,84],"timestamp_mouse":[13,39,43,62,82,103,123,142,163,182,203,223,242,263,283,302,322,342,362,382,403,422,442,462,482,502,522,542,563,583,603,622,642,662,682,703,722,743,764,782,803,822,843,862,883,902,922,942,962,982,1002],"xSR":733.5,"ySR":464.1,"xT1":420.09999999999997,"yT1":0,"xT2":1046.8999999999999,"yT2":0,"toosoon":0,"cond_shown":"randomdotsizeEA","ratio_trial":500,"smaller_num":"10","larger_num":"20","correct_side":2,"subjID":"marianaolarte27","gender":"1","age":"9","school":"4"},{"start_time":1552070301893,"click_time":1552070303442,"finger_time":1552070302622,"fix_duration":250,"trial":51,"RT":729,"MT":820,"sideResp":1,"stimulus":"img/750/equaldotsize/L/10_Ratio_750_L_4_R_3.png","xmouse":[783,783,783,783,783,783,783,783,783,783,783,783,783,783,783,783,783,783,783,783,783,783,783,783,783,783,783,783,783,783,783,783,783,783,784,789,844,874,907,938,964,1008,1022,1033,1040,1045,1053,1056,1059,1061,1062,1063,1063,1063,1063,1058,1014,977,926,871,812,745,732,727,727,727,722,700,672,637,608,567,561,559,558,555,541,520],"ymouse":[512,512,512,512,512,512,512,512,512,512,512,512,512,512,512,512,512,512,512,512,512,512,512,512,512,512,512,512,512,512,512,512,512,512,512,508,455,428,398,367,338,289,270,254,242,232,218,209,200,192,186,181,181,181,181,181,199,216,228,236,241,241,236,231,224,214,170,119,88,66,55,48,48,48,48,48,49,49],"timestamp_mouse":[12,42,49,70,90,109,129,150,169,189,209,229,249,269,289,310,330,350,369,389,409,429,450,469,490,510,529,549,569,590,609,630,650,669,690,710,729,750,769,789,809,829,849,869,889,909,929,951,969,991,1009,1029,1049,1070,1089,1111,1129,1149,1169,1189,1209,1229,1250,1269,1288,1309,1329,1350,1369,1390,1410,1429,1449,1469,1489,1510,1529,1549],"xSR":733.5,"ySR":464.1,"xT1":420.09999999999997,"yT1":0,"xT2":1046.8999999999999,"yT2":0,"toosoon":0,"cond_shown":"equaldotsize","ratio_trial":750,"smaller_num":"3","larger_num":"4","correct_side":1,"subjID":"marianaolarte27","gender":"1","age":"9","school":"4"},{"start_time":1552070305383,"click_time":1552070306562,"finger_time":1552070306122,"fix_duration":959.765869142037,"trial":52,"RT":739,"MT":440,"sideResp":1,"stimulus":"img/250/randomdotsizeEA/L/5_Ratio_250_L_24_R_6.png","xmouse":[775,775,775,775,775,775,775,775,775,775,775,775,775,775,775,775,775,775,775,775,775,775,775,775,775,775,775,775,775,775,775,775,775,775,773,769,760,730,704,684,667,652,630,625,620,616,615,604,594,583,570,561,555,555,554,551,545,530,521,516],"ymouse":[533,533,533,533,533,533,533,533,533,533,533,533,533,533,533,533,533,533,533,533,533,533,533,533,533,533,533,533,533,533,533,533,533,532,520,502,480,406,347,301,258,226,177,164,152,143,133,105,84,68,57,53,53,53,53,53,53,53,53,53],"timestamp_mouse":[1,21,40,59,80,100,118,139,159,179,200,220,239,260,279,299,320,339,359,379,400,420,440,459,479,499,520,539,559,579,600,619,639,660,679,699,720,739,759,779,799,819,840,859,880,899,920,939,959,980,1000,1019,1039,1059,1079,1100,1119,1139,1159,1179],"xSR":733.5,"ySR":464.1,"xT1":420.09999999999997,"yT1":0,"xT2":1046.8999999999999,"yT2":0,"toosoon":0,"cond_shown":"randomdotsizeEA","ratio_trial":250,"smaller_num":"6","larger_num":"24","correct_side":1,"subjID":"marianaolarte27","gender":"1","age":"9","school":"4"},{"start_time":1552070308375,"click_time":1552070310022,"finger_time":1552070309142,"fix_duration":791.7199763762443,"trial":53,"RT":767,"MT":880,"sideResp":1,"stimulus":"img/750/equaldotsize/L/13_Ratio_750_L_8_R_6.png","xmouse":[763,763,763,763,763,763,763,763,763,763,763,763,763,763,763,763,763,763,763,763,763,763,763,763,762,762,762,761,761,761,761,761,763,767,769,773,778,793,807,829,858,898,975,987,993,998,1004,1017,1023,1030,1034,1037,1038,1038,1038,1038,1038,1038,1033,1019,1001,977,913,828,772,720,662,584,561,541,523,511,488,481,473,466,463,463,463,463,463,475,516],"ymouse":[521,521,521,521,521,521,521,521,521,521,521,521,521,521,521,521,521,521,521,521,521,521,521,521,521,521,521,520,520,520,520,520,518,513,507,500,492,471,451,424,395,371,357,353,348,340,330,310,300,289,281,274,271,271,271,271,271,270,272,281,289,298,313,313,309,302,290,267,257,247,235,226,205,198,189,184,182,181,181,180,175,154,49],"timestamp_mouse":[12,35,47,67,87,108,127,148,167,188,207,228,247,267,288,308,328,348,368,387,407,428,447,468,487,507,528,547,567,588,608,628,646,667,687,708,727,747,767,787,807,827,847,867,887,907,928,947,968,987,1007,1027,1047,1067,1088,1107,1127,1147,1167,1187,1207,1227,1247,1267,1288,1307,1327,1347,1367,1387,1408,1427,1448,1468,1487,1508,1528,1547,1568,1587,1607,1628,1647],"xSR":733.5,"ySR":464.1,"xT1":420.09999999999997,"yT1":0,"xT2":1046.8999999999999,"yT2":0,"toosoon":0,"cond_shown":"equaldotsize","ratio_trial":750,"smaller_num":"6","larger_num":"8","correct_side":1,"subjID":"marianaolarte27","gender":"1","age":"9","school":"4"},{"start_time":1552070312401,"click_time":1552070313582,"finger_time":1552070313142,"fix_duration":1396.4822514876223,"trial":54,"RT":741,"MT":440,"sideResp":2,"stimulus":"img/750/equaldotanddens/R/11_Ratio_750_L_12_R_16.png","xmouse":[793,793,793,793,793,793,793,793,793,793,793,793,793,793,793,793,793,793,793,793,793,793,793,793,793,793,793,793,793,793,793,793,793,794,796,805,832,851,875,901,938,987,995,999,1003,1008,1014,1020,1023,1027,1030,1036,1038,1039,1041,1045,1060,1073,1085,1099],"ymouse":[519,519,519,519,519,519,519,519,519,519,519,519,519,519,519,519,519,519,519,519,519,519,519,519,519,519,519,519,520,521,521,521,521,521,521,519,501,485,453,410,358,244,213,194,182,175,168,163,160,156,153,146,144,143,141,137,127,116,105,91],"timestamp_mouse":[11,38,42,61,81,102,121,142,161,182,202,221,242,261,281,302,322,341,362,381,402,421,442,462,482,501,522,542,561,581,601,621,641,661,682,701,721,741,761,781,801,821,841,861,883,901,922,941,961,982,1001,1021,1042,1061,1081,1101,1121,1141,1162,1181],"xSR":733.5,"ySR":464.1,"xT1":420.09999999999997,"yT1":0,"xT2":1046.8999999999999,"yT2":0,"toosoon":0,"cond_shown":"equaldotanddens","ratio_trial":750,"smaller_num":"12","larger_num":"16","correct_side":2,"subjID":"marianaolarte27","gender":"1","age":"9","school":"4"},{"start_time":1552070318577,"click_time":1552070319242,"finger_time":1552070319183,"fix_duration":1012.866328345174,"trial":55,"RT":606,"MT":59,"sideResp":2,"stimulus":"img/250/equaldotsize/R/9_Ratio_250_L_3_R_12.png","xmouse":[800,800,800,800,800,800,800,800,800,800,800,800,800,800,800,800,800,800,800,800,800,800,800,800,800,800,800,800,805,818,844,904,1052,1100],"ymouse":[522,522,522,522,522,522,522,522,522,522,522,522,522,522,522,522,522,522,522,522,522,522,522,522,522,522,522,522,516,501,462,382,141,17],"timestamp_mouse":[12,26,46,65,85,105,125,146,166,185,206,225,246,265,285,305,325,345,365,385,406,426,445,466,485,506,525,546,565,585,606,625,645,665],"xSR":733.5,"ySR":464.1,"xT1":420.09999999999997,"yT1":0,"xT2":1046.8999999999999,"yT2":0,"toosoon":0,"cond_shown":"equaldotsize","ratio_trial":250,"smaller_num":"3","larger_num":"12","correct_side":2,"subjID":"marianaolarte27","gender":"1","age":"9","school":"4"},{"start_time":1552070321522,"click_time":1552070322522,"finger_time":1552070322162,"fix_duration":1279.5172742094476,"trial":56,"RT":640,"MT":360,"sideResp":2,"stimulus":"img/250/equaldotsize/R/6_Ratio_250_L_6_R_24.png","xmouse":[795,795,795,795,795,795,795,795,795,795,795,795,795,795,795,795,795,795,795,795,795,795,795,795,795,795,795,795,795,800,812,824,843,862,878,909,918,923,928,939,962,970,976,981,987,1006,1024,1041,1059,1072,1091],"ymouse":[543,543,543,543,543,543,543,543,543,543,543,543,543,543,543,543,543,543,543,543,543,543,543,543,543,543,543,543,543,541,530,520,503,485,470,441,433,426,415,402,365,349,337,326,311,266,226,192,156,132,90],"timestamp_mouse":[11,38,40,61,81,100,121,141,160,181,200,220,241,260,280,301,321,340,361,380,401,421,440,462,481,500,520,541,561,580,600,620,640,660,680,700,720,740,761,780,801,820,840,861,881,900,920,940,960,981,1000],"xSR":733.5,"ySR":464.1,"xT1":420.09999999999997,"yT1":0,"xT2":1046.8999999999999,"yT2":0,"toosoon":0,"cond_shown":"equaldotsize","ratio_trial":250,"smaller_num":"6","larger_num":"24","correct_side":2,"subjID":"marianaolarte27","gender":"1","age":"9","school":"4"},{"start_time":1552070323693,"click_time":1552070324762,"finger_time":1552070324402,"fix_duration":250,"trial":57,"RT":709,"MT":360,"sideResp":2,"stimulus":"img/250/equaldotanddens/R/11_Ratio_250_L_3_R_12.png","xmouse":[784,784,784,784,784,784,784,784,784,784,784,784,784,784,784,784,784,784,784,784,784,784,784,784,784,784,784,784,784,784,784,788,797,807,822,840,899,954,967,975,981,988,993,1000,1003,1008,1013,1015,1017,1021,1024,1034,1042,1051],"ymouse":[507,507,507,507,507,507,507,507,507,507,507,507,507,507,507,507,507,507,507,507,507,507,507,507,507,507,507,507,507,507,507,507,503,497,489,477,428,371,351,338,327,308,294,278,264,249,216,202,189,173,156,123,102,81],"timestamp_mouse":[12,42,50,69,89,110,130,150,170,189,210,229,249,269,290,309,329,350,370,389,409,430,449,469,490,509,530,549,569,589,610,629,651,670,689,709,729,749,769,790,809,830,849,869,889,910,929,949,970,989,1010,1029,1050,1069],"xSR":733.5,"ySR":464.1,"xT1":420.09999999999997,"yT1":0,"xT2":1046.8999999999999,"yT2":0,"toosoon":0,"cond_shown":"equaldotanddens","ratio_trial":250,"smaller_num":"3","larger_num":"12","correct_side":2,"subjID":"marianaolarte27","gender":"1","age":"9","school":"4"},{"start_time":1552070325854,"click_time":1552070326783,"finger_time":1552070326464,"fix_duration":250,"trial":58,"RT":610,"MT":319,"sideResp":1,"stimulus":"img/500/equaldotsize/L/11_Ratio_500_L_12_R_6.png","xmouse":[752,752,752,752,752,752,752,752,752,752,752,752,752,752,752,752,752,752,752,752,752,752,752,752,752,752,752,752,751,736,708,670,633,578,563,554,551,551,551,551,551,551,550,546,536,523,507],"ymouse":[557,557,557,557,557,557,557,557,557,557,557,557,557,557,557,557,557,557,557,557,557,557,557,557,557,557,557,557,544,507,440,353,267,140,112,95,89,89,89,89,89,89,89,87,86,82,78],"timestamp_mouse":[19,28,49,68,88,108,128,148,168,188,209,228,248,268,288,309,328,348,368,389,408,428,449,469,488,508,528,549,568,589,610,629,649,668,688,708,728,748,768,788,808,828,848,868,889,908,929],"xSR":733.5,"ySR":464.1,"xT1":420.09999999999997,"yT1":0,"xT2":1046.8999999999999,"yT2":0,"toosoon":0,"cond_shown":"equaldotsize","ratio_trial":500,"smaller_num":"6","larger_num":"12","correct_side":1,"subjID":"marianaolarte27","gender":"1","age":"9","school":"4"},{"start_time":1552070327935,"click_time":1552070328922,"finger_time":1552070328522,"fix_duration":250,"trial":59,"RT":587,"MT":400,"sideResp":2,"stimulus":"img/900/equaldotsize/L/1_Ratio_900_L_10_R_9.png","xmouse":[777,777,777,777,777,777,777,777,777,777,777,777,777,777,777,777,777,777,777,777,777,777,777,777,777,781,793,808,827,870,889,903,914,923,944,954,965,978,992,1017,1024,1031,1034,1038,1053,1062,1071,1080,1086,1093],"ymouse":[509,509,509,509,509,509,509,509,509,509,509,509,509,509,509,509,509,509,509,509,509,509,509,509,509,507,500,491,480,447,431,413,398,385,349,329,308,288,266,224,209,196,188,180,154,140,128,114,106,99],"timestamp_mouse":[12,33,48,67,87,107,127,147,167,188,208,227,248,267,287,307,327,347,367,387,407,427,447,468,487,508,527,548,567,587,607,628,647,667,687,706,727,748,767,787,808,827,847,867,887,908,928,948,968,987],"xSR":733.5,"ySR":464.1,"xT1":420.09999999999997,"yT1":0,"xT2":1046.8999999999999,"yT2":0,"toosoon":0,"cond_shown":"equaldotsize","ratio_trial":900,"smaller_num":"9","larger_num":"10","correct_side":1,"subjID":"marianaolarte27","gender":"1","age":"9","school":"4"},{"start_time":1552070332851,"click_time":1552070334222,"finger_time":1552070333642,"fix_duration":1306.966107495454,"trial":60,"RT":791,"MT":580,"sideResp":1,"stimulus":"img/250/randomdotsizeEA/L/7_Ratio_250_L_8_R_2.png","xmouse":[783,783,783,783,783,783,783,783,783,783,783,783,783,783,783,783,783,783,783,783,783,783,783,783,783,783,783,783,783,783,783,783,783,783,783,783,783,783,784,777,763,745,719,665,641,623,608,597,578,578,578,578,578,578,578,578,578,578,578,578,578,578,578,578,578,578,578,578,486],"ymouse":[492,492,492,492,492,492,492,492,492,492,492,492,492,492,492,492,492,492,492,492,492,492,492,492,492,492,492,492,492,492,492,492,492,492,492,492,492,492,474,443,397,337,275,170,128,94,64,39,0,0,0,0,0,0,0,0,0,0,0,0,0,0,0,0,0,0,0,0,3],"timestamp_mouse":[21,32,52,72,91,111,132,151,171,192,211,231,251,272,291,311,331,352,371,391,411,432,451,471,491,511,532,551,571,592,612,631,652,671,691,712,732,751,771,791,811,832,851,871,892,911,931,951,972,991,1011,1031,1051,1072,1091,1111,1131,1153,1171,1191,1211,1232,1251,1271,1291,1311,1331,1351,1371],"xSR":733.5,"ySR":464.1,"xT1":420.09999999999997,"yT1":0,"xT2":1046.8999999999999,"yT2":0,"toosoon":0,"cond_shown":"randomdotsizeEA","ratio_trial":250,"smaller_num":"2","larger_num":"8","correct_side":1,"subjID":"marianaolarte27","gender":"1","age":"9","school":"4"},{"start_time":1552070336280,"click_time":1552070337303,"finger_time":1552070336842,"fix_duration":1214.9995473886847,"trial":61,"RT":562,"MT":461,"sideResp":2,"stimulus":"img/500/equaldotanddens/R/12_Ratio_500_L_1_R_2.png","xmouse":[779,779,779,779,779,779,779,779,779,779,779,779,779,779,779,779,779,779,779,779,779,779,779,779,779,784,787,823,843,869,891,908,932,935,937,938,939,945,951,959,971,994,1036,1042,1046,1047,1049,1053,1056,1067,1083,1097],"ymouse":[496,496,496,496,496,496,496,496,496,496,496,496,496,496,496,496,496,496,496,496,496,496,496,496,496,496,496,488,478,466,452,439,419,415,411,411,409,404,397,388,377,361,330,321,310,299,286,248,230,190,115,30],"timestamp_mouse":[12,23,44,64,82,103,123,142,162,182,203,222,243,262,282,302,322,343,363,384,403,422,442,463,482,502,523,542,562,582,602,623,642,663,682,704,724,742,763,783,802,824,843,864,882,903,922,942,963,982,1002,1023],"xSR":733.5,"ySR":464.1,"xT1":420.09999999999997,"yT1":0,"xT2":1046.8999999999999,"yT2":0,"toosoon":0,"cond_shown":"equaldotanddens","ratio_trial":500,"smaller_num":"1","larger_num":"2","correct_side":2,"subjID":"marianaolarte27","gender":"1","age":"9","school":"4"},{"start_time":1552070338842,"click_time":1552070339803,"finger_time":1552070339422,"fix_duration":618.3742539885501,"trial":62,"RT":580,"MT":381,"sideResp":1,"stimulus":"img/500/equaldotanddens/L/8_Ratio_500_L_8_R_4.png","xmouse":[760,760,760,760,760,760,760,760,760,760,760,760,760,760,760,760,760,760,760,760,760,760,760,760,760,760,760,755,746,693,643,617,601,591,588,588,588,588,587,586,582,575,565,554,532,524,517,511,507],"ymouse":[534,534,534,534,534,534,534,534,534,534,534,534,534,534,534,534,534,534,534,534,534,534,534,534,534,534,534,520,505,414,326,281,256,243,238,238,238,238,238,231,213,197,180,163,131,120,111,104,99],"timestamp_mouse":[9,35,42,60,80,102,121,141,161,182,200,220,241,261,280,301,321,340,360,381,402,420,441,460,481,500,520,541,560,580,601,621,642,661,681,701,720,740,760,780,800,821,840,860,881,902,920,940,960],"xSR":733.5,"ySR":464.1,"xT1":420.09999999999997,"yT1":0,"xT2":1046.8999999999999,"yT2":0,"toosoon":0,"cond_shown":"equaldotanddens","ratio_trial":500,"smaller_num":"4","larger_num":"8","correct_side":1,"subjID":"marianaolarte27","gender":"1","age":"9","school":"4"},{"start_time":1552070341196,"click_time":1552070342122,"finger_time":1552070341803,"fix_duration":512.1779938242046,"trial":63,"RT":607,"MT":319,"sideResp":1,"stimulus":"img/500/equaldotanddens/L/8_Ratio_500_L_8_R_4.png","xmouse":[768,768,768,768,768,768,768,768,768,768,768,768,768,768,768,768,768,768,768,768,768,768,768,768,768,768,768,767,763,753,730,660,613,588,574,565,555,555,555,555,555,555,554,545,533,520,475],"ymouse":[496,496,496,496,496,496,496,496,496,496,496,496,496,496,496,496,496,496,496,496,496,496,496,496,496,496,496,496,492,474,441,347,277,236,214,195,179,178,178,178,178,178,174,162,148,130,74],"timestamp_mouse":[9,26,47,66,87,107,126,147,168,187,206,226,247,266,288,307,326,346,366,386,407,427,446,466,486,507,526,546,567,588,607,626,646,667,687,707,726,747,766,787,807,827,848,867,888,907,926],"xSR":733.5,"ySR":464.1,"xT1":420.09999999999997,"yT1":0,"xT2":1046.8999999999999,"yT2":0,"toosoon":0,"cond_shown":"equaldotanddens","ratio_trial":500,"smaller_num":"4","larger_num":"8","correct_side":1,"subjID":"marianaolarte27","gender":"1","age":"9","school":"4"},{"start_time":1552070343856,"click_time":1552070344722,"finger_time":1552070344303,"fix_duration":772.4507580552607,"trial":64,"RT":447,"MT":419,"sideResp":1,"stimulus":"img/750/equaldotanddens/L/8_Ratio_750_L_4_R_3.png","xmouse":[748,748,748,748,748,748,748,748,748,748,747,746,744,744,744,744,744,744,743,741,738,734,727,713,706,700,694,687,665,651,635,622,607,577,567,559,552,546,530,522,513,505,498,483],"ymouse":[498,498,498,498,498,498,498,498,498,498,498,498,497,497,497,497,497,497,496,492,487,479,468,442,429,418,407,396,358,340,317,299,282,248,235,224,212,199,169,155,139,122,105,71],"timestamp_mouse":[12,32,47,67,87,107,127,146,166,187,206,227,246,266,286,307,327,348,366,386,408,427,447,466,486,506,526,546,567,586,607,627,646,666,688,707,727,747,766,787,806,827,846,866],"xSR":733.5,"ySR":464.1,"xT1":420.09999999999997,"yT1":0,"xT2":1046.8999999999999,"yT2":0,"toosoon":0,"cond_shown":"equaldotanddens","ratio_trial":750,"smaller_num":"3","larger_num":"4","correct_side":1,"subjID":"marianaolarte27","gender":"1","age":"9","school":"4"},{"start_time":1552070345670,"click_time":1552070346644,"finger_time":1552070346302,"fix_duration":325.72797907049056,"trial":65,"RT":632,"MT":342,"sideResp":2,"stimulus":"img/250/equaldotsize/R/12_Ratio_250_L_5_R_20.png","xmouse":[786,786,786,786,786,786,786,786,786,786,786,786,786,786,786,786,786,786,786,786,786,786,786,786,786,786,786,786,794,810,829,853,885,895,905,914,928,958,986,1005,1031,1051,1072,1077,1079,1082,1085,1089,1090],"ymouse":[535,535,535,535,535,535,535,535,535,535,535,535,535,535,535,535,535,535,535,535,535,535,535,535,535,535,535,535,528,515,499,466,413,397,386,379,369,347,324,307,285,265,235,218,203,185,162,114,89],"timestamp_mouse":[17,42,52,72,93,112,133,152,173,193,212,232,252,273,293,313,333,352,372,392,413,433,452,472,492,514,533,552,573,593,612,632,652,672,692,713,734,753,773,793,812,832,852,873,893,912,932,952,974],"xSR":733.5,"ySR":464.1,"xT1":420.09999999999997,"yT1":0,"xT2":1046.8999999999999,"yT2":0,"toosoon":0,"cond_shown":"equaldotsize","ratio_trial":250,"smaller_num":"5","larger_num":"20","correct_side":2,"subjID":"marianaolarte27","gender":"1","age":"9","school":"4"},{"start_time":1552070348678,"click_time":1552070349703,"finger_time":1552070349423,"fix_duration":1053.4499340267012,"trial":66,"RT":745,"MT":280,"sideResp":1,"stimulus":"img/900/equaldotanddens/L/2_Ratio_900_L_20_R_18.png","xmouse":[775,775,775,775,775,775,775,775,775,775,775,775,775,775,775,775,775,775,775,775,775,775,775,775,775,775,775,775,775,775,775,775,775,775,775,775,774,766,758,751,742,736,725,719,712,701,689,649,628,597,560,494],"ymouse":[482,482,482,482,482,482,482,482,482,482,482,482,482,482,482,482,482,482,482,482,482,482,482,482,482,482,482,482,482,482,482,482,482,482,482,481,477,439,420,402,382,365,341,329,316,298,280,227,200,159,106,16],"timestamp_mouse":[13,25,46,65,84,104,125,144,165,184,205,225,244,265,286,304,326,345,365,385,404,425,445,465,485,506,525,545,565,585,605,625,644,665,684,705,724,745,765,785,805,824,845,865,884,904,924,945,966,984,1005,1025],"xSR":733.5,"ySR":464.1,"xT1":420.09999999999997,"yT1":0,"xT2":1046.8999999999999,"yT2":0,"toosoon":0,"cond_shown":"equaldotanddens","ratio_trial":900,"smaller_num":"18","larger_num":"20","correct_side":1,"subjID":"marianaolarte27","gender":"1","age":"9","school":"4"},{"start_time":1552070353117,"click_time":155207