[{"start_time":1552328375918,"click_time":1552328377827,"finger_time":1552328377007,"fix_duration":1185.543776769737,"trial":0,"RT":1089,"MT":820,"sideResp":2,"stimulus":"img/500/equaldotsize/R/15_Ratio_500_L_1_R_2.png","xmouse":[791,791,791,791,791,791,791,791,791,791,791,791,791,791,791,791,791,791,791,791,791,791,791,791,791,791,791,791,791,791,791,791,791,791,791,791,791,791,791,791,791,791,791,791,791,791,791,791,791,791,791,791,798,813,847,859,886,917,931,946,960,973,993,999,1004,1011,1015,1021,1024,1028,1031,1034,1039,1042,1043,1047,1055,1066,1071,1075,1079,1081,1085,1085,1085,1085,1085,1085,1086,1086,1088,1089,1091,1092,1092,1093],"ymouse":[519,519,519,519,519,519,519,519,519,519,519,519,519,519,519,519,519,519,519,519,519,519,519,519,519,519,519,519,519,519,519,519,519,519,519,519,519,519,519,519,519,519,519,519,519,519,519,519,519,519,509,506,494,478,451,442,414,370,350,331,319,308,296,294,293,291,290,288,286,285,282,276,265,252,248,237,216,186,171,156,142,135,125,124,124,124,124,124,124,122,119,117,110,105,102,99],"timestamp_mouse":[10,31,48,69,88,109,129,150,169,188,208,230,249,270,289,308,329,348,370,390,410,428,450,470,488,509,530,550,569,590,609,630,650,669,688,709,729,749,768,788,810,830,850,869,890,908,929,950,970,989,1008,1028,1048,1069,1089,1109,1128,1149,1168,1189,1209,1229,1249,1270,1288,1310,1329,1349,1369,1389,1408,1429,1449,1468,1488,1508,1528,1549,1569,1589,1608,1629,1649,1668,1688,1709,1730,1749,1768,1789,1809,1829,1849,1869,1888,1908],"xSR":741.5,"ySR":469.95,"xT1":424.9,"yT1":0,"xT2":1058.1,"yT2":0,"toosoon":0,"cond_shown":"equaldotsize","ratio_trial":500,"smaller_num":"1","larger_num":"2","correct_side":2,"subjID":"marianarodriguez15","gender":"1","age":"9","school":"4","test":{"fix_dur":[250,1500],"timestim":300,"targets_dim":[100,100],"targets_relative_coord":[0.3,0.7],"size_stim":[880,420],"start_dim":[100,100],"size_start":[300,300],"size_fix":60,"samplingrate":20,"img_types":["equaldotsize","equaldotanddens","randomdotsizeEA"],"ratios":[250,500,750,900],"rep_conds":9,"nTrials":120,"trials_to_rest":500,"Trials_order":[3,10,16,2,94,74,14,24,78,106,90,49,59,70,45,111,87,42,84,19,41,56,92,86,63,64,68,99,76,20,18,75,95,22,7,80,37,36,100,108,118,17,52,13,60,44,8,117,57,71,51,33,101,115,119,9,98,38,21,97,66,73,12,50,48,23,89,77,40,43,83,85,11,82,61,104,110,54,32,58,27,35,39,109,116,4,26,55,72,67,112,25,0,46,114,6,31,88,28,79,29,91,96,1,15,62,107,93,34,53,69,81,47,105,113,103,30,5,102,65],"cond_shown":["equaldotsize","equaldotanddens","equaldotanddens","randomdotsizeEA","equaldotanddens","randomdotsizeEA","randomdotsizeEA","equaldotsize","equaldotsize","equaldotanddens","equaldotsize","equaldotanddens","randomdotsizeEA","equaldotanddens","equaldotsize","equaldotsize","equaldotsize","equaldotsize","equaldotsize","equaldotanddens","randomdotsizeEA","randomdotsizeEA","randomdotsizeEA","randomdotsizeEA","equaldotsize","equaldotanddens","randomdotsizeEA","equaldotsize","equaldotanddens","randomdotsizeEA","equaldotsize","equaldotsize","randomdotsizeEA","equaldotanddens","equaldotanddens","randomdotsizeEA","equaldotanddens","equaldotsize","equaldotanddens","equaldotsize","equaldotanddens","randomdotsizeEA","equaldotanddens","equaldotanddens","equaldotsize","randomdotsizeEA","randomdotsizeEA","equaldotsize","equaldotsize","randomdotsizeEA","equaldotsize","equaldotsize","randomdotsizeEA","equaldotanddens","randomdotsizeEA","equaldotsize","randomdotsizeEA","randomdotsizeEA","equaldotsize","equaldotanddens","equaldotsize","equaldotanddens","equaldotsize","randomdotsizeEA","equaldotsize","randomdotsizeEA","randomdotsizeEA","randomdotsizeEA","equaldotanddens","equaldotanddens","randomdotsizeEA","equaldotanddens","randomdotsizeEA","equaldotanddens","equaldotanddens","randomdotsizeEA","randomdotsizeEA","equaldotsize","randomdotsizeEA","equaldotanddens","equaldotsize","randomdotsizeEA","equaldotsize","equaldotanddens","randomdotsizeEA","equaldotanddens","randomdotsizeEA","equaldotanddens","equaldotsize","equaldotanddens","equaldotanddens","equaldotanddens","equaldotsize","equaldotanddens","equaldotsize","equaldotsize","equaldotanddens","equaldotanddens","equaldotanddens","equaldotanddens","randomdotsizeEA","equaldotanddens","equaldotsize","equaldotanddens","equaldotsize","randomdotsizeEA","randomdotsizeEA","equaldotsize","equaldotanddens","randomdotsizeEA","equaldotsize","equaldotsize","randomdotsizeEA","equaldotsize","randomdotsizeEA","equaldotanddens","equaldotsize","randomdotsizeEA","equaldotsize","randomdotsizeEA"],"ratio_trial":[500,900,500,250,900,250,250,250,750,900,750,250,900,900,900,500,500,750,250,750,500,750,750,250,500,500,750,500,500,750,750,500,900,900,750,750,250,250,500,250,900,500,500,250,250,750,750,900,900,900,500,900,500,750,900,900,250,250,900,250,750,250,250,250,250,900,500,500,500,750,900,250,900,900,250,750,250,750,750,900,500,900,500,250,750,500,250,750,250,750,500,250,250,900,750,750,750,500,500,750,500,750,250,250,500,250,900,900,900,500,900,900,900,900,500,750,750,500,750,500],"smaller_num":["1","18","10","2","9","3","2","2","15","18","3","1","18","18","9","9","2","18","2","15","2","3","3","2","6","9","15","6","5","15","6","9","18","18","15","9","3","3","9","3","18","5","6","2","2","6","18","18","9","18","9","18","10","9","9","18","5","6","18","3","6","6","6","2","2","18","10","1","2","3","9","2","9","18","3","15","3","3","9","9","9","18","5","1","15","6","4","12","3","15","10","2","2","9","3","12","15","5","2","9","2","6","6","2","2","3","18","9","18","6","18","18","18","18","9","15","6","10","3","1"],"larger_num":["2","20","20","8","10","12","8","8","20","20","4","4","20","20","10","18","4","24","8","20","4","4","4","8","12","18","20","12","10","20","8","18","20","20","20","12","12","12","18","12","20","10","12","8","8","8","24","20","10","20","18","20","20","12","10","20","20","24","20","12","8","24","24","8","8","20","20","2","4","4","10","8","10","20","12","20","12","4","12","10","18","20","10","4","20","12","16","16","12","20","20","8","8","10","4","16","20","10","4","12","4","8","24","8","4","12","20","10","20","12","20","20","20","20","18","20","8","20","4","2"],"correct_side":[2,1,2,1,2,2,2,1,1,2,2,2,1,1,2,2,1,1,1,1,1,1,2,1,1,2,1,1,2,1,1,2,1,1,1,2,2,1,2,2,1,1,1,1,1,1,1,2,1,2,1,2,2,2,2,1,2,2,1,1,2,1,1,1,1,1,2,2,1,2,2,1,1,1,1,2,1,1,2,2,2,1,2,2,2,1,1,2,1,2,2,1,1,2,1,2,1,2,1,2,2,1,2,1,2,2,1,1,1,1,1,2,1,1,2,2,1,2,1,2],"img_shown":["img/500/equaldotsize/R/15_Ratio_500_L_1_R_2.png","img/900/equaldotanddens/L/8_Ratio_900_L_20_R_18.png","img/500/equaldotanddens/R/3_Ratio_500_L_10_R_20.png","img/250/randomdotsizeEA/L/3_Ratio_250_L_8_R_2.png","img/900/equaldotanddens/R/5_Ratio_900_L_9_R_10.png","img/250/randomdotsizeEA/R/4_Ratio_250_L_3_R_12.png","img/250/randomdotsizeEA/R/13_Ratio_250_L_2_R_8.png","img/250/equaldotsize/L/7_Ratio_250_L_8_R_2.png","img/750/equaldotsize/L/1_Ratio_750_L_20_R_15.png","img/900/equaldotanddens/R/12_Ratio_900_L_18_R_20.png","img/750/equaldotsize/R/7_Ratio_750_L_3_R_4.png","img/250/equaldotanddens/R/8_Ratio_250_L_1_R_4.png","img/900/randomdotsizeEA/L/8_Ratio_900_L_20_R_18.png","img/900/equaldotanddens/L/10_Ratio_900_L_20_R_18.png","img/900/equaldotsize/R/3_Ratio_900_L_9_R_10.png","img/500/equaldotsize/R/1_Ratio_500_L_9_R_18.png","img/500/equaldotsize/L/5_Ratio_500_L_4_R_2.png","img/750/equaldotsize/L/6_Ratio_750_L_24_R_18.png","img/250/equaldotsize/L/7_Ratio_250_L_8_R_2.png","img/750/equaldotanddens/L/1_Ratio_750_L_20_R_15.png","img/500/randomdotsizeEA/L/10_Ratio_500_L_4_R_2.png","img/750/randomdotsizeEA/L/9_Ratio_750_L_4_R_3.png","img/750/randomdotsizeEA/R/7_Ratio_750_L_3_R_4.png","img/250/randomdotsizeEA/L/1_Ratio_250_L_8_R_2.png","img/500/equaldotsize/L/11_Ratio_500_L_12_R_6.png","img/500/equaldotanddens/R/6_Ratio_500_L_9_R_18.png","img/750/randomdotsizeEA/L/1_Ratio_750_L_20_R_15.png","img/500/equaldotsize/L/13_Ratio_500_L_12_R_6.png","img/500/equaldotanddens/R/14_Ratio_500_L_5_R_10.png","img/750/randomdotsizeEA/L/1_Ratio_750_L_20_R_15.png","img/750/equaldotsize/L/13_Ratio_750_L_8_R_6.png","img/500/equaldotsize/R/6_Ratio_500_L_9_R_18.png","img/900/randomdotsizeEA/L/10_Ratio_900_L_20_R_18.png","img/900/equaldotanddens/L/4_Ratio_900_L_20_R_18.png","img/750/equaldotanddens/L/1_Ratio_750_L_20_R_15.png","img/750/randomdotsizeEA/R/15_Ratio_750_L_9_R_12.png","img/250/equaldotanddens/R/9_Ratio_250_L_3_R_12.png","img/250/equaldotsize/L/14_Ratio_250_L_12_R_3.png","img/500/equaldotanddens/R/1_Ratio_500_L_9_R_18.png","img/250/equaldotsize/R/4_Ratio_250_L_3_R_12.png","img/900/equaldotanddens/L/8_Ratio_900_L_20_R_18.png","img/500/randomdotsizeEA/L/7_Ratio_500_L_10_R_5.png","img/500/equaldotanddens/L/13_Ratio_500_L_12_R_6.png","img/250/equaldotanddens/L/7_Ratio_250_L_8_R_2.png","img/250/equaldotsize/L/3_Ratio_250_L_8_R_2.png","img/750/randomdotsizeEA/L/13_Ratio_750_L_8_R_6.png","img/750/randomdotsizeEA/L/6_Ratio_750_L_24_R_18.png","img/900/equaldotsize/R/12_Ratio_900_L_18_R_20.png","img/900/equaldotsize/L/1_Ratio_900_L_10_R_9.png","img/900/randomdotsizeEA/R/11_Ratio_900_L_18_R_20.png","img/500/equaldotsize/L/4_Ratio_500_L_18_R_9.png","img/900/equaldotsize/R/13_Ratio_900_L_18_R_20.png","img/500/randomdotsizeEA/R/3_Ratio_500_L_10_R_20.png","img/750/equaldotanddens/R/15_Ratio_750_L_9_R_12.png","img/900/randomdotsizeEA/R/15_Ratio_900_L_9_R_10.png","img/900/equaldotsize/L/4_Ratio_900_L_20_R_18.png","img/250/randomdotsizeEA/R/12_Ratio_250_L_5_R_20.png","img/250/randomdotsizeEA/R/6_Ratio_250_L_6_R_24.png","img/900/equaldotsize/L/4_Ratio_900_L_20_R_18.png","img/250/equaldotanddens/L/15_Ratio_250_L_12_R_3.png","img/750/equaldotsize/R/2_Ratio_750_L_6_R_8.png","img/250/equaldotanddens/L/5_Ratio_250_L_24_R_6.png","img/250/equaldotsize/L/5_Ratio_250_L_24_R_6.png","img/250/randomdotsizeEA/L/1_Ratio_250_L_8_R_2.png","img/250/equaldotsize/L/3_Ratio_250_L_8_R_2.png","img/900/randomdotsizeEA/L/8_Ratio_900_L_20_R_18.png","img/500/randomdotsizeEA/R/3_Ratio_500_L_10_R_20.png","img/500/randomdotsizeEA/R/15_Ratio_500_L_1_R_2.png","img/500/equaldotanddens/L/5_Ratio_500_L_4_R_2.png","img/750/equaldotanddens/R/7_Ratio_750_L_3_R_4.png","img/900/randomdotsizeEA/R/15_Ratio_900_L_9_R_10.png","img/250/equaldotanddens/L/7_Ratio_250_L_8_R_2.png","img/900/randomdotsizeEA/L/1_Ratio_900_L_10_R_9.png","img/900/equaldotanddens/L/4_Ratio_900_L_20_R_18.png","img/250/equaldotanddens/L/14_Ratio_250_L_12_R_3.png","img/750/randomdotsizeEA/R/4_Ratio_750_L_15_R_20.png","img/250/randomdotsizeEA/L/14_Ratio_250_L_12_R_3.png","img/750/equaldotsize/L/10_Ratio_750_L_4_R_3.png","img/750/randomdotsizeEA/R/15_Ratio_750_L_9_R_12.png","img/900/equaldotanddens/R/7_Ratio_900_L_9_R_10.png","img/500/equaldotsize/R/6_Ratio_500_L_9_R_18.png","img/900/randomdotsizeEA/L/4_Ratio_900_L_20_R_18.png","img/500/equaldotsize/R/14_Ratio_500_L_5_R_10.png","img/250/equaldotanddens/R/8_Ratio_250_L_1_R_4.png","img/750/randomdotsizeEA/R/5_Ratio_750_L_15_R_20.png","img/500/equaldotanddens/L/13_Ratio_500_L_12_R_6.png","img/250/randomdotsizeEA/L/2_Ratio_250_L_16_R_4.png","img/750/equaldotanddens/R/11_Ratio_750_L_12_R_16.png","img/250/equaldotsize/L/14_Ratio_250_L_12_R_3.png","img/750/equaldotanddens/R/5_Ratio_750_L_15_R_20.png","img/500/equaldotanddens/R/3_Ratio_500_L_10_R_20.png","img/250/equaldotanddens/L/3_Ratio_250_L_8_R_2.png","img/250/equaldotsize/L/1_Ratio_250_L_8_R_2.png","img/900/equaldotanddens/R/7_Ratio_900_L_9_R_10.png","img/750/equaldotsize/L/9_Ratio_750_L_4_R_3.png","img/750/equaldotsize/R/11_Ratio_750_L_12_R_16.png","img/750/equaldotanddens/L/1_Ratio_750_L_20_R_15.png","img/500/equaldotanddens/R/14_Ratio_500_L_5_R_10.png","img/500/equaldotanddens/L/5_Ratio_500_L_4_R_2.png","img/750/equaldotanddens/R/15_Ratio_750_L_9_R_12.png","img/500/randomdotsizeEA/R/9_Ratio_500_L_2_R_4.png","img/750/equaldotanddens/L/13_Ratio_750_L_8_R_6.png","img/250/equaldotsize/R/6_Ratio_250_L_6_R_24.png","img/250/equaldotanddens/L/3_Ratio_250_L_8_R_2.png","img/500/equaldotsize/R/9_Ratio_500_L_2_R_4.png","img/250/randomdotsizeEA/R/4_Ratio_250_L_3_R_12.png","img/900/randomdotsizeEA/L/8_Ratio_900_L_20_R_18.png","img/900/equaldotsize/L/1_Ratio_900_L_10_R_9.png","img/900/equaldotanddens/L/10_Ratio_900_L_20_R_18.png","img/500/randomdotsizeEA/L/11_Ratio_500_L_12_R_6.png","img/900/equaldotsize/L/8_Ratio_900_L_20_R_18.png","img/900/equaldotsize/R/13_Ratio_900_L_18_R_20.png","img/900/randomdotsizeEA/L/10_Ratio_900_L_20_R_18.png","img/900/equaldotsize/L/2_Ratio_900_L_20_R_18.png","img/500/randomdotsizeEA/R/1_Ratio_500_L_9_R_18.png","img/750/equaldotanddens/R/3_Ratio_750_L_15_R_20.png","img/750/equaldotsize/L/14_Ratio_750_L_8_R_6.png","img/500/randomdotsizeEA/R/3_Ratio_500_L_10_R_20.png","img/750/equaldotsize/L/9_Ratio_750_L_4_R_3.png","img/500/randomdotsizeEA/R/15_Ratio_500_L_1_R_2.png"],"Rat0":[["12_Ratio_0_L_9_R_0.png","13_Ratio_0_L_6_R_0.png","5_Ratio_0_L_2_R_0.png","6_Ratio_0_L_4_R_0.png","8_Ratio_0_L_6_R_0.png"],["1_Ratio_0_L_0_R_17.png","10_Ratio_0_L_0_R_22.png","11_Ratio_0_L_0_R_1.png","14_Ratio_0_L_0_R_24.png","15_Ratio_0_L_0_R_4.png","2_Ratio_0_L_0_R_5.png","3_Ratio_0_L_0_R_17.png","4_Ratio_0_L_0_R_7.png","7_Ratio_0_L_0_R_19.png","9_Ratio_0_L_0_R_15.png"]],"Rat250":[["1_Ratio_250_L_8_R_2.png","14_Ratio_250_L_12_R_3.png","15_Ratio_250_L_12_R_3.png","2_Ratio_250_L_16_R_4.png","3_Ratio_250_L_8_R_2.png","5_Ratio_250_L_24_R_6.png","7_Ratio_250_L_8_R_2.png"],["10_Ratio_250_L_4_R_16.png","11_Ratio_250_L_3_R_12.png","12_Ratio_250_L_5_R_20.png","13_Ratio_250_L_2_R_8.png","4_Ratio_250_L_3_R_12.png","6_Ratio_250_L_6_R_24.png","8_Ratio_250_L_1_R_4.png","9_Ratio_250_L_3_R_12.png"]],"Rat500":[["10_Ratio_500_L_4_R_2.png","11_Ratio_500_L_12_R_6.png","13_Ratio_500_L_12_R_6.png","4_Ratio_500_L_18_R_9.png","5_Ratio_500_L_4_R_2.png","7_Ratio_500_L_10_R_5.png","8_Ratio_500_L_8_R_4.png"],["1_Ratio_500_L_9_R_18.png","12_Ratio_500_L_1_R_2.png","14_Ratio_500_L_5_R_10.png","15_Ratio_500_L_1_R_2.png","2_Ratio_500_L_3_R_6.png","3_Ratio_500_L_10_R_20.png","6_Ratio_500_L_9_R_18.png","9_Ratio_500_L_2_R_4.png"]],"Rat750":[["1_Ratio_750_L_20_R_15.png","10_Ratio_750_L_4_R_3.png","13_Ratio_750_L_8_R_6.png","14_Ratio_750_L_8_R_6.png","6_Ratio_750_L_24_R_18.png","8_Ratio_750_L_4_R_3.png","9_Ratio_750_L_4_R_3.png"],["11_Ratio_750_L_12_R_16.png","12_Ratio_750_L_3_R_4.png","15_Ratio_750_L_9_R_12.png","2_Ratio_750_L_6_R_8.png","3_Ratio_750_L_15_R_20.png","4_Ratio_750_L_15_R_20.png","5_Ratio_750_L_15_R_20.png","7_Ratio_750_L_3_R_4.png"]],"Rat900":[["1_Ratio_900_L_10_R_9.png","10_Ratio_900_L_20_R_18.png","2_Ratio_900_L_20_R_18.png","4_Ratio_900_L_20_R_18.png","8_Ratio_900_L_20_R_18.png"],["11_Ratio_900_L_18_R_20.png","12_Ratio_900_L_18_R_20.png","13_Ratio_900_L_18_R_20.png","14_Ratio_900_L_18_R_20.png","15_Ratio_900_L_9_R_10.png","3_Ratio_900_L_9_R_10.png","5_Ratio_900_L_9_R_10.png","6_Ratio_900_L_9_R_10.png","7_Ratio_900_L_9_R_10.png","9_Ratio_900_L_18_R_20.png"]],"Rat1000":[["10_Ratio_1000_L_16_R_16.png","11_Ratio_1000_L_6_R_6.png","12_Ratio_1000_L_14_R_14.png","13_Ratio_1000_L_20_R_20.png","15_Ratio_1000_L_15_R_15.png","2_Ratio_1000_L_17_R_17.png","4_Ratio_1000_L_9_R_9.png","5_Ratio_1000_L_6_R_6.png","6_Ratio_1000_L_19_R_19.png","8_Ratio_1000_L_14_R_14.png","9_Ratio_1000_L_25_R_25.png"],["1_Ratio_1000_L_1_R_1.png","14_Ratio_1000_L_17_R_17.png","3_Ratio_1000_L_17_R_17.png","7_Ratio_1000_L_6_R_6.png"]]}},{"start_time":1552328379978,"click_time":1552328381568,"finger_time":1552328380767,"fix_duration":749.1795663119791,"trial":1,"RT":789,"MT":801,"sideResp":1,"stimulus":"img/900/equaldotanddens/L/8_Ratio_900_L_20_R_18.png","xmouse":[818,818,818,818,818,818,818,818,818,818,818,818,818,818,818,818,818,818,818,818,818,818,818,818,818,818,818,818,818,818,818,818,818,818,818,818,818,818,815,790,746,713,682,652,603,585,569,559,552,546,542,539,536,533,526,524,523,522,520,518,515,513,510,507,503,503,503,503,503,503,503,503,503,503,503,502,502,502,502,502],"ymouse":[482,482,482,482,482,482,482,482,482,482,482,482,482,482,482,482,482,482,482,482,482,482,482,482,482,482,482,482,482,482,482,482,482,482,482,482,482,482,481,467,437,414,391,370,331,316,302,292,280,263,249,240,227,214,188,177,167,157,149,134,125,118,114,110,108,108,108,108,108,108,108,108,108,108,108,107,107,105,103,95],"timestamp_mouse":[11,32,49,68,90,109,129,150,168,189,209,230,249,269,288,308,329,348,370,388,409,428,450,470,490,510,529,548,568,588,610,629,650,670,689,710,729,749,769,789,808,829,850,869,889,909,930,949,969,989,1009,1028,1050,1069,1089,1109,1128,1148,1169,1188,1209,1229,1249,1268,1289,1308,1330,1350,1369,1389,1409,1429,1449,1468,1489,1508,1530,1550,1568,1590],"xSR":741.5,"ySR":469.95,"xT1":424.9,"yT1":0,"xT2":1058.1,"yT2":0,"toosoon":0,"cond_shown":"equaldotanddens","ratio_trial":900,"smaller_num":"18","larger_num":"20","correct_side":1,"subjID":"marianarodriguez15","gender":"1","age":"9","school":"4"},{"start_time":1552328384379,"click_time":1552328385387,"finger_time":1552328385186,"fix_duration":250,"trial":2,"RT":807,"MT":201,"sideResp":2,"stimulus":"img/500/equaldotanddens/R/3_Ratio_500_L_10_R_20.png","xmouse":[775,774,775,777,780,784,785,785,785,786,787,788,789,789,789,789,789,789,789,789,789,789,789,789,789,789,789,789,789,789,789,789,789,789,789,789,791,798,802,818,843,859,873,892,912,956,979,999,1018,1047,1068],"ymouse":[566,565,562,559,556,552,551,551,551,552,561,566,568,568,568,568,568,568,568,568,568,568,568,568,568,568,568,568,568,568,568,568,568,568,568,568,569,560,555,533,491,465,435,391,345,238,182,136,95,40,2],"timestamp_mouse":[9,27,47,68,88,107,128,147,169,188,208,228,247,268,289,308,328,347,368,389,408,429,448,467,488,507,528,548,569,588,608,627,647,669,689,708,728,748,768,788,807,828,848,868,887,908,929,949,968,987,1007],"xSR":741.5,"ySR":469.95,"xT1":424.9,"yT1":0,"xT2":1058.1,"yT2":0,"toosoon":0,"cond_shown":"equaldotanddens","ratio_trial":500,"smaller_num":"10","larger_num":"20","correct_side":2,"subjID":"marianarodriguez15","gender":"1","age":"9","school":"4"},{"start_time":1552328388386,"click_time":1552328389487,"finger_time":1552328389087,"fix_duration":698.0647141737095,"trial":3,"RT":701,"MT":400,"sideResp":2,"stimulus":"img/250/randomdotsizeEA/L/3_Ratio_250_L_8_R_2.png","xmouse":[819,819,819,819,819,819,819,819,819,819,819,819,819,819,819,819,819,819,819,819,819,819,819,819,819,819,819,819,819,819,819,819,819,819,819,822,839,854,871,887,912,918,921,925,930,945,953,964,979,995,1024,1034,1043,1049,1053,1060],"ymouse":[477,477,477,477,477,477,477,477,477,477,477,477,477,477,477,477,477,477,477,477,477,477,477,477,477,477,477,477,477,477,477,477,477,476,475,464,449,439,426,413,390,380,371,362,351,315,295,270,241,213,160,143,127,116,110,98],"timestamp_mouse":[10,21,41,60,81,102,121,141,162,180,202,221,241,262,282,301,321,340,360,381,402,422,441,460,482,501,522,541,561,581,602,620,642,661,681,700,720,740,760,780,801,821,841,861,881,901,921,941,961,982,1001,1020,1042,1061,1082,1101],"xSR":741.5,"ySR":469.95,"xT1":424.9,"yT1":0,"xT2":1058.1,"yT2":0,"toosoon":0,"cond_shown":"randomdotsizeEA","ratio_trial":250,"smaller_num":"2","larger_num":"8","correct_side":1,"subjID":"marianarodriguez15","gender":"1","age":"9","school":"4"},{"start_time":1552328422010,"click_time":1552328423647,"finger_time":1552328422567,"fix_duration":261.67065261611646,"trial":4,"RT":557,"MT":1080,"sideResp":2,"stimulus":"img/900/equaldotanddens/R/5_Ratio_900_L_9_R_10.png","xmouse":[797,797,797,797,797,797,797,797,797,797,797,797,797,797,797,797,797,797,797,797,797,797,797,797,796,798,800,802,805,808,811,815,825,829,835,840,847,857,887,931,988,1062,1219,1276,1313,1335,1345,1353,1354,1355,1356,1356,1358,1358,1358,1358,1358,1358,1358,1358,1358,1358,1358,1250,1245,1238,1233,1230,1230,1229,1229,1228,1227,1225,1223,1219,1215,1199,1186,1174,1163,1154],"ymouse":[508,508,508,508,508,508,508,508,508,508,508,508,508,508,508,508,508,508,508,508,508,508,508,508,504,494,479,444,415,399,385,371,350,343,335,330,324,319,308,290,276,248,165,127,96,73,57,37,29,27,25,23,17,11,4,1,1,1,1,1,1,1,1,2,7,18,23,31,35,38,39,41,45,47,50,54,57,68,79,87,92,96],"timestamp_mouse":[17,37,57,76,96,117,137,158,176,197,216,238,257,278,297,317,338,356,377,398,418,437,458,477,498,517,538,557,576,597,617,637,657,677,697,716,738,757,777,797,817,836,857,877,898,917,938,957,977,997,1016,1038,1057,1077,1097,1117,1138,1157,1177,1197,1217,1237,1257,1277,1297,1317,1337,1357,1377,1397,1416,1436,1457,1477,1497,1517,1537,1558,1576,1597,1618,1637],"xSR":741.5,"ySR":469.95,"xT1":424.9,"yT1":0,"xT2":1058.1,"yT2":0,"toosoon":0,"cond_shown":"equaldotanddens","ratio_trial":900,"smaller_num":"9","larger_num":"10","correct_side":2,"subjID":"marianarodriguez15","gender":"1","age":"9","school":"4"},{"start_time":1552328425789,"click_time":1552328427588,"finger_time":1552328426548,"fix_duration":520.1706313295505,"trial":5,"RT":759,"MT":1040,"sideResp":2,"stimulus":"img/250/randomdotsizeEA/R/4_Ratio_250_L_3_R_12.png","xmouse":[765,765,765,765,765,765,765,765,765,765,765,765,765,765,765,765,765,765,765,767,770,772,775,777,779,781,784,786,797,800,802,804,805,805,805,806,806,806,806,801,797,791,780,770,745,728,711,695,670,666,666,665,665,665,665,673,685,708,729,749,755,764,774,791,825,836,841,846,851,859,863,867,871,881,905,917,923,928,931,934,938,945,956,968,1002,1019,1033,1048,1054,1063],"ymouse":[501,501,501,501,501,501,501,501,501,501,501,501,501,501,501,501,501,501,501,501,501,501,501,501,500,499,497,495,485,481,478,475,474,472,471,471,470,467,467,458,448,433,408,375,285,235,197,164,112,106,106,106,106,106,106,106,110,116,123,130,132,137,140,145,150,151,151,151,151,146,142,137,134,129,120,118,116,115,113,113,112,111,110,108,103,100,95,83,74,53],"timestamp_mouse":[18,39,59,78,98,118,139,159,178,199,217,238,259,278,299,318,338,359,378,399,418,439,458,479,498,518,538,558,578,599,618,639,658,679,698,718,738,759,778,797,818,838,858,879,897,919,938,958,978,997,1018,1037,1057,1077,1099,1119,1138,1159,1178,1197,1218,1238,1258,1278,1297,1318,1338,1359,1378,1398,1418,1438,1458,1479,1498,1518,1538,1559,1580,1597,1618,1638,1658,1679,1698,1718,1738,1759,1778,1798],"xSR":741.5,"ySR":469.95,"xT1":424.9,"yT1":0,"xT2":1058.1,"yT2":0,"toosoon":0,"cond_shown":"randomdotsizeEA","ratio_trial":250,"smaller_num":"3","larger_num":"12","correct_side":2,"subjID":"marianarodriguez15","gender":"1","age":"9","school":"4"},{"start_time":1552328429329,"click_time":1552328430567,"finger_time":1552328430207,"fix_duration":699.1766117788944,"trial":6,"RT":878,"MT":360,"sideResp":2,"stimulus":"img/250/randomdotsizeEA/R/13_Ratio_250_L_2_R_8.png","xmouse":[816,816,816,816,816,816,816,816,816,816,816,816,816,816,816,816,816,816,816,816,816,816,816,816,816,816,816,816,816,816,816,816,816,816,816,816,816,816,816,816,816,816,818,833,840,847,853,859,866,870,877,884,893,910,916,923,927,932,948,974,1004,1045,1070],"ymouse":[495,495,495,495,495,495,495,495,495,495,495,495,495,495,495,495,495,495,495,495,495,495,495,495,495,495,495,495,495,495,495,495,495,495,495,495,495,495,495,495,495,495,492,470,457,444,431,418,394,381,355,333,312,270,256,244,238,230,207,165,110,45,10],"timestamp_mouse":[2,22,42,58,77,98,118,139,159,178,199,219,239,259,278,299,319,338,357,379,398,418,439,458,478,499,519,539,557,579,598,618,638,657,679,698,719,738,758,779,798,819,838,858,878,898,918,938,958,978,998,1019,1038,1058,1078,1097,1118,1139,1158,1178,1198,1219,1238],"xSR":741.5,"ySR":469.95,"xT1":424.9,"yT1":0,"xT2":1058.1,"yT2":0,"toosoon":0,"cond_shown":"randomdotsizeEA","ratio_trial":250,"smaller_num":"2","larger_num":"8","correct_side":2,"subjID":"marianarodriguez15","gender":"1","age":"9","school":"4"},{"start_time":1552328433116,"click_time":1552328434487,"finger_time":1552328433968,"fix_duration":1487.666992312879,"trial":7,"RT":852,"MT":519,"sideResp":1,"stimulus":"img/250/equaldotsize/L/7_Ratio_250_L_8_R_2.png","xmouse":[758,758,758,758,758,758,758,758,758,758,758,758,758,758,758,758,758,759,759,759,759,759,759,759,759,759,759,759,759,759,759,759,759,759,759,759,763,766,782,799,810,820,828,835,835,835,835,835,835,835,835,835,835,835,828,819,807,798,779,769,761,746,724,659,625,583,534,493,430],"ymouse":[487,487,487,487,487,487,487,487,487,487,487,487,487,487,487,487,487,488,488,488,488,488,488,488,488,488,488,488,488,488,488,488,488,488,488,488,488,488,485,479,475,470,466,462,461,461,461,461,461,461,461,461,461,461,457,453,448,444,426,413,397,374,342,251,213,178,146,118,84],"timestamp_mouse":[12,31,52,72,92,111,132,152,172,191,212,232,252,271,290,312,331,351,372,392,411,432,450,471,492,511,532,552,571,592,611,632,651,671,692,710,731,752,771,792,811,832,852,872,890,912,932,952,972,991,1012,1032,1051,1072,1090,1111,1131,1151,1172,1190,1211,1231,1251,1272,1291,1310,1330,1352,1371],"xSR":741.5,"ySR":469.95,"xT1":424.9,"yT1":0,"xT2":1058.1,"yT2":0,"toosoon":0,"cond_shown":"equaldotsize","ratio_trial":250,"smaller_num":"2","larger_num":"8","correct_side":1,"subjID":"marianarodriguez15","gender":"1","age":"9","school":"4"},{"start_time":1552328437590,"click_time":1552328438827,"finger_time":1552328438367,"fix_duration":1300.4281534408663,"trial":8,"RT":777,"MT":460,"sideResp":1,"stimulus":"img/750/equaldotsize/L/1_Ratio_750_L_20_R_15.png","xmouse":[814,814,814,814,815,816,816,817,818,819,820,821,822,823,824,824,824,824,824,824,824,824,824,824,824,824,824,824,824,824,824,824,824,824,824,825,819,807,789,759,678,644,606,563,544,519,510,502,497,493,491,491,490,490,490,490,490,490,488,485,480,474],"ymouse":[501,501,501,501,501,501,501,501,501,501,502,502,502,502,503,503,503,503,503,503,503,503,503,503,503,503,503,503,503,503,503,503,503,503,503,503,494,481,467,446,397,378,353,325,310,281,271,263,256,250,243,239,233,228,222,204,193,180,165,148,111,88],"timestamp_mouse":[18,36,57,77,97,117,137,157,176,197,217,238,257,278,298,317,338,357,377,397,417,438,458,482,496,517,538,556,578,597,618,637,657,676,696,716,737,758,777,797,817,837,857,878,897,917,937,957,977,998,1016,1037,1057,1078,1097,1116,1137,1156,1176,1197,1216,1237],"xSR":741.5,"ySR":469.95,"xT1":424.9,"yT1":0,"xT2":1058.1,"yT2":0,"toosoon":0,"cond_shown":"equaldotsize","ratio_trial":750,"smaller_num":"15","larger_num":"20","correct_side":1,"subjID":"marianarodriguez15","gender":"1","age":"9","school":"4"},{"start_time":1552328440817,"click_time":1552328442168,"finger_time":1552328441887,"fix_duration":586.5424750803113,"trial":9,"RT":1070,"MT":281,"sideResp":1,"stimulus":"img/900/equaldotanddens/R/12_Ratio_900_L_18_R_20.png","xmouse":[768,768,768,768,768,768,768,768,768,768,768,768,768,768,768,768,768,768,768,768,768,768,768,768,768,768,768,768,768,768,768,768,768,768,768,768,769,771,772,774,774,775,775,775,775,775,775,775,775,775,775,773,768,760,749,721,709,699,691,675,640,612,576,542,488,476,471,469],"ymouse":[491,491,491,491,491,491,491,491,491,491,491,491,491,491,491,491,491,491,491,491,491,491,491,491,491,491,491,491,491,491,491,491,491,491,491,491,491,491,490,486,485,485,485,485,485,485,485,485,485,485,483,479,474,468,460,443,434,424,414,393,348,311,268,230,155,131,113,98],"timestamp_mouse":[10,35,51,71,91,111,131,150,171,190,210,231,251,270,291,311,331,351,370,390,410,431,450,471,491,511,530,551,571,590,609,631,651,671,691,710,731,750,770,790,811,831,851,870,890,921,930,951,970,990,1010,1030,1050,1070,1090,1109,1130,1150,1170,1190,1211,1230,1251,1269,1291,1309,1330,1351],"xSR":741.5,"ySR":469.95,"xT1":424.9,"yT1":0,"xT2":1058.1,"yT2":0,"toosoon":0,"cond_shown":"equaldotanddens","ratio_trial":900,"smaller_num":"18","larger_num":"20","correct_side":2,"subjID":"marianarodriguez15","gender":"1","age":"9","school":"4"},{"start_time":1552328447052,"click_time":1552328448928,"finger_time":1552328448127,"fix_duration":1264.053262517746,"trial":10,"RT":1075,"MT":801,"sideResp":2,"stimulus":"img/750/equaldotsize/R/7_Ratio_750_L_3_R_4.png","xmouse":[795,795,795,795,795,795,795,795,795,795,795,795,795,795,795,795,795,795,795,795,795,795,795,795,795,795,795,795,795,795,795,795,795,795,795,795,795,795,795,795,795,795,795,795,795,795,795,795,795,795,795,796,800,817,829,842,862,878,907,919,926,932,935,937,939,940,942,944,947,955,958,963,968,979,986,1000,1009,1022,1040,1047,1053,1058,1061,1065,1065,1066,1066,1066,1066,1066,1066,1066,1066,1070],"ymouse":[486,486,486,486,486,486,486,486,486,486,486,486,486,486,486,486,486,486,486,486,486,486,486,486,486,486,486,486,486,486,486,486,486,486,486,486,486,486,486,486,486,486,486,486,486,486,486,486,486,486,486,485,481,464,448,427,393,368,323,304,291,282,276,272,270,269,267,265,261,253,248,244,238,225,218,204,195,184,162,151,140,129,118,105,104,103,103,103,103,103,102,102,100,94],"timestamp_mouse":[16,35,56,76,95,114,136,155,175,196,215,235,256,275,296,316,335,356,376,396,415,434,454,475,495,516,536,555,576,596,615,636,655,676,695,716,735,756,776,796,816,836,856,875,896,916,935,955,976,996,1015,1035,1054,1075,1095,1116,1135,1155,1176,1195,1216,1235,1255,1275,1295,1315,1335,1355,1375,1395,1416,1435,1455,1476,1495,1515,1536,1556,1575,1595,1615,1636,1656,1675,1695,1715,1735,1755,1775,1795,1816,1834,1854,1876],"xSR":741.5,"ySR":469.95,"xT1":424.9,"yT1":0,"xT2":1058.1,"yT2":0,"toosoon":0,"cond_shown":"equaldotsize","ratio_trial":750,"smaller_num":"3","larger_num":"4","correct_side":2,"subjID":"marianarodriguez15","gender":"1","age":"9","school":"4"},{"start_time":1552328454226,"click_time":1552328455547,"finger_time":1552328454967,"fix_duration":957.3677693197798,"trial":11,"RT":741,"MT":580,"sideResp":2,"stimulus":"img/250/equaldotanddens/R/8_Ratio_250_L_1_R_4.png","xmouse":[790,790,790,790,790,790,790,790,790,790,790,790,790,790,790,790,790,790,790,790,790,790,790,790,790,790,790,792,796,798,799,804,804,805,806,808,828,852,907,982,1066,1215,1271,1303,1309,1311,1313,1313,1313,1313,1313,1313,1313,1311,1307,1300,1285,1280,1275,1271,1266,1249,1229,1222,1200,1186,1155],"ymouse":[551,551,551,551,551,551,551,551,551,551,551,551,551,551,551,551,551,551,551,551,551,551,551,551,551,551,551,551,549,548,548,545,544,544,544,544,544,537,521,490,452,368,334,308,295,287,275,269,261,259,253,240,233,221,212,201,185,180,174,169,166,156,145,141,128,119,95],"timestamp_mouse":[10,21,41,62,81,102,120,142,162,181,202,221,242,262,281,301,320,342,362,382,402,422,440,462,482,501,521,541,561,582,601,621,641,661,681,702,721,741,761,781,801,821,841,861,882,901,922,941,962,981,1001,1021,1042,1061,1081,1102,1122,1140,1162,1181,1201,1220,1240,1262,1281,1301,1321],"xSR":741.5,"ySR":469.95,"xT1":424.9,"yT1":0,"xT2":1058.1,"yT2":0,"toosoon":0,"cond_shown":"equaldotanddens","ratio_trial":250,"smaller_num":"1","larger_num":"4","correct_side":2,"subjID":"marianarodriguez15","gender":"1","age":"9","school":"4"},{"start_time":1552328457320,"click_time":1552328458947,"finger_time":1552328458027,"fix_duration":351.3016902350512,"trial":12,"RT":707,"MT":920,"sideResp":2,"stimulus":"img/900/randomdotsizeEA/L/8_Ratio_900_L_20_R_18.png","xmouse":[803,803,803,803,803,803,803,803,803,803,803,803,803,803,803,803,803,803,803,803,803,803,803,803,803,803,803,803,803,803,803,803,802,802,802,802,802,802,802,802,802,802,802,802,802,802,802,802,802,802,802,802,802,803,807,812,828,842,881,915,941,991,1005,1016,1024,1030,1035,1047,1055,1061,1065,1073,1076,1077,1079,1079,1079,1080,1081,1081,1083,1087],"ymouse":[477,477,477,477,477,477,477,477,477,477,477,477,477,477,477,477,477,477,477,477,477,477,477,477,477,477,477,477,477,477,477,477,476,473,470,468,466,464,464,464,464,464,464,464,464,464,464,464,464,464,464,464,464,462,459,454,437,420,374,333,295,226,204,188,179,171,164,151,143,137,131,122,118,116,115,113,113,112,111,110,106,98],"timestamp_mouse":[10,37,47,67,87,107,128,147,167,188,207,228,247,267,288,307,327,348,368,388,408,428,447,468,488,508,527,547,567,588,607,626,646,668,687,707,727,746,767,787,807,827,847,867,887,908,927,946,967,988,1007,1027,1047,1067,1087,1106,1127,1148,1167,1186,1208,1227,1246,1267,1287,1307,1327,1347,1367,1387,1406,1427,1447,1468,1487,1508,1527,1547,1567,1587,1606,1627],"xSR":741.5,"ySR":469.95,"xT1":424.9,"yT1":0,"xT2":1058.1,"yT2":0,"toosoon":0,"cond_shown":"randomdotsizeEA","ratio_trial":900,"smaller_num":"18","larger_num":"20","correct_side":1,"subjID":"marianarodriguez15","gender":"1","age":"9","school":"4"},{"start_time":1552328472066,"click_time":1552328473527,"finger_time":1552328472867,"fix_duration":377.09710243666615,"trial":13,"RT":801,"MT":660,"sideResp":1,"stimulus":"img/900/equaldotanddens/L/10_Ratio_900_L_20_R_18.png","xmouse":[779,779,779,779,779,779,779,779,779,779,779,779,779,779,779,779,779,779,779,779,779,779,779,779,779,779,779,779,779,779,779,779,779,779,779,778,770,762,755,744,734,712,703,691,674,661,631,614,595,582,572,565,565,565,565,565,561,557,553,549,544,535,530,518,510,504,493,490,489,489,489,494,497,500],"ymouse":[532,532,532,532,532,532,532,532,532,532,532,532,532,532,532,532,532,532,532,532,532,532,532,532,532,532,532,532,532,532,532,532,532,532,532,532,530,528,526,521,515,491,472,450,415,393,340,313,286,263,242,215,205,199,192,188,178,171,166,160,156,151,150,147,144,143,137,134,130,124,118,105,100,93],"timestamp_mouse":[10,31,41,60,80,102,120,142,162,181,201,221,240,261,282,301,321,342,362,381,401,421,440,462,482,501,521,541,561,581,601,622,641,661,681,702,721,741,762,781,801,821,842,861,881,901,921,941,962,981,1001,1021,1041,1060,1081,1100,1121,1141,1161,1181,1200,1221,1242,1261,1282,1301,1321,1341,1361,1381,1401,1420,1440,1460],"xSR":741.5,"ySR":469.95,"xT1":424.9,"yT1":0,"xT2":1058.1,"yT2":0,"toosoon":0,"cond_shown":"equaldotanddens","ratio_trial":900,"smaller_num":"18","larger_num":"20","correct_side":1,"subjID":"marianarodriguez15","gender":"1","age":"9","school":"4"},{"start_time":1552328477930,"click_time":1552328479908,"finger_time":1552328479047,"fix_duration":1219.430422473342,"trial":14,"RT":1117,"MT":861,"sideResp":1,"stimulus":"img/900/equaldotsize/R/3_Ratio_900_L_9_R_10.png","xmouse":[796,796,796,796,796,796,796,796,796,796,796,796,796,796,796,796,796,796,796,796,796,796,796,796,796,796,796,796,796,796,796,796,796,796,796,796,796,796,796,796,796,796,796,796,797,798,801,803,809,812,815,817,822,825,825,825,824,817,799,790,782,774,764,738,723,711,692,681,656,644,631,620,604,599,593,585,576,560,548,548,548,548,548,548,548,548,548,548,548,548,548,548,548,548,548,548,548,548,467],"ymouse":[532,532,532,532,532,532,532,532,532,532,532,532,532,532,532,532,532,532,532,532,532,532,532,532,532,532,532,532,532,532,532,532,532,532,532,532,532,532,532,532,532,532,532,532,530,529,524,520,510,505,499,494,481,476,471,466,459,451,437,427,414,398,379,335,311,289,260,243,208,188,166,142,95,74,54,35,22,6,0,0,0,0,0,0,0,0,0,0,0,0,0,0,0,0,0,0,0,0,3],"timestamp_mouse":[18,37,58,77,97,118,137,158,177,197,217,237,258,276,298,317,338,357,377,397,416,438,457,477,497,518,537,557,576,597,617,637,658,677,698,718,737,757,778,798,818,837,857,877,897,917,937,956,977,997,1018,1036,1058,1077,1097,1117,1137,1156,1177,1197,1217,1237,1257,1276,1297,1317,1337,1357,1377,1396,1417,1437,1459,1477,1497,1517,1538,1557,1576,1596,1617,1637,1657,1677,1698,1717,1738,1756,1777,1797,1817,1837,1857,1877,1898,1917,1937,1958,1977],"xSR":741.5,"ySR":469.95,"xT1":424.9,"yT1":0,"xT2":1058.1,"yT2":0,"toosoon":0,"cond_shown":"equaldotsize","ratio_trial":900,"smaller_num":"9","larger_num":"10","correct_side":2,"subjID":"marianarodriguez15","gender":"1","age":"9","school":"4"},{"start_time":1552328482270,"click_time":1552328484008,"finger_time":1552328483027,"fix_duration":561.9871933848331,"trial":15,"RT":757,"MT":981,"sideResp":2,"stimulus":"img/500/equaldotsize/R/1_Ratio_500_L_9_R_18.png","xmouse":[808,808,808,808,808,808,808,810,811,813,813,814,814,814,814,814,814,814,815,816,818,820,821,821,821,821,822,823,823,823,823,823,823,823,824,825,839,857,874,890,909,944,963,980,1000,1025,1104,1154,1226,1260,1281,1294,1306,1308,1309,1310,1310,1310,1310,1305,1298,1280,1270,1259,1249,1242,1230,1227,1225,1225,1225,1225,1225,1225,1225,1225,1224,1221,1216,1210,1203,1191,1185,1177,1170,1163,1150],"ymouse":[513,513,513,513,513,513,513,513,511,509,507,506,504,504,504,504,504,504,503,501,499,495,494,494,494,494,493,492,492,492,492,492,492,492,492,490,480,463,446,427,406,363,341,321,299,275,214,185,144,124,110,101,90,86,83,81,80,79,78,78,76,74,73,71,69,68,67,66,65,65,65,65,65,64,61,58,56,51,50,50,49,46,46,44,43,42,40],"timestamp_mouse":[17,37,58,77,97,117,137,158,177,197,217,238,257,278,296,317,336,357,377,398,417,437,458,477,497,517,536,557,577,598,616,637,657,677,696,717,736,757,777,796,816,839,857,876,897,918,937,956,976,997,1016,1036,1056,1078,1097,1117,1137,1157,1177,1197,1216,1237,1256,1277,1297,1317,1337,1357,1377,1397,1417,1437,1457,1476,1497,1517,1537,1557,1576,1596,1616,1637,1657,1677,1697,1718,1737],"xSR":741.5,"ySR":469.95,"xT1":424.9,"yT1":0,"xT2":1058.1,"yT2":0,"toosoon":0,"cond_shown":"equaldotsize","ratio_trial":500,"smaller_num":"9","larger_num":"18","correct_side":2,"subjID":"marianarodriguez15","gender":"1","age":"9","school":"4"},{"start_time":1552328487153,"click_time":1552328488566,"finger_time":1552328488067,"fix_duration":544.8916240423831,"trial":16,"RT":914,"MT":499,"sideResp":1,"stimulus":"img/500/equaldotsize/L/5_Ratio_500_L_4_R_2.png","xmouse":[779,780,780,781,781,782,782,782,782,782,782,782,782,782,782,782,783,783,783,783,783,783,783,783,783,783,783,783,784,784,784,784,784,784,784,784,784,784,784,784,784,784,784,783,780,776,772,765,748,737,728,720,709,700,695,691,685,678,658,646,635,618,571,556,549,548,546,544,534,528,522],"ymouse":[559,559,560,560,560,560,560,560,560,560,560,560,560,560,560,560,561,561,561,562,562,564,565,567,567,567,567,567,567,568,568,568,568,568,568,568,568,568,568,568,562,558,544,511,488,463,431,395,312,274,241,218,189,166,158,151,142,131,104,87,72,56,22,11,9,8,8,8,8,8,9],"timestamp_mouse":[13,34,54,74,94,113,133,154,174,194,215,233,254,274,294,315,335,353,373,395,414,434,454,475,495,515,535,554,574,594,615,634,654,674,694,715,735,754,774,795,814,834,854,874,894,914,933,954,974,994,1014,1035,1054,1074,1094,1115,1133,1154,1173,1193,1213,1234,1255,1273,1294,1315,1334,1354,1374,1394,1413],"xSR":741.5,"ySR":469.95,"xT1":424.9,"yT1":0,"xT2":1058.1,"yT2":0,"toosoon":0,"cond_shown":"equaldotsize","ratio_trial":500,"smaller_num":"2","larger_num":"4","correct_side":1,"subjID":"marianarodriguez15","gender":"1","age":"9","school":"4"},{"start_time":1552328491069,"click_time":1552328492348,"finger_time":1552328491906,"fix_duration":960.9147242086897,"trial":17,"RT":837,"MT":442,"sideResp":1,"stimulus":"img/750/equaldotsize/L/6_Ratio_750_L_24_R_18.png","xmouse":[753,753,753,753,753,753,753,753,753,753,753,753,753,753,753,753,753,753,753,753,753,753,753,753,753,753,753,753,753,753,753,753,753,753,753,753,753,753,754,754,747,736,706,687,652,626,593,541,522,509,499,492,487,484,482,482,482,482,482,482,482,483,484,487],"ymouse":[531,531,531,531,531,531,531,531,531,531,531,531,531,531,531,531,531,531,531,531,531,531,531,531,531,531,531,531,531,531,531,531,531,531,531,531,531,531,530,528,519,508,478,460,422,392,350,269,237,214,201,188,178,169,165,162,158,149,143,136,129,120,110,91],"timestamp_mouse":[18,38,58,77,98,119,139,158,178,198,218,239,258,279,298,319,337,357,379,398,419,438,459,479,498,519,538,559,579,599,618,638,657,679,698,718,739,759,778,799,818,837,859,879,898,919,938,958,978,998,1018,1038,1058,1079,1097,1117,1139,1158,1177,1199,1218,1238,1258,1279],"xSR":741.5,"ySR":469.95,"xT1":424.9,"yT1":0,"xT2":1058.1,"yT2":0,"toosoon":0,"cond_shown":"equaldotsize","ratio_trial":750,"smaller_num":"18","larger_num":"24","correct_side":1,"subjID":"marianarodriguez15","gender":"1","age":"9","school":"4"},{"start_time":1552328494239,"click_time":1552328496028,"finger_time":1552328495027,"fix_duration":250,"trial":18,"RT":788,"MT":1001,"sideResp":1,"stimulus":"img/250/equaldotsize/L/7_Ratio_250_L_8_R_2.png","xmouse":[787,787,787,787,787,786,784,784,783,782,782,782,782,782,782,782,782,782,782,782,782,782,782,782,782,782,782,782,782,782,782,782,782,782,782,782,782,772,766,729,700,660,622,588,550,538,536,536,535,532,528,524,521,517,515,514,514,514,514,515,515,516,516,516,513,513,513,513,515,519,521,524,526,527,527,527,527,527,527,527,527,527,527,527,527,527,527,527,526,522],"ymouse":[481,481,481,481,481,482,483,484,485,486,486,486,486,486,486,486,486,486,486,486,486,486,486,486,486,486,486,486,486,486,486,486,486,486,486,486,486,479,475,448,431,406,381,357,319,294,280,267,256,231,217,208,200,192,189,187,187,186,184,179,176,171,165,158,142,137,132,128,122,111,106,101,96,94,94,94,94,94,94,94,94,94,94,92,88,80,74,67,60,48],"timestamp_mouse":[12,33,48,68,88,109,129,148,168,189,209,228,248,267,289,308,329,349,368,388,407,427,448,469,489,509,527,549,568,588,608,629,649,669,687,707,729,749,768,788,808,829,848,868,889,908,928,948,967,989,1007,1028,1048,1068,1087,1108,1128,1149,1167,1189,1207,1229,1248,1268,1289,1308,1328,1348,1368,1389,1407,1429,1447,1469,1487,1508,1528,1549,1568,1588,1608,1628,1660,1668,1687,1708,1729,1748,1767,1789],"xSR":741.5,"ySR":469.95,"xT1":424.9,"yT1":0,"xT2":1058.1,"yT2":0,"toosoon":0,"cond_shown":"equaldotsize","ratio_trial":250,"smaller_num":"2","larger_num":"8","correct_side":1,"subjID":"marianarodriguez15","gender":"1","age":"9","school":"4"},{"start_time":1552328499001,"click_time":1552328499947,"finger_time":1552328499647,"fix_duration":1011.9807610256162,"trial":19,"RT":646,"MT":300,"sideResp":1,"stimulus":"img/750/equaldotanddens/L/1_Ratio_750_L_20_R_15.png","xmouse":[810,810,810,810,810,810,810,810,810,810,810,810,810,810,810,810,810,810,810,810,810,810,810,810,810,810,810,810,807,804,799,792,781,771,767,750,737,696,677,655,634,616,588,578,569,560,546,524],"ymouse":[503,503,503,503,503,503,503,503,503,503,503,503,503,503,503,503,503,503,503,503,503,503,503,503,503,503,503,502,495,491,484,476,452,418,407,353,309,238,208,184,167,155,139,132,126,119,111,99],"timestamp_mouse":[10,26,46,67,85,107,127,145,166,187,206,226,246,265,287,306,327,345,367,387,407,426,445,466,486,506,526,546,566,586,605,626,646,666,686,707,726,746,765,786,806,827,846,866,886,906,925,946],"xSR":741.5,"ySR":469.95,"xT1":424.9,"yT1":0,"xT2":1058.1,"yT2":0,"toosoon":0,"cond_shown":"equaldotanddens","ratio_trial":750,"smaller_num":"15","larger_num":"20","correct_side":1,"subjID":"marianarodriguez15","gender":"1","age":"9","school":"4"},{"start_time":1552328503186,"click_time":1552328504667,"finger_time":1552328504067,"fix_duration":1037.7128444378588,"trial":20,"RT":881,"MT":600,"sideResp":1,"stimulus":"img/500/randomdotsizeEA/L/10_Ratio_500_L_4_R_2.png","xmouse":[791,791,791,791,791,791,791,791,792,792,792,792,792,792,792,792,792,792,792,792,792,792,792,792,792,792,792,792,792,792,792,792,792,792,792,792,792,792,792,792,792,790,787,769,737,721,706,697,680,673,668,663,659,655,654,654,654,654,654,654,654,654,653,644,637,628,617,605,592,568,557,547,537,526,512],"ymouse":[514,514,514,514,514,514,514,514,515,516,516,517,517,517,517,517,517,517,517,517,517,517,517,517,517,517,517,517,517,517,517,517,517,517,517,517,517,517,517,517,517,518,516,505,485,473,462,453,432,423,412,402,391,370,360,348,336,324,312,290,280,272,264,240,230,219,206,192,176,148,134,123,114,103,88],"timestamp_mouse":[11,21,41,61,81,101,122,140,162,181,201,221,241,261,282,300,322,342,362,381,400,422,441,461,481,502,521,541,561,582,602,620,642,662,681,701,722,741,760,782,801,821,840,860,881,901,921,941,962,981,1000,1022,1041,1062,1081,1102,1121,1140,1162,1180,1201,1221,1242,1262,1280,1301,1321,1341,1362,1381,1401,1421,1442,1461,1481],"xSR":741.5,"ySR":469.95,"xT1":424.9,"yT1":0,"xT2":1058.1,"yT2":0,"toosoon":0,"cond_shown":"randomdotsizeEA","ratio_trial":500,"smaller_num":"2","larger_num":"4","correct_side":1,"subjID":"marianarodriguez15","gender":"1","age":"9","school":"4"},{"start_time":1552328508957,"click_time":1552328510588,"finger_time":1552328509828,"fix_duration":1267.0985650661912,"trial":21,"RT":871,"MT":760,"sideResp":1,"stimulus":"img/750/randomdotsizeEA/L/9_Ratio_750_L_4_R_3.png","xmouse":[777,777,777,777,777,777,777,777,777,777,777,777,777,777,776,776,776,776,776,776,776,776,776,776,776,776,776,776,776,776,776,776,777,778,780,782,783,784,785,785,785,782,771,761,747,712,697,684,672,662,654,643,639,636,634,629,627,627,624,622,618,614,611,608,605,599,595,591,587,580,574,561,558,553,550,544,542,539,535,533,530,522],"ymouse":[516,516,516,516,516,516,516,516,516,516,516,516,516,516,516,516,516,516,516,516,516,516,516,516,516,516,516,516,516,516,516,516,514,513,510,506,504,501,499,496,490,484,472,461,446,416,401,386,372,357,347,331,325,322,319,315,314,314,312,311,310,308,306,302,299,282,268,255,238,217,198,151,140,129,121,112,109,106,103,101,100,95],"timestamp_mouse":[10,36,50,70,90,111,129,150,171,191,211,230,249,269,290,310,331,350,370,390,411,430,451,469,491,511,530,551,570,589,611,631,649,670,690,709,729,750,769,790,809,830,849,871,890,910,929,949,969,991,1011,1031,1050,1070,1090,1109,1130,1150,1170,1190,1210,1230,1250,1270,1290,1310,1330,1349,1370,1389,1410,1429,1449,1471,1490,1510,1529,1551,1570,1591,1610,1631],"xSR":741.5,"ySR":469.95,"xT1":424.9,"yT1":0,"xT2":1058.1,"yT2":0,"toosoon":0,"cond_shown":"randomdotsizeEA","ratio_trial":750,"smaller_num":"3","larger_num":"4","correct_side":1,"subjID":"marianarodriguez15","gender":"1","age":"9","school":"4"},{"start_time":1552328516273,"click_time":1552328518088,"finger_time":1552328517307,"fix_duration":1443.9290681881005,"trial":22,"RT":1034,"MT":781,"sideResp":1,"stimulus":"img/750/randomdotsizeEA/R/7_Ratio_750_L_3_R_4.png","xmouse":[801,801,801,801,801,801,801,801,801,801,801,801,801,801,801,801,801,801,801,801,801,803,804,804,804,805,805,806,807,807,807,809,809,811,811,811,811,811,811,811,811,811,811,811,811,811,811,806,795,783,758,735,726,696,668,605,574,554,538,529,523,522,521,519,518,512,509,508,506,505,503,503,502,502,502,502,502,502,502,502,505,508,510,511,511,511,511,511,510,509,494],"ymouse":[532,532,532,532,532,532,532,532,532,532,532,532,532,532,532,532,532,532,532,532,532,532,533,534,534,535,537,537,538,538,538,540,540,541,541,541,541,541,541,541,541,541,541,541,541,541,541,541,538,533,520,505,497,472,443,373,337,313,294,281,268,259,252,243,234,216,209,203,198,192,184,181,178,176,172,167,163,158,152,145,130,120,116,113,109,106,105,104,103,102,93],"timestamp_mouse":[21,42,54,74,94,113,134,155,175,195,215,234,254,273,295,314,334,354,373,393,414,435,454,474,493,514,533,554,575,593,613,634,653,675,694,715,735,753,774,794,815,834,854,874,894,914,933,954,974,993,1013,1034,1054,1074,1094,1114,1134,1154,1174,1194,1214,1234,1254,1275,1294,1314,1334,1353,1373,1393,1414,1435,1454,1474,1493,1514,1533,1554,1574,1593,1615,1634,1654,1673,1693,1714,1734,1754,1773,1793,1815],"xSR":741.5,"ySR":469.95,"xT1":424.9,"yT1":0,"xT2":1058.1,"yT2":0,"toosoon":0,"cond_shown":"randomdotsizeEA","ratio_trial":750,"smaller_num":"3","larger_num":"4","correct_side":2,"subjID":"marianarodriguez15","gender":"1","age":"9","school":"4"},{"start_time":1552328522245,"click_time":1552328524206,"finger_time":1552328523167,"fix_duration":976.3742447000666,"trial":23,"RT":922,"MT":1039,"sideResp":1,"stimulus":"img/250/randomdotsizeEA/L/1_Ratio_250_L_8_R_2.png","xmouse":[802,802,802,802,802,802,802,802,802,802,802,801,801,801,801,801,801,801,801,801,801,801,801,801,801,801,801,801,801,801,801,801,801,801,801,801,801,802,803,804,805,807,807,807,802,788,764,730,628,568,510,465,413,362,347,338,338,338,338,338,338,338,338,338,338,338,338,338,338,338,338,338,304,313,313,313,313,313,313,313,313,313,315,329,335,339,344,348,365,382,403,410,414,417,418,419,421,422,425],"ymouse":[495,495,495,495,495,495,495,495,496,498,501,502,504,507,507,507,507,507,507,507,507,507,507,507,507,507,507,507,507,507,507,507,507,507,507,507,507,505,504,501,499,496,495,489,482,472,451,425,336,280,226,177,108,38,15,1,1,1,1,1,1,1,1,1,1,1,1,1,1,1,1,1,0,17,19,20,21,21,21,21,21,21,21,21,22,23,23,23,24,27,31,32,32,33,33,33,33,34,34],"timestamp_mouse":[10,21,42,62,83,102,121,143,162,183,201,223,242,262,283,302,322,343,361,381,402,423,442,461,483,503,522,543,561,583,603,622,643,662,682,702,722,743,761,782,801,823,842,863,881,902,922,943,962,983,1001,1022,1042,1063,1082,1102,1122,1143,1163,1183,1202,1222,1243,1262,1282,1302,1321,1341,1361,1381,1402,1422,1442,1462,1482,1502,1523,1542,1563,1582,1602,1622,1641,1662,1682,1703,1722,1742,1761,1783,1801,1823,1842,1862,1881,1903,1922,1942,1961],"xSR":741.5,"ySR":469.95,"xT1":424.9,"yT1":0,"xT2":1058.1,"yT2":0,"toosoon":0,"cond_shown":"randomdotsizeEA","ratio_trial":250,"smaller_num":"2","larger_num":"8","correct_side":1,"subjID":"marianarodriguez15","gender":"1","age":"9","school":"4"},{"start_time":1552328529289,"click_time":1552328530826,"finger_time":1552328530046,"fix_duration":1339.4216366551002,"trial":24,"RT":757,"MT":780,"sideResp":1,"stimulus":"img/500/equaldotsize/L/11_Ratio_500_L_12_R_6.png","xmouse":[797,797,797,797,797,797,796,796,796,796,795,795,795,795,795,795,795,795,795,795,795,795,795,795,795,795,795,795,795,795,795,795,795,795,794,791,763,740,713,686,654,649,643,638,632,625,616,611,607,603,598,597,595,593,589,589,577,570,563,557,550,549,548,548,548,545,544,542,538,535,532,532,531,530,528,525,522],"ymouse":[513,513,513,513,513,513,513,514,516,516,517,517,517,517,518,518,518,518,518,518,518,518,518,518,518,518,518,518,518,518,518,518,518,518,518,518,505,494,481,468,441,430,420,409,396,379,352,340,331,322,310,306,302,298,289,287,266,256,241,222,172,147,126,112,103,97,97,96,95,95,95,95,95,95,94,93,93],"timestamp_mouse":[19,38,57,78,99,118,139,157,179,199,218,239,259,277,298,318,338,358,378,399,417,438,459,479,499,517,539,558,579,597,618,638,659,678,698,717,738,757,778,797,818,838,858,879,898,918,939,957,979,998,1018,1037,1057,1077,1098,1118,1138,1158,1178,1197,1218,1237,1257,1278,1298,1319,1337,1357,1378,1398,1419,1437,1458,1478,1498,1518,1537],"xSR":741.5,"ySR":469.95,"xT1":424.9,"yT1":0,"xT2":1058.1,"yT2":0,"toosoon":0,"cond_shown":"equaldotsize","ratio_trial":500,"smaller_num":"6","larger_num":"12","correct_side":1,"subjID":"marianarodriguez15","gender":"1","age":"9","school":"4"},{"start_time":1552328532678,"click_time":1552328534206,"finger_time":1552328533407,"fix_duration":250,"trial":25,"RT":729,"MT":799,"sideResp":2,"stimulus":"img/500/equaldotanddens/R/6_Ratio_500_L_9_R_18.png","xmouse":[776,776,776,776,776,776,776,776,776,776,776,776,776,776,776,776,776,776,776,776,776,776,776,776,776,776,776,776,776,776,776,776,776,780,792,810,828,861,871,877,881,884,887,889,894,900,907,927,940,956,969,987,1008,1015,1017,1018,1018,1018,1018,1018,1018,1018,1024,1025,1030,1033,1035,1040,1045,1048,1050,1051,1051,1053,1056,1058,1061],"ymouse":[497,497,497,497,497,497,497,497,497,497,497,497,497,497,497,497,497,497,497,497,497,497,497,497,497,497,497,497,497,497,497,497,497,496,487,477,465,435,422,414,407,402,395,389,377,363,345,290,246,197,148,107,63,51,46,45,44,44,44,44,43,43,42,42,42,42,42,42,42,42,42,42,42,42,42,42,42],"timestamp_mouse":[14,35,49,68,88,108,130,148,168,189,209,229,248,269,290,310,329,350,370,390,408,429,449,470,488,509,529,548,569,589,609,629,650,670,689,710,729,748,768,788,808,829,849,869,889,910,929,949,969,989,1009,1030,1049,1070,1089,1109,1128,1150,1169,1190,1209,1229,1249,1269,1289,1310,1328,1348,1369,1390,1409,1430,1449,1469,1488,1508,1528],"xSR":741.5,"ySR":469.95,"xT1":424.9,"yT1":0,"xT2":1058.1,"yT2":0,"toosoon":0,"cond_shown":"equaldotanddens","ratio_trial":500,"smaller_num":"9","larger_num":"18","correct_side":2,"subjID":"marianarodriguez15","gender":"1","age":"9","school":"4"},{"start_time":1552328540903,"click_time":1552328542147,"finger_time":1552328541908,"fix_duration":713.1321174029882,"trial":26,"RT":1005,"MT":239,"sideResp":2,"stimulus":"img/750/randomdotsizeEA/L/1_Ratio_750_L_20_R_15.png","xmouse":[776,776,776,776,776,776,776,776,776,776,776,776,776,776,776,777,777,777,777,777,777,777,777,777,777,777,777,777,777,777,777,777,777,777,777,777,777,777,777,777,777,777,777,777,778,780,786,807,817,826,838,846,855,860,868,878,892,934,965,1002,1057,1084,1104],"ymouse":[516,516,516,516,516,516,516,516,516,516,516,516,516,516,516,517,519,520,520,520,520,520,520,520,520,520,520,520,520,520,520,520,520,520,520,520,520,520,520,520,520,520,520,520,520,518,513,494,482,470,453,444,431,423,415,402,386,335,300,255,180,120,23],"timestamp_mouse":[4,28,44,65,85,104,125,144,165,185,205,224,244,264,285,304,324,345,365,385,404,424,444,464,484,503,523,545,565,584,604,625,643,663,684,705,724,745,764,785,805,824,845,864,884,904,924,943,964,984,1005,1023,1044,1064,1083,1103,1124,1144,1164,1184,1204,1224,1244],"xSR":741.5,"ySR":469.95,"xT1":424.9,"yT1":0,"xT2":1058.1,"yT2":0,"toosoon":0,"cond_shown":"randomdotsizeEA","ratio_trial":750,"smaller_num":"15","larger_num":"20","correct_side":1,"subjID":"marianarodriguez15","gender":"1","age":"9","school":"4"},{"start_time":1552328546131,"click_time":1552328547908,"finger_time":1552328546847,"fix_duration":1283.4979985031302,"trial":27,"RT":716,"MT":1061,"sideResp":1,"stimulus":"img/500/equaldotsize/L/13_Ratio_500_L_12_R_6.png","xmouse":[772,773,773,773,773,773,774,774,774,774,774,774,774,774,774,774,774,774,774,774,774,774,774,774,774,774,774,774,774,775,775,776,776,776,775,768,766,763,761,759,755,754,750,747,742,736,717,709,703,696,680,670,656,636,576,442,385,340,299,271,210,190,176,169,168,168,180,187,191,196,211,225,245,267,292,346,355,360,361,361,362,369,375,381,388,405,411,418,429],"ymouse":[493,493,493,493,493,493,493,495,498,500,502,504,504,504,504,504,504,504,504,504,504,504,504,504,504,504,504,504,504,501,499,493,488,480,471,449,443,437,433,428,421,416,410,403,393,382,356,345,339,333,323,318,313,306,290,244,217,193,166,145,103,89,77,70,68,66,60,58,56,54,49,45,40,33,30,19,16,15,15,15,15,14,13,12,11,11,11,11,11],"timestamp_mouse":[16,39,57,76,97,116,135,155,176,196,216,236,257,276,296,316,336,356,376,397,416,436,456,476,497,516,537,557,577,597,615,635,657,676,697,716,736,756,777,796,817,836,855,876,896,916,937,956,976,996,1017,1035,1056,1077,1097,1116,1136,1156,1177,1196,1216,1235,1256,1276,1296,1315,1335,1356,1375,1395,1417,1436,1456,1476,1497,1517,1536,1556,1575,1597,1617,1635,1657,1675,1697,1717,1735,1756,1777],"xSR":741.5,"ySR":469.95,"xT1":424.9,"yT1":0,"xT2":1058.1,"yT2":0,"toosoon":0,"cond_shown":"equaldotsize","ratio_trial":500,"smaller_num":"6","larger_num":"12","correct_side":1,"subjID":"marianarodriguez15","gender":"1","age":"9","school":"4"},{"start_time":1552328553944,"click_time":1552328555927,"finger_time":1552328555746,"fix_duration":1155.3288610531088,"trial":28,"RT":1802,"MT":181,"sideResp":2,"stimulus":"img/500/equaldotanddens/R/14_Ratio_500_L_5_R_10.png","xmouse":[791,791,791,791,791,791,791,791,791,791,791,792,794,795,796,797,799,799,800,800,800,800,800,800,800,800,800,800,800,800,800,800,800,800,800,800,800,800,800,800,800,800,800,800,800,800,800,800,800,800,800,800,800,800,800,800,800,800,800,800,800,800,800,800,800,800,800,800,800,800,800,800,800,800,800,800,800,800,800,800,800,800,800,800,801,804,814,820,826,834,844,861,891,909,926,952,1004,1042,1079,1125],"ymouse":[498,498,498,498,498,498,498,498,498,498,498,498,498,498,498,498,498,498,498,498,498,498,498,498,498,498,498,498,498,498,498,498,498,498,498,498,498,498,498,498,498,498,498,498,498,498,498,498,498,498,498,498,498,498,498,498,498,498,498,498,498,498,498,498,498,498,498,498,498,498,498,498,498,498,498,498,498,498,498,498,498,498,498,498,498,497,489,484,478,472,464,449,423,404,381,349,252,183,107,27],"timestamp_mouse":[12,23,43,64,83,103,123,144,163,182,204,223,244,263,284,304,322,342,363,384,402,423,444,464,484,504,522,544,562,582,602,623,643,663,683,703,724,744,764,784,803,824,844,862,884,903,924,942,962,984,1003,1023,1044,1064,1083,1104,1122,1144,1163,1183,1204,1224,1243,1264,1283,1304,1323,1344,1364,1382,1402,1424,1444,1463,1482,1504,1522,1543,1564,1583,1603,1622,1644,1663,1684,1703,1723,1742,1762,1782,1802,1823,1842,1863,1883,1903,1924,1943,1963,1983],"xSR":741.5,"ySR":469.95,"xT1":424.9,"yT1":0,"xT2":1058.1,"yT2":0,"toosoon":0,"cond_shown":"equaldotanddens","ratio_trial":500,"smaller_num":"5","larger_num":"10","correct_side":2,"subjID":"marianarodriguez15","gender":"1","age":"9","school":"4"},{"start_time":1552328562826,"click_time":1552328564988,"finger_time":1552328563908,"fix_duration":1117.4825151335767,"trial":29,"RT":1082,"MT":1080,"sideResp":1,"stimulus":"img/750/randomdotsizeEA/L/1_Ratio_750_L_20_R_15.png","xmouse":[808,808,808,808,808,808,808,808,808,808,808,808,808,808,808,808,808,808,808,808,808,808,808,808,808,808,808,808,808,808,808,808,808,808,808,808,808,808,808,808,806,806,806,805,805,805,805,805,805,805,803,803,800,797,784,769,734,669,499,410,339,298,277,277,277,277,277,277,277,277,277,277,277,277,277,277,277,277,277,277,277,277,277,277,336,338,340,342,346,347,349,350,351,355,362,367,373,380,388,398,402,405,407,415,417,419,421,423,426],"ymouse":[510,510,510,510,510,510,510,510,510,510,510,510,510,510,510,510,510,510,510,510,510,510,510,510,510,510,510,510,510,510,510,510,510,510,510,510,510,510,510,510,510,509,508,506,505,504,504,504,504,504,502,501,497,491,468,449,420,376,269,212,160,124,70,55,43,32,25,19,10,4,0,0,0,0,0,0,0,0,0,0,0,0,0,0,2,4,6,8,12,15,16,17,18,18,19,20,20,22,23,24,25,25,26,28,28,29,30,30,30],"timestamp_mouse":[10,21,40,62,81,102,120,142,160,181,201,221,242,261,280,301,320,340,362,382,401,421,440,462,482,502,522,541,562,580,602,621,640,660,682,702,722,740,760,781,802,821,841,861,881,902,921,940,961,980,1001,1021,1041,1061,1082,1101,1122,1141,1161,1181,1201,1221,1249,1261,1281,1301,1321,1341,1362,1381,1401,1422,1442,1461,1481,1501,1521,1542,1561,1581,1601,1620,1640,1661,1681,1700,1721,1741,1762,1781,1800,1820,1842,1861,1881,1901,1921,1941,1961,1981,2002,2022,2041,2061,2081,2100,2122,2141,2162],"xSR":741.5,"ySR":469.95,"xT1":424.9,"yT1":0,"xT2":1058.1,"yT2":0,"toosoon":0,"cond_shown":"randomdotsizeEA","ratio_trial":750,"smaller_num":"15","larger_num":"20","correct_side":1,"subjID":"marianarodriguez15","gender":"1","age":"9","school":"4"},{"start_time":1552328571689,"click_time":1552328573168,"finger_time":1552328572547,"fix_duration":761.2321933996019,"trial":30,"RT":858,"MT":621,"sideResp":1,"stimulus":"img/750/equaldotsize/L/13_Ratio_750_L_8_R_6.png","xmouse":[797,797,797,796,795,793,793,793,793,792,791,790,790,790,790,790,790,790,790,790,790,790,790,790,790,790,790,790,790,790,790,790,790,790,790,790,789,789,787,787,775,756,724,681,606,522,490,472,462,457,457,457,458,459,459,461,463,467,477,486,502,539,558,572,580,582,577,570,559,550,544,532,526,520],"ymouse":[516,516,516,516,517,518,518,518,518,519,519,520,520,521,521,521,521,521,521,521,521,521,521,521,521,521,521,521,521,521,521,521,521,521,521,521,521,521,519,516,504,492,476,459,425,387,368,355,348,339,326,320,314,308,303,290,284,277,265,252,232,173,139,110,91,69,67,66,66,65,65,64,64,64],"timestamp_mouse":[23,38,58,78,99,118,138,158,178,198,218,238,258,279,298,318,338,358,378,398,418,438,458,478,498,518,538,559,578,599,619,638,659,678,698,719,739,757,778,797,818,837,858,878,898,919,938,958,979,998,1019,1038,1059,1077,1099,1119,1138,1158,1178,1197,1217,1238,1258,1278,1299,1319,1338,1358,1379,1398,1418,1438,1458,1479],"xSR":741.5,"ySR":469.95,"xT1":424.9,"yT1":0,"xT2":1058.1,"yT2":0,"toosoon":0,"cond_shown":"equaldotsize","ratio_trial":750,"smaller_num":"6","larger_num":"8","correct_side":1,"subjID":"marianarodriguez15","gender":"1","age":"9","school":"4"},{"start_time":1552328581004,"click_time":1552328583046,"finger_time":1552328581827,"fix_duration":1476.158160274668,"trial":31,"RT":823,"MT":1219,"sideResp":2,"stimulus":"img/500/equaldotsize/R/6_Ratio_500_L_9_R_18.png","xmouse":[764,764,764,764,764,764,764,764,764,765,765,765,765,765,765,765,766,766,766,766,766,766,766,766,766,766,766,766,766,766,766,766,766,766,766,766,766,766,768,774,781,800,807,813,823,823,828,843,850,857,867,873,882,887,890,893,898,911,920,929,937,944,951,952,952,952,952,953,955,958,964,972,976,981,986,991,1007,1013,1016,1020,1023,1026,1028,1029,1029,1030,1031,1032,1035,1037,1041,1045,1053,1055,1056,1058,1058,1058,1058,1058,1058,1060,1064],"ymouse":[500,500,500,500,500,500,500,498,498,497,497,497,497,497,497,496,496,496,496,496,496,496,496,496,496,496,496,496,496,496,496,496,496,496,496,496,496,496,493,486,476,448,436,423,398,398,386,359,343,328,313,300,278,270,265,261,256,245,237,229,221,214,202,199,199,199,199,197,196,193,190,184,179,174,169,164,149,145,143,141,140,140,140,140,140,139,139,139,139,139,139,138,132,130,128,125,124,124,124,123,119,113,95],"timestamp_mouse":[10,35,44,63,82,103,123,143,162,184,203,223,243,263,284,303,323,343,362,383,403,423,444,464,484,504,524,543,563,584,604,623,643,663,684,704,724,743,762,783,803,823,842,863,894,904,923,942,963,982,1004,1022,1043,1064,1083,1102,1122,1144,1163,1184,1203,1223,1243,1263,1283,1303,1323,1344,1363,1384,1403,1424,1443,1463,1483,1502,1524,1543,1563,1584,1604,1624,1643,1663,1684,1703,1723,1744,1763,1784,1803,1824,1844,1863,1883,1903,1924,1943,1963,1983,2004,2023,2042],"xSR":741.5,"ySR":469.95,"xT1":424.9,"yT1":0,"xT2":1058.1,"yT2":0,"toosoon":0,"cond_shown":"equaldotsize","ratio_trial":500,"smaller_num":"9","larger_num":"18","correct_side":2,"subjID":"marianarodriguez15","gender":"1","age":"9","school":"4"},{"start_time":1552328601569,"click_time":1552328602969,"finger_time":1552328602406,"fix_duration":800.979926563945,"trial":32,"RT":837,"MT":563,"sideResp":1,"stimulus":"img/900/randomdotsizeEA/L/10_Ratio_900_L_20_R_18.png","xmouse":[751,751,751,751,751,751,751,751,751,751,751,753,753,753,755,755,755,755,755,756,757,758,758,759,759,759,759,759,759,759,759,759,759,759,759,759,760,760,760,761,761,758,751,738,716,663,620,606,571,571,571,571,571,571,571,571,571,571,571,571,571,571,571,571,571,571,571,571,571,445],"ymouse":[525,525,525,525,525,525,525,525,525,525,525,521,520,518,515,514,513,513,513,512,508,506,503,501,500,500,500,500,500,500,500,500,500,500,500,500,498,493,490,484,470,454,433,404,357,251,157,123,24,24,24,24,24,24,24,24,24,24,24,24,24,24,24,24,24,24,24,24,24,41],"timestamp_mouse":[19,38,58,78,99,118,137,159,179,198,219,238,257,278,298,317,339,359,379,398,417,437,459,478,498,519,539,559,579,598,619,639,657,679,698,717,738,757,777,798,819,837,858,878,898,917,937,958,978,999,1017,1037,1058,1077,1099,1118,1139,1159,1178,1199,1219,1238,1258,1278,1299,1319,1338,1358,1378,1400],"xSR":741.5,"ySR":469.95,"xT1":424.9,"yT1":0,"xT2":1058.1,"yT2":0,"toosoon":0,"cond_shown":"randomdotsizeEA","ratio_trial":900,"smaller_num":"18","larger_num":"20","correct_side":1,"subjID":"marianarodriguez15","gender":"1","age":"9","school":"4"},{"start_time":1552328612269,"click_time":1552328613827,"finger_time":1552328613046,"fix_duration":320.4045109355914,"trial":33,"RT":777,"MT":781,"sideResp":1,"stimulus":"img/900/equaldotanddens/L/4_Ratio_900_L_20_R_18.png","xmouse":[786,786,786,786,786,786,786,786,786,786,786,786,786,786,786,786,786,786,786,786,786,786,786,786,786,786,786,786,786,786,786,786,786,786,786,784,766,757,704,646,578,484,468,467,467,474,485,488,488,488,488,488,488,488,488,489,490,490,490,490,490,490,490,490,490,490,490,490,490,490,490,490,490,490,490,490,492,493],"ymouse":[552,552,552,552,552,552,552,552,552,552,552,552,552,552,552,552,552,552,552,552,552,552,552,552,552,552,552,552,552,552,552,552,552,552,552,552,536,529,494,452,404,309,269,240,212,185,141,118,111,108,106,106,106,105,104,101,100,100,100,100,100,100,100,100,100,100,100,100,100,100,100,100,100,100,100,100,100,98],"timestamp_mouse":[18,38,59,78,99,118,138,157,179,199,219,237,259,278,298,318,338,358,378,399,418,438,459,478,497,518,537,559,579,597,617,639,658,678,699,718,738,758,777,799,818,838,857,877,898,918,938,958,978,997,1017,1038,1058,1078,1098,1117,1138,1157,1178,1197,1219,1238,1259,1278,1299,1319,1338,1357,1378,1399,1419,1439,1459,1478,1499,1519,1538,1557],"xSR":741.5,"ySR":469.95,"xT1":424.9,"yT1":0,"xT2":1058.1,"yT2":0,"toosoon":0,"cond_shown":"equaldotanddens","ratio_trial":900,"smaller_num":"18","larger_num":"20","correct_side":1,"subjID":"marianarodriguez15","gender":"1","age":"9","school":"4"},{"start_time":1552328616716,"click_time":1552328618966,"finger_time":1552328616767,"fix_duration":1348.305284469644,"trial":34,"RT":51,"MT":2199,"sideResp":1,"stimulus":"img/750/equaldotanddens/L/1_Ratio_750_L_20_R_15.png","xmouse":[769,764,762,759,758,757,757,757,757,757,757,757,757,757,757,757,757,757,757,757,757,757,756,756,756,756,756,756,756,756,756,756,756,756,756,756,756,756,754,741,733,724,711,693,671,664,658,654,651,646,644,644,644,644,644,644,645,647,647,644,632,617,593,584,578,577,577,577,577,577,577,577,577,576,575,575,575,575,575,574,573,570,563,556,540,532,525,516,498,492,489,488,488,488,488,488,488,488,488,488,488,488,488,488,488,488,488,488,488,488,488,488],"ymouse":[567,579,583,592,595,596,596,596,596,596,596,596,596,596,596,596,596,596,596,597,599,601,604,604,604,604,604,604,604,604,604,604,604,604,604,604,604,603,595,574,561,545,527,505,483,472,457,440,424,397,387,381,375,363,356,347,336,322,287,267,245,225,196,184,170,168,168,167,167,167,167,167,167,166,162,155,147,135,123,106,102,100,100,100,100,100,100,100,100,100,100,101,101,101,101,101,101,101,101,101,101,101,101,101,101,101,101,101,101,101,101,97],"timestamp_mouse":[36,51,71,90,110,131,151,171,191,211,231,251,272,291,310,331,352,371,391,410,431,452,472,491,512,532,551,571,591,610,630,651,671,691,711,730,752,772,792,811,831,852,871,891,910,930,951,972,991,1010,1031,1051,1071,1093,1110,1130,1150,1170,1192,1211,1232,1251,1271,1291,1312,1331,1352,1371,1392,1412,1430,1450,1470,1491,1510,1530,1550,1570,1590,1611,1630,1650,1672,1691,1712,1731,1750,1771,1791,1811,1831,1852,1871,1892,1911,1931,1950,1970,1991,2011,2032,2052,2072,2092,2112,2131,2151,2171,2191,2210,2232,2250],"xSR":741.5,"ySR":469.95,"xT1":424.9,"yT1":0,"xT2":1058.1,"yT2":0,"toosoon":0,"cond_shown":"equaldotanddens","ratio_trial":750,"smaller_num":"15","larger_num":"20","correct_side":1,"subjID":"marianarodriguez15","gender":"1","age":"9","school":"4"},{"start_time":1552328621285,"click_time":1552328622847,"finger_time":1552328622227,"fix_duration":1056.4964523007225,"trial":35,"RT":942,"MT":620,"sideResp":2,"stimulus":"img/750/randomdotsizeEA/R/15_Ratio_750_L_9_R_12.png","xmouse":[792,792,792,792,792,792,792,792,792,792,792,792,792,792,792,792,792,792,792,792,792,792,792,792,787,784,782,782,782,782,782,782,782,782,782,782,782,782,782,782,782,782,782,788,797,811,831,888,916,937,948,956,968,972,974,976,978,991,996,1002,1008,1015,1023,1026,1027,1029,1030,1034,1036,1039,1040,1041,1043,1046,1050,1053,1055,1058,1059],"ymouse":[537,537,537,537,537,537,537,538,538,538,538,538,538,538,538,538,538,538,538,538,538,538,538,538,538,538,538,538,538,538,538,538,538,538,538,538,538,538,538,538,538,538,538,531,522,509,481,358,294,240,202,177,152,146,144,142,139,125,118,110,100,91,79,75,74,73,72,69,67,65,64,63,63,63,62,62,61,61,61],"timestamp_mouse":[9,22,41,63,83,102,121,142,162,183,202,222,243,263,281,301,322,343,361,381,403,423,441,463,482,503,522,541,563,582,603,622,643,662,681,703,721,743,763,781,803,822,841,863,882,903,922,942,961,982,1001,1023,1042,1063,1081,1101,1122,1141,1163,1181,1201,1222,1242,1261,1282,1303,1323,1342,1361,1382,1402,1422,1442,1463,1481,1501,1521,1542,1561],"xSR":741.5,"ySR":469.95,"xT1":424.9,"yT1":0,"xT2":1058.1,"yT2":0,"toosoon":0,"cond_shown":"randomdotsizeEA","ratio_trial":750,"smaller_num":"9","larger_num":"12","correct_side":2,"subjID":"marianarodriguez15","gender":"1","age":"9","school":"4"},{"start_time":1552328625231,"click_time":1552328626468,"finger_time":1552328625867,"fix_duration":1061.7445535512927,"trial":36,"RT":636,"MT":601,"sideResp":2,"stimulus":"img/250/equaldotanddens/R/9_Ratio_250_L_3_R_12.png","xmouse":[803,803,803,803,803,803,803,803,803,803,803,803,803,803,803,803,803,803,803,803,803,803,803,803,803,805,807,810,814,826,837,851,869,906,939,986,997,1004,1007,1009,1009,1009,1011,1012,1014,1016,1016,1016,1016,1016,1020,1030,1036,1043,1044,1044,1044,1044,1046,1052,1057,1060],"ymouse":[544,544,544,544,544,544,544,544,544,544,544,544,544,544,544,544,544,544,544,544,544,544,544,544,544,544,542,534,525,496,477,453,421,355,294,188,148,119,98,65,54,46,40,34,28,24,24,24,24,24,24,29,33,37,39,39,39,39,39,37,36,35],"timestamp_mouse":[18,41,56,77,97,116,135,156,175,197,216,237,257,275,295,315,337,357,376,395,417,436,457,475,496,517,536,557,576,596,615,636,656,676,697,715,736,757,776,798,815,837,856,876,896,917,936,957,977,997,1015,1036,1056,1076,1097,1116,1137,1156,1176,1198,1216,1236],"xSR":741.5,"ySR":469.95,"xT1":424.9,"yT1":0,"xT2":1058.1,"yT2":0,"toosoon":0,"cond_shown":"equaldotanddens","ratio_trial":250,"smaller_num":"3","larger_num":"12","correct_side":2,"subjID":"marianarodriguez15","gender":"1","age":"9","school":"4"},{"start_time":1552328629917,"click_time":1552328631367,"finger_time":1552328630646,"fix_duration":989.8257188653523,"trial":37,"RT":729,"MT":721,"sideResp":1,"stimulus":"img/250/equaldotsize/L/14_Ratio_250_L_12_R_3.png","xmouse":[777,777,777,777,777,777,777,777,777,777,777,777,777,777,777,777,777,777,777,777,777,777,777,777,777,777,777,777,777,777,776,775,774,771,769,760,715,634,562,487,431,377,369,367,367,367,367,367,367,367,367,367,370,374,377,380,385,391,396,402,407,414,417,418,419,419,419,419,420,420,421,425,428],"ymouse":[535,535,535,535,535,536,536,536,536,536,536,536,536,536,536,536,536,536,536,536,536,536,536,536,536,536,536,536,536,536,536,536,536,535,534,530,513,490,465,432,402,364,357,352,352,352,352,352,351,349,341,319,305,292,283,273,258,238,218,195,173,130,115,106,103,102,102,102,101,101,101,100,98],"timestamp_mouse":[9,33,50,69,91,111,130,150,171,189,211,229,250,271,291,310,330,351,370,391,410,430,451,471,489,509,529,551,570,591,611,630,651,671,690,710,729,751,770,791,810,830,851,870,890,909,930,951,970,990,1010,1030,1050,1070,1089,1110,1130,1150,1169,1190,1211,1230,1249,1269,1290,1311,1330,1351,1370,1390,1410,1430,1449],"xSR":741.5,"ySR":469.95,"xT1":424.9,"yT1":0,"xT2":1058.1,"yT2":0,"toosoon":0,"cond_shown":"equaldotsize","ratio_trial":250,"smaller_num":"3","larger_num":"12","correct_side":1,"subjID":"marianarodriguez15","gender":"1","age":"9","school":"4"},{"start_time":1552328634248,"click_time":1552328636268,"finger_time":1552328634927,"fix_duration":1338.759530580353,"trial":38,"RT":679,"MT":1341,"sideResp":2,"stimulus":"img/500/equaldotanddens/R/1_Ratio_500_L_9_R_18.png","xmouse":[825,825,825,825,825,825,825,825,825,825,825,825,825,825,825,825,825,825,825,825,825,825,825,825,825,825,825,825,825,825,825,826,829,831,833,834,834,834,830,829,829,829,829,829,829,830,832,834,838,842,848,864,871,879,887,894,903,906,910,914,916,922,926,932,936,946,948,951,958,962,968,980,986,994,1004,1016,1031,1031,1031,1031,1031,1031,1031,1031,1031,1031,1031,1031,1031,1031,1031,1031,1031,1031,1031,1031,1031,1031,1031,1031,1031,1152],"ymouse":[517,517,517,517,517,517,517,517,517,517,517,517,517,517,517,517,517,517,517,517,517,517,517,517,517,517,517,517,517,517,517,508,498,483,460,392,338,293,265,242,239,239,239,239,238,236,232,229,222,215,206,188,181,173,166,158,150,148,146,143,141,138,137,134,132,128,126,124,117,116,109,99,92,82,65,42,12,12,12,12,12,12,12,12,12,12,12,12,12,12,12,12,12,12,12,12,12,12,12,12,12,1],"timestamp_mouse":[1,19,39,58,80,99,119,139,160,180,198,220,240,260,279,300,319,339,360,378,399,420,438,458,480,499,520,539,559,580,598,620,639,660,679,701,718,739,759,779,799,818,839,859,879,899,918,939,958,978,998,1018,1039,1060,1079,1099,1120,1140,1160,1178,1198,1218,1239,1260,1280,1300,1318,1339,1359,1378,1399,1419,1439,1460,1479,1498,1518,1538,1559,1579,1598,1620,1639,1659,1680,1699,1720,1739,1759,1779,1799,1819,1840,1859,1880,1900,1919,1939,1960,1980,1999,2020],"xSR":741.5,"ySR":469.95,"xT1":424.9,"yT1":0,"xT2":1058.1,"yT2":0,"toosoon":0,"cond_shown":"equaldotanddens","ratio_trial":500,"smaller_num":"9","larger_num":"18","correct_side":2,"subjID":"marianarodriguez15","gender":"1","age":"9","school":"4"},{"start_time":1552328653586,"click_time":1552328654487,"finger_time":1552328654307,"fix_duration":1299.17935737275,"trial":39,"RT":721,"MT":180,"sideResp":2,"stimulus":"img/250/equaldotsize/R/4_Ratio_250_L_3_R_12.png","xmouse":[791,791,791,791,791,791,791,791,791,791,791,791,791,791,791,790,788,788,788,787,787,787,787,787,787,787,787,787,787,787,787,787,787,787,787,799,849,891,929,960,975,989,1006,1016,1044,1081],"ymouse":[498,498,498,498,498,498,498,498,498,498,498,498,498,498,498,497,494,494,494,493,493,493,493,493,493,493,493,493,493,493,493,493,493,493,492,480,426,375,328,279,248,175,115,101,71,37],"timestamp_mouse":[10,21,40,62,82,100,122,141,160,181,202,221,242,261,281,300,321,341,360,381,402,420,440,462,481,502,520,541,562,581,601,621,641,662,681,701,721,740,761,780,801,821,842,861,881,900],"xSR":741.5,"ySR":469.95,"xT1":424.9,"yT1":0,"xT2":1058.1,"yT2":0,"toosoon":0,"cond_shown":"equaldotsize","ratio_trial":250,"smaller_num":"3","larger_num":"12","correct_side":2,"subjID":"marianarodriguez15","gender":"1","age":"9","school":"4"},{"start_time":1552328659182,"click_time":1552328660368,"finger_time":1552328659807,"fix_duration":1012.0517463448439,"trial":40,"RT":625,"MT":561,"sideResp":2,"stimulus":"img/900/equaldotanddens/L/8_Ratio_900_L_20_R_18.png","xmouse":[766,768,768,771,774,778,784,786,788,789,789,789,789,789,789,789,790,792,792,793,794,796,796,796,796,796,796,799,801,805,813,833,841,851,865,880,913,929,942,950,955,956,958,960,960,962,965,967,970,975,980,989,1005,1012,1022,1031,1048,1056,1064,1070],"ymouse":[482,483,483,485,486,487,489,490,490,490,490,490,490,490,490,490,490,492,493,494,494,495,495,495,495,495,495,495,495,494,488,456,441,425,405,388,351,338,327,322,319,318,317,316,316,316,313,310,308,299,287,264,230,212,194,176,139,122,108,93],"timestamp_mouse":[21,37,44,65,85,105,125,145,165,186,205,225,245,265,286,304,325,345,366,385,405,425,446,466,485,506,525,544,565,584,606,625,645,665,686,706,725,746,766,785,805,825,846,865,886,905,925,944,965,986,1005,1025,1045,1065,1085,1105,1126,1145,1165,1186],"xSR":741.5,"ySR":469.95,"xT1":424.9,"yT1":0,"xT2":1058.1,"yT2":0,"toosoon":0,"cond_shown":"equaldotanddens","ratio_trial":900,"smaller_num":"18","larger_num":"20","correct_side":1,"subjID":"marianarodriguez15","gender":"1","age":"9","school":"4"},{"start_time":1552328662968,"click_time":1552328665028,"finger_time":1552328663587,"fix_duration":680.9558308716105,"trial":41,"RT":619,"MT":1441,"sideResp":1,"stimulus":"img/500/randomdotsizeEA/L/7_Ratio_500_L_10_R_5.png","xmouse":[750,750,750,750,750,750,750,750,750,750,750,750,750,750,750,750,750,750,750,749,747,747,747,747,747,747,747,747,747,747,741,737,723,719,717,717,721,733,745,751,755,755,753,749,743,736,729,716,716,716,716,716,716,716,716,716,716,716,716,716,716,716,716,716,716,716,716,716,716,716,716,716,716,716,716,716,716,716,716,716,716,716,716,716,716,716,716,716,716,716,716,716,716,716,716,716,716,716,716,716,716,716,459],"ymouse":[542,542,542,542,542,542,542,542,542,542,542,542,542,542,542,542,542,542,542,540,539,538,538,538,538,538,538,537,537,537,531,526,495,476,452,421,373,288,217,174,136,106,61,43,29,18,9,1,1,1,1,1,1,1,1,1,1,1,1,1,1,1,1,1,1,1,1,1,1,1,1,1,1,1,1,1,1,1,1,1,1,1,1,1,1,1,1,1,1,1,1,1,1,1,1,1,1,1,1,1,1,1,7],"timestamp_mouse":[19,38,59,78,98,119,139,160,180,199,218,240,260,280,300,319,340,360,379,399,420,439,460,480,499,518,538,559,579,599,619,639,659,679,699,719,740,759,778,798,819,838,859,878,899,919,940,959,980,999,1019,1039,1059,1080,1099,1119,1139,1160,1179,1199,1218,1239,1259,1280,1300,1320,1340,1360,1379,1400,1420,1438,1459,1479,1498,1520,1540,1559,1580,1598,1620,1640,1659,1679,1699,1720,1739,1759,1779,1799,1819,1839,1860,1879,1899,1919,1939,1958,1978,1998,2019,2038,2060],"xSR":741.5,"ySR":469.95,"xT1":424.9,"yT1":0,"xT2":1058.1,"yT2":0,"toosoon":0,"cond_shown":"randomdotsizeEA","ratio_trial":500,"smaller_num":"5","larger_num":"10","correct_side":1,"subjID":"marianarodriguez15","gender":"1","age":"9","school":"4"},{"start_time":1552328667366,"click_time":1552328668886,"finger_time":1552328668086,"fix_duration":557.1905725543165,"trial":42,"RT":720,"MT":800,"sideResp":1,"stimulus":"img/500/equaldotanddens/L/13_Ratio_500_L_12_R_6.png","xmouse":[753,753,753,753,753,753,753,753,753,753,753,753,753,753,753,753,753,753,753,753,753,753,753,753,753,754,755,757,760,763,764,765,766,767,769,771,773,777,782,785,786,786,786,786,784,782,781,781,781,774,770,768,766,764,758,755,752,747,740,724,712,695,680,657,649,639,629,612,600,571,557,546,539,532,530,527,524],"ymouse":[548,548,548,548,548,548,548,548,548,548,548,548,548,548,548,548,548,548,548,548,548,548,548,548,548,547,547,544,537,528,522,517,512,505,486,475,459,437,405,394,385,378,372,366,350,340,328,315,292,246,219,191,163,139,98,84,75,66,61,57,55,53,51,48,48,48,48,48,48,48,48,48,48,48,48,48,48],"timestamp_mouse":[9,20,40,60,80,102,120,140,160,181,200,220,241,260,280,300,320,340,360,380,400,421,440,460,481,501,520,541,561,581,600,621,640,660,680,700,720,740,760,780,800,820,842,860,880,900,920,940,960,980,1001,1020,1040,1060,1080,1100,1120,1140,1160,1180,1201,1220,1240,1260,1280,1300,1320,1341,1361,1381,1400,1421,1440,1462,1480,1500,1520],"xSR":741.5,"ySR":469.95,"xT1":424.9,"yT1":0,"xT2":1058.1,"yT2":0,"toosoon":0,"cond_shown":"equaldotanddens","ratio_trial":500,"smaller_num":"6","larger_num":"12","correct_side":1,"subjID":"marianarodriguez15","gender":"1","age":"9","school":"4"},{"start_time":1552328673505,"click_time":1552328675046,"finger_time":1552328674347,"fix_duration":836.499453731976,"trial":43,"RT":842,"MT":699,"sideResp":1,"stimulus":"img/250/equaldotanddens/L/7_Ratio_250_L_8_R_2.png","xmouse":[754,754,754,754,754,754,754,754,754,754,754,755,757,757,757,757,757,757,757,756,756,756,756,756,754,754,752,752,752,752,752,752,752,752,752,752,752,752,752,752,752,753,753,755,755,755,751,729,722,720,719,719,718,716,712,705,694,660,645,628,609,590,568,563,561,559,559,559,559,559,559,559,559,559,558,556,548,511],"ymouse":[504,504,504,504,504,504,504,504,504,504,504,504,504,504,504,504,504,504,507,508,508,508,508,508,509,509,510,510,510,510,510,510,510,510,510,510,510,510,510,510,510,496,460,432,405,375,350,291,274,259,249,242,232,228,221,214,205,179,169,156,144,133,115,110,109,107,106,105,105,105,105,105,105,105,104,103,101,83],"timestamp_mouse":[9,21,43,61,82,102,122,141,161,181,202,221,242,261,281,301,321,341,361,382,401,421,441,461,481,501,521,541,561,581,601,621,641,661,681,701,721,741,761,781,801,823,842,863,882,902,922,941,961,981,1001,1022,1041,1062,1081,1102,1122,1141,1162,1181,1201,1222,1241,1261,1282,1302,1321,1342,1362,1382,1402,1422,1442,1462,1481,1501,1522,1541],"xSR":741.5,"ySR":469.95,"xT1":424.9,"yT1":0,"xT2":1058.1,"yT2":0,"toosoon":0,"cond_shown":"equaldotanddens","ratio_trial":250,"smaller_num":"2","larger_num":"8","correct_side":1,"subjID":"marianarodriguez15","gender":"1","age":"9","school":"4"},{"start_time":1552328677773,"click_time":1552328679166,"finger_time":1552328678487,"fix_duration":1424.6202131710725,"trial":44,"RT":714,"MT":679,"sideResp":1,"stimulus":"img/250/equaldotsize/L/3_Ratio_250_L_8_R_2.png","xmouse":[754,754,754,754,754,754,754,754,754,754,754,754,754,754,754,754,754,754,754,754,754,754,754,754,754,754,754,754,754,754,754,754,754,754,751,745,737,728,704,691,681,673,667,665,664,664,664,664,664,665,665,665,665,665,659,653,646,640,634,624,619,609,604,582,572,561,551,541,533,513],"ymouse":[479,479,479,479,479,479,479,479,479,479,479,479,479,479,479,479,479,479,479,479,479,479,479,479,479,479,479,479,479,479,479,479,479,479,473,463,448,433,396,378,363,348,334,325,312,305,295,286,275,248,237,221,197,182,154,140,126,113,101,82,75,70,69,66,64,63,61,61,61,61],"timestamp_mouse":[27,39,53,74,93,113,133,153,174,193,213,234,254,273,294,313,333,353,373,393,413,433,454,474,493,514,534,553,573,593,614,634,654,674,693,714,733,753,775,793,813,835,853,873,893,913,933,954,974,993,1013,1033,1053,1073,1093,1113,1134,1153,1174,1194,1213,1235,1254,1274,1293,1314,1334,1353,1373,1393],"xSR":741.5,"ySR":469.95,"xT1":424.9,"yT1":0,"xT2":1058.1,"yT2":0,"toosoon":0,"cond_shown":"equaldotsize","ratio_trial":250,"smaller_num":"2","larger_num":"8","correct_side":1,"subjID":"marianarodriguez15","gender":"1","age":"9","school":"4"},{"start_time":1552328682051,"click_time":1552328683466,"finger_time":1552328682926,"fix_duration":1283.743796144366,"trial":45,"RT":875,"MT":540,"sideResp":1,"stimulus":"img/750/randomdotsizeEA/L/13_Ratio_750_L_8_R_6.png","xmouse":[784,784,784,784,784,784,784,784,784,784,784,784,784,784,784,784,784,784,784,784,784,784,784,784,784,784,784,784,772,765,748,748,748,748,748,748,748,748,753,756,761,763,764,764,764,755,746,737,737,737,743,750,754,756,756,748,744,740,736,729,701,676,653,632,614,590,574,562,551,540,522],"ymouse":[518,518,518,518,518,518,518,518,518,518,518,518,518,518,518,518,518,518,518,518,518,518,518,518,518,518,518,518,517,516,514,514,514,514,514,514,514,512,509,505,494,485,476,467,453,420,399,365,343,319,269,249,228,207,187,143,128,114,102,90,73,66,60,54,49,38,31,27,24,22,20],"timestamp_mouse":[16,35,55,75,96,116,136,156,175,196,215,235,256,277,297,315,335,356,375,396,416,435,455,475,495,515,535,555,575,595,615,635,656,675,697,716,736,755,776,795,815,835,855,875,896,915,935,955,976,995,1016,1035,1055,1075,1095,1115,1135,1155,1177,1195,1215,1235,1256,1275,1296,1315,1335,1355,1375,1395,1415],"xSR":741.5,"ySR":469.95,"xT1":424.9,"yT1":0,"xT2":1058.1,"yT2":0,"toosoon":0,"cond_shown":"randomdotsizeEA","ratio_trial":750,"smaller_num":"6","larger_num":"8","correct_side":1,"subjID":"marianarodriguez15","gender":"1","age":"9","school":"4"},{"start_time":1552328685119,"click_time":1552328686568,"finger_time":1552328685867,"fix_duration":250,"trial":46,"RT":748,"MT":701,"sideResp":1,"stimulus":"img/750/randomdotsizeEA/L/6_Ratio_750_L_24_R_18.png","xmouse":[806,806,806,806,806,806,803,792,782,772,765,763,763,763,768,771,774,774,774,774,774,774,774,774,772,771,771,771,771,771,771,771,771,770,768,766,759,740,732,723,715,711,704,699,693,685,678,669,665,663,661,659,659,659,659,658,657,651,647,643,639,634,625,622,617,611,604,587,579,563,547,533,506],"ymouse":[519,519,519,519,519,519,519,519,521,523,524,524,524,524,526,526,526,526,526,526,526,526,526,526,526,526,526,526,526,526,526,526,526,526,526,526,525,517,511,503,483,467,431,410,390,368,348,315,302,291,281,269,253,243,235,224,212,189,177,168,159,151,136,131,125,119,114,108,105,101,98,95,87],"timestamp_mouse":[10,27,58,67,88,107,127,147,167,187,207,227,248,267,287,307,327,347,368,388,408,428,447,468,488,508,528,547,567,588,607,628,648,668,687,708,727,748,767,787,807,829,848,867,887,907,927,947,967,987,1007,1028,1048,1067,1087,1108,1127,1149,1167,1188,1207,1228,1247,1267,1287,1307,1327,1349,1367,1387,1411,1427,1449],"xSR":741.5,"ySR":469.95,"xT1":424.9,"yT1":0,"xT2":1058.1,"yT2":0,"toosoon":0,"cond_shown":"randomdotsizeEA","ratio_trial":750,"smaller_num":"18","larger_num":"24","correct_side":1,"subjID":"marianarodriguez15","gender":"1","age":"9","school":"4"},{"start_time":1552328688739,"click_time":1552328689986,"finger_time":1552328689486,"fix_duration":250,"trial":47,"RT":747,"MT":500,"sideResp":1,"stimulus":"img/900/equaldotsize/R/12_Ratio_900_L_18_R_20.png","xmouse":[809,809,809,809,809,809,809,809,809,809,809,809,809,809,809,809,809,809,809,809,809,809,809,809,809,809,809,809,809,809,809,809,809,809,806,804,799,783,769,763,745,732,716,712,711,710,709,706,703,697,692,685,665,649,634,617,599,565,551,540,530,525,515],"ymouse":[483,483,483,483,483,483,483,483,483,483,483,483,483,483,483,483,483,483,483,483,483,483,483,483,483,483,483,483,483,483,483,483,483,483,481,480,472,437,397,382,338,310,273,261,252,245,238,223,214,200,188,176,151,139,128,117,107,88,80,75,71,70,67],"timestamp_mouse":[9,36,48,67,88,108,129,148,168,187,207,227,247,268,288,307,328,347,369,388,408,427,447,469,487,507,527,548,568,587,608,628,647,667,687,707,727,747,768,787,807,827,848,867,887,907,927,947,967,987,1008,1028,1048,1067,1088,1107,1128,1147,1168,1189,1207,1227,1247],"xSR":741.5,"ySR":469.95,"xT1":424.9,"yT1":0,"xT2":1058.1,"yT2":0,"toosoon":0,"cond_shown":"equaldotsize","ratio_trial":900,"smaller_num":"18","larger_num":"20","correct_side":2,"subjID":"marianarodriguez15","gender":"1","age":"9","school":"4"},{"start_time":1552328695576,"click_time":1552328697166,"finger_time":1552328695866,"fix_duration":250,"trial":48,"RT":290,"MT":1300,"sideResp":1,"stimulus":"img/900/equaldotsize/L/1_Ratio_900_L_10_R_9.png","xmouse":[755,755,755,755,755,755,755,755,754,752,748,744,743,742,741,741,741,741,741,741,741,741,741,741,741,741,741,741,741,741,741,741,741,742,746,747,743,733,728,719,690,617,578,570,559,557,557,557,557,557,557,557,557,557,557,557,557,557,557,557,557,557,557,557,557,557,557,557,557,557,557,557,557,398,397,396,405,412,421,426],"ymouse":[519,519,519,519,519,519,519,519,519,520,521,523,525,526,528,530,530,530,530,530,530,530,530,530,530,530,530,530,530,530,530,530,525,518,488,464,402,362,333,311,265,164,97,70,26,2,2,2,2,2,2,2,2,2,2,2,2,2,2,2,2,2,2,2,2,2,2,2,2,2,2,2,2,19,27,35,50,54,56,57],"timestamp_mouse":[13,30,50,70,90,110,130,150,171,190,210,231,250,271,290,312,330,351,371,391,411,431,450,470,490,511,530,550,571,590,611,630,650,670,690,710,730,750,770,791,810,831,850,871,891,911,930,950,970,991,1011,1031,1050,1070,1091,1110,1131,1151,1170,1190,1211,1230,1251,1270,1290,1312,1331,1351,1370,1390,1411,1430,1451,1471,1490,1511,1530,1550,1570,1590],"xSR":741.5,"ySR":469.95,"xT1":424.9,"yT1":0,"xT2":1058.1,"yT2":0,"toosoon":0,"cond_shown":"equaldotsize","ratio_trial":900,"smaller_num":"9","larger_num":"10","correct_side":1,"subjID":"marianarodriguez15","gender":"1","age":"9","school":"4"},{"start_time":1552328702519,"click_time":1552328704106,"finger_time":1552328703426,"fix_duration":250,"trial":49,"RT":907,"MT":680,"sideResp":1,"stimulus":"img/900/randomdotsizeEA/R/11_Ratio_900_L_18_R_20.png","xmouse":[796,797,797,797,797,797,797,797,797,797,797,797,797,797,797,797,797,797,797,798,800,800,801,802,802,802,803,804,804,804,804,804,805,806,807,807,807,807,807,807,806,804,794,785,779,761,748,734,725,718,708,704,697,689,679,668,666,663,660,655,649,639,629,622,608,605,602,600,598,594,592,591,589,588,577,568,555,541,525,509],"ymouse":[518,518,518,518,518,518,518,518,518,518,518,518,518,518,518,518,518,518,518,518,518,518,518,518,518,518,518,518,518,518,518,518,518,518,519,519,519,519,519,519,518,516,507,494,481,449,428,410,394,381,361,352,343,332,315,296,290,285,279,271,263,251,237,221,177,156,136,118,103,80,74,69,64,61,52,49,45,42,40,38],"timestamp_mouse":[12,27,48,68,88,108,128,147,167,187,207,228,248,268,287,308,329,347,367,388,408,428,447,467,489,508,527,547,568,588,607,628,648,667,688,707,727,747,768,788,807,828,847,867,887,907,927,947,967,987,1008,1027,1047,1067,1087,1107,1127,1148,1167,1188,1207,1227,1248,1268,1288,1307,1327,1347,1367,1387,1407,1427,1448,1468,1488,1507,1527,1548,1567,1587],"xSR":741.5,"ySR":469.95,"xT1":424.9,"yT1":0,"xT2":1058.1,"yT2":0,"toosoon":0,"cond_shown":"randomdotsizeEA","ratio_trial":900,"smaller_num":"18","larger_num":"20","correct_side":2,"subjID":"marianarodriguez15","gender":"1","age":"9","school":"4"},{"start_time":1552328706023,"click_time":1552328707446,"finger_time":1552328706666,"fix_duration":255.24009590745212,"trial":50,"RT":643,"MT":780,"sideResp":1,"stimulus":"img/500/equaldotsize/L/4_Ratio_500_L_18_R_9.png","xmouse":[817,817,817,817,815,814,814,814,814,814,814,812,811,810,809,808,805,804,803,803,803,803,803,803,803,804,806,809,813,817,827,834,842,849,859,873,881,883,889,890,891,891,891,891,891,870,844,836,812,789,734,703,666,641,619,587,559,530,493,452,367,340,323,314,311,310,310,316,332,360,414,430],"ymouse":[536,536,536,535,533,532,532,532,532,532,532,532,532,531,531,531,531,531,531,531,531,531,531,531,531,531,531,530,528,525,515,505,497,487,476,456,441,436,423,418,409,407,405,403,399,386,375,370,364,357,342,334,322,314,308,291,275,258,235,208,147,126,110,96,89,83,81,80,78,72,64,62],"timestamp_mouse":[10,23,44,63,84,103,123,144,164,184,203,223,244,263,283,303,324,344,364,383,404,424,444,463,484,503,523,543,564,583,604,623,643,663,684,703,724,744,764,783,803,823,843,863,884,903,925,944,963,983,1003,1024,1043,1064,1084,1104,1124,1143,1165,1183,1203,1223,1244,1263,1283,1304,1324,1343,1363,1383,1403,1423],"xSR":741.5,"ySR":469.95,"xT1":424.9,"yT1":0,"xT2":1058.1,"yT2":0,"toosoon":0,"cond_shown":"equaldotsize","ratio_trial":500,"smaller_num":"9","larger_num":"18","correct_side":1,"subjID":"marianarodriguez15","gender":"1","age":"9","school":"4"},{"start_time":1552328712863,"click_time":1552328714766,"finger_time":1552328713546,"fix_duration":1454.0839881039637,"trial":51,"RT":683,"MT":1220,"sideResp":1,"stimulus":"img/900/equaldotsize/R/13_Ratio_900_L_18_R_20.png","xmouse":[769,769,769,769,769,769,769,769,769,769,769,769,769,769,769,769,769,769,769,769,769,769,769,769,769,769,769,769,769,769,769,767,765,759,740,733,730,729,728,728,728,728,727,726,725,723,722,721,721,721,724,725,731,731,731,731,731,731,729,724,718,703,703,703,703,703,703,703,703,703,703,703,703,703,703,703,703,703,703,703,703,703,703,703,703,703,703,703,703,703,703,703,327,379,415,445],"ymouse":[537,537,537,537,537,537,537,537,537,537,537,537,537,537,537,537,537,537,537,537,537,537,537,537,537,537,537,537,537,537,537,537,537,537,532,531,530,529,529,528,526,524,521,516,503,492,475,459,419,397,375,356,321,296,245,217,190,162,112,83,56,6,6,6,6,6,6,6,6,6,6,6,6,6,6,6,6,6,6,6,6,6,6,6,6,6,6,6,6,6,6,6,1,9,14,18],"timestamp_mouse":[10,24,43,64,83,104,124,144,163,184,204,224,244,263,283,303,324,343,364,384,404,423,443,463,483,504,524,543,565,583,604,623,644,663,683,704,725,744,764,783,804,823,843,863,883,904,924,943,965,983,1003,1024,1043,1063,1083,1103,1123,1143,1165,1183,1204,1223,1244,1263,1283,1304,1323,1343,1365,1384,1403,1424,1444,1464,1483,1503,1524,1543,1564,1584,1603,1624,1644,1664,1684,1704,1723,1744,1764,1783,1804,1824,1844,1865,1883,1903],"xSR":741.5,"ySR":469.95,"xT1":424.9,"yT1":0,"xT2":1058.1,"yT2":0,"toosoon":0,"cond_shown":"equaldotsize","ratio_trial":900,"smaller_num":"18","larger_num":"20","correct_side":2,"subjID":"marianarodriguez15","gender":"1","age":"9","school":"4"},{"start_time":1552328719853,"click_time":1552328721686,"finger_time":1552328720686,"fix_duration":984.4314508784231,"trial":52,"RT":833,"MT":1000,"sideResp":1,"stimulus":"img/500/randomdotsizeEA/R/3_Ratio_500_L_10_R_20.png","xmouse":[771,771,771,771,771,771,771,771,771,771,771,771,771,771,771,771,771,771,771,771,771,771,771,771,771,771,771,771,771,771,771,771,771,771,771,771,771,771,771,771,781,796,818,842,857,844,844,844,844,844,844,844,844,844,844,844,844,844,844,844,844,844,844,844,844,844,844,844,844,187,187,196,209,224,252,264,274,286,297,325,336,346,353,357,361,363,366,371,385,408,418,426],"ymouse":[540,540,540,540,540,540,540,540,540,540,540,540,540,540,540,540,540,540,540,540,540,540,540,540,540,540,540,540,540,540,540,540,540,540,540,540,540,540,540,537,505,451,376,284,107,30,30,30,30,30,30,30,30,30,30,30,30,30,30,30,30,30,30,30,30,30,30,30,30,2,6,9,12,16,22,24,25,25,25,23,21,20,19,18,18,18,17,17,17,17,17,17],"timestamp_mouse":[14,34,53,73,94,113,134,154,173,193,214,234,253,273,294,314,334,354,374,393,413,433,453,474,495,513,534,554,575,593,614,634,655,674,694,713,734,753,774,793,813,833,853,873,894,914,933,954,973,994,1014,1034,1053,1074,1094,1114,1133,1153,1173,1194,1213,1233,1254,1274,1294,1313,1333,1354,1374,1393,1413,1433,1453,1473,1494,1513,1534,1554,1573,1594,1613,1633,1653,1673,1693,1713,1733,1753,1773,1795,1813,1833],"xSR":741.5,"ySR":469.95,"xT1":424.9,"yT1":0,"xT2":1058.1,"yT2":0,"toosoon":0,"cond_shown":"randomdotsizeEA","ratio_trial":500,"smaller_num":"10","larger_num":"20","correct_side":2,"subjID":"marianarodriguez15","gender":"1","age":"9","school":"4"},{"start_time":1552328726151,"click_time":1552328729806,"finger_time":1552328727026,"fix_duration":404.14149610643847,"trial":53,"RT":875,"MT":2780,"sideResp":2,"stimulus":"img/750/equaldotanddens/R/15_Ratio_750_L_9_R_12.png","xmouse":[790,790,783,782,781,780,778,778,777,776,774,774,773,773,773,773,773,773,773,773,773,773,773,773,773,773,773,773,773,773,773,773,773,773,773,773,773,773,773,774,797,816,833,846,862,915,950,967,972,972,972,972,972,972,972,974,974,974,972,968,961,959,957,956,954,953,952,952,952,952,951,951,951,948,947,945,945,945,945,945,945,945,946,946,946,947,947,947,947,946,945,944,942,940,937,932,929,927,925,923,922,919,918,918,916,908,903,900,899,897,891,890,890,890,890,890,892,895,909,932,954,960,966,974,985,997,1017,1028,1039,1058,1115,1141,1177,1209,1226,1232,1233,1233,1234,1236,1241,1245,1250,1254,1260,1263,1266,1267,1267,1266,1261,1259,1257,1254,1251,1247,1243,1239,1233,1227,1218,1215,1210,1207,1202,1199,1197,1195,1193,1191,1186,1183,1181,1179,1179,1176,1174,1171,1169,1167,1163,1160,1156],"ymouse":[501,501,503,504,504,504,504,505,505,506,506,506,506,506,506,506,506,506,506,506,506,506,506,506,506,506,506,506,506,506,506,506,506,506,506,506,506,506,506,506,504,501,499,497,494,486,477,468,460,453,442,434,428,421,413,391,379,365,351,337,308,296,285,276,266,250,245,240,236,233,224,220,215,211,205,195,190,186,182,178,173,171,168,168,167,164,162,161,160,158,156,154,153,152,150,147,146,145,144,144,144,144,144,144,144,144,144,144,144,144,144,144,144,144,144,144,144,145,150,160,168,169,170,170,170,169,166,164,164,164,177,181,192,200,203,206,206,206,206,205,194,185,172,156,138,124,96,86,79,75,71,71,70,69,69,68,67,67,67,67,67,67,66,66,64,63,63,62,61,58,53,49,48,46,46,44,43,42,42,42,42,42,42],"timestamp_mouse":[34,36,56,77,95,115,135,155,175,197,216,236,255,276,295,316,335,355,375,395,416,435,455,477,496,515,536,555,575,595,616,636,655,676,695,715,735,756,776,796,815,835,855,875,895,915,935,955,975,996,1015,1035,1054,1075,1096,1115,1136,1155,1175,1195,1215,1235,1254,1275,1295,1315,1335,1355,1376,1397,1416,1435,1455,1475,1495,1515,1535,1555,1576,1596,1615,1635,1655,1675,1695,1716,1735,1755,1775,1796,1816,1834,1855,1876,1895,1916,1934,1956,1975,1996,2015,2035,2055,2075,2094,2116,2135,2155,2175,2196,2215,2235,2255,2276,2295,2316,2335,2354,2375,2396,2415,2436,2455,2476,2496,2515,2534,2555,2576,2596,2616,2635,2655,2676,2695,2716,2735,2756,2775,2796,2815,2835,2855,2876,2895,2915,2935,2955,2975,2995,3015,3034,3055,3076,3095,3116,3135,3155,3175,3196,3216,3235,3255,3275,3295,3315,3335,3355,3375,3396,3416,3434,3455,3476,3496,3516,3535,3555,3576,3595,3616,3635,3655],"xSR":741.5,"ySR":469.95,"xT1":424.9,"yT1":0,"xT2":1058.1,"yT2":0,"toosoon":0,"cond_shown":"equaldotanddens","ratio_trial":750,"smaller_num":"9","larger_num":"12","correct_side":2,"subjID":"marianarodriguez15","gender":"1","age":"9","school":"4"},{"start_time":1552328732986,"click_time":1552328746187,"finger_time":1552328745406,"fix_duration":977.0261568060707,"trial":54,"RT":12420,"MT":781,"sideResp":2,"stimulus":"img/900/randomdotsizeEA/R/15_Ratio_900_L_9_R_10.png","xmouse":[799,799,799,799,799,799,799,799,799,799,799,799,799,799,799,799,799,799,799,799,799,799,799,799,799,799,799,799,799,799,799,799,799,799,799,799,799,799,799,799,799,799,799,799,799,799,799,799,799,799,799,799,799,799,799,799,799,799,799,799,799,799,799,799,799,799,799,799,799,799,799,799,799,799,799,799,799,799,799,799,799,799,799,799,799,799,799,799,799,799,799,799,799,799,799,799,799,799,799,799,799,799,799,799,799,799,799,799,799,799,799,799,799,799,799,799,799,799,799,799,799,799,799,799,799,799,799,799,799,799,799,799,799,799,799,799,799,799,799,799,799,799,799,799,799,799,799,799,799,799,799,799,799,799,799,799,799,799,799,799,799,799,799,799,799,799,799,799,799,799,799,799,799,799,799,799,799,799,799,799,799,799,799,799,799,799,799,799,799,799,799,799,799,799,799,799,799,799,799,799,799,799,799,799,799,799,799,799,799,799,799,799,799,799,799,799,799,799,799,799,799,799,799,799,799,799,799,799,799,799,799,799,799,799,799,799,799,799,799,799,799,799,799,799,799,799,799,799,799,799,799,799,799,799,799,799,799,799,799,799,799,799,799,799,799,799,799,799,799,799,799,799,799,799,799,799,799,799,799,799,799,799,799,799,799,799,799,799,799,799,799,799,799,799,799,799,799,799,799,799,799,799,799,799,799,799,799,799,799,799,799,799,799,799,799,799,799,799,799,799,799,799,799,799,799,799,799,799,799,799,799,799,799,799,799,799,799,799,799,799,799,799,799,799,799,799,799,799,799,799,799,799,799,799,799,799,799,799,799,799,799,799,799,799,799,799,799,799,799,799,799,799,799,799,799,799,799,799,799,799,799,799,799,799,799,799,799,799,799,799,799,799,799,799,799,799,799,799,799,799,799,799,799,799,799,799,799,799,799,799,799,799,799,799,799,799,799,799,799,799,799,799,799,799,799,799,799,799,799,799,799,799,799,799,799,799,799,799,799,799,799,799,799,799,799,799,799,799,799,799,799,799,799,799,799,799,799,799,799,799,799,799,799,799,799,799,799,799,799,799,799,799,799,799,799,799,799,799,799,799,799,799,799,799,799,799,799,799,799,799,799,799,799,799,799,799,799,799,799,799,799,799,799,799,799,799,799,799,799,799,799,799,799,799,799,799,799,799,799,799,799,799,799,799,799,799,799,799,799,799,799,799,799,799,799,799,799,799,799,799,799,799,799,799,799,799,799,799,799,799,799,799,799,799,799,799,799,799,799,799,799,799,799,799,799,799,799,799,799,799,799,799,799,799,799,799,799,799,799,799,799,799,799,799,799,799,799,799,799,799,799,810,810,810,810,810,809,808,807,807,807,807,807,807,807,807,807,807,807,807,807,807,807,807,807,807,807,807,807,807,807,807,808,816,823,832,851,861,870,877,882,894,902,911,918,926,943,948,952,955,957,962,963,964,966,969,976,981,982,986,990,1003,1010,1022,1033,1040,1047,1049,1051,1054,1060],"ymouse":[521,521,521,521,521,521,521,521,521,521,521,521,521,521,521,521,521,521,521,521,521,521,521,521,521,521,521,521,521,521,521,521,521,521,521,521,521,521,521,521,521,521,521,521,521,521,521,521,521,521,521,521,521,521,521,521,521,521,521,521,521,521,521,521,521,521,521,521,521,521,521,521,521,521,521,521,521,521,521,521,521,521,521,521,521,521,521,521,521,521,521,521,521,521,521,521,521,521,521,521,521,521,521,521,521,521,521,521,521,521,521,521,521,521,521,521,521,521,521,521,521,521,521,521,521,521,521,521,521,521,521,521,521,521,521,521,521,521,521,521,521,521,521,521,521,521,521,521,521,521,521,521,521,521,521,521,521,521,521,521,521,521,521,521,521,521,521,521,521,521,521,521,521,521,521,521,521,521,521,521,521,521,521,521,521,521,521,521,521,521,521,521,521,521,521,521,521,521,521,521,521,521,521,521,521,521,521,521,521,521,521,521,521,521,521,521,521,521,521,521,521,521,521,521,521,521,521,521,521,521,521,521,521,521,521,521,521,521,521,521,521,521,521,521,521,521,521,521,521,521,521,521,521,521,521,521,521,521,521,521,521,521,521,521,521,521,521,521,521,521,521,521,521,521,521,521,521,521,521,521,521,521,521,521,521,521,521,521,521,521,521,521,521,521,521,521,521,521,521,521,521,521,521,521,521,521,521,521,521,521,521,521,521,521,521,521,521,521,521,521,521,521,521,521,521,521,521,521,521,521,521,521,521,521,521,521,521,521,521,521,521,521,521,521,521,521,521,521,521,521,521,521,521,521,521,521,521,521,521,521,521,521,521,521,521,521,521,521,521,521,521,521,521,521,521,521,521,521,521,521,521,521,521,521,521,521,521,521,521,521,521,521,521,521,521,521,521,521,521,521,521,521,521,521,521,521,521,521,521,521,521,521,521,521,521,521,521,521,521,521,521,521,521,521,521,521,521,521,521,521,521,521,521,521,521,521,521,521,521,521,521,521,521,521,521,521,521,521,521,521,521,521,521,521,521,521,521,521,521,521,521,521,521,521,521,521,521,521,521,521,521,521,521,521,521,521,521,521,521,521,521,521,521,521,521,521,521,521,521,521,521,521,521,521,521,521,521,521,521,521,521,521,521,521,521,521,521,521,521,521,521,521,521,521,521,521,521,521,521,521,521,521,521,521,521,521,521,521,521,521,521,521,521,521,521,521,521,521,521,521,521,521,521,521,521,521,521,521,521,521,521,521,521,521,521,521,521,521,521,521,521,521,521,521,521,521,521,521,521,521,521,521,521,521,521,521,521,521,521,521,521,521,521,521,521,521,521,521,521,521,522,527,527,527,527,527,527,527,527,527,527,527,527,527,527,527,527,527,527,527,527,527,527,527,527,527,527,527,527,513,505,466,448,422,405,389,353,335,316,291,266,201,180,159,142,127,101,91,81,73,65,55,53,52,52,51,50,49,49,49,49,48,48,48,48,48,48,48,48,48,49],"timestamp_mouse":[9,20,41,60,81,100,121,141,160,181,201,220,241,260,281,299,320,341,360,379,401,420,441,460,481,501,520,540,561,580,601,621,641,661,680,701,721,741,760,780,801,819,840,860,881,899,919,940,961,981,1001,1019,1041,1060,1080,1101,1119,1140,1161,1180,1201,1221,1240,1261,1280,1300,1320,1341,1360,1381,1401,1421,1441,1461,1480,1501,1521,1540,1561,1580,1601,1620,1641,1661,1681,1700,1721,1740,1761,1780,1799,1821,1841,1860,1880,1901,1921,1940,1961,1981,2001,2020,2040,2061,208