[{"start_time":1552327337154,"click_time":1552327339447,"finger_time":1552327338786,"fix_duration":581.5448669273773,"trial":0,"RT":1632,"MT":661,"sideResp":2,"stimulus":[],"xmouse":[829,829,829,829,829,829,829,829,829,829,828,826,824,823,823,823,823,823,823,823,823,823,823,823,823,823,823,823,823,823,823,823,823,823,823,823,823,823,823,823,823,823,823,823,823,823,823,823,823,823,823,823,823,823,823,823,823,823,823,823,823,823,823,823,823,823,823,823,823,823,823,823,823,823,823,823,823,823,823,823,826,854,886,927,974,1045,1115,1138,1153,1163,1172,1183,1187,1190,1194,1198,1206,1208,1209,1209,1209,1209,1208,1208,1206,1205,1202,1198,1194,1190,1184,1179,1167,1160,1149],"ymouse":[515,515,515,515,515,515,515,515,515,515,515,514,514,514,514,514,514,514,514,514,514,514,514,514,514,514,514,514,514,514,514,514,514,514,514,514,514,514,514,514,514,514,514,514,514,514,514,514,514,514,514,514,514,514,514,514,514,514,514,514,514,514,514,514,514,514,514,514,514,514,514,514,514,514,514,514,514,514,514,514,513,503,482,444,397,317,234,209,195,189,188,185,185,182,177,164,133,115,94,75,58,42,40,39,37,36,33,32,30,30,29,28,28,28,28],"timestamp_mouse":[13,33,52,72,94,112,133,153,172,192,212,233,253,273,293,312,333,352,373,394,412,432,453,474,494,512,533,553,573,593,612,632,653,674,694,714,733,754,774,794,814,833,852,873,894,913,933,953,974,994,1012,1032,1053,1074,1094,1113,1132,1152,1174,1192,1212,1233,1254,1274,1293,1313,1333,1354,1373,1393,1413,1433,1453,1473,1493,1513,1534,1554,1574,1593,1613,1632,1653,1673,1693,1714,1733,1752,1773,1792,1812,1833,1853,1873,1893,1912,1934,1953,1973,1993,2013,2033,2052,2072,2093,2112,2133,2153,2172,2194,2213,2232,2252,2272,2292],"xSR":741.5,"ySR":469.95,"xT1":424.9,"yT1":0,"xT2":1058.1,"yT2":0,"toosoon":0,"cond_shown":"Congruent","ratio_trial":300,"L_num":11,"L_den":22,"R_num":4,"R_den":20,"correct_side":1,"subjID":"marianarodriguez15","gender":"1","age":"9","school":"4","test":{"fix_dur":[250,1500],"timestim":1000,"targets_dim":[100,100],"targets_relative_coord":[0.3,0.7],"size_stim":[880,420],"start_dim":[100,100],"size_start":[300,300],"size_fix":60,"samplingrate":20,"img_types":["Congruent","Incongruent"],"ratios":[100,200,300],"rep_conds":19,"nTrials":120,"trials_to_rest":500,"Trials_order":[94,41,101,78,11,117,95,12,109,14,73,59,23,39,81,0,51,33,111,106,80,36,40,44,38,34,89,92,19,65,57,24,31,5,79,68,58,7,69,105,64,49,29,22,60,115,4,20,99,75,67,113,52,103,56,88,35,15,42,74,102,45,61,86,83,27,72,47,116,55,84,28,1,43,66,71,25,3,26,112,13,107,104,16,119,8,54,53,6,114,118,21,97,50,2,10,77,70,63,18,108,30,46,91,76,87,17,32,90,82,37,48,110,9,96,100,62,98,85,93],"cond_shown":["Congruent","Incongruent","Incongruent","Congruent","Incongruent","Incongruent","Incongruent","Congruent","Incongruent","Congruent","Incongruent","Incongruent","Incongruent","Incongruent","Incongruent","Congruent","Incongruent","Incongruent","Incongruent","Congruent","Congruent","Congruent","Congruent","Congruent","Congruent","Congruent","Incongruent","Congruent","Incongruent","Incongruent","Incongruent","Congruent","Incongruent","Incongruent","Incongruent","Congruent","Congruent","Incongruent","Incongruent","Incongruent","Congruent","Incongruent","Incongruent","Congruent","Congruent","Incongruent","Congruent","Congruent","Incongruent","Incongruent","Incongruent","Incongruent","Congruent","Incongruent","Congruent","Congruent","Incongruent","Incongruent","Congruent","Congruent","Congruent","Incongruent","Incongruent","Congruent","Incongruent","Incongruent","Congruent","Incongruent","Congruent","Incongruent","Congruent","Congruent","Incongruent","Incongruent","Congruent","Incongruent","Incongruent","Incongruent","Congruent","Congruent","Incongruent","Incongruent","Congruent","Congruent","Incongruent","Congruent","Congruent","Incongruent","Congruent","Congruent","Congruent","Incongruent","Incongruent","Congruent","Congruent","Congruent","Incongruent","Congruent","Incongruent","Congruent","Congruent","Congruent","Congruent","Incongruent","Congruent","Incongruent","Incongruent","Congruent","Congruent","Congruent","Incongruent","Congruent","Congruent","Incongruent","Congruent","Congruent","Congruent","Congruent","Incongruent","Incongruent"],"ratio_trial":[300,300,300,100,300,200,300,100,100,200,100,300,300,200,200,100,200,200,200,300,200,100,300,200,200,300,300,200,100,300,200,100,100,300,100,200,300,100,200,200,300,100,300,300,100,100,300,200,200,200,100,300,300,100,200,300,300,200,100,200,100,200,100,200,300,200,100,300,200,100,100,300,100,100,100,300,100,200,200,300,100,300,200,300,300,200,100,300,100,100,300,200,100,200,200,300,300,300,200,100,100,100,300,100,300,200,300,200,100,300,100,100,200,200,100,300,200,200,100,200],"left_num":[11,4,13,12,4,7,2,4,3,9,17,2,13,7,7,8,9,9,4,5,7,12,20,3,13,20,4,3,12,3,4,10,17,13,3,3,9,12,6,7,1,6,1,7,12,6,11,12,1,7,11,4,11,2,3,1,4,4,4,11,10,3,2,13,1,7,1,13,3,3,6,20,3,13,7,3,9,7,7,11,10,4,13,24,7,6,4,4,10,11,2,11,3,20,4,3,1,3,4,3,12,10,20,13,12,7,13,5,15,11,3,15,3,3,4,1,9,12,2,7],"right_num":[4,8,12,13,2,12,6,15,8,13,10,6,12,14,12,2,8,8,1,6,18,13,13,11,14,9,8,9,2,4,6,3,10,12,8,7,3,2,3,6,7,11,2,20,13,11,4,6,2,14,9,6,4,6,14,19,2,6,6,3,3,1,6,14,3,6,3,12,9,7,15,8,11,6,9,4,20,14,2,4,9,2,14,8,8,3,6,8,3,6,10,3,11,9,3,2,2,2,1,2,13,3,5,12,2,14,12,14,13,1,11,13,14,11,15,3,4,6,8,14],"left_den":[22,5,26,30,20,10,4,10,5,30,30,4,26,10,10,16,15,15,30,25,15,30,25,10,26,25,5,12,30,6,5,25,30,26,5,10,10,30,20,15,20,10,2,14,30,10,22,20,3,10,22,5,22,4,10,3,20,5,8,22,25,10,4,26,2,15,2,26,12,9,12,25,5,26,14,6,10,10,21,22,25,20,26,30,10,15,8,5,25,22,20,20,5,25,10,6,2,6,30,6,30,25,25,26,24,10,26,10,25,22,5,25,10,4,10,5,20,15,4,10],"right_den":[20,16,15,26,4,24,30,30,16,26,15,30,15,28,24,5,10,10,3,12,27,26,26,22,20,18,16,20,4,20,10,10,15,15,16,14,5,4,6,9,20,22,10,25,26,22,20,15,15,28,15,12,20,15,28,30,4,10,10,10,10,2,15,20,15,9,5,15,20,30,25,16,22,10,15,20,25,28,15,20,18,4,20,16,20,15,10,16,10,15,25,4,22,15,15,10,10,10,3,5,26,10,10,20,10,28,15,20,26,5,22,26,28,20,30,6,16,10,20,28],"correct_side":[1,1,2,2,2,1,1,2,1,2,2,1,2,1,1,1,2,2,2,2,2,2,1,2,2,1,1,2,2,1,1,1,2,2,1,2,1,2,2,2,2,1,1,2,2,1,1,1,1,1,2,1,1,1,2,2,2,1,2,1,1,2,1,2,1,2,2,2,2,1,2,1,1,2,2,1,1,1,1,1,2,2,2,1,1,1,2,1,1,1,2,2,1,1,1,1,1,1,2,1,2,1,1,2,1,1,2,2,1,1,1,1,2,1,2,2,1,1,1,1],"img_shown":["img2/300/Congruent/L/C_Dist_300_LN_11_LD_22_RN_4_RD_20_0.png","img2/300/Incongruent/L/I_Dist_300_LN_4_LD_5_RN_8_RD_16_0.png","img2/300/Incongruent/R/I_Dist_300_LN_13_LD_26_RN_12_RD_15_1.png","img2/100/Congruent/R/C_Dist_100_LN_12_LD_30_RN_13_RD_26_1.png","img2/300/Incongruent/R/I_Dist_300_LN_4_LD_20_RN_2_RD_4_1.png","img2/200/Incongruent/L/I_Dist_200_LN_7_LD_10_RN_12_RD_24_0.png","img2/300/Incongruent/L/I_Dist_300_LN_2_LD_4_RN_6_RD_30_0.png","img2/100/Congruent/R/C_Dist_100_LN_4_LD_10_RN_15_RD_30_1.png","img2/100/Incongruent/L/I_Dist_100_LN_3_LD_5_RN_8_RD_16_0.png","img2/200/Congruent/R/C_Dist_200_LN_9_LD_30_RN_13_RD_26_1.png","img2/100/Incongruent/R/I_Dist_100_LN_17_LD_30_RN_10_RD_15_1.png","img2/300/Incongruent/L/I_Dist_300_LN_2_LD_4_RN_6_RD_30_0.png","img2/300/Incongruent/R/I_Dist_300_LN_13_LD_26_RN_12_RD_15_1.png","img2/200/Incongruent/L/I_Dist_200_LN_7_LD_10_RN_14_RD_28_0.png","img2/200/Incongruent/L/I_Dist_200_LN_7_LD_10_RN_12_RD_24_0.png","img2/100/Congruent/L/C_Dist_100_LN_8_LD_16_RN_2_RD_5_0.png","img2/200/Incongruent/R/I_Dist_200_LN_9_LD_15_RN_8_RD_10_1.png","img2/200/Incongruent/R/I_Dist_200_LN_9_LD_15_RN_8_RD_10_1.png","img2/200/Incongruent/R/I_Dist_200_LN_4_LD_30_RN_1_RD_3_1.png","img2/300/Congruent/R/C_Dist_300_LN_5_LD_25_RN_6_RD_12_1.png","img2/200/Congruent/R/C_Dist_200_LN_7_LD_15_RN_18_RD_27_1.png","img2/100/Congruent/R/C_Dist_100_LN_12_LD_30_RN_13_RD_26_1.png","img2/300/Congruent/L/C_Dist_300_LN_20_LD_25_RN_13_RD_26_0.png","img2/200/Congruent/R/C_Dist_200_LN_3_LD_10_RN_11_RD_22_1.png","img2/200/Congruent/R/C_Dist_200_LN_13_LD_26_RN_14_RD_20_1.png","img2/300/Congruent/L/C_Dist_300_LN_20_LD_25_RN_9_RD_18_0.png","img2/300/Incongruent/L/I_Dist_300_LN_4_LD_5_RN_8_RD_16_0.png","img2/200/Congruent/R/C_Dist_200_LN_3_LD_12_RN_9_RD_20_1.png","img2/100/Incongruent/R/I_Dist_100_LN_12_LD_30_RN_2_RD_4_1.png","img2/300/Incongruent/L/I_Dist_300_LN_3_LD_6_RN_4_RD_20_0.png","img2/200/Incongruent/L/I_Dist_200_LN_4_LD_5_RN_6_RD_10_0.png","img2/100/Congruent/L/C_Dist_100_LN_10_LD_25_RN_3_RD_10_0.png","img2/100/Incongruent/R/I_Dist_100_LN_17_LD_30_RN_10_RD_15_1.png","img2/300/Incongruent/R/I_Dist_300_LN_13_LD_26_RN_12_RD_15_1.png","img2/100/Incongruent/L/I_Dist_100_LN_3_LD_5_RN_8_RD_16_0.png","img2/200/Congruent/R/C_Dist_200_LN_3_LD_10_RN_7_RD_14_1.png","img2/300/Congruent/L/C_Dist_300_LN_9_LD_10_RN_3_RD_5_0.png","img2/100/Incongruent/R/I_Dist_100_LN_12_LD_30_RN_2_RD_4_1.png","img2/200/Incongruent/R/I_Dist_200_LN_6_LD_20_RN_3_RD_6_1.png","img2/200/Incongruent/R/I_Dist_200_LN_7_LD_15_RN_6_RD_9_1.png","img2/300/Congruent/R/C_Dist_300_LN_1_LD_20_RN_7_RD_20_1.png","img2/100/Incongruent/L/I_Dist_100_LN_6_LD_10_RN_11_RD_22_0.png","img2/300/Incongruent/L/I_Dist_300_LN_1_LD_2_RN_2_RD_10_0.png","img2/300/Congruent/R/C_Dist_300_LN_7_LD_14_RN_20_RD_25_1.png","img2/100/Congruent/R/C_Dist_100_LN_12_LD_30_RN_13_RD_26_1.png","img2/100/Incongruent/L/I_Dist_100_LN_6_LD_10_RN_11_RD_22_0.png","img2/300/Congruent/L/C_Dist_300_LN_11_LD_22_RN_4_RD_20_0.png","img2/200/Congruent/L/C_Dist_200_LN_12_LD_20_RN_6_RD_15_0.png","img2/200/Incongruent/L/I_Dist_200_LN_1_LD_3_RN_2_RD_15_0.png","img2/200/Incongruent/L/I_Dist_200_LN_7_LD_10_RN_14_RD_28_0.png","img2/100/Incongruent/R/I_Dist_100_LN_11_LD_22_RN_9_RD_15_1.png","img2/300/Incongruent/L/I_Dist_300_LN_4_LD_5_RN_6_RD_12_0.png","img2/300/Congruent/L/C_Dist_300_LN_11_LD_22_RN_4_RD_20_0.png","img2/100/Incongruent/L/I_Dist_100_LN_2_LD_4_RN_6_RD_15_0.png","img2/200/Congruent/R/C_Dist_200_LN_3_LD_10_RN_14_RD_28_1.png","img2/300/Congruent/R/C_Dist_300_LN_1_LD_3_RN_19_RD_30_1.png","img2/300/Incongruent/R/I_Dist_300_LN_4_LD_20_RN_2_RD_4_1.png","img2/200/Incongruent/L/I_Dist_200_LN_4_LD_5_RN_6_RD_10_0.png","img2/100/Congruent/R/C_Dist_100_LN_4_LD_8_RN_6_RD_10_1.png","img2/200/Congruent/L/C_Dist_200_LN_11_LD_22_RN_3_RD_10_0.png","img2/100/Congruent/L/C_Dist_100_LN_10_LD_25_RN_3_RD_10_0.png","img2/200/Incongruent/R/I_Dist_200_LN_3_LD_10_RN_1_RD_2_1.png","img2/100/Incongruent/L/I_Dist_100_LN_2_LD_4_RN_6_RD_15_0.png","img2/200/Congruent/R/C_Dist_200_LN_13_LD_26_RN_14_RD_20_1.png","img2/300/Incongruent/L/I_Dist_300_LN_1_LD_2_RN_3_RD_15_0.png","img2/200/Incongruent/R/I_Dist_200_LN_7_LD_15_RN_6_RD_9_1.png","img2/100/Congruent/R/C_Dist_100_LN_1_LD_2_RN_3_RD_5_1.png","img2/300/Incongruent/R/I_Dist_300_LN_13_LD_26_RN_12_RD_15_1.png","img2/200/Congruent/R/C_Dist_200_LN_3_LD_12_RN_9_RD_20_1.png","img2/100/Incongruent/L/I_Dist_100_LN_3_LD_9_RN_7_RD_30_0.png","img2/100/Congruent/R/C_Dist_100_LN_6_LD_12_RN_15_RD_25_1.png","img2/300/Congruent/L/C_Dist_300_LN_20_LD_25_RN_8_RD_16_0.png","img2/100/Incongruent/L/I_Dist_100_LN_3_LD_5_RN_11_RD_22_0.png","img2/100/Incongruent/R/I_Dist_100_LN_13_LD_26_RN_6_RD_10_1.png","img2/100/Congruent/R/C_Dist_100_LN_7_LD_14_RN_9_RD_15_1.png","img2/300/Incongruent/L/I_Dist_300_LN_3_LD_6_RN_4_RD_20_0.png","img2/100/Incongruent/L/I_Dist_100_LN_9_LD_10_RN_20_RD_25_0.png","img2/200/Incongruent/L/I_Dist_200_LN_7_LD_10_RN_14_RD_28_0.png","img2/200/Congruent/L/C_Dist_200_LN_7_LD_21_RN_2_RD_15_0.png","img2/300/Congruent/L/C_Dist_300_LN_11_LD_22_RN_4_RD_20_0.png","img2/100/Incongruent/R/I_Dist_100_LN_10_LD_25_RN_9_RD_18_1.png","img2/300/Incongruent/R/I_Dist_300_LN_4_LD_20_RN_2_RD_4_1.png","img2/200/Congruent/R/C_Dist_200_LN_13_LD_26_RN_14_RD_20_1.png","img2/300/Congruent/L/C_Dist_300_LN_24_LD_30_RN_8_RD_16_0.png","img2/300/Incongruent/L/I_Dist_300_LN_7_LD_10_RN_8_RD_20_0.png","img2/200/Congruent/L/C_Dist_200_LN_6_LD_15_RN_3_RD_15_0.png","img2/100/Congruent/R/C_Dist_100_LN_4_LD_8_RN_6_RD_10_1.png","img2/300/Incongruent/L/I_Dist_300_LN_4_LD_5_RN_8_RD_16_0.png","img2/100/Congruent/L/C_Dist_100_LN_10_LD_25_RN_3_RD_10_0.png","img2/100/Congruent/L/C_Dist_100_LN_11_LD_22_RN_6_RD_15_0.png","img2/300/Congruent/R/C_Dist_300_LN_2_LD_20_RN_10_RD_25_1.png","img2/200/Incongruent/R/I_Dist_200_LN_11_LD_20_RN_3_RD_4_1.png","img2/100/Incongruent/L/I_Dist_100_LN_3_LD_5_RN_11_RD_22_0.png","img2/200/Congruent/L/C_Dist_200_LN_20_LD_25_RN_9_RD_15_0.png","img2/200/Congruent/L/C_Dist_200_LN_4_LD_10_RN_3_RD_15_0.png","img2/300/Congruent/L/C_Dist_300_LN_3_LD_6_RN_2_RD_10_0.png","img2/300/Incongruent/L/I_Dist_300_LN_1_LD_2_RN_2_RD_10_0.png","img2/300/Congruent/L/C_Dist_300_LN_3_LD_6_RN_2_RD_10_0.png","img2/200/Incongruent/R/I_Dist_200_LN_4_LD_30_RN_1_RD_3_1.png","img2/100/Congruent/L/C_Dist_100_LN_3_LD_6_RN_2_RD_5_0.png","img2/100/Congruent/R/C_Dist_100_LN_12_LD_30_RN_13_RD_26_1.png","img2/100/Congruent/L/C_Dist_100_LN_10_LD_25_RN_3_RD_10_0.png","img2/300/Congruent/L/C_Dist_300_LN_20_LD_25_RN_5_RD_10_0.png","img2/100/Incongruent/R/I_Dist_100_LN_13_LD_26_RN_12_RD_20_1.png","img2/300/Congruent/L/C_Dist_300_LN_12_LD_24_RN_2_RD_10_0.png","img2/200/Incongruent/L/I_Dist_200_LN_7_LD_10_RN_14_RD_28_0.png","img2/300/Incongruent/R/I_Dist_300_LN_13_LD_26_RN_12_RD_15_1.png","img2/200/Congruent/R/C_Dist_200_LN_5_LD_10_RN_14_RD_20_1.png","img2/100/Congruent/L/C_Dist_100_LN_15_LD_25_RN_13_RD_26_0.png","img2/300/Congruent/L/C_Dist_300_LN_11_LD_22_RN_1_RD_5_0.png","img2/100/Incongruent/L/I_Dist_100_LN_3_LD_5_RN_11_RD_22_0.png","img2/100/Congruent/L/C_Dist_100_LN_15_LD_25_RN_13_RD_26_0.png","img2/200/Congruent/R/C_Dist_200_LN_3_LD_10_RN_14_RD_28_1.png","img2/200/Incongruent/L/I_Dist_200_LN_3_LD_4_RN_11_RD_20_0.png","img2/100/Congruent/R/C_Dist_100_LN_4_LD_10_RN_15_RD_30_1.png","img2/300/Congruent/R/C_Dist_300_LN_1_LD_5_RN_3_RD_6_1.png","img2/200/Congruent/L/C_Dist_200_LN_9_LD_20_RN_4_RD_16_0.png","img2/200/Congruent/L/C_Dist_200_LN_12_LD_15_RN_6_RD_10_0.png","img2/100/Incongruent/L/I_Dist_100_LN_2_LD_4_RN_8_RD_20_0.png","img2/200/Incongruent/L/I_Dist_200_LN_7_LD_10_RN_14_RD_28_0.png"],"dist100_C":[["C_Dist_100_LN_10_LD_25_RN_3_RD_10_0.png","C_Dist_100_LN_11_LD_22_RN_4_RD_10_0.png","C_Dist_100_LN_11_LD_22_RN_6_RD_15_0.png","C_Dist_100_LN_15_LD_25_RN_13_RD_26_0.png","C_Dist_100_LN_3_LD_6_RN_2_RD_5_0.png","C_Dist_100_LN_6_LD_20_RN_5_RD_25_0.png","C_Dist_100_LN_8_LD_16_RN_2_RD_5_0.png","C_Dist_100_LN_9_LD_15_RN_8_RD_16_0.png"],["C_Dist_100_LN_1_LD_2_RN_18_RD_30_1.png","C_Dist_100_LN_1_LD_2_RN_3_RD_5_1.png","C_Dist_100_LN_12_LD_30_RN_13_RD_26_1.png","C_Dist_100_LN_2_LD_5_RN_11_RD_22_1.png","C_Dist_100_LN_2_LD_5_RN_6_RD_12_1.png","C_Dist_100_LN_3_LD_20_RN_4_RD_16_1.png","C_Dist_100_LN_4_LD_10_RN_15_RD_30_1.png","C_Dist_100_LN_4_LD_8_RN_6_RD_10_1.png","C_Dist_100_LN_6_LD_12_RN_15_RD_25_1.png","C_Dist_100_LN_7_LD_14_RN_15_RD_25_1.png","C_Dist_100_LN_7_LD_14_RN_9_RD_15_1.png"]],"dist100_I":[["I_Dist_100_LN_1_LD_2_RN_8_RD_20_0.png","I_Dist_100_LN_2_LD_4_RN_6_RD_15_0.png","I_Dist_100_LN_2_LD_4_RN_8_RD_20_0.png","I_Dist_100_LN_3_LD_5_RN_11_RD_22_0.png","I_Dist_100_LN_3_LD_5_RN_8_RD_16_0.png","I_Dist_100_LN_3_LD_6_RN_4_RD_10_0.png","I_Dist_100_LN_3_LD_9_RN_7_RD_30_0.png","I_Dist_100_LN_4_LD_8_RN_8_RD_20_0.png","I_Dist_100_LN_6_LD_10_RN_11_RD_22_0.png","I_Dist_100_LN_6_LD_10_RN_13_RD_26_0.png","I_Dist_100_LN_6_LD_10_RN_7_RD_14_0.png","I_Dist_100_LN_9_LD_10_RN_20_RD_25_0.png","I_Dist_100_LN_9_LD_15_RN_13_RD_26_0.png","I_Dist_100_LN_9_LD_15_RN_14_RD_28_0.png"],["I_Dist_100_LN_10_LD_25_RN_8_RD_16_1.png","I_Dist_100_LN_10_LD_25_RN_9_RD_18_1.png","I_Dist_100_LN_11_LD_22_RN_9_RD_15_1.png","I_Dist_100_LN_12_LD_24_RN_9_RD_15_1.png","I_Dist_100_LN_12_LD_30_RN_2_RD_4_1.png","I_Dist_100_LN_13_LD_26_RN_12_RD_20_1.png","I_Dist_100_LN_13_LD_26_RN_6_RD_10_1.png","I_Dist_100_LN_17_LD_30_RN_10_RD_15_1.png","I_Dist_100_LN_6_LD_12_RN_3_RD_5_1.png","I_Dist_100_LN_8_LD_16_RN_6_RD_10_1.png","I_Dist_100_LN_8_LD_20_RN_1_RD_2_1.png","I_Dist_100_LN_9_LD_18_RN_6_RD_10_1.png"]],"dist100_S":[["E_Dist_100_LN_2_LD_12_RN_2_RD_30_0.png","E_Dist_100_LN_6_LD_10_RN_6_RD_12_0.png"],["E_Dist_100_LN_6_LD_12_RN_6_RD_10_1.png"]],"dist200_C":[["C_Dist_200_LN_11_LD_22_RN_3_RD_10_0.png","C_Dist_200_LN_12_LD_15_RN_6_RD_10_0.png","C_Dist_200_LN_12_LD_20_RN_6_RD_15_0.png","C_Dist_200_LN_14_LD_28_RN_6_RD_20_0.png","C_Dist_200_LN_15_LD_25_RN_4_RD_10_0.png","C_Dist_200_LN_16_LD_20_RN_12_RD_20_0.png","C_Dist_200_LN_16_LD_30_RN_9_RD_27_0.png","C_Dist_200_LN_20_LD_25_RN_9_RD_15_0.png","C_Dist_200_LN_21_LD_30_RN_2_RD_4_0.png","C_Dist_200_LN_4_LD_10_RN_3_RD_15_0.png","C_Dist_200_LN_4_LD_8_RN_3_RD_10_0.png","C_Dist_200_LN_6_LD_15_RN_3_RD_15_0.png","C_Dist_200_LN_7_LD_21_RN_2_RD_15_0.png","C_Dist_200_LN_8_LD_15_RN_2_RD_6_0.png","C_Dist_200_LN_8_LD_15_RN_3_RD_9_0.png","C_Dist_200_LN_8_LD_15_RN_7_RD_21_0.png","C_Dist_200_LN_9_LD_20_RN_4_RD_16_0.png"],["C_Dist_200_LN_1_LD_2_RN_21_RD_30_1.png","C_Dist_200_LN_13_LD_26_RN_14_RD_20_1.png","C_Dist_200_LN_3_LD_10_RN_11_RD_22_1.png","C_Dist_200_LN_3_LD_10_RN_14_RD_28_1.png","C_Dist_200_LN_3_LD_10_RN_7_RD_14_1.png","C_Dist_200_LN_3_LD_12_RN_9_RD_20_1.png","C_Dist_200_LN_3_LD_6_RN_14_RD_20_1.png","C_Dist_200_LN_5_LD_10_RN_14_RD_20_1.png","C_Dist_200_LN_6_LD_12_RN_7_RD_10_1.png","C_Dist_200_LN_6_LD_20_RN_11_RD_22_1.png","C_Dist_200_LN_7_LD_15_RN_18_RD_27_1.png","C_Dist_200_LN_9_LD_30_RN_13_RD_26_1.png"]],"dist200_I":[["I_Dist_200_LN_1_LD_2_RN_3_RD_10_0.png","I_Dist_200_LN_1_LD_3_RN_2_RD_15_0.png","I_Dist_200_LN_3_LD_4_RN_11_RD_20_0.png","I_Dist_200_LN_4_LD_5_RN_6_RD_10_0.png","I_Dist_200_LN_4_LD_6_RN_14_RD_30_0.png","I_Dist_200_LN_7_LD_10_RN_12_RD_24_0.png","I_Dist_200_LN_7_LD_10_RN_14_RD_28_0.png","I_Dist_200_LN_7_LD_10_RN_8_RD_16_0.png"],["I_Dist_200_LN_11_LD_20_RN_3_RD_4_1.png","I_Dist_200_LN_14_LD_30_RN_12_RD_18_1.png","I_Dist_200_LN_14_LD_30_RN_6_RD_9_1.png","I_Dist_200_LN_3_LD_10_RN_1_RD_2_1.png","I_Dist_200_LN_4_LD_30_RN_1_RD_3_1.png","I_Dist_200_LN_6_LD_20_RN_3_RD_6_1.png","I_Dist_200_LN_7_LD_15_RN_4_RD_6_1.png","I_Dist_200_LN_7_LD_15_RN_6_RD_9_1.png","I_Dist_200_LN_9_LD_15_RN_8_RD_10_1.png"]],"dist200_S":[["E_Dist_200_LN_3_LD_6_RN_3_RD_10_0.png"],["E_Dist_200_LN_3_LD_10_RN_3_RD_6_1.png"]],"dist300_C":[["C_Dist_300_LN_11_LD_22_RN_1_RD_5_0.png","C_Dist_300_LN_11_LD_22_RN_2_RD_10_0.png","C_Dist_300_LN_11_LD_22_RN_4_RD_20_0.png","C_Dist_300_LN_12_LD_24_RN_2_RD_10_0.png","C_Dist_300_LN_18_LD_20_RN_9_RD_15_0.png","C_Dist_300_LN_20_LD_25_RN_13_RD_26_0.png","C_Dist_300_LN_20_LD_25_RN_14_RD_28_0.png","C_Dist_300_LN_20_LD_25_RN_5_RD_10_0.png","C_Dist_300_LN_20_LD_25_RN_8_RD_16_0.png","C_Dist_300_LN_20_LD_25_RN_9_RD_18_0.png","C_Dist_300_LN_24_LD_30_RN_2_RD_4_0.png","C_Dist_300_LN_24_LD_30_RN_8_RD_16_0.png","C_Dist_300_LN_3_LD_6_RN_2_RD_10_0.png","C_Dist_300_LN_4_LD_10_RN_1_RD_10_0.png","C_Dist_300_LN_4_LD_5_RN_2_RD_4_0.png","C_Dist_300_LN_8_LD_16_RN_1_RD_5_0.png","C_Dist_300_LN_9_LD_10_RN_3_RD_5_0.png"],["C_Dist_300_LN_1_LD_20_RN_7_RD_20_1.png","C_Dist_300_LN_1_LD_3_RN_19_RD_30_1.png","C_Dist_300_LN_1_LD_30_RN_8_RD_24_1.png","C_Dist_300_LN_1_LD_5_RN_11_RD_22_1.png","C_Dist_300_LN_1_LD_5_RN_3_RD_6_1.png","C_Dist_300_LN_1_LD_5_RN_6_RD_12_1.png","C_Dist_300_LN_2_LD_10_RN_12_RD_24_1.png","C_Dist_300_LN_2_LD_20_RN_10_RD_25_1.png","C_Dist_300_LN_3_LD_12_RN_11_RD_20_1.png","C_Dist_300_LN_3_LD_6_RN_4_RD_5_1.png","C_Dist_300_LN_4_LD_20_RN_13_RD_26_1.png","C_Dist_300_LN_5_LD_25_RN_6_RD_12_1.png","C_Dist_300_LN_5_LD_25_RN_7_RD_14_1.png","C_Dist_300_LN_7_LD_14_RN_20_RD_25_1.png","C_Dist_300_LN_8_LD_15_RN_10_RD_12_1.png"]],"dist300_I":[["I_Dist_300_LN_1_LD_2_RN_2_RD_10_0.png","I_Dist_300_LN_1_LD_2_RN_3_RD_15_0.png","I_Dist_300_LN_2_LD_4_RN_6_RD_30_0.png","I_Dist_300_LN_3_LD_6_RN_4_RD_20_0.png","I_Dist_300_LN_4_LD_5_RN_6_RD_12_0.png","I_Dist_300_LN_4_LD_5_RN_8_RD_16_0.png","I_Dist_300_LN_7_LD_10_RN_8_RD_20_0.png","I_Dist_300_LN_8_LD_10_RN_14_RD_28_0.png","I_Dist_300_LN_8_LD_10_RN_9_RD_18_0.png"],["I_Dist_300_LN_13_LD_26_RN_12_RD_15_1.png","I_Dist_300_LN_4_LD_20_RN_2_RD_4_1.png"]],"dist300_S":[["E_Dist_300_LN_9_LD_12_RN_9_RD_20_0.png"],["E_Dist_300_LN_18_LD_30_RN_18_RD_20_1.png","E_Dist_300_LN_3_LD_10_RN_3_RD_5_1.png","E_Dist_300_LN_9_LD_20_RN_9_RD_12_1.png"]],"dist500_C":[["C_Dist_500_LN_10_LD_13_RN_7_RD_26_0.png","C_Dist_500_LN_10_LD_15_RN_4_RD_24_0.png","C_Dist_500_LN_12_LD_16_RN_3_RD_12_0.png","C_Dist_500_LN_12_LD_18_RN_4_RD_24_0.png","C_Dist_500_LN_15_LD_18_RN_5_RD_15_0.png","C_Dist_500_LN_15_LD_20_RN_1_RD_4_0.png","C_Dist_500_LN_18_LD_27_RN_1_RD_6_0.png","C_Dist_500_LN_20_LD_24_RN_1_RD_3_0.png","C_Dist_500_LN_20_LD_24_RN_3_RD_9_0.png","C_Dist_500_LN_20_LD_24_RN_7_RD_21_0.png","C_Dist_500_LN_20_LD_28_RN_3_RD_14_0.png","C_Dist_500_LN_21_LD_28_RN_6_RD_24_0.png","C_Dist_500_LN_22_LD_28_RN_2_RD_7_0.png","C_Dist_500_LN_25_LD_30_RN_9_RD_27_0.png","C_Dist_500_LN_4_LD_6_RN_1_RD_6_0.png","C_Dist_500_LN_5_LD_6_RN_2_RD_6_0.png","C_Dist_500_LN_6_LD_9_RN_1_RD_6_0.png","C_Dist_500_LN_7_LD_10_RN_1_RD_5_0.png","C_Dist_500_LN_8_LD_12_RN_1_RD_6_0.png","C_Dist_500_LN_8_LD_12_RN_4_RD_24_0.png"],["C_Dist_500_LN_1_LD_4_RN_12_RD_16_1.png","C_Dist_500_LN_1_LD_4_RN_9_RD_12_1.png","C_Dist_500_LN_1_LD_9_RN_11_RD_18_1.png","C_Dist_500_LN_10_LD_24_RN_22_RD_24_1.png","C_Dist_500_LN_2_LD_12_RN_10_RD_15_1.png","C_Dist_500_LN_2_LD_12_RN_12_RD_18_1.png","C_Dist_500_LN_2_LD_12_RN_4_RD_6_1.png","C_Dist_500_LN_2_LD_24_RN_7_RD_12_1.png","C_Dist_500_LN_2_LD_5_RN_18_RD_20_1.png","C_Dist_500_LN_2_LD_5_RN_9_RD_10_1.png","C_Dist_500_LN_2_LD_8_RN_12_RD_16_1.png","C_Dist_500_LN_2_LD_8_RN_21_RD_28_1.png","C_Dist_500_LN_3_LD_10_RN_4_RD_5_1.png","C_Dist_500_LN_3_LD_12_RN_15_RD_20_1.png","C_Dist_500_LN_3_LD_30_RN_6_RD_10_1.png","C_Dist_500_LN_3_LD_8_RN_14_RD_16_1.png","C_Dist_500_LN_4_LD_16_RN_15_RD_20_1.png","C_Dist_500_LN_4_LD_24_RN_12_RD_18_1.png","C_Dist_500_LN_5_LD_14_RN_6_RD_7_1.png","C_Dist_500_LN_7_LD_21_RN_20_RD_24_1.png","C_Dist_500_LN_7_LD_28_RN_12_RD_16_1.png","C_Dist_500_LN_7_LD_28_RN_9_RD_12_1.png","C_Dist_500_LN_9_LD_27_RN_20_RD_24_1.png"]],"dist500_I":[["I_Dist_500_LN_2_LD_3_RN_4_RD_24_0.png","I_Dist_500_LN_5_LD_6_RN_6_RD_18_0.png","I_Dist_500_LN_7_LD_8_RN_9_RD_24_0.png"],["I_Dist_500_LN_7_LD_21_RN_5_RD_6_1.png"]],"dist500_S":[["E_Dist_500_LN_6_LD_8_RN_6_RD_24_0.png"],["E_Dist_500_LN_2_LD_12_RN_2_RD_3_1.png","E_Dist_500_LN_6_LD_24_RN_6_RD_8_1.png"]]}},{"start_time":1552327342277,"click_time":1552327345227,"finger_time":1552327344128,"fix_duration":849.8807044189873,"trial":1,"RT":1851,"MT":1099,"sideResp":2,"stimulus":[],"xmouse":[793,793,793,793,793,793,793,793,793,793,793,793,793,793,793,793,793,793,793,793,793,793,793,793,793,793,793,793,793,793,793,793,793,793,793,793,793,793,793,793,793,793,793,793,793,793,793,793,793,793,793,793,793,793,793,793,793,793,793,793,793,793,793,793,793,793,793,793,793,793,793,793,793,793,793,793,793,793,793,793,793,793,793,793,793,793,793,793,793,793,794,803,825,864,917,986,986,986,986,986,986,986,986,986,986,986,986,986,986,986,986,986,1542,1539,1538,1538,1537,1533,1526,1516,1516,1516,1516,1516,1516,1516,1516,1516,1516,1516,1516,1516,1516,1516,1516,1516,1516,1516,1516,1516,1516,1516,1516,1516,1516,1516,1158,1155],"ymouse":[514,514,514,514,514,514,514,514,514,514,514,514,514,514,514,514,514,514,514,514,514,514,514,514,514,514,514,514,514,514,514,514,514,514,514,514,514,514,514,514,514,514,514,514,514,514,514,514,514,514,514,514,514,514,514,514,514,514,514,514,514,514,514,514,514,514,514,514,514,514,514,514,514,514,514,514,514,514,514,514,514,514,514,514,514,514,514,514,514,514,508,487,434,340,211,47,47,47,47,47,47,47,47,47,47,47,47,47,47,47,47,47,1,2,2,2,2,2,2,0,0,0,0,0,0,0,0,0,0,0,0,0,0,0,0,0,0,0,0,0,0,0,0,0,0,0,0,1],"timestamp_mouse":[14,38,50,70,91,110,131,149,170,191,210,230,250,269,291,311,330,350,369,391,409,429,449,471,489,510,530,551,570,590,610,629,649,669,690,711,729,749,769,790,809,829,850,871,891,910,929,951,969,990,1010,1031,1049,1070,1091,1110,1131,1151,1169,1190,1210,1230,1250,1270,1289,1310,1330,1351,1369,1390,1411,1429,1449,1470,1490,1511,1529,1550,1570,1589,1611,1631,1650,1670,1691,1709,1729,1751,1769,1790,1811,1830,1851,1871,1890,1909,1929,1950,1970,1990,2010,2030,2050,2071,2090,2110,2130,2150,2169,2190,2211,2230,2250,2270,2290,2311,2331,2350,2369,2390,2411,2430,2450,2470,2489,2511,2530,2551,2571,2590,2610,2629,2649,2670,2690,2711,2729,2750,2770,2789,2810,2830,2849,2869,2889,2909,2929,2950],"xSR":741.5,"ySR":469.95,"xT1":424.9,"yT1":0,"xT2":1058.1,"yT2":0,"toosoon":0,"cond_shown":"Incongruent","ratio_trial":300,"L_num":4,"L_den":5,"R_num":8,"R_den":16,"correct_side":1,"subjID":"marianarodriguez15","gender":"1","school":"4","age":"9"},{"start_time":1552327347346,"click_time":1552327349587,"finger_time":1552327348847,"fix_duration":276.19973389192063,"trial":2,"RT":1501,"MT":740,"sideResp":2,"stimulus":[],"xmouse":[792,792,792,792,792,792,792,792,792,792,792,792,792,792,792,792,792,792,792,792,792,792,792,792,792,792,792,792,792,792,792,792,792,792,792,792,792,792,792,792,792,792,792,792,792,792,792,792,792,792,792,792,792,792,792,792,792,792,792,792,792,792,792,792,792,792,792,792,792,792,792,792,792,806,831,878,947,1020,1148,1191,1222,1234,1244,1247,1248,1248,1249,1249,1250,1251,1252,1253,1254,1254,1254,1254,1254,1252,1242,1234,1225,1220,1215,1206,1202,1196,1191,1185,1176,1170,1167,1159,1154],"ymouse":[480,480,480,480,480,480,480,482,483,484,484,484,484,484,484,484,484,484,484,484,484,484,484,484,484,484,484,484,484,484,484,484,484,484,484,484,484,484,484,484,484,484,484,484,484,484,484,484,484,484,484,484,484,484,484,484,484,484,484,484,484,484,484,484,484,484,484,484,484,484,484,484,484,481,472,448,408,362,257,213,172,149,129,122,122,122,122,122,120,119,116,109,103,92,88,86,84,84,82,81,81,81,80,78,78,78,78,78,78,78,78,77,76],"timestamp_mouse":[14,21,44,62,81,102,121,140,161,180,201,220,240,260,280,300,322,341,362,381,402,421,442,460,481,502,521,541,560,580,602,621,641,660,681,700,721,742,760,782,801,821,840,861,880,902,922,941,960,980,1000,1020,1041,1060,1081,1101,1121,1142,1160,1180,1201,1222,1242,1261,1281,1301,1322,1341,1361,1381,1402,1421,1441,1460,1481,1501,1521,1541,1561,1582,1602,1622,1642,1661,1680,1702,1720,1740,1761,1782,1801,1821,1840,1861,1880,1900,1921,1941,1962,1982,2001,2020,2041,2061,2081,2101,2121,2141,2162,2180,2201,2222,2240],"xSR":741.5,"ySR":469.95,"xT1":424.9,"yT1":0,"xT2":1058.1,"yT2":0,"toosoon":0,"cond_shown":"Incongruent","ratio_trial":300,"L_num":13,"L_den":26,"R_num":12,"R_den":15,"correct_side":2,"subjID":"marianarodriguez15","gender":"1","school":"4","age":"9"},{"start_time":1552327354829,"click_time":1552327358907,"finger_time":1552327358407,"fix_duration":280.44210112921894,"trial":3,"RT":3578,"MT":500,"sideResp":1,"stimulus":[],"xmouse":[824,824,825,824,823,823,823,823,822,821,819,817,816,814,814,814,814,814,814,814,814,814,814,814,814,814,814,814,814,814,814,814,814,814,814,814,814,814,814,814,814,814,814,814,814,814,814,814,814,814,814,814,814,814,814,814,814,814,814,814,814,814,814,814,814,814,814,814,814,814,814,814,814,814,814,814,813,812,808,794,789,786,786,786,786,786,786,786,786,786,786,786,786,786,786,786,786,786,786,786,786,786,786,786,786,786,786,786,786,786,786,786,786,787,788,788,788,788,788,788,788,788,788,788,788,788,787,787,787,787,787,787,787,787,787,787,787,787,787,787,784,781,777,772,761,760,760,760,760,760,760,759,759,760,762,764,766,767,767,768,768,768,768,768,768,768,768,768,768,768,768,768,768,768,768,768,769,767,759,718,686,652,602,577,551,515,503,498,495,491,491,491,491,491,491,491,491,491,490,490,490,490,489,484],"ymouse":[498,498,498,498,498,498,498,498,498,498,498,498,498,498,498,498,498,498,498,498,498,498,498,498,498,498,498,498,498,498,498,498,498,498,498,498,498,498,498,498,498,498,498,498,498,498,498,498,498,498,498,498,498,498,498,498,498,498,498,498,498,498,498,498,498,498,498,498,498,498,498,498,498,498,498,498,498,498,498,498,498,498,498,498,498,498,498,498,498,498,498,498,498,498,498,498,498,498,498,498,498,498,498,498,498,498,498,498,498,498,498,499,500,500,501,501,501,501,501,501,501,501,501,501,501,501,501,501,501,501,501,501,501,501,501,501,501,501,501,501,501,501,501,501,501,501,501,501,501,501,501,501,502,503,504,504,505,505,506,506,506,506,506,506,506,506,506,506,506,506,506,506,506,506,506,506,503,492,465,375,326,282,219,195,175,159,156,155,154,153,153,153,153,153,153,153,153,153,153,152,147,129,110,89],"timestamp_mouse":[30,39,58,78,98,117,139,158,177,198,217,239,257,278,299,318,338,357,377,399,417,439,459,478,497,518,538,557,578,597,618,637,661,678,698,717,738,758,779,799,817,839,857,877,898,919,938,958,978,998,1019,1037,1057,1077,1097,1117,1138,1157,1178,1197,1219,1238,1258,1277,1297,1319,1338,1359,1377,1397,1417,1438,1458,1479,1498,1518,1537,1557,1577,1598,1618,1637,1657,1677,1699,1718,1738,1757,1778,1797,1817,1837,1857,1877,1897,1918,1939,1957,1977,1997,2018,2038,2059,2077,2097,2118,2139,2159,2177,2197,2218,2237,2259,2278,2298,2318,2338,2358,2378,2397,2418,2438,2458,2477,2497,2518,2537,2559,2579,2598,2619,2639,2658,2677,2697,2718,2739,2757,2778,2798,2817,2838,2858,2878,2898,2918,2937,2958,2979,2998,3018,3038,3058,3078,3097,3118,3137,3159,3179,3198,3217,3238,3259,3277,3297,3319,3339,3359,3378,3397,3419,3438,3459,3478,3498,3518,3537,3559,3578,3598,3617,3637,3657,3678,3698,3718,3738,3757,3778,3798,3817,3837,3858,3877,3898,3918,3937,3958,3977,3998,4018,4038,4059,4078],"xSR":741.5,"ySR":469.95,"xT1":424.9,"yT1":0,"xT2":1058.1,"yT2":0,"toosoon":0,"cond_shown":"Congruent","ratio_trial":100,"L_num":12,"L_den":30,"R_num":13,"R_den":26,"correct_side":2,"subjID":"marianarodriguez15","gender":"1","school":"4","age":"9"},{"start_time":1552327363432,"click_time":1552327366187,"finger_time":1552327365446,"fix_duration":1003.5893260591841,"trial":4,"RT":2014,"MT":741,"sideResp":1,"stimulus":[],"xmouse":[757,757,757,757,757,757,757,757,757,757,757,757,757,757,757,757,757,757,757,757,757,757,757,757,757,757,759,760,761,761,762,762,762,762,762,762,762,762,762,762,762,762,762,762,762,762,762,762,762,762,762,762,762,762,762,762,762,762,762,762,762,762,762,762,762,762,762,762,762,762,762,762,762,762,762,762,762,762,762,762,762,762,762,762,761,758,755,754,752,751,748,748,748,748,748,749,755,767,772,792,843,878,917,957,994,1039,1050,1057,1064,1066,1068,1068,1068,1068,1068,1068,1066,1062,1053,1048,1036,1026,1013,999,986,965,953,938,902,858,747,702,676,657,643,611,586,510],"ymouse":[500,500,500,500,500,500,500,500,500,500,500,500,500,500,500,500,500,500,500,500,500,500,500,500,500,500,498,497,495,493,492,492,492,492,492,492,492,492,492,492,492,492,492,492,492,492,492,492,492,492,492,492,492,492,492,492,494,494,494,494,494,494,494,494,494,494,494,494,494,494,494,494,494,494,494,494,494,494,494,494,497,500,504,508,515,525,530,536,542,546,552,554,554,554,554,555,552,541,536,512,450,408,362,318,282,234,219,211,202,197,194,193,193,193,193,192,190,190,187,186,184,181,179,178,176,173,171,169,163,158,137,129,123,119,116,109,105,95],"timestamp_mouse":[14,34,54,74,94,114,134,154,174,194,214,235,254,275,294,314,334,355,375,394,415,435,455,475,494,515,534,555,575,595,614,634,654,675,695,715,734,755,776,794,816,835,854,875,894,915,935,955,976,995,1014,1034,1055,1075,1095,1115,1135,1156,1174,1194,1214,1235,1254,1276,1295,1314,1334,1355,1376,1395,1415,1435,1455,1474,1495,1515,1536,1555,1574,1595,1615,1634,1655,1674,1695,1714,1735,1754,1775,1796,1814,1834,1854,1874,1895,1914,1935,1955,1975,1995,2014,2035,2054,2075,2095,2114,2134,2155,2175,2194,2215,2235,2254,2276,2295,2315,2334,2355,2374,2395,2414,2434,2454,2475,2495,2515,2535,2554,2574,2595,2614,2636,2655,2675,2694,2716,2736,2755],"xSR":741.5,"ySR":469.95,"xT1":424.9,"yT1":0,"xT2":1058.1,"yT2":0,"toosoon":0,"cond_shown":"Incongruent","ratio_trial":300,"L_num":4,"L_den":20,"R_num":2,"R_den":4,"correct_side":2,"subjID":"marianarodriguez15","gender":"1","school":"4","age":"9"},{"start_time":1552327373028,"click_time":1552327375348,"finger_time":1552327374766,"fix_duration":638.3967663913388,"trial":5,"RT":1738,"MT":582,"sideResp":1,"stimulus":[],"xmouse":[802,802,802,802,802,800,800,800,800,800,800,800,799,799,798,798,798,798,798,798,798,798,798,798,798,798,798,798,798,798,798,798,798,798,798,798,798,798,798,798,798,798,798,798,798,798,798,798,798,798,798,798,798,798,798,798,798,798,798,798,798,798,798,798,798,798,798,798,798,798,798,798,798,798,798,798,798,798,798,798,798,796,793,790,785,777,773,763,757,749,744,739,731,728,726,724,722,721,719,716,712,709,704,702,693,682,664,616,596,582,573,567,551,542,531,526,522],"ymouse":[527,527,527,527,527,528,528,528,528,528,528,530,532,533,534,534,534,534,534,534,534,534,534,534,534,534,534,534,534,534,534,534,534,534,534,534,534,534,534,534,534,534,534,534,534,534,534,534,534,534,534,534,534,534,534,534,534,534,534,534,534,534,534,534,534,534,534,534,534,534,534,534,534,534,534,534,534,534,534,534,534,530,520,513,505,493,486,461,447,430,415,400,374,362,350,336,317,293,283,272,259,248,223,210,191,178,164,129,114,100,87,74,50,40,30,28,26],"timestamp_mouse":[1,18,39,59,78,99,118,139,158,180,199,218,238,258,279,300,319,338,360,379,399,418,438,458,479,499,518,538,558,578,598,619,638,658,679,698,719,739,758,779,798,818,839,858,879,899,919,938,958,979,998,1019,1038,1060,1079,1099,1119,1138,1159,1178,1199,1219,1238,1259,1278,1299,1318,1338,1358,1378,1398,1419,1438,1459,1478,1498,1519,1538,1560,1579,1598,1618,1638,1659,1678,1699,1718,1738,1758,1778,1798,1818,1839,1858,1879,1899,1918,1939,1959,1978,1999,2019,2039,2059,2079,2099,2119,2139,2158,2179,2198,2219,2239,2258,2279,2299,2319],"xSR":741.5,"ySR":469.95,"xT1":424.9,"yT1":0,"xT2":1058.1,"yT2":0,"toosoon":0,"cond_shown":"Incongruent","ratio_trial":200,"L_num":7,"L_den":10,"R_num":12,"R_den":24,"correct_side":1,"subjID":"marianarodriguez15","gender":"1","school":"4","age":"9"},{"start_time":1552327379836,"click_time":1552327382526,"finger_time":1552327381566,"fix_duration":1128.5274743176067,"trial":6,"RT":1730,"MT":960,"sideResp":2,"stimulus":[],"xmouse":[772,772,772,772,772,772,772,772,772,772,772,772,772,772,772,772,772,772,772,771,770,769,769,769,769,769,769,769,769,769,769,769,769,769,769,769,769,769,769,769,769,769,769,769,769,769,769,769,769,769,769,769,769,769,769,769,769,769,769,769,769,769,769,769,769,769,769,769,769,769,769,769,769,769,769,769,769,769,769,769,769,769,772,777,783,797,828,972,1064,1152,1230,1252,1260,1260,1260,1260,1258,1252,1249,1247,1242,1234,1219,1212,1204,1196,1188,1171,1166,1162,1160,1158,1158,1158,1158,1159,1159,1159,1159,1159,1159,1159,1154,1152,1149,1146,1143,1138,1136,1134,1131,1129,1125,1123,1122],"ymouse":[485,485,485,485,485,485,485,485,485,485,485,485,485,485,485,485,485,485,487,490,493,495,495,495,495,495,495,495,495,495,495,495,495,495,495,495,495,495,495,495,495,495,495,495,495,495,495,495,495,495,495,495,495,495,495,495,495,495,495,495,495,495,495,495,495,495,495,495,495,495,495,495,495,495,495,495,495,495,495,495,495,495,494,491,486,479,466,423,402,382,363,355,349,345,343,340,336,327,321,313,303,283,250,236,222,210,201,183,177,170,165,154,142,139,136,136,136,136,136,136,135,132,123,120,114,111,108,104,103,102,101,100,100,100,99],"timestamp_mouse":[14,38,50,70,90,111,130,151,171,190,211,231,251,270,291,310,330,351,370,390,411,431,451,471,490,510,530,550,570,590,612,630,651,671,691,710,730,750,770,791,810,830,850,870,890,911,932,950,971,990,1010,1030,1050,1071,1091,1110,1131,1151,1171,1190,1211,1230,1251,1271,1290,1310,1331,1351,1372,1391,1411,1430,1451,1470,1490,1511,1530,1550,1570,1590,1611,1631,1650,1670,1690,1711,1730,1751,1771,1791,1811,1831,1850,1870,1891,1911,1930,1951,1972,1991,2011,2031,2050,2070,2090,2110,2130,2151,2171,2190,2211,2230,2250,2271,2292,2310,2330,2351,2370,2390,2410,2431,2450,2470,2491,2511,2531,2550,2572,2590,2610,2630,2650,2671,2690],"xSR":741.5,"ySR":469.95,"xT1":424.9,"yT1":0,"xT2":1058.1,"yT2":0,"toosoon":0,"cond_shown":"Incongruent","ratio_trial":300,"L_num":2,"L_den":4,"R_num":6,"R_den":30,"correct_side":1,"subjID":"marianarodriguez15","gender":"1","school":"4","age":"9"},{"start_time":1552327386359,"click_time":1552327390347,"finger_time":1552327388707,"fix_duration":250,"trial":7,"RT":2348,"MT":1640,"sideResp":1,"stimulus":[],"xmouse":[807,805,800,793,789,784,783,782,782,782,782,782,782,782,782,782,780,779,777,775,774,773,773,773,773,773,773,773,773,773,773,773,772,770,768,766,761,758,757,755,754,754,754,754,754,754,754,754,754,754,754,754,754,754,754,754,754,754,754,754,754,754,754,754,752,751,751,749,749,749,749,749,749,749,749,748,747,746,746,745,744,744,744,744,744,744,744,744,744,744,744,744,744,744,744,744,744,744,744,744,744,744,744,744,744,744,744,744,744,744,744,744,744,744,744,743,742,740,738,737,735,734,733,733,733,733,733,733,733,733,733,733,733,733,733,733,733,733,733,733,733,733,733,733,734,734,734,734,734,734,734,734,734,734,734,734,734,734,734,734,734,734,734,734,732,729,723,711,704,696,686,670,670,670,670,670,670,670,670,670,670,670,670,670,629,637,637,629,619,611,606,604,604,605,605,605,598,570,549,516],"ymouse":[501,502,505,510,513,517,519,519,519,519,519,519,519,519,520,520,521,522,523,525,526,527,527,527,527,527,527,527,527,527,527,527,529,530,533,537,542,545,548,551,552,553,553,553,553,553,553,553,553,553,553,553,553,553,553,553,553,553,553,553,553,553,553,553,555,556,557,558,558,558,558,558,558,558,558,558,558,559,559,559,559,559,559,559,559,559,559,559,559,559,559,559,559,559,559,559,559,559,559,559,559,559,559,559,559,559,559,559,559,559,559,559,559,559,559,560,561,566,570,573,578,579,582,582,582,582,582,582,582,582,582,582,582,582,582,582,582,582,582,582,582,582,582,582,580,580,580,580,580,580,580,580,580,580,580,580,580,580,580,580,580,580,580,580,585,591,601,628,644,662,685,722,722,722,722,722,722,722,722,722,722,722,722,722,720,630,567,426,366,309,268,220,178,163,149,139,131,117,109,97],"timestamp_mouse":[8,28,47,67,88,107,128,147,169,187,208,227,248,268,287,308,328,348,367,387,407,427,447,467,487,507,528,549,568,588,607,628,648,668,689,708,728,748,767,787,808,828,847,867,889,908,928,948,967,987,1007,1028,1047,1068,1089,1108,1128,1147,1168,1189,1209,1227,1248,1267,1289,1308,1328,1348,1369,1388,1408,1428,1448,1468,1487,1508,1528,1548,1569,1587,1608,1627,1647,1667,1687,1708,1728,1749,1768,1787,1808,1827,1848,1867,1887,1907,1927,1947,1968,1987,2008,2028,2048,2067,2087,2108,2128,2148,2167,2189,2208,2227,2248,2269,2289,2308,2327,2348,2367,2388,2407,2428,2447,2469,2487,2507,2528,2547,2568,2587,2608,2627,2647,2668,2687,2708,2727,2747,2767,2788,2807,2828,2847,2868,2888,2907,2928,2947,2968,2988,3008,3028,3047,3068,3088,3107,3127,3147,3167,3187,3207,3228,3247,3268,3287,3308,3327,3347,3367,3388,3407,3430,3448,3469,3488,3508,3527,3549,3568,3588,3608,3628,3647,3668,3687,3709,3727,3749,3767,3788,3807,3828,3848,3867,3887,3908,3928,3948,3967,3988],"xSR":741.5,"ySR":469.95,"xT1":424.9,"yT1":0,"xT2":1058.1,"yT2":0,"toosoon":0,"cond_shown":"Congruent","ratio_trial":100,"L_num":4,"L_den":10,"R_num":15,"R_den":30,"correct_side":2,"subjID":"marianarodriguez15","gender":"1","school":"4","age":"9"},{"start_time":1552327403581,"click_time":1552327404946,"finger_time":1552327404806,"fix_duration":852.2916526159823,"trial":8,"RT":1225,"MT":140,"sideResp":2,"stimulus":[],"xmouse":[777,777,777,777,777,777,777,777,777,777,777,777,777,777,777,777,777,777,777,773,772,771,769,765,762,761,760,758,758,757,757,757,756,755,754,754,752,752,751,751,750,750,750,749,749,749,749,749,749,749,749,749,749,749,752,755,760,764,774,780,788,803,871,957,1016,1065,1105,1131,1156],"ymouse":[529,529,529,529,529,529,529,529,529,529,529,529,529,529,529,529,529,529,529,532,533,534,537,542,545,546,547,549,549,550,550,550,552,553,553,555,556,557,558,559,560,560,560,561,561,561,561,561,561,561,561,561,561,560,553,545,536,528,507,494,477,456,375,294,242,197,155,123,95],"timestamp_mouse":[9,42,46,65,85,105,126,145,166,186,206,226,245,267,285,306,326,345,366,385,406,426,446,466,485,506,526,546,566,586,606,626,646,666,686,705,725,746,765,785,805,826,845,865,886,905,925,945,966,986,1005,1025,1047,1065,1085,1106,1126,1146,1166,1186,1206,1225,1248,1265,1285,1305,1325,1347,1365],"xSR":741.5,"ySR":469.95,"xT1":424.9,"yT1":0,"xT2":1058.1,"yT2":0,"toosoon":0,"cond_shown":"Incongruent","ratio_trial":100,"L_num":3,"L_den":5,"R_num":8,"R_den":16,"correct_side":1,"subjID":"marianarodriguez15","gender":"1","school":"4","age":"9"},{"start_time":1552327409097,"click_time":1552327411687,"finger_time":1552327410927,"fix_duration":250,"trial":9,"RT":1830,"MT":760,"sideResp":2,"stimulus":[],"xmouse":[791,791,791,791,791,791,791,791,791,791,791,791,791,791,791,791,791,791,791,791,791,791,791,791,791,791,791,791,791,791,791,791,791,791,791,791,791,791,791,791,791,791,791,791,791,791,791,791,791,791,791,791,791,791,791,791,791,791,791,791,791,791,791,791,791,791,791,791,791,791,791,791,791,791,791,791,791,791,791,791,791,791,791,791,791,791,791,791,794,804,820,849,930,961,986,1010,1021,1038,1041,1045,1046,1047,1049,1050,1051,1052,1053,1054,1055,1055,1055,1056,1056,1058,1059,1060,1062,1066,1069,1072,1076,1079,1081,1085,1086,1088,1091,1093,1098,1100],"ymouse":[526,526,526,526,526,526,526,526,526,526,526,526,526,526,526,526,526,526,526,526,526,526,526,526,526,526,526,526,526,526,526,526,526,526,526,526,526,526,526,526,526,526,526,526,526,526,526,526,526,526,526,526,526,526,526,526,526,526,526,526,526,526,526,526,526,526,526,526,526,526,526,526,526,526,526,526,526,526,526,526,526,526,526,526,526,526,526,526,522,512,499,481,431,406,385,358,339,310,303,295,290,287,283,282,280,278,275,269,266,264,262,259,258,253,250,247,243,235,230,223,216,211,205,194,189,183,174,157,116,90],"timestamp_mouse":[10,38,49,70,90,110,129,151,170,190,209,229,249,269,289,310,329,350,370,390,409,430,451,471,489,509,530,549,570,590,609,631,650,670,690,709,731,751,770,790,809,829,850,870,890,909,930,950,970,990,1009,1030,1051,1070,1090,1109,1129,1149,1169,1190,1209,1229,1249,1269,1290,1310,1329,1350,1370,1390,1411,1430,1449,1470,1489,1510,1530,1549,1570,1591,1609,1629,1649,1669,1690,1710,1730,1750,1770,1789,1810,1830,1851,1869,1890,1910,1929,1950,1969,1989,2009,2030,2050,2069,2090,2110,2129,2150,2170,2189,2209,2230,2250,2270,2289,2310,2330,2350,2369,2389,2409,2430,2449,2469,2489,2510,2529,2550,2569,2589],"xSR":741.5,"ySR":469.95,"xT1":424.9,"yT1":0,"xT2":1058.1,"yT2":0,"toosoon":0,"cond_shown":"Congruent","ratio_trial":200,"L_num":9,"L_den":30,"R_num":13,"R_den":26,"correct_side":2,"subjID":"marianarodriguez15","gender":"1","school":"4","age":"9"},{"start_time":1552327415349,"click_time":1552327417627,"finger_time":1552327416907,"fix_duration":860.1973249197056,"trial":10,"RT":1558,"MT":720,"sideResp":1,"stimulus":[],"xmouse":[792,792,792,792,792,792,792,792,792,792,792,792,792,792,792,790,789,787,786,786,786,786,786,786,786,786,786,786,786,786,786,786,786,786,786,786,786,786,786,786,786,786,786,786,786,786,786,786,786,786,786,786,786,786,786,786,786,786,786,786,786,786,786,786,786,786,786,786,790,794,796,797,799,800,801,802,803,805,805,805,805,805,804,798,791,776,769,763,758,755,746,740,733,722,709,684,676,667,659,656,652,646,642,640,638,631,627,619,611,597,568,553,536,518],"ymouse":[523,523,523,523,523,523,523,523,523,523,523,523,523,523,524,528,533,539,543,543,543,543,543,544,546,547,547,547,547,547,547,547,547,547,547,547,547,547,547,547,547,547,547,547,547,547,547,547,547,547,547,547,547,547,547,547,547,547,547,547,547,547,547,547,547,547,545,543,533,522,510,504,499,494,488,477,471,459,448,433,402,384,363,342,320,288,279,271,266,265,261,257,253,245,235,213,204,190,170,158,144,119,110,106,103,100,99,97,94,89,76,69,61,52],"timestamp_mouse":[18,37,57,77,98,118,137,157,177,197,218,237,258,277,297,317,337,358,378,397,417,437,458,477,497,518,537,557,578,599,618,638,657,677,698,718,738,757,778,797,817,837,858,879,898,918,938,958,977,998,1017,1038,1058,1078,1097,1118,1137,1157,1178,1197,1218,1238,1258,1277,1297,1317,1338,1358,1378,1398,1418,1437,1458,1478,1498,1518,1538,1558,1578,1598,1617,1638,1657,1678,1699,1717,1737,1758,1777,1798,1818,1838,1857,1878,1897,1918,1937,1959,1978,1998,2017,2038,2058,2078,2099,2117,2138,2158,2178,2197,2217,2238,2257,2278],"xSR":741.5,"ySR":469.95,"xT1":424.9,"yT1":0,"xT2":1058.1,"yT2":0,"toosoon":0,"cond_shown":"Incongruent","ratio_trial":100,"L_num":17,"L_den":30,"R_num":10,"R_den":15,"correct_side":2,"subjID":"marianarodriguez15","gender":"1","school":"4","age":"9"},{"start_time":1552327419375,"click_time":1552327421627,"finger_time":1552327420967,"fix_duration":307.2128434890614,"trial":11,"RT":1592,"MT":660,"sideResp":2,"stimulus":[],"xmouse":[760,763,764,764,764,764,764,764,765,765,765,765,766,767,767,767,767,767,767,767,767,767,767,767,767,767,767,767,767,767,767,768,769,769,772,772,773,773,773,773,773,773,773,773,773,773,773,773,773,773,773,773,773,773,773,773,773,773,773,773,773,773,773,773,773,773,773,773,773,773,773,773,773,773,773,776,779,785,806,815,824,831,837,842,847,858,872,899,964,992,1011,1024,1031,1036,1043,1047,1048,1051,1056,1058,1060,1060,1061,1061,1061,1061,1062,1063,1066,1073,1077,1080],"ymouse":[529,526,526,526,525,525,525,525,525,524,524,523,522,520,520,520,520,520,520,520,520,520,520,520,520,520,520,520,520,520,519,518,516,513,503,501,501,501,501,501,501,501,501,501,501,501,501,501,501,501,501,501,501,501,501,501,501,501,501,501,501,501,501,501,501,501,501,501,501,501,501,501,501,501,500,498,494,488,469,459,451,441,432,424,413,390,367,328,246,207,180,161,148,140,128,122,120,119,116,115,115,115,114,114,114,114,114,114,113,107,101,96],"timestamp_mouse":[34,51,71,92,112,133,152,171,192,211,231,252,272,291,312,332,351,372,392,411,441,452,472,491,512,531,552,571,591,612,632,652,672,691,712,731,752,772,792,812,831,852,872,891,911,932,952,973,992,1011,1031,1055,1071,1092,1111,1131,1151,1172,1192,1212,1231,1252,1271,1292,1311,1331,1351,1371,1392,1411,1431,1452,1471,1492,1512,1532,1552,1571,1592,1611,1632,1653,1671,1705,1711,1731,1751,1771,1792,1811,1832,1852,1871,1891,1912,1931,1952,1971,1992,2012,2031,2052,2072,2091,2111,2132,2151,2172,2191,2212,2232,2252],"xSR":741.5,"ySR":469.95,"xT1":424.9,"yT1":0,"xT2":1058.1,"yT2":0,"toosoon":0,"cond_shown":"Incongruent","ratio_trial":300,"L_num":2,"L_den":4,"R_num":6,"R_den":30,"correct_side":1,"subjID":"marianarodriguez15","gender":"1","school":"4","age":"9"},{"start_time":1552327423263,"click_time":1552327424986,"finger_time":1552327424786,"fix_duration":314.0878513645531,"trial":12,"RT":1523,"MT":200,"sideResp":2,"stimulus":[],"xmouse":[795,795,795,795,795,794,793,790,787,783,778,774,773,773,773,773,773,773,773,773,773,773,771,768,765,763,762,762,762,762,762,762,762,762,762,762,762,762,762,762,762,762,762,762,762,762,762,762,762,762,762,762,762,762,762,762,762,762,762,762,762,762,762,762,762,762,762,762,762,762,762,771,786,802,818,835,864,877,893,908,928,944,954,970,993,1024,1076],"ymouse":[515,515,515,515,515,515,515,515,515,516,517,518,518,518,518,518,518,518,518,518,518,518,518,518,518,518,518,518,518,518,518,518,518,518,518,518,518,518,518,518,518,518,518,518,518,518,518,518,518,518,518,518,518,518,518,518,518,518,518,518,518,518,518,518,518,518,518,518,518,518,518,518,514,508,503,497,484,474,463,450,429,402,381,342,276,199,70],"timestamp_mouse":[12,39,44,64,83,103,124,143,164,183,203,223,244,264,284,303,324,343,363,384,404,425,443,463,484,504,524,543,563,585,603,624,643,664,684,703,723,743,764,785,803,824,843,864,884,903,924,944,964,984,1003,1024,1044,1064,1084,1103,1123,1143,1164,1183,1204,1224,1243,1263,1283,1304,1323,1344,1363,1383,1403,1423,1444,1464,1483,1503,1523,1543,1563,1583,1604,1623,1643,1663,1684,1704,1723],"xSR":741.5,"ySR":469.95,"xT1":424.9,"yT1":0,"xT2":1058.1,"yT2":0,"toosoon":0,"cond_shown":"Incongruent","ratio_trial":300,"L_num":13,"L_den":26,"R_num":12,"R_den":15,"correct_side":2,"subjID":"marianarodriguez15","gender":"1","school":"4","age":"9"},{"start_time":1552327428187,"click_time":1552327429888,"finger_time":1552327428387,"fix_duration":1000.7206341905126,"trial":13,"RT":200,"MT":1501,"sideResp":2,"stimulus":[],"xmouse":[756,752,751,749,747,746,744,743,737,735,729,725,720,712,707,703,700,695,689,681,672,667,660,655,646,642,639,638,636,636,636,636,636,636,637,637,639,641,647,651,663,681,706,776,807,834,855,874,909,941,964,992,1024,1078,1101,1120,1137,1149,1158,1177,1184,1194,1203,1216,1219,1222,1223,1223,1223,1222,1217,1212,1207,1204,1203,1202,1201,1199,1195,1189,1182,1174,1165,1149],"ymouse":[533,533,533,533,534,535,536,537,541,543,548,552,556,563,568,574,576,582,588,601,614,622,632,639,656,662,670,676,682,691,695,697,700,701,701,701,701,701,701,699,694,687,675,635,614,591,573,554,509,470,446,415,382,316,282,251,224,200,179,134,117,100,83,48,34,23,17,14,14,13,12,12,11,11,10,10,10,10,10,10,10,10,10,14],"timestamp_mouse":[41,60,80,99,120,140,160,179,200,219,239,259,281,300,319,339,359,379,400,419,440,459,479,499,519,539,559,579,600,619,640,659,680,699,719,740,760,779,801,819,839,859,880,899,919,939,959,979,1000,1019,1040,1061,1080,1100,1119,1140,1160,1180,1199,1219,1239,1259,1279,1300,1319,1339,1359,1379,1399,1419,1440,1459,1479,1501,1519,1539,1560,1579,1600,1619,1639,1660,1679,1700],"xSR":741.5,"ySR":469.95,"xT1":424.9,"yT1":0,"xT2":1058.1,"yT2":0,"toosoon":0,"cond_shown":"Incongruent","ratio_trial":200,"L_num":7,"L_den":10,"R_num":14,"R_den":28,"correct_side":1,"subjID":"marianarodriguez15","gender":"1","school":"4","age":"9"},{"start_time":1552327432842,"click_time":1552327434046,"finger_time":1552327433847,"fix_duration":1073.2556842345284,"trial":14,"RT":1005,"MT":199,"sideResp":1,"stimulus":[],"xmouse":[828,828,828,828,828,828,828,828,828,828,828,828,828,828,828,828,828,828,828,828,828,828,828,828,828,828,828,828,828,828,828,828,828,828,828,828,828,828,827,827,826,826,826,826,826,826,826,825,822,820,815,810,796,759,738,715,689,623,526,490,473],"ymouse":[531,531,531,531,531,531,531,531,531,531,531,531,531,531,531,531,531,531,531,531,531,531,531,531,531,531,531,531,531,531,531,531,531,531,531,531,531,531,531,531,532,532,532,532,532,532,532,531,501,477,447,406,354,251,212,185,171,150,118,102,86],"timestamp_mouse":[12,37,45,65,84,104,125,144,165,186,205,225,244,265,284,304,324,344,364,384,405,425,444,465,484,504,525,544,564,584,604,625,646,665,684,705,725,744,764,785,805,825,844,865,884,905,925,945,964,985,1005,1025,1044,1064,1085,1105,1124,1145,1165,1184,1204],"xSR":741.5,"ySR":469.95,"xT1":424.9,"yT1":0,"xT2":1058.1,"yT2":0,"toosoon":0,"cond_shown":"Incongruent","ratio_trial":200,"L_num":7,"L_den":10,"R_num":12,"R_den":24,"correct_side":1,"subjID":"marianarodriguez15","gender":"1","school":"4","age":"9"},{"start_time":1552327437637,"click_time":1552327440106,"finger_time":1552327437706,"fix_duration":250,"trial":15,"RT":69,"MT":2400,"sideResp":1,"stimulus":[],"xmouse":[792,799,799,839,848,849,849,849,849,850,851,851,851,851,851,851,851,851,851,851,851,851,851,851,851,851,851,851,850,848,847,845,844,844,843,842,841,840,839,835,834,833,833,832,829,827,824,823,821,819,819,818,818,818,818,817,817,816,815,815,815,815,814,812,811,811,809,809,807,804,803,802,802,802,802,802,802,802,796,787,777,759,730,642,607,562,562,562,562,562,562,562,562,562,562,562,562,562,562,562,562,562,562,562,562,562,299,299,299,301,302,304,307,313,332,337,341,346,354,377,389,401,414,430],"ymouse":[484,482,482,466,465,464,464,464,464,464,463,463,463,463,463,463,463,463,463,463,463,463,463,463,463,463,463,463,463,462,462,462,461,461,461,460,460,460,460,460,460,460,460,460,462,462,463,464,464,465,465,465,465,465,465,465,465,465,465,465,465,465,465,465,465,465,465,466,467,468,469,470,470,470,470,470,470,470,463,448,430,401,353,193,120,35,35,35,35,35,35,35,35,35,35,35,35,35,35,35,35,35,35,35,35,35,23,35,46,63,70,79,87,96,113,114,114,114,114,111,104,98,87,73],"timestamp_mouse":[15,39,50,69,89,109,130,149,170,189,210,230,249,270,289,309,329,349,371,389,410,431,449,470,489,510,530,550,571,590,611,629,650,670,689,709,729,749,770,789,809,829,849,870,889,909,930,950,969,996,1010,1029,1049,1070,1089,1109,1130,1149,1170,1189,1210,1229,1250,1271,1289,1309,1329,1349,1369,1389,1409,1430,1449,1469,1490,1510,1529,1549,1570,1590,1609,1630,1649,1671,1689,1710,1730,1749,1770,1790,1810,1829,1849,1870,1889,1910,1930,1950,1970,1990,2009,2030,2049,2069,2090,2109,2130,2150,2169,2189,2209,2230,2250,2270,2289,2310,2330,2350,2370,2389,2410,2430,2450,2469],"xSR":741.5,"ySR":469.95,"xT1":424.9,"yT1":0,"xT2":1058.1,"yT2":0,"toosoon":0,"cond_shown":"Congruent","ratio_trial":100,"L_num":8,"L_den":16,"R_num":2,"R_den":5,"correct_side":1,"subjID":"marianarodriguez15","gender":"1","school":"4","age":"9"},{"start_time":1552327441959,"click_time":1552327443706,"finger_time":1552327442887,"fix_duration":250,"trial":16,"RT":928,"MT":819,"sideResp":2,"stimulus":[],"xmouse":[785,785,785,785,785,785,785,785,785,785,785,785,784,784,784,784,784,783,783,783,783,783,783,783,783,783,783,783,783,783,783,783,782,782,782,782,782,782,782,782,782,782,785,790,794,798,803,811,824,834,846,861,876,914,932,948,962,969,978,981,984,990,997,1012,1020,1026,1028,1029,1029,1029,1029,1029,1029,1028,1028,1028,1028,1028,1029,1031,1035,1038,1041,1047,1052,1053,1056,1059],"ymouse":[505,505,505,505,505,505,505,505,505,505,505,506,508,509,511,511,511,512,512,512,512,512,512,512,512,512,512,512,512,512,512,512,514,515,515,515,515,515,515,515,511,510,504,491,485,477,469,456,431,413,392,371,347,285,249,212,167,145,122,117,111,101,89,67,56,48,44,43,43,43,43,43,43,44,48,53,54,55,55,55,55,55,55,55,55,55,55,55],"timestamp_mouse":[13,39,47,68,88,108,127,148,167,188,208,227,247,267,288,307,327,347,368,387,407,427,447,468,488,508,527,547,567,588,607,628,648,667,688,707,728,747,767,788,807,827,847,867,887,908,928,948,967,988,1007,1028,1047,1067,1087,1108,1128,1148,1167,1188,1208,1227,1247,1267,1287,1308,1327,1347,1368,1387,1409,1428,1447,1468,1488,1507,1527,1547,1567,1588,1608,1627,1648,1667,1687,1708,1728,1747],"xSR":741.5,"ySR":469.95,"xT1":424.9,"yT1":0,"xT2":1058.1,"yT2":0,"toosoon":0,"cond_shown":"Incongruent","ratio_trial":200,"L_num":9,"L_den":15,"R_num":8,"R_den":10,"correct_side":2,"subjID":"marianarodriguez15","gender":"1","school":"4","age":"9"},{"start_time":1552327452254,"click_time":1552327453947,"finger_time":1552327453427,"fix_duration":1245.5078180746157,"trial":17,"RT":1173,"MT":520,"sideResp":2,"stimulus":[],"xmouse":[755,755,755,755,755,755,755,755,755,755,755,755,754,754,754,754,754,753,753,753,753,753,753,753,753,753,753,753,753,753,753,753,753,753,753,753,753,753,753,753,753,753,753,753,753,753,753,753,753,753,753,753,753,755,769,785,813,833,851,884,895,904,915,925,946,956,970,977,981,983,987,988,990,992,998,1001,1010,1016,1024,1042,1053,1064,1078,1091,1117],"ymouse":[533,533,533,533,533,533,533,533,533,533,533,533,534,535,535,535,535,535,535,535,535,535,535,535,535,535,535,535,535,535,535,535,535,535,535,535,535,535,535,535,535,535,535,535,535,535,535,535,535,535,535,535,535,531,519,510,493,481,470,441,426,413,399,385,355,341,319,307,298,291,279,273,267,261,247,240,226,214,202,176,160,144,126,107,70],"timestamp_mouse":[12,33,52,73,92,112,132,153,172,192,213,232,252,273,293,313,332,352,374,392,412,432,452,473,492,513,533,552,572,592,612,633,652,672,692,713,733,753,773,792,812,833,852,873,892,913,933,953,973,992,1012,1033,1052,1073,1092,1113,1132,1153,1173,1192,1212,1232,1253,1272,1293,1312,1332,1352,1372,1392,1412,1432,1453,1473,1493,1512,1532,1553,1573,1593,1612,1632,1652,1672,1692],"xSR":741.5,"ySR":469.95,"xT1":424.9,"yT1":0,"xT2":1058.1,"yT2":0,"toosoon":0,"cond_shown":"Incongruent","ratio_trial":200,"L_num":9,"L_den":15,"R_num":8,"R_den":10,"correct_side":2,"subjID":"marianarodriguez15","gender":"1","school":"4","age":"9"},{"start_time":1552327456141,"click_time":1552327458066,"finger_time":1552327457547,"fix_duration":852.2271568146498,"trial":18,"RT":1406,"MT":519,"sideResp":1,"stimulus":[],"xmouse":[803,800,800,798,798,797,796,796,795,795,795,795,795,795,795,795,795,795,795,795,795,795,795,793,791,790,790,790,790,790,790,790,790,790,790,790,790,790,790,790,790,790,790,790,790,790,790,790,790,790,790,790,790,790,790,790,790,790,790,790,790,790,790,790,790,789,788,786,784,782,779,761,749,732,705,648,626,608,594,580,570,557,556,555,555,555,555,555,555,555,554,551,548,544,539,535,524],"ymouse":[502,509,509,513,515,517,518,518,519,519,519,519,519,519,519,519,519,519,519,519,519,519,519,520,522,523,523,523,523,523,523,523,523,523,523,523,523,523,523,523,523,523,523,523,523,523,523,523,523,523,523,523,523,523,523,523,523,523,523,523,523,523,523,523,523,517,510,499,485,470,452,399,371,337,299,225,199,173,154,134,118,90,85,82,79,77,75,74,74,71,71,71,70,70,70,70,70],"timestamp_mouse":[5,42,45,66,85,105,126,145,165,186,206,226,245,266,285,305,326,346,365,386,406,426,447,466,485,505,525,545,565,585,605,626,645,665,686,706,725,745,766,785,805,825,845,865,885,906,926,945,965,985,1006,1026,1045,1065,1086,1105,1126,1146,1165,1186,1206,1226,1245,1266,1285,1307,1326,1346,1365,1385,1406,1425,1446,1465,1486,1506,1526,1546,1566,1586,1606,1626,1645,1665,1687,1705,1725,1745,1766,1785,1805,1825,1845,1866,1886,1905,1925],"xSR":741.5,"ySR":469.95,"xT1":424.9,"yT1":0,"xT2":1058.1,"yT2":0,"toosoon":0,"cond_shown":"Incongruent","ratio_trial":200,"L_num":4,"L_den":30,"R_num":1,"R_den":3,"correct_side":2,"subjID":"marianarodriguez15","gender":"1","school":"4","age":"9"},{"start_time":1552327460679,"click_time":1552327463047,"finger_time":1552327462266,"fix_duration":250,"trial":19,"RT":1587,"MT":781,"sideResp":2,"stimulus":[],"xmouse":[789,789,789,789,789,789,789,789,789,789,789,789,789,789,789,789,789,789,789,789,789,789,789,789,791,791,791,791,791,791,791,791,791,791,791,791,791,791,791,791,791,791,791,791,791,791,791,791,791,791,791,791,791,791,791,791,791,791,791,791,791,791,791,791,791,791,791,793,793,794,794,795,796,797,798,801,805,813,822,841,852,870,883,893,915,922,931,938,944,951,954,955,957,959,963,964,967,969,971,973,986,990,995,1000,1004,1010,1014,1016,1018,1022,1030,1036,1039,1041,1045,1047,1050,1054,1059],"ymouse":[541,541,541,541,541,541,541,541,541,541,541,541,541,541,541,541,541,541,541,541,541,541,541,541,540,540,540,540,540,540,539,539,539,539,539,539,539,539,539,539,539,539,539,539,539,539,539,539,539,539,539,539,539,539,539,539,539,539,539,539,539,539,539,539,539,539,539,538,536,536,533,531,529,528,524,517,508,495,478,434,401,339,297,249,182,160,141,126,118,108,106,104,102,100,97,96,96,96,95,95,93,92,91,90,88,82,79,76,72,67,59,53,51,49,48,48,48,48,48],"timestamp_mouse":[13,38,47,67,87,107,127,148,167,188,207,227,248,267,287,308,328,348,368,388,408,427,447,468,489,508,527,547,567,587,607,627,648,667,687,707,728,747,768,788,808,827,848,867,887,908,928,947,967,988,1008,1028,1048,1068,1087,1107,1128,1148,1167,1187,1208,1227,1247,1267,1287,1307,1328,1348,1368,1387,1408,1428,1448,1468,1487,1508,1528,1547,1568,1587,1608,1627,1648,1667,1688,1708,1728,1748,1768,1787,1807,1828,1847,1867,1887,1907,1927,1948,1968,1988,2007,2027,2047,2068,2087,2107,2127,2147,2167,2187,2207,2227,2247,2267,2288,2307,2327,2347,2367],"xSR":741.5,"ySR":469.95,"xT1":424.9,"yT1":0,"xT2":1058.1,"yT2":0,"toosoon":0,"cond_shown":"Congruent","ratio_trial":300,"L_num":5,"L_den":25,"R_num":6,"R_den":12,"correct_side":2,"subjID":"marianarodriguez15","gender":"1","school":"4","age":"9"},{"start_time":1552327465367,"click_time":1552327467187,"finger_time":1552327466406,"fix_duration":1100.9312970966052,"trial":20,"RT":1039,"MT":781,"sideResp":2,"stimulus":[],"xmouse":[793,793,793,793,793,793,793,793,793,793,793,793,793,793,793,793,793,793,793,793,793,793,793,793,793,793,793,793,795,796,800,801,802,802,802,802,802,802,802,802,802,802,802,802,802,802,802,806,808,816,838,853,870,895,920,1014,1051,1084,1109,1126,1144,1148,1151,1154,1161,1187,1198,1209,1217,1222,1225,1225,1224,1217,1209,1189,1189,1189,1189,1189,1189,1189,1189,1189,1189,1189,1189,1189,1189,1189,1151],"ymouse":[531,531,531,531,531,531,531,531,531,531,531,531,531,531,531,531,531,531,531,531,531,531,531,531,531,531,531,531,528,528,522,520,519,519,519,519,519,519,522,523,524,524,524,524,524,524,524,522,519,512,479,458,433,402,372,287,260,230,208,195,189,186,184,180,170,133,116,99,85,72,52,42,32,22,13,0,0,0,0,0,0,0,0,0,0,0,0,0,0,0,4],"timestamp_mouse":[20,40,60,80,100,120,139,160,180,199,219,239,259,279,299,320,339,360,379,400,420,441,459,480,500,520,540,560,580,600,620,640,660,680,700,719,740,759,779,799,820,839,859,880,900,919,939,960,980,999,1019,1039,1060,1079,1100,1119,1139,1159,1179,1199,1219,1239,1261,1279,1299,1320,1339,1359,1380,1401,1419,1439,1459,1479,1500,1519,1540,1560,1580,1600,1620,1639,1659,1679,1699,1720,1740,1759,1780,1800,1820],"xSR":741.5,"ySR":469.95,"xT1":424.9,"yT1":0,"xT2":1058.1,"yT2":0,"toosoon":0,"cond_shown":"Congruent","ratio_trial":200,"L_num":7,"L_den":15,"R_num":18,"R_den":27,"correct_side":2,"subjID":"marianarodriguez15","gender":"1","school":"4","age":"9"},{"start_time":1552327470907,"click_time":1552327473107,"finger_time":1552327472867,"fix_duration":278.16784504872805,"trial":21,"RT":1960,"MT":240,"sideResp":2,"stimulus":[],"xmouse":[772,772,769,769,769,769,769,769,769,769,769,769,769,769,769,768,768,767,767,767,767,767,767,767,767,767,767,767,766,765,765,763,762,761,759,758,757,755,755,755,755,755,755,755,755,755,755,754,753,750,748,746,743,743,742,742,742,742,742,742,742,744,746,748,754,758,761,763,765,767,768,769,769,769,769,771,771,772,772,772,772,772,772,772,772,772,772,772,773,774,779,781,785,788,796,803,811,818,826,844,855,869,883,896,912,952,971,992,1018,1054,1068],"ymouse":[512,512,512,512,512,512,512,512,512,512,512,512,512,512,512,512,512,512,512,512,512,512,512,512,512,512,512,512,512,512,512,512,513,515,520,522,524,528,529,529,529,529,529,529,530,533,535,538,541,547,549,552,555,557,559,560,560,560,560,561,561,561,561,560,556,552,548,544,542,538,537,535,535,535,535,534,534,533,533,533,533,533,533,533,533,533,533,533,533,533,530,527,524,519,506,498,485,473,460,432,417,398,378,359,337,277,247,215,179,111,81],"timestamp_mouse":[1,20,46,61,80,99,120,140,159,180,200,220,239,260,279,300,319,340,360,380,399,419,440,459,479,499,520,539,559,579,599,619,640,659,679,700,720,740,759,780,799,819,840,860,879,900,919,939,959,979,1000,1019,1040,1060,1079,1100,1120,1140,1160,1179,1199,1219,1240,1260,1279,1300,1319,1339,1359,1379,1400,1419,1440,1459,1479,1500,1520,1539,1560,1579,1600,1619,1640,1660,1680,1700,1719,1741,1759,1779,1800,1819,1839,1859,1880,1900,1920,1939,1960,1981,1999,2020,2040,2059,2079,2099,2119,2139,2159,2180,2200],"xSR":741.5,"ySR":469.95,"xT1":424.9,"yT1":0,"xT2":1058.1,"yT2":0,"toosoon":0,"cond_shown":"Congruent","ratio_trial":100,"L_num":12,"L_den":30,"R_num":13,"R_den":26,"correct_side":2,"subjID":"marianarodriguez15","gender":"1","school":"4","age":"9"},{"start_time":1552327480881,"click_time":1552327482108,"finger_time":1552327480946,"fix_duration":1493.4198676593717,"trial":22,"RT":65,"MT":1162,"sideResp":1,"stimulus":[],"xmouse":[781,782,785,788,790,791,791,791,791,791,791,792,792,793,794,794,794,794,794,794,794,794,794,794,794,794,794,794,794,792,787,781,765,752,744,736,726,720,714,707,699,688,660,652,645,639,632,625,615,603,593,587,572,565,559,554,549,542,539,537,532,521],"ymouse":[473,473,471,468,466,465,465,464,464,464,462,458,456,455,454,454,453,453,453,453,453,453,453,453,453,453,451,445,436,426,413,399,371,353,341,328,297,278,257,234,207,173,86,58,40,32,28,28,27,26,24,23,22,22,22,22,22,22,22,22,22,22],"timestamp_mouse":[13,37,45,65,85,105,125,145,166,186,206,227,245,266,285,305,326,346,365,385,405,425,445,465,485,505,526,545,565,585,605,626,646,666,685,705,726,745,765,785,806,826,846,866,886,906,926,946,965,985,1005,1025,1045,1065,1086,1106,1126,1146,1166,1186,1205,1226],"xSR":741.5,"ySR":469.95,"xT1":424.9,"yT1":0,"xT2":1058.1,"yT2":0,"toosoon":0,"cond_shown":"Congruent","ratio_trial":300,"L_num":20,"L_den":25,"R_num":13,"R_den":26,"correct_side":1,"subjID":"marianarodriguez15","gender":"1","school":"4","age":"9"},{"start_time":1552327486078,"click_time":1552327488246,"finger_time":1552327487525,"fix_duration":250,"trial":23,"RT":1447,"MT":721,"sideResp":1,"stimulus":[],"xmouse":[764,764,764,764,764,764,764,764,764,764,764,764,764,764,764,764,764,764,764,764,764,764,764,764,764,764,764,764,764,764,764,764,764,764,764,764,764,764,764,764,764,764,764,764,764,767,769,777,784,786,789,789,790,790,790,790,790,790,790,790,790,790,790,790,790,790,788,785,783,780,775,768,759,744,735,727,719,702,694,687,686,681,678,676,675,673,671,667,665,664,662,660,654,651,648,646,644,638,635,629,621,616,607,601,593,584,570,535,512],"ymouse":[525,525,525,525,525,525,525,525,525,525,525,525,525,525,525,525,525,525,525,525,525,525,525,525,525,525,525,525,525,525,525,525,525,525,525,525,525,525,525,525,525,525,525,525,525,524,522,517,510,508,503,502,501,501,501,501,501,501,501,501,501,501,501,501,501,500,499,498,496,493,487,479,469,445,430,417,401,371,356,339,333,316,296,285,274,264,253,236,226,224,216,211,202,198,193,190,186,175,170,163,150,142,127,119,113,107,100,86,77],"timestamp_mouse":[20,28,48,68,88,109,128,148,168,189,208,227,249,268,288,308,329,348,369,388,409,428,449,469,489,509,528,549,569,589,608,629,649,668,689,708,729,749,768,789,809,828,848,869,889,909,929,948,968,988,1008,1029,1048,1068,1088,1109,1129,1148,1168,1189,1209,1229,1248,1269,1289,1308,1329,1348,1368,1389,1408,1429,1447,1468,1488,1509,1528,1549,1568,1588,1608,1630,1648,1668,1690,1709,1728,1748,1768,1789,1808,1827,1848,1868,1888,1909,1928,1948,1968,1988,2008,2028,2049,2068,2089,2109,2128,2149,2167],"xSR":741.5,"ySR":469.95,"xT1":424.9,"yT1":0,"xT2":1058.1,"yT2":0,"toosoon":0,"cond_shown":"Congruent","ratio_trial":200,"L_num":3,"L_den":10,"R_num":11,"R_den":22,"correct_side":2,"subjID":"marianarodriguez15","gender":"1","school":"4","age":"9"},{"start_time":1552327490132,"click_time":1552327492146,"finger_time":1552327491686,"fix_duration":425.4055594629148,"trial":24,"RT":1554,"MT":460,"sideResp":2,"stimulus":[],"xmouse":[801,801,801,801,801,801,801,801,801,801,801,801,801,801,801,801,801,801,801,801,801,801,801,801,801,801,801,801,801,801,801,801,801,801,801,801,801,801,801,801,801,801,801,801,801,801,801,801,801,801,801,801,801,801,801,801,801,801,801,801,801,801,801,801,801,801,801,801,801,803,806,809,812,816,819,825,833,844,857,871,906,935,967,1004,1040,1099,1105,1109,1110,1110,1111,1111,1111,1111,1111,1111,1111,1112,1112,1113,1116],"ymouse":[511,511,511,511,511,511,511,511,511,511,511,511,511,511,511,511,511,511,511,511,511,511,511,511,511,511,511,511,511,511,511,511,512,512,512,512,512,512,512,512,512,512,512,512,512,512,512,512,512,512,512,512,512,512,512,512,512,512,512,512,512,512,512,512,512,512,512,512,512,512,512,510,507,505,502,496,489,478,465,453,423,398,370,327,278,171,150,136,129,126,123,121,119,118,115,113,112,111,109,106,93],"timestamp_mouse":[14,42,54,75,94,114,134,154,174,194,214,235,254,274,294,314,335,355,375,395,415,434,454,475,495,515,534,555,575,594,614,635,655,675,694,715,735,755,774,795,815,835,855,875,895,914,935,953,975,995,1014,1035,1054,1075,1095,1115,1134,1155,1175,1194,1215,1235,1255,1274,1294,1314,1334,1355,1373,1394,1415,1435,1454,1475,1495,1514,1535,1554,1575,1594,1614,1635,1655,1674,1694,1713,1735,1754,1775,1794,1815,1834,1854,1874,1894,1914,1935,1954,1974,1994,2014],"xSR":741.5,"ySR":469.95,"xT1":424.9,"yT1":0,"xT2":1058.1,"yT2":0,"toosoon":0,"cond_shown":"Congruent","ratio_trial":200,"L_num":13,"L_den":26,"R_num":14,"R_den":20,"correct_side":2,"subjID":"marianarodriguez15","gender":"1","school":"4","age":"9"},{"start_time":1552327494601,"click_time":1552327497447,"finger_time":1552327496206,"fix_duration":1093.2780184738322,"trial":25,"RT":1605,"MT":1241,"sideResp":1,"stimulus":[],"xmouse":[763,763,763,763,763,763,763,763,763,763,763,763,763,763,763,763,763,763,763,763,763,763,760,759,758,758,757,757,757,757,757,757,757,756,756,756,756,756,756,756,756,756,756,756,756,756,756,756,756,756,756,756,756,756,756,756,756,756,756,756,756,756,755,752,751,751,751,751,751,751,751,751,751,752,752,752,752,753,753,745,730,721,709,674,650,621,572,572,572,572,572,572,572,572,572,572,572,572,572,572,572,572,572,572,572,572,572,572,572,572,572,282,153,143,142,152,175,224,250,260,263,265,269,272,275,278,281,286,291,304,316,328,348,362,379,397,408,411,411,411,413,417,431],"ymouse":[485,485,485,485,485,485,485,485,485,485,485,485,485,485,485,485,485,485,485,485,485,486,489,491,492,493,494,494,494,494,494,494,494,494,495,495,495,495,495,495,495,495,495,495,495,495,495,495,495,495,495,495,495,495,495,495,495,495,495,495,496,497,502,511,515,515,515,515,515,515,515,515,513,510,508,506,505,499,492,480,456,434,398,276,202,122,3,3,3,3,3,3,3,3,3,3,3,3,3,3,3,3,3,3,3,3,3,3,3,3,3,23,62,68,69,69,69,69,66,63,63,63,63,63,63,63,63,63,63,63,63,63,63,63,64,64,64,64,64,64,64,64,62],"timestamp_mouse":[10,25,45,65,86,104,126,145,166,185,206,225,246,265,286,306,325,345,366,385,406,425,445,466,485,506,525,545,566,586,605,626,645,666,685,706,726,746,766,786,806,825,845,865,885,906,926,945,966,986,1006,1025,1045,1065,1086,1105,1125,1146,1166,1185,1205,1226,1245,1265,1285,1305,1325,1345,1365,1385,1406,1425,1445,1466,1485,1506,1525,1545,1565,1585,1605,1626,1645,1666,1686,1706,1725,1746,1765,1785,1805,1826,1845,1865,1885,1906,1926,1945,1965,1985,2006,2025,2046,2065,2086,2105,2126,2145,2165,2186,2204,2226,2246,2265,2285,2305,2325,2346,2365,2385,2405,2425,2445,2466,2485,2506,2526,2546,2566,2585,2605,2626,2645,2665,2685,2706,2726,2745,2766,2785,2805,2826,2846],"xSR":741.5,"ySR":469.95,"xT1":424.9,"yT1":0,"xT2":1058.1,"yT2":0,"toosoon":0,"cond_shown":"Congruent","ratio_trial":300,"L_num":20,"L_den":25,"R_num":9,"R_den":18,"correct_side":1,"subjID":"marianarodriguez15","gender":"1","school":"4","age":"9"},{"start_time":1552327505204,"click_time":1552327506786,"finger_time":1552327506627,"fix_duration":1257.2621297036785,"trial":26,"RT":1423,"MT":159,"sideResp":2,"stimulus":[],"xmouse":[791,791,791,791,790,790,789,789,789,789,789,789,789,789,789,789,789,789,789,789,789,789,789,789,789,789,789,789,789,789,789,789,789,789,789,789,789,789,789,789,789,789,789,789,789,789,789,789,789,789,789,789,789,789,789,789,789,789,789,789,789,789,789,789,789,789,789,790,799,812,833,859,888,948,970,993,1018,1029,1049,1060],"ymouse":[557,557,557,557,558,558,559,559,559,559,559,559,559,559,559,559,559,559,559,559,559,559,559,559,559,559,559,559,559,559,559,559,559,559,559,559,559,559,559,559,559,559,559,559,559,559,559,559,559,559,559,559,559,559,559,559,559,559,559,559,559,559,559,559,559,559,559,559,539,516,479,425,365,235,174,120,64,39,12,2],"timestamp_mouse":[10,22,43,63,83,102,122,143,162,183,202,223,242,263,282,302,323,343,362,383,403,423,442,462,482,503,522,543,563,583,603,622,643,663,683,702,722,742,761,783,801,821,843,863,883,902,922,942,963,982,1002,1023,1042,1063,1082,1102,1123,1142,1163,1183,1202,1223,1242,1262,1282,1302,1322,1343,1362,1382,1403,1423,1443,1462,1482,1501,1522,1543,1562,1582],"xSR":741.5,"ySR":469.95,"xT1":424.9,"yT1":0,"xT2":1058.1,"yT2":0,"toosoon":0,"cond_shown":"Incongruent","ratio_trial":300,"L_num":4,"L_den":5,"R_num":8,"R_den":16,"correct_side":1,"subjID":"marianarodriguez15","gender":"1","school":"4","age":"9"},{"start_time":1552327510797,"click_time":1552327512686,"finger_time":1552327512086,"fix_duration":250,"trial":27,"RT":1289,"MT":600,"sideResp":2,"stimulus":[],"xmouse":[815,813,812,810,808,806,805,804,804,804,804,804,804,804,804,804,804,804,804,804,804,804,804,804,804,804,804,804,804,804,804,804,804,804,804,804,804,804,804,804,804,804,804,804,804,804,804,804,804,804,804,804,804,805,806,808,809,811,814,817,822,823,831,843,852,861,872,885,910,925,940,957,967,982,987,990,992,992,992,992,993,997,1002,1011,1017,1023,1027,1031,1035,1046,1052,1063,1073,1090],"ymouse":[502,502,501,501,501,501,501,501,501,501,501,501,501,501,501,501,501,501,501,501,501,501,501,501,501,501,501,501,501,501,501,501,501,501,501,501,501,501,501,501,501,501,501,501,501,501,501,501,501,501,501,501,501,500,500,499,498,497,493,489,483,480,471,454,442,429,413,395,353,323,294,255,232,197,185,179,174,173,172,172,172,172,172,168,166,163,160,157,154,145,138,126,112,81],"timestamp_mouse":[22,51,70,89,109,129,150,169,190,210,230,250,270,290,309,330,350,370,390,410,430,449,469,490,510,529,549,569,590,609,629,650,669,689,709,729,749,769,789,809,829,849,869,889,909,929,950,969,990,1010,1030,1049,1069,1090,1110,1129,1149,1169,1189,1209,1230,1250,1269,1289,1310,1329,1350,1369,1389,1409,1429,1449,1470,1489,1508,1529,1549,1570,1589,1610,1630,1650,1670,1690,1709,1730,1750,1770,1789,1810,1830,1849,1870,1889],"xSR":741.5,"ySR":469.95,"xT1":424.9,"yT1":0,"xT2":1058.1,"yT2":0,"toosoon":0,"cond_shown":"Congruent","ratio_trial":200,"L_num":3,"L_den":12,"R_num":9,"R_den":20,"correct_side":2,"subjID":"marianarodriguez15","gender":"1","school":"4","age":"9"},{"start_time":1552327516384,"click_time":1552327519086,"finger_time":1552327517427,"fix_duration":1154.4589202655616,"trial":28,"RT":1043,"MT":1659,"sideResp":1,"stimulus":[],"xmouse":[767,767,767,767,767,767,767,767,767,767,767,767,767,767,767,767,767,767,767,767,767,767,767,767,767,767,767,767,767,767,767,767,767,767,767,767,767,767,767,767,767,767,767,767,767,767,767,767,767,767,767,769,773,775,778,779,780,780,780,780,780,780,780,780,780,780,775,766,747,704,591,357,233,178,178,178,178,178,178,178,178,178,178,178,178,178,178,178,178,178,178,178,178,178,104,138,180,189,193,196,198,201,203,206,212,234,251,271,288,302,309,313,314,315,319,325,340,343,344,345,346,351,355,358,361,365,372,378,385,387,394,404,410,416,422,429],"ymouse":[475,475,475,475,475,475,475,475,475,475,475,475,475,475,475,475,475,475,475,475,475,475,475,475,475,475,475,475,475,475,475,475,475,475,475,475,475,475,475,475,475,475,475,475,475,475,475,475,475,475,475,470,461,451,442,435,426,423,423,422,422,422,422,422,422,420,413,402,388,357,281,134,53,8,8,8,8,8,8,8,8,8,8,8,8,8,8,8,8,8,8,8,8,8,7,32,73,88,100,108,112,112,112,112,112,109,101,91,83,75,70,68,68,68,68,68,72,73,73,74,74,74,75,75,76,77,77,77,77,77,77,77,77,77,77,77],"timestamp_mouse":[12,34,43,62,83,102,122,143,163,183,202,222,242,263,283,302,323,343,362,383,403,422,443,462,483,503,522,543,563,582,602,622,642,663,682,702,722,743,762,783,802,823,843,862,883,902,923,943,963,982,1002,1022,1043,1062,1083,1103,1122,1142,1162,1182,1203,1222,1243,1262,1282,1301,1322,1342,1362,1382,1402,1422,1442,1463,1482,1503,1522,1543,1562,1582,1602,1622,1643,1662,1683,1702,1722,1742,1763,1783,1802,1822,1842,1863,1882,1902,1923,1942,1962,1983,2003,2022,2042,2063,2082,2104,2123,2143,2163,2182,2203,2223,2243,2262,2282,2302,2322,2342,2362,2382,2401,2422,2442,2462,2483,2503,2522,2542,2563,2583,2602,2622,2643,2663,2683,2702],"xSR":741.5,"ySR":469.95,"xT1":424.9,"yT1":0,"xT2":1058.1,"yT2":0,"toosoon":0,"cond_shown":"Incongruent","ratio_trial":100,"L_num":12,"L_den":30,"R_num":2,"R_den":4,"correct_side":2,"subjID":"marianarodriguez15","gender":"1","school":"4","age":"9"},{"start_time":1552327522756,"click_time":1552327524746,"finger_time":1552327524147,"fix_duration":367.4928218627745,"trial":29,"RT":1391,"MT":599,"sideResp":1,"stimulus":[],"xmouse":[806,806,806,806,806,806,806,806,806,806,806,806,806,806,806,806,806,806,806,806,806,806,806,806,806,806,806,806,806,806,806,806,806,806,806,806,806,806,806,806,806,806,806,806,806,806,806,806,806,806,806,806,806,806,806,806,806,806,806,806,806,806,806,806,805,802,795,788,770,754,739,723,679,662,654,651,651,648,646,646,646,646,646,641,637,630,621,605,590,577,561,544,513,501,491,485,483,482,482,481],"ymouse":[507,507,507,507,507,507,507,507,507,507,507,507,507,507,507,507,507,507,507,507,507,507,507,507,507,507,507,507,507,507,507,507,507,507,507,507,507,507,507,507,507,507,507,507,507,507,507,507,507,507,507,507,507,507,507,507,507,507,507,507,507,507,507,507,507,505,498,491,474,459,445,427,359,314,271,234,205,171,167,167,167,167,166,165,162,158,153,143,137,135,132,128,121,118,114,110,109,107,102,96],"timestamp_mouse":[12,36,50,70,91,111,131,149,170,190,211,230,250,271,290,311,330,350,370,390,410,430,450,470,490,510,530,550,570,590,610,630,650,670,690,710,730,751,770,790,810,832,850,871,891,911,931,950,971,991,1012,1030,1050,1070,1091,1111,1130,1150,1170,1190,1210,1231,1250,1271,1291,1310,1330,1350,1370,1391,1410,1431,1451,1470,1490,1509,1531,1551,1570,1590,1611,1630,1651,1670,1690,1710,1731,1752,1770,1790,1810,1830,1851,1869,1890,1911,1931,1952,1969,1990],"xSR":741.5,"ySR":469.95,"xT1":424.9,"yT1":0,"xT2":1058.1,"yT2":0,"toosoon":0,"cond_shown":"Incongruent","ratio_trial":300,"L_num":3,"L_den":6,"R_num":4,"R_den":20,"correct_side":1,"subjID":"marianarodriguez15","gender":"1","school":"4","age":"9"},{"start_time":1552327527347,"click_time":1552327529307,"finger_time":1552327528946,"fix_duration":1039.661280912937,"trial":30,"RT":1599,"MT":361,"sideResp":1,"stimulus":[],"xmouse":[824,824,824,824,824,824,824,823,823,822,822,821,821,819,819,818,818,818,818,818,817,817,817,816,814,814,813,813,813,813,813,813,813,813,813,813,813,813,813,813,813,813,813,813,813,813,813,813,813,813,813,813,813,813,813,813,813,813,813,813,813,813,813,813,813,813,813,813,813,813,813,813,813,813,813,813,812,808,776,754,731,707,682,634,614,590,551,529,482,465,453,445,443,441,441,441,441,441],"ymouse":[484,484,486,487,488,489,490,491,492,494,495,496,498,501,503,504,505,505,506,506,508,508,509,511,514,516,517,517,517,518,518,518,518,518,518,518,518,518,518,518,518,518,518,518,518,518,518,518,518,518,518,518,518,518,518,518,518,518,518,518,518,518,518,518,518,518,518,518,518,518,518,518,518,518,518,518,518,514,483,461,441,420,402,361,342,322,286,262,197,168,141,124,115,109,106,104,100,94],"timestamp_mouse":[33,39,59,79,99,119,139,160,179,200,219,240,260,279,300,320,339,360,380,400,420,439,460,479,499,520,539,560,579,599,619,639,659,679,699,719,740,759,779,799,820,840,860,879,900,919,940,959,979,1000,1019,1040,1060,1080,1098,1119,1140,1160,1180,1199,1219,1239,1259,1279,1300,1319,1339,1359,1380,1399,1419,1439,1460,1479,1500,1520,1539,1561,1579,1599,1619,1639,1659,1680,1700,1720,1739,1760,1779,1800,1819,1839,1860,1879,1899,1919,1939,1960],"xSR":741.5,"ySR":469.95,"xT1":424.9,"yT1":0,"xT2":1058.1,"yT2":0,"toosoon":0,"cond_shown":"Incongruent","ratio_trial":200,"L_num":4,"L_den":5,"R_num":6,"R_den":10,"correct_side":1,"subjID":"marianarodriguez15","gender":"1","school":"4","age":"9"},{"start_time":1552327532303,"click_time":1552327534966,"finger_time":1552327533207,"fix_duration":976.2679626882043,"trial":31,"RT":904,"MT":1759,"sideResp":1,"stimulus":[],"xmouse":[808,805,805,804,803,803,803,803,803,803,803,803,803,803,803,803,803,803,803,803,803,803,803,803,803,803,803,803,803,803,803,803,803,802,801,801,797,792,790,788,784,779,759,749,742,736,732,729,729,729,729,729,729,729,729,729,729,729,729,729,729,729,729,729,729,729,729,729,729,729,727,725,723,721,716,710,707,706,706,706,706,706,705,704,702,697,674,642,614,588,559,536,494,474,456,442,423,420,417,417,417,417,417,417,417,417,417,417,420,433,452,464,493,501,504,504,505,505,505,505,505,505,505,505,505,505,505,505,505,505,505,502,493,491],"ymouse":[528,531,532,533,534,534,534,534,535,535,535,535,535,535,535,535,535,535,535,535,535,535,535,535,535,535,535,535,535,535,535,535,535,533,528,516,492,482,479,477,476,475,477,477,476,472,467,464,464,464,464,464,464,464,464,464,464,464,464,464,464,464,464,464,464,464,464,464,464,464,463,462,462,462,462,464,465,465,465,465,465,465,466,466,466,464,435,391,354,322,287,256,214,195,178,164,143,138,134,134,134,134,134,134,134,134,134,134,133,133,133,131,125,121,118,118,117,117,117,117,117,117,117,117,117,117,117,117,117,117,115,110,100,98],"timestamp_mouse":[4,31,48,62,84,104,123,143,163,183,204,224,243,263,283,304,323,343,364,383,404,423,444,464,484,503,523,544,563,584,604,624,644,664,684,703,724,744,763,783,803,823,844,863,884,904,924,943,963,983,1003,1024,1044,1064,1083,1103,1124,1143,1163,1184,1203,1224,1243,1264,1284,1304,1324,1343,1364,1384,1403,1424,1443,1463,1484,1503,1523,1544,1563,1583,1603,1624,1643,1663,1684,1703,1725,1743,1764,1784,1804,1824,1843,1864,1883,1903,1925,1943,1964,1983,2004,2023,2043,2064,2084,2104,2123,2143,2163,2183,2203,2223,2243,2263,2283,2304,2324,2343,2364,2384,2404,2424,2443,2464,2484,2504,2523,2542,2563,2584,2604,2624,2643,2663],"xSR":741.5,"ySR":469.95,"xT1":424.9,"yT1":0,"xT2":1058.1,"yT2":0,"toosoon":0,"cond_shown":"Congruent","ratio_trial":100,"L_num":10,"L_den":25,"R_num":3,"R_den":10,"correct_side":1,"subjID":"marianarodriguez15","gender":"1","school":"4","age":"9"},{"start_time":1552327539555,"click_time":1552327541506,"finger_time":1552327540206,"fix_duration":1366.8919721468828,"trial":32,"RT":651,"MT":1300,"sideResp":1,"stimulus":[],"xmouse":[819,819,819,819,819,819,819,819,819,819,819,819,819,819,819,819,819,819,819,819,819,819,819,819,819,819,819,819,819,819,816,811,806,802,797,797,796,795,793,793,790,785,782,777,766,759,751,740,729,704,687,662,644,627,592,570,546,524,501,457,433,421,413,409,406,406,406,406,406,406,406,406,406,406,406,406,406,406,406,406,406,406,406,406,406,406,406,406,406,408,408,408,408,408,413,418,423,428],"ymouse":[516,516,516,516,516,516,516,516,516,516,516,516,516,516,516,516,516,516,516,516,516,516,516,516,516,516,516,515,512,499,489,475,467,458,448,444,439,434,427,418,398,382,375,364,339,326,314,303,292,279,273,262,255,247,233,223,213,203,192,169,153,142,130,116,81,62,41,22,6,6,6,6,6,6,6,6,6,6,6,6,6,6,6,6,6,6,6,6,6,1,5,9,13,16,23,26,27,30],"timestamp_mouse":[13,38,52,70,91,111,132,151,172,191,211,231,251,272,291,311,332,352,371,392,412,432,452,471,491,511,532,551,572,591,611,632,651,672,692,712,732,751,772,791,811,831,852,871,892,911,931,952,972,991,1011,1031,1051,1071,1091,1111,1132,1152,1171,1192,1211,1231,1251,1271,1291,1311,1331,1351,1371,1391,1413,1432,1451,1471,1492,1511,1531,1552,1571,1592,1611,1631,1651,1672,1691,1712,1731,1751,1772,1791,1812,1832,1851,1872,1892,1911,1931,1951],"xSR":741.5,"ySR":469.95,"xT1":424.9,"yT1":0,"xT2":1058.1,"yT2":0,"toosoon":0,"cond_shown":"Incongruent","ratio_trial":100,"L_num":17,"L_den":30,"R_num":10,"R_den":15,"correct_side":2,"subjID":"marianarodriguez15","gender":"1","school":"4","age":"9"},{"start_time":1552327545681,"click_time":1552327548166,"finger_time":1552327547686,"fix_duration":1094.340722053822,"trial":33,"RT":2005,"MT":480,"sideResp":2,"stimulus":[],"xmouse":[829,829,829,829,829,829,829,829,829,829,829,829,829,829,829,829,829,829,829,829,829,829,829,829,829,829,829,829,829,829,829,829,829,829,829,829,829,829,829,829,829,829,829,829,829,829,829,829,829,829,829,829,829,829,829,829,829,829,829,829,829,829,829,829,829,829,829,829,829,829,829,829,829,829,829,829,829,831,834,838,839,839,839,839,839,839,839,839,839,839,839,839,839,839,839,839,839,839,839,839,855,866,870,870,869,869,869,869,876,889,896,897,902,906,916,925,940,957,978,1006,1012,1020,1025,1034,1061],"ymouse":[523,523,523,523,523,523,523,523,523,523,523,523,523,523,523,523,523,523,523,523,523,523,523,523,523,523,523,523,523,523,523,523,523,523,523,523,523,523,523,523,523,523,523,523,523,523,523,523,523,523,523,523,523,523,523,523,523,523,523,523,523,523,523,523,523,523,523,523,523,523,523,523,523,523,523,523,523,518,511,493,491,491,491,491,491,491,491,491,491,491,491,491,491,491,491,491,491,491,491,491,488,491,497,508,519,519,519,519,502,466,444,438,416,402,370,348,318,278,227,151,125,94,76,59,26],"timestamp_mouse":[13,35,45,65,86,105,125,146,166,185,206,225,245,265,286,305,325,345,366,385,405,426,444,465,486,504,526,544,565,586,605,624,646,665,686,705,726,746,766,784,805,825,845,866,886,904,925,945,965,985,1005,1025,1044,1066,1086,1106,1125,1145,1165,1186,1205,1225,1245,1265,1285,1305,1325,1345,1365,1386,1406,1425,1445,1466,1486,1506,1526,1545,1565,1585,1606,1625,1646,1665,1685,1705,1725,1745,1766,1786,1804,1825,1845,1865,1885,1906,1925,1946,1965,1985,2005,2026,2046,2066,2085,2105,2125,2146,2165,2185,2205,2225,2245,2265,2285,2305,2325,2345,2366,2385,2406,2426,2446,2465,2485],"xSR":741.5,"ySR":469.95,"xT1":424.9,"yT1":0,"xT2":1058.1,"yT2":0,"toosoon":0,"cond_shown":"Incongruent","ratio_trial":300,"L_num":13,"L_den":26,"R_num":12,"R_den":15,"correct_side":2,"subjID":"marianarodriguez15","gender":"1","school":"4","age":"9"},{"start_time":1552327551111,"click_time":1552327553586,"finger_time":1552327552687,"fix_duration":1383.068365072497,"trial":34,"RT":1576,"MT":899,"sideResp":2,"stimulus":[],"xmouse":[793,793,793,793,793,793,793,793,793,793,793,793,793,793,793,793,793,793,793,793,793,793,793,793,793,793,793,793,793,793,793,793,793,793,793,793,793,793,793,793,793,793,793,793,793,792,792,785,777,776,776,775,775,775,775,775,775,775,775,775,775,775,775,775,775,775,775,775,775,775,775,775,778,780,781,785,799,804,837,849,859,869,879,896,906,912,920,929,957,971,984,999,1025,1035,1043,1051,1054,1057,1057,1057,1057,1057,1057,1057,1057,1057,1057,1057,1059,1060,1060,1060,1061,1061,1061,1061,1061,1061,1062,1063,1063,1064,1065,1068],"ymouse":[554,554,554,553,550,548,547,545,545,545,545,545,545,545,545,545,545,545,545,545,545,545,545,545,545,545,545,545,545,545,545,545,545,545,545,545,545,545,545,545,545,545,545,545,545,544,541,531,518,516,516,515,515,515,515,515,515,515,515,515,515,515,515,515,515,515,515,515,515,515,515,515,515,515,514,511,500,496,467,455,440,424,407,372,355,336,315,297,255,235,215,193,155,142,130,122,116,112,112,112,112,112,112,112,112,112,112,112,109,108,107,107,106,106,106,106,106,106,104,104,103,103,100,97],"timestamp_mouse":[21,37,56,75,95,115,136,156,175,195,216,236,255,274,296,315,335,356,374,395,414,436,455,476,495,515,536,556,574,595,616,634,656,675,696,715,734,756,775,796,815,834,856,876,896,914,935,956,976,996,1017,1036,1056,1076,1095,1114,1136,1156,1175,1196,1215,1234,1256,1275,1296,1315,1336,1356,1376,1395,1416,1436,1456,1474,1495,1514,1535,1555,1576,1595,1615,1635,1655,1675,1695,1715,1736,1756,1775,1795,1815,1836,1857,1875,1895,1915,1936,1954,1975,1995,2014,2035,2056,2076,2096,2115,2135,2155,2175,2196,2215,2234,2255,2275,2296,2316,2335,2356,2375,2396,2415,2435,2455,2475],"xSR":741.5,"ySR":469.95,"xT1":424.9,"yT1":0,"xT2":1058.1,"yT2":0,"toosoon":0,"cond_shown":"Incongruent","ratio_trial":100,"L_num":3,"L_den":5,"R_num":8,"R_den":16,"correct_side":1,"subjID":"marianarodriguez15","gender":"1","school":"4","age":"9"},{"start_time":1552327555939,"click_time":1552327557686,"finger_time":1552327557286,"fix_duration":250,"trial":35,"RT":1347,"MT":400,"sideResp":2,"stimulus":[],"xmouse":[794,794,794,794,794,794,794,794,794,794,794,794,794,794,794,794,794,794,794,794,794,794,794,794,794,794,794,794,794,794,794,794,794,794,794,794,794,794,794,794,794,794,794,794,794,794,794,794,794,794,794,794,794,794,794,794,794,794,795,796,798,799,802,804,806,810,813,822,828,833,841,851,864,907,943,972,996,1039,1058,1076,1086,1098,1108,1127,1134,1139,1142,1145],"ymouse":[534,534,534,534,534,534,534,534,534,534,534,534,534,534,534,534,534,534,534,534,534,534,534,534,534,534,534,534,534,534,534,534,534,534,534,534,534,534,534,534,534,534,534,534,534,534,534,534,534,534,534,534,534,534,534,534,534,530,526,522,516,510,501,495,490,480,474,458,450,441,432,420,407,377,355,338,321,285,263,242,221,200,179,135,121,112,103,95],"timestamp_mouse":[10,27,47,67,87,107,126,147,167,188,208,228,247,268,287,307,328,347,367,386,408,427,448,466,488,508,527,546,568,587,607,627,648,667,687,707,728,747,768,787,808,828,847,866,887,907,928,948,968,987,1007,1027,1047,1068,1088,1108,1127,1147,1167,1187,1207,1228,1246,1267,1288,1308,1327,1347,1367,1387,1407,1428,1448,1467,1488,1507,1527,1547,1567,1587,1608,1627,1647,1667,1687,1707,1727,1746],"xSR":741.5,"ySR":469.95,"xT1":424.9,"yT1":0,"xT2":1058.1,"yT2":0,"toosoon":0,"cond_shown":"Congruent","ratio_trial":200,"L_num":3,"L_den":10,"R_num":7,"R_den":14,"correct_side":2,"subjID":"marianarodriguez15","gender":"1","school":"4","age":"9"},{"start_time":1552327561840,"click_time":1552327563786,"finger_time":1552327562806,"fix_duration":250,"trial":36,"RT":966,"MT":980,"sideResp":1,"stimulus":[],"xmouse":[787,787,787,787,787,787,787,787,787,787,787,787,787,787,787,787,787,787,787,787,787,787,787,787,787,787,787,787,787,787,787,787,787,787,787,787,787,787,787,787,787,787,787,787,787,787,786,785,773,761,748,737,729,722,720,718,717,715,712,710,704,697,686,660,645,627,624,608,581,563,540,507,464,379,360,356,355,355,355,353,352,352,352,352,352,352,357,360,365,367,369,371,372,386,398,412,423,432],"ymouse":[504,504,504,504,504,504,504,504,504,504,504,504,504,504,504,504,504,504,504,504,504,504,504,504,504,504,504,504,504,504,504,504,504,504,504,504,504,504,504,504,504,504,504,504,504,504,495,488,447,430,413,397,385,363,354,345,334,319,296,281,262,244,224,191,177,163,160,150,140,134,131,126,120,109,106,106,106,106,100,94,91,90,89,87,85,84,83,82,82,82,82,82,82,79,79,78,76,74],"timestamp_mouse":[13,36,47,66,87,107,126,146,165,186,206,226,247,266,287,306,327,347,367,386,406,426,446,467,487,505,526,545,567,586,607,626,646,667,687,707,727,747,767,786,806,827,847,866,887,906,927,947,966,986,1005,1025,1046,1066,1086,1107,1127,1146,1166,1187,1206,1226,1247,1265,1287,1306,1327,1346,1366,1386,1407,1427,1447,1466,1485,1507,1525,1545,1566,1586,1607,1626,1646,1667,1685,1707,1727,1746,1766,1786,1806,1826,1846,1866,1887,1907,1926,1946],"xSR":741.5,"ySR":469.95,"xT1":424.9,"yT1":0,"xT2":1058.1,"yT2":0,"toosoon":0,"cond_shown":"Congruent","ratio_trial":300,"L_num":9,"L_den":10,"R_num":3,"R_den":5,"correct_side":1,"subjID":"marianarodriguez15","gender":"1","school":"4","age":"9"},{"start_time":1552327566015,"click_time":1552327567626,"finger_time":1552327566847,"fix_duration":746.647998879214,"trial":37,"RT":832,"MT":779,"sideResp":2,"stimulus":[],"xmouse":[797,797,797,797,797,797,797,797,797,797,797,797,797,797,797,797,797,798,798,797,796,796,796,796,795,794,793,793,792,790,790,790,790,790,790,790,790,790,790,790,790,790,790,794,806,823,836,851,877,948,977,995,1007,1012,1015,1015,1015,1016,1016,1016,1017,1017,1017,1017,1017,1017,1017,1017,1017,1017,1018,1020,1023,1026,1034,1039,1042,1045,1049,1058,1063],"ymouse":[505,505,505,505,505,505,505,505,505,505,505,505,505,505,505,505,505,504,503,500,499,498,497,497,496,494,490,486,480,473,470,470,470,470,470,470,470,470,470,470,470,467,464,457,432,408,390,372,344,271,230,200,176,159,130,119,114,110,109,106,105,105,105,105,105,105,105,105,105,105,103,102,99,96,88,82,79,76,73,70,70],"timestamp_mouse":[10,33,51,72,91,111,131,150,172,192,211,232,251,271,292,311,331,350,371,391,411,432,451,472,491,511,531,551,571,590,612,631,651,670,690,712,731,752,771,791,811,832,852,872,892,910,931,951,971,992,1012,1031,1051,1071,1092,1112,1131,1151,1171,1191,1211,1232,1251,1271,1292,1311,1331,1352,1371,1392,1411,1431,1452,1472,1491,1511,1531,1551,1571,1591,1611],"xSR":741.5,"ySR":469.95,"xT1":424.9,"yT1":0,"xT2":1058.1,"yT2":0,"toosoon":0,"cond_shown":"Incongruent","ratio_trial":100,"L_num":12,"L_den":30,"R_num":2,"R_den":4,"correct_side":2,"subjID":"marianarodriguez15","gender":"1","school":"4","age":"9"},{"start_time":1552327571858,"click_time":1552327573627,"finger_time":1552327572426,"fix_duration":1288.530627515588,"trial":38,"RT":568,"MT":1201,"sideResp":1,"stimulus":[],"xmouse":[766,766,766,766,766,764,761,759,758,758,758,758,758,758,758,758,757,756,756,755,755,755,755,755,755,755,755,753,746,743,743,743,743,743,742,739,737,737,737,737,736,736,736,736,736,735,735,734,733,732,729,726,722,713,704,694,680,665,628,609,588,559,542,513,499,485,472,461,448,445,443,443,443,443,443,443,443,443,443,444,444,447,450,453,455,455,455,455,452],"ymouse":[555,555,555,555,555,558,562,564,567,567,567,567,567,567,567,567,567,567,567,567,567,567,567,567,567,567,567,567,570,571,571,571,571,571,571,570,568,567,567,567,566,566,566,566,563,562,560,556,550,547,540,535,527,513,499,486,471,456,424,408,393,371,354,316,296,276,259,243,220,214,206,201,196,191,190,188,187,186,183,181,177,172,165,147,136,123,113,103,90],"timestamp_mouse":[19,28,49,68,88,108,129,148,168,188,208,228,248,269,288,309,328,348,368,389,409,428,448,467,488,509,529,548,568,589,608,628,648,667,688,708,728,749,768,789,808,828,847,868,888,908,928,948,968,988,1009,1028,1049,1068,1088,1108,1128,1147,1168,1189,1208,1228,1248,1268,1289,1308,1329,1349,1368,1388,1408,1428,1448,1468,1488,1508,1527,1549,1568,1589,1608,1629,1648,1668,1688,1709,1728,1748,1769],"xSR":741.5,"ySR":469.95,"xT1":424.9,"yT1":0,"xT2":1058.1,"yT2":0,"toosoon":0,"cond_shown":"Incongruent","ratio_trial":200,"L_num":6,"L_den":20,"R_num":3,"R_den":6,"correct_side":2,"subjID":"marianarodriguez15","gender":"1","school":"4","age":"9"},{"start_time":1552327577099,"click_time":1552327578306,"finger_time":1552327578047,"fix_duration":250,"trial":39,"RT":948,"MT":259,"sideResp":2,"stimulus":[],"xmouse":[791,791,791,791,791,791,791,791,791,791,791,791,791,791,791,791,791,791,791,791,791,791,791,791,791,791,791,791,791,791,791,791,791,791,791,791,791,791,791,791,791,791,791,791,793,798,803,839,865,898,925,954,993,1003,1012,1019,1031,1042,1049,1057,1062],"ymouse":[509,509,509,509,509,509,509,509,509,509,509,509,509,509,509,509,509,509,509,509,509,509,509,509,509,509,509,509,509,509,509,509,509,509,509,509,509,509,509,509,509,509,509,510,510,502,490,434,398,356,317,276,210,188,165,146,111,86,69,52,37],"timestamp_mouse":[7,27,47,68,87,108,127,148,168,186,208,227,248,268,286,307,328,348,366,387,408,426,448,468,486,508,528,548,566,588,608,628,647,668,688,708,728,748,768,788,808,827,847,868,887,908,927,948,967,988,1007,1027,1047,1067,1088,1107,1129,1147,1167,1187,1207],"xSR":741.5,"ySR":469.95,"xT1":424.9,"yT1":0,"xT2":1058.1,"yT2":0,"toosoon":0,"cond_shown":"Incongruent","ratio_trial":200,"L_num":7,"L_den":15,"R_num":6,"R_den":9,"correct_side":2,"subjID":"marianarodriguez15","gender":"1","school":"4","age":"9"},{"start_time":1552327580468,"click_time":1552327582086,"finger_time":1552327582007,"fix_duration":299.58877876121784,"trial":40,"RT":1539,"MT":79,"sideResp":2,"stimulus":[],"xmouse":[812,812,812,812,812,812,812,812,812,812,812,812,812,812,812,812,812,812,812,812,812,812,812,812,812,812,812,812,812,812,812,812,812,812,812,812,812,812,812,812,812,812,812,812,812,812,812,812,812,812,812,812,812,812,812,812,812,812,812,812,812,812,812,812,812,812,812,812,812,812,812,812,812,812,812,823,845,882,992,1049,1096],"ymouse":[498,498,498,498,498,498,498,498,498,498,498,498,498,498,498,498,498,498,498,498,498,498,498,498,498,498,498,498,498,498,498,498,498,498,498,498,498,498,498,498,498,498,498,498,498,498,498,498,498,498,498,498,498,498,498,498,498,498,498,498,498,498,498,498,498,498,498,498,498,498,498,498,498,498,498,481,441,373,212,123,48],"timestamp_mouse":[18,45,59,79,99,117,141,158,179,197,219,239,257,278,298,318,338,358,377,397,419,437,457,479,498,519,538,557,579,598,618,638,658,679,698,719,737,758,778,798,819,838,858,879,898,918,939,958,978,999,1018,1038,1059,1079,1097,1119,1138,1158,1178,1199,1218,1239,1258,1279,1298,1318,1338,1358,1379,1399,1418,1438,1458,1479,1499,1518,1539,1558,1578,1598,1618],"xSR":741.5,"ySR":469.95,"xT1":424.9,"yT1":0,"xT2":1058.1,"yT2":0,"toosoon":0,"cond_shown":"Congruent","ratio_trial":300,"L_num":1,"L_den":20,"R_num":7,"R_den":20,"correct_side":2,"subjID":"marianarodriguez15","gender":"1","school":"4","age":"9"},{"start_time":1552327584238,"click_time":1552327586086,"finger_time":1552327585327,"fix_duration":250,"trial":41,"RT":1089,"MT":759,"sideResp":2,"stimulus":[],"xmouse":[797,797,797,797,797,797,797,797,797,797,797,797,797,797,797,797,797,797,797,797,797,797,797,797,797,797,797,797,797,797,797,797,797,797,797,797,797,797,797,797,797,797,797,797,797,797,797,797,797,798,805,810,817,825,836,862,884,894,903,909,919,921,925,928,931,937,941,944,947,951,958,964,972,984,993,1010,1019,1023,1024,1025,1026,1029,1030,1032,1034,1043,1047,1051,1055,1058,1063,1065,1067],"ymouse":[518,518,518,518,518,518,518,518,518,518,518,518,518,518,518,518,518,518,518,518,518,518,518,518,518,518,518,518,518,518,518,518,518,518,518,518,518,518,518,518,518,518,518,518,518,518,518,518,518,516,508,500,488,472,453,400,356,333,312,300,279,273,267,263,259,250,244,240,236,232,224,218,210,200,193,180,172,168,166,163,162,158,156,153,150,138,133,126,119,115,105,102,99],"timestamp_mouse":[14,43,48,68,89,108,129,148,169,189,208,228,248,269,289,309,329,349,368,388,408,429,449,468,489,509,528,549,568,589,609,629,649,668,687,708,729,748,769,789,808,828,849,869,889,908,929,949,969,988,1010,1028,1048,1068,1089,1109,1127,1149,1169,1188,1209,1227,1248,1268,1288,1310,1328,1348,1367,1388,1409,1428,1447,1468,1489,1510,1528,1548,1568,1589,1608,1628,1648,1669,1689,1710,1728,1748,1768,1788,1810,1829,1848],"xSR":741.5,"ySR":469.95,"xT1":424.9,"yT1":0,"xT2":1058.1,"yT2":0,"toosoon":0,"cond_shown":"Incongruent","ratio_trial":100,"L_num":6,"L_den":10,"R_num":11,"R_den":22,"correct_side":1,"subjID":"marianarodriguez15","gender":"1","school":"4","age":"9"},{"start_time":1552327592598,"click_time":1552327594867,"finger_time":1552327594527,"fix_duration":1351.1619975493625,"trial":42,"RT":1929,"MT":340,"sideResp":1,"stimulus":[],"xmouse":[779,779,779,780,780,780,782,784,785,786,787,787,787,787,787,787,787,787,787,787,787,787,787,787,787,787,787,787,787,787,787,787,787,787,787,787,787,787,787,790,791,794,797,802,806,809,810,812,813,814,814,814,814,814,814,814,814,814,814,814,814,814,814,814,814,814,814,814,814,814,814,814,814,814,814,814,813,812,810,809,809,809,809,809,809,809,809,809,809,809,809,809,809,807,798,787,772,754,697,633,560,495,453,429,425,425,424,421,419,416,416,416,420,429],"ymouse":[543,544,544,544,544,544,544,543,541,539,538,538,538,538,538,538,538,538,538,538,538,538,540,541,541,541,541,541,541,541,541,541,541,541,541,541,541,541,541,538,536,533,528,517,505,495,487,482,474,473,473,473,473,473,473,473,473,473,473,473,473,473,473,473,473,473,473,473,473,473,473,473,473,473,475,477,481,484,491,492,493,494,494,494,494,494,494,494,494,494,494,494,494,492,482,475,465,456,427,401,370,338,310,269,239,219,202,186,170,140,124,107,90,61],"timestamp_mouse":[25,37,48,69,88,108,128,149,168,187,208,228,249,267,289,309,328,349,367,388,409,428,448,468,489,509,529,548,568,589,608,629,649,668,688,709,728,749,769,788,808,828,849,868,889,908,928,948,968,988,1007,1029,1048,1067,1088,1109,1129,1148,1168,1189,1209,1229,1249,1268,1288,1309,1329,1347,1368,1387,1408,1429,1447,1469,1488,1508,1528,1549,1568,1588,1608,1628,1647,1668,1689,1708,1729,1749,1768,1787,1808,1827,1849,1868,1888,1908,1929,1948,1969,1988,2008,2029,2049,2070,2088,2108,2128,2149,2169,2188,2208,2229,2249,2269],"xSR":741.5,"ySR":469.95,"xT1":424.9,"yT1":0,"xT2":1058.1,"yT2":0,"toosoon":0,"cond_shown":"Incongruent","ratio_trial":300,"L_num":1,"L_den":2,"R_num":2,"R_den":10,"correct_side":1,"subjID":"marianarodriguez15","gender":"1","school":"4","age":"9"},{"start_time":1552327596518,"click_time":1552327597886,"finger_time":1552327597185,"fix_duration":250,"trial":43,"RT":667,"MT":701,"sideResp":2,"stimulus":[],"xmouse":[814,814,814,814,814,814,814,814,814,814,814,814,814,814,814,814,814,814,814,814,814,814,814,814,814,814,814,814,814,814,814,814,818,821,823,826,832,838,852,860,860,860,860,860,929,988,1042,1119,1186,1206,1217,1221,1221,1219,1210,1199,1190,1178,1166,1166,1166,1166,1166,1166,1166,1166,1166,1166,1107],"ymouse":[546,546,546,546,546,546,546,546,546,546,546,546,546,546,546,546,546,546,546,546,546,546,546,546,546,546,546,546,546,546,546,549,564,576,592,611,632,665,707,722,722,722,722,722,701,668,632,564,463,408,363,309,265,189,155,119,90,53,8,8,8,8,8,8,8,8,8,8,2],"timestamp_mouse":[9,28,48,68,87,107,128,148,168,188,208,228,249,269,287,309,329,347,369,387,409,429,447,469,489,508,528,548,567,587,609,628,649,667,688,709,729,749,768,789,807,829,848,868,889,908,928,948,968,988,1008,1028,1049,1068,1088,1108,1129,1148,1167,1189,1208,1228,1249,1268,1288,1309,1328,1348,1368],"xSR":741.5,"ySR":469.95,"xT1":424.9,"yT1":0,"xT2":1058.1,"yT2":0,"toosoon":0,"cond_shown":"Congruent","ratio_trial":300,"L_num":7,"L_den":14,"R_num":20,"R_den":25,"correct_side":2,"subjID":"marianarodriguez15","gender":"1","school":"4","age":"9"},{"start_time":1552327603293,"click_time":1552327604547,"finger_time":1552327603826,"fix_duration":1166.899130792738,"trial":44,"RT":533,"MT":721,"sideResp":1,"stimulus":[],"xmouse":[764,764,764,761,755,754,754,754,754,754,754,754,754,754,754,754,754,754,754,754,754,754,754,754,754,754,754,754,764,772,780,780,780,780,780,787,790,792,794,796,796,798,801,805,812,815,815,815,814,809,776,758,743,738,737,737,736,733,726,681,628,565,507],"ymouse":[520,520,520,524,533,534,534,534,534,534,534,534,534,534,534,534,534,534,534,534,534,534,534,534,537,564,591,622,650,668,676,676,676,676,676,672,668,663,655,623,604,583,560,534,482,455,440,431,423,418,414,414,414,414,414,414,414,408,389,307,231,134,1],"timestamp_mouse":[14,42,53,72,94,114,132,154,174,194,213,234,254,272,293,314,334,354,373,393,413,434,452,474,493,513,533,554,573,593,613,633,654,673,693,713,733,753,7