[{"start_time":1552309650748,"click_time":1552309652048,"finger_time":1552309651569,"fix_duration":857.0360938204053,"trial":0,"RT":821,"MT":479,"sideResp":1,"stimulus":"img/250/equaldotanddens/L/5_Ratio_250_L_24_R_6.png","xmouse":[802,802,802,802,802,802,802,802,802,802,802,802,802,802,802,802,802,802,802,802,802,802,802,802,802,802,802,802,802,802,802,802,802,802,802,802,802,802,802,798,793,787,780,779,778,777,771,748,726,702,691,681,662,652,642,625,608,574,565,556,551,545,528,517,506,496],"ymouse":[563,563,563,563,563,563,563,563,563,563,563,563,563,563,563,563,563,563,563,563,563,563,563,563,563,563,563,563,563,563,563,563,563,563,563,563,557,541,524,497,483,468,445,438,430,420,406,365,329,296,276,253,216,199,180,160,143,112,104,99,98,98,100,101,101,97],"timestamp_mouse":[3,20,41,61,80,101,121,142,162,180,201,220,241,262,280,300,321,341,361,380,401,420,441,462,482,502,520,540,561,580,600,621,641,661,682,701,721,740,762,780,801,821,840,860,880,900,921,940,961,980,1000,1020,1040,1060,1081,1101,1122,1140,1160,1180,1201,1220,1241,1260,1281,1300],"xSR":732.5,"ySR":490.1,"xT1":419.5,"yT1":0,"xT2":1045.5,"yT2":0,"toosoon":0,"cond_shown":"equaldotanddens","ratio_trial":250,"smaller_num":"6","larger_num":"24","correct_side":1,"subjID":"MarianaRojasMancera20","gender":"1","age":"9","school":"4","test":{"fix_dur":[250,1500],"timestim":300,"targets_dim":[100,100],"targets_relative_coord":[0.3,0.7],"size_stim":[880,420],"start_dim":[100,100],"size_start":[300,300],"size_fix":60,"samplingrate":20,"img_types":["equaldotsize","equaldotanddens","randomdotsizeEA"],"ratios":[250,500,750,900],"rep_conds":9,"nTrials":120,"trials_to_rest":500,"Trials_order":[49,84,5,103,105,89,1,38,14,62,99,11,28,31,71,56,86,109,40,0,51,78,72,55,59,90,29,41,92,79,70,19,50,20,93,16,114,96,64,39,111,81,27,60,36,76,102,25,8,61,115,13,97,26,54,67,15,10,12,32,42,17,106,6,53,65,110,100,43,87,23,33,52,24,107,119,74,113,112,3,95,30,66,63,77,118,104,94,73,18,34,83,88,47,44,45,2,85,91,4,101,37,69,75,82,58,68,9,35,108,21,22,7,116,48,98,117,57,46,80],"cond_shown":["equaldotanddens","equaldotsize","randomdotsizeEA","equaldotanddens","equaldotsize","randomdotsizeEA","equaldotanddens","randomdotsizeEA","randomdotsizeEA","randomdotsizeEA","equaldotsize","randomdotsizeEA","equaldotanddens","equaldotanddens","randomdotsizeEA","randomdotsizeEA","randomdotsizeEA","equaldotanddens","equaldotanddens","equaldotsize","equaldotsize","equaldotsize","equaldotsize","equaldotanddens","randomdotsizeEA","equaldotsize","randomdotsizeEA","randomdotsizeEA","randomdotsizeEA","equaldotanddens","equaldotanddens","equaldotanddens","randomdotsizeEA","randomdotsizeEA","equaldotsize","equaldotanddens","equaldotsize","equaldotsize","equaldotanddens","equaldotsize","equaldotsize","equaldotsize","equaldotsize","equaldotsize","equaldotsize","equaldotanddens","equaldotsize","equaldotanddens","randomdotsizeEA","equaldotanddens","equaldotanddens","equaldotanddens","equaldotanddens","randomdotsizeEA","equaldotsize","equaldotanddens","equaldotsize","equaldotanddens","equaldotsize","randomdotsizeEA","equaldotsize","randomdotsizeEA","equaldotanddens","equaldotsize","randomdotsizeEA","randomdotsizeEA","randomdotsizeEA","equaldotanddens","equaldotanddens","equaldotsize","randomdotsizeEA","equaldotsize","equaldotanddens","equaldotsize","randomdotsizeEA","randomdotsizeEA","randomdotsizeEA","randomdotsizeEA","equaldotanddens","equaldotsize","randomdotsizeEA","equaldotsize","equaldotsize","equaldotsize","randomdotsizeEA","equaldotanddens","randomdotsizeEA","equaldotanddens","equaldotanddens","equaldotsize","equaldotanddens","randomdotsizeEA","equaldotanddens","randomdotsizeEA","randomdotsizeEA","equaldotsize","randomdotsizeEA","equaldotanddens","equaldotanddens","equaldotanddens","randomdotsizeEA","equaldotanddens","equaldotsize","equaldotsize","equaldotanddens","equaldotanddens","randomdotsizeEA","equaldotsize","randomdotsizeEA","equaldotsize","equaldotsize","equaldotanddens","equaldotanddens","randomdotsizeEA","equaldotsize","randomdotsizeEA","equaldotsize","equaldotsize","equaldotanddens","randomdotsizeEA"],"ratio_trial":[250,250,500,750,900,500,250,250,250,250,500,900,500,750,900,750,250,250,500,250,500,750,250,750,900,750,500,500,750,750,900,750,250,750,900,500,750,250,500,500,500,900,500,250,250,500,750,250,750,250,750,250,250,250,750,750,500,900,250,750,750,500,900,750,500,500,250,500,750,500,900,900,500,250,900,900,250,500,500,500,900,750,750,500,500,900,750,900,250,750,900,900,500,900,750,900,250,250,750,500,500,250,900,500,900,900,750,900,900,250,900,900,750,750,250,250,900,900,900,750],"smaller_num":["6","6","2","15","18","2","3","2","3","3","9","18","4","3","18","3","1","2","2","4","2","3","6","6","9","3","6","6","9","6","18","6","3","6","18","10","12","5","9","5","6","18","4","6","3","4","6","4","18","6","3","2","4","3","6","3","4","9","2","3","6","6","18","3","2","2","2","1","3","9","18","9","6","3","18","18","4","9","9","5","18","3","3","3","1","9","6","9","1","3","9","18","2","9","6","18","1","3","15","5","5","3","18","6","18","18","6","18","18","3","18","9","12","15","3","2","9","9","18","6"],"larger_num":["24","24","4","20","20","4","12","8","12","12","18","20","8","4","20","4","4","8","4","16","4","4","24","8","10","4","12","12","12","8","20","8","12","8","20","20","16","20","18","10","12","20","8","24","12","8","8","16","24","24","4","8","16","12","8","4","8","10","8","4","8","12","20","4","4","4","8","2","4","18","20","10","12","12","20","20","16","18","18","10","20","4","4","6","2","10","8","10","4","4","10","20","4","10","8","20","4","12","20","10","10","12","20","12","20","20","8","20","20","12","20","10","16","20","12","8","10","10","20","8"],"correct_side":[1,1,1,1,1,2,1,1,2,2,2,1,1,1,1,2,2,1,1,2,1,1,2,1,2,1,1,1,2,1,2,1,2,1,1,2,2,2,2,1,1,2,1,1,1,1,1,2,1,2,1,2,1,2,1,2,1,2,1,2,1,1,1,1,1,2,1,2,2,1,1,2,1,2,1,1,1,1,2,2,1,1,1,2,2,2,1,2,2,1,1,1,1,1,1,1,2,2,2,2,1,2,2,1,1,2,1,1,1,2,1,2,2,2,2,1,2,2,1,1],"img_shown":["img/250/equaldotanddens/L/5_Ratio_250_L_24_R_6.png","img/250/equaldotsize/L/5_Ratio_250_L_24_R_6.png","img/500/randomdotsizeEA/L/10_Ratio_500_L_4_R_2.png","img/750/equaldotanddens/L/1_Ratio_750_L_20_R_15.png","img/900/equaldotsize/L/2_Ratio_900_L_20_R_18.png","img/500/randomdotsizeEA/R/9_Ratio_500_L_2_R_4.png","img/250/equaldotanddens/L/15_Ratio_250_L_12_R_3.png","img/250/randomdotsizeEA/L/3_Ratio_250_L_8_R_2.png","img/250/randomdotsizeEA/R/9_Ratio_250_L_3_R_12.png","img/250/randomdotsizeEA/R/11_Ratio_250_L_3_R_12.png","img/500/equaldotsize/R/1_Ratio_500_L_9_R_18.png","img/900/randomdotsizeEA/L/4_Ratio_900_L_20_R_18.png","img/500/equaldotanddens/L/8_Ratio_500_L_8_R_4.png","img/750/equaldotanddens/L/10_Ratio_750_L_4_R_3.png","img/900/randomdotsizeEA/L/8_Ratio_900_L_20_R_18.png","img/750/randomdotsizeEA/R/12_Ratio_750_L_3_R_4.png","img/250/randomdotsizeEA/R/8_Ratio_250_L_1_R_4.png","img/250/equaldotanddens/L/3_Ratio_250_L_8_R_2.png","img/500/equaldotanddens/L/10_Ratio_500_L_4_R_2.png","img/250/equaldotsize/R/10_Ratio_250_L_4_R_16.png","img/500/equaldotsize/L/5_Ratio_500_L_4_R_2.png","img/750/equaldotsize/L/8_Ratio_750_L_4_R_3.png","img/250/equaldotsize/R/6_Ratio_250_L_6_R_24.png","img/750/equaldotanddens/L/13_Ratio_750_L_8_R_6.png","img/900/randomdotsizeEA/R/7_Ratio_900_L_9_R_10.png","img/750/equaldotsize/L/8_Ratio_750_L_4_R_3.png","img/500/randomdotsizeEA/L/13_Ratio_500_L_12_R_6.png","img/500/randomdotsizeEA/L/13_Ratio_500_L_12_R_6.png","img/750/randomdotsizeEA/R/15_Ratio_750_L_9_R_12.png","img/750/equaldotanddens/L/14_Ratio_750_L_8_R_6.png","img/900/equaldotanddens/R/9_Ratio_900_L_18_R_20.png","img/750/equaldotanddens/L/13_Ratio_750_L_8_R_6.png","img/250/randomdotsizeEA/R/4_Ratio_250_L_3_R_12.png","img/750/randomdotsizeEA/L/13_Ratio_750_L_8_R_6.png","img/900/equaldotsize/L/8_Ratio_900_L_20_R_18.png","img/500/equaldotanddens/R/3_Ratio_500_L_10_R_20.png","img/750/equaldotsize/R/11_Ratio_750_L_12_R_16.png","img/250/equaldotsize/R/12_Ratio_250_L_5_R_20.png","img/500/equaldotanddens/R/1_Ratio_500_L_9_R_18.png","img/500/equaldotsize/L/7_Ratio_500_L_10_R_5.png","img/500/equaldotsize/L/11_Ratio_500_L_12_R_6.png","img/900/equaldotsize/R/9_Ratio_900_L_18_R_20.png","img/500/equaldotsize/L/8_Ratio_500_L_8_R_4.png","img/250/equaldotsize/L/5_Ratio_250_L_24_R_6.png","img/250/equaldotsize/L/14_Ratio_250_L_12_R_3.png","img/500/equaldotanddens/L/8_Ratio_500_L_8_R_4.png","img/750/equaldotsize/L/14_Ratio_750_L_8_R_6.png","img/250/equaldotanddens/R/10_Ratio_250_L_4_R_16.png","img/750/randomdotsizeEA/L/6_Ratio_750_L_24_R_18.png","img/250/equaldotanddens/R/6_Ratio_250_L_6_R_24.png","img/750/equaldotanddens/L/9_Ratio_750_L_4_R_3.png","img/250/equaldotanddens/R/13_Ratio_250_L_2_R_8.png","img/250/equaldotanddens/L/2_Ratio_250_L_16_R_4.png","img/250/randomdotsizeEA/R/9_Ratio_250_L_3_R_12.png","img/750/equaldotsize/L/14_Ratio_750_L_8_R_6.png","img/750/equaldotanddens/R/12_Ratio_750_L_3_R_4.png","img/500/equaldotsize/L/8_Ratio_500_L_8_R_4.png","img/900/equaldotanddens/R/3_Ratio_900_L_9_R_10.png","img/250/equaldotsize/L/3_Ratio_250_L_8_R_2.png","img/750/randomdotsizeEA/R/7_Ratio_750_L_3_R_4.png","img/750/equaldotsize/L/13_Ratio_750_L_8_R_6.png","img/500/randomdotsizeEA/L/11_Ratio_500_L_12_R_6.png","img/900/equaldotanddens/L/10_Ratio_900_L_20_R_18.png","img/750/equaldotsize/L/9_Ratio_750_L_4_R_3.png","img/500/randomdotsizeEA/L/5_Ratio_500_L_4_R_2.png","img/500/randomdotsizeEA/R/9_Ratio_500_L_2_R_4.png","img/250/randomdotsizeEA/L/1_Ratio_250_L_8_R_2.png","img/500/equaldotanddens/R/15_Ratio_500_L_1_R_2.png","img/750/equaldotanddens/R/7_Ratio_750_L_3_R_4.png","img/500/equaldotsize/L/4_Ratio_500_L_18_R_9.png","img/900/randomdotsizeEA/L/2_Ratio_900_L_20_R_18.png","img/900/equaldotsize/R/3_Ratio_900_L_9_R_10.png","img/500/equaldotanddens/L/11_Ratio_500_L_12_R_6.png","img/250/equaldotsize/R/9_Ratio_250_L_3_R_12.png","img/900/randomdotsizeEA/L/2_Ratio_900_L_20_R_18.png","img/900/randomdotsizeEA/L/2_Ratio_900_L_20_R_18.png","img/250/randomdotsizeEA/L/2_Ratio_250_L_16_R_4.png","img/500/randomdotsizeEA/L/4_Ratio_500_L_18_R_9.png","img/500/equaldotanddens/R/1_Ratio_500_L_9_R_18.png","img/500/equaldotsize/R/14_Ratio_500_L_5_R_10.png","img/900/randomdotsizeEA/L/8_Ratio_900_L_20_R_18.png","img/750/equaldotsize/L/9_Ratio_750_L_4_R_3.png","img/750/equaldotsize/L/10_Ratio_750_L_4_R_3.png","img/500/equaldotsize/R/2_Ratio_500_L_3_R_6.png","img/500/randomdotsizeEA/R/12_Ratio_500_L_1_R_2.png","img/900/equaldotanddens/R/5_Ratio_900_L_9_R_10.png","img/750/randomdotsizeEA/L/13_Ratio_750_L_8_R_6.png","img/900/equaldotanddens/R/7_Ratio_900_L_9_R_10.png","img/250/equaldotanddens/R/8_Ratio_250_L_1_R_4.png","img/750/equaldotsize/L/8_Ratio_750_L_4_R_3.png","img/900/equaldotanddens/L/1_Ratio_900_L_10_R_9.png","img/900/randomdotsizeEA/L/2_Ratio_900_L_20_R_18.png","img/500/equaldotanddens/L/10_Ratio_500_L_4_R_2.png","img/900/randomdotsizeEA/L/1_Ratio_900_L_10_R_9.png","img/750/randomdotsizeEA/L/13_Ratio_750_L_8_R_6.png","img/900/equaldotsize/L/8_Ratio_900_L_20_R_18.png","img/250/randomdotsizeEA/R/8_Ratio_250_L_1_R_4.png","img/250/equaldotanddens/R/11_Ratio_250_L_3_R_12.png","img/750/equaldotanddens/R/3_Ratio_750_L_15_R_20.png","img/500/equaldotanddens/R/14_Ratio_500_L_5_R_10.png","img/500/randomdotsizeEA/L/7_Ratio_500_L_10_R_5.png","img/250/equaldotanddens/R/9_Ratio_250_L_3_R_12.png","img/900/equaldotsize/R/14_Ratio_900_L_18_R_20.png","img/500/equaldotsize/L/13_Ratio_500_L_12_R_6.png","img/900/equaldotanddens/L/2_Ratio_900_L_20_R_18.png","img/900/equaldotanddens/R/14_Ratio_900_L_18_R_20.png","img/750/randomdotsizeEA/L/14_Ratio_750_L_8_R_6.png","img/900/equaldotsize/L/4_Ratio_900_L_20_R_18.png","img/900/randomdotsizeEA/L/8_Ratio_900_L_20_R_18.png","img/250/equaldotsize/R/11_Ratio_250_L_3_R_12.png","img/900/equaldotsize/L/10_Ratio_900_L_20_R_18.png","img/900/equaldotanddens/R/6_Ratio_900_L_9_R_10.png","img/750/equaldotanddens/R/11_Ratio_750_L_12_R_16.png","img/750/randomdotsizeEA/R/4_Ratio_750_L_15_R_20.png","img/250/equaldotsize/R/4_Ratio_250_L_3_R_12.png","img/250/randomdotsizeEA/L/3_Ratio_250_L_8_R_2.png","img/900/equaldotsize/R/5_Ratio_900_L_9_R_10.png","img/900/equaldotsize/R/6_Ratio_900_L_9_R_10.png","img/900/equaldotanddens/L/2_Ratio_900_L_20_R_18.png","img/750/randomdotsizeEA/L/14_Ratio_750_L_8_R_6.png"],"Rat0":[["12_Ratio_0_L_9_R_0.png","13_Ratio_0_L_6_R_0.png","5_Ratio_0_L_2_R_0.png","6_Ratio_0_L_4_R_0.png","8_Ratio_0_L_6_R_0.png"],["1_Ratio_0_L_0_R_17.png","10_Ratio_0_L_0_R_22.png","11_Ratio_0_L_0_R_1.png","14_Ratio_0_L_0_R_24.png","15_Ratio_0_L_0_R_4.png","2_Ratio_0_L_0_R_5.png","3_Ratio_0_L_0_R_17.png","4_Ratio_0_L_0_R_7.png","7_Ratio_0_L_0_R_19.png","9_Ratio_0_L_0_R_15.png"]],"Rat250":[["1_Ratio_250_L_8_R_2.png","14_Ratio_250_L_12_R_3.png","15_Ratio_250_L_12_R_3.png","2_Ratio_250_L_16_R_4.png","3_Ratio_250_L_8_R_2.png","5_Ratio_250_L_24_R_6.png","7_Ratio_250_L_8_R_2.png"],["10_Ratio_250_L_4_R_16.png","11_Ratio_250_L_3_R_12.png","12_Ratio_250_L_5_R_20.png","13_Ratio_250_L_2_R_8.png","4_Ratio_250_L_3_R_12.png","6_Ratio_250_L_6_R_24.png","8_Ratio_250_L_1_R_4.png","9_Ratio_250_L_3_R_12.png"]],"Rat500":[["10_Ratio_500_L_4_R_2.png","11_Ratio_500_L_12_R_6.png","13_Ratio_500_L_12_R_6.png","4_Ratio_500_L_18_R_9.png","5_Ratio_500_L_4_R_2.png","7_Ratio_500_L_10_R_5.png","8_Ratio_500_L_8_R_4.png"],["1_Ratio_500_L_9_R_18.png","12_Ratio_500_L_1_R_2.png","14_Ratio_500_L_5_R_10.png","15_Ratio_500_L_1_R_2.png","2_Ratio_500_L_3_R_6.png","3_Ratio_500_L_10_R_20.png","6_Ratio_500_L_9_R_18.png","9_Ratio_500_L_2_R_4.png"]],"Rat750":[["1_Ratio_750_L_20_R_15.png","10_Ratio_750_L_4_R_3.png","13_Ratio_750_L_8_R_6.png","14_Ratio_750_L_8_R_6.png","6_Ratio_750_L_24_R_18.png","8_Ratio_750_L_4_R_3.png","9_Ratio_750_L_4_R_3.png"],["11_Ratio_750_L_12_R_16.png","12_Ratio_750_L_3_R_4.png","15_Ratio_750_L_9_R_12.png","2_Ratio_750_L_6_R_8.png","3_Ratio_750_L_15_R_20.png","4_Ratio_750_L_15_R_20.png","5_Ratio_750_L_15_R_20.png","7_Ratio_750_L_3_R_4.png"]],"Rat900":[["1_Ratio_900_L_10_R_9.png","10_Ratio_900_L_20_R_18.png","2_Ratio_900_L_20_R_18.png","4_Ratio_900_L_20_R_18.png","8_Ratio_900_L_20_R_18.png"],["11_Ratio_900_L_18_R_20.png","12_Ratio_900_L_18_R_20.png","13_Ratio_900_L_18_R_20.png","14_Ratio_900_L_18_R_20.png","15_Ratio_900_L_9_R_10.png","3_Ratio_900_L_9_R_10.png","5_Ratio_900_L_9_R_10.png","6_Ratio_900_L_9_R_10.png","7_Ratio_900_L_9_R_10.png","9_Ratio_900_L_18_R_20.png"]],"Rat1000":[["10_Ratio_1000_L_16_R_16.png","11_Ratio_1000_L_6_R_6.png","12_Ratio_1000_L_14_R_14.png","13_Ratio_1000_L_20_R_20.png","15_Ratio_1000_L_15_R_15.png","2_Ratio_1000_L_17_R_17.png","4_Ratio_1000_L_9_R_9.png","5_Ratio_1000_L_6_R_6.png","6_Ratio_1000_L_19_R_19.png","8_Ratio_1000_L_14_R_14.png","9_Ratio_1000_L_25_R_25.png"],["1_Ratio_1000_L_1_R_1.png","14_Ratio_1000_L_17_R_17.png","3_Ratio_1000_L_17_R_17.png","7_Ratio_1000_L_6_R_6.png"]]}},{"start_time":1552309653319,"click_time":1552309654509,"finger_time":1552309653988,"fix_duration":250,"trial":1,"RT":669,"MT":521,"sideResp":1,"stimulus":"img/250/equaldotsize/L/5_Ratio_250_L_24_R_6.png","xmouse":[765,765,765,765,765,765,765,765,765,765,765,765,765,765,765,765,765,765,765,765,765,765,764,764,764,764,764,764,764,761,756,752,744,719,710,701,695,688,678,669,658,649,637,621,615,609,603,599,596,595,593,590,587,581,579,576,574,566,533,513],"ymouse":[516,516,516,516,516,516,516,516,516,516,516,516,516,516,516,516,516,516,516,516,516,516,516,516,516,516,516,516,516,516,507,495,476,410,378,351,331,315,301,294,287,278,264,227,212,197,183,174,164,147,142,136,131,121,118,116,114,112,98,85],"timestamp_mouse":[9,29,50,70,91,109,130,149,169,189,209,229,251,269,290,310,329,350,369,389,410,430,450,469,490,510,530,549,569,590,609,630,650,669,689,710,729,751,770,790,809,829,850,870,889,911,930,949,969,989,1009,1031,1050,1070,1089,1110,1130,1149,1170,1190],"xSR":741.5,"ySR":469.95,"xT1":424.9,"yT1":0,"xT2":1058.1,"yT2":0,"toosoon":0,"cond_shown":"equaldotsize","ratio_trial":250,"smaller_num":"6","larger_num":"24","correct_side":1,"subjID":"MarianaRojasMancera20","gender":"1","age":"9","school":"4"},{"start_time":1552309656054,"click_time":1552309657388,"finger_time":1552309656708,"fix_duration":726.8414366594026,"trial":2,"RT":654,"MT":680,"sideResp":1,"stimulus":"img/500/randomdotsizeEA/L/10_Ratio_500_L_4_R_2.png","xmouse":[824,824,824,824,824,824,824,824,824,824,824,824,824,824,824,824,824,824,824,824,824,824,824,824,823,822,822,821,820,820,820,820,813,808,803,796,785,758,741,725,721,709,697,694,691,689,676,663,652,640,638,629,619,615,613,612,611,604,596,590,586,582,580,570,553,532,513],"ymouse":[527,527,527,527,527,527,527,527,527,527,527,527,527,527,527,527,527,527,527,527,527,527,527,525,523,522,519,515,512,505,492,486,453,436,419,402,383,339,314,283,273,245,215,204,195,184,158,142,128,116,115,108,102,99,97,97,96,96,96,95,93,91,91,90,87,82,77],"timestamp_mouse":[14,34,55,75,94,115,135,154,175,194,216,234,254,274,294,315,334,356,375,394,415,435,455,474,495,515,534,554,575,594,614,635,654,674,695,714,734,754,775,794,815,834,855,874,896,915,936,955,974,994,1015,1034,1055,1074,1095,1114,1136,1154,1175,1195,1214,1234,1255,1274,1295,1315,1334],"xSR":741.5,"ySR":469.95,"xT1":424.9,"yT1":0,"xT2":1058.1,"yT2":0,"toosoon":0,"cond_shown":"randomdotsizeEA","ratio_trial":500,"smaller_num":"2","larger_num":"4","correct_side":1,"subjID":"MarianaRojasMancera20","gender":"1","age":"9","school":"4"},{"start_time":1552309659400,"click_time":1552309660468,"finger_time":1552309659948,"fix_duration":870.8996630473702,"trial":3,"RT":548,"MT":520,"sideResp":1,"stimulus":"img/750/equaldotanddens/L/1_Ratio_750_L_20_R_15.png","xmouse":[790,790,790,790,790,790,790,790,790,790,790,790,790,790,790,790,790,790,790,790,790,790,790,790,789,789,789,789,786,778,754,744,730,721,713,690,673,657,640,623,591,578,566,557,552,544,541,540,540,540,539,536,529,520],"ymouse":[492,492,492,492,492,492,492,492,492,492,492,492,492,492,492,492,492,492,492,492,492,492,492,492,492,488,476,455,428,389,318,294,266,250,234,206,191,174,160,146,129,124,120,116,112,107,104,103,103,103,103,98,91,84],"timestamp_mouse":[8,29,48,68,88,109,129,149,168,188,208,228,249,270,288,308,329,349,369,388,408,428,448,468,488,509,528,548,568,589,608,628,648,668,689,708,728,748,769,789,808,829,849,869,889,908,929,949,968,988,1008,1030,1049,1068],"xSR":741.5,"ySR":469.95,"xT1":424.9,"yT1":0,"xT2":1058.1,"yT2":0,"toosoon":0,"cond_shown":"equaldotanddens","ratio_trial":750,"smaller_num":"15","larger_num":"20","correct_side":1,"subjID":"MarianaRojasMancera20","gender":"1","age":"9","school":"4"},{"start_time":1552309662384,"click_time":1552309663308,"finger_time":1552309662949,"fix_duration":934.2510345353847,"trial":4,"RT":565,"MT":359,"sideResp":1,"stimulus":"img/900/equaldotsize/L/2_Ratio_900_L_20_R_18.png","xmouse":[761,761,761,761,761,761,761,761,761,761,761,761,761,761,761,761,761,761,761,761,761,761,761,761,761,761,759,757,754,750,737,723,686,673,665,660,657,639,623,608,590,553,530,519,512,509,510],"ymouse":[522,522,522,522,522,522,522,522,522,522,522,522,522,522,522,522,522,522,522,522,522,522,522,522,520,516,491,475,456,432,385,345,275,257,244,237,231,206,188,171,156,129,115,108,102,100,99],"timestamp_mouse":[4,24,46,65,84,105,124,145,166,185,205,224,245,266,284,304,325,346,364,384,404,425,446,466,485,505,524,544,565,585,604,625,644,664,684,704,725,744,764,784,805,825,846,864,884,905,924],"xSR":741.5,"ySR":469.95,"xT1":424.9,"yT1":0,"xT2":1058.1,"yT2":0,"toosoon":0,"cond_shown":"equaldotsize","ratio_trial":900,"smaller_num":"18","larger_num":"20","correct_side":1,"subjID":"MarianaRojasMancera20","gender":"1","age":"9","school":"4"},{"start_time":1552309665992,"click_time":1552309667709,"finger_time":1552309666728,"fix_duration":1282.5750977772116,"trial":5,"RT":736,"MT":981,"sideResp":2,"stimulus":"img/500/randomdotsizeEA/R/9_Ratio_500_L_2_R_4.png","xmouse":[817,815,815,815,815,815,815,815,814,814,813,813,812,812,812,812,812,812,812,812,812,812,812,812,812,812,812,812,812,812,812,812,812,812,813,824,830,834,836,836,825,758,721,687,667,660,662,668,679,731,801,985,1061,1101,1114,1118,1118,1122,1132,1148,1181,1212,1215,1215,1215,1215,1212,1210,1206,1204,1202,1197,1193,1192,1190,1189,1187,1187,1186,1185,1183,1180,1178,1177,1166,1151],"ymouse":[493,496,497,498,498,498,498,498,499,499,500,501,501,501,501,501,501,501,501,501,501,501,501,501,501,501,501,501,501,501,501,501,501,502,502,482,467,453,435,407,377,287,254,231,213,203,200,198,193,185,185,185,185,183,177,168,165,157,146,137,122,108,106,106,105,104,100,100,98,97,96,95,95,95,95,95,95,95,95,95,94,93,92,91,89,87],"timestamp_mouse":[16,37,56,76,98,118,136,157,176,197,217,238,257,277,298,317,337,357,377,397,418,436,457,477,498,516,537,557,576,596,616,637,657,678,697,717,736,757,777,796,817,836,856,877,896,917,936,956,976,997,1016,1036,1056,1076,1096,1117,1137,1156,1176,1196,1216,1236,1257,1277,1297,1316,1336,1357,1376,1396,1416,1437,1456,1476,1496,1518,1536,1557,1577,1597,1616,1636,1656,1676,1697,1717],"xSR":741.5,"ySR":469.95,"xT1":424.9,"yT1":0,"xT2":1058.1,"yT2":0,"toosoon":0,"cond_shown":"randomdotsizeEA","ratio_trial":500,"smaller_num":"2","larger_num":"4","correct_side":2,"subjID":"MarianaRojasMancera20","gender":"1","age":"9","school":"4"},{"start_time":1552309669592,"click_time":1552309670469,"finger_time":1552309670208,"fix_duration":763.087531326408,"trial":6,"RT":616,"MT":261,"sideResp":1,"stimulus":"img/250/equaldotanddens/L/15_Ratio_250_L_12_R_3.png","xmouse":[797,797,797,797,797,797,797,797,797,797,797,797,797,797,797,797,797,797,797,797,797,797,797,797,797,797,795,795,794,794,795,808,810,810,810,806,781,758,715,678,646,585,554,519],"ymouse":[490,490,490,490,490,490,490,490,490,490,490,490,490,490,490,490,490,490,490,490,490,490,490,490,490,490,490,489,484,478,468,434,416,396,376,354,299,266,223,192,165,121,98,76],"timestamp_mouse":[18,37,57,77,96,117,137,157,178,196,216,236,257,276,297,318,336,357,376,396,417,437,457,477,496,517,536,558,576,596,616,636,656,678,697,717,736,756,776,797,817,837,856,877],"xSR":741.5,"ySR":469.95,"xT1":424.9,"yT1":0,"xT2":1058.1,"yT2":0,"toosoon":0,"cond_shown":"equaldotanddens","ratio_trial":250,"smaller_num":"3","larger_num":"12","correct_side":1,"subjID":"MarianaRojasMancera20","gender":"1","age":"9","school":"4"},{"start_time":1552309672137,"click_time":1552309673549,"finger_time":1552309672869,"fix_duration":407.05009385913024,"trial":7,"RT":732,"MT":680,"sideResp":1,"stimulus":"img/250/randomdotsizeEA/L/3_Ratio_250_L_8_R_2.png","xmouse":[763,763,763,763,763,763,763,763,763,763,763,763,763,763,763,763,763,763,763,763,763,763,763,763,763,763,763,763,763,763,765,768,772,777,790,798,808,821,834,846,846,846,846,846,836,827,811,787,755,714,637,620,612,608,595,582,568,554,542,536,534,534,534,534,534,533,533,533,532,529,476],"ymouse":[520,520,520,520,520,520,520,520,520,520,520,520,520,520,520,520,520,520,520,520,520,520,520,520,520,520,520,520,520,520,520,519,513,505,487,475,457,433,404,348,329,315,303,292,268,257,244,230,215,198,165,157,153,149,138,131,121,109,99,92,87,87,86,86,86,86,86,86,86,86,79],"timestamp_mouse":[12,31,53,71,91,111,131,152,171,193,212,233,252,272,291,311,331,353,372,391,413,431,451,473,492,511,532,551,572,591,612,631,653,672,691,711,732,752,771,792,811,831,851,871,892,911,932,952,971,991,1011,1031,1053,1072,1092,1112,1132,1152,1171,1192,1212,1231,1252,1272,1292,1311,1333,1351,1371,1392,1411],"xSR":741.5,"ySR":469.95,"xT1":424.9,"yT1":0,"xT2":1058.1,"yT2":0,"toosoon":0,"cond_shown":"randomdotsizeEA","ratio_trial":250,"smaller_num":"2","larger_num":"8","correct_side":1,"subjID":"MarianaRojasMancera20","gender":"1","age":"9","school":"4"},{"start_time":1552309675730,"click_time":1552309676929,"finger_time":1552309676328,"fix_duration":1140.5671876302679,"trial":8,"RT":598,"MT":601,"sideResp":2,"stimulus":"img/250/randomdotsizeEA/R/9_Ratio_250_L_3_R_12.png","xmouse":[799,799,799,799,799,799,799,799,799,799,799,798,797,796,796,796,795,795,796,798,798,799,799,799,799,800,800,800,800,800,800,800,799,797,795,796,803,811,827,838,873,897,926,956,988,1021,1024,1025,1025,1025,1025,1025,1025,1025,1025,1025,1025,1033,1083,1139],"ymouse":[567,567,567,567,567,567,567,567,567,567,568,568,568,568,568,568,568,565,561,560,559,558,557,555,551,541,535,515,492,468,423,402,383,364,345,309,295,281,259,246,222,205,190,169,150,125,123,123,123,123,123,123,123,123,123,123,122,120,110,97],"timestamp_mouse":[18,38,58,78,98,120,138,159,180,198,219,239,258,280,298,319,338,358,378,398,419,438,458,478,499,518,539,558,578,598,618,638,658,679,699,719,738,758,778,799,818,838,858,878,900,919,938,958,978,999,1018,1038,1058,1078,1098,1118,1138,1158,1180,1199],"xSR":741.5,"ySR":469.95,"xT1":424.9,"yT1":0,"xT2":1058.1,"yT2":0,"toosoon":0,"cond_shown":"randomdotsizeEA","ratio_trial":250,"smaller_num":"3","larger_num":"12","correct_side":2,"subjID":"MarianaRojasMancera20","gender":"1","age":"9","school":"4"},{"start_time":1552309678379,"click_time":1552309679549,"finger_time":1552309678968,"fix_duration":250,"trial":9,"RT":589,"MT":581,"sideResp":2,"stimulus":"img/250/randomdotsizeEA/R/11_Ratio_250_L_3_R_12.png","xmouse":[810,810,810,810,810,810,810,810,810,810,810,810,810,810,810,810,810,810,810,810,810,810,810,809,808,808,808,808,816,820,825,831,839,866,895,909,917,922,923,918,908,898,891,886,900,918,941,962,988,993,996,996,997,1000,1004,1005,1006,1020,1066],"ymouse":[540,540,540,540,540,540,540,540,540,540,540,540,540,540,540,540,540,540,540,540,540,540,538,537,535,533,528,519,490,467,445,422,400,355,319,299,282,265,251,225,209,194,182,166,147,135,125,116,107,104,103,102,101,97,94,93,92,84,69],"timestamp_mouse":[10,31,49,70,89,109,131,151,169,190,210,230,249,270,290,310,330,350,371,390,409,429,450,469,490,509,530,550,570,589,609,629,651,669,689,709,730,749,769,789,809,830,850,869,889,909,930,950,970,989,1010,1029,1049,1069,1090,1109,1130,1149,1169],"xSR":741.5,"ySR":469.95,"xT1":424.9,"yT1":0,"xT2":1058.1,"yT2":0,"toosoon":0,"cond_shown":"randomdotsizeEA","ratio_trial":250,"smaller_num":"3","larger_num":"12","correct_side":2,"subjID":"MarianaRojasMancera20","gender":"1","age":"9","school":"4"},{"start_time":1552309681716,"click_time":1552309682768,"finger_time":1552309682270,"fix_duration":1228.24807090985,"trial":10,"RT":554,"MT":498,"sideResp":2,"stimulus":"img/500/equaldotsize/R/1_Ratio_500_L_9_R_18.png","xmouse":[763,763,763,763,763,763,763,763,763,763,763,763,763,763,763,763,763,763,763,763,763,763,763,763,763,765,770,833,867,894,916,934,947,954,958,961,965,969,970,973,977,981,991,993,995,996,997,1006,1021,1036,1050,1058,1060],"ymouse":[476,476,476,476,476,476,476,476,476,476,476,476,476,476,476,476,476,476,476,476,476,476,476,476,476,475,472,440,424,407,389,373,346,325,307,291,274,247,241,231,218,204,174,162,154,149,144,125,110,101,94,91,90],"timestamp_mouse":[13,33,54,72,94,113,134,153,173,193,212,234,253,273,293,312,332,352,372,392,413,432,453,472,492,512,533,554,572,593,612,633,652,673,692,712,733,753,772,793,812,832,852,872,893,913,933,953,972,993,1013,1032,1052],"xSR":741.5,"ySR":469.95,"xT1":424.9,"yT1":0,"xT2":1058.1,"yT2":0,"toosoon":0,"cond_shown":"equaldotsize","ratio_trial":500,"smaller_num":"9","larger_num":"18","correct_side":2,"subjID":"MarianaRojasMancera20","gender":"1","age":"9","school":"4"},{"start_time":1552309684354,"click_time":1552309685428,"finger_time":1552309684849,"fix_duration":385.1742536760837,"trial":11,"RT":495,"MT":579,"sideResp":2,"stimulus":"img/900/randomdotsizeEA/L/4_Ratio_900_L_20_R_18.png","xmouse":[754,754,754,754,754,754,754,754,754,754,754,754,754,754,754,754,754,754,754,756,761,764,770,792,809,833,838,840,842,843,849,858,883,904,928,967,983,995,1005,1006,1010,1011,1011,1011,1011,1011,1011,1012,1012,1014,1029,1048,1055,1078],"ymouse":[524,524,524,524,524,524,524,524,524,524,524,524,524,524,524,524,524,524,524,524,519,514,504,475,454,428,421,419,417,414,407,397,377,358,333,285,265,247,232,226,213,209,205,201,198,192,189,184,178,171,147,126,119,97],"timestamp_mouse":[14,35,55,75,94,114,134,154,175,196,214,234,255,275,296,314,336,355,374,396,414,435,454,476,495,514,534,555,575,594,614,635,654,674,694,716,734,754,775,795,815,834,854,875,894,914,934,955,975,995,1014,1035,1054,1074],"xSR":741.5,"ySR":469.95,"xT1":424.9,"yT1":0,"xT2":1058.1,"yT2":0,"toosoon":0,"cond_shown":"randomdotsizeEA","ratio_trial":900,"smaller_num":"18","larger_num":"20","correct_side":1,"subjID":"MarianaRojasMancera20","gender":"1","age":"9","school":"4"},{"start_time":1552309687943,"click_time":1552309689468,"finger_time":1552309688569,"fix_duration":1433.8487493295606,"trial":12,"RT":626,"MT":899,"sideResp":1,"stimulus":"img/500/equaldotanddens/L/8_Ratio_500_L_8_R_4.png","xmouse":[807,807,807,807,807,807,807,807,807,807,807,807,807,807,807,807,807,807,807,807,807,807,807,807,807,807,807,807,807,803,800,788,758,720,678,639,608,599,595,591,586,568,556,547,542,542,542,542,542,542,541,539,539,538,538,538,535,533,532,532,532,532,530,529,528,528,528,528,528,528,528,528,528,528,527,525,518],"ymouse":[523,523,523,523,523,523,523,523,523,523,523,523,523,523,523,523,523,523,523,523,523,523,523,523,521,520,509,501,494,483,472,440,377,311,244,191,139,123,113,105,95,70,55,47,44,43,43,43,43,43,44,46,48,49,49,50,51,52,53,53,53,53,55,56,57,57,57,57,57,57,57,57,57,57,58,60,63],"timestamp_mouse":[7,26,46,66,86,105,126,147,165,186,205,225,246,265,285,306,325,346,366,386,405,426,447,466,485,506,525,545,566,586,606,626,645,665,685,706,725,745,766,786,805,825,846,865,886,905,926,947,966,985,1006,1026,1046,1065,1087,1105,1125,1145,1167,1187,1206,1225,1245,1265,1287,1305,1326,1345,1367,1387,1406,1426,1445,1465,1486,1505,1525],"xSR":741.5,"ySR":469.95,"xT1":424.9,"yT1":0,"xT2":1058.1,"yT2":0,"toosoon":0,"cond_shown":"equaldotanddens","ratio_trial":500,"smaller_num":"4","larger_num":"8","correct_side":1,"subjID":"MarianaRojasMancera20","gender":"1","age":"9","school":"4"},{"start_time":1552309691163,"click_time":1552309692749,"finger_time":1552309692269,"fix_duration":693.3608227603781,"trial":13,"RT":1106,"MT":480,"sideResp":1,"stimulus":"img/750/equaldotanddens/L/10_Ratio_750_L_4_R_3.png","xmouse":[780,785,788,789,791,791,791,791,791,791,789,786,784,782,782,782,782,782,782,782,782,782,782,782,782,782,782,782,782,782,782,782,782,782,782,782,782,782,782,782,782,782,782,782,782,782,782,782,782,781,781,777,774,770,763,743,731,713,696,684,668,653,647,638,627,617,598,598,598,598,597,581,575,571,567,562,550,540,526,499],"ymouse":[530,526,525,524,522,522,522,522,522,522,524,528,529,530,530,530,530,530,530,530,530,530,530,530,530,530,530,530,530,530,530,530,530,530,530,530,530,530,530,530,530,530,530,530,530,530,528,525,521,519,516,506,501,492,475,439,417,388,359,338,310,271,257,242,228,219,205,205,205,205,205,192,187,179,171,160,142,128,113,93],"timestamp_mouse":[5,25,45,66,85,105,127,147,166,186,205,225,245,265,287,306,326,346,366,386,406,425,445,465,485,506,525,546,566,585,605,626,647,665,686,706,726,745,767,786,805,825,845,865,886,907,925,946,966,986,1006,1026,1045,1066,1085,1106,1125,1145,1165,1186,1206,1226,1245,1265,1285,1305,1325,1345,1366,1385,1405,1425,1445,1465,1485,1505,1525,1546,1565,1586],"xSR":741.5,"ySR":469.95,"xT1":424.9,"yT1":0,"xT2":1058.1,"yT2":0,"toosoon":0,"cond_shown":"equaldotanddens","ratio_trial":750,"smaller_num":"3","larger_num":"4","correct_side":1,"subjID":"MarianaRojasMancera20","gender":"1","age":"9","school":"4"},{"start_time":1552309694501,"click_time":1552309695708,"finger_time":1552309694949,"fix_duration":250,"trial":14,"RT":448,"MT":759,"sideResp":1,"stimulus":"img/900/randomdotsizeEA/L/8_Ratio_900_L_20_R_18.png","xmouse":[762,762,762,762,762,762,762,762,762,762,762,762,762,762,762,762,762,762,762,761,756,752,741,737,731,730,729,728,728,725,721,715,704,693,673,658,643,628,621,604,595,586,572,559,534,530,529,529,527,524,522,518,517,517,517,517,517,517,517,516,515],"ymouse":[516,516,516,516,516,516,516,516,516,516,516,516,516,516,516,516,516,516,515,514,510,507,497,491,478,475,472,470,466,452,441,428,411,394,365,345,326,307,295,263,247,233,214,197,158,148,140,133,128,115,109,102,101,101,101,101,101,101,101,100,99],"timestamp_mouse":[7,28,47,69,88,108,128,148,167,188,207,227,249,268,289,307,327,348,367,387,409,428,448,468,488,507,527,548,568,587,607,627,647,668,687,707,727,747,767,787,807,828,847,867,887,907,929,947,968,987,1007,1027,1049,1067,1087,1108,1127,1148,1168,1187,1207],"xSR":741.5,"ySR":469.95,"xT1":424.9,"yT1":0,"xT2":1058.1,"yT2":0,"toosoon":0,"cond_shown":"randomdotsizeEA","ratio_trial":900,"smaller_num":"18","larger_num":"20","correct_side":1,"subjID":"MarianaRojasMancera20","gender":"1","age":"9","school":"4"},{"start_time":1552309697853,"click_time":1552309699268,"finger_time":1552309698608,"fix_duration":1064.4687719742926,"trial":15,"RT":755,"MT":660,"sideResp":2,"stimulus":"img/750/randomdotsizeEA/R/12_Ratio_750_L_3_R_4.png","xmouse":[789,789,789,789,789,789,789,789,789,789,789,789,789,789,789,789,789,789,789,789,789,789,789,789,789,789,789,789,789,789,789,789,789,789,790,791,802,842,861,871,883,896,898,902,907,913,925,928,931,934,937,941,962,971,978,987,995,1017,1032,1043,1050,1061,1063,1063,1063,1063,1063,1063,1063,1064,1066],"ymouse":[547,547,547,547,547,547,547,547,547,547,547,547,547,547,547,547,547,547,547,547,547,547,547,547,547,547,547,547,547,547,547,547,547,547,544,541,529,469,437,412,378,331,310,296,279,262,235,227,220,217,213,209,197,190,185,178,169,152,143,131,122,106,103,102,102,102,102,102,102,101,99],"timestamp_mouse":[16,36,56,76,95,116,137,156,175,195,215,236,257,276,295,316,336,355,375,397,416,435,455,477,496,515,535,557,575,595,615,636,655,675,695,715,735,755,777,796,816,836,855,875,895,916,935,955,975,996,1015,1035,1055,1075,1095,1115,1137,1155,1175,1196,1216,1236,1255,1275,1295,1317,1337,1356,1376,1395,1415],"xSR":741.5,"ySR":469.95,"xT1":424.9,"yT1":0,"xT2":1058.1,"yT2":0,"toosoon":0,"cond_shown":"randomdotsizeEA","ratio_trial":750,"smaller_num":"3","larger_num":"4","correct_side":2,"subjID":"MarianaRojasMancera20","gender":"1","age":"9","school":"4"},{"start_time":1552309701224,"click_time":1552309702748,"finger_time":1552309702089,"fix_duration":833.3568298445567,"trial":16,"RT":865,"MT":659,"sideResp":2,"stimulus":"img/250/randomdotsizeEA/R/8_Ratio_250_L_1_R_4.png","xmouse":[770,770,770,770,770,770,770,770,770,770,770,770,770,770,770,770,770,770,770,770,770,770,770,770,770,770,770,770,770,770,770,770,770,770,770,770,770,770,771,771,769,764,754,744,729,723,719,714,710,694,683,675,654,635,607,596,587,584,584,584,584,584,588,596,630,652,676,704,734,833,891,895,932,974,1060,1105,1144],"ymouse":[538,538,538,538,538,538,538,538,538,538,538,538,538,538,538,538,538,538,538,538,538,538,538,538,538,538,538,538,538,538,538,538,538,538,538,538,538,538,538,531,517,501,471,449,409,390,373,359,346,321,306,297,267,243,207,191,176,170,169,167,166,165,165,165,165,167,170,173,178,178,178,178,175,166,129,106,86],"timestamp_mouse":[5,26,44,65,85,104,126,145,165,186,205,225,244,264,286,304,325,345,364,385,404,424,446,465,485,504,524,544,566,584,605,624,644,665,685,704,724,744,765,784,805,824,845,865,886,905,924,944,966,985,1004,1024,1045,1065,1084,1104,1125,1144,1165,1185,1204,1224,1244,1264,1286,1304,1325,1344,1365,1385,1404,1424,1444,1464,1484,1504,1524],"xSR":741.5,"ySR":469.95,"xT1":424.9,"yT1":0,"xT2":1058.1,"yT2":0,"toosoon":0,"cond_shown":"randomdotsizeEA","ratio_trial":250,"smaller_num":"1","larger_num":"4","correct_side":2,"subjID":"MarianaRojasMancera20","gender":"1","age":"9","school":"4"},{"start_time":1552309705322,"click_time":1552309706509,"finger_time":1552309705949,"fix_duration":1251.2851828646535,"trial":17,"RT":627,"MT":560,"sideResp":1,"stimulus":"img/250/equaldotanddens/L/3_Ratio_250_L_8_R_2.png","xmouse":[840,840,840,840,840,840,840,840,840,840,838,837,836,835,835,835,835,835,835,835,835,835,835,835,835,835,834,834,835,835,832,826,820,816,805,805,798,776,766,701,681,676,671,666,662,658,655,651,649,647,643,633,626,619,602,592,580,567,547,457],"ymouse":[542,542,542,542,542,542,542,542,542,542,544,545,545,545,546,546,546,546,546,546,546,546,546,546,546,546,545,542,531,501,482,454,434,416,380,380,368,335,321,241,222,217,211,208,204,200,197,191,188,185,178,168,162,156,145,140,133,127,118,70],"timestamp_mouse":[6,27,47,67,86,107,127,146,167,186,206,227,247,268,287,306,326,347,367,386,406,426,447,466,486,508,526,548,566,587,607,627,646,666,687,707,726,746,767,787,806,826,846,867,887,908,926,946,966,986,1006,1026,1047,1066,1087,1107,1126,1148,1167,1187],"xSR":741.5,"ySR":469.95,"xT1":424.9,"yT1":0,"xT2":1058.1,"yT2":0,"toosoon":0,"cond_shown":"equaldotanddens","ratio_trial":250,"smaller_num":"2","larger_num":"8","correct_side":1,"subjID":"MarianaRojasMancera20","gender":"1","age":"9","school":"4"},{"start_time":1552309708677,"click_time":1552309709749,"finger_time":1552309709469,"fix_duration":969.0168491768129,"trial":18,"RT":792,"MT":280,"sideResp":1,"stimulus":"img/500/equaldotanddens/L/10_Ratio_500_L_4_R_2.png","xmouse":[774,774,774,774,774,774,774,774,774,774,774,774,774,774,774,774,774,774,774,774,774,774,774,774,774,774,774,774,774,774,774,774,774,774,774,774,774,764,754,737,717,695,655,646,637,635,630,629,627,618,605,557,531,514],"ymouse":[525,525,525,525,525,525,525,525,525,525,525,525,525,525,525,525,525,525,525,525,525,525,525,525,525,525,525,525,525,525,525,525,525,525,525,525,523,501,476,438,392,346,251,226,201,195,186,184,182,170,154,108,88,76],"timestamp_mouse":[11,32,52,71,91,111,132,152,172,191,212,232,251,271,291,311,331,351,371,392,411,432,452,471,492,512,531,551,571,591,611,632,651,671,693,712,731,751,771,792,811,831,851,872,891,912,932,951,971,992,1011,1032,1051,1071],"xSR":741.5,"ySR":469.95,"xT1":424.9,"yT1":0,"xT2":1058.1,"yT2":0,"toosoon":0,"cond_shown":"equaldotanddens","ratio_trial":500,"smaller_num":"2","larger_num":"4","correct_side":1,"subjID":"MarianaRojasMancera20","gender":"1","age":"9","school":"4"},{"start_time":1552309712853,"click_time":1552309714068,"finger_time":1552309713488,"fix_duration":705.8352888156961,"trial":19,"RT":635,"MT":580,"sideResp":2,"stimulus":"img/250/equaldotsize/R/10_Ratio_250_L_4_R_16.png","xmouse":[752,752,752,752,752,752,752,752,752,752,750,750,750,750,750,750,750,750,749,748,748,748,748,748,748,748,748,748,748,748,748,752,762,780,781,794,805,815,849,868,891,913,933,963,974,982,992,997,1002,1004,1006,1009,1010,1014,1016,1020,1024,1028,1042,1052,1060],"ymouse":[478,478,478,478,478,478,478,478,478,478,478,478,478,478,478,478,478,478,478,478,478,478,478,478,478,478,478,478,478,476,474,467,456,431,431,406,377,351,295,276,259,244,230,209,203,199,196,195,192,190,189,185,182,176,173,167,160,152,126,107,89],"timestamp_mouse":[15,35,56,76,95,116,135,155,176,195,215,235,257,275,295,315,335,355,375,396,415,437,455,475,495,515,537,555,575,595,616,635,656,675,695,715,736,755,775,795,815,836,855,875,895,915,936,955,975,995,1015,1036,1055,1075,1095,1115,1135,1155,1175,1195,1215],"xSR":741.5,"ySR":469.95,"xT1":424.9,"yT1":0,"xT2":1058.1,"yT2":0,"toosoon":0,"cond_shown":"equaldotsize","ratio_trial":250,"smaller_num":"4","larger_num":"16","correct_side":2,"subjID":"MarianaRojasMancera20","gender":"1","age":"9","school":"4"},{"start_time":1552309716060,"click_time":1552309717168,"finger_time":1552309716728,"fix_duration":250,"trial":20,"RT":668,"MT":440,"sideResp":1,"stimulus":"img/500/equaldotsize/L/5_Ratio_500_L_4_R_2.png","xmouse":[795,795,795,795,795,795,795,795,795,795,795,795,795,795,795,795,795,795,795,795,795,795,795,795,795,795,795,795,795,795,795,794,793,787,783,776,758,738,688,653,614,593,586,582,579,578,577,576,571,571,571,570,567,539,529,522],"ymouse":[485,485,485,485,485,485,485,485,486,486,486,486,486,486,486,486,486,486,486,486,486,486,486,486,486,486,486,486,486,486,484,482,480,463,447,422,385,344,254,202,147,117,108,101,85,76,66,57,51,51,51,51,51,53,54,54],"timestamp_mouse":[8,28,48,69,88,108,128,148,168,188,208,230,249,269,289,308,329,348,369,388,408,429,448,468,488,508,528,549,569,588,608,628,648,668,688,708,728,748,769,788,809,828,849,868,889,908,928,948,969,988,1009,1028,1048,1069,1088,1108],"xSR":741.5,"ySR":469.95,"xT1":424.9,"yT1":0,"xT2":1058.1,"yT2":0,"toosoon":0,"cond_shown":"equaldotsize","ratio_trial":500,"smaller_num":"2","larger_num":"4","correct_side":1,"subjID":"MarianaRojasMancera20","gender":"1","age":"9","school":"4"},{"start_time":1552309719702,"click_time":1552309720848,"finger_time":1552309720309,"fix_duration":974.3335021890276,"trial":21,"RT":607,"MT":539,"sideResp":1,"stimulus":"img/750/equaldotsize/L/8_Ratio_750_L_4_R_3.png","xmouse":[796,796,796,796,796,794,793,793,792,792,792,791,791,791,791,791,791,790,790,790,790,790,790,789,788,787,786,781,777,775,773,771,771,771,771,769,760,723,701,680,654,649,642,639,634,630,624,608,593,587,578,575,566,560,552,545,536,512],"ymouse":[519,519,519,519,519,519,520,520,521,521,521,521,521,521,521,521,521,522,522,522,522,522,522,522,522,522,522,516,493,480,425,384,315,276,247,220,187,144,129,115,95,90,80,78,75,74,74,72,68,67,64,64,62,62,60,59,58,56],"timestamp_mouse":[8,27,48,67,87,108,126,147,167,186,207,227,246,266,287,306,328,346,367,387,406,427,446,466,486,506,527,547,566,587,607,626,646,666,687,706,726,746,766,786,806,827,846,866,886,907,926,946,966,986,1006,1026,1046,1066,1086,1106,1128,1146],"xSR":741.5,"ySR":469.95,"xT1":424.9,"yT1":0,"xT2":1058.1,"yT2":0,"toosoon":0,"cond_shown":"equaldotsize","ratio_trial":750,"smaller_num":"3","larger_num":"4","correct_side":1,"subjID":"MarianaRojasMancera20","gender":"1","age":"9","school":"4"},{"start_time":1552309748926,"click_time":1552309749609,"finger_time":1552309749508,"fix_duration":1437.9750472805595,"trial":22,"RT":582,"MT":101,"sideResp":2,"stimulus":"img/250/equaldotsize/R/6_Ratio_250_L_6_R_24.png","xmouse":[804,804,804,804,804,804,804,804,804,804,804,804,804,804,804,804,804,804,804,804,804,804,804,804,804,804,804,806,807,823,840,867,913,966,1085],"ymouse":[494,495,495,495,495,495,495,495,495,495,495,495,495,495,495,495,495,495,495,495,495,495,495,495,495,495,493,490,487,450,412,350,272,181,18],"timestamp_mouse":[3,23,43,63,82,102,122,142,162,182,203,223,242,263,283,302,323,342,364,384,403,422,442,463,483,504,523,542,562,582,602,622,642,662,683],"xSR":741.5,"ySR":469.95,"xT1":424.9,"yT1":0,"xT2":1058.1,"yT2":0,"toosoon":0,"cond_shown":"equaldotsize","ratio_trial":250,"smaller_num":"6","larger_num":"24","correct_side":2,"subjID":"MarianaRojasMancera20","gender":"1","age":"9","school":"4"},{"start_time":1552309755543,"click_time":1552309756389,"finger_time":1552309756068,"fix_duration":834.5862137735486,"trial":23,"RT":525,"MT":321,"sideResp":1,"stimulus":"img/750/equaldotanddens/L/13_Ratio_750_L_8_R_6.png","xmouse":[803,803,803,803,803,803,801,800,798,788,782,776,771,771,771,771,774,778,782,783,783,784,784,785,781,776,766,746,722,677,629,629,629,629,629,629,629,629,629,629,629,629,496],"ymouse":[529,529,529,529,529,529,529,529,529,535,539,543,546,546,546,546,544,539,534,532,532,532,531,530,515,498,466,396,312,145,8,8,8,8,8,8,8,8,8,8,8,8,3],"timestamp_mouse":[5,26,46,66,86,105,125,145,165,186,205,225,245,265,286,305,326,345,365,386,405,425,445,465,485,505,525,545,566,585,605,626,645,666,686,705,726,746,765,785,805,826,846],"xSR":741.5,"ySR":469.95,"xT1":424.9,"yT1":0,"xT2":1058.1,"yT2":0,"toosoon":0,"cond_shown":"equaldotanddens","ratio_trial":750,"smaller_num":"6","larger_num":"8","correct_side":1,"subjID":"MarianaRojasMancera20","gender":"1","age":"9","school":"4"},{"start_time":1552309759605,"click_time":1552309760788,"finger_time":1552309760348,"fix_duration":1135.7688066312671,"trial":24,"RT":743,"MT":440,"sideResp":2,"stimulus":"img/900/randomdotsizeEA/R/7_Ratio_900_L_9_R_10.png","xmouse":[765,765,765,765,765,765,765,765,765,765,765,765,765,765,765,765,765,765,765,765,763,761,759,758,755,753,751,751,751,751,751,751,751,751,751,751,755,788,836,917,1020,1212,1245,1266,1274,1274,1274,1274,1274,1274,1274,1269,1262,1254,1247,1243,1220,1210,1191,1158],"ymouse":[539,539,539,539,539,539,539,539,539,539,539,539,539,539,539,539,539,539,539,539,539,539,537,536,533,532,529,529,529,529,529,529,529,529,528,527,514,463,411,340,268,153,131,114,103,100,98,96,94,94,93,89,86,83,82,82,83,85,90,99],"timestamp_mouse":[4,24,44,63,83,104,124,145,163,184,203,223,244,263,285,303,323,344,364,384,403,423,443,463,483,503,524,544,563,584,604,624,644,664,683,703,723,743,763,783,803,824,843,863,883,904,924,944,964,984,1004,1024,1043,1064,1083,1103,1124,1144,1163,1183],"xSR":741.5,"ySR":469.95,"xT1":424.9,"yT1":0,"xT2":1058.1,"yT2":0,"toosoon":0,"cond_shown":"randomdotsizeEA","ratio_trial":900,"smaller_num":"9","larger_num":"10","correct_side":2,"subjID":"MarianaRojasMancera20","gender":"1","age":"9","school":"4"},{"start_time":1552309763695,"click_time":1552309765108,"finger_time":1552309764208,"fix_duration":1305.5837573997494,"trial":25,"RT":513,"MT":900,"sideResp":1,"stimulus":"img/750/equaldotsize/L/8_Ratio_750_L_4_R_3.png","xmouse":[746,746,746,746,746,746,746,746,746,746,746,746,746,746,746,746,746,747,749,750,750,750,750,750,750,748,742,727,714,695,683,675,662,657,652,649,648,645,644,642,640,638,636,636,636,636,635,629,619,610,605,603,599,597,594,591,588,558,540,525,521,519,517,517,516,515,514,509,494,486,482],"ymouse":[515,515,515,515,515,515,515,515,515,515,515,515,515,515,515,515,515,510,500,495,492,490,482,477,472,466,454,431,417,395,379,362,329,309,290,274,257,230,219,212,208,205,202,202,202,202,200,193,186,179,176,174,173,172,172,172,171,166,161,154,152,149,145,143,142,140,139,133,117,101,91],"timestamp_mouse":[13,34,53,73,93,113,133,153,174,193,213,233,254,274,294,313,334,353,374,394,413,433,454,473,494,513,533,553,573,593,614,633,653,673,693,713,734,753,773,793,814,833,853,873,894,913,933,953,973,994,1014,1033,1053,1073,1093,1113,1134,1153,1173,1193,1214,1233,1253,1273,1294,1313,1333,1353,1373,1393,1413],"xSR":741.5,"ySR":469.95,"xT1":424.9,"yT1":0,"xT2":1058.1,"yT2":0,"toosoon":0,"cond_shown":"equaldotsize","ratio_trial":750,"smaller_num":"3","larger_num":"4","correct_side":1,"subjID":"MarianaRojasMancera20","gender":"1","age":"9","school":"4"},{"start_time":1552309766840,"click_time":1552309768911,"finger_time":1552309767668,"fix_duration":250,"trial":26,"RT":828,"MT":1243,"sideResp":1,"stimulus":"img/500/randomdotsizeEA/L/13_Ratio_500_L_12_R_6.png","xmouse":[775,775,775,775,775,775,775,775,775,775,775,775,775,775,775,775,775,775,775,775,775,775,775,775,775,775,775,775,775,775,775,775,775,775,775,775,775,775,775,775,779,779,779,779,775,765,762,762,762,762,762,762,761,759,750,731,724,714,708,704,695,694,692,687,677,631,591,579,559,549,545,545,545,545,545,545,545,545,548,548,548,548,548,548,548,545,542,541,541,541,541,541,540,538,538,537,537,536,536,535,531,527,526,524],"ymouse":[494,494,494,494,494,494,494,494,494,494,494,494,494,494,494,494,494,494,494,494,494,494,494,494,494,494,494,494,494,494,494,494,494,494,494,494,494,494,494,493,485,469,456,441,420,382,377,377,377,377,377,377,374,368,353,313,292,264,239,224,207,205,203,199,194,173,159,152,143,138,138,138,138,138,138,138,137,134,124,122,116,115,115,115,112,104,102,102,102,102,102,102,101,100,99,98,97,96,96,96,95,93,92,91],"timestamp_mouse":[9,28,49,68,89,108,128,148,169,188,208,229,248,269,289,308,328,348,368,389,409,428,448,468,488,508,529,549,569,588,608,628,648,668,688,708,729,748,768,788,808,828,848,868,888,909,929,948,968,989,1008,1029,1048,1068,1088,1108,1128,1148,1169,1189,1209,1229,1248,1268,1288,1309,1328,1349,1369,1388,1409,1430,1448,1469,1488,1509,1528,1548,1568,1588,1608,1629,1648,1669,1688,1709,1728,1749,1769,1788,1809,1829,1851,1870,1891,1912,1931,1951,1971,1990,2011,2031,2051,2071],"xSR":741.5,"ySR":469.95,"xT1":424.9,"yT1":0,"xT2":1058.1,"yT2":0,"toosoon":0,"cond_shown":"randomdotsizeEA","ratio_trial":500,"smaller_num":"6","larger_num":"12","correct_side":1,"subjID":"MarianaRojasMancera20","gender":"1","age":"9","school":"4"},{"start_time":1552309771548,"click_time":1552309773010,"finger_time":1552309772391,"fix_duration":836.8407098910526,"trial":27,"RT":843,"MT":619,"sideResp":1,"stimulus":"img/500/randomdotsizeEA/L/13_Ratio_500_L_12_R_6.png","xmouse":[814,814,814,814,814,814,814,814,814,814,814,814,814,814,814,814,814,814,814,814,814,815,815,815,815,815,815,815,815,815,815,815,815,815,815,815,815,815,815,815,815,814,819,835,839,838,816,805,793,782,772,754,731,720,704,692,679,676,671,659,647,632,632,632,631,625,581,551,535,531,529,526,525,523],"ymouse":[533,533,533,533,533,533,533,533,533,533,533,533,532,532,532,532,532,532,532,531,530,529,529,529,529,529,529,529,529,529,529,529,529,529,529,529,529,529,529,529,527,496,414,328,270,247,199,178,160,145,132,118,108,105,102,100,97,97,97,97,96,94,94,94,94,94,94,94,94,94,94,94,94,93],"timestamp_mouse":[3,22,42,64,82,102,123,144,163,182,202,222,244,262,282,302,322,342,364,382,403,423,443,464,482,502,522,544,564,582,603,623,643,664,683,704,723,744,764,783,802,823,843,863,882,902,923,943,963,983,1003,1022,1043,1063,1082,1102,1122,1142,1164,1183,1203,1222,1243,1264,1282,1303,1322,1343,1363,1383,1403,1423,1442,1462],"xSR":741.5,"ySR":469.95,"xT1":424.9,"yT1":0,"xT2":1058.1,"yT2":0,"toosoon":0,"cond_shown":"randomdotsizeEA","ratio_trial":500,"smaller_num":"6","larger_num":"12","correct_side":1,"subjID":"MarianaRojasMancera20","gender":"1","age":"9","school":"4"},{"start_time":1552309785153,"click_time":1552309786091,"finger_time":1552309785671,"fix_duration":1262.551118295426,"trial":28,"RT":518,"MT":420,"sideResp":1,"stimulus":"img/750/randomdotsizeEA/R/15_Ratio_750_L_9_R_12.png","xmouse":[796,796,796,796,796,796,796,796,796,796,796,796,796,796,796,796,796,796,796,796,796,796,796,796,796,793,789,770,763,749,724,650,606,566,547,538,535,535,535,534,530,525,525,525,525,525,524],"ymouse":[515,515,515,515,515,515,515,515,515,515,515,515,515,515,515,515,515,515,515,513,512,510,503,495,485,466,456,417,400,373,328,217,157,102,68,47,35,34,33,32,29,25,24,24,24,24,24],"timestamp_mouse":[18,38,57,77,99,118,139,158,178,197,218,237,257,279,299,319,338,357,378,398,418,437,458,478,498,518,538,558,578,599,618,638,657,678,698,717,738,757,777,798,818,839,859,878,898,917,937],"xSR":741.5,"ySR":469.95,"xT1":424.9,"yT1":0,"xT2":1058.1,"yT2":0,"toosoon":0,"cond_shown":"randomdotsizeEA","ratio_trial":750,"smaller_num":"9","larger_num":"12","correct_side":2,"subjID":"MarianaRojasMancera20","gender":"1","age":"9","school":"4"},{"start_time":1552309788484,"click_time":1552309789851,"finger_time":1552309789091,"fix_duration":653.7872814641208,"trial":29,"RT":607,"MT":760,"sideResp":1,"stimulus":"img/750/equaldotanddens/L/14_Ratio_750_L_8_R_6.png","xmouse":[749,749,749,749,749,750,752,752,752,752,752,755,757,760,763,767,770,770,770,770,771,778,781,781,781,781,781,782,783,783,783,781,775,765,754,738,694,680,654,634,623,623,623,623,623,623,623,623,623,623,623,623,623,623,373,382,400,408,410,411,411,413,413,413,415,416,420,422,426],"ymouse":[492,492,492,492,492,492,492,492,492,492,492,492,492,491,491,490,489,489,489,489,489,487,487,487,487,487,487,486,485,475,461,421,384,344,305,261,153,111,51,14,2,2,2,2,2,2,2,2,2,2,2,2,2,2,33,52,75,81,82,82,82,83,83,83,83,83,83,83,83],"timestamp_mouse":[6,27,48,67,87,107,126,147,167,186,206,228,247,266,286,306,327,347,367,386,407,426,447,467,487,507,527,546,567,588,607,626,646,668,687,706,726,747,766,787,807,826,846,867,887,908,928,947,967,987,1006,1026,1047,1067,1087,1108,1126,1146,1167,1187,1207,1227,1246,1266,1287,1308,1327,1347,1367],"xSR":741.5,"ySR":469.95,"xT1":424.9,"yT1":0,"xT2":1058.1,"yT2":0,"toosoon":0,"cond_shown":"equaldotanddens","ratio_trial":750,"smaller_num":"6","larger_num":"8","correct_side":1,"subjID":"MarianaRojasMancera20","gender":"1","age":"9","school":"4"},{"start_time":1552309795039,"click_time":1552309796230,"finger_time":1552309795611,"fix_duration":507.1697249107965,"trial":30,"RT":572,"MT":619,"sideResp":1,"stimulus":"img/900/equaldotanddens/R/9_Ratio_900_L_18_R_20.png","xmouse":[816,816,816,816,816,816,816,816,816,816,816,816,816,816,816,816,816,816,816,816,816,811,807,798,785,780,775,770,758,721,686,640,590,549,466,425,394,374,366,368,377,392,404,420,423,423,423,423,421,420,420,419,418,418,414,413,413,415,419,426],"ymouse":[506,506,506,506,506,506,506,506,506,506,506,506,506,506,506,506,506,506,506,506,506,506,504,498,489,485,480,475,462,433,411,380,346,315,248,217,194,181,174,173,169,163,157,144,137,135,132,130,129,128,128,126,123,121,112,106,101,92,88,83],"timestamp_mouse":[12,33,52,73,93,112,133,152,173,193,211,232,252,273,293,311,332,351,372,392,413,432,452,471,491,513,532,552,572,591,611,631,651,671,692,712,731,751,773,793,812,831,852,872,891,912,932,951,972,993,1012,1033,1052,1072,1092,1112,1132,1152,1171,1191],"xSR":741.5,"ySR":469.95,"xT1":424.9,"yT1":0,"xT2":1058.1,"yT2":0,"toosoon":0,"cond_shown":"equaldotanddens","ratio_trial":900,"smaller_num":"18","larger_num":"20","correct_side":2,"subjID":"MarianaRojasMancera20","gender":"1","age":"9","school":"4"},{"start_time":1552309808662,"click_time":1552309809651,"finger_time":1552309809231,"fix_duration":1469.3388926681914,"trial":31,"RT":569,"MT":420,"sideResp":1,"stimulus":"img/750/equaldotanddens/L/13_Ratio_750_L_8_R_6.png","xmouse":[818,818,817,816,815,815,815,814,814,813,813,813,813,813,813,813,813,813,813,813,813,813,813,813,813,812,812,812,812,799,779,764,747,734,699,676,664,659,658,656,646,637,630,624,614,603,585,563,542,507],"ymouse":[490,490,490,491,492,492,492,492,492,493,493,493,493,493,493,493,493,493,493,493,493,493,493,493,493,491,487,472,454,409,371,347,325,308,268,244,224,209,199,182,162,148,135,123,103,90,72,55,41,19],"timestamp_mouse":[9,29,49,68,88,108,129,149,168,189,210,228,249,270,289,308,328,349,368,389,410,428,448,470,489,508,528,548,569,589,609,628,649,669,689,708,729,748,768,789,809,829,848,868,889,908,929,949,968,989],"xSR":741.5,"ySR":469.95,"xT1":424.9,"yT1":0,"xT2":1058.1,"yT2":0,"toosoon":0,"cond_shown":"equaldotanddens","ratio_trial":750,"smaller_num":"6","larger_num":"8","correct_side":1,"subjID":"MarianaRojasMancera20","gender":"1","age":"9","school":"4"},{"start_time":1552309812505,"click_time":1552309814152,"finger_time":1552309813291,"fix_duration":612.7067549355311,"trial":32,"RT":786,"MT":861,"sideResp":2,"stimulus":"img/250/randomdotsizeEA/R/4_Ratio_250_L_3_R_12.png","xmouse":[795,795,795,795,795,795,795,795,795,795,795,795,795,795,795,795,795,795,795,795,795,795,795,795,795,795,795,795,795,795,795,795,795,795,795,795,795,796,803,809,818,830,860,879,897,913,922,927,935,944,956,969,998,1012,1028,1041,1053,1070,1087,1093,1098,1102,1105,1107,1108,1108,1110,1112,1115,1115,1115,1115,1115,1115,1115,1115,1115,1115,1115,1115,1115,1115,1117],"ymouse":[546,546,546,546,546,546,546,546,546,546,546,546,546,546,546,546,546,546,546,546,546,546,546,546,546,546,546,546,546,546,546,546,546,546,546,537,523,510,482,468,451,433,402,389,377,369,364,357,342,330,315,300,267,248,228,210,194,170,146,139,133,129,126,125,123,122,119,113,108,107,107,107,107,107,107,106,105,104,104,104,103,103,98],"timestamp_mouse":[8,26,47,66,86,107,125,145,166,187,206,226,245,267,285,306,327,346,366,387,406,425,446,465,485,506,527,546,566,587,606,625,646,666,686,706,725,745,765,786,806,826,847,866,887,906,927,946,966,986,1006,1026,1047,1065,1087,1105,1125,1145,1165,1185,1207,1226,1247,1265,1285,1305,1325,1345,1366,1386,1406,1427,1446,1465,1486,1505,1526,1546,1567,1587,1605,1626,1647],"xSR":741.5,"ySR":469.95,"xT1":424.9,"yT1":0,"xT2":1058.1,"yT2":0,"toosoon":0,"cond_shown":"randomdotsizeEA","ratio_trial":250,"smaller_num":"3","larger_num":"12","correct_side":2,"subjID":"MarianaRojasMancera20","gender":"1","age":"9","school":"4"},{"start_time":1552309815578,"click_time":1552309816951,"finger_time":1552309816311,"fix_duration":466.67716508315647,"trial":33,"RT":733,"MT":640,"sideResp":1,"stimulus":"img/750/randomdotsizeEA/L/13_Ratio_750_L_8_R_6.png","xmouse":[811,811,811,811,811,811,811,811,811,811,811,811,811,811,811,811,811,811,811,811,811,811,811,811,812,812,812,813,813,814,814,814,814,814,812,809,807,803,798,787,772,757,733,710,682,676,671,666,660,634,600,573,553,540,535,535,535,535,535,535,535,535,535,535,535,535,534,530,520],"ymouse":[510,510,510,510,510,510,510,510,510,510,510,510,510,510,510,510,510,510,510,510,510,510,510,510,509,506,505,504,502,500,498,497,496,493,484,475,465,452,439,416,381,345,293,249,184,168,159,151,146,134,115,96,82,70,66,66,66,66,66,66,66,66,66,66,66,66,66,66,64],"timestamp_mouse":[13,33,52,73,93,112,133,154,172,193,212,233,253,272,292,313,333,352,372,392,414,432,453,473,493,513,532,553,573,592,613,632,652,672,694,713,733,753,773,792,814,833,853,872,892,913,933,953,973,992,1013,1033,1053,1072,1093,1113,1133,1153,1173,1193,1213,1233,1253,1272,1293,1313,1333,1353,1373],"xSR":741.5,"ySR":469.95,"xT1":424.9,"yT1":0,"xT2":1058.1,"yT2":0,"toosoon":0,"cond_shown":"randomdotsizeEA","ratio_trial":750,"smaller_num":"6","larger_num":"8","correct_side":1,"subjID":"MarianaRojasMancera20","gender":"1","age":"9","school":"4"},{"start_time":1552309818599,"click_time":1552309819811,"finger_time":1552309819291,"fix_duration":528.8512390976239,"trial":34,"RT":692,"MT":520,"sideResp":2,"stimulus":"img/900/equaldotsize/L/8_Ratio_900_L_20_R_18.png","xmouse":[830,830,830,830,830,830,830,830,830,830,830,830,830,830,830,830,830,830,830,830,830,830,830,830,830,830,830,830,830,830,831,832,835,837,850,863,880,902,947,974,991,1006,1020,1041,1049,1057,1067,1075,1090,1092,1093,1093,1093,1091,1091,1091,1091,1091,1091,1091,1091],"ymouse":[538,538,538,538,538,538,538,538,538,538,538,538,538,538,538,538,538,538,538,538,538,538,538,538,538,538,538,538,538,538,536,532,526,517,489,472,452,428,372,331,306,288,271,246,236,225,210,197,159,148,139,133,131,126,124,122,118,115,106,103,99],"timestamp_mouse":[12,33,53,71,91,111,132,152,173,191,211,232,253,273,292,311,332,352,372,392,411,433,453,472,492,511,532,553,572,593,612,632,652,672,692,713,732,751,772,793,812,831,851,872,891,913,932,951,972,993,1012,1032,1052,1072,1091,1112,1132,1152,1172,1192,1211],"xSR":741.5,"ySR":469.95,"xT1":424.9,"yT1":0,"xT2":1058.1,"yT2":0,"toosoon":0,"cond_shown":"equaldotsize","ratio_trial":900,"smaller_num":"18","larger_num":"20","correct_side":1,"subjID":"MarianaRojasMancera20","gender":"1","age":"9","school":"4"},{"start_time":1552309821288,"click_time":1552309822750,"finger_time":1552309822071,"fix_duration":336.38265860403004,"trial":35,"RT":783,"MT":679,"sideResp":2,"stimulus":"img/500/equaldotanddens/R/3_Ratio_500_L_10_R_20.png","xmouse":[779,784,788,792,796,796,796,796,796,795,795,794,794,794,793,792,791,790,789,789,789,789,789,789,789,789,789,789,789,789,789,789,789,789,789,789,792,795,804,833,850,866,881,895,915,933,946,964,989,1010,1032,1034,1034,1034,1032,1030,1030,1030,1030,1030,1025,1022,1020,1019,1018,1018,1018,1018,1018,1020,1025,1031,1042,1067],"ymouse":[504,500,496,493,491,491,491,491,491,493,493,494,494,494,495,496,496,497,497,497,497,497,497,497,497,497,497,497,497,497,497,497,497,497,497,497,493,489,479,448,429,408,385,364,336,295,273,249,220,198,170,162,154,152,149,148,147,143,137,127,97,88,83,80,79,78,76,75,73,70,70,70,70,70],"timestamp_mouse":[3,24,43,62,84,104,122,143,163,184,203,223,243,262,283,303,323,342,363,384,403,423,444,464,484,503,523,544,563,582,603,622,643,663,684,704,723,742,762,783,802,822,842,864,882,903,923,943,963,983,1003,1023,1043,1064,1082,1102,1123,1143,1162,1182,1203,1223,1243,1263,1283,1302,1322,1344,1363,1383,1403,1422,1443,1462],"xSR":741.5,"ySR":469.95,"xT1":424.9,"yT1":0,"xT2":1058.1,"yT2":0,"toosoon":0,"cond_shown":"equaldotanddens","ratio_trial":500,"smaller_num":"10","larger_num":"20","correct_side":2,"subjID":"MarianaRojasMancera20","gender":"1","age":"9","school":"4"},{"start_time":1552309824816,"click_time":1552309825911,"finger_time":1552309825270,"fix_duration":383.3357931137243,"trial":36,"RT":454,"MT":641,"sideResp":1,"stimulus":"img/750/equaldotsize/R/11_Ratio_750_L_12_R_16.png","xmouse":[771,771,771,771,771,771,771,771,771,771,771,771,771,771,771,771,771,771,771,771,774,776,782,795,802,805,806,807,807,806,806,805,803,800,799,795,789,772,694,626,529,430,349,277,273,273,273,274,278,282,288,298,316,387,453],"ymouse":[494,494,494,494,494,494,494,494,494,494,494,494,495,495,496,496,496,496,496,496,490,483,463,420,394,383,377,373,370,370,368,367,363,349,341,319,301,276,213,179,142,102,66,26,21,18,18,16,16,16,16,16,20,39,58],"timestamp_mouse":[15,34,54,76,96,115,134,156,176,194,214,234,255,275,294,316,334,354,375,395,415,434,454,474,495,515,536,554,575,594,614,634,654,674,695,714,736,755,774,794,815,834,855,874,895,915,934,954,975,994,1015,1034,1055,1074,1095],"xSR":741.5,"ySR":469.95,"xT1":424.9,"yT1":0,"xT2":1058.1,"yT2":0,"toosoon":0,"cond_shown":"equaldotsize","ratio_trial":750,"smaller_num":"12","larger_num":"16","correct_side":2,"subjID":"MarianaRojasMancera20","gender":"1","age":"9","school":"4"},{"start_time":1552309828509,"click_time":1552309829594,"finger_time":1552309828714,"fix_duration":1397.2353794021378,"trial":37,"RT":205,"MT":880,"sideResp":2,"stimulus":"img/250/equaldotsize/R/12_Ratio_250_L_5_R_20.png","xmouse":[792,792,792,792,792,792,792,794,796,798,810,820,828,836,851,864,892,925,955,979,1016,1022,1023,1023,1023,1023,1023,1023,1025,1028,1032,1033,1037,1043,1061,1071,1077,1081,1082,1082,1082,1082,1082,1082,1083,1083,1083,1083,1083,1084,1087,1087,1087,1087,1089],"ymouse":[489,489,489,489,489,489,486,484,481,479,466,458,449,442,422,408,372,328,284,248,179,163,155,151,151,151,149,149,145,142,141,140,139,137,132,129,128,128,128,128,128,128,128,128,126,123,121,119,115,112,103,101,100,100,96],"timestamp_mouse":[3,21,42,62,83,101,122,141,162,184,205,224,244,264,284,303,324,343,363,384,404,424,444,464,485,505,525,544,565,584,604,624,644,664,684,703,724,744,763,785,805,824,844,863,885,904,924,944,965,984,1004,1025,1044,1064,1085],"xSR":741.5,"ySR":469.95,"xT1":424.9,"yT1":0,"xT2":1058.1,"yT2":0,"toosoon":0,"cond_shown":"equaldotsize","ratio_trial":250,"smaller_num":"5","larger_num":"20","correct_side":2,"subjID":"MarianaRojasMancera20","gender":"1","age":"9","school":"4"},{"start_time":1552309831199,"click_time":1552309832313,"finger_time":1552309831813,"fix_duration":606.5203756544046,"trial":38,"RT":614,"MT":500,"sideResp":2,"stimulus":"img/500/equaldotanddens/R/1_Ratio_500_L_9_R_18.png","xmouse":[798,798,798,798,798,798,798,798,798,798,797,793,785,780,777,777,777,777,777,777,777,777,777,777,777,777,779,783,790,799,816,825,837,856,871,904,920,932,950,989,1005,1020,1029,1035,1041,1064,1077,1088,1092,1094,1094,1094,1094,1094,1094,1094],"ymouse":[512,512,512,512,512,512,512,512,512,512,512,512,512,512,510,507,505,504,504,504,504,504,504,504,504,502,498,493,488,481,466,456,442,419,401,370,351,338,330,319,315,308,301,295,285,245,220,189,166,146,135,134,133,131,127,98],"timestamp_mouse":[13,34,54,73,94,115,134,154,175,195,213,233,254,275,295,315,334,355,374,395,415,434,454,473,495,514,535,554,574,593,614,634,654,674,694,714,734,755,774,795,814,834,854,874,894,913,934,954,974,995,1014,1034,1054,1074,1094,1114],"xSR":741.5,"ySR":469.95,"xT1":424.9,"yT1":0,"xT2":1058.1,"yT2":0,"toosoon":0,"cond_shown":"equaldotanddens","ratio_trial":500,"smaller_num":"9","larger_num":"18","correct_side":2,"subjID":"MarianaRojasMancera20","gender":"1","age":"9","school":"4"},{"start_time":1552309838520,"click_time":1552309839614,"finger_time":1552309838973,"fix_duration":1467.1044278788665,"trial":39,"RT":453,"MT":641,"sideResp":1,"stimulus":"img/500/equaldotsize/L/7_Ratio_500_L_10_R_5.png","xmouse":[815,815,814,813,811,810,810,810,810,809,807,807,804,803,799,795,794,793,792,791,782,772,761,744,716,688,677,671,667,666,661,656,650,643,628,609,600,592,583,573,559,554,554,554,557,557,557,557,557,557,555,550,539,525,488],"ymouse":[509,509,509,509,510,511,511,511,511,511,511,511,511,511,511,511,511,511,511,511,502,489,469,441,391,343,327,318,314,312,306,301,293,285,270,250,237,222,205,183,134,110,88,69,51,51,51,51,51,51,51,54,60,68,87],"timestamp_mouse":[14,32,52,73,93,113,133,153,172,194,212,234,253,273,292,313,333,354,373,393,413,434,453,472,494,514,533,553,573,593,613,634,653,672,693,713,733,753,773,794,813,832,853,873,894,914,933,952,973,992,1013,1033,1053,1074,1094],"xSR":741.5,"ySR":469.95,"xT1":424.9,"yT1":0,"xT2":1058.1,"yT2":0,"toosoon":0,"cond_shown":"equaldotsize","ratio_trial":500,"smaller_num":"5","larger_num":"10","correct_side":1,"subjID":"MarianaRojasMancera20","gender":"1","age":"9","school":"4"},{"start_time":1552309847423,"click_time":1552309848652,"finger_time":1552309847893,"fix_duration":250,"trial":40,"RT":470,"MT":759,"sideResp":1,"stimulus":"img/500/equaldotsize/L/11_Ratio_500_L_12_R_6.png","xmouse":[796,794,793,792,791,789,787,786,786,786,786,786,786,786,786,786,786,786,786,786,784,775,759,735,682,542,448,356,270,197,137,57,38,28,25,25,27,29,36,54,54,54,54,54,54,54,54,54,54,54,54,54,54,361,393,410,420,421,421,422,423,431],"ymouse":[512,513,513,513,514,516,518,519,519,519,520,520,520,520,520,520,520,520,520,520,520,513,504,493,459,395,356,313,265,216,173,107,88,70,47,34,19,15,7,0,0,0,0,0,0,0,0,0,0,0,0,0,0,3,7,10,13,14,14,15,16,18],"timestamp_mouse":[10,31,50,71,91,109,130,151,170,191,211,231,250,269,290,309,330,349,371,389,411,430,451,470,490,511,530,550,570,590,610,630,651,670,690,710,731,750,769,791,811,830,850,870,891,909,930,950,971,990,1010,1030,1050,1070,1090,1110,1130,1150,1170,1190,1209,1229],"xSR":741.5,"ySR":469.95,"xT1":424.9,"yT1":0,"xT2":1058.1,"yT2":0,"toosoon":0,"cond_shown":"equaldotsize","ratio_trial":500,"smaller_num":"6","larger_num":"12","correct_side":1,"subjID":"MarianaRojasMancera20","gender":"1","age":"9","school":"4"},{"start_time":1552309850124,"click_time":1552309851333,"finger_time":1552309850653,"fix_duration":250,"trial":41,"RT":529,"MT":680,"sideResp":1,"stimulus":"img/900/equaldotsize/R/9_Ratio_900_L_18_R_20.png","xmouse":[781,781,781,781,781,781,781,781,781,781,781,781,781,781,781,781,781,781,781,778,773,762,759,754,752,746,730,722,686,650,610,537,501,468,441,418,394,387,385,383,383,383,383,383,383,383,389,393,398,401,402,403,403,403,403,404,404,407,414,421,429],"ymouse":[496,496,496,496,496,496,496,496,496,496,496,496,496,496,497,497,497,498,498,498,498,498,498,496,494,492,485,480,455,429,397,331,293,255,220,190,147,134,125,120,116,111,101,96,91,84,68,61,54,51,51,51,51,51,51,51,51,51,51,52,54],"timestamp_mouse":[9,29,48,70,90,108,129,150,168,188,210,230,250,268,289,309,328,349,369,388,408,429,449,470,489,510,529,550,568,589,609,628,648,669,689,710,728,749,769,790,809,828,849,869,889,909,928,949,969,989,1009,1029,1049,1068,1088,1109,1129,1150,1169,1189,1209],"xSR":741.5,"ySR":469.95,"xT1":424.9,"yT1":0,"xT2":1058.1,"yT2":0,"toosoon":0,"cond_shown":"equaldotsize","ratio_trial":900,"smaller_num":"18","larger_num":"20","correct_side":2,"subjID":"MarianaRojasMancera20","gender":"1","age":"9","school":"4"},{"start_time":1552309866240,"click_time":1552309867293,"finger_time":1552309866893,"fix_duration":1106.3820479216436,"trial":42,"RT":653,"MT":400,"sideResp":1,"stimulus":"img/500/equaldotsize/L/8_Ratio_500_L_8_R_4.png","xmouse":[813,813,813,813,813,813,813,813,813,813,813,813,813,813,813,813,813,813,813,813,813,813,813,813,813,813,813,813,813,813,812,811,806,800,787,778,771,767,766,759,751,740,707,685,636,606,586,571,568,562,555,544,518],"ymouse":[485,485,485,485,485,485,485,485,485,485,485,485,485,485,485,485,485,485,485,485,485,485,485,485,485,485,485,485,485,485,483,481,469,457,434,413,382,316,286,262,245,228,196,184,167,160,154,149,147,142,135,124,93],"timestamp_mouse":[13,34,54,74,92,114,133,153,174,192,214,234,254,273,292,314,333,354,374,393,413,434,454,473,494,512,533,554,573,592,612,632,653,674,693,714,733,752,773,793,813,833,853,874,893,914,932,953,973,994,1013,1034,1053],"xSR":741.5,"ySR":469.95,"xT1":424.9,"yT1":0,"xT2":1058.1,"yT2":0,"toosoon":0,"cond_shown":"equaldotsize","ratio_trial":500,"smaller_num":"4","larger_num":"8","correct_side":1,"subjID":"MarianaRojasMancera20","gender":"1","age":"9","school":"4"},{"start_time":1552309869216,"click_time":1552309870154,"finger_time":1552309869754,"fix_duration":562.1969070536667,"trial":43,"RT":538,"MT":400,"sideResp":1,"stimulus":"img/250/equaldotsize/L/5_Ratio_250_L_24_R_6.png","xmouse":[807,807,807,807,807,807,807,807,808,808,808,808,808,808,808,808,808,808,808,808,807,806,802,801,789,784,779,775,764,756,747,740,729,702,678,663,645,620,574,559,549,543,540,535,530,526,523],"ymouse":[503,503,504,504,504,504,505,505,505,505,505,505,505,505,505,505,505,505,505,505,505,505,505,505,495,483,467,449,413,395,375,356,335,285,251,231,210,185,143,123,108,97,90,79,71,65,59],"timestamp_mouse":[17,37,56,78,97,117,137,157,178,197,216,237,257,278,296,317,337,357,378,398,418,437,458,477,498,516,538,557,577,596,617,636,656,677,697,716,737,757,777,796,817,837,858,876,897,917,938],"xSR":741.5,"ySR":469.95,"xT1":424.9,"yT1":0,"xT2":1058.1,"yT2":0,"toosoon":0,"cond_shown":"equaldotsize","ratio_trial":250,"smaller_num":"6","larger_num":"24","correct_side":1,"subjID":"MarianaRojasMancera20","gender":"1","age":"9","school":"4"},{"start_time":1552309887685,"click_time":1552309888672,"finger_time":1552309888554,"fix_duration":250,"trial":44,"RT":869,"MT":118,"sideResp":1,"stimulus":"img/250/equaldotsize/L/14_Ratio_250_L_12_R_3.png","xmouse":[749,749,749,749,749,749,749,749,747,745,744,744,744,744,744,744,744,744,744,744,744,744,744,744,744,744,744,744,744,744,744,744,744,744,744,744,744,744,744,744,743,743,742,737,726,703,668,563,517,488],"ymouse":[516,516,516,516,516,516,516,516,518,520,520,520,520,520,520,520,520,520,520,520,520,520,520,520,520,520,520,520,520,520,520,520,520,520,520,520,521,521,521,521,521,521,519,500,475,418,345,190,130,91],"timestamp_mouse":[7,28,49,67,89,109,129,148,168,188,209,228,248,268,287,308,328,349,367,387,408,428,448,468,488,509,528,548,568,587,607,629,647,668,689,709,727,747,769,789,808,827,848,869,888,907,927,947,967,987],"xSR":741.5,"ySR":469.95,"xT1":424.9,"yT1":0,"xT2":1058.1,"yT2":0,"toosoon":0,"cond_shown":"equaldotsize","ratio_trial":250,"smaller_num":"3","larger_num":"12","correct_side":1,"subjID":"MarianaRojasMancera20","gender":"1","age":"9","school":"4"},{"start_time":1552309893468,"click_time":1552309895254,"finger_time":1552309893493,"fix_duration":314.44346772191057,"trial":45,"RT":25,"MT":1761,"sideResp":1,"stimulus":"img/500/equaldotanddens/L/8_Ratio_500_L_8_R_4.png","xmouse":[791,789,787,787,786,783,778,775,773,773,773,773,771,771,770,770,770,770,770,770,770,769,769,769,769,769,768,768,767,767,767,767,766,766,762,758,756,750,748,746,746,746,747,751,760,764,766,767,768,768,768,768,768,768,768,768,768,768,768,768,768,768,766,766,766,766,765,762,760,756,756,753,750,748,736,726,715,706,701,698,699,699,698,690,656,625,593,562,541,511],"ymouse":[474,464,462,462,461,464,470,474,476,476,476,476,477,477,477,477,477,477,477,477,477,477,477,477,477,477,477,478,480,482,482,482,483,484,485,487,488,490,491,493,494,497,501,506,517,523,525,528,529,529,529,529,530,530,530,530,530,530,530,530,530,530,530,529,529,529,528,526,526,523,522,520,517,512,476,451,426,405,391,368,359,349,334,316,264,229,193,158,134,91],"timestamp_mouse":[10,25,46,66,86,106,127,146,166,186,206,227,246,266,287,306,326,345,367,387,406,426,447,466,486,507,527,546,566,587,606,626,647,666,687,706,726,746,766,786,807,826,846,867,886,906,926,946,966,987,1006,1026,1047,1066,1086,1107,1127,1146,1166,1187,1206,1227,1247,1266,1287,1307,1326,1346,1366,1387,1407,1426,1446,1466,1486,1506,1527,1546,1566,1586,1607,1626,1646,1666,1686,1706,1727,1746,1765,1786],"xSR":741.5,"ySR":469.95,"xT1":424.9,"yT1":0,"xT2":1058.1,"yT2":0,"toosoon":0,"cond_shown":"equaldotanddens","ratio_trial":500,"smaller_num":"4","larger_num":"8","correct_side":1,"subjID":"MarianaRojasMancera20","gender":"1","age":"9","school":"4"},{"start_time":1552309897288,"click_time":1552309898674,"finger_time":1552309898074,"fix_duration":453.8403162806366,"trial":46,"RT":786,"MT":600,"sideResp":1,"stimulus":"img/750/equaldotsize/L/14_Ratio_750_L_8_R_6.png","xmouse":[817,817,817,817,817,817,817,817,817,817,817,817,817,817,817,817,817,817,817,817,817,817,817,817,817,817,817,817,817,817,817,817,817,817,817,817,817,822,837,871,875,876,872,857,848,837,821,800,721,689,657,631,615,596,590,587,586,583,575,570,565,558,552,540,534,531,527,525,523,519],"ymouse":[559,559,559,559,559,559,559,559,559,559,559,559,559,559,559,559,559,559,559,559,559,559,559,559,559,559,559,559,559,559,559,559,559,559,559,557,551,530,495,409,383,365,353,339,337,334,331,325,298,286,271,257,247,233,229,227,225,221,211,203,196,184,172,142,129,120,114,108,102,94],"timestamp_mouse":[6,27,47,66,86,107,126,146,166,186,207,227,246,267,287,305,327,345,367,387,406,427,447,466,487,507,527,546,566,586,607,627,645,666,686,706,726,747,766,786,806,826,846,867,886,907,926,947,966,986,1005,1027,1046,1067,1086,1106,1126,1146,1166,1186,1206,1226,1246,1266,1286,1306,1326,1347,1366,1386],"xSR":741.5,"ySR":469.95,"xT1":424.9,"yT1":0,"xT2":1058.1,"yT2":0,"toosoon":0,"cond_shown":"equaldotsize","ratio_trial":750,"smaller_num":"6","larger_num":"8","correct_side":1,"subjID":"MarianaRojasMancera20","gender":"1","age":"9","school":"4"},{"start_time":1552309900613,"click_time":1552309901794,"finger_time":1552309901234,"fix_duration":899.0252998380771,"trial":47,"RT":621,"MT":560,"sideResp":2,"stimulus":"img/250/equaldotanddens/R/10_Ratio_250_L_4_R_16.png","xmouse":[813,813,813,813,813,813,813,813,813,813,813,813,813,813,813,813,813,813,813,813,813,813,813,813,813,813,813,813,813,813,814,824,840,886,915,948,973,992,1032,1038,1048,1058,1062,1070,1076,1080,1084,1088,1090,1091,1092,1093,1094,1095,1095,1095,1097,1097,1098,1099],"ymouse":[496,496,496,496,496,496,496,496,496,496,496,496,496,496,496,496,496,496,496,496,496,496,496,496,496,496,497,497,496,493,486,467,445,382,347,309,282,262,215,209,196,179,169,155,149,142,137,130,121,119,117,115,115,113,113,111,108,106,100,98],"timestamp_mouse":[3,22,41,62,81,101,122,141,161,181,201,222,240,261,282,301,321,341,360,381,401,422,442,461,481,501,520,541,561,581,601,621,641,661,681,701,720,742,761,781,801,821,841,862,881,902,921,942,961,981,1001,1022,1041,1061,1081,1101,1121,1141,1161,1181],"xSR":741.5,"ySR":469.95,"xT1":424.9,"yT1":0,"xT2":1058.1,"yT2":0,"toosoon":0,"cond_shown":"equaldotanddens","ratio_trial":250,"smaller_num":"4","larger_num":"16","correct_side":2,"subjID":"MarianaRojasMancera20","gender":"1","age":"9","school":"4"},{"start_time":1552309904505,"click_time":1552309905674,"finger_time":1552309905214,"fix_duration":250,"trial":48,"RT":709,"MT":460,"sideResp":1,"stimulus":"img/750/randomdotsizeEA/L/6_Ratio_750_L_24_R_18.png","xmouse":[794,794,794,794,794,794,794,794,794,794,794,794,794,794,794,794,794,794,794,794,794,794,794,794,794,794,794,794,794,793,792,786,778,763,748,739,736,733,720,710,699,682,666,633,618,602,590,581,579,579,578,577,577,571,558,546,532,512,440],"ymouse":[538,538,538,538,538,538,538,538,538,538,538,538,538,538,538,538,538,538,538,538,538,538,538,538,538,538,538,538,538,537,537,536,533,519,496,483,470,454,415,391,368,348,328,271,252,234,219,207,205,204,203,203,202,192,174,158,141,113,29],"timestamp_mouse":[9,30,50,69,90,110,130,150,169,189,209,229,249,268,289,310,329,350,369,389,410,430,450,469,490,509,530,549,569,588,609,629,650,669,689,709,729,750,769,789,810,829,849,869,890,909,930,950,969,989,1010,1029,1050,1069,1090,1109,1129,1150,1169],"xSR":741.5,"ySR":469.95,"xT1":424.9,"yT1":0,"xT2":1058.1,"yT2":0,"toosoon":0,"cond_shown":"randomdotsizeEA","ratio_trial":750,"smaller_num":"18","larger_num":"24","correct_side":1,"subjID":"MarianaRojasMancera20","gender":"1","age":"9","school":"4"},{"start_time":1552309907550,"click_time":1552309908494,"finger_time":1552309908135,"fix_duration":655.2498239021987,"trial":49,"RT":585,"MT":359,"sideResp":2,"stimulus":"img/250/equaldotanddens/R/6_Ratio_250_L_6_R_24.png","xmouse":[817,817,817,817,817,817,817,817,817,817,817,817,817,817,817,817,817,817,817,817,817,817,817,817,817,817,817,821,827,840,845,867,903,922,935,948,965,966,966,967,970,981,989,997,1010,1026,1040,1060],"ymouse":[500,500,500,500,500,500,500,500,500,500,500,500,500,500,500,500,500,500,500,500,500,500,500,500,500,500,499,486,471,441,429,377,302,268,248,233,213,208,204,199,187,160,144,126,107,90,73,50],"timestamp_mouse":[3,24,44,64,85,104,124,144,163,184,204,225,244,264,285,304,323,345,365,385,404,424,444,464,485,504,524,544,564,585,604,624,645,664,684,704,725,744,764,784,805,825,844,864,884,904,924,944],"xSR":741.5,"ySR":469.95,"xT1":424.9,"yT1":0,"xT2":1058.1,"yT2":0,"toosoon":0,"cond_shown":"equaldotanddens","ratio_trial":250,"smaller_num":"6","larger_num":"24","correct_side":2,"subjID":"MarianaRojasMancera20","gender":"1","age":"9","school":"4"},{"start_time":1552309922472,"click_time":1552309923774,"finger_time":1552309922934,"fix_duration":396.2972366848763,"trial":50,"RT":462,"MT":840,"sideResp":1,"stimulus":"img/750/equaldotanddens/L/9_Ratio_750_L_4_R_3.png","xmouse":[768,768,768,768,768,768,768,768,768,768,768,768,768,768,768,769,771,774,774,774,774,771,767,740,730,724,723,723,723,723,723,727,732,740,742,742,742,701,681,663,649,638,622,612,603,602,601,601,598,597,597,597,593,589,580,570,564,562,562,562,562,562,562,559,549,524],"ymouse":[519,519,519,519,519,519,519,519,519,519,519,519,519,519,518,517,516,513,513,513,513,512,511,502,497,491,488,484,470,463,453,436,419,381,358,328,281,162,129,105,90,82,77,74,73,72,70,67,61,60,60,60,59,59,58,55,52,52,52,52,52,52,52,52,56,59],"timestamp_mouse":[3,23,43,63,83,103,121,142,162,181,202,222,243,263,283,303,322,341,362,382,403,422,442,462,483,502,522,542,562,583,602,622,642,662,682,702,722,742,762,782,802,822,842,862,881,903,922,942,963,983,1002,1022,1043,1062,1082,1102,1122,1143,1162,1182,1203,1222,1242,1262,1283,1302],"xSR":741.5,"ySR":469.95,"xT1":424.9,"yT1":0,"xT2":1058.1,"yT2":0,"toosoon":0,"cond_shown":"equaldotanddens","ratio_trial":750,"smaller_num":"3","larger_num":"4","correct_side":1,"subjID":"MarianaRojasMancera20","gender":"1","age":"9","school":"4"},{"start_time":1552309927043,"click_time":1552309928094,"finger_time":1552309927514,"fix_duration":548.9616502604798,"trial":51,"RT":471,"MT":580,"sideResp":2,"stimulus":"img/250/equaldotanddens/R/13_Ratio_250_L_2_R_8.png","xmouse":[759,759,759,759,759,759,760,760,760,760,760,760,760,760,760,760,760,760,760,760,762,763,773,791,860,905,1002,1072,1148,1273,1299,1309,1310,1310,1310,1310,1309,1306,1298,1271,1256,1238,1223,1216,1215,1215,1214,1211,1209,1191,1178,1165,1156],"ymouse":[495,495,495,495,495,495,495,495,495,495,495,495,495,495,495,495,495,495,495,495,495,493,481,461,404,378,332,301,266,194,174,164,158,156,155,153,152,149,144,133,127,120,113,111,110,110,108,104,101,92,87,81,79],"timestamp_mouse":[11,31,51,71,91,112,132,151,171,191,211,230,252,271,292,311,331,351,372,391,410,432,451,471,491,511,531,551,571,592,611,631,651,672,691,711,731,751,771,791,811,832,851,871,890,912,931,951,971,991,1011,1031,1051],"xSR":741.5,"ySR":469.95,"xT1":424.9,"yT1":0,"xT2":1058.1,"yT2":0,"toosoon":0,"cond_shown":"equaldotanddens","ratio_trial":250,"smaller_num":"2","larger_num":"8","correct_side":2,"subjID":"MarianaRojasMancera20","gender":"1","age":"9","school":"4"},{"start_time":1552309936107,"click_time":1552309937074,"finger_time":1552309936515,"fix_duration":1472.9488590180215,"trial":52,"RT":408,"MT":559,"sideResp":1,"stimulus":"img/250/equaldotanddens/L/2_Ratio_250_L_16_R_4.png","xmouse":[758,758,758,758,758,758,758,758,758,758,758,758,758,758,758,758,758,758,757,752,744,734,713,705,697,690,683,666,654,631,616,602,579,576,574,574,572,570,568,563,558,552,537,531,527,521,515,507,503],"ymouse":[501,501,501,501,501,501,501,501,501,501,501,501,501,501,501,501,501,500,491,480,467,450,393,363,335,315,300,280,269,247,233,222,204,200,196,195,193,189,185,179,173,166,155,150,145,136,125,103,89],"timestamp_mouse":[7,27,48,68,87,107,128,148,167,187,208,226,247,268,288,307,328,347,368,387,408,427,448,467,488,507,528,547,567,588,608,627,647,667,687,707,728,747,767,787,807,827,847,867,887,907,927,947,967],"xSR":741.5,"ySR":469.95,"xT1":424.9,"yT1":0,"xT2":1058.1,"yT2":0,"toosoon":0,"cond_shown":"equaldotanddens","ratio_trial":250,"smaller_num":"4","larger_num":"16","correct_side":1,"subjID":"MarianaRojasMancera20","gender":"1","age":"9","school":"4"},{"start_time":1552309944875,"click_time":1552309945754,"finger_time":1552309945654,"fix_duration":320.9287401585513,"trial":53,"RT":779,"MT":100,"sideResp":2,"stimulus":"img/250/randomdotsizeEA/R/9_Ratio_250_L_3_R_12.png","xmouse":[814,814,814,814,814,814,813,811,810,808,807,807,807,807,807,807,807,807,807,805,804,803,802,800,800,799,799,799,798,796,793,791,788,784,775,770,767,767,780,872,940,1001,1047,1079],"ymouse":[550,550,550,550,550,550,550,551,551,553,554,554,554,554,554,554,554,554,554,556,557,558,559,560,560,560,560,560,560,560,560,560,558,556,550,544,528,504,452,275,187,112,61,29],"timestamp_mouse":[21,39,58,79,100,119,138,159,179,200,218,239,259,280,300,318,339,360,380,399,420,439,460,479,499,520,539,560,579,599,619,640,659,679,699,719,739,759,779,799,819,839,859,879],"xSR":741.5,"ySR":469.95,"xT1":424.9,"yT1":0,"xT2":1058.1,"yT2":0,"toosoon":0,"cond_shown":"randomdotsizeEA","ratio_trial":250,"smaller_num":"3","larger_num":"12","correct_side":2,"subjID":"MarianaRojasMancera20","gender":"1","age":"9","school":"4"},{"start_time":1552309948487,"click_time":1552309949554,"finger_time":1552309949094,"fix_duration":1372.080898137917,"trial":54,"RT":607,"MT":460,"sideResp":1,"stimulus":"img/750/equaldotsize/L/14_Ratio_750_L_8_R_6.png","xmouse":[828,828,828,828,828,828,828,828,828,828,828,828,828,828,828,828,828,828,828,828,828,828,831,832,833,834,834,835,836,836,837,837,839,841,851,862,883,916,947,969,970,970,963,954,906,866,815,760,700,599,569,547,530,522],"ymouse":[494,494,494,494,494,494,494,494,494,494,494,494,494,494,494,494,494,494,494,494,494,494,492,490,489,484,482,478,475,472,466,463,456,449,411,385,346,292,246,200,184,172,161,156,143,136,130,123,113,99,95,85,75,71],"timestamp_mouse":[7,27,47,67,87,108,127,148,167,187,208,228,247,267,287,308,327,347,367,387,407,428,447,468,487,508,527,548,567,587,607,628,647,668,687,708,727,747,767,787,807,827,847,867,887,908,927,947,967,988,1007,1027,1047,1067],"xSR":741.5,"ySR":469.95,"xT1":424.9,"yT1":0,"xT2":1058.1,"yT2":0,"toosoon":0,"cond_shown":"equaldotsize","ratio_trial":750,"smaller_num":"6","larger_num":"8","correct_side":1,"subjID":"MarianaRojasMancera20","gender":"1","age":"9","school":"4"},{"start_time":1552309952704,"click_time":1552309954014,"finger_time":1552309953334,"fix_duration":1448.6559339486103,"trial":55,"RT":630,"MT":680,"sideResp":2,"stimulus":"img/750/equaldotanddens/R/12_Ratio_750_L_3_R_4.png","xmouse":[783,783,783,783,783,783,783,783,783,783,783,783,783,783,783,783,783,783,783,783,783,783,783,783,783,783,785,789,793,798,801,805,807,811,824,827,828,830,830,829,824,822,821,822,832,842,850,861,873,903,923,944,979,996,1014,1019,1022,1026,1030,1040,1046,1053,1056,1056,1056,1059],"ymouse":[486,486,486,486,486,486,486,486,486,486,486,486,486,486,486,486,486,486,486,486,486,486,486,486,486,486,486,484,480,475,471,460,450,432,376,356,331,306,283,256,245,227,215,201,175,163,155,147,140,123,113,104,93,90,84,81,79,77,74,70,68,66,66,66,66,66],"timestamp_mouse":[11,30,50,71,90,112,130,150,171,191,212,232,251,270,291,311,332,351,371,390,411,431,450,471,490,511,532,551,570,590,611,630,650,671,692,712,731,751,771,790,810,831,852,870,891,912,930,951,972,991,1010,1030,1050,1071,1090,1110,1130,1150,1172,1191,1210,1230,1251,1271,1290,1310],"xSR":741.5,"ySR":469.95,"xT1":424.9,"yT1":0,"xT2":1058.1,"yT2":0,"toosoon":0,"cond_shown":"equaldotanddens","ratio_trial":750,"smaller_num":"3","larger_num":"4","correct_side":2,"subjID":"MarianaRojasMancera20","gender":"1","age":"9","school":"4"},{"start_time":1552309957366,"click_time":1552309958495,"finger_time":1552309957995,"fix_duration":1050.9603298175807,"trial":56,"RT":629,"MT":500,"sideResp":1,"stimulus":"img/500/equaldotsize/L/8_Ratio_500_L_8_R_4.png","xmouse":[791,791,791,791,791,791,791,791,791,791,791,791,791,791,791,791,791,791,790,789,788,788,788,787,787,787,786,784,780,773,760,699,654,603,556,531,507,498,496,493,486,460,446,434,428,425,424,423,422,422,422,422,426,429,433,437,455],"ymouse":[550,550,550,550,550,550,550,550,550,550,550,550,550,550,550,550,550,550,550,550,550,550,550,550,550,550,550,550,542,527,503,420,377,346,319,306,297,292,291,286,277,248,233,219,207,198,181,163,157,153,148,144,133,128,121,116,94],"timestamp_mouse":[9,30,48,68,90,110,128,148,168,188,208,229,249,268,288,309,330,349,368,388,409,429,450,470,489,508,528,548,568,588,608,629,648,669,688,708,729,748,768,788,809,829,848,869,888,908,929,948,968,989,1009,1028,1048,1068,1089,1108,1129],"xSR":741.5,"ySR":469.95,"xT1":424.9,"yT1":0,"xT2":1058.1,"yT2":0,"toosoon":0,"cond_shown":"equaldotsize","ratio_trial":500,"smaller_num":"4","larger_num":"8","correct_side":1,"subjID":"MarianaRojasMancera20","gender":"1","age":"9","school":"4"},{"start_time":1552309966654,"click_time":1552309967615,"finger_time":1552309967375,"fix_duration":1317.523359188094,"trial":57,"RT":721,"MT":240,"sideResp":2,"stimulus":"img/900/equaldotanddens/R/3_Ratio_900_L_9_R_10.png","xmouse":[774,774,774,774,774,774,774,774,774,774,774,774,774,774,774,774,774,774,774,774,774,774,774,774,774,774,774,774,774,775,776,779,781,782,787,791,799,806,821,848,867,884,898,930,950,968,1003,1018,1066],"ymouse":[558,558,558,558,558,558,558,558,558,558,558,558,558,558,558,558,558,558,558,558,558,558,558,558,558,558,558,558,558,558,554,548,540,530,494,471,446,422,381,323,289,260,234,178,150,123,75,58,1],"timestamp_mouse":[3,20,41,61,82,100,121,140,160,180,201,222,242,260,280,300,322,341,360,382,400,420,441,461,481,500,521,542,560,581,601,621,640,660,680,701,721,742,761,780,800,820,840,861,880,900,921,941,961],"xSR":741.5,"ySR":469.95,"xT1":424.9,"yT1":0,"xT2":1058.1,"yT2":0,"toosoon":0,"cond_shown":"equaldotanddens","ratio_trial":900,"smaller_num":"9","larger_num":"10","correct_side":2,"subjID":"MarianaRojasMancera20","gender":"1","age":"9","school":"4"},{"start_time":1552309974937,"click_time":1552309976014,"finger_time":1552309975315,"fix_duration":440.74416840864694,"trial":58,"RT":378,"MT":699,"sideResp":1,"stimulus":"img/250/equaldotsize/L/3_Ratio_250_L_8_R_2.png","xmouse":[750,750,750,750,750,750,750,750,750,750,750,750,750,750,750,750,750,747,740,723,718,716,714,712,705,699,693,688,682,668,663,658,656,655,653,644,642,640,638,634,625,620,614,610,608,608,608,605,601,597,593,581,499,443],"ymouse":[493,493,493,493,493,493,493,493,493,493,493,491,491,491,491,491,486,483,472,440,423,411,399,388,364,350,334,320,308,280,266,255,245,237,202,182,180,177,175,174,174,174,175,175,175,175,175,175,172,170,166,157,108,89],"timestamp_mouse":[18,37,57,78,98,118,139,158,178,197,217,237,257,277,298,319,337,357,378,397,418,438,457,477,498,517,537,558,578,598,619,638,657,677,697,717,738,757,778,798,817,837,858,877,898,919,938,957,978,997,1017,1037,1058,1077],"xSR":741.5,"ySR":469.95,"xT1":424.9,"yT1":0,"xT2":1058.1,"yT2":0,"toosoon":0,"cond_shown":"equaldotsize","ratio_trial":250,"smaller_num":"2","larger_num":"8","correct_side":1,"subjID":"MarianaRojasMancera20","gender":"1","age":"9","school":"4"},{"start_time":1552309980161,"click_time":1552309983134,"finger_time":1552309982494,"fix_duration":1245.6488903530776,"trial":59,"RT":2333,"MT":640,"sideResp":1,"stimulus":"img/750/randomdotsizeEA/R/7_Ratio_750_L_3_R_4.png","xmouse":[802,802,802,802,802,802,801,799,797,797,797,796,795,794,793,793,793,793,793,793,793,793,793,793,793,793,793,793,790,788,786,786,786,786,786,786,786,786,786,786,786,786,786,786,786,786,786,786,786,786,786,786,786,786,786,786,786,786,786,786,786,786,786,786,786,786,786,786,786,786,786,786,786,786,786,786,786,786,786,786,786,786,786,786,786,786,786,786,786,786,786,786,786,786,786,786,784,780,773,761,760,760,760,760,760,760,760,760,760,760,760,760,757,756,754,747,737,722,703,621,542,442,319,180,2,0,13,46,46,46,46,46,46,46,46,46,46,46,46,46,46,46,46,46,416,416,417,421,428],"ymouse":[516,516,516,516,516,516,514,509,507,507,506,506,506,506,506,506,506,506,506,506,506,506,506,506,506,506,506,506,506,505,505,505,505,505,505,505,505,505,505,505,505,505,505,505,505,505,505,505,505,505,505,505,505,505,505,505,505,505,505,505,505,505,505,505,505,505,505,505,505,505,505,505,505,505,505,505,505,505,505,505,505,505,505,505,505,505,505,505,505,505,505,505,505,505,505,505,504,503,502,502,503,503,503,503,503,503,503,503,503,503,503,503,503,503,503,503,502,497,489,449,424,394,353,297,165,102,56,7,7,7,7,7,7,7,7,7,7,7,7,7,7,7,7,7,19,36,43,50,56],"timestamp_mouse":[13,33,55,73,93,114,134,154,173,195,214,234,253,275,295,314,333,354,374,395,414,433,455,475,494,514,533,554,573,593,613,634,655,673,694,714,735,755,773,793,814,835,854,874,893,913,935,955,974,994,1014,1033,1055,1073,1094,1113,1135,1153,1174,1194,1215,1235,1254,1274,1294,1314,1333,1354,1373,1394,1415,1434,1454,1474,1494,1515,1535,1553,1574,1593,1613,1635,1654,1673,1693,1713,1735,1755,1773,1793,1815,1835,1853,1874,1895,1914,1934,1953,1973,1995,2013,2034,2053,2074,2094,2113,2133,2153,2173,2195,2215,2234,2254,2273,2293,2315,2333,2353,2373,2393,2413,2434,2453,2473,2493,2514,2533,2554,2573,2593,2614,2633,2653,2673,2694,2714,2735,2755,2774,2793,2814,2833,2854,2874,2893,2913,2933,2954,2973],"xSR":741.5,"ySR":469.95,"xT1":424.9,"yT1":0,"xT2":1058.1,"yT2":0,"toosoon":0,"cond_shown":"randomdotsizeEA","ratio_trial":750,"smaller_num":"3","larger_num":"4","correct_side":2,"subjID":"MarianaRojasMancera20","gender":"1","age":"9","school":"4"},{"start_time":1552309985636,"click_time":1552309986975,"finger_time":1552309986355,"fix_duration":901.1140510411373,"trial":60,"RT":719,"MT":620,"sideResp":1,"stimulus":"img/750/equaldotsize/L/13_Ratio_750_L_8_R_6.png","xmouse":[782,782,782,782,782,782,782,782,782,782,782,782,782,782,782,782,782,782,782,782,782,782,782,782,782,782,782,782,782,782,782,784,788,790,792,798,800,812,826,835,851,866,874,879,882,884,883,880,873,857,821,758,730,706,688,675,659,653,651,648,644,622,605,581,561,542,514],"ymouse":[541,541,541,541,541,541,541,541,541,541,541,541,541,541,541,541,541,541,541,541,541,541,541,541,541,541,541,541,540,539,535,520,506,489,473,437,420,395,372,360,331,294,277,259,244,231,215,212,211,209,207,201,196,193,189,186,183,182,182,182,178,160,148,133,119,106,87],"timestamp_mouse":[19,39,58,79,98,119,139,158,179,200,219,239,259,280,300,320,340,359,379,399,419,439,460,479,498,520,539,558,578,599,618,639,660,678,698,719,739,758,778,799,818,839,858,879,898,919,938,958,978,998,1018,1038,1058,1080,1100,1119,1138,1158,1178,1199,1218,1238,1258,1278,1298,1319,1339],"xSR":741.5,"ySR":469.95,"xT1":424.9,"yT1":0,"xT2":1058.1,"yT2":0,"toosoon":0,"cond_shown":"equaldotsize","ratio_trial":750,"smaller_num":"6","larger_num":"8","correct_side":1,"subjID":"MarianaRojasMancera20","gender":"1","age":"9","school":"4"},{"start_time":1552309989963,"click_time":1552309991314,"finger_time":1552309990654,"fix_duration":447.47994099465694,"trial":61,"RT":691,"MT":660,"sideResp":1,"stimulus":"img/500/randomdotsizeEA/L/11_Ratio_500_L_12_R_6.png","xmouse":[800,796,796,796,796,796,796,796,796,796,796,796,796,796,796,796,797,797,797,797,797,797,797,796,795,795,795,795,794,793,791,772,761,751,739,729,718,713,708,699,674,653,638,616,593,544,528,522,520,520,501,485,472,462,458,455,455,455,455,455,454,454,454,454,454,467,477,486],"ymouse":[543,547,547,547,547,547,547,547,547,547,547,547,547,547,547,547,545,544,543,543,543,542,542,542,542,542,542,542,542,542,542,517,499,476,449,419,350,322,295,274,246,240,240,244,251,264,265,265,265,265,229,205,183,165,155,144,141,138,137,134,127,126,124,123,121,109,100,88],"timestamp_mouse":[11,32,51,73,92,111,131,152,173,193,211,232,251,272,291,312,332,353,373,391,411,431,452,472,491,512,533,551,571,591,611,632,652,672,691,711,731,751,771,792,811,831,851,872,893,912,931,951,971,992,1011,1032,1052,1071,1091,1111,1132,1153,1171,1191,1211,1232,1251,1272,1291,1312,1331,1351],"xSR":741.5,"ySR":469.95,"xT1":424.9,"yT1":0,"xT2":1058.1,"yT2":0,"toosoon":0,"cond_shown":"randomdotsizeEA","ratio_trial":500,"smaller_num":"6","larger_num":"12","correct_side":1,"subjID":"MarianaRojasMancera20","gender":"1","age":"9","school":"4"},{"start_time":1552310021073,"click_time":1552310022014,"finger_time":1552310021735,"fix_duration":837.7524148415384,"trial":62,"RT":662,"MT":279,"sideResp":1,"stimulus":"img/900/equaldotanddens/L/10_Ratio_900_L_20_R_18.png","xmouse":[781,781,781,781,781,781,781,781,781,781,781,781,781,781,781,781,781,781,781,781,781,781,781,781,781,781,781,781,781,777,772,762,746,719,667,642,616,593,579,561,555,543,534,526,513,510,505,500],"ymouse":[530,530,530,530,530,530,530,530,530,530,530,530,530,530,530,530,530,530,530,530,530,530,530,530,530,530,530,529,527,519,511,497,478,449,394,370,347,327,309,270,249,216,197,178,145,132,116,98],"timestamp_mouse":[3,21,42,62,82,101,121,142,163,183,202,221,242,263,281,301,322,343,363,381,402,421,443,462,482,503,521,542,561,581,601,621,642,662,681,701,722,741,762,781,802,822,841,861,881,901,922,941],"xSR":741.5,"ySR":469.95,"xT1":424.9,"yT1":0,"xT2":1058.1,"yT2":0,"toosoon":0,"cond_shown":"equaldotanddens","ratio_trial":900,"smaller_num":"18","larger_num":"20","correct_side":1,"subjID":"MarianaRojasMancera20","gender":"1","age":"9","school":"4"},{"start_time":1552310032052,"click_time":1552310032994,"finger_time":1552310032654,"fix_duration":495.8507947900428,"trial":63,"RT":602,"MT":340,"sideResp":1,"stimulus":"img/750/equaldotsize/L/9_Ratio_750_L_4_R_3.png","xmouse":[810,810,810,810,810,806,797,795,794,793,793,793,793,793,793,793,793,793,793,793,793,793,793,793,793,793,790,783,774,764,752,731,719,699,679,663,647,638,628,616,603,587,583,577,570,555,495,425],"ymouse":[526,526,526,527,529,532,537,538,539,539,539,539,539,539,539,539,539,539,539,539,539,539,540,540,540,540,534,519,498,473,447,399,370,331,298,276,254,240,229,218,207,196,193,188,181,166,120,73],"timestamp_mouse":[2,25,42,62,82,102,122,142,163,182,203,222,243,263,283,304,322,342,362,383,404,423,443,464,482,502,522,544,563,583,602,623,643,664,682,703,722,742,762,782,803,822,844,862,882,902,922,942],"xSR":741.5,"ySR":469.95,"xT1":424.9,"yT1":0,"xT2":1058.1,"yT2":0,"toosoon":0,"cond_shown":"equaldotsize","ratio_trial":750,"smaller_num":"3","larger_num":"4","correct_side":1,"subjID":"MarianaRojasMancera20","gender":"1","age":"9","school":"4"},{"start_time":1552310041899,"click_time":1552310043454,"finger_time":1552310042436,"fix_duration":1203.5077376629365,"trial":64,"RT":537,"MT":1018,"sideResp":1,"stimulus":"img/500/randomdotsizeEA/L/5_Ratio_500_L_4_R_2.png","xmouse":[815,815,815,815,815,815,815,815,814,813,813,813,813,813,813,812,812,812,812,812,812,812,812,812,810,806,802,795,790,775,766,758,752,746,739,723,716,712,709,704,697,685,672,653,588,559,546,546,546,545,545,545,545,545,545,545,545,545,545,545,545,545,545,545,545,545,545,544,541,536,532,528,527,527,527,527,526,524],"ymouse":[501,501,501,501,501,501,501,500,500,499,497,496,496,496,496,495,495,495,495,495,495,495,495,495,492,481,466,443,417,355,316,291,266,246,223,189,181,175,172,170,167,159,148,139,109,97,89,89,88,90,95,96,96,96,97,97,97,98,101,111,113,113,113,113,110,110,110,108,106,100,90,82,79,77,77,77,77,77],"timestamp_mouse":[18,36,57,76,96,116,137,156,176,196,216,236,256,275,297,316,335,355,376,396,415,435,455,476,496,516,537,557,576,595,615,635,656,675,695,715,736,756,776,795,815,836,857,875,895,915,935,956,977,995,1015,1036,1056,1075,1096,1116,1136,1155,1175,1195,1216,1236,1255,1275,1295,1316,1335,1355,1377,1395,1417,1436,1455,1475,1496,1515,1535,1555],"xSR":741.5,"ySR":469.95,"xT1":424.9,"yT1":0,"xT2":1058.1,"yT2":0,"toosoon":0,"cond_shown":"randomdotsizeEA","ratio_trial":500,"smaller_num":"2","larger_num":"4","correct_side":1,"subjID":"MarianaRojasMancera20","gender":"1","age":"9","school":"4"},{"start_time":1552310048848,"click_time":1552310050075,"finger_time":1552310049435,"fix_duration":773.1124345796537,"trial":65,"RT":587,"MT":640,"sideResp":2,"stimulus":"img/500/randomdotsizeEA/R/9_Ratio_500_L_2_R_4.png","xmouse":[778,777,777,776,776,776,776,776,776,776,776,776,776,776,775,775,775,775,775,775,776,777,777,777,774,771,769,769,766,760,747,734,718,704,704,704,704,704,704,704,704,704,704,978,1067,1146,1213,1243,1261,1261,1261,1261,1261,1261,1261,1259,1257,1248,1233,1193,1166,1156],"ymouse":[523,525,526,527,527,527,527,527,527,527,527,527,527,526,525,525,525,525,522,519,514,510,507,499,492,488,485,484,472,444,353,253,144,42,42,42,42,42,42,42,42,42,42,87,126,161,189,203,214,214,214,214,214,214,214,214,212,200,179,122,80,62],"timestamp_mouse":[8,27,48,67,86,106,128,147,167,186,208,227,246,267,286,307,328,346,366,387,407,426,447,467,486,508,526,547,567,587,606,626,647,668,686,708,727,748,767,786,806,828,846,868,886,907,926,948,966,986,1006,1026,1047,1068,1087,1106,1126,1146,1166,1186,1206,1226],"xSR":741.5,"ySR":469.95,"xT1":424.9,"yT1":0,"xT2":1058.1,"yT2":0,"toosoon":0,"cond_shown":"randomdotsizeEA","ratio_trial":500,"smaller_num":"2","larger_num":"4","correct_side":2,"subjID":"MarianaRojasMancera20","gender":"1","age":"9","school":"4"},{"start_time":1552310054811,"click_time":1552310056116,"finger_time":1552310055354,"fix_duration":1376.080091324847,"trial":66,"RT":543,"MT":762,"sideResp":1,"stimulus":"img/250/randomdotsizeEA/L/1_Ratio_250_L_8_R_2.png","xmouse":[808,808,808,808,808,808,809,809,809,809,809,809,809,809,809,810,810,811,813,814,814,814,815,816,816,816,816,816,816,816,806,768,731,691,649,608,598,593,588,584,579,576,576,575,575,575,575,575,575,575,574,574,574,574,574,573,573,573,573,565,561,549,542,535,525,505],"ymouse":[506,506,506,506,506,505,503,502,501,500,500,500,500,500,499,499,498,497,497,496,496,496,495,494,493,488,477,469,457,446,417,344,306,270,241,211,202,193,183,169,153,140,138,136,136,136,136,136,133,128,115,75,54,32,15,4,4,4,4,0,5,17,23,30,39,54],"timestamp_mouse":[3,26,45,65,84,103,123,144,163,184,205,223,243,264,283,304,324,344,363,384,403,424,443,465,484,504,523,543,563,584,603,624,644,663,683,704,723,745,764,784,803,824,845,863,884,903,924,943,963,983,1003,1023,1043,1064,1084,1105,1124,1144,1163,1184,1203,1225,1243,1264,1283,1305],"xSR":741.5,"ySR":469.95,"xT1":424.9,"yT1":0,"xT2":1058.1,"yT2":0,"toosoon":0,"cond_shown":"randomdotsizeEA","ratio_trial":250,"smaller_num":"2","larger_num":"8","correct_side":1,"subjID":"MarianaRojasMancera20","gender":"1","age":"9","school":"4"},{"start_time":1552310064275,"click_time":1552310065895,"finger_time":1552310065596,"fix_duration":1419.6125406719798,"trial":67,"RT":1321,"MT":299,"sideResp":1,"stimulus":"img/500/equaldotanddens/R/15_Ratio_500_L_1_R_2.png","xmouse":[820,820,820,820,820,820,820,820,820,820,820,820,820,820,820,820,821,821,821,823,823,824,825,826,828,829,830,830,830,830,830,830,830,830,830,830,830,830,830,830,830,830,830,830,830,830,830,830,830,830,830,830,830,830,830,830,828,826,818,812,809,808,808,807,804,796,781,761,704,666,621,578,539,531,530,530,530,530,530,529,526,519],"ymouse":[518,518,518,518,518,518,518,518,518,518,518,518,518,518,518,518,518,518,518,518,518,518,517,516,515,514,513,512,512,512,512,512,512,512,512,512,512,512,512,512,512,512,512,512,512,512,512,512,512,512,512,512,512,511,509,509,508,507,502,496,493,490,489,488,484,477,467,448,385,330,267,202,136,114,102,100,99,98,96,88,80,67],"timestamp_mouse":[1,21,40,60,80,100,121,139,160,181,201,220,239,259,281,300,319,339,360,381,401,419,439,460,480,499,520,539,560,580,599,620,639,661,681,699,720,740,761,779,801,821,841,860,880,900,921,940,961,979,1000,1019,1041,1060,1080,1099,1120,1139,1160,1179,1199,1220,1241,1260,1280,1299,1321,1339,1361,1379,1399,1419,1439,1459,1480,1499,1519,1539,1559,1579,1601,1620],"xSR":741.5,"ySR":469.95,"xT1":424.9,"yT1":0,"xT2":1058.1,"yT2":0,"toosoon":0,"cond_shown":"equaldotanddens","ratio_trial":500,"smaller_num":"1","larger_num":"2","correct_side":2,"subjID":"MarianaRojasMancera20","gender":"1","age":"9","school":"4"},{"start_time":1552310068118,"click_time":1552310069435,"finger_time":1552310068995,"fix_duration":1182.2318342578951,"trial":68,"RT":877,"MT":440,"sideResp":1,"stimulus":"img/750/equaldotanddens/R/7_Ratio_750_L_3_R_4.png","xmouse":[801,801,801,801,801,801,801,798,793,788,784,779,776,776,776,776,776,776,776,778,779,780,780,780,780,780,780,779,776,774,773,773,773,773,773,773,773,772,771,770,768,761,753,743,732,719,688,658,645,635,626,614,611,608,606,604,603,599,597,594,591,583,571,555,535,509],"ymouse":[521,521,521,521,521,521,522,52