[{"start_time":1552308410731,"click_time":1552308414817,"finger_time":1552308413177,"fix_duration":250,"trial":0,"RT":2446,"MT":1640,"sideResp":2,"stimulus":[],"xmouse":[772,772,772,772,772,772,772,772,772,772,772,772,772,772,772,772,772,772,772,772,772,772,772,772,772,772,772,772,772,772,772,772,772,772,772,772,772,772,772,772,772,772,772,772,772,772,772,772,772,772,772,772,772,772,772,772,772,772,772,772,772,772,772,772,772,772,772,772,772,772,772,772,772,772,772,772,772,772,772,772,772,772,772,772,772,772,772,772,772,772,772,772,772,772,772,772,772,772,772,772,772,772,772,772,772,772,772,774,776,779,781,782,783,787,788,789,790,790,790,794,801,813,841,850,863,881,898,914,941,952,964,977,1018,1032,1044,1056,1067,1071,1071,1066,1053,1038,994,950,918,887,848,809,792,782,773,759,749,740,740,740,740,744,747,750,755,758,767,770,770,770,770,770,770,770,770,772,774,807,855,931,1010,1151,1209,1261,1302,1331,1351,1351,1351,1351,1351,1351,1351,1351,1351,1351,1351,1261,1244,1231,1221,1202,1198,1196,1195,1193,1178,1158,1136],"ymouse":[541,541,541,541,541,541,541,541,541,541,541,541,541,541,541,541,541,541,541,541,541,541,541,541,541,541,541,541,541,541,541,541,541,541,541,541,541,541,541,541,541,541,541,541,541,541,541,541,541,541,541,541,541,541,541,541,541,541,541,541,541,541,541,541,541,541,541,541,541,541,541,541,541,541,541,541,541,541,541,541,541,541,541,541,541,541,541,541,541,541,541,541,541,541,541,541,541,541,541,541,541,541,541,541,541,541,541,540,539,536,536,535,535,532,532,531,531,531,530,528,524,519,508,503,498,490,484,483,494,501,509,518,548,560,571,581,588,595,597,601,608,613,623,624,621,616,609,596,589,583,577,567,559,553,552,550,544,534,528,524,519,515,507,504,504,504,504,504,504,504,504,502,500,471,433,382,324,211,150,102,58,27,7,7,7,7,7,7,7,7,7,7,7,14,23,31,36,44,46,46,46,46,46,46,52],"timestamp_mouse":[7,25,47,67,85,107,127,145,167,186,205,226,247,266,286,307,326,347,367,387,407,427,446,466,487,507,527,547,567,587,606,626,647,667,687,706,727,747,767,786,807,827,846,867,887,906,927,947,965,986,1006,1025,1046,1066,1086,1107,1125,1147,1167,1187,1206,1227,1247,1267,1287,1307,1327,1347,1367,1387,1406,1427,1447,1467,1486,1507,1527,1547,1566,1587,1607,1626,1645,1667,1686,1707,1727,1745,1766,1787,1806,1827,1846,1866,1887,1906,1926,1946,1966,1987,2007,2026,2046,2066,2086,2105,2126,2146,2166,2187,2207,2227,2246,2266,2285,2306,2326,2347,2366,2387,2406,2426,2446,2465,2486,2505,2525,2547,2565,2586,2606,2626,2647,2666,2686,2707,2726,2746,2766,2785,2805,2827,2846,2865,2886,2906,2926,2947,2966,2986,3006,3027,3046,3067,3086,3107,3126,3146,3166,3186,3206,3226,3246,3266,3287,3306,3326,3346,3365,3387,3407,3426,3446,3467,3486,3506,3526,3547,3565,3586,3606,3627,3646,3666,3686,3705,3725,3747,3766,3786,3806,3826,3846,3865,3886,3906,3927,3947,3965,3986,4007,4026,4046,4066,4086],"xSR":741.5,"ySR":501.8,"xT1":424.9,"yT1":0,"xT2":1058.1,"yT2":0,"toosoon":0,"cond_shown":"Congruent","ratio_trial":200,"L_num":1,"L_den":2,"R_num":21,"R_den":30,"correct_side":2,"subjID":"Marianalopez1","gender":"1","age":"9","school":"4","test":{"fix_dur":[250,1500],"timestim":1000,"targets_dim":[100,100],"targets_relative_coord":[0.3,0.7],"size_stim":[880,420],"start_dim":[100,100],"size_start":[300,300],"size_fix":60,"samplingrate":20,"img_types":["Congruent","Incongruent"],"ratios":[100,200,300],"rep_conds":19,"nTrials":120,"trials_to_rest":500,"Trials_order":[50,76,53,94,32,30,0,33,40,73,38,52,51,93,83,47,97,58,95,9,65,45,29,79,6,67,11,10,35,100,13,24,108,68,25,80,7,115,70,48,66,54,101,102,74,28,4,49,60,99,57,31,98,110,18,96,113,91,119,72,59,15,104,36,109,88,85,8,114,86,106,3,78,63,43,103,69,42,39,14,84,19,89,117,1,46,41,64,90,118,116,71,12,112,87,111,55,5,22,17,105,20,62,21,2,92,75,56,34,26,81,37,61,107,27,44,82,23,16,77],"cond_shown":["Congruent","Congruent","Incongruent","Congruent","Congruent","Congruent","Congruent","Incongruent","Congruent","Incongruent","Congruent","Congruent","Incongruent","Incongruent","Incongruent","Incongruent","Incongruent","Congruent","Incongruent","Incongruent","Incongruent","Incongruent","Incongruent","Incongruent","Congruent","Incongruent","Incongruent","Congruent","Incongruent","Congruent","Incongruent","Congruent","Congruent","Congruent","Incongruent","Congruent","Incongruent","Incongruent","Congruent","Congruent","Congruent","Congruent","Incongruent","Congruent","Congruent","Congruent","Congruent","Incongruent","Congruent","Incongruent","Incongruent","Incongruent","Congruent","Congruent","Congruent","Congruent","Incongruent","Incongruent","Incongruent","Congruent","Incongruent","Incongruent","Congruent","Congruent","Incongruent","Congruent","Incongruent","Congruent","Congruent","Congruent","Congruent","Incongruent","Congruent","Incongruent","Incongruent","Incongruent","Incongruent","Congruent","Incongruent","Congruent","Congruent","Incongruent","Incongruent","Incongruent","Incongruent","Congruent","Incongruent","Congruent","Congruent","Congruent","Congruent","Incongruent","Congruent","Congruent","Incongruent","Incongruent","Incongruent","Incongruent","Congruent","Incongruent","Incongruent","Congruent","Congruent","Incongruent","Congruent","Congruent","Incongruent","Congruent","Congruent","Congruent","Incongruent","Incongruent","Incongruent","Incongruent","Incongruent","Congruent","Congruent","Incongruent","Congruent","Incongruent"],"ratio_trial":[200,300,300,300,200,100,100,200,300,100,200,300,200,200,300,300,100,300,300,200,300,200,300,100,100,100,300,300,300,300,100,100,100,200,100,200,100,100,300,100,100,100,300,100,200,300,300,100,100,200,200,100,200,200,100,100,300,100,300,100,300,200,200,100,100,300,100,200,100,200,300,200,100,200,100,100,200,100,200,200,100,100,300,200,100,300,300,300,100,300,200,300,100,300,200,200,100,300,300,300,200,200,200,200,200,200,200,200,300,200,200,100,100,300,200,200,300,300,300,300],"left_num":[1,24,4,3,5,7,4,7,20,2,8,1,7,4,4,4,13,2,4,7,13,4,1,11,10,8,4,18,1,24,3,4,4,3,8,4,6,9,24,10,6,6,4,3,13,3,8,2,9,1,1,2,8,4,4,4,13,12,4,11,13,11,3,9,3,11,8,4,9,6,1,4,12,3,17,6,3,11,6,8,6,12,8,7,1,7,4,24,2,11,20,8,6,5,14,4,8,4,1,3,14,12,6,7,5,3,3,9,20,8,11,1,11,7,6,13,24,1,20,4],"right_num":[21,2,6,2,14,9,6,12,5,6,7,6,8,14,6,2,6,10,6,12,12,14,3,9,3,6,8,9,2,8,7,15,15,14,1,3,13,6,2,3,15,5,2,4,14,2,10,8,8,2,2,6,7,3,6,6,12,9,2,4,12,3,9,8,7,2,6,3,8,7,11,6,13,11,10,11,1,6,3,3,5,2,9,6,8,20,2,8,6,1,9,9,5,7,12,14,1,2,3,4,12,6,11,14,14,9,1,4,9,7,3,8,9,8,3,14,2,2,8,6],"left_den":[2,30,5,6,10,14,8,10,25,4,15,5,10,6,5,20,26,20,5,10,26,6,2,22,25,16,5,20,2,30,9,10,10,6,20,10,10,18,30,25,12,20,20,20,26,6,15,4,15,3,3,4,15,8,8,8,26,24,20,22,26,20,12,15,9,22,16,8,15,12,5,5,30,4,30,10,10,22,20,15,20,30,10,15,2,14,20,30,5,22,25,10,20,25,30,6,20,20,5,6,30,15,20,10,10,12,10,20,25,15,20,2,22,10,20,26,30,2,25,5],"right_den":[30,4,12,10,20,15,10,24,10,15,21,12,16,30,12,4,10,25,12,24,15,30,15,15,10,10,16,15,10,16,30,30,30,20,2,15,26,10,4,10,25,25,4,16,20,10,12,20,16,15,15,15,21,10,10,10,15,15,4,10,15,4,20,16,30,10,10,10,16,10,22,10,26,20,15,22,2,15,6,9,25,4,18,9,20,25,4,16,12,5,15,18,25,14,18,30,2,4,6,20,18,10,22,28,20,20,2,16,18,21,4,20,15,20,6,20,4,10,16,12],"correct_side":[2,1,1,1,2,2,2,1,1,1,1,2,1,1,1,2,2,2,1,1,2,1,1,2,1,2,1,1,1,1,1,2,2,2,2,1,1,2,1,1,2,1,2,2,2,1,2,1,1,1,1,1,1,1,2,2,2,2,2,1,2,2,2,1,1,1,2,1,1,2,2,1,2,1,2,1,2,1,2,1,1,2,1,2,1,2,2,1,2,1,1,1,1,2,2,1,2,2,2,1,2,1,2,1,2,2,2,1,1,1,2,1,2,1,2,2,1,1,1,1],"img_shown":["img2/200/Congruent/R/C_Dist_200_LN_1_LD_2_RN_21_RD_30_1.png","img2/300/Congruent/L/C_Dist_300_LN_24_LD_30_RN_2_RD_4_0.png","img2/300/Incongruent/L/I_Dist_300_LN_4_LD_5_RN_6_RD_12_0.png","img2/300/Congruent/L/C_Dist_300_LN_3_LD_6_RN_2_RD_10_0.png","img2/200/Congruent/R/C_Dist_200_LN_5_LD_10_RN_14_RD_20_1.png","img2/100/Congruent/R/C_Dist_100_LN_7_LD_14_RN_9_RD_15_1.png","img2/100/Congruent/R/C_Dist_100_LN_4_LD_8_RN_6_RD_10_1.png","img2/200/Incongruent/L/I_Dist_200_LN_7_LD_10_RN_12_RD_24_0.png","img2/300/Congruent/L/C_Dist_300_LN_20_LD_25_RN_5_RD_10_0.png","img2/100/Incongruent/L/I_Dist_100_LN_2_LD_4_RN_6_RD_15_0.png","img2/200/Congruent/L/C_Dist_200_LN_8_LD_15_RN_7_RD_21_0.png","img2/300/Congruent/R/C_Dist_300_LN_1_LD_5_RN_6_RD_12_1.png","img2/200/Incongruent/L/I_Dist_200_LN_7_LD_10_RN_8_RD_16_0.png","img2/200/Incongruent/L/I_Dist_200_LN_4_LD_6_RN_14_RD_30_0.png","img2/300/Incongruent/L/I_Dist_300_LN_4_LD_5_RN_6_RD_12_0.png","img2/300/Incongruent/R/I_Dist_300_LN_4_LD_20_RN_2_RD_4_1.png","img2/100/Incongruent/R/I_Dist_100_LN_13_LD_26_RN_6_RD_10_1.png","img2/300/Congruent/R/C_Dist_300_LN_2_LD_20_RN_10_RD_25_1.png","img2/300/Incongruent/L/I_Dist_300_LN_4_LD_5_RN_6_RD_12_0.png","img2/200/Incongruent/L/I_Dist_200_LN_7_LD_10_RN_12_RD_24_0.png","img2/300/Incongruent/R/I_Dist_300_LN_13_LD_26_RN_12_RD_15_1.png","img2/200/Incongruent/L/I_Dist_200_LN_4_LD_6_RN_14_RD_30_0.png","img2/300/Incongruent/L/I_Dist_300_LN_1_LD_2_RN_3_RD_15_0.png","img2/100/Incongruent/R/I_Dist_100_LN_11_LD_22_RN_9_RD_15_1.png","img2/100/Congruent/L/C_Dist_100_LN_10_LD_25_RN_3_RD_10_0.png","img2/100/Incongruent/R/I_Dist_100_LN_8_LD_16_RN_6_RD_10_1.png","img2/300/Incongruent/L/I_Dist_300_LN_4_LD_5_RN_8_RD_16_0.png","img2/300/Congruent/L/C_Dist_300_LN_18_LD_20_RN_9_RD_15_0.png","img2/300/Incongruent/L/I_Dist_300_LN_1_LD_2_RN_2_RD_10_0.png","img2/300/Congruent/L/C_Dist_300_LN_24_LD_30_RN_8_RD_16_0.png","img2/100/Incongruent/L/I_Dist_100_LN_3_LD_9_RN_7_RD_30_0.png","img2/100/Congruent/R/C_Dist_100_LN_4_LD_10_RN_15_RD_30_1.png","img2/100/Congruent/R/C_Dist_100_LN_4_LD_10_RN_15_RD_30_1.png","img2/200/Congruent/R/C_Dist_200_LN_3_LD_6_RN_14_RD_20_1.png","img2/100/Incongruent/R/I_Dist_100_LN_8_LD_20_RN_1_RD_2_1.png","img2/200/Congruent/L/C_Dist_200_LN_4_LD_10_RN_3_RD_15_0.png","img2/100/Incongruent/L/I_Dist_100_LN_6_LD_10_RN_13_RD_26_0.png","img2/100/Incongruent/R/I_Dist_100_LN_9_LD_18_RN_6_RD_10_1.png","img2/300/Congruent/L/C_Dist_300_LN_24_LD_30_RN_2_RD_4_0.png","img2/100/Congruent/L/C_Dist_100_LN_10_LD_25_RN_3_RD_10_0.png","img2/100/Congruent/R/C_Dist_100_LN_6_LD_12_RN_15_RD_25_1.png","img2/100/Congruent/L/C_Dist_100_LN_6_LD_20_RN_5_RD_25_0.png","img2/300/Incongruent/R/I_Dist_300_LN_4_LD_20_RN_2_RD_4_1.png","img2/100/Congruent/R/C_Dist_100_LN_3_LD_20_RN_4_RD_16_1.png","img2/200/Congruent/R/C_Dist_200_LN_13_LD_26_RN_14_RD_20_1.png","img2/300/Congruent/L/C_Dist_300_LN_3_LD_6_RN_2_RD_10_0.png","img2/300/Congruent/R/C_Dist_300_LN_8_LD_15_RN_10_RD_12_1.png","img2/100/Incongruent/L/I_Dist_100_LN_2_LD_4_RN_8_RD_20_0.png","img2/100/Congruent/L/C_Dist_100_LN_9_LD_15_RN_8_RD_16_0.png","img2/200/Incongruent/L/I_Dist_200_LN_1_LD_3_RN_2_RD_15_0.png","img2/200/Incongruent/L/I_Dist_200_LN_1_LD_3_RN_2_RD_15_0.png","img2/100/Incongruent/L/I_Dist_100_LN_2_LD_4_RN_6_RD_15_0.png","img2/200/Congruent/L/C_Dist_200_LN_8_LD_15_RN_7_RD_21_0.png","img2/200/Congruent/L/C_Dist_200_LN_4_LD_8_RN_3_RD_10_0.png","img2/100/Congruent/R/C_Dist_100_LN_4_LD_8_RN_6_RD_10_1.png","img2/100/Congruent/R/C_Dist_100_LN_4_LD_8_RN_6_RD_10_1.png","img2/300/Incongruent/R/I_Dist_300_LN_13_LD_26_RN_12_RD_15_1.png","img2/100/Incongruent/R/I_Dist_100_LN_12_LD_24_RN_9_RD_15_1.png","img2/300/Incongruent/R/I_Dist_300_LN_4_LD_20_RN_2_RD_4_1.png","img2/100/Congruent/L/C_Dist_100_LN_11_LD_22_RN_4_RD_10_0.png","img2/300/Incongruent/R/I_Dist_300_LN_13_LD_26_RN_12_RD_15_1.png","img2/200/Incongruent/R/I_Dist_200_LN_11_LD_20_RN_3_RD_4_1.png","img2/200/Congruent/R/C_Dist_200_LN_3_LD_12_RN_9_RD_20_1.png","img2/100/Congruent/L/C_Dist_100_LN_9_LD_15_RN_8_RD_16_0.png","img2/100/Incongruent/L/I_Dist_100_LN_3_LD_9_RN_7_RD_30_0.png","img2/300/Congruent/L/C_Dist_300_LN_11_LD_22_RN_2_RD_10_0.png","img2/100/Incongruent/R/I_Dist_100_LN_8_LD_16_RN_6_RD_10_1.png","img2/200/Congruent/L/C_Dist_200_LN_4_LD_8_RN_3_RD_10_0.png","img2/100/Congruent/L/C_Dist_100_LN_9_LD_15_RN_8_RD_16_0.png","img2/200/Congruent/R/C_Dist_200_LN_6_LD_12_RN_7_RD_10_1.png","img2/300/Congruent/R/C_Dist_300_LN_1_LD_5_RN_11_RD_22_1.png","img2/200/Incongruent/L/I_Dist_200_LN_4_LD_5_RN_6_RD_10_0.png","img2/100/Congruent/R/C_Dist_100_LN_12_LD_30_RN_13_RD_26_1.png","img2/200/Incongruent/L/I_Dist_200_LN_3_LD_4_RN_11_RD_20_0.png","img2/100/Incongruent/R/I_Dist_100_LN_17_LD_30_RN_10_RD_15_1.png","img2/100/Incongruent/L/I_Dist_100_LN_6_LD_10_RN_11_RD_22_0.png","img2/200/Incongruent/R/I_Dist_200_LN_3_LD_10_RN_1_RD_2_1.png","img2/100/Congruent/L/C_Dist_100_LN_11_LD_22_RN_6_RD_15_0.png","img2/200/Incongruent/R/I_Dist_200_LN_6_LD_20_RN_3_RD_6_1.png","img2/200/Congruent/L/C_Dist_200_LN_8_LD_15_RN_3_RD_9_0.png","img2/100/Congruent/L/C_Dist_100_LN_6_LD_20_RN_5_RD_25_0.png","img2/100/Incongruent/R/I_Dist_100_LN_12_LD_30_RN_2_RD_4_1.png","img2/300/Incongruent/L/I_Dist_300_LN_8_LD_10_RN_9_RD_18_0.png","img2/200/Incongruent/R/I_Dist_200_LN_7_LD_15_RN_6_RD_9_1.png","img2/100/Incongruent/L/I_Dist_100_LN_1_LD_2_RN_8_RD_20_0.png","img2/300/Congruent/R/C_Dist_300_LN_7_LD_14_RN_20_RD_25_1.png","img2/300/Incongruent/R/I_Dist_300_LN_4_LD_20_RN_2_RD_4_1.png","img2/300/Congruent/L/C_Dist_300_LN_24_LD_30_RN_8_RD_16_0.png","img2/100/Congruent/R/C_Dist_100_LN_2_LD_5_RN_6_RD_12_1.png","img2/300/Congruent/L/C_Dist_300_LN_11_LD_22_RN_1_RD_5_0.png","img2/200/Congruent/L/C_Dist_200_LN_20_LD_25_RN_9_RD_15_0.png","img2/300/Incongruent/L/I_Dist_300_LN_8_LD_10_RN_9_RD_18_0.png","img2/100/Congruent/L/C_Dist_100_LN_6_LD_20_RN_5_RD_25_0.png","img2/300/Congruent/R/C_Dist_300_LN_5_LD_25_RN_7_RD_14_1.png","img2/200/Incongruent/R/I_Dist_200_LN_14_LD_30_RN_12_RD_18_1.png","img2/200/Incongruent/L/I_Dist_200_LN_4_LD_6_RN_14_RD_30_0.png","img2/100/Incongruent/R/I_Dist_100_LN_8_LD_20_RN_1_RD_2_1.png","img2/300/Incongruent/R/I_Dist_300_LN_4_LD_20_RN_2_RD_4_1.png","img2/300/Congruent/R/C_Dist_300_LN_1_LD_5_RN_3_RD_6_1.png","img2/300/Incongruent/L/I_Dist_300_LN_3_LD_6_RN_4_RD_20_0.png","img2/200/Incongruent/R/I_Dist_200_LN_14_LD_30_RN_12_RD_18_1.png","img2/200/Congruent/L/C_Dist_200_LN_12_LD_15_RN_6_RD_10_0.png","img2/200/Congruent/R/C_Dist_200_LN_6_LD_20_RN_11_RD_22_1.png","img2/200/Incongruent/L/I_Dist_200_LN_7_LD_10_RN_14_RD_28_0.png","img2/200/Congruent/R/C_Dist_200_LN_5_LD_10_RN_14_RD_20_1.png","img2/200/Congruent/R/C_Dist_200_LN_3_LD_12_RN_9_RD_20_1.png","img2/200/Incongruent/R/I_Dist_200_LN_3_LD_10_RN_1_RD_2_1.png","img2/200/Congruent/L/C_Dist_200_LN_9_LD_20_RN_4_RD_16_0.png","img2/300/Congruent/L/C_Dist_300_LN_20_LD_25_RN_9_RD_18_0.png","img2/200/Congruent/L/C_Dist_200_LN_8_LD_15_RN_7_RD_21_0.png","img2/200/Incongruent/R/I_Dist_200_LN_11_LD_20_RN_3_RD_4_1.png","img2/100/Incongruent/L/I_Dist_100_LN_1_LD_2_RN_8_RD_20_0.png","img2/100/Incongruent/R/I_Dist_100_LN_11_LD_22_RN_9_RD_15_1.png","img2/300/Incongruent/L/I_Dist_300_LN_7_LD_10_RN_8_RD_20_0.png","img2/200/Incongruent/R/I_Dist_200_LN_6_LD_20_RN_3_RD_6_1.png","img2/200/Congruent/R/C_Dist_200_LN_13_LD_26_RN_14_RD_20_1.png","img2/300/Congruent/L/C_Dist_300_LN_24_LD_30_RN_2_RD_4_0.png","img2/300/Incongruent/L/I_Dist_300_LN_1_LD_2_RN_2_RD_10_0.png","img2/300/Congruent/L/C_Dist_300_LN_20_LD_25_RN_8_RD_16_0.png","img2/300/Incongruent/L/I_Dist_300_LN_4_LD_5_RN_6_RD_12_0.png"],"dist100_C":[["C_Dist_100_LN_10_LD_25_RN_3_RD_10_0.png","C_Dist_100_LN_11_LD_22_RN_4_RD_10_0.png","C_Dist_100_LN_11_LD_22_RN_6_RD_15_0.png","C_Dist_100_LN_15_LD_25_RN_13_RD_26_0.png","C_Dist_100_LN_3_LD_6_RN_2_RD_5_0.png","C_Dist_100_LN_6_LD_20_RN_5_RD_25_0.png","C_Dist_100_LN_8_LD_16_RN_2_RD_5_0.png","C_Dist_100_LN_9_LD_15_RN_8_RD_16_0.png"],["C_Dist_100_LN_1_LD_2_RN_18_RD_30_1.png","C_Dist_100_LN_1_LD_2_RN_3_RD_5_1.png","C_Dist_100_LN_12_LD_30_RN_13_RD_26_1.png","C_Dist_100_LN_2_LD_5_RN_11_RD_22_1.png","C_Dist_100_LN_2_LD_5_RN_6_RD_12_1.png","C_Dist_100_LN_3_LD_20_RN_4_RD_16_1.png","C_Dist_100_LN_4_LD_10_RN_15_RD_30_1.png","C_Dist_100_LN_4_LD_8_RN_6_RD_10_1.png","C_Dist_100_LN_6_LD_12_RN_15_RD_25_1.png","C_Dist_100_LN_7_LD_14_RN_15_RD_25_1.png","C_Dist_100_LN_7_LD_14_RN_9_RD_15_1.png"]],"dist100_I":[["I_Dist_100_LN_1_LD_2_RN_8_RD_20_0.png","I_Dist_100_LN_2_LD_4_RN_6_RD_15_0.png","I_Dist_100_LN_2_LD_4_RN_8_RD_20_0.png","I_Dist_100_LN_3_LD_5_RN_11_RD_22_0.png","I_Dist_100_LN_3_LD_5_RN_8_RD_16_0.png","I_Dist_100_LN_3_LD_6_RN_4_RD_10_0.png","I_Dist_100_LN_3_LD_9_RN_7_RD_30_0.png","I_Dist_100_LN_4_LD_8_RN_8_RD_20_0.png","I_Dist_100_LN_6_LD_10_RN_11_RD_22_0.png","I_Dist_100_LN_6_LD_10_RN_13_RD_26_0.png","I_Dist_100_LN_6_LD_10_RN_7_RD_14_0.png","I_Dist_100_LN_9_LD_10_RN_20_RD_25_0.png","I_Dist_100_LN_9_LD_15_RN_13_RD_26_0.png","I_Dist_100_LN_9_LD_15_RN_14_RD_28_0.png"],["I_Dist_100_LN_10_LD_25_RN_8_RD_16_1.png","I_Dist_100_LN_10_LD_25_RN_9_RD_18_1.png","I_Dist_100_LN_11_LD_22_RN_9_RD_15_1.png","I_Dist_100_LN_12_LD_24_RN_9_RD_15_1.png","I_Dist_100_LN_12_LD_30_RN_2_RD_4_1.png","I_Dist_100_LN_13_LD_26_RN_12_RD_20_1.png","I_Dist_100_LN_13_LD_26_RN_6_RD_10_1.png","I_Dist_100_LN_17_LD_30_RN_10_RD_15_1.png","I_Dist_100_LN_6_LD_12_RN_3_RD_5_1.png","I_Dist_100_LN_8_LD_16_RN_6_RD_10_1.png","I_Dist_100_LN_8_LD_20_RN_1_RD_2_1.png","I_Dist_100_LN_9_LD_18_RN_6_RD_10_1.png"]],"dist100_S":[["E_Dist_100_LN_2_LD_12_RN_2_RD_30_0.png","E_Dist_100_LN_6_LD_10_RN_6_RD_12_0.png"],["E_Dist_100_LN_6_LD_12_RN_6_RD_10_1.png"]],"dist200_C":[["C_Dist_200_LN_11_LD_22_RN_3_RD_10_0.png","C_Dist_200_LN_12_LD_15_RN_6_RD_10_0.png","C_Dist_200_LN_12_LD_20_RN_6_RD_15_0.png","C_Dist_200_LN_14_LD_28_RN_6_RD_20_0.png","C_Dist_200_LN_15_LD_25_RN_4_RD_10_0.png","C_Dist_200_LN_16_LD_20_RN_12_RD_20_0.png","C_Dist_200_LN_16_LD_30_RN_9_RD_27_0.png","C_Dist_200_LN_20_LD_25_RN_9_RD_15_0.png","C_Dist_200_LN_21_LD_30_RN_2_RD_4_0.png","C_Dist_200_LN_4_LD_10_RN_3_RD_15_0.png","C_Dist_200_LN_4_LD_8_RN_3_RD_10_0.png","C_Dist_200_LN_6_LD_15_RN_3_RD_15_0.png","C_Dist_200_LN_7_LD_21_RN_2_RD_15_0.png","C_Dist_200_LN_8_LD_15_RN_2_RD_6_0.png","C_Dist_200_LN_8_LD_15_RN_3_RD_9_0.png","C_Dist_200_LN_8_LD_15_RN_7_RD_21_0.png","C_Dist_200_LN_9_LD_20_RN_4_RD_16_0.png"],["C_Dist_200_LN_1_LD_2_RN_21_RD_30_1.png","C_Dist_200_LN_13_LD_26_RN_14_RD_20_1.png","C_Dist_200_LN_3_LD_10_RN_11_RD_22_1.png","C_Dist_200_LN_3_LD_10_RN_14_RD_28_1.png","C_Dist_200_LN_3_LD_10_RN_7_RD_14_1.png","C_Dist_200_LN_3_LD_12_RN_9_RD_20_1.png","C_Dist_200_LN_3_LD_6_RN_14_RD_20_1.png","C_Dist_200_LN_5_LD_10_RN_14_RD_20_1.png","C_Dist_200_LN_6_LD_12_RN_7_RD_10_1.png","C_Dist_200_LN_6_LD_20_RN_11_RD_22_1.png","C_Dist_200_LN_7_LD_15_RN_18_RD_27_1.png","C_Dist_200_LN_9_LD_30_RN_13_RD_26_1.png"]],"dist200_I":[["I_Dist_200_LN_1_LD_2_RN_3_RD_10_0.png","I_Dist_200_LN_1_LD_3_RN_2_RD_15_0.png","I_Dist_200_LN_3_LD_4_RN_11_RD_20_0.png","I_Dist_200_LN_4_LD_5_RN_6_RD_10_0.png","I_Dist_200_LN_4_LD_6_RN_14_RD_30_0.png","I_Dist_200_LN_7_LD_10_RN_12_RD_24_0.png","I_Dist_200_LN_7_LD_10_RN_14_RD_28_0.png","I_Dist_200_LN_7_LD_10_RN_8_RD_16_0.png"],["I_Dist_200_LN_11_LD_20_RN_3_RD_4_1.png","I_Dist_200_LN_14_LD_30_RN_12_RD_18_1.png","I_Dist_200_LN_14_LD_30_RN_6_RD_9_1.png","I_Dist_200_LN_3_LD_10_RN_1_RD_2_1.png","I_Dist_200_LN_4_LD_30_RN_1_RD_3_1.png","I_Dist_200_LN_6_LD_20_RN_3_RD_6_1.png","I_Dist_200_LN_7_LD_15_RN_4_RD_6_1.png","I_Dist_200_LN_7_LD_15_RN_6_RD_9_1.png","I_Dist_200_LN_9_LD_15_RN_8_RD_10_1.png"]],"dist200_S":[["E_Dist_200_LN_3_LD_6_RN_3_RD_10_0.png"],["E_Dist_200_LN_3_LD_10_RN_3_RD_6_1.png"]],"dist300_C":[["C_Dist_300_LN_11_LD_22_RN_1_RD_5_0.png","C_Dist_300_LN_11_LD_22_RN_2_RD_10_0.png","C_Dist_300_LN_11_LD_22_RN_4_RD_20_0.png","C_Dist_300_LN_12_LD_24_RN_2_RD_10_0.png","C_Dist_300_LN_18_LD_20_RN_9_RD_15_0.png","C_Dist_300_LN_20_LD_25_RN_13_RD_26_0.png","C_Dist_300_LN_20_LD_25_RN_14_RD_28_0.png","C_Dist_300_LN_20_LD_25_RN_5_RD_10_0.png","C_Dist_300_LN_20_LD_25_RN_8_RD_16_0.png","C_Dist_300_LN_20_LD_25_RN_9_RD_18_0.png","C_Dist_300_LN_24_LD_30_RN_2_RD_4_0.png","C_Dist_300_LN_24_LD_30_RN_8_RD_16_0.png","C_Dist_300_LN_3_LD_6_RN_2_RD_10_0.png","C_Dist_300_LN_4_LD_10_RN_1_RD_10_0.png","C_Dist_300_LN_4_LD_5_RN_2_RD_4_0.png","C_Dist_300_LN_8_LD_16_RN_1_RD_5_0.png","C_Dist_300_LN_9_LD_10_RN_3_RD_5_0.png"],["C_Dist_300_LN_1_LD_20_RN_7_RD_20_1.png","C_Dist_300_LN_1_LD_3_RN_19_RD_30_1.png","C_Dist_300_LN_1_LD_30_RN_8_RD_24_1.png","C_Dist_300_LN_1_LD_5_RN_11_RD_22_1.png","C_Dist_300_LN_1_LD_5_RN_3_RD_6_1.png","C_Dist_300_LN_1_LD_5_RN_6_RD_12_1.png","C_Dist_300_LN_2_LD_10_RN_12_RD_24_1.png","C_Dist_300_LN_2_LD_20_RN_10_RD_25_1.png","C_Dist_300_LN_3_LD_12_RN_11_RD_20_1.png","C_Dist_300_LN_3_LD_6_RN_4_RD_5_1.png","C_Dist_300_LN_4_LD_20_RN_13_RD_26_1.png","C_Dist_300_LN_5_LD_25_RN_6_RD_12_1.png","C_Dist_300_LN_5_LD_25_RN_7_RD_14_1.png","C_Dist_300_LN_7_LD_14_RN_20_RD_25_1.png","C_Dist_300_LN_8_LD_15_RN_10_RD_12_1.png"]],"dist300_I":[["I_Dist_300_LN_1_LD_2_RN_2_RD_10_0.png","I_Dist_300_LN_1_LD_2_RN_3_RD_15_0.png","I_Dist_300_LN_2_LD_4_RN_6_RD_30_0.png","I_Dist_300_LN_3_LD_6_RN_4_RD_20_0.png","I_Dist_300_LN_4_LD_5_RN_6_RD_12_0.png","I_Dist_300_LN_4_LD_5_RN_8_RD_16_0.png","I_Dist_300_LN_7_LD_10_RN_8_RD_20_0.png","I_Dist_300_LN_8_LD_10_RN_14_RD_28_0.png","I_Dist_300_LN_8_LD_10_RN_9_RD_18_0.png"],["I_Dist_300_LN_13_LD_26_RN_12_RD_15_1.png","I_Dist_300_LN_4_LD_20_RN_2_RD_4_1.png"]],"dist300_S":[["E_Dist_300_LN_9_LD_12_RN_9_RD_20_0.png"],["E_Dist_300_LN_18_LD_30_RN_18_RD_20_1.png","E_Dist_300_LN_3_LD_10_RN_3_RD_5_1.png","E_Dist_300_LN_9_LD_20_RN_9_RD_12_1.png"]],"dist500_C":[["C_Dist_500_LN_10_LD_13_RN_7_RD_26_0.png","C_Dist_500_LN_10_LD_15_RN_4_RD_24_0.png","C_Dist_500_LN_12_LD_16_RN_3_RD_12_0.png","C_Dist_500_LN_12_LD_18_RN_4_RD_24_0.png","C_Dist_500_LN_15_LD_18_RN_5_RD_15_0.png","C_Dist_500_LN_15_LD_20_RN_1_RD_4_0.png","C_Dist_500_LN_18_LD_27_RN_1_RD_6_0.png","C_Dist_500_LN_20_LD_24_RN_1_RD_3_0.png","C_Dist_500_LN_20_LD_24_RN_3_RD_9_0.png","C_Dist_500_LN_20_LD_24_RN_7_RD_21_0.png","C_Dist_500_LN_20_LD_28_RN_3_RD_14_0.png","C_Dist_500_LN_21_LD_28_RN_6_RD_24_0.png","C_Dist_500_LN_22_LD_28_RN_2_RD_7_0.png","C_Dist_500_LN_25_LD_30_RN_9_RD_27_0.png","C_Dist_500_LN_4_LD_6_RN_1_RD_6_0.png","C_Dist_500_LN_5_LD_6_RN_2_RD_6_0.png","C_Dist_500_LN_6_LD_9_RN_1_RD_6_0.png","C_Dist_500_LN_7_LD_10_RN_1_RD_5_0.png","C_Dist_500_LN_8_LD_12_RN_1_RD_6_0.png","C_Dist_500_LN_8_LD_12_RN_4_RD_24_0.png"],["C_Dist_500_LN_1_LD_4_RN_12_RD_16_1.png","C_Dist_500_LN_1_LD_4_RN_9_RD_12_1.png","C_Dist_500_LN_1_LD_9_RN_11_RD_18_1.png","C_Dist_500_LN_10_LD_24_RN_22_RD_24_1.png","C_Dist_500_LN_2_LD_12_RN_10_RD_15_1.png","C_Dist_500_LN_2_LD_12_RN_12_RD_18_1.png","C_Dist_500_LN_2_LD_12_RN_4_RD_6_1.png","C_Dist_500_LN_2_LD_24_RN_7_RD_12_1.png","C_Dist_500_LN_2_LD_5_RN_18_RD_20_1.png","C_Dist_500_LN_2_LD_5_RN_9_RD_10_1.png","C_Dist_500_LN_2_LD_8_RN_12_RD_16_1.png","C_Dist_500_LN_2_LD_8_RN_21_RD_28_1.png","C_Dist_500_LN_3_LD_10_RN_4_RD_5_1.png","C_Dist_500_LN_3_LD_12_RN_15_RD_20_1.png","C_Dist_500_LN_3_LD_30_RN_6_RD_10_1.png","C_Dist_500_LN_3_LD_8_RN_14_RD_16_1.png","C_Dist_500_LN_4_LD_16_RN_15_RD_20_1.png","C_Dist_500_LN_4_LD_24_RN_12_RD_18_1.png","C_Dist_500_LN_5_LD_14_RN_6_RD_7_1.png","C_Dist_500_LN_7_LD_21_RN_20_RD_24_1.png","C_Dist_500_LN_7_LD_28_RN_12_RD_16_1.png","C_Dist_500_LN_7_LD_28_RN_9_RD_12_1.png","C_Dist_500_LN_9_LD_27_RN_20_RD_24_1.png"]],"dist500_I":[["I_Dist_500_LN_2_LD_3_RN_4_RD_24_0.png","I_Dist_500_LN_5_LD_6_RN_6_RD_18_0.png","I_Dist_500_LN_7_LD_8_RN_9_RD_24_0.png"],["I_Dist_500_LN_7_LD_21_RN_5_RD_6_1.png"]],"dist500_S":[["E_Dist_500_LN_6_LD_8_RN_6_RD_24_0.png"],["E_Dist_500_LN_2_LD_12_RN_2_RD_3_1.png","E_Dist_500_LN_6_LD_24_RN_6_RD_8_1.png"]]}},{"start_time":1552308419183,"click_time":1552308420379,"finger_time":1552308419776,"fix_duration":1262.8436390713587,"trial":1,"RT":593,"MT":603,"sideResp":1,"stimulus":[],"xmouse":[778,778,778,778,778,778,778,778,778,778,778,778,778,778,778,778,778,778,778,778,778,778,778,778,778,778,778,778,771,752,675,644,624,611,603,603,603,603,603,601,601,600,600,599,594,590,581,572,560,539,535,534,533,532,528,525,523,522,522,515],"ymouse":[525,525,525,525,525,525,525,525,525,525,525,525,525,525,525,525,525,525,525,525,525,525,525,525,525,525,525,521,508,460,303,250,216,200,179,176,173,171,168,164,163,162,161,160,156,151,142,134,126,101,94,92,91,90,87,86,85,85,85,82],"timestamp_mouse":[13,34,54,75,94,114,135,154,175,195,214,233,254,275,294,315,335,355,374,395,415,433,453,474,495,514,534,554,574,593,613,634,653,673,695,714,734,755,774,794,814,834,855,875,894,913,934,954,974,995,1014,1034,1053,1073,1095,1114,1134,1154,1175,1195],"xSR":733.5,"ySR":464.1,"xT1":420.09999999999997,"yT1":0,"xT2":1046.8999999999999,"yT2":0,"toosoon":0,"cond_shown":"Congruent","ratio_trial":300,"L_num":24,"L_den":30,"R_num":2,"R_den":4,"correct_side":1,"subjID":"Marianalopez1","gender":"1","school":"4","age":"9"},{"start_time":1552308422827,"click_time":1552308425478,"finger_time":1552308423497,"fix_duration":1447.5264198059579,"trial":2,"RT":670,"MT":1981,"sideResp":1,"stimulus":[],"xmouse":[785,785,785,785,785,785,785,785,785,785,785,785,785,785,785,785,785,785,785,785,785,785,785,785,785,785,785,785,785,785,785,785,795,836,865,894,917,933,948,948,948,948,949,956,965,976,986,991,991,991,991,991,977,893,828,778,750,733,733,733,735,735,738,739,739,739,739,740,741,743,743,743,745,747,748,748,748,748,748,749,753,755,760,764,766,767,767,767,772,772,772,772,772,772,772,772,772,772,772,772,772,772,772,772,772,772,772,772,772,772,772,772,772,772,772,772,772,772,772,772,772,769,753,730,706,681,651,626,564,544,534,527,519],"ymouse":[538,538,538,538,538,538,538,538,538,538,535,534,534,533,533,533,533,533,533,533,533,533,533,533,533,533,533,533,533,533,533,533,511,427,355,288,241,214,177,176,176,176,175,168,159,150,144,140,140,140,140,140,147,212,269,319,351,387,392,396,400,401,413,420,422,427,432,455,461,467,470,475,487,491,492,492,492,492,492,493,493,493,497,500,502,503,503,503,502,501,501,501,501,501,501,501,501,501,501,501,501,501,501,501,501,501,501,501,501,501,501,501,501,501,501,501,501,501,501,501,501,479,424,370,312,267,209,171,84,62,52,47,40],"timestamp_mouse":[11,30,50,69,90,109,130,150,171,190,210,229,251,271,289,311,331,349,370,391,409,429,451,470,491,509,529,551,571,589,611,630,649,670,690,710,731,750,770,790,810,830,851,870,891,910,930,951,970,991,1010,1029,1051,1069,1090,1110,1131,1151,1170,1190,1211,1230,1251,1270,1290,1310,1330,1351,1370,1390,1410,1430,1450,1470,1490,1510,1531,1551,1570,1590,1611,1630,1650,1669,1691,1711,1731,1749,1771,1791,1811,1829,1850,1870,1891,1909,1931,1951,1971,1991,2010,2031,2050,2071,2091,2109,2129,2151,2170,2190,2210,2230,2251,2269,2289,2310,2330,2351,2369,2389,2409,2429,2450,2469,2490,2510,2529,2550,2570,2590,2610,2629,2651],"xSR":733.5,"ySR":464.1,"xT1":420.09999999999997,"yT1":0,"xT2":1046.8999999999999,"yT2":0,"toosoon":0,"cond_shown":"Incongruent","ratio_trial":300,"L_num":4,"L_den":5,"R_num":6,"R_den":12,"correct_side":1,"subjID":"Marianalopez1","gender":"1","school":"4","age":"9"},{"start_time":1552308428899,"click_time":1552308431817,"finger_time":1552308431477,"fix_duration":1360.0841373516782,"trial":3,"RT":2578,"MT":340,"sideResp":1,"stimulus":[],"xmouse":[767,767,767,767,767,767,767,767,767,767,767,767,767,767,767,767,767,767,767,767,767,767,767,767,767,767,767,767,767,767,767,767,767,767,767,767,767,767,767,767,767,767,767,767,767,767,767,767,767,767,767,767,767,767,767,767,767,767,767,767,767,767,767,767,767,767,767,767,767,767,767,767,767,767,767,767,767,767,767,767,767,767,767,767,767,767,767,767,767,767,767,767,767,767,767,767,767,767,767,767,767,767,767,767,767,767,767,767,767,767,767,767,767,767,767,767,767,767,767,767,767,767,767,767,767,766,766,764,756,731,719,709,700,691,684,675,662,650,638,627,623,614,598,536,526,517],"ymouse":[528,528,528,528,528,528,528,528,528,528,528,528,528,528,528,528,528,528,528,528,528,528,528,528,528,528,528,528,528,528,528,528,528,528,528,528,528,528,528,528,528,528,528,528,528,528,528,528,528,528,528,528,528,528,528,528,528,528,528,528,528,528,528,528,528,528,528,528,528,528,528,528,528,528,528,528,528,528,528,528,528,528,528,528,528,528,528,528,528,528,528,528,528,528,528,528,528,528,528,528,528,528,528,528,528,528,528,528,528,528,528,528,528,528,528,528,528,528,528,528,528,528,528,528,528,525,513,488,462,393,365,344,330,315,304,291,273,256,240,225,216,202,180,107,92,78],"timestamp_mouse":[18,38,57,78,99,119,138,159,178,199,218,238,258,278,298,319,338,359,379,398,418,437,458,479,499,519,539,558,579,598,618,639,659,679,698,718,739,759,778,798,819,839,858,879,899,918,937,957,979,999,1018,1038,1058,1079,1099,1118,1137,1159,1179,1198,1218,1239,1259,1279,1298,1318,1338,1358,1377,1398,1419,1439,1458,1479,1497,1517,1538,1559,1578,1599,1618,1639,1658,1677,1697,1719,1739,1759,1779,1798,1819,1838,1858,1879,1898,1918,1937,1958,1979,1999,2019,2039,2057,2077,2099,2119,2138,2159,2178,2198,2218,2237,2259,2279,2299,2317,2339,2359,2378,2399,2418,2439,2458,2478,2498,2517,2539,2558,2578,2599,2619,2638,2659,2679,2698,2717,2738,2758,2778,2798,2819,2838,2857,2880,2898,2918],"xSR":733.5,"ySR":464.1,"xT1":420.09999999999997,"yT1":0,"xT2":1046.8999999999999,"yT2":0,"toosoon":0,"cond_shown":"Congruent","ratio_trial":300,"L_num":3,"L_den":6,"R_num":2,"R_den":10,"correct_side":1,"subjID":"Marianalopez1","gender":"1","school":"4","age":"9"},{"start_time":1552308435841,"click_time":1552308437758,"finger_time":1552308437557,"fix_duration":1241.4203524565503,"trial":4,"RT":1716,"MT":201,"sideResp":2,"stimulus":[],"xmouse":[760,760,760,760,760,760,760,760,760,760,760,760,760,760,760,760,760,760,760,760,760,760,760,760,760,760,760,760,760,760,760,760,760,760,760,760,760,760,760,760,760,760,760,760,760,760,760,760,760,760,760,760,760,760,760,760,760,760,760,760,760,760,760,760,760,760,760,760,760,760,760,760,760,760,760,760,760,760,760,760,760,760,760,770,789,824,928,1003,1038,1068,1080,1085,1085,1085,1086,1087],"ymouse":[510,510,510,510,510,510,510,510,510,510,510,510,510,510,510,510,510,510,510,510,510,510,510,510,510,510,510,510,510,510,510,510,510,510,510,510,510,510,510,510,510,510,510,510,510,510,510,510,510,510,510,510,510,510,510,510,510,510,510,510,510,510,510,510,510,510,510,510,510,510,510,510,510,510,510,510,510,510,510,510,510,510,510,497,473,431,319,234,180,143,125,113,113,113,109,98],"timestamp_mouse":[16,46,56,76,96,117,136,157,177,196,217,236,257,276,297,316,336,356,376,396,416,437,456,476,496,516,536,556,575,595,617,636,656,677,696,717,736,757,776,796,817,837,856,876,897,917,937,956,976,996,1017,1036,1057,1075,1097,1116,1137,1156,1177,1197,1217,1237,1256,1276,1297,1315,1337,1357,1376,1396,1416,1437,1456,1477,1496,1517,1535,1556,1577,1597,1617,1636,1655,1675,1697,1716,1737,1755,1775,1796,1816,1837,1855,1875,1896,1917],"xSR":733.5,"ySR":464.1,"xT1":420.09999999999997,"yT1":0,"xT2":1046.8999999999999,"yT2":0,"toosoon":0,"cond_shown":"Congruent","ratio_trial":200,"L_num":5,"L_den":10,"R_num":14,"R_den":20,"correct_side":2,"subjID":"Marianalopez1","gender":"1","school":"4","age":"9"},{"start_time":1552308441741,"click_time":1552308443597,"finger_time":1552308443317,"fix_duration":403.87299599543303,"trial":5,"RT":1576,"MT":280,"sideResp":2,"stimulus":[],"xmouse":[776,776,776,776,776,776,776,776,776,774,774,774,773,773,772,772,772,772,772,772,772,772,772,772,772,772,772,772,772,772,772,772,772,772,772,772,772,772,772,772,772,772,772,772,772,772,772,772,772,772,772,772,772,772,772,772,772,772,772,772,772,772,772,772,772,772,772,772,772,772,772,772,772,772,772,772,791,806,823,835,848,865,890,896,900,903,905,925,943,967,991,1040,1057],"ymouse":[541,541,541,541,541,541,541,541,541,541,540,537,532,530,529,529,529,529,529,528,528,528,527,527,527,527,527,527,527,527,527,527,527,527,527,527,527,527,527,527,527,527,527,527,527,527,527,527,527,527,527,527,527,527,527,527,527,527,527,527,527,527,527,527,527,527,527,527,527,527,527,527,527,527,527,524,503,486,464,444,425,394,358,349,342,336,330,289,257,217,184,109,85],"timestamp_mouse":[15,40,56,77,97,117,135,157,175,195,216,236,256,275,297,315,335,356,375,396,415,435,457,475,497,517,537,556,576,597,617,637,655,676,696,717,736,757,777,797,816,837,856,877,897,915,935,957,976,997,1017,1036,1057,1076,1097,1117,1136,1157,1177,1195,1217,1237,1257,1276,1297,1317,1335,1357,1376,1397,1417,1435,1457,1476,1495,1515,1536,1556,1575,1596,1616,1636,1657,1676,1696,1716,1736,1756,1776,1796,1817,1837,1856],"xSR":733.5,"ySR":464.1,"xT1":420.09999999999997,"yT1":0,"xT2":1046.8999999999999,"yT2":0,"toosoon":0,"cond_shown":"Congruent","ratio_trial":100,"L_num":7,"L_den":14,"R_num":9,"R_den":15,"correct_side":2,"subjID":"Marianalopez1","gender":"1","school":"4","age":"9"},{"start_time":1552308447804,"click_time":1552308449697,"finger_time":1552308449577,"fix_duration":845.4968385606585,"trial":6,"RT":1773,"MT":120,"sideResp":2,"stimulus":[],"xmouse":[753,753,753,753,753,753,753,753,753,753,753,753,753,753,753,753,753,753,753,753,753,753,753,753,753,753,753,753,753,753,753,753,753,753,753,753,753,753,753,753,753,753,753,753,753,753,753,753,753,753,753,753,753,753,753,753,753,753,753,753,753,753,753,753,753,753,753,753,753,753,753,753,753,753,753,753,753,753,753,753,753,753,753,753,753,753,753,753,795,834,873,910,957,1045,1077],"ymouse":[520,520,520,520,520,520,520,520,520,520,520,520,520,520,520,520,520,520,520,520,520,520,520,520,520,520,520,520,520,520,520,520,520,520,520,520,520,520,520,520,520,520,520,520,520,520,520,520,520,520,520,520,520,520,520,520,520,520,520,520,520,520,520,520,520,520,520,520,520,520,520,520,520,520,520,520,520,520,520,520,520,520,520,520,520,520,520,520,463,413,351,285,215,72,21],"timestamp_mouse":[13,36,54,74,94,114,132,154,173,194,212,234,254,272,293,313,333,354,374,393,414,434,453,474,494,513,533,553,572,594,613,632,654,674,692,713,734,753,772,792,814,833,854,873,894,913,933,952,972,992,1013,1034,1053,1074,1094,1113,1134,1153,1172,1194,1213,1233,1254,1272,1294,1312,1333,1354,1373,1393,1413,1433,1452,1473,1494,1514,1534,1553,1572,1593,1613,1634,1654,1673,1693,1713,1734,1754,1773,1792,1813,1833,1853,1874,1892],"xSR":733.5,"ySR":464.1,"xT1":420.09999999999997,"yT1":0,"xT2":1046.8999999999999,"yT2":0,"toosoon":0,"cond_shown":"Congruent","ratio_trial":100,"L_num":4,"L_den":8,"R_num":6,"R_den":10,"correct_side":2,"subjID":"Marianalopez1","gender":"1","school":"4","age":"9"},{"start_time":1552308454208,"click_time":1552308455436,"finger_time":1552308455016,"fix_duration":1249.8570098059556,"trial":7,"RT":808,"MT":420,"sideResp":2,"stimulus":[],"xmouse":[770,770,770,770,770,770,770,770,770,770,770,770,770,770,770,770,770,770,770,770,770,770,770,770,770,770,770,770,770,770,770,770,770,770,770,770,770,770,773,798,812,832,860,891,962,989,1009,1029,1087,1104,1112,1114,1114,1112,1109,1105,1101,1098,1091,1091,1091,1091],"ymouse":[501,501,501,501,501,501,501,501,501,501,501,501,501,501,501,501,501,501,501,501,501,501,501,501,501,501,501,501,501,501,501,501,501,501,501,501,501,501,496,466,452,438,416,393,352,331,314,292,236,221,209,199,194,189,186,182,177,169,132,118,107,95],"timestamp_mouse":[11,41,50,69,89,110,130,148,168,189,208,230,248,268,289,308,328,349,368,388,409,428,449,469,487,509,528,549,567,589,609,629,648,668,689,708,728,749,767,789,807,829,848,868,887,908,928,948,969,988,1007,1028,1047,1069,1087,1107,1127,1149,1169,1188,1208,1228],"xSR":733.5,"ySR":464.1,"xT1":420.09999999999997,"yT1":0,"xT2":1046.8999999999999,"yT2":0,"toosoon":0,"cond_shown":"Incongruent","ratio_trial":200,"L_num":7,"L_den":10,"R_num":12,"R_den":24,"correct_side":1,"subjID":"Marianalopez1","gender":"1","school":"4","age":"9"},{"start_time":1552308457548,"click_time":1552308459296,"finger_time":1552308458976,"fix_duration":671.9089539381089,"trial":8,"RT":1428,"MT":320,"sideResp":1,"stimulus":[],"xmouse":[769,769,769,769,769,769,769,769,769,769,769,769,769,769,769,769,769,769,769,769,769,769,769,769,769,769,769,769,769,769,769,769,769,769,769,769,769,769,769,769,769,769,769,769,769,769,769,769,769,769,769,769,769,769,769,769,769,769,769,769,769,769,769,769,769,769,769,769,769,752,738,671,634,613,584,546,511,462,451,441,433,423,421,420,418,418,419,426],"ymouse":[489,489,489,489,489,489,489,489,489,489,489,489,489,489,489,489,489,489,489,489,489,489,489,489,489,489,489,489,489,489,489,489,489,489,489,489,489,489,489,489,489,489,489,489,489,489,489,489,489,489,489,489,489,489,489,489,489,489,489,489,489,489,489,489,489,489,489,489,489,479,468,425,406,390,368,333,295,253,242,228,214,184,174,169,154,130,97,83],"timestamp_mouse":[9,27,47,69,88,108,129,149,168,189,209,228,249,269,289,309,327,348,369,389,409,429,449,469,487,509,528,548,568,589,609,627,649,668,688,708,729,749,768,788,809,828,848,869,887,908,929,949,969,989,1008,1028,1048,1068,1088,1107,1128,1149,1168,1189,1207,1228,1248,1269,1289,1308,1328,1348,1369,1388,1408,1428,1447,1468,1488,1508,1527,1547,1568,1588,1609,1629,1648,1668,1689,1709,1729,1748],"xSR":733.5,"ySR":464.1,"xT1":420.09999999999997,"yT1":0,"xT2":1046.8999999999999,"yT2":0,"toosoon":0,"cond_shown":"Congruent","ratio_trial":300,"L_num":20,"L_den":25,"R_num":5,"R_den":10,"correct_side":1,"subjID":"Marianalopez1","gender":"1","school":"4","age":"9"},{"start_time":1552308460728,"click_time":1552308461477,"finger_time":1552308461296,"fix_duration":250,"trial":9,"RT":568,"MT":181,"sideResp":2,"stimulus":[],"xmouse":[773,773,773,773,773,773,773,773,773,773,773,773,773,773,773,773,773,773,773,773,773,773,773,773,773,776,781,793,833,858,884,899,970,998,1021,1044,1064,1093],"ymouse":[489,489,489,489,489,489,489,489,489,489,489,489,489,489,489,489,489,489,489,489,489,489,489,489,489,488,483,468,424,390,354,333,222,188,157,135,118,89],"timestamp_mouse":[14,30,49,68,88,108,128,148,168,188,209,228,248,268,288,309,328,347,368,389,409,428,449,467,489,509,528,547,567,589,608,628,649,668,688,709,728,748],"xSR":733.5,"ySR":464.1,"xT1":420.09999999999997,"yT1":0,"xT2":1046.8999999999999,"yT2":0,"toosoon":0,"cond_shown":"Incongruent","ratio_trial":100,"L_num":2,"L_den":4,"R_num":6,"R_den":15,"correct_side":1,"subjID":"Marianalopez1","gender":"1","school":"4","age":"9"},{"start_time":1552308463976,"click_time":1552308465777,"finger_time":1552308465636,"fix_duration":1097.9876208370329,"trial":10,"RT":1660,"MT":141,"sideResp":1,"stimulus":[],"xmouse":[789,789,789,789,789,789,789,789,789,789,789,789,789,789,789,789,789,789,789,789,789,789,789,789,789,789,789,789,789,789,789,789,789,789,789,789,789,789,789,789,789,789,789,789,789,789,789,789,789,789,789,789,789,789,789,789,789,789,789,789,789,789,789,789,789,789,789,789,789,789,789,789,789,789,789,789,789,789,789,789,789,786,778,766,749,671,628,579,539,503,471],"ymouse":[478,478,478,478,478,478,478,478,478,478,478,480,481,482,482,482,482,482,482,482,482,482,482,482,482,482,482,482,482,482,482,482,482,482,482,482,482,482,482,482,482,482,482,482,482,482,482,482,482,482,482,482,482,482,482,482,482,482,482,482,482,482,482,482,482,482,482,482,482,482,482,482,482,482,482,482,482,482,482,482,482,482,468,449,424,315,252,195,145,104,71],"timestamp_mouse":[1,21,48,61,79,100,121,140,161,180,199,221,239,259,280,301,319,340,361,381,401,419,439,461,480,501,521,541,560,580,601,620,640,661,679,699,720,740,761,781,799,821,841,859,880,901,921,939,961,980,1001,1020,1040,1061,1080,1100,1121,1140,1161,1181,1200,1221,1239,1260,1280,1300,1319,1341,1361,1381,1400,1421,1441,1459,1481,1500,1521,1541,1559,1580,1601,1621,1639,1660,1679,1700,1720,1739,1759,1781,1801],"xSR":733.5,"ySR":464.1,"xT1":420.09999999999997,"yT1":0,"xT2":1046.8999999999999,"yT2":0,"toosoon":0,"cond_shown":"Congruent","ratio_trial":200,"L_num":8,"L_den":15,"R_num":7,"R_den":21,"correct_side":1,"subjID":"Marianalopez1","gender":"1","school":"4","age":"9"},{"start_time":1552308468248,"click_time":1552308469296,"finger_time":1552308468895,"fix_duration":1210.775512975772,"trial":11,"RT":647,"MT":401,"sideResp":2,"stimulus":[],"xmouse":[771,771,771,771,771,771,771,771,771,771,771,771,771,771,771,771,771,771,771,771,771,771,771,771,771,771,771,771,771,771,771,775,791,818,868,926,1058,1134,1180,1209,1223,1236,1237,1239,1239,1239,1239,1239,1239,1210,1185,1151,1097],"ymouse":[477,477,477,477,477,477,477,477,477,477,477,477,477,477,477,477,477,477,477,477,477,477,477,477,477,477,477,477,477,477,477,473,462,444,415,375,259,155,87,46,27,10,5,2,0,0,0,0,0,0,7,18,37],"timestamp_mouse":[10,29,48,69,89,108,128,149,169,189,209,228,247,269,288,307,329,349,367,389,408,429,448,469,487,509,529,549,568,588,608,628,647,667,687,709,729,748,768,787,807,829,848,868,887,907,929,949,968,988,1008,1028,1048],"xSR":733.5,"ySR":464.1,"xT1":420.09999999999997,"yT1":0,"xT2":1046.8999999999999,"yT2":0,"toosoon":0,"cond_shown":"Congruent","ratio_trial":300,"L_num":1,"L_den":5,"R_num":6,"R_den":12,"correct_side":2,"subjID":"Marianalopez1","gender":"1","school":"4","age":"9"},{"start_time":1552308471285,"click_time":1552308472737,"finger_time":1552308472355,"fix_duration":766.9701514379481,"trial":12,"RT":1070,"MT":382,"sideResp":1,"stimulus":[],"xmouse":[779,779,779,779,779,779,779,779,779,779,779,779,779,779,779,779,779,779,779,779,779,779,779,779,779,779,779,779,779,779,779,779,779,779,779,779,779,779,779,779,779,779,779,779,779,779,779,779,779,779,779,779,776,756,683,662,644,632,621,605,602,601,601,601,596,586,576,566,557,537,530,524,517],"ymouse":[480,480,480,480,480,480,480,480,480,480,480,480,480,480,480,480,480,480,480,480,480,480,480,480,480,480,480,480,480,480,480,480,480,480,480,480,480,480,480,480,480,480,480,480,480,480,480,480,480,480,480,480,473,434,314,281,252,231,217,202,200,200,200,200,197,188,177,163,143,101,80,58,40],"timestamp_mouse":[11,38,51,71,91,112,132,152,170,191,211,230,251,272,291,312,332,352,371,391,412,431,452,472,490,511,532,550,572,592,611,632,652,672,692,710,731,752,770,792,811,831,851,871,891,911,932,950,971,992,1011,1032,1051,1070,1092,1111,1131,1151,1171,1191,1211,1232,1252,1271,1292,1311,1331,1352,1371,1392,1410,1431,1452],"xSR":733.5,"ySR":464.1,"xT1":420.09999999999997,"yT1":0,"xT2":1046.8999999999999,"yT2":0,"toosoon":0,"cond_shown":"Incongruent","ratio_trial":200,"L_num":7,"L_den":10,"R_num":8,"R_den":16,"correct_side":1,"subjID":"Marianalopez1","gender":"1","school":"4","age":"9"},{"start_time":1552308474048,"click_time":1552308474877,"finger_time":1552308474656,"fix_duration":250,"trial":13,"RT":608,"MT":221,"sideResp":2,"stimulus":[],"xmouse":[817,816,813,807,805,804,802,799,797,793,791,782,781,780,780,780,780,780,780,780,780,780,780,780,780,780,780,779,779,780,787,806,822,848,868,890,936,970,993,1017,1039,1075],"ymouse":[506,506,505,503,502,501,501,501,500,499,499,499,499,499,499,499,499,499,499,499,499,499,499,499,499,499,499,499,489,473,450,395,359,312,271,242,193,165,149,136,123,97],"timestamp_mouse":[7,28,48,68,88,109,128,149,167,189,208,228,247,267,289,309,327,347,369,389,409,428,447,469,488,509,529,548,567,589,607,628,647,668,688,708,729,748,768,789,808,829],"xSR":733.5,"ySR":464.1,"xT1":420.09999999999997,"yT1":0,"xT2":1046.8999999999999,"yT2":0,"toosoon":0,"cond_shown":"Incongruent","ratio_trial":200,"L_num":4,"L_den":6,"R_num":14,"R_den":30,"correct_side":1,"subjID":"Marianalopez1","gender":"1","school":"4","age":"9"},{"start_time":1552308476229,"click_time":1552308479396,"finger_time":1552308479076,"fix_duration":250,"trial":14,"RT":2847,"MT":320,"sideResp":1,"stimulus":[],"xmouse":[754,754,754,754,754,754,754,754,754,754,754,754,754,754,754,754,754,754,754,754,754,754,754,754,754,754,754,754,754,754,754,754,754,754,754,754,754,754,754,754,754,754,754,754,754,754,754,754,754,754,754,754,754,754,754,754,754,754,754,754,754,754,754,754,754,754,754,754,754,754,754,754,754,754,754,754,754,754,754,754,754,754,754,754,754,754,754,754,754,754,754,754,754,754,754,754,754,754,754,754,754,754,754,754,754,754,754,754,754,754,754,754,754,754,754,754,754,754,754,754,754,754,754,754,754,754,754,754,754,754,754,754,754,754,754,754,754,754,754,754,751,736,630,533,442,368,321,269,258,258,258,258,260,279,298,321,362,408,428],"ymouse":[529,529,529,529,529,529,529,529,529,529,529,529,529,529,529,529,529,529,529,529,529,529,529,529,529,529,529,529,529,529,529,529,529,529,529,529,529,529,529,529,529,529,529,529,529,529,529,529,529,529,529,529,529,529,529,529,529,529,529,529,529,529,529,529,529,529,529,529,529,529,529,529,529,529,529,529,529,529,529,529,529,529,529,529,529,529,529,529,529,529,529,529,529,529,529,529,529,529,529,529,529,529,529,529,529,529,529,529,529,529,529,529,529,529,529,529,529,529,529,529,529,529,529,529,529,529,529,529,529,529,529,529,529,529,529,529,529,529,529,529,519,497,389,304,232,191,165,125,109,107,107,106,103,94,90,86,79,70,67],"timestamp_mouse":[20,30,47,67,86,106,127,147,166,186,206,227,246,267,287,307,327,347,367,387,407,426,447,467,488,506,528,546,568,588,607,627,648,667,687,706,728,746,768,787,808,828,848,868,887,907,928,947,967,987,1007,1026,1047,1068,1087,1107,1128,1146,1167,1187,1207,1228,1247,1266,1288,1306,1327,1347,1366,1387,1408,1428,1448,1468,1488,1508,1527,1548,1567,1588,1608,1627,1647,1668,1688,1708,1728,1748,1767,1788,1808,1826,1848,1868,1888,1908,1927,1947,1968,1987,2007,2027,2047,2068,2087,2106,2127,2147,2168,2187,2206,2227,2248,2268,2288,2307,2328,2347,2368,2387,2406,2428,2448,2467,2487,2508,2528,2547,2568,2588,2607,2627,2647,2666,2687,2707,2728,2746,2768,2786,2808,2827,2847,2866,2886,2907,2926,2948,2967,2987,3007,3027,3048,3067,3088,3107,3128,3148,3167],"xSR":733.5,"ySR":464.1,"xT1":420.09999999999997,"yT1":0,"xT2":1046.8999999999999,"yT2":0,"toosoon":0,"cond_shown":"Incongruent","ratio_trial":300,"L_num":4,"L_den":5,"R_num":6,"R_den":12,"correct_side":1,"subjID":"Marianalopez1","gender":"1","school":"4","age":"9"},{"start_time":1552308481542,"click_time":1552308483997,"finger_time":1552308483736,"fix_duration":805.9617193167122,"trial":15,"RT":2194,"MT":261,"sideResp":1,"stimulus":[],"xmouse":[781,780,777,776,775,775,775,775,775,775,775,775,775,775,775,775,775,775,775,775,775,775,775,775,775,775,775,775,775,775,775,775,775,775,775,775,775,775,775,775,775,775,775,775,775,775,775,775,775,775,775,775,775,775,775,775,775,775,775,775,775,775,775,775,775,775,775,775,775,775,775,775,775,775,775,775,775,775,775,775,775,775,775,775,775,775,775,775,775,775,775,775,775,775,775,775,775,775,775,775,775,775,775,774,773,771,763,757,749,739,712,712,660,640,618,598,578,570,562,554,545,535,514],"ymouse":[492,492,493,493,493,493,493,493,493,493,493,493,493,493,493,493,493,493,493,493,493,493,493,493,493,493,493,493,493,493,493,493,493,493,493,493,493,493,493,493,493,493,493,493,493,493,493,493,493,493,493,493,493,493,493,493,493,493,493,493,493,493,493,493,493,493,493,493,493,493,493,493,493,493,493,493,493,493,493,493,493,493,493,493,493,493,493,493,493,493,493,493,493,493,493,493,493,493,493,493,493,493,493,494,494,495,495,494,481,457,396,396,299,266,231,199,135,106,79,63,49,38,28],"timestamp_mouse":[14,35,59,73,94,115,133,154,174,194,214,234,253,274,295,313,335,355,373,394,415,434,455,474,495,515,535,554,574,594,615,634,654,673,695,715,735,753,775,795,813,835,855,873,894,915,934,954,975,995,1014,1034,1053,1074,1094,1114,1134,1155,1173,1193,1215,1235,1255,1275,1295,1314,1335,1354,1374,1395,1414,1435,1455,1475,1495,1515,1535,1553,1575,1595,1615,1635,1655,1674,1695,1715,1735,1755,1774,1794,1813,1834,1855,1873,1895,1914,1934,1953,1973,1993,2014,2034,2054,2075,2093,2114,2134,2154,2175,2194,2215,2233,2254,2273,2293,2314,2334,2354,2374,2394,2414,2434,2454],"xSR":733.5,"ySR":464.1,"xT1":420.09999999999997,"yT1":0,"xT2":1046.8999999999999,"yT2":0,"toosoon":0,"cond_shown":"Incongruent","ratio_trial":300,"L_num":4,"L_den":20,"R_num":2,"R_den":4,"correct_side":2,"subjID":"Marianalopez1","gender":"1","school":"4","age":"9"},{"start_time":1552308485737,"click_time":1552308487017,"finger_time":1552308486236,"fix_duration":598.8569831934988,"trial":16,"RT":499,"MT":781,"sideResp":1,"stimulus":[],"xmouse":[810,810,810,810,809,809,808,808,808,808,808,808,808,808,808,808,808,808,808,808,808,808,808,813,821,823,821,810,805,797,784,767,747,694,666,636,611,599,586,586,586,586,586,584,583,583,583,579,575,571,569,566,564,563,560,556,552,545,542,540,539,539,528,521,517],"ymouse":[517,517,517,517,518,520,523,524,524,524,524,524,524,524,524,524,524,524,524,524,524,524,524,517,494,462,428,387,365,349,327,293,245,124,88,55,35,26,16,16,16,16,16,16,19,25,32,45,49,51,52,54,55,56,57,59,61,64,65,66,66,66,64,62,60],"timestamp_mouse":[1,20,43,59,79,100,119,138,160,179,200,220,239,259,278,298,318,338,359,380,400,419,440,459,478,499,518,540,558,579,599,619,639,658,679,700,719,740,760,780,799,819,839,860,879,899,920,940,959,980,998,1019,1040,1059,1079,1100,1119,1139,1159,1179,1199,1219,1240,1259,1280],"xSR":733.5,"ySR":464.1,"xT1":420.09999999999997,"yT1":0,"xT2":1046.8999999999999,"yT2":0,"toosoon":0,"cond_shown":"Incongruent","ratio_trial":100,"L_num":13,"L_den":26,"R_num":6,"R_den":10,"correct_side":2,"subjID":"Marianalopez1","gender":"1","school":"4","age":"9"},{"start_time":1552308491448,"click_time":1552308492377,"finger_time":1552308491997,"fix_duration":1489.668176157625,"trial":17,"RT":549,"MT":380,"sideResp":2,"stimulus":[],"xmouse":[778,778,778,778,778,778,778,778,778,778,778,778,778,778,778,778,778,778,778,778,778,778,778,781,786,795,811,884,946,1030,1120,1202,1262,1262,1262,1262,1262,1262,1262,1262,1198,1163,1161,1161,1159,1155,1137],"ymouse":[520,520,520,520,520,520,520,520,520,520,520,520,520,520,520,520,520,520,520,520,520,520,520,514,509,501,487,416,336,244,158,76,1,1,1,1,1,1,1,1,3,17,18,18,18,20,37],"timestamp_mouse":[9,30,59,68,89,108,128,148,167,189,208,228,248,267,287,309,329,349,368,388,408,429,449,469,488,508,528,549,567,587,608,629,648,667,687,709,728,748,768,789,808,828,847,868,889,908,929],"xSR":733.5,"ySR":464.1,"xT1":420.09999999999997,"yT1":0,"xT2":1046.8999999999999,"yT2":0,"toosoon":0,"cond_shown":"Congruent","ratio_trial":300,"L_num":2,"L_den":20,"R_num":10,"R_den":25,"correct_side":2,"subjID":"Marianalopez1","gender":"1","school":"4","age":"9"},{"start_time":1552308496448,"click_time":1552308498577,"finger_time":1552308497976,"fix_duration":250,"trial":18,"RT":1528,"MT":601,"sideResp":1,"stimulus":[],"xmouse":[811,811,810,809,808,808,808,807,806,805,805,805,805,805,805,805,805,805,805,805,805,805,805,805,805,805,805,805,805,805,805,805,805,805,805,805,805,805,805,805,805,805,805,805,805,805,805,805,805,805,805,805,805,805,805,805,805,805,805,805,805,805,805,805,805,805,805,805,805,805,805,805,805,805,805,801,778,763,743,719,697,666,655,641,624,608,567,553,551,549,546,539,536,535,533,530,529,529,528,527,527,527,527,527,527,526,519],"ymouse":[504,504,504,504,504,504,504,503,503,503,503,502,502,502,502,502,502,502,502,502,502,502,502,502,502,502,502,502,502,502,502,502,502,502,502,502,502,502,502,502,502,502,502,502,502,502,502,502,502,502,502,502,502,502,502,502,502,502,502,502,502,502,502,502,502,502,502,502,502,502,502,502,502,502,502,493,461,440,410,376,343,288,268,247,225,208,177,166,162,153,141,117,106,100,96,92,86,84,83,82,82,82,82,82,81,77,72],"timestamp_mouse":[13,28,48,68,89,108,127,148,169,188,208,229,249,267,289,308,329,348,367,389,409,428,448,469,488,507,529,548,567,589,607,627,649,667,689,708,728,748,769,789,808,829,847,869,889,909,929,948,969,988,1008,1028,1048,1069,1088,1109,1129,1148,1167,1189,1209,1229,1248,1267,1289,1308,1329,1349,1369,1388,1409,1428,1448,1468,1487,1509,1528,1548,1568,1588,1608,1629,1647,1667,1688,1707,1728,1748,1768,1788,1808,1829,1848,1868,1888,1908,1928,1947,1969,1988,2008,2028,2048,2069,2089,2108,2128],"xSR":733.5,"ySR":464.1,"xT1":420.09999999999997,"yT1":0,"xT2":1046.8999999999999,"yT2":0,"toosoon":0,"cond_shown":"Incongruent","ratio_trial":300,"L_num":4,"L_den":5,"R_num":6,"R_den":12,"correct_side":1,"subjID":"Marianalopez1","gender":"1","school":"4","age":"9"},{"start_time":1552308501448,"click_time":1552308503717,"finger_time":1552308503397,"fix_duration":250,"trial":19,"RT":1949,"MT":320,"sideResp":1,"stimulus":[],"xmouse":[768,768,768,768,768,768,768,768,768,768,768,768,767,767,767,767,767,767,767,767,767,767,767,767,767,767,767,767,767,767,767,767,767,767,767,767,767,767,767,767,767,767,767,767,767,767,767,767,767,767,767,767,767,767,767,767,767,767,767,767,767,767,767,767,767,767,767,767,767,767,767,767,767,767,767,767,767,767,767,767,767,767,767,767,767,767,767,767,767,767,767,767,767,767,767,766,763,719,682,641,595,560,505,484,471,464,463,463,463,463,463,463,464,464],"ymouse":[487,489,492,494,495,496,497,497,497,497,497,498,499,499,499,499,499,499,499,499,499,499,499,499,499,499,499,499,499,499,499,499,499,499,499,499,499,499,499,500,500,500,500,500,500,500,500,500,500,500,500,500,500,500,500,500,500,500,500,500,500,500,500,500,500,500,500,500,500,500,500,500,500,500,500,500,500,500,500,500,500,500,500,500,500,500,500,500,500,500,500,500,500,500,500,500,496,452,420,382,341,303,239,201,183,168,161,139,127,116,108,103,100,99],"timestamp_mouse":[10,30,48,68,87,108,129,148,169,189,208,228,248,267,288,309,327,349,368,389,409,428,449,469,489,508,527,549,569,588,609,628,649,668,689,709,728,748,768,788,807,829,849,869,889,908,928,947,968,989,1008,1028,1049,1068,1089,1109,1128,1147,1169,1189,1209,1229,1247,1268,1289,1309,1328,1349,1368,1388,1408,1428,1449,1469,1489,1507,1529,1548,1569,1587,1609,1628,1649,1668,1689,1708,1729,1749,1769,1789,1808,1828,1848,1868,1888,1909,1927,1949,1968,1989,2008,2028,2047,2069,2088,2108,2129,2148,2168,2189,2209,2229,2248,2269],"xSR":733.5,"ySR":464.1,"xT1":420.09999999999997,"yT1":0,"xT2":1046.8999999999999,"yT2":0,"toosoon":0,"cond_shown":"Incongruent","ratio_trial":200,"L_num":7,"L_den":10,"R_num":12,"R_den":24,"correct_side":1,"subjID":"Marianalopez1","gender":"1","school":"4","age":"9"},{"start_time":1552308505816,"click_time":1552308506856,"finger_time":1552308506757,"fix_duration":798.3924509266689,"trial":20,"RT":941,"MT":99,"sideResp":2,"stimulus":[],"xmouse":[805,805,805,805,805,805,805,805,805,805,805,805,805,805,805,805,805,805,805,805,805,805,805,805,805,805,805,805,805,805,805,805,805,805,804,804,803,803,803,803,803,802,802,803,804,804,806,812,923,976,1026,1053,1062],"ymouse":[493,493,493,493,493,493,493,493,493,493,493,493,493,493,493,493,493,493,493,493,493,493,493,493,493,493,493,493,493,493,493,493,493,493,492,492,491,491,491,490,488,486,482,476,475,473,470,462,303,219,151,110,88],"timestamp_mouse":[2,20,42,61,80,100,120,141,160,180,200,221,239,261,280,300,321,341,360,380,401,421,441,460,481,501,521,540,559,581,601,621,641,661,681,700,720,741,761,780,799,820,840,860,879,900,920,941,961,980,999,1020,1040],"xSR":733.5,"ySR":464.1,"xT1":420.09999999999997,"yT1":0,"xT2":1046.8999999999999,"yT2":0,"toosoon":0,"cond_shown":"Incongruent","ratio_trial":300,"L_num":13,"L_den":26,"R_num":12,"R_den":15,"correct_side":2,"subjID":"Marianalopez1","gender":"1","school":"4","age":"9"},{"start_time":1552308510142,"click_time":1552308512656,"finger_time":1552308512316,"fix_duration":385.8628806221187,"trial":21,"RT":2174,"MT":340,"sideResp":2,"stimulus":[],"xmouse":[784,784,784,784,784,784,784,784,784,784,784,784,784,784,784,784,784,784,784,784,784,784,784,784,784,784,784,784,784,784,784,784,784,784,784,784,784,784,784,784,784,784,784,784,784,784,784,784,784,784,784,784,784,784,786,788,790,790,790,790,790,790,790,790,790,790,790,790,790,790,790,790,790,790,790,790,789,789,789,789,788,788,788,788,788,788,787,787,785,785,785,785,785,785,785,785,785,785,785,785,785,785,785,785,785,788,798,810,824,843,866,913,925,932,936,940,944,951,956,961,965,981,992,1018,1061,1108],"ymouse":[499,499,499,499,499,499,499,499,499,499,499,499,499,499,499,499,499,499,499,499,499,499,499,499,499,499,499,499,499,499,499,499,499,499,499,499,499,499,499,499,499,499,499,499,499,499,499,499,499,499,499,499,499,499,495,490,484,484,483,483,483,483,483,483,483,483,483,483,483,483,483,483,483,484,486,489,493,496,497,500,504,506,512,514,515,517,521,524,527,528,528,528,528,528,528,528,528,528,528,528,528,528,528,528,528,522,496,474,441,414,387,337,324,317,308,301,292,277,266,255,246,207,181,145,102,65],"timestamp_mouse":[13,35,54,74,95,114,134,154,174,195,214,235,254,274,295,314,333,355,375,394,415,435,454,475,493,515,535,555,575,593,614,635,654,675,693,715,735,754,775,795,813,834,855,875,895,915,935,954,975,995,1014,1034,1054,1073,1094,1114,1134,1153,1175,1195,1214,1235,1255,1275,1294,1315,1334,1355,1375,1395,1414,1433,1454,1473,1494,1514,1534,1554,1574,1594,1614,1633,1655,1675,1694,1713,1734,1753,1774,1794,1815,1834,1854,1875,1895,1915,1934,1955,1974,1995,2015,2034,2054,2075,2095,2113,2134,2153,2174,2193,2215,2235,2253,2273,2295,2313,2334,2354,2374,2395,2415,2434,2453,2474,2495,2514],"xSR":733.5,"ySR":464.1,"xT1":420.09999999999997,"yT1":0,"xT2":1046.8999999999999,"yT2":0,"toosoon":0,"cond_shown":"Incongruent","ratio_trial":200,"L_num":4,"L_den":6,"R_num":14,"R_den":30,"correct_side":1,"subjID":"Marianalopez1","gender":"1","school":"4","age":"9"},{"start_time":1552308516650,"click_time":1552308518395,"finger_time":1552308518034,"fix_duration":414.29318815748996,"trial":22,"RT":1384,"MT":361,"sideResp":2,"stimulus":[],"xmouse":[795,795,795,795,795,795,795,795,795,795,795,795,795,795,795,795,795,795,795,795,795,795,795,795,795,795,795,795,795,795,795,795,795,795,795,795,795,795,795,795,795,795,795,795,795,795,795,795,795,795,795,795,795,795,795,795,795,795,795,795,795,795,795,795,795,795,795,795,799,805,818,852,866,885,902,918,931,962,973,980,985,987,996,1003,1018,1034,1050,1071],"ymouse":[481,481,481,481,481,481,481,481,481,481,481,481,481,481,481,481,481,481,481,481,481,481,481,481,481,481,481,481,481,481,481,481,481,481,481,481,481,481,481,481,481,481,481,481,481,481,481,481,481,481,481,481,481,481,481,481,481,481,481,481,481,481,481,481,481,481,481,481,475,464,447,399,373,339,301,268,238,186,171,161,155,151,141,132,122,112,104,97],"timestamp_mouse":[4,24,43,64,85,104,124,144,165,184,203,224,244,264,284,305,323,344,364,385,405,425,444,465,485,504,524,544,564,584,605,625,644,664,684,705,725,744,765,784,805,825,843,865,883,903,924,945,964,985,1005,1025,1044,1064,1084,1104,1124,1145,1165,1185,1204,1224,1245,1265,1285,1304,1325,1345,1363,1384,1405,1425,1444,1464,1484,1503,1525,1545,1564,1584,1604,1625,1644,1665,1684,1705,1724,1744],"xSR":733.5,"ySR":464.1,"xT1":420.09999999999997,"yT1":0,"xT2":1046.8999999999999,"yT2":0,"toosoon":0,"cond_shown":"Incongruent","ratio_trial":300,"L_num":1,"L_den":2,"R_num":3,"R_den":15,"correct_side":1,"subjID":"Marianalopez1","gender":"1","school":"4","age":"9"},{"start_time":1552308521846,"click_time":1552308523054,"finger_time":1552308522674,"fix_duration":951.3510427433911,"trial":23,"RT":828,"MT":380,"sideResp":1,"stimulus":[],"xmouse":[789,789,788,786,785,783,780,780,780,780,780,780,780,780,780,780,780,780,780,780,780,780,780,780,780,780,780,780,780,780,780,780,780,780,780,780,780,780,775,767,758,734,722,706,688,665,610,592,577,566,555,533,522,513,508,502,491,488,487,491,504],"ymouse":[496,496,497,498,499,499,501,501,501,501,501,501,501,501,501,501,501,501,501,501,501,501,501,501,501,501,501,501,501,501,501,501,501,501,501,501,501,501,496,484,473,445,433,420,408,392,348,335,323,315,304,275,261,249,239,227,192,169,142,110,87],"timestamp_mouse":[10,28,48,68,88,108,128,148,169,188,208,229,248,269,288,309,328,349,368,389,409,428,448,469,488,509,529,549,567,589,609,628,648,667,689,709,729,748,767,787,808,828,848,868,888,909,929,948,968,987,1008,1029,1048,1067,1088,1108,1129,1149,1168,1189,1208],"xSR":733.5,"ySR":464.1,"xT1":420.09999999999997,"yT1":0,"xT2":1046.8999999999999,"yT2":0,"toosoon":0,"cond_shown":"Incongruent","ratio_trial":100,"L_num":11,"L_den":22,"R_num":9,"R_den":15,"correct_side":2,"subjID":"Marianalopez1","gender":"1","school":"4","age":"9"},{"start_time":1552308525129,"click_time":1552308527174,"finger_time":1552308526914,"fix_duration":412.41245894560876,"trial":24,"RT":1785,"MT":260,"sideResp":2,"stimulus":[],"xmouse":[798,798,798,798,798,798,798,798,798,798,798,798,798,796,796,796,796,796,796,796,796,796,796,796,796,796,796,796,796,796,796,796,796,796,796,796,796,796,796,796,796,796,796,796,796,796,796,796,796,796,796,796,796,792,790,789,788,787,787,785,785,785,783,783,783,783,783,783,782,782,782,782,782,782,782,780,779,775,775,775,775,775,775,775,775,774,774,778,784,799,818,848,877,915,922,928,933,963,993,1003,1025,1041,1051],"ymouse":[523,523,523,523,523,523,523,523,523,523,523,523,523,523,523,523,523,523,523,523,523,523,523,523,523,523,523,523,523,523,523,523,523,523,523,523,523,523,523,523,523,523,523,523,523,523,523,523,523,523,523,523,523,522,521,521,520,520,520,520,520,520,519,519,519,519,519,519,519,519,519,519,519,519,519,519,519,517,517,517,517,517,517,517,517,515,513,494,474,448,418,386,351,286,262,239,216,160,123,114,96,84,74],"timestamp_mouse":[9,41,45,66,85,105,126,145,166,186,206,225,245,265,285,305,326,345,366,385,405,425,446,465,486,506,526,545,566,586,605,625,645,666,684,705,726,745,766,786,804,826,846,866,885,906,925,945,966,985,1005,1025,1045,1066,1084,1105,1124,1146,1164,1185,1206,1225,1245,1266,1285,1305,1326,1345,1366,1386,1404,1426,1446,1465,1484,1504,1524,1545,1566,1585,1606,1626,1645,1666,1684,1705,1725,1745,1764,1785,1805,1825,1844,1866,1885,1904,1925,1969,1971,1985,2006,2025,2045],"xSR":733.5,"ySR":464.1,"xT1":420.09999999999997,"yT1":0,"xT2":1046.8999999999999,"yT2":0,"toosoon":0,"cond_shown":"Congruent","ratio_trial":100,"L_num":10,"L_den":25,"R_num":3,"R_den":10,"correct_side":1,"subjID":"Marianalopez1","gender":"1","school":"4","age":"9"},{"start_time":1552308529486,"click_time":1552308532575,"finger_time":1552308532394,"fix_duration":250,"trial":25,"RT":2908,"MT":181,"sideResp":1,"stimulus":[],"xmouse":[803,803,803,803,803,803,803,803,803,803,803,803,803,802,801,801,801,801,801,801,801,801,801,801,801,801,801,801,801,801,801,801,801,801,801,801,801,801,801,801,801,801,801,801,801,801,801,801,801,801,801,801,801,801,801,801,801,801,801,801,801,801,801,801,801,801,801,801,801,801,801,799,799,798,798,798,798,798,798,797,797,797,797,797,797,797,797,796,796,796,796,796,796,796,796,796,796,796,796,796,796,796,796,796,796,796,796,796,796,796,796,796,796,796,796,796,796,796,796,796,796,796,796,796,796,796,796,796,796,796,796,796,796,796,796,796,796,796,796,796,796,796,796,790,764,744,711,676,621,529,492,469,456,446,437],"ymouse":[499,499,499,499,499,499,499,499,499,499,499,499,499,499,501,501,501,501,501,501,501,501,501,501,501,501,501,501,501,501,501,501,501,501,501,501,501,501,501,501,501,501,501,501,501,501,501,501,501,501,501,501,501,501,501,501,501,501,501,501,501,501,501,501,501,501,501,501,501,501,501,501,501,501,501,501,501,501,501,501,501,501,501,501,501,501,501,501,501,501,501,501,501,501,501,501,501,501,501,501,501,501,501,501,501,501,501,501,501,501,501,501,501,501,501,501,501,501,501,501,501,501,501,501,501,501,501,501,501,501,501,501,501,501,501,501,501,501,501,501,501,501,501,498,470,444,406,354,292,199,161,136,119,100,82],"timestamp_mouse":[10,35,48,67,88,108,127,148,167,188,207,229,247,268,288,309,327,348,369,388,407,429,448,468,489,509,528,548,569,589,608,629,648,667,689,709,729,749,768,789,809,827,848,868,887,908,929,949,967,989,1008,1028,1049,1069,1088,1109,1129,1148,1169,1188,1209,1229,1249,1269,1287,1308,1329,1349,1369,1389,1407,1428,1447,1469,1487,1508,1528,1549,1567,1589,1609,1628,1648,1669,1687,1709,1727,1748,1769,1787,1808,1829,1849,1868,1889,1907,1927,1948,1969,1988,2009,2028,2049,2067,2089,2109,2127,2149,2169,2188,2208,2229,2248,2268,2288,2308,2329,2347,2368,2387,2409,2429,2447,2468,2489,2508,2529,2549,2568,2587,2609,2629,2647,2669,2688,2707,2729,2749,2767,2789,2809,2827,2847,2868,2888,2908,2927,2948,2968,2989,3008,3028,3048,3068,3089],"xSR":733.5,"ySR":464.1,"xT1":420.09999999999997,"yT1":0,"xT2":1046.8999999999999,"yT2":0,"toosoon":0,"cond_shown":"Incongruent","ratio_trial":100,"L_num":8,"L_den":16,"R_num":6,"R_den":10,"correct_side":2,"subjID":"Marianalopez1","gender":"1","school":"4","age":"9"},{"start_time":1552308535706,"click_time":1552308537914,"finger_time":1552308536334,"fix_duration":250,"trial":26,"RT":628,"MT":1580,"sideResp":2,"stimulus":[],"xmouse":[776,776,776,776,776,776,776,776,776,776,776,776,776,776,776,776,776,776,776,776,776,776,776,776,776,776,776,776,776,773,773,765,756,750,742,742,742,742,743,743,743,741,738,738,742,748,756,766,776,791,793,793,793,793,793,794,794,794,794,794,794,794,794,794,794,794,794,794,794,794,794,794,794,794,794,794,794,794,794,794,794,794,794,799,809,822,836,859,882,905,909,912,914,917,918,921,926,932,937,950,956,964,971,994,1001,1007,1013,1021,1035,1041,1047],"ymouse":[489,489,489,489,489,489,489,489,489,489,489,489,489,489,489,489,489,489,489,489,489,489,489,489,489,489,489,489,489,486,481,463,444,426,390,382,378,377,376,376,378,383,397,437,454,469,489,511,531,551,554,554,554,554,554,555,550,547,537,534,530,526,522,518,518,518,518,518,518,518,518,518,518,518,518,518,518,518,518,518,515,512,503,450,422,392,362,327,296,255,245,241,239,235,229,224,216,209,203,188,181,171,163,141,132,122,113,102,83,76,68],"timestamp_mouse":[11,38,48,68,89,107,129,149,168,188,207,229,249,268,288,307,328,348,367,388,409,427,449,468,489,508,528,547,567,588,608,628,649,667,689,708,727,749,769,789,808,828,849,869,888,908,928,948,968,987,1008,1027,1049,1068,1088,1107,1128,1148,1169,1187,1208,1227,1249,1268,1289,1308,1327,1349,1368,1389,1408,1428,1448,1469,1488,1507,1529,1548,1568,1587,1609,1628,1648,1668,1688,1708,1728,1748,1768,1787,1809,1827,1848,1869,1887,1908,1928,1948,1969,1988,2008,2028,2048,2069,2088,2108,2128,2148,2169,2187,2208],"xSR":733.5,"ySR":464.1,"xT1":420.09999999999997,"yT1":0,"xT2":1046.8999999999999,"yT2":0,"toosoon":0,"cond_shown":"Incongruent","ratio_trial":300,"L_num":4,"L_den":5,"R_num":8,"R_den":16,"correct_side":1,"subjID":"Marianalopez1","gender":"1","school":"4","age":"9"},{"start_time":1552308551569,"click_time":1552308552955,"finger_time":1552308552855,"fix_duration":1231.7330194495914,"trial":27,"RT":1286,"MT":100,"sideResp":1,"stimulus":[],"xmouse":[765,765,765,765,765,765,765,765,765,765,765,765,765,765,765,765,765,765,765,765,765,765,765,765,765,765,765,765,765,765,765,765,765,765,765,765,765,765,765,765,765,762,758,756,755,753,753,753,753,753,753,753,753,753,753,753,753,753,753,754,754,754,754,745,736,660,613,559,500,448],"ymouse":[495,495,495,495,495,495,495,495,495,495,495,495,495,495,495,495,495,495,495,495,495,495,495,495,495,495,495,495,495,495,495,495,495,495,495,495,495,495,495,495,495,494,492,491,491,491,491,491,491,491,491,491,491,491,491,491,491,491,491,491,491,491,491,475,456,342,269,198,128,66],"timestamp_mouse":[9,24,45,66,86,106,125,146,165,185,205,225,246,266,285,305,324,346,366,386,404,426,446,465,484,506,526,546,566,586,606,625,646,665,685,704,726,744,766,786,804,826,844,866,884,905,925,946,965,985,1005,1025,1046,1065,1084,1105,1126,1145,1166,1185,1206,1226,1244,1266,1286,1305,1326,1345,1365,1386],"xSR":733.5,"ySR":464.1,"xT1":420.09999999999997,"yT1":0,"xT2":1046.8999999999999,"yT2":0,"toosoon":0,"cond_shown":"Congruent","ratio_trial":300,"L_num":18,"L_den":20,"R_num":9,"R_den":15,"correct_side":1,"subjID":"Marianalopez1","gender":"1","school":"4","age":"9"},{"start_time":1552308555053,"click_time":1552308559994,"finger_time":1552308559534,"fix_duration":895.6303308950502,"trial":28,"RT":4481,"MT":460,"sideResp":2,"stimulus":[],"xmouse":[786,786,786,786,786,786,786,786,786,786,786,786,786,786,786,786,786,786,786,786,786,786,786,786,786,786,786,786,786,786,786,786,786,786,786,786,786,786,786,786,786,786,786,786,786,786,786,786,786,786,786,786,786,786,786,786,786,786,786,786,786,786,786,786,786,786,786,786,786,786,786,786,786,786,786,786,786,786,786,786,786,786,786,786,786,786,786,786,786,786,786,786,786,786,786,786,786,786,786,786,786,786,786,786,786,786,786,786,786,786,786,786,786,786,786,786,786,786,786,786,786,786,786,786,786,786,786,786,786,786,786,786,786,786,786,786,786,786,786,786,786,786,786,786,786,786,786,786,786,786,786,786,786,786,786,786,786,786,786,786,786,786,786,786,786,786,786,786,786,786,786,786,786,786,786,786,786,786,786,786,786,786,786,786,786,786,786,786,786,786,786,786,786,786,786,786,786,786,786,786,786,786,786,786,786,786,786,786,786,786,786,786,786,786,786,786,786,786,786,786,786,788,797,810,833,873,975,1005,1031,1062,1085,1128,1140,1148,1156,1161,1169,1169,1169,1169,1169,1169,1169,1169,1169,1169,1169,1101],"ymouse":[500,500,500,500,500,500,500,500,500,500,500,500,500,500,500,500,500,500,500,500,500,500,500,500,500,500,500,500,500,500,500,500,500,500,500,500,500,500,500,500,500,500,500,500,500,500,500,500,500,500,500,500,500,500,500,500,500,500,500,500,500,500,500,500,500,500,500,500,500,500,500,500,500,500,500,500,500,500,500,500,500,500,500,500,500,500,500,500,500,500,500,500,500,500,500,500,500,500,500,500,500,500,500,500,500,500,500,500,500,500,500,500,500,500,500,500,500,500,500,500,500,500,500,500,500,500,500,500,500,500,500,500,500,500,500,500,500,500,500,500,500,500,500,500,500,500,500,500,500,500,500,500,500,500,500,500,500,500,500,500,500,500,500,500,500,500,500,500,500,500,500,500,500,500,500,500,500,500,500,500,500,500,500,500,500,500,500,500,500,500,500,500,500,500,500,500,500,500,500,500,500,500,500,500,500,500,500,500,500,500,500,500,500,500,500,500,500,500,500,500,500,496,481,468,450,428,348,302,259,218,192,159,149,133,107,68,10,10,10,10,10,10,10,10,10,10,10,4],"timestamp_mouse":[15,28,41,61,81,100,121,141,161,180,201,220,241,260,282,302,321,340,362,382,401,421,441,462,482,501,520,541,562,581,601,621,641,660,681,702,722,741,761,782,801,822,842,862,881,902,922,942,962,981,1001,1021,1041,1060,1080,1101,1121,1141,1161,1181,1202,1221,1242,1262,1280,1301,1321,1342,1361,1381,1401,1422,1442,1461,1482,1502,1521,1542,1560,1582,1601,1622,1642,1660,1681,1702,1722,1740,1762,1781,1801,1822,1841,1862,1882,1902,1921,1940,1961,1982,2002,2020,2041,2062,2081,2102,2120,2141,2162,2182,2201,2220,2241,2262,2281,2301,2322,2340,2361,2382,2401,2421,2440,2462,2482,2502,2520,2541,2562,2581,2602,2621,2641,2662,2681,2701,2721,2742,2762,2780,2801,2822,2842,2861,2881,2901,2922,2942,2961,2982,3001,3022,3042,3060,3080,3102,3122,3142,3161,3181,3202,3222,3242,3262,3282,3301,3321,3342,3362,3381,3402,3422,3442,3461,3482,3502,3521,3541,3561,3582,3601,3622,3641,3661,3681,3702,3721,3742,3761,3782,3801,3821,3842,3860,3881,3902,3921,3942,3961,3982,4001,4021,4042,4061,4080,4102,4122,4142,4160,4182,4201,4222,4241,4261,4281,4301,4322,4340,4362,4381,4402,4422,4440,4462,4481,4502,4522,4540,4561,4581,4601,4622,4640,4661,4681,4700,4720,4741,4760,4782,4801,4822,4842,4862,4882,4901,4921,4941],"xSR":733.5,"ySR":464.1,"xT1":420.09999999999997,"yT1":0,"xT2":1046.8999999999999,"yT2":0,"toosoon":0,"cond_shown":"Incongruent","ratio_trial":300,"L_num":1,"L_den":2,"R_num":2,"R_den":10,"correct_side":1,"subjID":"Marianalopez1","gender":"1","school":"4","age":"9"},{"start_time":1552308562506,"click_time":1552308564314,"finger_time":1552308564054,"fix_duration":1031.7497814332153,"trial":29,"RT":1548,"MT":260,"sideResp":1,"stimulus":[],"xmouse":[813,808,807,800,794,792,790,788,782,781,779,778,778,778,778,778,778,778,778,778,778,778,778,778,778,778,778,778,778,778,778,778,778,778,778,778,778,778,778,778,778,778,778,778,778,778,778,778,778,778,778,778,778,778,778,778,778,778,778,778,778,778,778,778,778,778,778,778,778,778,778,778,778,778,778,778,773,743,698,579,520,477,445,421,412,411,410,408,408,413,421],"ymouse":[515,513,512,509,507,506,505,505,502,502,502,501,501,501,501,501,501,501,501,501,501,501,501,501,501,501,501,501,501,501,501,501,501,501,501,501,501,501,501,501,501,501,501,501,501,501,501,501,501,501,501,501,501,501,501,501,501,501,501,501,501,501,501,501,501,501,501,501,501,501,501,501,501,501,501,501,485,434,369,231,181,152,137,117,102,97,93,88,74,63,55],"timestamp_mouse":[10,27,48,68,88,109,128,148,168,187,207,229,249,268,288,308,329,348,369,388,408,429,449,469,488,509,529,548,569,589,608,627,647,668,688,709,727,748,769,788,809,828,847,868,889,907,929,949,968,988,1008,1029,1048,1069,1088,1109,1128,1149,1168,1189,1208,1229,1248,1269,1288,1309,1327,1349,1369,1389,1407,1428,1448,1469,1489,1507,1529,1548,1568,1588,1607,1627,1649,1669,1688,1708,1729,1748,1769,1788,1807],"xSR":733.5,"ySR":464.1,"xT1":420.09999999999997,"yT1":0,"xT2":1046.8999999999999,"yT2":0,"toosoon":0,"cond_shown":"Congruent","ratio_trial":300,"L_num":24,"L_den":30,"R_num":8,"R_den":16,"correct_side":1,"subjID":"Marianalopez1","gender":"1","school":"4","age":"9"},{"start_time":1552308566615,"click_time":1552308576693,"finger_time":1552308576513,"fix_duration":538.6477320932272,"trial":30,"RT":9898,"MT":180,"sideResp":1,"stimulus":[],"xmouse":[791,791,791,791,791,791,791,791,791,791,791,791,791,791,791,791,791,791,791,791,791,791,791,791,791,791,791,791,791,791,791,791,791,791,791,791,791,791,791,791,791,791,791,791,791,791,791,791,791,791,791,791,791,791,791,791,791,791,791,791,791,791,791,791,791,791,791,791,791,791,791,791,791,791,791,791,791,791,791,791,791,791,791,791,791,791,791,791,791,791,791,791,791,791,791,791,791,791,791,791,791,791,791,791,791,791,791,791,791,791,791,791,791,791,791,791,791,791,791,791,791,791,791,791,791,791,791,791,791,791,791,791,791,791,791,791,791,791,791,791,791,791,791,791,791,791,791,791,791,791,791,791,791,791,791,791,791,791,791,791,791,791,791,791,791,791,791,791,791,791,791,791,791,791,791,791,791,791,791,791,791,791,791,791,791,791,791,791,791,791,791,791,791,791,791,791,791,791,791,791,791,791,791,791,791,791,791,791,791,791,791,791,791,791,791,791,791,791,791,791,791,791,791,791,791,791,791,791,791,791,791,791,791,791,791,791,791,791,791,791,791,791,791,791,791,791,791,791,791,791,791,791,791,791,791,791,791,791,791,791,791,791,791,791,791,791,791,791,791,791,791,791,791,791,791,791,791,791,791,791,791,791,791,791,791,791,791,791,791,791,791,791,791,791,791,791,791,791,791,791,791,791,791,791,791,791,791,791,791,791,791,791,791,791,791,791,791,791,791,791,791,791,791,791,791,791,791,791,791,791,791,791,791,791,791,791,791,791,791,791,791,791,791,791,791,791,791,791,791,791,791,791,791,791,791,791,791,791,791,791,791,791,791,791,791,791,791,791,791,791,791,791,791,791,791,791,791,791,791,791,791,791,791,791,791,791,791,791,791,791,791,791,791,791,791,791,791,791,791,791,791,791,791,791,791,791,791,791,791,791,791,791,791,791,791,791,791,791,791,791,791,791,791,791,791,791,791,791,791,791,791,791,791,791,791,791,791,791,791,791,791,791,791,791,791,791,791,791,791,791,791,791,791,791,791,791,791,791,791,791,791,791,791,791,791,791,791,791,791,791,791,791,791,791,791,791,791,791,791,791,791,791,791,791,791,791,791,791,791,791,791,786,781,754,735,727,720,703,661,632,591,551,505,468,436],"ymouse":[478,478,478,478,478,478,478,478,478,478,478,478,478,478,478,478,478,478,478,478,478,478,478,478,478,478,478,478,478,478,478,478,478,478,478,478,478,478,478,478,478,478,478,478,478,478,478,478,478,478,478,478,478,478,478,478,478,478,478,478,478,478,478,478,478,478,478,478,478,478,478,478,478,478,478,478,478,478,478,478,478,478,478,478,478,478,478,478,478,478,478,478,478,478,478,478,478,478,478,478,478,478,478,478,478,478,478,478,478,478,478,478,478,478,478,478,478,478,478,478,478,478,478,478,478,478,478,478,478,478,478,478,478,478,478,478,478,478,478,478,478,478,478,478,478,478,478,478,478,478,478,478,478,478,478,478,478,478,478,478,478,478,478,478,478,478,478,478,478,478,478,478,478,478,478,478,478,478,478,478,478,478,478,478,478,478,478,478,478,478,478,478,478,478,478,478,478,478,478,478,478,478,478,478,478,478,478,478,478,478,478,478,478,478,478,478,478,478,478,478,478,478,478,478,478,478,478,478,478,478,478,478,478,478,478,478,478,478,478,478,478,478,478,478,478,478,478,478,478,478,478,478,478,478,478,478,478,478,478,478,478,478,478,478,478,478,478,478,478,478,478,478,478,478,478,478,478,478,478,478,478,478,478,478,478,478,478,478,478,478,478,478,478,478,478,478,478,478,478,478,478,478,478,478,478,478,478,478,478,478,478,478,478,478,478,478,478,478,478,478,478,478,478,478,478,478,478,478,478,478,478,478,478,478,478,478,478,478,478,478,478,478,478,478,478,478,478,478,478,478,478,478,478,478,478,478,478,478,478,478,478,478,478,478,478,478,478,478,478,478,478,478,478,478,478,478,478,478,478,478,478,478,478,478,478,478,478,478,478,478,478,478,478,478,478,478,478,478,478,478,478,478,478,478,478,478,478,478,478,478,478,478,478,478,478,478,478,478,478,478,478,478,478,478,478,478,478,478,478,478,478,478,478,478,478,478,478,478,478,478,478,478,478,478,478,478,478,478,478,478,478,478,478,478,478,478,478,478,478,478,478,478,478,478,478,478,478,478,478,478,478,478,478,478,478,478,478,478,478,478,478,478,478,478,478,478,478,478,478,478,478,478,478,478,478,477,468,434,340,287,236,195,154,106,41],"timestamp_mouse":[1,19,45,59,79,99,119,140,159,179,199,219,240,258,280,300,319,340,358,379,400,419,439,459,480,500,520,540,559,580,599,618,640,660,680,699,719,739,760,780,800,820,840,860,879,900,919,939,960,980,999,1019,1039,1060,1079,1100,1119,1139,1160,1180,1200,1220,1238,1259,1280,1299,1319,1338,1359,1380,1400,1419,1440,1460,1480,1500,1518,1540,1560,1580,1600,1619,1638,1660,1680,1700,1720,1739,1760,1780,1798,1818,1840,1860,1879,1898,1920,1940,1960,1980,1999,2019,2040,2058,2079,2098,2120,2140,2158,2180,2200,2219,2239,2259,2279,2300,2320,2338,2358,2380,2399,2419,2439,2458,2480,2500,2520,2540,2559,2579,2600,2619,2640,2660,2680,2698,2719,2740,2759,2779,2799,2818,2839,2860,2880,2899,2919,2940,2960,2979,3000,3019,3039,3059,3078,3100,3120,3139,3159,3179,3199,3218,3240,3260,3279,3300,3320,3338,3360,3380,3400,3420,3438,3460,3479,3498,3519,3539,3560,3580,3599,3619,3640,3660,3680,3700,3719,3739,3758,3780,3799,3820,3839,3859,3880,3899,3920,3938,3959,3979,4000,4018,4040,4059,4078,4098,4120,4139,4160,4179,4199,4220,4240,4259,4280,4299,4318,4340,4359,4380,4400,4420,4439,4460,4480,4499,4519,4540,4560,4580,4600,4619,4639,4659,4680,4700,4720,4739,4759,4778,4800,4820,4839,4858,4880,4900,4919,4940,4960,4980,4998,5019,5040,5060,5079,5100,5119,5139,5160,5180,5200,5220,5238,5260,5280,5300,5318,5339,5359,5378,5398,5419,5439,5459,5480,5499,5520,5539,5559,5579,5600,5620,5640,5659,5679,5700,5719,5739,5759,5780,5799,5820,5839,5859,5879,5900,5919,5940,5959,5980,5999,6019,6039,6060,6080,6099,6119,6138,6159,6180,6200,6220,6239,6260,6280,6299,6319,6340,6360,6380,6399,6418,6439,6459,6479,6500,6519,6540,6560,6580,6599,6619,6639,6659,6680,6700,6720,6740,6760,6780,6800,6818,6838,6858,6879,6898,6920,6940,6959,6980,6999,7019,7040,7059,7080,7100,7120,7139,7160,7180,7200,7219,7240,7260,7280,7298,7319,7340,7359,7379,7399,7419,7439,7459,7480,7499,7519,7540,7560,7579,7600,7618,7638,7659,7680,7700,7720,7739,7760,7779,7799,7819,7840,7859,7880,7898,7920,7940,7960,7980,7998,8018,8039,8058,8079,8099,8119,8138,8158,8178,8199,8219,8238,8259,8278,8298,8317,8339,8359,8378,8398,8418,8439,8459,8477,8499,8518,8539,8559,8578,8599,8619,8638,8659,8678,8699,8719,8739,8759,8779,8799,8818,8839,8858,8878,8899,8919,8939,8959,8979,8997,9017,9039,9059,9078,9099,9119,9139,9157,9179,9197,9219,9239,9259,9278,9299,9317,9339,9359,9379,9397,9419,9438,9459,9478,9499,9518,9538,9559,9578,9599,9619,9639,9659,9679,9698,9719,9738,9759,9779,9797,9818,9839,9858,9879,9898,9918,9939,9959,9978,9998,10019,10038,10058,10078],"xSR":733.5,"ySR":464.1,"xT1":420.09999999999997,"yT1":0,"xT2":1046.8999999999999,"yT2":0,"toosoon":0,"cond_shown":"Incongruent","ratio_trial":100,"L_num":3,"L_den":9,"R_num":7,"R_den":30,"correct_side":1,"subjID":"Marianalopez1","gender":"1","school":"4","age":"9"},{"start_time":1552308578086,"click_time":1552308579253,"finger_time":1552308578812,"fix_duration":250,"trial":31,"RT":726,"MT":441,"sideResp":2,"stimulus":[],"xmouse":[769,769,769,769,769,769,769,769,769,769,769,769,769,769,769,769,769,769,769,769,769,769,769,769,769,769,769,769,769,769,769,769,769,770,776,805,820,834,845,891,917,938,947,950,951,975,995,1014,1025,1030,1030,1030,1030,1030,1030,1031,1035,1039,1047],"ymouse":[520,520,520,520,520,520,520,520,520,520,520,520,520,520,520,520,520,520,520,520,520,520,520,520,520,520,520,520,520,520,520,520,520,518,511,472,444,423,401,339,300,259,236,219,212,179,158,139,123,113,113,113,113,113,113,108,104,99,93],"timestamp_mouse":[10,27,47,68,86,108,128,147,167,188,207,228,247,267,288,307,328,348,367,387,407,426,448,468,487,508,527,546,568,588,607,628,648,667,687,708,726,747,767,788,807,827,847,867,886,908,927,947,967,988,1007,1028,1048,1068,1087,1107,1127,1147,1167],"xSR":733.5,"ySR":464.1,"xT1":420.09999999999997,"yT1":0,"xT2":1046.8999999999999,"yT2":0,"toosoon":0,"cond_shown":"Congruent","ratio_trial":100,"L_num":4,"L_den":10,"R_num":15,"R_den":30,"correct_side":2,"subjID":"Marianalopez1","gender":"1","school":"4","age":"9"},{"start_time":1552308581177,"click_time":1552308582274,"finger_time":1552308581933,"fix_duration":621.2364806798062,"trial":32,"RT":756,"MT":341,"sideResp":2,"stimulus":[],"xmouse":[759,759,759,759,759,759,759,759,759,759,759,759,759,759,759,759,759,759,759,759,759,759,759,759,759,759,757,756,755,754,754,754,754,754,754,757,767,786,821,930,962,985,999,1008,1014,1015,1016,1019,1023,1026,1033,1034,1038,1047,1065],"ymouse":[487,487,487,487,487,487,487,487,487,487,487,487,487,487,487,487,487,487,487,487,487,487,487,487,487,487,487,487,487,487,487,487,487,487,487,482,470,453,424,307,270,239,218,201,184,180,174,166,157,150,139,136,130,118,92],"timestamp_mouse":[18,36,57,76,96,117,136,157,176,196,216,236,256,276,296,316,337,356,376,396,417,435,457,476,496,515,537,556,577,597,617,635,657,677,696,715,737,756,776,797,816,836,857,876,897,916,936,956,976,996,1016,1036,1057,1076,1097],"xSR":733.5,"ySR":464.1,"xT1":420.09999999999997,"yT1":0,"xT2":1046.8999999999999,"yT2":0,"toosoon":0,"cond_shown":"Congruent","ratio_trial":100,"L_num":4,"L_den":10,"R_num":15,"R_den":30,"correct_side":2,"subjID":"Marianalopez1","gender":"1","school":"4","age":"9"},{"start_time":1552308584287,"click_time":1552308585394,"finger_time":1552308585133,"fix_duration":250,"trial":33,"RT":846,"MT":261,"sideResp":1,"stimulus":[],"xmouse":[799,799,799,799,799,799,799,799,799,799,799,799,799,799,799,799,799,799,799,799,799,799,799,799,799,799,799,799,799,799,799,799,799,799,799,799,799,799,799,799,799,784,755,704,650,516,484,466,458,450,445,445,447,450,460,467],"ymouse":[489,489,489,489,489,489,489,489,489,489,489,489,489,489,489,489,489,489,489,489,489,489,489,489,489,489,489,489,489,489,489,489,489,489,489,489,489,489,489,489,489,476,450,408,361,241,211,188,169,152,132,128,123,117,103,91],"timestamp_mouse":[10,40,47,67,87,107,126,145,167,186,206,226,247,267,286,306,326,346,367,387,407,427,446,467,487,507,526,547,567,586,607,626,646,667,685,706,727,747,766,786,805,825,846,865,886,907,926,947,966,986,1005,1026,1046,1065,1086,1106],"xSR":733.5,"ySR":464.1,"xT1":420.09999999999997,"yT1":0,"xT2":1046.8999999999999,"yT2":0,"toosoon":0,"cond_shown":"Congruent","ratio_trial":200,"L_num":3,"L_den":6,"R_num":14,"R_den":20,"correct_side":2,"subjID":"Marianalopez1","gender":"1","school":"4","age":"9"},{"start_time":1552308587165,"click_time":1552308592553,"finger_time":1552308592433,"fix_duration":250,"trial":34,"RT":5268,"MT":120,"sideResp":2,"stimulus":[],"xmouse":[810,810,810,810,810,810,810,810,810,808,801,800,800,800,800,800,800,799,798,798,798,798,798,798,798,798,798,798,798,798,796,794,793,793,793,793,793,793,793,793,793,793,793,793,793,793,793,793,793,793,793,793,793,793,793,793,793,793,793,793,793,793,793,793,793,793,793,793,793,793,793,793,793,793,793,793,793,793,793,793,793,793,793,793,793,793,793,793,793,793,793,793,793,793,793,793,793,793,793,793,793,793,793,793,793,793,793,793,793,793,793,793,793,793,793,793,793,793,793,793,793,793,793,793,793,793,793,793,793,793,793,793,793,793,793,793,793,793,793,793,793,793,793,793,793,793,793,793,793,793,793,793,793,793,793,793,793,793,793,793,793,793,793,793,793,793,793,793,793,793,793,793,793,793,793,793,793,793,793,793,793,793,793,793,793,793,793,793,793,793,793,793,793,793,793,793,793,793,793,793,793,793,793,793,793,793,793,793,793,793,793,793,793,793,793,793,793,793,793,793,793,793,793,793,793,793,793,793,793,793,793,793,793,793,793,793,793,793,793,793,793,793,793,793,793,793,793,793,793,793,793,793,793,793,793,793,793,793,793,793,793,793,806,832,860,889,960,996,1027,1053],"ymouse":[493,493,493,493,493,493,493,493,493,493,485,484,484,484,484,484,485,491,494,494,494,494,494,494,494,494,494,494,494,494,495,495,496,496,496,496,496,496,496,496,496,496,496,496,496,496,496,496,496,496,496,496,496,496,496,496,496,496,496,496,496,496,496,496,496,496,496,496,496,496,496,496,496,496,496,496,496,496,496,496,496,496,496,496,496,496,496,496,496,496,496,496,496,496,496,496,496,496,496,496,496,496,496,496,496,496,496,496,496,496,496,496,496,496,496,496,496,496,496,496,496,496,496,496,496,496,496,496,496,496,496,496,496,496,496,496,496,496,496,496,496,496,496,496,496,496,496,496,496,496,496,496,496,496,496,496,496,496,496,496,496,496,496,496,496,496,496,496,496,496,496,496,496,496,496,496,496,496,496,496,496,496,496,496,496,496,496,496,496,496,496,496,496,496,496,496,496,496,496,496,496,496,496,496,496,496,496,496,496,496,496,496,496,496,496,496,496,496,496,496,496,496,496,496,496,496,496,496,496,496,496,496,496,496,496,496,496,496,496,496,496,496,496,496,496,496,496,496,496,496,496,496,496,496,496,496,496,496,496,496,496,496,484,442,396,350,239,190,141,98],"timestamp_mouse":[14,30,48,68,89,108,128,149,169,188,208,229,249,268,289,309,327,349,369,388,409,429,448,469,487,509,528,549,568,589,608,628,649,668,689,709,729,748,769,789,808,829,848,868,888,908,929,949,969,989,1008,1028,1048,1069,1089,1109,1128,1148,1169,1189,1208,1229,1249,1268,1287,1309,1329,1349,1368,1388,1408,1428,1449,1469,1488,1508,1528,1548,1568,1588,1608,1629,1648,1668,1688,1709,1728,1748,1767,1788,1809,1827,1849,1868,1888,1908,1928,1949,1968,1988,2008,2029,2047,2069,2087,2109,2129,2149,2168,2189,2209,2229,2249,2268,2288,2309,2329,2349,2367,2387,2409,2429,2449,2468,2489,2509,2529,2548,2569,2587,2608,2628,2648,2668,2688,2709,2729,2748,2768,2788,2808,2828,2848,2868,2889,2909,2928,2949,2968,2989,3008,3028,3049,3069,3088,3108,3129,3149,3168,3189,3209,3228,3247,3269,3289,3308,3328,3348,3368,3389,3409,3428,3448,3469,3488,3508,3529,3548,3568,3589,3607,3629,3648,3669,3689,3709,3727,3749,3769,3789,3809,3829,3849,3869,3888,3909,3929,3948,3969,3989,4009,4029,4049,4069,4088,4108,4128,4148,4168,4188,4208,4229,4249,4269,4289,4309,4329,4348,4367,4388,4409,4429,4449,4469,4488,4509,4529,4548,4569,4589,4609,4629,4649,4669,4687,4709,4729,4749,4769,4788,4807,4829,4849,4869,4889,4908,4927,4948,4969,4989,5008,5028,5048,5068,5088,5109,5129,5148,5169,5189,5209,5229,5247,5268,5288,5308,5328,5348,5368,5388],"xSR":733.5,"ySR":464.1,"xT1":420.09999999999997,"yT1":0,"xT2":1046.8999999999999,"yT2":0,"toosoon":0,"cond_shown":"Incongruent","ratio_trial":100,"L_num":8,"L_den":20,"R_num":1,"R_den":2,"correct_side":2,"subjID":"Marianalopez1","gender":"1","school":"4","age":"9"},{"start_time":1552308594205,"click_time":1552308596574,"finger_time":1552308596133,"fix_duration":489.6530741807533,"trial":35,"RT":1928,"MT":441,"sideResp":1,"stimulus":[],"xmouse":[743,743,743,743,743,743,743,743,743,743,743,743,743,743,743,743,743,743,743,743,743,743,743,743,743,743,743,743,743,743,743,743,743,743,743,743,743,743,743,743,743,743,743,743,743,743,743,743,743,743,743,743,743,743,743,743,743,743,743,743,743,743,743,743,743,743,743,743,743,743,743,743,743,743,743,743,743,743,743,743,743,743,743,743,743,743,743,743,743,743,743,743,743,743,743,740,732,714,684,675,663,652,637,613,599,587,572,557,527,507,490,475,465,454,454,454,454,454,456],"ymouse":[520,520,520,520,520,520,520,520,520,520,520,520,520,520,520,520,520,520,520,520,520,520,520,520,520,520,520,520,520,520,520,520,520,520,520,520,520,520,520,520,520,520,520,520,520,520,520,520,520,520,520,520,520,521,521,521,521,521,521,521,521,521,521,521,521,521,521,521,521,521,521,521,521,521,521,521,521,521,521,521,521,521,521,521,521,521,521,521,521,521,521,521,521,519,506,491,472,438,390,370,350,333,313,270,250,233,214,195,163,146,136,126,119,112,112,111,108,106,97],"timestamp_mouse":[9,29,53,68,89,108,127,148,168,189,209,229,248,268,288,308,328,349,369,388,407,429,449,469,489,509,528,548,567,589,608,628,648,669,689,709,729,749,767,788,809,828,847,868,889,909,928,949,969,988,1009,1029,1047,1067,1088,1108,1129,1148,1168,1188,1208,1227,1248,1269,1288,1308,1328,1349,1369,1388,1409,1429,1448,1468,1489,1508,1529,1549,1568,1589,1609,1628,1649,1669,1688,1709,1728,1749,1768,1788,1809,1828,1849,1868,1887,1908,1928,1948,1969,1989,2007,2028,2048,2069,2087,2108,2128,2149,2169,2188,2208,2228,2248,2269,2287,2308,2328,2348,2369],"xSR":733.5,"ySR":464.1,"xT1":420.09999999999997,"yT1":0,"xT2":1046.8999999999999,"yT2":0,"toosoon":0,"cond_shown":"Congruent","ratio_trial":200,"L_num":4,"L_den":10,"R_num":3,"R_den":15,"correct_side":1,"subjID":"Marianalopez1","gender":"1","school":"4","age":"9"},{"start_time":1552308597964,"click_time":1552308599754,"finger_time":1552308599373,"fix_duration":250,"trial":36,"RT":1409,"MT":381,"sideResp":1,"stimulus":[],"xmouse":[820,820,820,814,811,808,806,806,805,804,804,804,804,804,804,804,804,804,804,804,804,804,804,804,804,804,804,804,804,804,804,804,804,804,804,804,804,803,803,802,801,800,799,799,797,797,796,795,795,795,795,795,795,795,795,795,795,795,795,795,795,795,795,795,795,795,795,786,781,770,703,667,644,625,610,602,594,592,591,589,581,577,573,569,563,551,543,534,526,517],"ymouse":[545,545,545,538,535,527,524,522,521,520,519,519,519,519,519,519,519,519,519,519,519,519,519,519,519,519,519,519,519,519,519,519,519,519,519,519,519,518,518,518,518,518,518,519,519,519,520,521,521,521,521,521,521,521,521,521,521,521,521,521,521,521,521,521,521,521,521,511,503,481,377,327,292,264,243,227,207,197,186,175,148,142,138,132,124,96,81,68,56,45],"timestamp_mouse":[10,44,49,70,89,109,128,150,169,190,209,229,248,270,290,309,329,348,369,390,410,430,449,470,489,510,530,550,568,589,609,629,650,669,689,709,729,749,768,789,809,830,848,869,889,910,929,949,969,990,1010,1029,1050,1069,1090,1109,1129,1150,1170,1188,1210,1230,1249,1270,1290,1310,1330,1349,1368,1389,1409,1429,1449,1470,1489,1510,1529,1550,1569,1589,1610,1629,1649,1669,1689,1709,1729,1749,1769,1790],"xSR":733.5,"ySR":464.1,"xT1":420.09999999999997,"yT1":0,"xT2":1046.8999999999999,"yT2":0,"toosoon":0,"cond_shown":"Incongruent","ratio_trial":100,"L_num":6,"L_den":10,"R_num":13,"R_den":26,"correct_side":1,"subjID":"Marianalopez1","gender":"1","school":"4","age":"9"},{"start_time":1552308602268,"click_time":1552308604113,"finger_time":1552308602773,"fix_duration":1351.8595655276213,"trial":37,"RT":505,"MT":1340,"sideResp":1,"stimulus":[],"xmouse":[761,761,761,761,761,761,761,761,761,761,761,761,761,761,761,761,761,761,761,761,761,761,763,770,783,813,827,830,831,831,831,831,831,831,831,831,830,827,826,825,824,824,823,822,821,819,819,819,819,819,817,812,804,796,789,777,775,774,773,773,773,773,773,773,773,773,773,773,773,773,773,773,773,769,765,735,724,717,711,705,688,679,668,656,643,612,601,584,568,554,533,525,520],"ymouse":[519,519,519,519,519,519,519,519,519,519,519,519,519,519,519,519,519,519,519,519,519,519,516,506,485,443,421,415,413,412,412,412,412,412,412,412,414,419,423,430,441,446,450,454,461,470,472,473,474,474,475,476,477,477,477,477,477,477,477,477,477,477,477,477,477,477,477,477,477,477,477,477,477,472,466,416,395,376,357,340,306,289,270,259,241,203,190,171,151,136,110,99,91],"timestamp_mouse":[10,37,45,65,85,105,125,146,164,186,205,225,245,265,286,305,325,345,366,385,404,426,446,465,486,505,525,545,565,586,605,626,645,666,685,706,725,745,765,785,806,824,845,865,886,906,925,946,965,985,1006,1025,1045,1064,1086,1105,1126,1145,1165,1185,1206,1226,1246,1266,1286,1306,1325,1344,1365,1385,1405,1425,1446,1464,1485,1505,1525,1545,1566,1585,1606,1625,1646,1665,1685,1706,1725,1745,1765,1785,1806,1824,1845],"xSR":733.5,"ySR":464.1,"xT1":420.09999999999997,"yT1":0,"xT2":1046.8999999999999,"yT2":0,"toosoon":0,"cond_shown":"Incongruent","ratio_trial":100,"L_num":9,"L_den":18,"R_num":6,"R_den":10,"correct_side":2,"subjID":"Marianalopez1","gender":"1","school":"4","age":"9"},{"start_time":1552308606678,"click_time":1552308608593,"finger_time":1552308608173,"fix_duration":303.7147107597512,"trial":38,"RT":1495,"MT":420,"sideResp":1,"stimulus":[],"xmouse":[803,803,803,803,803,803,803,803,803,803,803,803,803,803,803,803,803,803,803,803,803,803,803,801,800,799,797,797,797,796,796,796,796,796,796,796,796,796,796,796,796,796,796,796,796,796,796,796,796,796,796,796,796,796,796,796,796,796,796,796,796,796,796,796,796,796,796,796,793,790,788,785,779,763,700,661,629,601,580,559,552,548,541,528,488,461,452,448,447,446,443,442,439,438,438,442],"ymouse":[522,522,522,522,522,522,522,522,522,522,522,522,522,522,522,522,522,522,522,522,522,522,522,523,524,524,525,525,525,526,526,526,526,526,526,526,526,526,526,526,526,526,526,526,526,526,526,526,526,526,526,526,526,526,526,526,526,526,526,526,526,526,526,526,526,526,526,526,527,527,527,527,525,512,446,400,372,352,329,301,290,281,271,253,222,205,196,187,179,170,156,149,140,131,103,96],"timestamp_mouse":[16,36,56,75,95,116,136,156,176,195,216,236,255,275,296,315,335,355,375,394,416,436,454,476,496,515,535,555,575,596,616,635,656,676,695,715,736,756,776,794,816,836,855,874,896,915,936,956,976,996,1015,1036,1055,1075,1095,1116,1135,1155,1176,1196,1216,1236,1256,1275,1296,1316,1336,1356,1374,1395,1415,1436,1455,1476,1495,1515,1535,1556,1575,1596,1615,1636,1654,1675,1696,1715,1735,1756,1776,1794,1815,1836,1855,1875,1896,1915],"xSR":733.5,"ySR":464.1,"xT1":420.09999999999997,"yT1":0,"xT2":1046.8999999999999,"yT2":0,"toosoon":0,"cond_shown":"Congruent","ratio_trial":300,"L_num":24,"L_den":30,"R_num":2,"R_den":4,"correct_side":1,"subjID":"Marianalopez1","gender":"1","school":"4","age":"9"},{"start_time":1552308610359,"click_time":1552308612253,"finger_time":1552308611874,"fix_duration":483.9163776161553,"trial":39,"RT":1515,"MT":379,"sideResp":1,"stimulus":[],"xmouse":[799,799,799,799,799,798,796,794,793,790,789,787,787,787,787,787,786,786,786,786,786,786,786,786,786,784,782,779,778,777,777,777,777,777,777,777,777,777,777,777,777,777,777,777,777,777,777,777,777,777,777,777,777,777,777,777,777,777,777,777,777,777,777,777,777,777,777,777,777,777,777,777,775,766,751,701,679,668,658,655,651,647,642,635,628,619,601,591,581,570,540,526,509,495,483],"ymouse":[488,488,488,488,488,488,491,495,496,499,501,503,503,503,503,503,503,503,503,503,503,503,503,503,503,507,509,511,512,513,513,513,513,513,513,513,513,513,513,513,513,513,513,513,513,513,513,513,513,513,513,513,513,513,513,513,513,513,513,513,513,513,513,513,513,513,513,513,513,513,513,513,513,500,477,407,379,363,348,339,314,300,283,267,251,232,193,178,164,153,129,122,114,107,99],"timestamp_mouse":[13,38,54,74,94,114,133,155,174,194,213,233,253,274,294,313,335,354,374,395,414,435,455,475,495,514,533,554,573,595,615,635,654,674,695,715,734,754,775,795,815,835,855,874,895,915,934,955,975,995,1014,1034,1054,1075,1095,1114,1135,1153,1175,1195,1214,1235,1255,1275,1294,1315,1334,1355,1375,1394,1415,1435,1453,1475,1494,1515,1534,1555,1574,1594,1616,1634,1654,1675,1693,1714,1735,1754,1774,1794,1815,1834,1854,1874,1893],"xSR":733.5,"ySR":464.1,"xT1":420.09999999999997,"yT1":0,"xT2":1046.8999999999999,"yT2":0,"toosoon":0,"cond_shown":"Congruent","ratio_trial":100,"L_num":10,"L_den":25,"R_num":3,"R_den":10,"correct_side":1,"subjID":"Marianalopez1","gender":"1","school":"4","age":"9"},{"start_time":1552308614454,"click_time":1552308615594,"finger_time":1552308615113,"fix_duration":619.0647544991506,"trial":40,"RT":659,"MT":481,"sideResp":2,"stimulus":[],"xmouse":[770,770,770,770,770,770,770,770,770,770,770,770,770,770,770,770,770,770,770,770,770,770,770,770,770,770,770,770,770,770,771,782,794,810,828,847,892,921,939,956,968,993,999,1006,1011,1015,1016,1016,1016,1016,1016,1017,1020,1023,1027,1034,1046,1048],"ymouse":[510,510,510,510,510,510,510,510,510,510,510,510,510,510,510,510,510,510,510,510,510,510,510,510,510,510,510,510,510,510,510,498,481,455,414,363,261,190,149,115,96,63,54,44,36,31,29,29,29,29,30,34,37,39,40,43,45,45],"timestamp_mouse":[1,19,40,59,80,99,120,140,159,180,200,219,238,259,280,299,319,340,360,379,398,420,438,459,480,500,520,540,560,579,600,619,638,659,679,700,720,739,759,780,799,819,838,859,879,898,919,940,959,980,999,1020,1038,1058,1078,1099,1120,1140],"xSR":733.5,"ySR":464.1,"xT1":420.09999999999997,"yT1":0,"xT2":1046.8999999999999,"yT2":0,"toosoon":0,"cond_shown":"Congruent","ratio_trial":100,"L_num":6,"L_den":12,"R_num":15,"R_den":25,"correct_side":2,"subjID":"Marianalopez1","gender":"1","school":"4","age":"9"},{"start_time":1552308618153,"click_time":1552308620034,"finger_time":1552308619773,"fix_duration":1379.7239923976422,"trial":41,"RT":1620,"MT":261,"sideResp":1,"stimulus":[],"xmouse":[794,794,794,794,794,794,794,794,794,794,794,794,794,794,794,794,794,794,794,794,794,794,794,794,794,794,794,794,794,794,794,794,794,794,794,794,794,794,794,794,794,794,794,794,794,794,794,794,794,794,794,794,794,794,794,794,794,794,794,794,794,794,794,794,794,794,794,794,794,794,794,794,794,794,794,794,794,794,794,794,791,766,674,656,651,650,634,618,602,577,559,538,529,521,509],"ymouse":[498,498,498,498,498,498,498,498,498,498,498,498,498,498,498,498,498,498,498,498,498,498,498,498,498,498,498,498,498,498,498,498,498,498,498,498,498,498,498,498,498,498,498,498,498,498,498,498,498,498,498,498,498,498,498,498,498,498,498,498,498,498,498,498,498,498,498,498,498,498,498,498,498,498,498,498,498,498,498,499,480,416,266,239,232,228,190,161,132,101,79,53,39,29,18],"timestamp_mouse":[10,20,40,71,80,100,120,140,160,181,200,221,241,260,281,300,319,341,361,380,400,420,441,461,481,501,520,539,561,581,600,620,641,661,679,699,719,741,761,781,801,820,841,860,880,900,921,940,961,981,1001,1021,1040,1060,1081,1101,1120,1141,1161,1181,1201,1221,1241,1261,1279,1300,1320,1340,1360,1381,1400,1420,1440,1461,1481,1501,1521,1539,1561,1580,1601,1620,1641,1660,1680,1700,1721,1739,1760,1780,1801,1821,1840,1860,1881],"xSR":733.5,"ySR":464.1,"xT1":420.09999999999997,"yT1":0,"xT2":1046.8999999999999,"yT2":0,"toosoon":0,"cond_shown":"Congruent","ratio_trial":100,"L_num":6,"L_den":20,"R_num":5,"R_den":25,"correct_side":1,"subjID":"Marianalopez1","gender":"1","school":"4","age":"9"},{"start_time":1552308624166,"click_time":1552308624993,"finger_time":1552308624914,"fix_duration":930.3934660444348,"trial":42,"RT":748,"MT":79,"sideResp":1,"stimulus":[],"xmouse":[812,812,812,812,812,812,811,811,811,811,811,811,811,811,811,811,811,811,811,811,811,811,811,811,811,811,811,811,811,811,811,811,810,807,802,779,753,695,628,477,449],"ymouse":[506,504,504,504,503,503,502,502,502,502,502,502,502,502,502,502,502,502,502,502,502,502,502,502,502,502,502,502,502,502,502,502,501,500,496,470,439,371,301,137,91],"timestamp_mouse":[31,48,68,87,108,127,148,167,188,206,228,247,268,288,308,327,348,367,388,407,427,448,466,487,507,528,547,568,588,607,628,647,668,687,707,726,748,767,787,808,827],"xSR":733.5,"ySR":464.1,"xT1":420.09999999999997,"yT1":0,"xT2":1046.8999999999999,"yT2":0,"toosoon":0,"cond_shown":"Incongruent","ratio_trial":300,"L_num":4,"L_den":20,"R_num":2,"R_den":4,"correct_side":2,"subjID":"Marianalopez1","gender":"1","school":"4","age":"9"},{"start_time":1552308626836,"click_time":1552308629153,"finger_time":1552308628793,"fix_duration":561.1477790295929,"trial":43,"RT":1957,"MT":360,"sideResp":2,"stimulus":[],"xmouse":[755,755,755,755,755,755,755,755,755,755,755,755,755,755,755,755,755,755,755,755,755,755,755,755,755,755,755,755,755,756,756,756,756,756,756,756,756,756,756,756,756,756,756,756,756,756,756,756,756,756,756,756,756,756,756,756,756,756,756,756,756,756,756,756,756,756,756,756,756,756,756,756,756,756,756,756,756,756,756,756,756,756,756,756,756,756,756,756,756,756,756,756,756,756,758,760,794,834,881,907,926,952,966,981,992,1000,1018,1024,1033,1041,1049,1055,1070,1075,1086,1103],"ymouse":[482,482,482,482,482,482,482,482,482,482,482,482,482,482,482,482,482,482,482,482,482,482,482,482,482,482,482,482,482,482,482,482,482,482,482,482,482,482,482,482,482,482,482,482,482,482,482,482,482,482,482,482,482,482,482,482,482,482,482,482,482,482,482,482,482,482,482,482,482,482,482,482,482,482,482,482,482,482,482,482,482,482,482,482,482,482,482,482,482,482,482,482,482,482,482,481,471,457,442,428,411,375,351,327,308,292,264,256,246,235,221,208,171,161,139,95],"timestamp_mouse":[18,38,58,77,97,118,136,157,178,198,217,238,258,278,297,318,337,357,378,397,416,437,458,477,498,518,537,557,578,597,617,637,658,678,697,718,737,758,777,798,818,837,858,877,897,917,938,958,977,997,1018,1037,1057,1077,1097,1118,1137,1158,1178,1197,1217,1238,1256,1277,1298,1317,1337,1358,1376,1396,1417,1437,1458,1478,1498,1518,1537,1558,1578,1598,1617,1638,1658,1677,1698,1718,1737,1758,1778,1797,1817,1837,1858,1876,1898,1917,1937,1957,1977,1998,2017,2038,2057,2076,2097,2118,2138,2157,2177,2198,2217,2238,2260,2277,2297,2317],"xSR":7