[{"start_time":1552309110773,"click_time":1552309111827,"finger_time":1552309111706,"fix_duration":443.70091580791757,"trial":0,"RT":933,"MT":121,"sideResp":2,"stimulus":"img/250/equaldotsize/R/12_Ratio_250_L_5_R_20.png","xmouse":[783,783,783,783,783,783,783,783,783,783,783,783,783,783,783,783,783,783,783,783,783,783,783,783,783,783,783,783,783,783,783,783,783,783,783,783,783,783,783,783,783,783,783,783,797,820,861,929,953,982,1026,1048,1069],"ymouse":[513,513,513,513,513,513,513,513,513,513,513,513,513,513,513,513,513,513,513,513,513,513,513,513,513,513,513,513,513,513,513,513,513,513,513,513,513,513,513,513,513,513,513,512,495,471,431,338,283,228,149,118,80],"timestamp_mouse":[13,46,53,74,94,113,133,153,174,194,213,233,254,273,294,313,332,354,374,392,412,434,454,474,493,514,534,554,573,592,614,634,654,672,694,713,734,754,774,794,814,834,852,873,893,913,933,954,973,993,1013,1033,1053],"xSR":733.5,"ySR":464.1,"xT1":420.09999999999997,"yT1":0,"xT2":1046.8999999999999,"yT2":0,"toosoon":0,"cond_shown":"equaldotsize","ratio_trial":250,"smaller_num":"5","larger_num":"20","correct_side":2,"subjID":"mariannalopez1","gender":"1","age":"9","school":"4","test":{"fix_dur":[250,1500],"timestim":300,"targets_dim":[100,100],"targets_relative_coord":[0.3,0.7],"size_stim":[880,420],"start_dim":[100,100],"size_start":[300,300],"size_fix":60,"samplingrate":20,"img_types":["equaldotsize","equaldotanddens","randomdotsizeEA"],"ratios":[250,500,750,900],"rep_conds":9,"nTrials":120,"trials_to_rest":500,"Trials_order":[48,80,49,37,1,34,19,67,50,30,44,31,112,83,105,94,52,3,115,90,65,64,85,82,91,93,40,22,107,97,68,17,62,106,109,14,71,9,66,32,95,10,56,2,54,59,70,108,57,11,81,73,86,119,58,23,35,15,72,38,96,39,18,114,98,116,47,102,87,79,61,5,45,24,36,41,43,27,63,88,12,13,113,117,76,42,25,104,20,110,28,111,74,33,8,78,46,55,16,60,29,53,118,6,26,103,75,51,4,7,77,21,100,0,101,84,89,69,99,92],"cond_shown":["equaldotsize","randomdotsizeEA","equaldotanddens","equaldotanddens","equaldotanddens","equaldotanddens","equaldotanddens","equaldotanddens","randomdotsizeEA","equaldotsize","randomdotsizeEA","equaldotanddens","equaldotanddens","randomdotsizeEA","equaldotsize","equaldotanddens","equaldotanddens","equaldotsize","equaldotanddens","equaldotsize","randomdotsizeEA","equaldotanddens","equaldotanddens","equaldotanddens","equaldotanddens","equaldotsize","equaldotanddens","equaldotanddens","randomdotsizeEA","equaldotanddens","randomdotsizeEA","randomdotsizeEA","randomdotsizeEA","equaldotanddens","equaldotanddens","randomdotsizeEA","randomdotsizeEA","equaldotsize","equaldotsize","randomdotsizeEA","randomdotsizeEA","equaldotanddens","randomdotsizeEA","randomdotsizeEA","equaldotsize","randomdotsizeEA","equaldotanddens","equaldotsize","equaldotsize","randomdotsizeEA","equaldotsize","equaldotanddens","randomdotsizeEA","randomdotsizeEA","equaldotanddens","randomdotsizeEA","randomdotsizeEA","equaldotsize","equaldotsize","randomdotsizeEA","equaldotsize","equaldotsize","equaldotsize","equaldotsize","randomdotsizeEA","randomdotsizeEA","randomdotsizeEA","equaldotsize","equaldotsize","equaldotanddens","equaldotanddens","randomdotsizeEA","equaldotsize","equaldotsize","equaldotsize","randomdotsizeEA","equaldotanddens","equaldotsize","equaldotsize","equaldotanddens","equaldotsize","equaldotanddens","randomdotsizeEA","equaldotsize","equaldotanddens","equaldotsize","equaldotanddens","randomdotsizeEA","randomdotsizeEA","randomdotsizeEA","equaldotanddens","equaldotsize","randomdotsizeEA","equaldotsize","randomdotsizeEA","equaldotsize","equaldotanddens","equaldotanddens","equaldotanddens","equaldotsize","randomdotsizeEA","randomdotsizeEA","equaldotanddens","equaldotsize","randomdotsizeEA","equaldotanddens","equaldotsize","equaldotsize","equaldotanddens","equaldotanddens","randomdotsizeEA","equaldotsize","equaldotanddens","equaldotsize","randomdotsizeEA","equaldotsize","randomdotsizeEA","equaldotsize","equaldotsize","randomdotsizeEA"],"ratio_trial":[250,750,250,250,250,900,750,750,250,750,750,750,500,900,900,900,500,500,750,750,500,500,250,900,750,900,500,900,900,250,750,500,250,900,250,250,900,900,750,750,900,900,750,250,750,900,900,250,900,900,900,250,250,900,900,900,900,500,250,250,250,500,750,750,250,750,900,750,500,750,250,500,900,250,250,500,750,500,500,500,250,250,500,900,500,750,250,750,750,250,500,500,250,900,750,750,900,750,500,250,500,500,900,750,250,750,500,500,500,750,500,900,500,250,500,250,500,900,500,750],"smaller_num":["5","6","4","4","4","9","3","6","1","3","18","3","2","18","18","18","2","2","3","6","1","10","2","9","3","9","4","18","18","3","6","3","1","9","5","2","9","18","3","6","18","18","15","4","15","18","18","6","18","18","18","5","3","18","9","18","18","2","3","2","3","9","3","9","6","15","9","15","9","15","3","10","18","2","3","5","3","10","3","9","2","3","5","18","2","3","6","6","15","2","1","1","2","18","3","15","9","3","4","3","5","1","18","3","3","15","10","6","3","3","5","9","5","3","9","2","6","18","2","6"],"larger_num":["20","8","16","16","16","10","4","8","4","4","24","4","4","20","20","20","4","4","4","8","2","20","8","10","4","10","8","20","20","12","8","6","4","10","20","8","10","20","4","8","20","20","20","16","20","20","20","24","20","20","20","20","12","20","10","20","20","4","12","8","12","18","4","12","24","20","10","20","18","20","12","20","20","8","12","10","4","20","6","18","8","12","10","20","4","4","24","8","20","8","2","2","8","20","4","20","10","4","8","12","10","2","20","4","12","20","20","12","6","4","10","10","10","12","18","8","12","20","4","8"],"correct_side":[2,2,1,1,1,2,2,2,2,1,1,1,1,2,1,2,1,2,2,1,2,2,2,2,1,2,1,1,2,1,1,2,2,2,2,1,1,2,1,1,2,1,2,2,1,2,2,2,1,1,2,2,2,1,2,1,1,1,2,1,2,2,1,2,2,2,1,2,2,2,1,2,2,1,2,1,1,2,2,1,1,1,2,1,1,1,1,2,2,1,2,2,2,1,2,2,2,2,1,1,2,2,1,1,2,1,2,1,2,1,2,1,1,2,2,1,1,2,1,1],"img_shown":["img/250/equaldotsize/R/12_Ratio_250_L_5_R_20.png","img/750/randomdotsizeEA/R/2_Ratio_750_L_6_R_8.png","img/250/equaldotanddens/L/2_Ratio_250_L_16_R_4.png","img/250/equaldotanddens/L/2_Ratio_250_L_16_R_4.png","img/250/equaldotanddens/L/2_Ratio_250_L_16_R_4.png","img/900/equaldotanddens/R/5_Ratio_900_L_9_R_10.png","img/750/equaldotanddens/R/7_Ratio_750_L_3_R_4.png","img/750/equaldotanddens/R/2_Ratio_750_L_6_R_8.png","img/250/randomdotsizeEA/R/8_Ratio_250_L_1_R_4.png","img/750/equaldotsize/L/9_Ratio_750_L_4_R_3.png","img/750/randomdotsizeEA/L/6_Ratio_750_L_24_R_18.png","img/750/equaldotanddens/L/9_Ratio_750_L_4_R_3.png","img/500/equaldotanddens/L/10_Ratio_500_L_4_R_2.png","img/900/randomdotsizeEA/R/13_Ratio_900_L_18_R_20.png","img/900/equaldotsize/L/10_Ratio_900_L_20_R_18.png","img/900/equaldotanddens/R/11_Ratio_900_L_18_R_20.png","img/500/equaldotanddens/L/5_Ratio_500_L_4_R_2.png","img/500/equaldotsize/R/9_Ratio_500_L_2_R_4.png","img/750/equaldotanddens/R/12_Ratio_750_L_3_R_4.png","img/750/equaldotsize/L/14_Ratio_750_L_8_R_6.png","img/500/randomdotsizeEA/R/12_Ratio_500_L_1_R_2.png","img/500/equaldotanddens/R/3_Ratio_500_L_10_R_20.png","img/250/equaldotanddens/R/13_Ratio_250_L_2_R_8.png","img/900/equaldotanddens/R/3_Ratio_900_L_9_R_10.png","img/750/equaldotanddens/L/8_Ratio_750_L_4_R_3.png","img/900/equaldotsize/R/5_Ratio_900_L_9_R_10.png","img/500/equaldotanddens/L/8_Ratio_500_L_8_R_4.png","img/900/equaldotanddens/L/8_Ratio_900_L_20_R_18.png","img/900/randomdotsizeEA/R/12_Ratio_900_L_18_R_20.png","img/250/equaldotanddens/L/15_Ratio_250_L_12_R_3.png","img/750/randomdotsizeEA/L/13_Ratio_750_L_8_R_6.png","img/500/randomdotsizeEA/R/2_Ratio_500_L_3_R_6.png","img/250/randomdotsizeEA/R/8_Ratio_250_L_1_R_4.png","img/900/equaldotanddens/R/7_Ratio_900_L_9_R_10.png","img/250/equaldotanddens/R/12_Ratio_250_L_5_R_20.png","img/250/randomdotsizeEA/L/7_Ratio_250_L_8_R_2.png","img/900/randomdotsizeEA/L/1_Ratio_900_L_10_R_9.png","img/900/equaldotsize/R/13_Ratio_900_L_18_R_20.png","img/750/equaldotsize/L/9_Ratio_750_L_4_R_3.png","img/750/randomdotsizeEA/L/14_Ratio_750_L_8_R_6.png","img/900/randomdotsizeEA/R/13_Ratio_900_L_18_R_20.png","img/900/equaldotanddens/L/8_Ratio_900_L_20_R_18.png","img/750/randomdotsizeEA/R/4_Ratio_750_L_15_R_20.png","img/250/randomdotsizeEA/R/10_Ratio_250_L_4_R_16.png","img/750/equaldotsize/L/1_Ratio_750_L_20_R_15.png","img/900/randomdotsizeEA/R/11_Ratio_900_L_18_R_20.png","img/900/equaldotanddens/R/13_Ratio_900_L_18_R_20.png","img/250/equaldotsize/R/6_Ratio_250_L_6_R_24.png","img/900/equaldotsize/L/4_Ratio_900_L_20_R_18.png","img/900/randomdotsizeEA/L/8_Ratio_900_L_20_R_18.png","img/900/equaldotsize/R/11_Ratio_900_L_18_R_20.png","img/250/equaldotanddens/R/12_Ratio_250_L_5_R_20.png","img/250/randomdotsizeEA/R/4_Ratio_250_L_3_R_12.png","img/900/randomdotsizeEA/L/4_Ratio_900_L_20_R_18.png","img/900/equaldotanddens/R/5_Ratio_900_L_9_R_10.png","img/900/randomdotsizeEA/L/8_Ratio_900_L_20_R_18.png","img/900/randomdotsizeEA/L/8_Ratio_900_L_20_R_18.png","img/500/equaldotsize/L/10_Ratio_500_L_4_R_2.png","img/250/equaldotsize/R/4_Ratio_250_L_3_R_12.png","img/250/randomdotsizeEA/L/1_Ratio_250_L_8_R_2.png","img/250/equaldotsize/R/4_Ratio_250_L_3_R_12.png","img/500/equaldotsize/R/1_Ratio_500_L_9_R_18.png","img/750/equaldotsize/L/10_Ratio_750_L_4_R_3.png","img/750/equaldotsize/R/15_Ratio_750_L_9_R_12.png","img/250/randomdotsizeEA/R/6_Ratio_250_L_6_R_24.png","img/750/randomdotsizeEA/R/4_Ratio_750_L_15_R_20.png","img/900/randomdotsizeEA/L/1_Ratio_900_L_10_R_9.png","img/750/equaldotsize/R/3_Ratio_750_L_15_R_20.png","img/500/equaldotsize/R/6_Ratio_500_L_9_R_18.png","img/750/equaldotanddens/R/3_Ratio_750_L_15_R_20.png","img/250/equaldotanddens/L/15_Ratio_250_L_12_R_3.png","img/500/randomdotsizeEA/R/3_Ratio_500_L_10_R_20.png","img/900/equaldotsize/R/12_Ratio_900_L_18_R_20.png","img/250/equaldotsize/L/1_Ratio_250_L_8_R_2.png","img/250/equaldotsize/R/4_Ratio_250_L_3_R_12.png","img/500/randomdotsizeEA/L/7_Ratio_500_L_10_R_5.png","img/750/equaldotanddens/L/9_Ratio_750_L_4_R_3.png","img/500/equaldotsize/R/3_Ratio_500_L_10_R_20.png","img/500/equaldotsize/R/2_Ratio_500_L_3_R_6.png","img/500/equaldotanddens/L/4_Ratio_500_L_18_R_9.png","img/250/equaldotsize/L/7_Ratio_250_L_8_R_2.png","img/250/equaldotanddens/L/15_Ratio_250_L_12_R_3.png","img/500/randomdotsizeEA/R/14_Ratio_500_L_5_R_10.png","img/900/equaldotsize/L/10_Ratio_900_L_20_R_18.png","img/500/equaldotanddens/L/5_Ratio_500_L_4_R_2.png","img/750/equaldotsize/L/10_Ratio_750_L_4_R_3.png","img/250/equaldotanddens/L/5_Ratio_250_L_24_R_6.png","img/750/randomdotsizeEA/R/2_Ratio_750_L_6_R_8.png","img/750/randomdotsizeEA/R/5_Ratio_750_L_15_R_20.png","img/250/randomdotsizeEA/L/3_Ratio_250_L_8_R_2.png","img/500/equaldotanddens/R/15_Ratio_500_L_1_R_2.png","img/500/equaldotsize/R/15_Ratio_500_L_1_R_2.png","img/250/randomdotsizeEA/R/13_Ratio_250_L_2_R_8.png","img/900/equaldotsize/L/10_Ratio_900_L_20_R_18.png","img/750/randomdotsizeEA/R/7_Ratio_750_L_3_R_4.png","img/750/equaldotsize/R/3_Ratio_750_L_15_R_20.png","img/900/equaldotanddens/R/6_Ratio_900_L_9_R_10.png","img/750/equaldotanddens/R/12_Ratio_750_L_3_R_4.png","img/500/equaldotanddens/L/8_Ratio_500_L_8_R_4.png","img/250/equaldotsize/L/15_Ratio_250_L_12_R_3.png","img/500/randomdotsizeEA/R/14_Ratio_500_L_5_R_10.png","img/500/randomdotsizeEA/R/15_Ratio_500_L_1_R_2.png","img/900/equaldotanddens/L/4_Ratio_900_L_20_R_18.png","img/750/equaldotsize/L/9_Ratio_750_L_4_R_3.png","img/250/randomdotsizeEA/R/11_Ratio_250_L_3_R_12.png","img/750/equaldotanddens/L/1_Ratio_750_L_20_R_15.png","img/500/equaldotsize/R/3_Ratio_500_L_10_R_20.png","img/500/equaldotsize/L/11_Ratio_500_L_12_R_6.png","img/500/equaldotanddens/R/2_Ratio_500_L_3_R_6.png","img/750/equaldotanddens/L/8_Ratio_750_L_4_R_3.png","img/500/randomdotsizeEA/R/14_Ratio_500_L_5_R_10.png","img/900/equaldotsize/L/1_Ratio_900_L_10_R_9.png","img/500/equaldotanddens/L/7_Ratio_500_L_10_R_5.png","img/250/equaldotsize/R/4_Ratio_250_L_3_R_12.png","img/500/randomdotsizeEA/R/6_Ratio_500_L_9_R_18.png","img/250/equaldotsize/L/1_Ratio_250_L_8_R_2.png","img/500/randomdotsizeEA/L/13_Ratio_500_L_12_R_6.png","img/900/equaldotsize/R/12_Ratio_900_L_18_R_20.png","img/500/equaldotsize/L/10_Ratio_500_L_4_R_2.png","img/750/randomdotsizeEA/L/13_Ratio_750_L_8_R_6.png"],"Rat0":[["12_Ratio_0_L_9_R_0.png","13_Ratio_0_L_6_R_0.png","5_Ratio_0_L_2_R_0.png","6_Ratio_0_L_4_R_0.png","8_Ratio_0_L_6_R_0.png"],["1_Ratio_0_L_0_R_17.png","10_Ratio_0_L_0_R_22.png","11_Ratio_0_L_0_R_1.png","14_Ratio_0_L_0_R_24.png","15_Ratio_0_L_0_R_4.png","2_Ratio_0_L_0_R_5.png","3_Ratio_0_L_0_R_17.png","4_Ratio_0_L_0_R_7.png","7_Ratio_0_L_0_R_19.png","9_Ratio_0_L_0_R_15.png"]],"Rat250":[["1_Ratio_250_L_8_R_2.png","14_Ratio_250_L_12_R_3.png","15_Ratio_250_L_12_R_3.png","2_Ratio_250_L_16_R_4.png","3_Ratio_250_L_8_R_2.png","5_Ratio_250_L_24_R_6.png","7_Ratio_250_L_8_R_2.png"],["10_Ratio_250_L_4_R_16.png","11_Ratio_250_L_3_R_12.png","12_Ratio_250_L_5_R_20.png","13_Ratio_250_L_2_R_8.png","4_Ratio_250_L_3_R_12.png","6_Ratio_250_L_6_R_24.png","8_Ratio_250_L_1_R_4.png","9_Ratio_250_L_3_R_12.png"]],"Rat500":[["10_Ratio_500_L_4_R_2.png","11_Ratio_500_L_12_R_6.png","13_Ratio_500_L_12_R_6.png","4_Ratio_500_L_18_R_9.png","5_Ratio_500_L_4_R_2.png","7_Ratio_500_L_10_R_5.png","8_Ratio_500_L_8_R_4.png"],["1_Ratio_500_L_9_R_18.png","12_Ratio_500_L_1_R_2.png","14_Ratio_500_L_5_R_10.png","15_Ratio_500_L_1_R_2.png","2_Ratio_500_L_3_R_6.png","3_Ratio_500_L_10_R_20.png","6_Ratio_500_L_9_R_18.png","9_Ratio_500_L_2_R_4.png"]],"Rat750":[["1_Ratio_750_L_20_R_15.png","10_Ratio_750_L_4_R_3.png","13_Ratio_750_L_8_R_6.png","14_Ratio_750_L_8_R_6.png","6_Ratio_750_L_24_R_18.png","8_Ratio_750_L_4_R_3.png","9_Ratio_750_L_4_R_3.png"],["11_Ratio_750_L_12_R_16.png","12_Ratio_750_L_3_R_4.png","15_Ratio_750_L_9_R_12.png","2_Ratio_750_L_6_R_8.png","3_Ratio_750_L_15_R_20.png","4_Ratio_750_L_15_R_20.png","5_Ratio_750_L_15_R_20.png","7_Ratio_750_L_3_R_4.png"]],"Rat900":[["1_Ratio_900_L_10_R_9.png","10_Ratio_900_L_20_R_18.png","2_Ratio_900_L_20_R_18.png","4_Ratio_900_L_20_R_18.png","8_Ratio_900_L_20_R_18.png"],["11_Ratio_900_L_18_R_20.png","12_Ratio_900_L_18_R_20.png","13_Ratio_900_L_18_R_20.png","14_Ratio_900_L_18_R_20.png","15_Ratio_900_L_9_R_10.png","3_Ratio_900_L_9_R_10.png","5_Ratio_900_L_9_R_10.png","6_Ratio_900_L_9_R_10.png","7_Ratio_900_L_9_R_10.png","9_Ratio_900_L_18_R_20.png"]],"Rat1000":[["10_Ratio_1000_L_16_R_16.png","11_Ratio_1000_L_6_R_6.png","12_Ratio_1000_L_14_R_14.png","13_Ratio_1000_L_20_R_20.png","15_Ratio_1000_L_15_R_15.png","2_Ratio_1000_L_17_R_17.png","4_Ratio_1000_L_9_R_9.png","5_Ratio_1000_L_6_R_6.png","6_Ratio_1000_L_19_R_19.png","8_Ratio_1000_L_14_R_14.png","9_Ratio_1000_L_25_R_25.png"],["1_Ratio_1000_L_1_R_1.png","14_Ratio_1000_L_17_R_17.png","3_Ratio_1000_L_17_R_17.png","7_Ratio_1000_L_6_R_6.png"]]}},{"start_time":1552309114074,"click_time":1552309115926,"finger_time":1552309115587,"fix_duration":1365.1433502915993,"trial":1,"RT":1513,"MT":339,"sideResp":1,"stimulus":"img/750/randomdotsizeEA/R/2_Ratio_750_L_6_R_8.png","xmouse":[775,775,775,775,775,775,775,775,775,775,775,775,775,775,775,775,775,775,775,775,775,775,775,775,775,775,775,775,775,775,775,775,775,775,775,775,775,775,775,775,775,775,775,775,775,775,775,775,775,775,775,775,775,775,775,775,775,775,775,775,775,775,775,775,775,775,775,775,775,775,775,775,775,771,752,726,684,599,553,522,491,467,454,451,451,451,451,455,460,467,473,480,487],"ymouse":[506,506,506,506,506,506,506,506,506,506,506,506,506,506,506,506,506,506,506,506,506,506,506,506,506,506,506,506,506,506,506,506,506,506,506,506,506,506,506,506,506,506,506,506,506,506,506,506,506,506,506,506,506,506,506,506,506,506,506,506,506,506,506,506,506,506,506,506,506,506,506,506,506,505,467,427,369,262,223,199,176,157,147,144,144,144,143,136,129,120,112,100,83],"timestamp_mouse":[12,41,52,72,91,112,133,152,173,191,212,232,253,271,293,312,332,353,373,392,413,432,453,472,493,513,533,552,573,592,612,632,652,673,693,711,733,753,771,792,813,831,852,871,893,912,933,953,973,992,1012,1033,1052,1072,1091,1112,1133,1153,1173,1192,1213,1233,1252,1272,1293,1312,1332,1352,1372,1393,1411,1432,1452,1472,1492,1513,1532,1552,1572,1592,1613,1633,1652,1673,1693,1712,1733,1752,1772,1793,1813,1833,1852],"xSR":733.5,"ySR":464.1,"xT1":420.09999999999997,"yT1":0,"xT2":1046.8999999999999,"yT2":0,"toosoon":0,"cond_shown":"randomdotsizeEA","ratio_trial":750,"smaller_num":"6","larger_num":"8","correct_side":2,"subjID":"mariannalopez1","gender":"1","age":"9","school":"4"},{"start_time":1552309118209,"click_time":1552309119587,"finger_time":1552309119126,"fix_duration":1362.9078798974524,"trial":2,"RT":917,"MT":461,"sideResp":1,"stimulus":"img/250/equaldotanddens/L/2_Ratio_250_L_16_R_4.png","xmouse":[760,760,760,760,760,760,760,760,760,760,760,760,760,760,760,760,760,760,760,760,760,760,760,760,760,760,760,760,760,760,760,760,760,760,760,760,760,760,760,760,760,760,760,759,758,746,723,711,675,657,622,608,597,586,577,559,553,548,547,545,541,538,535,532,529,524,522,521,518],"ymouse":[511,511,511,511,511,511,511,511,511,511,511,511,511,511,511,511,511,511,511,511,511,511,511,511,511,511,511,511,511,511,511,511,511,511,511,511,511,511,511,511,511,511,511,502,492,444,360,329,247,202,154,142,133,125,117,98,90,85,85,84,82,81,79,76,73,68,67,66,65],"timestamp_mouse":[17,42,57,77,97,117,137,156,178,197,216,237,257,278,298,317,337,357,377,397,418,437,458,478,496,516,538,558,577,597,617,637,658,677,698,717,738,758,778,797,818,838,857,877,898,917,937,957,977,997,1017,1037,1057,1078,1096,1117,1138,1157,1178,1197,1218,1237,1258,1277,1297,1317,1337,1358,1377],"xSR":733.5,"ySR":464.1,"xT1":420.09999999999997,"yT1":0,"xT2":1046.8999999999999,"yT2":0,"toosoon":0,"cond_shown":"equaldotanddens","ratio_trial":250,"smaller_num":"4","larger_num":"16","correct_side":1,"subjID":"mariannalopez1","gender":"1","age":"9","school":"4"},{"start_time":1552309121117,"click_time":1552309122128,"finger_time":1552309121966,"fix_duration":648.6742674552235,"trial":3,"RT":849,"MT":162,"sideResp":1,"stimulus":"img/250/equaldotanddens/L/2_Ratio_250_L_16_R_4.png","xmouse":[770,770,770,770,770,770,770,770,770,770,770,770,770,770,770,770,770,770,770,770,770,770,770,770,770,770,770,770,770,770,770,770,770,770,770,770,770,770,770,769,759,744,723,704,678,617,579,537,500,476,452],"ymouse":[509,509,509,509,509,509,509,509,509,509,509,509,509,509,509,509,509,509,509,509,509,509,509,509,509,509,509,509,509,509,509,509,509,509,509,509,509,509,509,507,498,486,463,441,398,296,246,191,137,103,56],"timestamp_mouse":[9,29,50,70,89,110,129,149,170,189,210,230,249,270,290,309,330,349,368,388,409,430,449,470,489,510,529,548,570,590,609,629,650,670,688,710,730,750,769,789,809,829,849,869,889,909,929,949,970,989,1011],"xSR":733.5,"ySR":464.1,"xT1":420.09999999999997,"yT1":0,"xT2":1046.8999999999999,"yT2":0,"toosoon":0,"cond_shown":"equaldotanddens","ratio_trial":250,"smaller_num":"4","larger_num":"16","correct_side":1,"subjID":"mariannalopez1","gender":"1","age":"9","school":"4"},{"start_time":1552309123556,"click_time":1552309124546,"finger_time":1552309124286,"fix_duration":327.0077159692035,"trial":4,"RT":730,"MT":260,"sideResp":1,"stimulus":"img/250/equaldotanddens/L/2_Ratio_250_L_16_R_4.png","xmouse":[783,783,783,783,783,783,783,782,782,781,779,777,776,774,773,773,772,772,771,771,771,771,771,771,771,771,771,771,771,771,771,771,769,762,759,757,754,747,713,690,646,624,607,567,536,518,503,491,479,479],"ymouse":[521,521,521,521,521,521,521,521,521,521,521,521,521,521,521,521,521,521,521,521,521,521,521,521,521,521,521,521,521,521,521,520,519,497,486,473,456,434,370,339,289,269,256,210,175,155,139,123,102,97],"timestamp_mouse":[10,31,50,70,90,109,130,151,170,191,210,231,250,270,289,310,330,350,370,391,411,430,451,470,491,511,530,551,571,590,610,631,650,670,690,710,730,751,770,791,810,830,850,870,890,910,930,950,970,989],"xSR":733.5,"ySR":464.1,"xT1":420.09999999999997,"yT1":0,"xT2":1046.8999999999999,"yT2":0,"toosoon":0,"cond_shown":"equaldotanddens","ratio_trial":250,"smaller_num":"4","larger_num":"16","correct_side":1,"subjID":"mariannalopez1","gender":"1","age":"9","school":"4"},{"start_time":1552309125709,"click_time":1552309127226,"finger_time":1552309126706,"fix_duration":341.13253135632016,"trial":5,"RT":997,"MT":520,"sideResp":2,"stimulus":"img/900/equaldotanddens/R/5_Ratio_900_L_9_R_10.png","xmouse":[773,773,773,773,773,773,773,773,773,773,773,773,773,773,773,773,773,773,773,773,773,773,773,773,773,773,773,773,773,773,773,773,773,773,773,773,773,773,773,773,773,773,773,773,773,773,775,785,800,816,844,862,876,888,900,929,938,946,948,949,951,959,979,991,999,1003,1005,1007,1010,1015,1023,1028,1031,1036,1043,1056],"ymouse":[511,511,511,511,511,511,511,511,511,511,511,511,511,511,511,511,511,511,511,511,511,511,511,511,511,511,511,511,511,511,511,511,511,511,511,511,511,511,511,511,511,511,511,511,511,511,510,496,475,456,407,368,341,320,300,254,237,222,216,214,209,199,178,164,154,145,140,136,132,124,107,97,92,88,82,66],"timestamp_mouse":[19,36,57,76,98,117,138,158,177,198,218,236,257,277,296,317,338,358,378,398,417,437,457,478,498,518,537,558,577,598,618,637,657,677,697,717,737,756,778,797,817,836,856,878,898,918,937,957,977,997,1018,1037,1057,1078,1098,1117,1137,1157,1177,1198,1217,1236,1257,1278,1297,1317,1337,1357,1377,1397,1417,1437,1457,1477,1497,1517],"xSR":733.5,"ySR":464.1,"xT1":420.09999999999997,"yT1":0,"xT2":1046.8999999999999,"yT2":0,"toosoon":0,"cond_shown":"equaldotanddens","ratio_trial":900,"smaller_num":"9","larger_num":"10","correct_side":2,"subjID":"mariannalopez1","gender":"1","age":"9","school":"4"},{"start_time":1552309130058,"click_time":1552309131386,"finger_time":1552309131026,"fix_duration":589.5380854070148,"trial":6,"RT":968,"MT":360,"sideResp":2,"stimulus":"img/750/equaldotanddens/R/7_Ratio_750_L_3_R_4.png","xmouse":[786,786,786,786,786,786,786,786,786,786,786,786,786,786,786,786,786,786,786,786,786,786,786,786,786,786,786,786,786,786,786,786,786,786,786,786,786,786,786,786,786,786,786,786,786,786,786,786,807,825,844,869,888,903,908,917,921,926,932,935,939,946,953,976,993,1016,1047],"ymouse":[510,510,510,510,510,510,510,510,510,510,510,510,510,510,510,510,510,510,510,510,510,510,510,510,510,510,510,510,510,510,510,510,510,510,510,510,510,510,510,510,510,510,510,510,510,510,510,507,450,407,363,309,268,216,198,176,165,158,150,147,144,138,133,125,117,107,89],"timestamp_mouse":[9,37,48,68,87,109,129,149,168,189,208,229,248,267,287,307,329,349,368,388,408,428,449,468,488,507,529,548,570,589,609,629,647,667,689,709,729,748,769,789,808,829,848,869,888,909,928,948,967,988,1007,1028,1048,1068,1088,1108,1129,1148,1168,1187,1208,1228,1248,1268,1288,1308,1328],"xSR":733.5,"ySR":464.1,"xT1":420.09999999999997,"yT1":0,"xT2":1046.8999999999999,"yT2":0,"toosoon":0,"cond_shown":"equaldotanddens","ratio_trial":750,"smaller_num":"3","larger_num":"4","correct_side":2,"subjID":"mariannalopez1","gender":"1","age":"9","school":"4"},{"start_time":1552309132518,"click_time":1552309133926,"finger_time":1552309133746,"fix_duration":270.77561256048335,"trial":7,"RT":1228,"MT":180,"sideResp":2,"stimulus":"img/750/equaldotanddens/R/2_Ratio_750_L_6_R_8.png","xmouse":[780,780,780,780,780,780,780,780,780,780,780,780,780,780,780,780,780,780,780,780,780,780,780,780,780,780,780,780,780,780,780,780,780,780,780,780,780,780,780,780,780,780,780,780,780,780,780,780,780,780,780,780,780,780,780,780,780,780,780,780,783,811,839,890,923,980,1005,1021,1033,1039,1053],"ymouse":[504,504,504,504,504,504,504,504,504,504,504,504,504,504,504,504,504,504,504,504,504,504,504,504,504,504,504,504,504,504,504,504,504,504,504,504,504,504,504,504,504,504,504,504,504,504,504,504,504,504,504,504,504,504,504,504,504,504,504,497,491,445,406,332,284,190,156,134,119,110,99],"timestamp_mouse":[10,36,48,68,89,109,128,149,169,189,208,229,248,269,288,308,328,348,368,388,409,428,449,468,488,509,528,547,568,588,607,627,648,669,687,708,729,748,769,789,809,828,849,869,888,909,927,948,969,988,1008,1028,1049,1067,1088,1108,1129,1149,1168,1188,1208,1228,1248,1268,1288,1308,1328,1348,1368,1389,1408],"xSR":733.5,"ySR":464.1,"xT1":420.09999999999997,"yT1":0,"xT2":1046.8999999999999,"yT2":0,"toosoon":0,"cond_shown":"equaldotanddens","ratio_trial":750,"smaller_num":"6","larger_num":"8","correct_side":2,"subjID":"mariannalopez1","gender":"1","age":"9","school":"4"},{"start_time":1552309136087,"click_time":1552309137606,"finger_time":1552309137506,"fix_duration":1160.130243284354,"trial":8,"RT":1419,"MT":100,"sideResp":2,"stimulus":"img/250/randomdotsizeEA/R/8_Ratio_250_L_1_R_4.png","xmouse":[778,778,778,778,778,778,778,778,778,778,778,778,778,778,778,778,778,778,778,778,778,778,778,778,778,778,778,778,778,778,778,778,778,778,778,778,778,778,778,778,778,778,778,778,778,778,778,778,778,778,778,778,778,778,778,778,778,778,778,778,778,778,778,778,778,778,778,778,781,796,835,940,992,1055,1085,1100],"ymouse":[511,511,511,511,511,511,511,511,511,511,511,511,511,511,511,511,511,511,511,511,511,511,511,511,511,511,511,511,511,511,511,511,511,511,511,511,511,511,511,511,511,511,511,511,511,511,511,511,511,511,511,511,511,511,511,511,511,511,511,511,511,511,511,511,511,511,511,511,502,482,434,317,251,166,117,93],"timestamp_mouse":[20,42,60,80,100,119,138,159,179,200,219,238,260,280,298,320,339,359,379,399,420,440,460,479,500,519,540,560,579,600,619,639,660,680,700,718,739,760,778,800,820,839,860,880,899,919,939,960,979,999,1020,1039,1059,1079,1100,1119,1139,1160,1180,1200,1219,1239,1258,1280,1299,1319,1338,1358,1379,1399,1419,1439,1459,1479,1499,1519],"xSR":733.5,"ySR":464.1,"xT1":420.09999999999997,"yT1":0,"xT2":1046.8999999999999,"yT2":0,"toosoon":0,"cond_shown":"randomdotsizeEA","ratio_trial":250,"smaller_num":"1","larger_num":"4","correct_side":2,"subjID":"mariannalopez1","gender":"1","age":"9","school":"4"},{"start_time":1552309139864,"click_time":1552309141027,"finger_time":1552309140687,"fix_duration":1196.3355223823212,"trial":9,"RT":823,"MT":340,"sideResp":1,"stimulus":"img/750/equaldotsize/L/9_Ratio_750_L_4_R_3.png","xmouse":[780,780,780,780,780,780,780,780,780,780,780,780,780,780,780,780,780,780,780,780,780,780,780,780,780,780,780,780,780,780,780,780,780,780,780,780,780,780,779,770,755,726,682,561,496,430,408,400,399,401,404,407,407,407,407,406,409,414,425],"ymouse":[512,512,512,512,512,512,512,512,512,512,512,512,512,512,512,512,512,512,512,512,512,512,512,512,512,512,512,512,512,512,512,512,512,512,512,512,512,512,510,496,471,439,398,319,281,245,231,222,206,197,186,172,158,134,120,117,102,93,79],"timestamp_mouse":[11,21,42,62,83,102,122,142,163,182,202,222,243,262,281,302,322,342,363,383,402,423,443,462,483,503,522,541,562,582,602,622,643,662,682,701,723,742,762,782,801,823,843,862,881,902,922,942,962,982,1002,1022,1043,1062,1083,1102,1121,1142,1163],"xSR":733.5,"ySR":464.1,"xT1":420.09999999999997,"yT1":0,"xT2":1046.8999999999999,"yT2":0,"toosoon":0,"cond_shown":"equaldotsize","ratio_trial":750,"smaller_num":"3","larger_num":"4","correct_side":1,"subjID":"mariannalopez1","gender":"1","age":"9","school":"4"},{"start_time":1552309142277,"click_time":1552309143507,"finger_time":1552309143166,"fix_duration":250,"trial":10,"RT":889,"MT":341,"sideResp":1,"stimulus":"img/750/randomdotsizeEA/L/6_Ratio_750_L_24_R_18.png","xmouse":[793,793,793,793,793,793,793,793,793,793,793,793,793,793,793,793,793,793,793,793,793,793,793,793,793,793,793,793,793,793,793,793,793,793,793,793,793,793,793,793,793,793,809,822,844,851,852,852,852,852,852,846,826,794,765,722,683,631,607,576,538,497],"ymouse":[528,528,528,528,528,528,528,528,528,528,528,528,528,528,528,528,528,528,528,528,528,528,528,528,528,528,528,528,528,528,528,528,528,528,528,528,528,528,528,528,528,527,512,503,492,489,488,488,488,488,488,488,488,482,467,441,413,338,276,203,125,48],"timestamp_mouse":[10,45,49,70,88,109,129,150,169,190,209,229,250,270,289,309,330,348,370,390,410,428,450,470,489,510,530,549,568,589,610,628,650,669,690,710,730,749,770,790,809,829,849,870,889,909,929,949,969,989,1009,1029,1049,1070,1088,1110,1130,1149,1169,1189,1210,1230],"xSR":733.5,"ySR":464.1,"xT1":420.09999999999997,"yT1":0,"xT2":1046.8999999999999,"yT2":0,"toosoon":0,"cond_shown":"randomdotsizeEA","ratio_trial":750,"smaller_num":"18","larger_num":"24","correct_side":1,"subjID":"mariannalopez1","gender":"1","age":"9","school":"4"},{"start_time":1552309147484,"click_time":1552309155926,"finger_time":1552309155606,"fix_duration":1416.5944747022136,"trial":11,"RT":8122,"MT":320,"sideResp":1,"stimulus":"img/750/equaldotanddens/L/9_Ratio_750_L_4_R_3.png","xmouse":[762,762,762,762,762,762,762,762,762,762,762,762,762,762,762,762,762,762,762,762,762,762,762,762,762,762,762,762,762,762,762,762,762,762,762,762,762,762,762,762,762,762,762,762,762,762,762,762,762,762,762,762,762,762,762,762,762,762,762,762,762,762,762,762,762,762,762,762,762,762,762,762,762,762,762,762,762,762,762,762,762,762,762,762,762,762,762,762,762,762,762,762,762,762,762,762,762,762,762,762,762,762,762,762,763,769,777,784,784,784,784,784,784,784,784,784,784,784,784,784,784,784,784,784,784,784,784,784,784,784,784,784,784,784,784,784,784,784,784,784,784,784,784,784,784,784,784,784,784,784,784,784,784,784,784,784,784,784,784,784,784,784,784,784,784,784,784,784,784,784,784,784,784,784,784,784,784,784,784,784,784,784,784,784,784,784,784,784,784,784,784,784,784,784,784,784,784,784,784,784,784,784,784,784,784,784,784,784,784,784,784,784,784,784,784,784,784,784,784,784,784,784,784,784,784,784,784,784,784,784,784,784,784,784,784,784,784,784,784,784,784,784,784,784,784,784,784,784,784,784,784,785,786,786,786,786,786,786,786,786,786,786,786,786,786,786,786,786,786,786,786,786,786,786,786,786,786,786,786,786,786,786,786,786,786,786,786,786,786,786,786,786,786,786,786,786,786,786,786,786,786,786,786,786,786,786,786,786,786,786,786,786,786,786,786,786,786,786,786,786,786,786,786,786,786,786,786,786,786,786,786,786,786,786,786,786,786,786,786,786,786,786,786,786,786,786,786,786,786,786,786,786,786,786,786,786,786,786,786,786,786,786,786,786,786,786,786,786,786,786,786,786,786,786,786,786,786,786,786,786,786,786,786,786,786,786,786,786,786,786,786,786,786,786,786,786,786,786,786,786,786,786,786,786,784,776,763,745,730,721,703,683,649,634,620,615,609,593,580,563,547,531,504],"ymouse":[531,531,531,531,531,531,531,531,531,531,531,531,531,531,531,531,531,531,531,531,531,531,531,531,531,531,531,531,531,531,531,531,531,531,531,531,531,531,531,531,531,531,531,531,531,531,531,531,531,531,531,531,531,531,531,531,531,531,531,531,531,531,531,531,531,531,531,531,531,531,531,531,531,531,531,531,531,531,531,531,531,531,531,531,531,531,531,531,531,531,531,531,531,531,531,531,531,531,531,531,531,531,531,531,531,530,528,526,526,526,526,526,526,526,526,526,526,526,526,526,526,526,526,526,526,526,526,526,526,526,526,526,526,526,526,526,526,526,526,526,526,526,526,526,526,526,526,526,526,526,526,526,526,526,526,526,526,526,526,526,526,526,526,526,526,526,526,526,526,526,526,526,526,526,526,526,526,526,526,526,526,526,526,526,526,526,526,526,526,526,526,526,526,526,526,526,526,526,526,526,526,526,526,526,526,526,526,526,526,526,526,526,526,526,526,526,526,526,526,526,526,526,526,526,526,526,526,526,526,526,526,526,526,526,526,526,526,526,526,526,526,526,526,526,526,526,526,526,526,526,526,518,504,502,502,502,502,502,502,502,502,502,502,502,502,502,502,502,502,502,502,502,502,502,503,503,503,503,503,503,503,503,503,503,503,503,503,503,503,503,503,503,503,503,503,503,503,503,503,503,503,503,503,503,503,503,503,503,503,503,503,503,503,503,503,503,503,503,503,503,503,503,503,503,503,503,503,503,503,503,503,503,503,503,503,503,503,503,503,503,503,503,503,503,503,503,503,503,503,503,503,503,503,503,503,503,503,503,503,503,503,503,503,503,503,503,503,503,503,503,503,503,503,503,503,503,503,503,503,503,503,503,503,503,503,503,503,503,503,503,503,503,503,503,503,503,503,503,503,503,503,503,503,503,499,472,435,394,357,336,298,252,205,194,186,183,179,157,142,129,119,109,93],"timestamp_mouse":[15,26,42,63,83,101,121,142,162,182,203,221,242,262,282,302,322,343,361,382,403,421,443,463,481,503,522,541,563,583,603,623,642,663,683,703,722,743,763,782,803,822,842,862,882,901,923,942,961,983,1003,1023,1042,1063,1082,1102,1121,1142,1161,1183,1203,1222,1242,1262,1283,1302,1322,1342,1363,1382,1403,1422,1441,1463,1483,1501,1523,1542,1562,1582,1603,1622,1642,1661,1683,1702,1721,1742,1763,1782,1801,1823,1843,1862,1883,1901,1923,1941,1963,1982,2003,2023,2041,2063,2082,2102,2122,2142,2163,2182,2203,2222,2243,2262,2283,2303,2322,2342,2361,2382,2402,2422,2442,2463,2483,2503,2523,2542,2562,2582,2603,2623,2643,2662,2683,2702,2723,2742,2763,2782,2802,2821,2842,2863,2882,2902,2922,2942,2963,2983,3003,3023,3042,3063,3082,3102,3123,3142,3162,3182,3202,3223,3242,3263,3283,3302,3321,3341,3363,3383,3403,3423,3443,3463,3482,3502,3523,3542,3562,3583,3602,3622,3641,3663,3683,3702,3723,3743,3762,3781,3803,3822,3842,3862,3882,3902,3922,3943,3963,3982,4002,4022,4043,4062,4082,4103,4122,4142,4163,4183,4203,4223,4242,4262,4283,4303,4322,4342,4361,4383,4402,4423,4442,4461,4483,4503,4522,4542,4562,4582,4602,4621,4643,4662,4682,4702,4722,4742,4763,4783,4802,4822,4842,4862,4882,4903,4922,4943,4963,4983,5002,5023,5042,5062,5082,5102,5122,5142,5163,5182,5203,5222,5242,5263,5283,5303,5323,5342,5363,5383,5403,5422,5442,5462,5483,5503,5523,5542,5563,5582,5603,5622,5642,5662,5683,5702,5722,5742,5762,5783,5803,5822,5841,5863,5883,5903,5922,5941,5962,5981,6003,6021,6042,6063,6083,6103,6123,6142,6163,6183,6203,6223,6242,6263,6282,6302,6323,6342,6361,6383,6401,6423,6441,6463,6483,6503,6522,6542,6563,6582,6603,6622,6642,6663,6683,6702,6721,6743,6762,6783,6803,6823,6841,6863,6882,6902,6923,6942,6962,6983,7001,7021,7042,7062,7081,7103,7122,7142,7161,7182,7202,7222,7242,7263,7283,7303,7323,7342,7362,7382,7402,7421,7443,7463,7481,7503,7522,7541,7563,7583,7602,7623,7643,7662,7683,7702,7722,7742,7762,7783,7802,7823,7843,7861,7883,7903,7922,7943,7963,7982,8002,8023,8042,8062,8082,8103,8122,8146,8162,8183,8202,8222,8242,8263,8282,8302,8322,8342,8361,8382,8403,8423,8442],"xSR":733.5,"ySR":464.1,"xT1":420.09999999999997,"yT1":0,"xT2":1046.8999999999999,"yT2":0,"toosoon":0,"cond_shown":"equaldotanddens","ratio_trial":750,"smaller_num":"3","larger_num":"4","correct_side":1,"subjID":"mariannalopez1","gender":"1","age":"9","school":"4"},{"start_time":1552309165515,"click_time":1552309167046,"finger_time":1552309166806,"fix_duration":926.1485678917267,"trial":12,"RT":1291,"MT":240,"sideResp":1,"stimulus":"img/500/equaldotanddens/L/10_Ratio_500_L_4_R_2.png","xmouse":[748,748,748,748,748,748,748,748,748,748,748,748,748,748,748,748,748,748,748,748,748,748,748,748,748,748,748,748,748,748,748,748,748,748,748,748,748,748,748,748,748,748,748,748,748,748,748,748,748,748,748,748,748,748,748,748,748,748,748,748,748,748,748,747,741,726,715,698,679,656,614,595,574,563,552,521,506],"ymouse":[520,520,520,520,520,520,520,520,520,520,520,520,520,520,520,520,520,520,520,520,520,520,520,520,520,520,520,520,520,520,520,520,520,520,520,520,520,520,520,520,520,520,520,520,520,520,520,520,520,520,520,520,520,520,520,520,520,520,520,520,519,511,498,483,462,412,385,351,319,282,210,182,150,133,118,94,81],"timestamp_mouse":[11,32,51,71,91,111,130,151,170,191,211,231,252,272,292,312,330,351,372,392,410,431,452,472,490,512,532,551,572,591,611,632,651,672,692,712,732,752,772,791,811,831,851,872,891,911,932,952,972,992,1012,1030,1050,1072,1092,1112,1132,1150,1172,1191,1211,1232,1251,1271,1291,1311,1331,1350,1371,1392,1410,1432,1451,1472,1491,1511,1530],"xSR":733.5,"ySR":464.1,"xT1":420.09999999999997,"yT1":0,"xT2":1046.8999999999999,"yT2":0,"toosoon":0,"cond_shown":"equaldotanddens","ratio_trial":500,"smaller_num":"2","larger_num":"4","correct_side":1,"subjID":"mariannalopez1","gender":"1","age":"9","school":"4"},{"start_time":1552309169858,"click_time":1552309171667,"finger_time":1552309171407,"fix_duration":569.3409180945392,"trial":13,"RT":1549,"MT":260,"sideResp":1,"stimulus":"img/900/randomdotsizeEA/R/13_Ratio_900_L_18_R_20.png","xmouse":[799,799,799,799,799,799,799,799,799,799,799,799,799,799,799,799,799,799,799,799,799,799,799,799,799,799,799,799,799,799,799,799,799,799,799,799,799,799,799,799,799,799,799,799,799,799,799,799,799,799,799,799,799,799,799,799,799,799,799,799,799,799,799,799,799,799,799,799,799,799,799,799,799,799,799,799,793,772,708,668,629,605,586,562,554,549,545,543,534,527,519],"ymouse":[535,535,535,535,535,535,535,535,535,535,535,535,535,535,535,535,535,535,535,535,535,535,535,535,535,535,535,535,535,535,535,535,535,535,535,535,535,535,535,535,535,535,535,535,535,535,535,535,535,535,535,535,535,535,535,535,535,535,535,535,535,535,535,535,535,535,535,535,535,535,535,535,535,535,536,532,491,440,331,280,237,203,181,153,142,136,131,127,111,100,89],"timestamp_mouse":[13,43,49,69,90,108,128,150,169,190,209,228,250,269,289,308,329,349,368,388,410,430,449,469,490,510,529,549,570,589,610,628,650,669,688,709,729,750,768,789,809,830,850,869,888,909,929,948,970,990,1009,1029,1048,1069,1088,1110,1128,1149,1168,1189,1210,1228,1248,1269,1290,1309,1328,1349,1369,1390,1410,1430,1449,1468,1489,1508,1530,1549,1569,1589,1608,1630,1649,1669,1690,1710,1730,1749,1770,1788,1809],"xSR":733.5,"ySR":464.1,"xT1":420.09999999999997,"yT1":0,"xT2":1046.8999999999999,"yT2":0,"toosoon":0,"cond_shown":"randomdotsizeEA","ratio_trial":900,"smaller_num":"18","larger_num":"20","correct_side":2,"subjID":"mariannalopez1","gender":"1","age":"9","school":"4"},{"start_time":1552309173991,"click_time":1552309175327,"finger_time":1552309174908,"fix_duration":1362.574937736655,"trial":14,"RT":917,"MT":419,"sideResp":1,"stimulus":"img/900/equaldotsize/L/10_Ratio_900_L_20_R_18.png","xmouse":[787,787,787,787,787,787,787,787,787,787,787,787,787,787,787,787,787,787,787,787,787,787,787,787,787,787,787,787,787,787,787,787,787,787,787,787,787,787,787,787,787,787,787,787,787,786,780,754,738,707,689,657,643,629,615,603,591,571,562,559,554,543,536,531,527,522,519],"ymouse":[529,529,529,529,529,529,529,529,529,529,529,529,529,529,529,529,529,529,529,529,529,529,529,529,529,529,529,529,529,529,529,529,529,529,529,529,529,529,529,529,528,516,509,498,482,458,430,357,321,275,253,215,200,183,169,158,148,128,116,110,104,90,86,81,79,77,76],"timestamp_mouse":[15,41,57,76,96,117,137,156,177,197,217,236,257,277,295,315,336,357,377,396,416,437,456,476,495,516,535,556,576,596,616,636,655,676,697,716,736,757,777,796,816,836,856,876,896,917,935,957,976,996,1016,1036,1055,1076,1095,1115,1135,1156,1176,1196,1215,1235,1255,1276,1296,1317,1335],"xSR":733.5,"ySR":464.1,"xT1":420.09999999999997,"yT1":0,"xT2":1046.8999999999999,"yT2":0,"toosoon":0,"cond_shown":"equaldotsize","ratio_trial":900,"smaller_num":"18","larger_num":"20","correct_side":1,"subjID":"mariannalopez1","gender":"1","age":"9","school":"4"},{"start_time":1552309176619,"click_time":1552309177647,"finger_time":1552309177426,"fix_duration":250,"trial":15,"RT":807,"MT":221,"sideResp":2,"stimulus":"img/900/equaldotanddens/R/11_Ratio_900_L_18_R_20.png","xmouse":[761,761,761,761,761,761,761,761,761,761,761,761,761,761,761,761,761,761,761,761,761,761,761,761,761,761,761,761,761,761,761,761,761,761,761,761,765,769,793,822,903,936,961,982,997,1026,1043,1056,1070,1076,1080,1080],"ymouse":[509,509,509,509,509,509,509,509,509,509,509,509,509,509,509,509,509,509,509,509,509,509,509,509,509,509,509,509,509,509,509,509,509,509,509,509,509,506,489,474,424,394,364,334,311,257,216,184,148,130,100,89],"timestamp_mouse":[14,37,47,68,88,109,128,149,168,188,208,229,247,269,288,307,327,349,368,389,407,428,448,469,488,507,527,549,568,588,607,628,649,667,687,709,728,748,767,787,807,827,847,869,888,908,928,949,967,988,1007,1028],"xSR":733.5,"ySR":464.1,"xT1":420.09999999999997,"yT1":0,"xT2":1046.8999999999999,"yT2":0,"toosoon":0,"cond_shown":"equaldotanddens","ratio_trial":900,"smaller_num":"18","larger_num":"20","correct_side":2,"subjID":"mariannalopez1","gender":"1","age":"9","school":"4"},{"start_time":1552309178837,"click_time":1552309180346,"finger_time":1552309179947,"fix_duration":250,"trial":16,"RT":1110,"MT":399,"sideResp":1,"stimulus":"img/500/equaldotanddens/L/5_Ratio_500_L_4_R_2.png","xmouse":[789,789,789,789,789,789,789,789,789,789,789,789,789,789,789,789,789,789,789,789,789,789,789,789,789,789,789,789,789,789,789,789,789,789,789,789,789,789,789,789,789,789,789,789,789,789,789,789,789,789,789,789,788,785,779,762,740,719,699,667,658,651,647,645,638,631,623,616,609,594,582,569,558,545,524,519],"ymouse":[506,506,506,506,506,506,506,506,506,506,506,506,506,506,506,506,506,506,506,506,506,506,506,506,506,506,506,506,506,506,506,506,506,506,506,506,506,506,506,506,506,506,506,506,506,506,506,506,506,506,506,504,500,493,481,443,398,357,324,281,268,255,245,234,203,182,156,142,130,105,91,76,64,51,37,33],"timestamp_mouse":[10,45,49,71,91,111,131,149,170,190,210,230,249,271,290,309,329,350,370,391,411,431,450,471,489,510,531,551,570,590,609,631,649,669,690,709,731,750,769,791,809,829,851,870,890,910,929,951,970,989,1010,1030,1050,1070,1089,1110,1129,1150,1170,1190,1209,1229,1249,1269,1290,1310,1329,1349,1370,1390,1410,1430,1450,1471,1490,1509],"xSR":733.5,"ySR":464.1,"xT1":420.09999999999997,"yT1":0,"xT2":1046.8999999999999,"yT2":0,"toosoon":0,"cond_shown":"equaldotanddens","ratio_trial":500,"smaller_num":"2","larger_num":"4","correct_side":1,"subjID":"mariannalopez1","gender":"1","age":"9","school":"4"},{"start_time":1552309182053,"click_time":1552309183047,"finger_time":1552309182846,"fix_duration":465.65247954090495,"trial":17,"RT":793,"MT":201,"sideResp":2,"stimulus":"img/500/equaldotsize/R/9_Ratio_500_L_2_R_4.png","xmouse":[798,798,798,797,796,796,795,795,795,794,793,793,793,792,792,792,791,791,791,791,791,791,791,791,791,791,791,791,791,791,791,791,791,791,791,791,792,797,821,845,884,921,949,994,1010,1020,1022,1026,1040,1048],"ymouse":[494,494,494,495,496,496,497,498,499,501,501,501,501,503,503,503,504,504,504,504,504,504,504,504,505,505,505,505,505,505,505,506,506,506,506,506,506,501,473,444,399,356,317,249,218,191,178,162,118,96],"timestamp_mouse":[14,34,55,74,94,114,135,154,173,193,214,235,254,274,293,313,333,353,374,394,413,433,455,475,494,514,535,554,574,595,614,633,654,674,693,715,733,754,773,793,814,834,854,874,893,914,935,955,974,994],"xSR":733.5,"ySR":464.1,"xT1":420.09999999999997,"yT1":0,"xT2":1046.8999999999999,"yT2":0,"toosoon":0,"cond_shown":"equaldotsize","ratio_trial":500,"smaller_num":"2","larger_num":"4","correct_side":2,"subjID":"mariannalopez1","gender":"1","age":"9","school":"4"},{"start_time":1552309184161,"click_time":1552309185207,"finger_time":1552309184947,"fix_duration":393.9714541577679,"trial":18,"RT":786,"MT":260,"sideResp":2,"stimulus":"img/750/equaldotanddens/R/12_Ratio_750_L_3_R_4.png","xmouse":[761,761,761,761,761,761,761,761,761,761,761,761,761,761,761,761,761,761,761,761,761,761,761,761,761,761,761,761,761,761,761,761,761,761,761,763,772,782,796,841,888,923,950,997,1005,1009,1013,1016,1027,1036,1042,1048,1053],"ymouse":[525,525,525,525,525,525,525,525,525,525,525,525,525,525,525,525,525,525,525,525,525,525,525,525,525,525,525,525,525,525,525,525,525,525,524,519,507,492,472,392,319,267,229,175,164,157,152,147,126,114,107,101,98],"timestamp_mouse":[7,25,47,66,86,106,126,146,166,187,205,225,246,265,285,305,326,346,366,386,407,426,447,466,485,506,527,546,565,585,606,627,645,666,686,706,726,746,765,786,806,826,846,866,886,905,925,945,966,986,1007,1026,1046],"xSR":733.5,"ySR":464.1,"xT1":420.09999999999997,"yT1":0,"xT2":1046.8999999999999,"yT2":0,"toosoon":0,"cond_shown":"equaldotanddens","ratio_trial":750,"smaller_num":"3","larger_num":"4","correct_side":2,"subjID":"mariannalopez1","gender":"1","age":"9","school":"4"},{"start_time":1552309186144,"click_time":1552309187167,"finger_time":1552309186747,"fix_duration":254.66355883052861,"trial":19,"RT":603,"MT":420,"sideResp":1,"stimulus":"img/750/equaldotsize/L/14_Ratio_750_L_8_R_6.png","xmouse":[766,766,766,766,766,766,766,766,766,766,765,765,765,765,765,766,766,766,766,766,766,766,766,766,766,766,766,765,760,744,734,726,711,699,687,663,653,645,638,633,620,609,600,590,562,546,531,519,510,503,498,496],"ymouse":[496,496,496,496,496,496,496,496,498,500,502,505,507,508,511,512,513,514,514,514,514,514,514,514,514,514,510,507,495,467,451,434,401,377,349,292,271,253,240,232,216,203,195,188,171,162,152,142,131,117,106,98],"timestamp_mouse":[6,22,43,63,82,104,122,143,164,182,202,222,243,262,282,302,322,342,364,382,403,424,444,463,482,504,524,543,562,582,603,623,644,663,682,703,722,742,762,782,802,823,843,863,883,903,924,943,964,983,1004,1022],"xSR":733.5,"ySR":464.1,"xT1":420.09999999999997,"yT1":0,"xT2":1046.8999999999999,"yT2":0,"toosoon":0,"cond_shown":"equaldotsize","ratio_trial":750,"smaller_num":"6","larger_num":"8","correct_side":1,"subjID":"mariannalopez1","gender":"1","age":"9","school":"4"},{"start_time":1552309189409,"click_time":1552309190468,"finger_time":1552309190207,"fix_duration":1420.620703254734,"trial":20,"RT":798,"MT":261,"sideResp":2,"stimulus":"img/500/randomdotsizeEA/R/12_Ratio_500_L_1_R_2.png","xmouse":[789,788,788,788,788,788,788,788,788,788,788,788,788,788,788,788,788,788,788,788,788,788,788,788,788,788,788,788,788,788,788,788,788,788,788,788,791,796,804,816,859,888,916,944,967,1027,1048,1059,1065,1066,1071,1076,1087],"ymouse":[516,519,520,521,521,521,522,522,522,522,522,522,522,522,522,522,522,522,522,522,522,522,522,522,522,522,522,522,522,522,522,522,522,522,522,522,515,499,482,463,408,373,339,300,269,184,154,136,123,119,109,102,87],"timestamp_mouse":[18,43,57,77,97,117,139,157,178,199,217,238,258,279,297,317,339,359,377,398,417,439,458,477,497,518,539,557,578,599,618,638,657,678,699,718,738,757,778,798,817,837,857,878,897,917,938,957,978,997,1017,1037,1059],"xSR":733.5,"ySR":464.1,"xT1":420.09999999999997,"yT1":0,"xT2":1046.8999999999999,"yT2":0,"toosoon":0,"cond_shown":"randomdotsizeEA","ratio_trial":500,"smaller_num":"1","larger_num":"2","correct_side":2,"subjID":"mariannalopez1","gender":"1","age":"9","school":"4"},{"start_time":1552309191948,"click_time":1552309193047,"finger_time":1552309192787,"fix_duration":719.1514920394277,"trial":21,"RT":839,"MT":260,"sideResp":2,"stimulus":"img/500/equaldotanddens/R/3_Ratio_500_L_10_R_20.png","xmouse":[769,769,769,769,769,769,769,769,769,769,769,770,770,770,770,770,770,770,770,770,770,770,770,770,770,770,770,770,770,770,770,770,770,770,770,770,770,770,773,775,806,814,857,888,929,943,955,967,984,997,1023,1031,1036,1039,1045,1048],"ymouse":[535,535,535,535,535,535,535,535,535,535,535,535,535,535,535,535,535,535,535,535,535,535,535,535,535,535,535,535,535,535,535,535,535,535,535,535,535,535,532,529,486,475,429,398,345,319,293,263,228,193,136,121,110,101,90,85],"timestamp_mouse":[1,18,43,59,79,100,118,139,159,179,199,219,240,258,279,300,319,339,358,378,398,418,439,459,480,499,518,539,558,579,600,619,640,658,679,699,719,738,758,778,800,819,839,858,879,898,918,938,959,979,998,1019,1039,1059,1079,1099],"xSR":733.5,"ySR":464.1,"xT1":420.09999999999997,"yT1":0,"xT2":1046.8999999999999,"yT2":0,"toosoon":0,"cond_shown":"equaldotanddens","ratio_trial":500,"smaller_num":"10","larger_num":"20","correct_side":2,"subjID":"mariannalopez1","gender":"1","age":"9","school":"4"},{"start_time":1552309194812,"click_time":1552309195866,"finger_time":1552309195486,"fix_duration":1024.5049861884208,"trial":22,"RT":674,"MT":380,"sideResp":2,"stimulus":"img/250/equaldotanddens/R/13_Ratio_250_L_2_R_8.png","xmouse":[772,773,773,774,774,775,775,776,776,776,778,778,778,778,778,778,778,778,778,778,778,778,778,778,778,778,778,778,778,779,792,807,828,849,874,943,996,1010,1034,1039,1052,1062,1076,1091,1102,1116,1119,1120,1120,1120,1120,1120,1120],"ymouse":[503,503,503,503,503,503,503,503,503,503,503,503,503,503,503,503,503,503,503,503,503,503,503,503,503,503,503,503,503,503,492,481,470,452,435,387,346,336,315,304,273,251,225,205,188,168,159,151,135,127,109,101,95],"timestamp_mouse":[14,48,54,75,96,114,135,155,175,196,215,235,255,274,296,315,336,354,376,395,416,435,456,475,495,515,536,555,576,595,615,634,655,674,694,715,735,756,775,795,815,834,855,875,894,914,935,956,976,995,1014,1034,1054],"xSR":733.5,"ySR":464.1,"xT1":420.09999999999997,"yT1":0,"xT2":1046.8999999999999,"yT2":0,"toosoon":0,"cond_shown":"equaldotanddens","ratio_trial":250,"smaller_num":"2","larger_num":"8","correct_side":2,"subjID":"mariannalopez1","gender":"1","age":"9","school":"4"},{"start_time":1552309199154,"click_time":1552309200326,"finger_time":1552309199947,"fix_duration":985.6199799966475,"trial":23,"RT":793,"MT":379,"sideResp":2,"stimulus":"img/900/equaldotanddens/R/3_Ratio_900_L_9_R_10.png","xmouse":[791,791,791,791,791,791,791,791,791,791,791,791,791,791,791,791,791,791,791,791,791,791,791,791,791,791,791,791,791,791,791,791,791,791,791,791,791,795,810,831,872,890,902,926,937,951,962,969,981,988,1000,1007,1013,1025,1032,1036,1040,1042,1047],"ymouse":[510,510,510,510,510,510,510,510,510,510,510,510,510,510,510,510,510,510,510,510,510,510,510,510,511,511,511,512,512,512,512,512,512,512,512,512,512,509,486,454,377,332,286,189,151,118,100,88,66,55,42,35,30,23,21,20,18,18,18],"timestamp_mouse":[13,43,52,74,93,114,133,154,173,192,213,233,254,272,293,313,333,353,373,393,413,434,454,473,493,513,534,553,573,594,612,633,652,673,694,713,732,753,772,793,813,833,852,872,893,913,933,952,972,992,1012,1032,1052,1072,1092,1113,1132,1153,1172],"xSR":733.5,"ySR":464.1,"xT1":420.09999999999997,"yT1":0,"xT2":1046.8999999999999,"yT2":0,"toosoon":0,"cond_shown":"equaldotanddens","ratio_trial":900,"smaller_num":"9","larger_num":"10","correct_side":2,"subjID":"mariannalopez1","gender":"1","age":"9","school":"4"},{"start_time":1552309202593,"click_time":1552309203927,"finger_time":1552309203587,"fix_duration":1365.8180523497144,"trial":24,"RT":994,"MT":340,"sideResp":1,"stimulus":"img/750/equaldotanddens/L/8_Ratio_750_L_4_R_3.png","xmouse":[789,789,789,789,789,789,789,789,789,789,789,789,789,789,789,789,789,789,789,789,789,789,789,789,789,789,789,789,789,789,789,789,789,789,789,789,789,789,789,789,789,789,789,789,789,788,786,784,777,768,755,699,665,637,622,611,596,594,594,594,593,584,578,572,563,550,512],"ymouse":[497,498,498,498,498,498,498,498,498,498,498,498,498,498,498,498,498,498,498,498,498,498,498,498,498,499,500,500,500,500,500,500,500,500,500,500,500,500,500,500,500,500,500,500,500,500,500,496,481,464,433,319,265,226,205,189,160,151,146,139,131,108,96,85,75,63,40],"timestamp_mouse":[13,49,53,75,94,113,133,155,173,195,215,233,255,275,294,315,335,354,375,394,414,434,454,474,493,515,533,555,574,595,615,634,655,674,694,714,734,755,774,794,813,834,855,875,895,914,933,954,973,994,1014,1033,1054,1074,1093,1115,1134,1155,1175,1194,1214,1234,1253,1273,1295,1314,1333],"xSR":733.5,"ySR":464.1,"xT1":420.09999999999997,"yT1":0,"xT2":1046.8999999999999,"yT2":0,"toosoon":0,"cond_shown":"equaldotanddens","ratio_trial":750,"smaller_num":"3","larger_num":"4","correct_side":1,"subjID":"mariannalopez1","gender":"1","age":"9","school":"4"},{"start_time":1552309206158,"click_time":1552309207367,"finger_time":1552309207026,"fix_duration":1110.104260283043,"trial":25,"RT":868,"MT":341,"sideResp":2,"stimulus":"img/900/equaldotsize/R/5_Ratio_900_L_9_R_10.png","xmouse":[772,772,772,772,772,772,772,772,772,772,772,772,772,772,772,772,772,772,772,772,772,772,772,772,772,772,772,772,772,772,772,772,772,772,772,772,772,773,774,775,776,779,788,817,839,864,891,919,947,956,965,987,1010,1049,1054,1054,1054,1054,1055,1060,1071],"ymouse":[513,513,513,513,513,513,513,513,513,513,513,513,513,513,513,513,513,513,513,513,513,513,513,513,513,513,513,513,513,513,513,513,513,513,513,512,510,508,508,507,505,501,492,456,427,397,367,331,287,268,246,210,179,128,118,116,113,112,111,100,81],"timestamp_mouse":[10,29,48,68,89,110,128,148,169,189,208,230,249,270,288,309,328,349,368,390,408,428,450,470,489,508,529,549,568,588,610,629,649,669,688,710,729,749,768,790,808,828,849,868,889,909,928,948,969,990,1010,1029,1049,1069,1089,1108,1128,1148,1168,1189,1208],"xSR":733.5,"ySR":464.1,"xT1":420.09999999999997,"yT1":0,"xT2":1046.8999999999999,"yT2":0,"toosoon":0,"cond_shown":"equaldotsize","ratio_trial":900,"smaller_num":"9","larger_num":"10","correct_side":2,"subjID":"mariannalopez1","gender":"1","age":"9","school":"4"},{"start_time":1552309209539,"click_time":1552309210407,"finger_time":1552309210246,"fix_duration":1331.498750943526,"trial":26,"RT":707,"MT":161,"sideResp":1,"stimulus":"img/500/equaldotanddens/L/8_Ratio_500_L_8_R_4.png","xmouse":[782,782,782,782,782,782,782,782,782,782,782,782,782,782,782,782,782,782,782,782,782,782,782,782,782,782,782,782,782,782,782,782,780,777,755,735,706,673,642,583,545,532,510,504],"ymouse":[516,516,516,516,516,516,516,516,516,516,516,516,516,516,516,516,516,516,516,516,516,516,516,516,516,516,516,516,516,516,516,516,512,505,471,446,416,386,354,263,189,166,114,95],"timestamp_mouse":[10,41,48,69,88,108,127,148,168,188,209,227,248,268,287,307,327,348,369,388,408,427,449,468,487,509,527,548,568,588,607,628,648,668,687,707,728,748,769,788,808,828,848,868],"xSR":733.5,"ySR":464.1,"xT1":420.09999999999997,"yT1":0,"xT2":1046.8999999999999,"yT2":0,"toosoon":0,"cond_shown":"equaldotanddens","ratio_trial":500,"smaller_num":"4","larger_num":"8","correct_side":1,"subjID":"mariannalopez1","gender":"1","age":"9","school":"4"},{"start_time":1552309211924,"click_time":1552309213187,"finger_time":1552309212846,"fix_duration":596.7421947801764,"trial":27,"RT":922,"MT":341,"sideResp":1,"stimulus":"img/900/equaldotanddens/L/8_Ratio_900_L_20_R_18.png","xmouse":[790,790,790,790,790,790,790,790,790,790,790,790,790,790,790,790,790,790,790,790,790,790,790,790,790,790,790,790,790,790,790,790,790,790,790,790,790,790,790,790,790,790,790,790,790,785,775,761,740,723,705,673,651,638,624,597,584,570,559,549,537,529,523,515],"ymouse":[523,523,523,523,523,523,523,523,523,523,523,523,523,523,523,523,523,523,523,523,523,523,523,523,523,523,523,523,523,523,523,523,523,523,523,522,522,521,521,521,521,521,520,519,516,486,453,406,353,313,272,187,139,115,97,61,48,37,29,23,20,20,20,22],"timestamp_mouse":[13,28,43,64,83,102,122,144,162,184,203,222,244,263,284,302,323,343,364,382,402,423,442,464,483,503,523,544,562,584,602,622,642,663,682,703,722,743,763,783,802,823,844,862,883,902,922,943,963,982,1002,1023,1042,1064,1083,1103,1122,1142,1163,1183,1203,1222,1242,1263],"xSR":733.5,"ySR":464.1,"xT1":420.09999999999997,"yT1":0,"xT2":1046.8999999999999,"yT2":0,"toosoon":0,"cond_shown":"equaldotanddens","ratio_trial":900,"smaller_num":"18","larger_num":"20","correct_side":1,"subjID":"mariannalopez1","gender":"1","age":"9","school":"4"},{"start_time":1552309214571,"click_time":1552309215946,"finger_time":1552309215566,"fix_duration":482.1461732618798,"trial":28,"RT":995,"MT":380,"sideResp":2,"stimulus":"img/900/randomdotsizeEA/R/12_Ratio_900_L_18_R_20.png","xmouse":[783,783,783,783,783,783,783,783,783,783,783,783,783,783,783,783,783,783,783,783,783,783,783,783,783,783,783,783,783,783,783,783,783,783,783,783,783,783,783,783,783,783,783,783,783,784,784,793,814,833,866,917,984,1092,1126,1144,1155,1165,1167,1168,1170,1171,1170,1169,1166,1162,1156,1147,1140],"ymouse":[515,515,515,515,515,515,515,515,515,515,515,515,515,515,515,515,515,515,515,515,515,515,515,515,515,515,515,515,515,515,515,515,515,515,515,515,515,515,515,515,515,515,515,515,515,514,513,502,479,457,417,355,288,200,175,158,142,114,99,90,78,67,56,54,53,51,50,47,46],"timestamp_mouse":[15,38,55,77,96,116,137,157,175,195,216,237,256,276,295,316,336,356,377,395,416,437,456,477,496,516,536,557,576,595,617,635,656,676,697,716,737,757,776,797,816,837,857,877,895,915,936,955,977,995,1017,1035,1055,1075,1096,1116,1136,1156,1175,1196,1216,1237,1256,1275,1295,1317,1336,1355,1375],"xSR":733.5,"ySR":464.1,"xT1":420.09999999999997,"yT1":0,"xT2":1046.8999999999999,"yT2":0,"toosoon":0,"cond_shown":"randomdotsizeEA","ratio_trial":900,"smaller_num":"18","larger_num":"20","correct_side":2,"subjID":"mariannalopez1","gender":"1","age":"9","school":"4"},{"start_time":1552309218370,"click_time":1552309219426,"finger_time":1552309219026,"fix_duration":1442.6021140393193,"trial":29,"RT":656,"MT":400,"sideResp":1,"stimulus":"img/250/equaldotanddens/L/15_Ratio_250_L_12_R_3.png","xmouse":[783,783,783,783,783,783,783,783,783,783,783,783,784,784,784,784,785,785,785,785,785,785,785,785,785,785,785,785,785,783,769,754,698,667,644,625,610,594,583,579,566,557,545,541,538,535,532,524,516,502,493,486,475],"ymouse":[512,512,512,512,512,512,512,512,512,512,512,512,513,513,513,513,513,513,513,513,513,513,513,513,513,513,513,513,513,510,493,475,398,358,329,308,293,270,252,245,223,207,179,169,161,153,150,143,135,119,112,106,96],"timestamp_mouse":[16,42,56,77,97,117,138,157,176,197,216,237,257,277,297,316,337,357,378,397,417,437,457,476,497,517,538,556,578,596,616,637,656,676,697,717,736,756,777,797,817,836,856,877,896,918,938,957,977,997,1017,1038,1056],"xSR":733.5,"ySR":464.1,"xT1":420.09999999999997,"yT1":0,"xT2":1046.8999999999999,"yT2":0,"toosoon":0,"cond_shown":"equaldotanddens","ratio_trial":250,"smaller_num":"3","larger_num":"12","correct_side":1,"subjID":"mariannalopez1","gender":"1","age":"9","school":"4"},{"start_time":1552309220910,"click_time":1552309221948,"finger_time":1552309221726,"fix_duration":401.16975459336754,"trial":30,"RT":816,"MT":222,"sideResp":1,"stimulus":"img/750/randomdotsizeEA/L/13_Ratio_750_L_8_R_6.png","xmouse":[776,775,775,773,773,773,772,772,772,772,772,772,772,772,772,772,772,772,772,772,772,772,772,772,772,772,772,772,772,772,772,772,772,772,772,772,771,767,763,754,731,708,697,650,619,571,555,538,526,515,495,480],"ymouse":[501,499,499,496,496,496,495,495,495,495,495,495,495,495,495,495,495,495,495,495,495,495,495,495,495,495,495,495,495,495,495,495,495,495,495,495,495,493,487,475,437,394,380,307,263,204,187,169,155,143,111,91],"timestamp_mouse":[28,52,57,78,97,117,138,157,177,197,217,236,257,278,298,316,336,357,377,397,416,437,456,476,497,517,538,556,578,597,618,637,656,676,697,717,736,757,776,797,816,836,857,877,897,916,936,957,976,998,1016,1037],"xSR":733.5,"ySR":464.1,"xT1":420.09999999999997,"yT1":0,"xT2":1046.8999999999999,"yT2":0,"toosoon":0,"cond_shown":"randomdotsizeEA","ratio_trial":750,"smaller_num":"6","larger_num":"8","correct_side":1,"subjID":"mariannalopez1","gender":"1","age":"9","school":"4"},{"start_time":1552309223887,"click_time":1552309225107,"finger_time":1552309224926,"fix_duration":1079.9281667367072,"trial":31,"RT":1039,"MT":181,"sideResp":2,"stimulus":"img/500/randomdotsizeEA/R/2_Ratio_500_L_3_R_6.png","xmouse":[786,786,786,786,786,786,786,786,786,786,786,786,786,786,786,786,786,786,786,786,786,786,786,786,786,786,786,786,786,786,786,786,786,786,786,786,786,786,786,785,785,784,784,784,784,784,784,784,784,785,788,798,837,872,942,981,1004,1037,1045,1051,1055,1059],"ymouse":[503,503,503,503,503,503,503,503,503,503,503,503,503,503,503,503,503,503,503,503,503,503,503,503,503,503,503,503,503,503,503,503,503,503,503,503,503,503,503,504,504,504,504,504,504,504,504,504,504,501,499,490,460,427,362,300,244,162,140,120,105,95],"timestamp_mouse":[1,19,42,60,80,100,119,141,161,179,201,221,241,260,281,299,321,340,360,381,400,419,440,461,481,500,520,539,560,581,599,621,639,659,681,700,720,739,759,780,799,821,840,860,880,900,920,940,960,980,1000,1020,1039,1059,1079,1099,1119,1141,1160,1179,1200,1220],"xSR":733.5,"ySR":464.1,"xT1":420.09999999999997,"yT1":0,"xT2":1046.8999999999999,"yT2":0,"toosoon":0,"cond_shown":"randomdotsizeEA","ratio_trial":500,"smaller_num":"3","larger_num":"6","correct_side":2,"subjID":"mariannalopez1","gender":"1","age":"9","school":"4"},{"start_time":1552309226278,"click_time":1552309228026,"finger_time":1552309227726,"fix_duration":250,"trial":32,"RT":1448,"MT":300,"sideResp":2,"stimulus":"img/250/randomdotsizeEA/R/8_Ratio_250_L_1_R_4.png","xmouse":[784,784,784,784,784,784,784,784,784,784,784,784,784,784,784,784,784,784,784,784,784,784,784,784,784,784,784,784,784,784,784,784,784,784,784,784,784,784,784,784,784,784,784,784,784,784,784,784,784,784,784,784,784,784,784,784,784,784,784,784,784,784,784,784,784,784,784,784,784,784,786,793,833,888,926,955,971,992,1002,1013,1025,1035,1043,1044,1045,1046,1047,1059],"ymouse":[506,506,506,506,506,506,506,506,506,506,506,506,506,506,506,506,506,506,506,506,506,506,506,506,506,506,506,506,506,506,506,506,506,506,506,506,506,506,507,507,507,507,507,507,507,507,507,507,507,507,507,507,507,507,507,507,507,507,507,507,507,507,507,507,507,507,507,507,507,508,506,496,450,386,345,313,288,245,220,189,165,142,120,118,115,113,112,98],"timestamp_mouse":[20,29,49,69,88,109,130,149,169,188,208,230,249,270,290,310,329,349,368,389,408,430,449,470,490,509,530,550,568,588,610,629,650,668,688,709,728,749,770,790,809,829,849,868,890,909,930,948,969,990,1010,1029,1049,1069,1088,1110,1129,1148,1170,1189,1210,1229,1249,1268,1289,1308,1329,1348,1369,1389,1409,1428,1448,1468,1488,1509,1528,1548,1568,1588,1608,1629,1649,1667,1688,1708,1728,1748],"xSR":733.5,"ySR":464.1,"xT1":420.09999999999997,"yT1":0,"xT2":1046.8999999999999,"yT2":0,"toosoon":0,"cond_shown":"randomdotsizeEA","ratio_trial":250,"smaller_num":"1","larger_num":"4","correct_side":2,"subjID":"mariannalopez1","gender":"1","age":"9","school":"4"},{"start_time":1552309229897,"click_time":1552309230906,"finger_time":1552309230686,"fix_duration":1108.0986977687523,"trial":33,"RT":789,"MT":220,"sideResp":1,"stimulus":"img/900/equaldotanddens/R/7_Ratio_900_L_9_R_10.png","xmouse":[767,767,767,767,767,767,767,767,767,767,767,767,767,767,767,767,767,767,767,767,767,767,767,767,767,767,767,767,767,767,767,767,768,768,768,768,768,765,758,752,746,727,713,687,666,646,599,576,551,528,508],"ymouse":[509,509,509,509,509,509,509,509,509,509,509,509,509,509,509,509,509,509,509,509,509,509,509,509,509,509,509,509,509,509,509,509,509,509,509,509,509,496,471,443,404,316,277,225,188,162,126,113,103,94,86],"timestamp_mouse":[10,29,49,70,90,110,130,149,169,190,210,230,249,270,288,309,329,349,370,389,410,429,450,470,490,509,530,550,569,589,609,629,649,670,689,709,729,748,769,789,810,829,850,869,889,909,929,949,969,989,1009],"xSR":733.5,"ySR":464.1,"xT1":420.09999999999997,"yT1":0,"xT2":1046.8999999999999,"yT2":0,"toosoon":0,"cond_shown":"equaldotanddens","ratio_trial":900,"smaller_num":"9","larger_num":"10","correct_side":2,"subjID":"mariannalopez1","gender":"1","age":"9","school":"4"},{"start_time":1552309231879,"click_time":1552309232946,"finger_time":1552309232707,"fix_duration":250,"trial":34,"RT":828,"MT":239,"sideResp":2,"stimulus":"img/250/equaldotanddens/R/12_Ratio_250_L_5_R_20.png","xmouse":[768,770,772,776,777,777,778,779,779,779,779,779,779,779,779,779,779,779,779,779,779,779,779,779,780,780,780,780,780,780,780,780,780,780,780,780,780,781,784,793,805,829,906,954,967,1002,1011,1023,1039,1046,1053,1059,1071,1078],"ymouse":[539,537,531,513,510,506,503,500,499,499,499,499,499,499,499,499,499,499,499,499,499,499,499,499,498,498,498,498,498,498,498,498,498,498,498,498,498,498,498,491,478,453,350,282,263,211,187,167,142,131,122,114,102,96],"timestamp_mouse":[7,27,48,67,86,107,128,147,167,188,207,228,248,268,287,307,328,347,367,388,406,428,446,467,488,507,527,547,568,586,608,628,647,667,687,706,728,747,767,788,807,828,847,867,887,908,927,947,967,987,1007,1027,1048,1067],"xSR":733.5,"ySR":464.1,"xT1":420.09999999999997,"yT1":0,"xT2":1046.8999999999999,"yT2":0,"toosoon":0,"cond_shown":"equaldotanddens","ratio_trial":250,"smaller_num":"5","larger_num":"20","correct_side":2,"subjID":"mariannalopez1","gender":"1","age":"9","school":"4"},{"start_time":1552309235854,"click_time":1552309236766,"finger_time":1552309236587,"fix_duration":665.6510755282644,"trial":35,"RT":733,"MT":179,"sideResp":1,"stimulus":"img/250/randomdotsizeEA/L/7_Ratio_250_L_8_R_2.png","xmouse":[789,789,788,788,788,788,788,788,788,788,788,788,788,788,788,788,788,788,788,788,788,788,788,788,788,788,788,788,788,788,788,788,788,787,775,768,729,696,641,615,591,571,548,509,495,484],"ymouse":[525,522,520,520,520,520,520,520,520,519,516,514,513,513,513,513,513,513,513,513,513,513,513,513,513,513,513,513,513,513,513,513,513,512,493,480,409,351,248,211,180,159,142,114,106,96],"timestamp_mouse":[13,31,53,72,93,113,133,153,171,192,212,233,253,273,293,312,332,353,372,393,413,432,453,473,492,513,533,553,573,593,611,632,653,672,692,712,733,752,772,792,812,832,852,872,892,912],"xSR":733.5,"ySR":464.1,"xT1":420.09999999999997,"yT1":0,"xT2":1046.8999999999999,"yT2":0,"toosoon":0,"cond_shown":"randomdotsizeEA","ratio_trial":250,"smaller_num":"2","larger_num":"8","correct_side":1,"subjID":"mariannalopez1","gender":"1","age":"9","school":"4"},{"start_time":1552309238077,"click_time":1552309239106,"finger_time":1552309238966,"fix_duration":250,"trial":36,"RT":889,"MT":140,"sideResp":1,"stimulus":"img/900/randomdotsizeEA/L/1_Ratio_900_L_10_R_9.png","xmouse":[785,785,785,785,785,785,785,785,785,785,785,785,785,785,785,785,785,785,785,785,785,784,784,783,783,782,782,782,782,782,782,782,782,782,781,781,779,777,777,776,773,772,767,763,754,740,714,640,598,555,526,502],"ymouse":[511,511,511,511,511,511,511,511,511,511,511,511,511,511,511,511,511,511,511,510,510,510,510,510,510,510,510,510,510,510,510,510,509,509,509,508,507,505,504,502,499,497,490,481,457,428,361,226,168,122,98,78],"timestamp_mouse":[10,29,49,70,89,109,129,149,170,190,209,230,248,270,290,309,329,350,369,389,409,430,449,468,490,510,530,549,570,590,610,630,649,669,689,710,729,749,769,790,809,829,849,870,889,909,930,949,969,989,1008,1029],"xSR":733.5,"ySR":464.1,"xT1":420.09999999999997,"yT1":0,"xT2":1046.8999999999999,"yT2":0,"toosoon":0,"cond_shown":"randomdotsizeEA","ratio_trial":900,"smaller_num":"9","larger_num":"10","correct_side":1,"subjID":"mariannalopez1","gender":"1","age":"9","school":"4"},{"start_time":1552309241201,"click_time":1552309242267,"finger_time":1552309242106,"fix_duration":1051.5861305649364,"trial":37,"RT":905,"MT":161,"sideResp":2,"stimulus":"img/900/equaldotsize/R/13_Ratio_900_L_18_R_20.png","xmouse":[761,761,761,761,761,761,761,761,761,761,761,761,761,761,761,761,761,761,761,761,761,761,761,761,761,761,761,761,761,761,761,761,761,761,761,761,761,761,761,761,761,761,765,775,786,798,857,880,967,1022,1055,1085,1094,1101],"ymouse":[492,492,492,492,492,492,492,492,492,492,492,492,492,492,492,492,492,492,492,492,492,492,492,492,492,492,492,492,492,492,492,492,492,492,492,492,492,492,492,492,492,492,492,480,465,448,362,329,244,193,161,121,106,93],"timestamp_mouse":[13,41,45,66,85,105,126,146,165,186,206,224,246,266,284,305,325,346,365,385,405,426,446,466,485,506,525,546,566,586,605,626,646,665,685,706,726,745,765,785,806,825,844,866,885,905,926,946,966,985,1005,1025,1045,1066],"xSR":733.5,"ySR":464.1,"xT1":420.09999999999997,"yT1":0,"xT2":1046.8999999999999,"yT2":0,"toosoon":0,"cond_shown":"equaldotsize","ratio_trial":900,"smaller_num":"18","larger_num":"20","correct_side":2,"subjID":"mariannalopez1","gender":"1","age":"9","school":"4"},{"start_time":1552309244237,"click_time":1552309245287,"finger_time":1552309245007,"fix_duration":1087.6157581219625,"trial":38,"RT":770,"MT":280,"sideResp":1,"stimulus":"img/750/equaldotsize/L/9_Ratio_750_L_4_R_3.png","xmouse":[784,784,784,784,784,784,784,784,784,784,784,784,784,784,784,784,784,784,784,784,784,784,784,784,784,784,784,784,784,784,784,784,784,784,784,782,770,757,736,668,631,598,567,544,526,512,508,507,506,506,506,506,506],"ymouse":[502,502,502,502,502,502,502,502,502,502,502,502,502,502,502,502,502,502,502,502,502,504,505,506,507,508,508,508,508,508,508,508,508,508,509,506,484,465,437,353,307,276,244,217,194,162,150,143,137,119,109,103,97],"timestamp_mouse":[13,36,49,69,89,109,129,149,170,189,209,230,249,270,289,309,330,350,370,390,409,429,450,468,490,509,529,549,569,589,609,629,649,670,689,709,730,749,770,788,809,830,849,869,889,910,929,949,969,990,1008,1030,1050],"xSR":733.5,"ySR":464.1,"xT1":420.09999999999997,"yT1":0,"xT2":1046.8999999999999,"yT2":0,"toosoon":0,"cond_shown":"equaldotsize","ratio_trial":750,"smaller_num":"3","larger_num":"4","correct_side":1,"subjID":"mariannalopez1","gender":"1","age":"9","school":"4"},{"start_time":1552309246713,"click_time":1552309248386,"finger_time":1552309248126,"fix_duration":505.86325444780056,"trial":39,"RT":1413,"MT":260,"sideResp":1,"stimulus":"img/750/randomdotsizeEA/L/14_Ratio_750_L_8_R_6.png","xmouse":[770,770,770,770,770,770,770,770,770,770,770,770,770,770,770,770,770,770,770,770,770,770,770,770,770,770,770,770,770,770,770,770,770,770,770,770,770,770,770,770,770,770,770,770,770,770,770,770,770,771,781,784,795,802,806,810,811,811,812,812,816,817,818,820,822,825,827,829,830,832,834,835,835,831,818,769,735,700,661,617,549,534,523,509],"ymouse":[521,521,521,521,521,521,521,521,521,521,521,521,521,521,521,521,521,521,521,521,521,521,521,521,521,521,521,521,521,521,521,521,521,521,521,521,521,521,521,521,521,521,521,521,521,521,521,521,520,519,516,515,509,506,502,499,498,498,498,497,494,493,492,490,487,483,479,477,474,470,456,429,404,380,353,280,235,190,145,102,48,37,28,20],"timestamp_mouse":[14,42,53,74,93,113,133,154,173,193,213,233,253,274,293,313,333,354,373,393,413,433,454,474,494,514,534,554,574,594,612,634,653,673,694,713,733,754,774,794,814,833,854,872,894,914,933,953,973,994,1013,1033,1053,1073,1093,1113,1133,1153,1174,1193,1214,1234,1253,1273,1292,1313,1333,1353,1374,1394,1413,1433,1453,1473,1494,1513,1533,1552,1573,1593,1613,1634,1654,1673],"xSR":733.5,"ySR":464.1,"xT1":420.09999999999997,"yT1":0,"xT2":1046.8999999999999,"yT2":0,"toosoon":0,"cond_shown":"randomdotsizeEA","ratio_trial":750,"smaller_num":"6","larger_num":"8","correct_side":1,"subjID":"mariannalopez1","gender":"1","age":"9","school":"4"},{"start_time":1552309250053,"click_time":1552309251347,"finger_time":1552309251126,"fix_duration":703.6415207198081,"trial":40,"RT":1073,"MT":221,"sideResp":2,"stimulus":"img/900/randomdotsizeEA/R/13_Ratio_900_L_18_R_20.png","xmouse":[767,767,767,767,767,767,767,767,767,767,768,768,768,768,768,768,768,768,768,769,769,769,769,769,769,769,769,769,769,769,769,769,769,769,769,769,769,769,769,769,769,769,769,769,769,769,769,769,769,769,769,776,782,826,852,878,928,957,1008,1020,1031,1038,1042,1047,1053],"ymouse":[513,513,513,513,513,513,513,513,513,513,513,513,513,513,513,513,513,513,513,513,513,513,513,513,514,514,514,514,514,514,514,514,514,514,514,514,514,514,514,514,514,514,514,514,514,514,514,514,514,514,514,509,503,450,420,378,306,267,193,168,148,134,123,107,96],"timestamp_mouse":[13,38,54,73,94,114,134,152,173,193,213,233,253,273,294,314,333,353,374,393,413,433,453,472,493,513,533,553,573,593,614,634,653,673,694,713,734,753,773,794,814,834,854,873,892,914,933,954,974,993,1013,1032,1054,1073,1093,1113,1134,1153,1173,1193,1213,1233,1254,1273,1294],"xSR":733.5,"ySR":464.1,"xT1":420.09999999999997,"yT1":0,"xT2":1046.8999999999999,"yT2":0,"toosoon":0,"cond_shown":"randomdotsizeEA","ratio_trial":900,"smaller_num":"18","larger_num":"20","correct_side":2,"subjID":"mariannalopez1","gender":"1","age":"9","school":"4"},{"start_time":1552309252534,"click_time":1552309253326,"finger_time":1552309253226,"fix_duration":566.7774632872116,"trial":41,"RT":692,"MT":100,"sideResp":1,"stimulus":"img/900/equaldotanddens/L/8_Ratio_900_L_20_R_18.png","xmouse":[790,790,790,790,790,790,790,790,790,790,790,790,790,790,790,790,790,790,790,790,790,790,790,790,790,790,790,790,790,790,790,790,789,786,751,714,669,616,561,452],"ymouse":[517,517,517,517,517,517,517,517,517,517,517,517,517,517,517,517,517,517,517,517,517,517,517,517,517,517,517,517,517,517,517,517,517,512,462,403,337,261,189,87],"timestamp_mouse":[13,39,52,72,93,111,133,153,172,192,212,233,252,272,293,312,331,352,373,392,411,432,452,471,493,513,533,552,572,592,613,633,653,673,692,712,732,752,773,792],"xSR":733.5,"ySR":464.1,"xT1":420.09999999999997,"yT1":0,"xT2":1046.8999999999999,"yT2":0,"toosoon":0,"cond_shown":"equaldotanddens","ratio_trial":900,"smaller_num":"18","larger_num":"20","correct_side":1,"subjID":"mariannalopez1","gender":"1","age":"9","school":"4"},{"start_time":1552309254788,"click_time":1552309256247,"finger_time":1552309255826,"fix_duration":420.7640956529834,"trial":42,"RT":1038,"MT":421,"sideResp":2,"stimulus":"img/750/randomdotsizeEA/R/4_Ratio_750_L_15_R_20.png","xmouse":[751,751,751,751,751,751,751,751,751,751,751,751,751,751,751,751,751,751,751,751,751,751,751,751,751,751,751,751,751,751,751,751,751,751,751,751,751,751,751,751,751,751,751,751,751,751,751,756,760,773,785,814,840,874,912,940,981,993,1001,1007,1014,1025,1028,1032,1037,1040,1049,1051,1057,1060,1063,1066,1069],"ymouse":[503,503,503,503,503,503,503,503,503,503,503,503,503,503,503,503,503,503,503,503,503,503,503,503,503,503,503,503,503,503,503,503,503,503,503,503,503,503,503,503,503,503,503,503,503,503,503,498,495,488,481,460,439,401,365,337,292,269,254,238,225,204,196,183,176,173,161,158,146,139,130,110,96],"timestamp_mouse":[18,42,59,77,99,119,137,158,178,197,219,238,258,279,299,318,338,359,379,398,418,438,459,478,498,519,538,559,579,597,619,638,658,679,697,719,738,758,778,798,818,839,859,878,899,919,938,958,978,998,1017,1038,1057,1078,1098,1118,1139,1157,1179,1198,1219,1239,1258,1278,1298,1318,1338,1359,1378,1399,1418,1438,1459],"xSR":733.5,"ySR":464.1,"xT1":420.09999999999997,"yT1":0,"xT2":1046.8999999999999,"yT2":0,"toosoon":0,"cond_shown":"randomdotsizeEA","ratio_trial":750,"smaller_num":"15","larger_num":"20","correct_side":2,"subjID":"mariannalopez1","gender":"1","age":"9","school":"4"},{"start_time":1552309258858,"click_time":1552309260846,"finger_time":1552309260166,"fix_duration":370.21409802755056,"trial":43,"RT":1308,"MT":680,"sideResp":2,"stimulus":"img/250/randomdotsizeEA/R/10_Ratio_250_L_4_R_16.png","xmouse":[797,797,797,797,797,797,797,797,797,797,797,797,797,797,797,797,797,797,797,797,797,797,797,797,797,797,797,797,797,797,797,797,797,797,797,797,797,797,797,797,797,797,797,797,797,797,797,797,797,797,797,797,797,797,797,797,797,797,797,797,797,797,797,797,810,839,899,985,1185,1266,1328,1386,1421,1449,1452,1452,1452,1446,1420,1403,1384,1364,1342,1296,1269,1255,1241,1226,1202,1194,1189,1182,1177,1175,1172,1163,1159,1155,1147,1144],"ymouse":[538,538,538,538,538,538,538,538,538,538,538,538,538,538,538,538,538,538,538,538,538,538,538,538,538,538,538,538,538,538,538,538,538,538,538,538,538,538,538,538,538,538,538,538,538,538,538,538,538,538,538,538,538,538,538,538,538,538,538,538,538,538,538,538,537,529,510,474,361,305,252,196,154,110,101,101,97,90,78,77,77,81,88,106,112,113,113,113,113,112,111,109,109,108,106,98,93,88,83,81],"timestamp_mouse":[9,38,49,69,88,109,129,148,168,189,209,229,249,269,289,309,328,348,370,388,409,427,448,469,489,509,528,549,568,587,609,628,648,669,689,708,728,748,768,788,808,828,847,868,888,908,929,949,968,988,1008,1028,1048,1068,1089,1109,1129,1149,1168,1189,1208,1229,1248,1269,1288,1308,1329,1348,1367,1388,1408,1428,1448,1468,1488,1508,1528,1549,1568,1588,1607,1628,1649,1668,1689,1708,1729,1747,1768,1788,1809,1829,1848,1868,1887,1907,1927,1947,1968,1988],"xSR":733.5,"ySR":464.1,"xT1":420.09999999999997,"yT1":0,"xT2":1046.8999999999999,"yT2":0,"toosoon":0,"cond_shown":"randomdotsizeEA","ratio_trial":250,"smaller_num":"4","larger_num":"16","correct_side":2,"subjID":"mariannalopez1","gender":"1","age":"9","school":"4"},{"start_time":1552309262818,"click_time":1552309263886,"finger_time":1552309263446,"fix_duration":1029.7759722424187,"trial":44,"RT":628,"MT":440,"sideResp":1,"stimulus":"img/750/equaldotsize/L/1_Ratio_750_L_20_R_15.png","xmouse":[784,784,784,784,784,784,784,784,784,784,784,784,784,784,784,784,784,784,784,784,784,784,784,784,784,784,784,784,783,781,751,719,672,617,571,517,500,493,491,491,497,499,501,502,502,499,494,492,483,475,452,447,446,446],"ymouse":[515,515,515,515,515,515,515,515,515,515,515,515,515,515,515,515,515,515,515,515,515,515,515,515,515,515,515,515,514,512,479,448,416,376,337,275,252,241,235,227,205,196,191,185,180,167,156,151,136,126,106,102,101,99],"timestamp_mouse":[9,42,48,69,89,108,129,149,169,189,209,227,249,269,287,308,328,348,369,388,409,428,449,469,487,507,529,548,568,588,608,628,648,669,688,708,729,748,768,789,808,828,848,867,888,908,928,949,968,988,1008,1028,1048,1068],"xSR":733.5,"ySR":464.1,"xT1":420.09999999999997,"yT1":0,"xT2":1046.8999999999999,"yT2":0,"toosoon":0,"cond_shown":"equaldotsize","ratio_trial":750,"smaller_num":"15","larger_num":"20","correct_side":1,"subjID":"mariannalopez1","gender":"1","age":"9","school":"4"},{"start_time":1552309265313,"click_time":1552309266586,"finger_time":1552309266146,"fix_duration":625.4593093314211,"trial":45,"RT":833,"MT":440,"sideResp":2,"stimulus":"img/900/randomdotsizeEA/R/11_Ratio_900_L_18_R_20.png","xmouse":[776,776,776,776,776,776,776,776,776,776,776,776,776,776,776,776,776,776,776,776,776,776,776,776,776,776,774,774,773,772,771,771,771,771,771,771,771,770,771,779,810,848,892,938,985,1071,1100,1119,1129,1132,1134,1134,1135,1135,1135,1132,1124,1117,1112,1102,1092,1089,1087,1087],"ymouse":[508,508,508,508,508,508,508,508,508,508,508,508,508,508,508,508,508,508,508,508,508,508,508,508,508,508,508,508,508,508,508,508,508,508,508,508,508,506,502,492,468,440,410,382,348,294,270,253,237,229,224,213,197,187,179,164,153,145,139,134,114,109,103,99],"timestamp_mouse":[13,43,54,74,93,112,134,154,174,194,214,233,254,273,293,313,333,353,373,393,414,434,452,474,494,514,534,553,573,594,613,634,653,674,694,713,733,753,773,793,813,833,853,873,893,913,933,954,973,994,1013,1033,1053,1073,1093,1113,1133,1153,1173,1194,1213,1234,1253,1273],"xSR":733.5,"ySR":464.1,"xT1":420.09999999999997,"yT1":0,"xT2":1046.8999999999999,"yT2":0,"toosoon":0,"cond_shown":"randomdotsizeEA","ratio_trial":900,"smaller_num":"18","larger_num":"20","correct_side":2,"subjID":"mariannalopez1","gender":"1","age":"9","school":"4"},{"start_time":1552309268389,"click_time":1552309269787,"finger_time":1552309269347,"fix_duration":861.5640406798501,"trial":46,"RT":958,"MT":440,"sideResp":2,"stimulus":"img/900/equaldotanddens/R/13_Ratio_900_L_18_R_20.png","xmouse":[770,770,770,770,770,770,770,770,770,770,770,770,770,770,770,770,770,770,770,770,770,770,770,770,770,770,770,770,770,770,770,770,770,770,770,769,765,764,764,764,764,764,764,765,770,775,785,796,803,812,826,873,897,910,918,922,936,951,963,973,979,986,988,989,991,994,1014,1020,1037,1049],"ymouse":[500,500,500,500,500,500,500,500,500,500,500,500,500,500,500,500,500,500,500,500,500,500,500,500,500,500,500,500,500,500,500,500,500,500,500,497,493,492,492,492,492,492,492,491,489,486,477,459,443,421,387,284,244,221,204,190,155,125,105,92,87,82,81,81,79,79,72,71,64,59],"timestamp_mouse":[17,39,57,77,97,117,137,157,178,198,217,237,258,278,297,318,337,358,378,397,418,437,457,477,497,517,537,557,576,598,617,637,658,678,697,717,737,758,777,797,817,838,857,877,898,917,937,958,977,997,1016,1038,1057,1077,1098,1118,1137,1157,1177,1198,1217,1237,1258,1278,1297,1318,1337,1358,1377,1398],"xSR":733.5,"ySR":464.1,"xT1":420.09999999999997,"yT1":0,"xT2":1046.8999999999999,"yT2":0,"toosoon":0,"cond_shown":"equaldotanddens","ratio_trial":900,"smaller_num":"18","larger_num":"20","correct_side":2,"subjID":"mariannalopez1","gender":"1","age":"9","school":"4"},{"start_time":1552309271413,"click_time":1552309272106,"finger_time":1552309271966,"fix_duration":706.5449066919025,"trial":47,"RT":553,"MT":140,"sideResp":2,"stimulus":"img/250/equaldotsize/R/6_Ratio_250_L_6_R_24.png","xmouse":[779,779,779,779,779,779,779,779,779,779,779,779,779,779,779,779,779,779,779,779,779,779,780,780,781,787,802,818,838,871,958,999,1030,1059,1080],"ymouse":[510,510,510,510,510,510,510,510,510,510,510,510,510,510,510,510,510,510,510,510,510,510,510,510,510,503,483,458,422,358,240,194,157,118,81],"timestamp_mouse":[14,33,54,73,94,113,133,153,174,192,214,233,254,273,294,313,334,354,374,394,414,433,454,474,494,513,534,553,574,594,614,633,652,673,693],"xSR":733.5,"ySR":464.1,"xT1":420.09999999999997,"yT1":0,"xT2":1046.8999999999999,"yT2":0,"toosoon":0,"cond_shown":"equaldotsize","ratio_trial":250,"smaller_num":"6","larger_num":"24","correct_side":2,"subjID":"mariannalopez1","gender":"1","age":"9","school":"4"},{"start_time":1552309274089,"click_time":1552309275067,"finger_time":1552309274746,"fix_duration":841.0962923027088,"trial":48,"RT":657,"MT":321,"sideResp":1,"stimulus":"img/900/equaldotsize/L/4_Ratio_900_L_20_R_18.png","xmouse":[766,766,766,766,766,766,766,766,766,766,766,766,766,766,766,766,766,766,766,766,766,766,766,766,766,766,766,766,766,766,766,759,736,707,663,610,512,480,461,450,442,438,438,438,438,442,449,452,455],"ymouse":[502,502,502,502,502,502,502,502,502,502,502,502,502,502,502,502,502,502,502,502,502,502,502,502,502,502,502,502,502,502,502,492,456,415,369,324,236,210,193,181,170,160,159,157,146,134,111,106,99],"timestamp_mouse":[17,49,57,77,97,117,137,157,177,197,217,238,257,276,298,318,337,358,377,398,416,437,457,478,498,518,537,558,577,597,617,637,657,677,697,718,737,757,777,797,817,837,857,878,898,917,937,957,978],"xSR":733.5,"ySR":464.1,"xT1":420.09999999999997,"yT1":0,"xT2":1046.8999999999999,"yT2":0,"toosoon":0,"cond_shown":"equaldotsize","ratio_trial":900,"smaller_num":"18","larger_num":"20","correct_side":1,"subjID":"mariannalopez1","gender":"1","age":"9","school":"4"},{"start_time":1552309277006,"click_time":1552309278108,"finger_time":1552309277746,"fix_duration":759.1490977828727,"trial":49,"RT":740,"MT":362,"sideResp":2,"stimulus":"img/900/randomdotsizeEA/L/8_Ratio_900_L_20_R_18.png","xmouse":[754,753,753,753,753,753,753,753,753,753,753,753,753,753,753,753,753,753,753,753,753,753,753,753,753,753,752,752,752,751,750,750,749,748,746,746,748,780,799,824,856,883,916,918,918,918,918,918,918,918,918,918,918,918,918,1060],"ymouse":[498,498,498,498,498,498,498,498,498,498,498,498,498,498,498,498,498,498,498,498,498,498,498,498,498,498,498,498,498,498,497,497,496,494,487,479,468,425,403,371,327,277,137,80,41,12,12,12,12,12,12,12,12,12,12,24],"timestamp_mouse":[10,20,45,61,80,100,120,139,161,180,200,220,240,260,280,300,320,341,360,381,399,420,441,461,479,500,520,541,561,581,600,621,640,659,679,700,720,740,760,781,800,820,840,860,880,899,920,940,960,980,1000,1020,1041,1060,1081,1101],"xSR":733.5,"ySR":464.1,"xT1":420.09999999999997,"yT1":0,"xT2":1046.8999999999999,"yT2":0,"toosoon":0,"cond_shown":"randomdotsizeEA","ratio_trial":900,"smaller_num":"18","larger_num":"20","correct_side":1,"subjID":"mariannalopez1","gender":"1","age":"9","school":"4"},{"start_time":1552309280832,"click_time":1552309281866,"finger_time":1552309281526,"fix_duration":1003.9614997769094,"trial":50,"RT":694,"MT":340,"sideResp":1,"stimulus":"img/900/equaldotsize/R/11_Ratio_900_L_18_R_20.png","xmouse":[780,780,780,780,780,780,780,780,780,780,780,780,780,780,780,780,780,780,780,780,780,780,780,780,780,780,780,780,780,780,780,780,780,777,741,697,685,661,645,607,586,573,564,556,542,540,537,536,534,529,524,517],"ymouse":[503,503,503,503,503,503,503,503,503,503,503,503,503,503,503,503,503,503,503,503,503,503,503,503,503,503,503,503,503,503,503,503,503,499,435,346,318,275,254,212,193,182,174,165,150,145,137,133,129,118,111,99],"timestamp_mouse":[14,34,54,75,94,115,135,153,175,194,214,234,255,275,295,315,334,355,375,395,415,434,454,475,495,515,534,555,575,594,615,634,654,675,694,715,735,754,774,794,814,835,854,875,894,915,935,955,975,994,1014,1034],"xSR":733.5,"ySR":464.1,"xT1":420.09999999999997,"yT1":0,"xT2":1046.8999999999999,"yT2":0,"toosoon":0,"cond_shown":"equaldotsize","ratio_trial":900,"smaller_num":"18","larger_num":"20","correct_side":2,"subjID":"mariannalopez1","gender":"1","age":"9","school":"4"},{"start_time":1552309286581,"click_time":1552309287427,"finger_time":1552309287087,"fix_duration":1352.6451224513153,"trial":51,"RT":506,"MT":340,"sideResp":2,"stimulus":"img/250/equaldotanddens/R/12_Ratio_250_L_5_R_20.png","xmouse":[792,792,792,792,792,792,792,792,792,792,792,792,792,792,792,792,792,792,792,792,792,792,792,792,807,834,859,890,905,915,928,941,968,979,987,995,1002,1014,1023,1041,1052,1062,1078],"ymouse":[509,509,509,509,509,509,509,509,509,509,509,509,509,509,509,509,509,509,509,509,509,509,509,506,478,437,399,344,313,297,280,263,229,212,196,183,174,159,152,136,127,114,94],"timestamp_mouse":[12,26,46,66,84,105,126,146,165,185,205,225,246,266,285,305,325,345,366,386,406,425,446,465,485,506,525,545,566,585,605,625,645,665,685,705,726,745,765,785,805,826,846],"xSR":733.5,"ySR":464.1,"xT1":420.09999999999997,"yT1":0,"xT2":1046.8999999999999,"yT2":0,"toosoon":0,"cond_shown":"equaldotanddens","ratio_trial":250,"smaller_num":"5","larger_num":"20","correct_side":2,"subjID":"mariannalopez1","gender":"1","age":"9","school":"4"},{"start_time":1552309288545,"click_time":1552309289445,"finger_time":1552309289345,"fix_duration":357.0085363852383,"trial":52,"RT":800,"MT":100,"sideResp":2,"stimulus":"img/250/randomdotsizeEA/R/4_Ratio_250_L_3_R_12.png","xmouse":[781,781,781,781,781,781,781,781,781,781,781,781,781,781,781,781,781,781,781,781,781,781,781,781,781,781,781,781,781,781,781,781,781,781,781,781,781,781,782,797,830,882,929,972,1043,1063],"ymouse":[512,512,512,512,512,512,512,512,512,512,512,512,512,512,512,512,512,512,512,512,512,512,512,512,512,512,512,512,512,512,512,512,512,512,512,512,512,512,505,470,413,344,279,216,126,94],"timestamp_mouse":[6,20,42,61,80,100,120,140,161,181,201,220,241,261,280,300,320,341,361,381,401,421,440,461,481,500,521,541,560,581,600,620,641,660,680,701,720,740,761,780,800,820,841,860,880,900],"xSR":733.5,"ySR":464.1,"xT1":420.09999999999997,"yT1":0,"xT2":1046.8999999999999,"yT2":0,"toosoon":0,"cond_shown":"randomdotsizeEA","ratio_trial":250,"smaller_num":"3","larger_num":"12","correct_side":2,"subjID":"mariannalopez1","gender":"1","age":"9","school":"4"},{"start_time":1552309291421,"click_time":1552309292485,"finger_time":1552309292146,"fix_duration":1133.4505867708524,"trial":53,"RT":725,"MT":339,"sideResp":1,"stimulus":"img/900/randomdotsizeEA/L/4_Ratio_900_L_20_R_18.png","xmouse":[762,762,762,762,762,762,762,762,762,762,762,762,762,762,762,762,762,762,762,762,762,762,762,762,762,762,762,762,762,762,762,762,762,762,759,735,715,668,637,601,536,519,505,496,489,486,483,481,478,476,474,473,473,473],"ymouse":[523,523,523,523,523,523,523,523,523,523,523,523,523,523,523,523,523,523,523,523,523,523,523,523,523,523,523,523,523,523,523,523,523,523,515,494,476,433,398,355,280,257,240,226,214,206,197,191,171,156,125,114,101,91],"timestamp_mouse":[13,27,45,65,85,105,126,144,164,184,205,225,245,264,284,305,324,344,365,385,405,425,444,465,484,505,525,545,565,585,604,624,645,664,684,704,725,744,765,784,804,824,844,864,885,904,924,944,964,984,1004,1024,1044,1064],"xSR":733.5,"ySR":464.1,"xT1":420.09999999999997,"yT1":0,"xT2":1046.8999999999999,"yT2":0,"toosoon":0,"cond_shown":"randomdotsizeEA","ratio_trial":900,"smaller_num":"18","larger_num":"20","correct_side":1,"subjID":"mariannalopez1","gender":"1","age":"9","school":"4"},{"start_time":1552309294114,"click_time":1552309295307,"finger_time":1552309294925,"fix_duration":807.1195102325399,"trial":54,"RT":811,"MT":382,"sideResp":2,"stimulus":"img/900/equaldotanddens/R/5_Ratio_900_L_9_R_10.png","xmouse":[806,806,806,806,806,806,806,806,806,806,806,806,806,806,806,806,806,806,806,806,806,806,806,806,806,806,806,806,806,806,806,806,806,806,806,806,806,806,806,807,820,831,854,871,883,903,912,917,920,922,924,926,930,936,943,973,993,1018,1041,1059],"ymouse":[497,497,497,497,497,497,497,497,497,497,497,497,497,497,497,497,497,497,497,497,497,497,497,497,497,497,497,497,497,497,497,497,497,497,497,497,497,497,497,490,462,438,368,306,242,171,151,139,133,129,126,125,124,123,121,113,106,97,87,79],"timestamp_mouse":[13,45,51,71,93,112,131,151,171,191,211,232,251,272,292,311,332,351,372,391,411,432,453,471,491,512,532,551,572,592,611,631,652,672,692,712,732,751,771,792,811,832,851,872,892,911,931,952,971,992,1012,1031,1051,1071,1091,1112,1131,1151,1171,1192],"xSR":733.5,"ySR":464.1,"xT1":420.09999999999997,"yT1":0,"xT2":1046.8999999999999,"yT2":0,"toosoon":0,"cond_shown":"equaldotanddens","ratio_trial":900,"smaller_num":"9","larger_num":"10","correct_side":2,"subjID":"mariannalopez1","gender":"1","age":"9","school":"4"},{"start_time":1552309296696,"click_time":1552309297805,"finger_time":1552309297406,"fix_duration":528.5827650022418,"trial":55,"RT":710,"MT":399,"sideResp":1,"stimulus":"img/900/randomdotsizeEA/L/8_Ratio_900_L_20_R_18.png","xmouse":[768,768,768,768,768,768,768,768,768,768,768,768,768,768,768,768,768,768,768,768,768,769,769,769,769,769,769,769,769,769,769,769,766,759,753,745,720,702,686,668,651,618,599,593,578,567,550,542,540,537,536,532,530,529,526,520],"ymouse":[499,499,499,499,499,499,499,499,499,499,499,499,499,499,499,499,499,499,499,499,499,499,499,499,499,499,499,499,499,499,499,499,492,481,470,454,413,383,355,325,294,246,220,212,185,166,126,108,98,90,85,79,77,75,72,68],"timestamp_mouse":[11,43,51,71,90,109,130,150,170,190,210,229,250,270,290,309,329,349,370,390,410,430,450,469,490,509,530,550,570,590,610,629,649,669,689,710,729,749,769,789,809,829,849,870,890,910,929,950,970,989,1011,1029,1050,1069,1089,1109],"xSR":733.5,"ySR":464.1,"xT1":420.09999999999997,"yT1":0,"xT2":1046.8999999999999,"yT2":0,"toosoon":0,"cond_shown":"randomdotsizeEA","ratio_trial":900,"smaller_num":"18","larger_num":"20","correct_side":1,"subjID":"mariannalopez1","gender":"1","age":"9","school":"4"},{"start_time":1552309299642,"click_time":1552309300807,"finger_time":1552309300466,"fix_duration":1093.9599414542845,"trial":56,"RT":824,"MT":341,"sideResp":2,"stimulus":"img/900/randomdotsizeEA/L/8_Ratio_900_L_20_R_18.png","xmouse":[791,791,791,791,791,791,791,791,791,791,791,791,791,791,791,791,791,791,791,791,791,791,791,791,791,791,791,791,791,791,791,791,791,791,791,791,791,791,791,791,791,796,801,809,833,853,869,891,906,933,945,960,977,995,1029,1051,1063,1070,1078],"ymouse":[504,504,504,504,504,504,504,504,504,504,504,504,504,504,504,504,504,504,504,504,504,504,504,504,504,504,504,504,504,504,504,504,504,504,504,500,492,489,486,477,468,453,434,412,357,323,298,268,252,218,204,189,175,161,136,120,111,105,94],"timestamp_mouse":[9,24,43,64,83,104,123,143,163,183,204,224,244,264,283,303,323,343,363,383,403,424,443,464,483,504,524,543,563,583,603,624,644,663,683,703,723,743,764,783,803,824,844,863,883,903,923,943,964,984,1003,1023,1043,1063,1083,1104,1124,1144,1164],"xSR":733.5,"ySR":464.1,"xT1":420.09999999999997,"yT1":0,"xT2":1046.8999999999999,"yT2":0,"toosoon":0,"cond_shown":"randomdotsizeEA","ratio_trial":900,"smaller_num":"18","larger_num":"20","correct_side":1,"subjID":"mariannalopez1","gender":"1","age":"9","school":"4"},{"start_time":1552309301837,"click_time":1552309303065,"finger_time":1552309302726,"fix_duration":250,"trial":57,"RT":889,"MT":339,"sideResp":1,"stimulus":"img/500/equaldotsize/L/10_Ratio_500_L_4_R_2.png","xmouse":[784,784,784,784,784,784,784,784,784,784,784,784,784,784,784,784,784,784,784,784,784,784,784,784,784,784,784,784,784,784,784,784,784,784,784,784,784,784,784,784,782,780,775,767,745,715,703,639,593,519,497,483,472,469,462,460,460,460,460,462,466,469],"ymouse":[514,514,514,514,514,514,514,515,515,515,515,515,515,515,515,515,515,515,515,515,515,515,515,515,515,515,515,515,515,515,515,515,515,515,515,515,515,515,515,514,508,499,486,473,446,416,405,349,306,247,229,213,198,189,166,152,134,123,116,106,100,93],"timestamp_mouse":[10,42,48,68,89,109,129,149,168,189,209,229,249,268,288,308,329,349,368,388,408,429,449,468,489,509,529,549,569,588,609,629,648,669,688,709,728,749,768,788,808,828,848,868,889,908,928,949,969,988,1008,1028,1049,1068,1089,1109,1128,1150,1169,1188,1208,1228],"xSR":733.5,"ySR":464.1,"xT1":420.09999999999997,"yT1":0,"xT2":1046.8999999999999,"yT2":0,"toosoon":0,"cond_shown":"equaldotsize","ratio_trial":500,"smaller_num":"2","larger_num":"4","correct_side":1,"subjID":"mariannalopez1","gender":"1","age":"9","school":"4"},{"start_time":1552309305037,"click_time":1552309306225,"finger_time":1552309305746,"fix_duration":1189.9601444643524,"trial":58,"RT":709,"MT":479,"sideResp":2,"stimulus":"img/250/equaldotsize/R/4_Ratio_250_L_3_R_12.png","xmouse":[786,786,786,786,786,786,786,786,786,786,786,786,786,786,786,786,786,786,786,786,786,786,786,786,786,786,786,786,786,786,786,786,786,787,804,834,864,896,921,953,967,977,987,996,1014,1024,1027,1032,1034,1037,1038,1040,1043,1047,1062,1070,1079,1085,1093,1117],"ymouse":[509,509,509,509,509,509,509,509,509,509,509,509,509,509,509,509,509,509,509,509,509,509,509,509,509,509,509,509,509,509,509,508,508,505,495,474,447,420,398,363,346,332,316,298,266,245,239,224,216,206,202,198,192,183,163,150,134,121,101,52],"timestamp_mouse":[14,28,49,68,89,108,129,148,168,189,208,228,249,268,289,309,329,348,368,389,408,428,448,469,489,509,528,549,569,588,608,628,648,668,688,709,728,748,769,788,808,828,849,868,888,908,929,949,969,989,1008,1028,1048,1068,1088,1108,1128,1148,1168,1188],"xSR":733.5,"ySR":464.1,"xT1":420.09999999999997,"yT1":0,"xT2":1046.8999999999999,"yT2":0,"toosoon":0,"cond_shown":"equaldotsize","ratio_trial":250,"smaller_num":"3","larger_num":"12","correct_side":2,"subjID":"mariannalopez1","gender":"1","age":"9","school":"4"},{"start_time":1552309309754,"click_time":1552309319866,"finger_time":1552309319365,"fix_duration":826.7600083558526,"trial":59,"RT":9611,"MT":501,"sideResp":2,"stimulus":"img/250/randomdotsizeEA/L/1_Ratio_250_L_8_R_2.png","xmouse":[774,774,774,774,774,774,774,774,774,774,774,774,774,774,774,774,774,774,774,774,774,774,774,774,774,774,774,774,774,774,774,774,774,774,774,774,774,774,774,774,774,774,774,774,774,774,774,774,774,774,774,774,774,774,774,774,774,774,774,774,774,774,774,774,774,774,774,774,774,774,774,774,774,774,774,774,774,774,774,774,774,774,774,774,774,774,774,774,774,774,774,774,774,774,774,774,774,774,774,774,774,774,774,774,774,774,774,774,774,774,774,774,774,774,774,774,774,774,774,774,774,774,774,774,774,774,774,774,774,774,774,774,774,774,774,774,774,774,774,774,774,774,774,774,774,774,774,774,774,774,774,774,774,774,774,774,774,774,774,774,774,774,774,774,774,774,774,774,774,774,774,774,774,774,774,774,774,774,774,774,774,774,774,774,774,774,774,774,774,774,774,774,774,774,774,774,774,774,774,774,774,774,774,774,774,774,774,774,774,774,774,774,774,774,774,774,774,774,774,774,774,774,774,774,774,774,774,774,774,774,774,774,774,774,774,774,774,774,774,774,774,774,774,774,774,774,774,774,774,774,774,774,774,774,774,774,774,774,774,774,774,774,774,774,774,774,774,774,774,774,774,774,774,774,774,774,774,774,774,774,774,774,774,774,774,774,774,774,774,774,774,774,774,774,774,774,774,774,774,774,774,774,774,774,774,774,774,774,774,774,774,774,774,774,774,774,774,774,774,774,774,774,774,774,774,774,774,774,774,774,774,774,774,774,774,774,774,774,774,774,774,774,774,774,774,774,774,774,774,774,774,774,774,774,774,774,774,774,774,774,774,774,774,774,774,774,774,774,774,774,774,774,774,774,774,774,774,774,774,774,774,774,774,774,774,774,774,774,774,774,774,774,774,774,774,774,774,774,774,774,774,774,774,774,774,774,774,774,774,774,774,774,774,774,774,774,774,774,774,774,774,774,774,774,774,774,774,774,774,774,774,774,774,774,774,774,774,774,774,774,774,774,774,774,774,774,774,774,774,774,774,774,774,774,774,774,774,774,774,774,774,774,774,774,774,774,774,774,774,774,774,774,774,774,774,774,774,774,774,784,867,936,975,982,976,974,974,974,974,974,974,974,974,970,964,962,962,962,962,962,962,962,981,1086,1115,1133],"ymouse":[554,554,554,554,554,554,554,554,554,554,554,554,554,554,554,554,554,554,554,554,554,554,554,554,554,554,554,554,554,554,554,554,554,554,554,554,554,554,554,554,554,554,554,554,554,554,554,554,554,554,554,554,554,554,554,554,554,554,554,554,554,554,554,554,554,554,554,554,554,554,554,554,554,554,554,554,554,554,554,554,554,554,554,554,554,554,554,554,554,554,554,554,554,554,554,554,554,554,554,554,554,554,554,554,554,554,554,554,554,554,554,554,554,554,554,554,554,554,554,554,554,554,554,554,554,554,554,554,554,554,554,554,554,554,554,554,554,554,554,554,554,554,554,554,554,554,554,554,554,554,554,554,554,554,554,554,554,554,554,554,554,554,554,554,554,554,554,554,554,554,554,554,554,554,554,554,554,554,554,554,554,554,554,554,554,554,554,554,554,554,554,554,554,554,554,554,554,554,554,554,554,554,554,554,554,554,554,554,554,554,554,554,554,554,554,554,554,554,554,554,554,554,554,554,554,554,554,554,554,554,554,554,554,554,554,554,554,554,554,554,554,554,554,554,554,554,554,554,554,554,554,554,554,554,554,554,554,554,554,554,554,554,554,554,554,554,554,554,554,554,554,554,554,554,554,554,554,554,554,554,554,554,554,554,554,554,554,554,554,554,554,554,554,554,554,554,554,554,554,554,554,554,554,554,554,554,554,554,554,554,554,554,554,554,554,554,554,554,554,554,554,554,554,554,554,554,554,554,554,554,554,554,554,554,554,554,554,554,554,554,554,554,554,554,554,554,554,554,554,554,554,554,554,554,554,554,554,554,554,554,554,554,554,554,554,554,554,554,554,554,554,554,554,554,554,554,554,554,554,554,554,554,554,554,554,554,554,554,554,554,554,554,554,554,554,554,554,554,554,554,554,554,554,554,554,554,554,554,554,554,554,554,554,554,554,554,554,554,554,554,554,554,554,554,554,554,554,554,554,554,554,554,554,554,554,554,554,554,554,554,554,554,554,554,554,554,554,554,554,554,554,554,554,554,554,554,554,554,554,554,554,554,554,554,554,554,554,554,554,554,554,554,554,554,554,554,554,554,554,539,422,304,239,211,203,199,198,198,198,198,198,198,198,193,186,182,181,181,181,181,181,177,168,131,113,96],"timestamp_mouse":[12,39,52,72,93,111,132,151,171,192,212,232,251,272,291,311,332,351,373,391,412,432,452,473,493,512,533,552,571,592,611,631,651,671,691,711,732,751,771,792,812,831,851,871,892,912,931,951,971,992,1012,1031,1052,1071,1091,1112,1131,1152,1171,1192,1212,1232,1251,1272,1292,1312,1332,1351,1371,1392,1411,1432,1452,1472,1492,1512,1532,1552,1572,1591,1611,1631,1651,1671,1692,1712,1731,1752,1772,1792,1812,1832,1851,1871,1892,1912,1932,1951,1972,1992,2011,2032,2051,2072,2092,2112,2132,2152,2172,2192,2212,2232,2252,2272,2292,2311,2332,2352,2372,2391,2411,2432,2453,2472,2492,2512,2532,2553,2572,2592,2612,2632,2652,2671,2692,2712,2732,2752,2771,2792,2812,2831,2852,2871,2892,2912,2931,2952,2971,2991,3013,3031,3052,3071,3093,3112,3132,3152,3172,3192,3212,3232,3252,3272,3292,3312,3332,3352,3371,3392,3412,3432,3451,3471,3492,3512,3531,3551,3572,3592,3611,3632,3651,3671,3692,3712,3731,3751,3771,3791,3811,3832,3851,3872,3892,3912,3932,3952,3972,3993,4011,4039,4051,4071,4092,4112,4131,4151,4171,4191,4211,4232,4251,4272,4292,4311,4331,4352,4371,4391,4412,4432,4451,4472,4492,4512,4532,4551,4571,4592,4612,4631,4651,4671,4692,4711,4731,4752,4771,4791,4811,4831,4851,4872,4891,4912,4931,4951,4971,4992,5012,5031,5052,5071,5092,5112,5131,5151,5172,5191,5212,5232,5251,5271,5292,5312,5332,5351,5372,5392,5411,5432,5451,5472,5492,5512,5533,5551,5571,5592,5611,5631,5651,5671,5691,5712,5731,5751,5771,5792,5811,5831,5851,5872,5891,5911,5931,5951,5971,5992,6011,6031,6052,6072,6091,6111,6132,6151,6171,6191,6212,6232,6251,6271,6291,6312,6331,6352,6372,6392,6411,6431,6451,6471,6492,6511,6532,6552,6571,6592,6611,6631,6652,6671,6692,6712,6732,6753,6772,6792,6813,6831,6852,6871,6892,6911,6932,6951,6971,6992,7011,7032,7051,7072,7092,7111,7132,7153,7172,7192,7211,7233,7252,7272,7291,7311,7332,7352,7372,7391,7412,7432,7451,7472,7491,7511,7533,7552,7571,7592,7611,7632,7652,7671,7692,7712,7732,7751,7772,7791,7812,7832,7851,7872,7891,7911,7932,7951,7971,7991,8011,8032,8052,8071,8092,8112,8131,8151,8171,8191,8211,8231,8252,8271,8291,8312,8331,8352,8371,8391,8412,8431,8451,8472,8492,8512,8532,8551,8571,8592,8611,8632,8651,8671,8691,8712,8731,8752,8782,8791,8811,8831,8852,8872,8891,8912,8932,8952,8972,8991,9012,9031,9052,9071,9091,9111,9132,9151,9172,9192,9212,9232,9251,9272,9291,9312,9332,9351,9371,9392,9411,9431,9451,9472,9492,9511,9532,9552,9571,9592,9611,9632,9651,9671,9691,9711,9731,9751,9771,9792,9811,9832,9852,9871,9892,9913,9932,9951,9971,9992,10011,10031,10052,10071,10091,10112],"xSR":733.5,"ySR":464.1,"xT1":420.09999999999997,"yT1":0,"xT2":1046.8999999999999,"yT2":0,"toosoon":0,"cond_shown":"randomdotsizeEA","ratio_trial":250,"smaller_num":"2","larger_num":"8","correct_side":1,"subjID":"mariannalopez1","gender":"1","age":"9","school":"4"},{"start_time":1552309322437,"click_time":1552309323325,"finger_time":1552309323025,"fix_duration":250,"trial":60,"RT":588,"MT":300,"sideResp":2,"stimulus":"img/250/equaldotsize/R