[{"start_time":1552308651400,"click_time":1552308660327,"finger_time":1552308651406,"fix_duration":250,"trial":0,"RT":6,"MT":8921,"sideResp":2,"stimulus":[],"xmouse":[813,813,813,813,813,813,813,813,813,812,812,811,811,810,809,809,808,807,806,805,804,803,803,803,803,803,803,803,803,803,803,803,803,803,803,803,803,803,803,799,798,797,796,795,795,795,795,795,797,797,797,798,798,798,798,798,798,798,794,784,771,753,749,749,749,749,749,749,749,749,749,749,747,747,749,750,753,759,767,768,768,768,768,768,768,768,768,768,768,768,768,768,768,768,768,770,771,771,771,771,771,771,771,771,771,771,771,771,767,763,760,759,758,758,758,758,759,768,775,786,800,809,817,817,817,817,817,817,813,810,801,798,791,789,789,789,789,789,789,797,811,819,836,836,836,836,836,833,807,798,788,776,769,767,767,767,767,768,780,796,824,831,845,845,845,845,845,838,826,814,802,795,786,785,785,785,785,789,792,794,795,796,796,796,796,796,796,795,786,783,781,781,781,781,781,781,783,783,783,783,783,783,783,783,783,783,783,783,783,783,783,783,783,783,783,784,784,784,784,784,784,784,784,784,784,784,784,784,784,784,784,784,784,784,784,784,784,784,784,784,784,784,784,784,784,784,784,784,784,784,784,784,784,784,784,784,784,784,784,784,784,784,784,784,784,784,784,784,784,784,784,784,784,784,784,784,784,784,784,784,784,784,784,784,784,784,784,784,784,784,784,784,784,784,784,784,784,784,784,784,784,784,784,784,784,784,784,784,784,784,784,784,784,784,784,784,784,784,784,784,784,784,784,784,784,784,784,784,784,784,784,784,784,784,784,784,784,784,784,784,784,784,784,784,784,784,784,784,784,784,784,784,784,784,784,784,784,784,784,784,784,784,784,784,784,784,784,784,784,784,784,784,784,784,784,784,784,784,784,784,784,784,784,784,784,784,784,784,784,785,786,786,793,817,833,844,845,845,845,845,845,845,845,845,846,843,840,825,766,742,733,731,731,731,733,736,739,742,742,743,756,775,805,865,881,896,909,920,936,942,948,958,968,970,972,978,987,997,1017,1036,1049,1058,1059,1059,1060,1065,1070],"ymouse":[560,560,559,559,559,559,559,559,559,558,558,556,556,555,554,552,552,548,545,543,542,541,541,541,541,541,541,541,541,541,541,541,541,541,541,541,541,540,540,541,541,542,545,546,546,546,548,558,563,567,567,568,568,568,568,568,568,568,571,577,585,595,597,597,597,597,597,597,597,597,597,597,599,602,604,605,607,607,609,609,609,609,609,609,609,609,609,609,609,609,609,609,609,609,609,610,610,610,610,610,610,610,610,610,610,610,610,610,611,613,613,614,614,614,614,614,614,613,611,608,602,598,594,594,594,594,594,594,594,594,596,597,600,601,601,601,601,601,601,601,597,595,590,590,590,590,589,588,588,588,589,592,595,595,595,595,595,595,596,596,596,595,590,590,590,590,590,590,594,596,600,602,606,606,606,606,608,609,609,609,609,609,609,609,609,609,609,609,612,613,615,615,615,615,615,615,615,615,615,615,615,615,615,615,615,615,615,615,615,615,615,615,615,615,615,615,615,615,615,615,615,615,615,615,615,615,615,615,615,615,615,615,615,615,615,615,615,615,616,617,617,617,617,617,617,617,617,617,617,617,617,617,617,617,617,617,617,617,617,617,617,617,617,617,617,617,617,617,617,617,617,617,617,617,617,617,617,617,617,617,617,617,617,617,617,617,617,617,617,617,617,617,617,617,617,617,617,617,617,617,617,617,617,617,617,617,617,617,617,617,617,617,617,617,617,617,617,617,617,617,617,617,617,617,617,617,617,617,617,617,617,617,617,617,617,617,617,617,617,617,617,617,617,617,617,617,617,617,617,617,617,617,617,617,617,617,617,617,617,617,617,617,617,617,617,617,617,617,617,617,617,617,617,617,617,617,617,617,617,617,617,617,617,617,617,617,617,617,617,618,618,618,614,604,600,598,598,598,598,598,598,598,598,598,590,558,491,407,269,246,238,237,237,235,230,224,220,217,216,216,213,208,197,167,153,140,127,115,96,81,59,39,28,26,26,30,38,48,66,81,94,100,102,102,102,100,92],"timestamp_mouse":[5,25,46,65,85,106,125,145,166,185,205,225,246,266,285,306,326,345,365,386,404,424,444,465,484,506,526,546,566,586,606,626,646,665,685,705,726,745,765,786,805,825,844,865,886,906,926,946,964,986,1006,1026,1046,1066,1086,1105,1126,1146,1166,1186,1206,1225,1245,1266,1286,1306,1324,1346,1365,1385,1406,1426,1444,1466,1485,1505,1524,1545,1565,1586,1605,1626,1646,1666,1685,1706,1726,1745,1766,1785,1806,1825,1846,1865,1885,1906,1925,1946,1965,1985,2005,2026,2044,2066,2085,2104,2126,2145,2165,2185,2205,2226,2245,2266,2285,2306,2324,2346,2365,2386,2405,2426,2445,2465,2485,2506,2525,2546,2564,2586,2605,2624,2645,2665,2685,2706,2724,2746,2766,2785,2805,2826,2846,2864,2885,2906,2925,2946,2965,2986,3005,3025,3045,3066,3086,3106,3126,3146,3165,3186,3205,3225,3246,3265,3285,3306,3325,3346,3365,3386,3406,3425,3446,3466,3485,3506,3525,3546,3565,3584,3605,3625,3646,3664,3685,3705,3725,3746,3765,3785,3805,3825,3845,3866,3886,3906,3925,3946,3965,3985,4005,4026,4045,4065,4085,4106,4126,4146,4165,4186,4206,4225,4245,4266,4286,4306,4325,4345,4365,4386,4406,4426,4446,4465,4485,4506,4524,4546,4565,4585,4606,4625,4646,4666,4685,4705,4725,4746,4765,4786,4806,4825,4845,4865,4884,4906,4925,4946,4966,4986,5006,5025,5045,5065,5086,5106,5125,5144,5165,5185,5206,5226,5245,5265,5285,5304,5325,5345,5364,5385,5405,5426,5446,5466,5486,5506,5524,5545,5565,5586,5606,5625,5646,5665,5684,5706,5725,5745,5765,5785,5806,5826,5845,5866,5885,5906,5925,5946,5965,5985,6005,6025,6046,6065,6086,6106,6125,6146,6164,6185,6205,6225,6245,6265,6284,6305,6326,6346,6365,6386,6406,6426,6445,6466,6486,6506,6525,6546,6565,6586,6606,6625,6646,6665,6686,6706,6726,6746,6765,6786,6806,6826,6845,6866,6886,6906,6926,6946,6966,6986,7005,7026,7045,7066,7086,7106,7125,7146,7166,7185,7205,7226,7246,7266,7286,7306,7326,7346,7365,7386,7406,7426,7445,7466,7486,7504,7526,7546,7566,7584,7606,7626,7646,7665,7686,7706,7725,7746,7765,7786,7806,7826,7845,7865,7885,7905,7926,7945,7966,7986,8005,8026,8046,8065,8085,8105,8125,8145,8165,8185,8206,8224,8246,8265,8285,8306,8326,8345,8365,8386,8405,8426,8444,8465,8486,8505,8526,8546,8565,8586,8605,8625,8646,8665,8686,8705,8724,8746,8765,8785,8805,8825,8845,8866,8886,8905,8926],"xSR":741.5,"ySR":500.5,"xT1":424.9,"yT1":0,"xT2":1058.1,"yT2":0,"toosoon":0,"cond_shown":"Congruent","ratio_trial":100,"L_num":2,"L_den":5,"R_num":11,"R_den":22,"correct_side":2,"subjID":"MariaPaulaBeltranMora34","gender":"1","age":"9","school":"4","test":{"fix_dur":[250,1500],"timestim":1000,"targets_dim":[100,100],"targets_relative_coord":[0.3,0.7],"size_stim":[880,420],"start_dim":[100,100],"size_start":[300,300],"size_fix":60,"samplingrate":20,"img_types":["Congruent","Incongruent"],"ratios":[100,200,300],"rep_conds":19,"nTrials":120,"trials_to_rest":500,"Trials_order":[6,95,24,111,109,2,106,112,23,59,90,73,46,29,75,63,30,96,15,98,64,16,94,42,20,51,28,101,104,57,99,33,119,34,54,56,74,91,108,92,50,68,86,45,40,118,0,44,22,13,48,107,72,60,12,36,66,32,49,76,102,114,80,43,53,81,79,70,77,37,8,26,3,87,31,116,97,100,27,93,89,113,19,115,47,71,21,41,18,65,55,61,7,67,69,58,39,105,84,1,103,52,35,117,14,83,10,85,9,62,78,38,4,11,25,82,88,110,17,5],"cond_shown":["Congruent","Incongruent","Congruent","Incongruent","Incongruent","Congruent","Congruent","Congruent","Incongruent","Incongruent","Congruent","Incongruent","Congruent","Incongruent","Incongruent","Incongruent","Congruent","Congruent","Incongruent","Congruent","Congruent","Congruent","Congruent","Congruent","Congruent","Incongruent","Congruent","Incongruent","Congruent","Incongruent","Incongruent","Incongruent","Incongruent","Congruent","Congruent","Congruent","Congruent","Incongruent","Congruent","Congruent","Congruent","Congruent","Congruent","Incongruent","Congruent","Congruent","Congruent","Congruent","Congruent","Incongruent","Congruent","Incongruent","Congruent","Congruent","Congruent","Congruent","Congruent","Congruent","Incongruent","Congruent","Congruent","Congruent","Congruent","Incongruent","Incongruent","Incongruent","Incongruent","Congruent","Incongruent","Incongruent","Congruent","Congruent","Incongruent","Incongruent","Incongruent","Congruent","Incongruent","Congruent","Incongruent","Incongruent","Incongruent","Incongruent","Incongruent","Incongruent","Incongruent","Incongruent","Incongruent","Incongruent","Congruent","Incongruent","Incongruent","Incongruent","Incongruent","Incongruent","Incongruent","Congruent","Incongruent","Incongruent","Congruent","Incongruent","Incongruent","Congruent","Incongruent","Incongruent","Congruent","Incongruent","Congruent","Incongruent","Incongruent","Congruent","Congruent","Congruent","Congruent","Incongruent","Incongruent","Congruent","Congruent","Congruent","Incongruent","Incongruent"],"ratio_trial":[100,300,100,200,100,200,300,300,300,300,100,100,300,300,200,200,100,100,200,200,300,300,300,100,200,200,300,300,200,200,200,200,300,300,100,200,200,100,100,200,200,200,200,200,300,300,100,200,300,100,100,300,100,100,100,100,100,200,100,300,100,100,200,100,300,200,100,300,300,100,200,200,200,200,100,200,100,300,200,200,300,300,100,100,300,300,200,300,100,300,100,100,100,100,200,300,200,200,100,100,100,300,300,200,200,300,300,100,200,200,100,200,300,300,100,300,300,200,300,300],"left_num":[2,8,1,7,17,11,9,12,4,13,7,6,20,13,3,7,6,7,1,11,1,2,20,8,6,7,1,13,3,7,7,4,1,3,3,6,20,2,3,14,9,13,16,3,20,1,10,1,1,9,11,8,8,10,1,6,3,3,9,9,15,1,6,13,4,1,3,11,13,2,21,6,6,4,6,15,2,8,14,4,1,13,10,12,8,4,7,3,2,7,6,3,13,4,1,1,4,6,11,17,4,20,4,1,11,13,9,2,4,3,10,1,12,13,6,5,4,5,7,4],"right_num":[11,14,3,6,10,3,3,2,8,12,15,7,8,12,11,12,5,9,3,3,3,10,9,2,7,14,11,12,11,14,6,6,3,4,2,7,9,6,4,6,13,14,12,11,13,7,3,21,7,14,6,14,2,3,18,15,2,14,13,3,13,3,7,12,6,3,8,2,12,6,2,11,3,1,3,4,8,10,12,14,3,12,8,9,14,2,14,4,6,8,7,8,12,8,2,3,14,3,4,10,8,5,2,2,3,12,3,8,1,11,3,21,2,12,3,6,1,14,8,2],"left_den":[5,10,2,15,30,22,10,24,5,26,14,10,25,26,4,10,20,14,2,22,5,20,25,16,12,10,5,26,10,10,15,5,2,6,6,12,25,4,20,28,30,26,20,4,25,20,25,2,20,15,22,10,16,25,2,12,6,10,15,10,25,2,12,26,5,2,5,22,26,4,30,20,20,30,12,25,4,15,30,6,2,26,25,24,10,20,10,6,5,10,10,5,26,8,3,5,6,20,22,30,8,25,20,3,22,26,10,4,30,10,25,2,24,26,12,25,10,10,10,20],"right_den":[22,28,5,9,15,10,5,10,16,15,25,14,16,15,20,24,25,15,10,10,6,25,18,5,10,28,22,15,22,28,9,10,15,5,5,10,15,15,16,20,26,20,20,20,26,20,10,30,20,28,15,28,5,10,30,25,5,28,26,5,26,5,10,20,12,10,16,10,15,15,4,22,6,3,5,10,20,12,18,30,15,15,16,15,28,4,28,20,12,20,14,16,20,20,15,6,30,6,10,15,20,10,4,15,10,15,5,20,3,22,10,30,10,15,5,12,10,20,20,4],"correct_side":[2,1,2,2,2,1,1,1,1,2,2,1,1,2,1,1,1,2,1,1,2,2,1,1,2,1,2,2,2,1,2,1,1,2,1,2,1,1,2,1,2,2,1,1,1,2,1,2,2,1,1,1,1,1,2,2,1,2,1,1,1,2,2,2,1,1,1,1,2,1,1,2,2,2,2,1,1,2,2,1,1,2,2,2,1,2,1,1,2,1,1,1,2,1,1,2,1,2,1,2,1,1,2,1,1,2,1,1,2,2,1,2,1,2,2,2,1,2,1,2],"img_shown":["img2/100/Congruent/R/C_Dist_100_LN_2_LD_5_RN_11_RD_22_1.png","img2/300/Incongruent/L/I_Dist_300_LN_8_LD_10_RN_14_RD_28_0.png","img2/100/Congruent/R/C_Dist_100_LN_1_LD_2_RN_3_RD_5_1.png","img2/200/Incongruent/R/I_Dist_200_LN_7_LD_15_RN_6_RD_9_1.png","img2/100/Incongruent/R/I_Dist_100_LN_17_LD_30_RN_10_RD_15_1.png","img2/200/Congruent/L/C_Dist_200_LN_11_LD_22_RN_3_RD_10_0.png","img2/300/Congruent/L/C_Dist_300_LN_9_LD_10_RN_3_RD_5_0.png","img2/300/Congruent/L/C_Dist_300_LN_12_LD_24_RN_2_RD_10_0.png","img2/300/Incongruent/L/I_Dist_300_LN_4_LD_5_RN_8_RD_16_0.png","img2/300/Incongruent/R/I_Dist_300_LN_13_LD_26_RN_12_RD_15_1.png","img2/100/Congruent/R/C_Dist_100_LN_7_LD_14_RN_15_RD_25_1.png","img2/100/Incongruent/L/I_Dist_100_LN_6_LD_10_RN_7_RD_14_0.png","img2/300/Congruent/L/C_Dist_300_LN_20_LD_25_RN_8_RD_16_0.png","img2/300/Incongruent/R/I_Dist_300_LN_13_LD_26_RN_12_RD_15_1.png","img2/200/Incongruent/L/I_Dist_200_LN_3_LD_4_RN_11_RD_20_0.png","img2/200/Incongruent/L/I_Dist_200_LN_7_LD_10_RN_12_RD_24_0.png","img2/100/Congruent/L/C_Dist_100_LN_6_LD_20_RN_5_RD_25_0.png","img2/100/Congruent/R/C_Dist_100_LN_7_LD_14_RN_9_RD_15_1.png","img2/200/Incongruent/L/I_Dist_200_LN_1_LD_2_RN_3_RD_10_0.png","img2/200/Congruent/L/C_Dist_200_LN_11_LD_22_RN_3_RD_10_0.png","img2/300/Congruent/R/C_Dist_300_LN_1_LD_5_RN_3_RD_6_1.png","img2/300/Congruent/R/C_Dist_300_LN_2_LD_20_RN_10_RD_25_1.png","img2/300/Congruent/L/C_Dist_300_LN_20_LD_25_RN_9_RD_18_0.png","img2/100/Congruent/L/C_Dist_100_LN_8_LD_16_RN_2_RD_5_0.png","img2/200/Congruent/R/C_Dist_200_LN_6_LD_12_RN_7_RD_10_1.png","img2/200/Incongruent/L/I_Dist_200_LN_7_LD_10_RN_14_RD_28_0.png","img2/300/Congruent/R/C_Dist_300_LN_1_LD_5_RN_11_RD_22_1.png","img2/300/Incongruent/R/I_Dist_300_LN_13_LD_26_RN_12_RD_15_1.png","img2/200/Congruent/R/C_Dist_200_LN_3_LD_10_RN_11_RD_22_1.png","img2/200/Incongruent/L/I_Dist_200_LN_7_LD_10_RN_14_RD_28_0.png","img2/200/Incongruent/R/I_Dist_200_LN_7_LD_15_RN_6_RD_9_1.png","img2/200/Incongruent/L/I_Dist_200_LN_4_LD_5_RN_6_RD_10_0.png","img2/300/Incongruent/L/I_Dist_300_LN_1_LD_2_RN_3_RD_15_0.png","img2/300/Congruent/R/C_Dist_300_LN_3_LD_6_RN_4_RD_5_1.png","img2/100/Congruent/L/C_Dist_100_LN_3_LD_6_RN_2_RD_5_0.png","img2/200/Congruent/R/C_Dist_200_LN_6_LD_12_RN_7_RD_10_1.png","img2/200/Congruent/L/C_Dist_200_LN_20_LD_25_RN_9_RD_15_0.png","img2/100/Incongruent/L/I_Dist_100_LN_2_LD_4_RN_6_RD_15_0.png","img2/100/Congruent/R/C_Dist_100_LN_3_LD_20_RN_4_RD_16_1.png","img2/200/Congruent/L/C_Dist_200_LN_14_LD_28_RN_6_RD_20_0.png","img2/200/Congruent/R/C_Dist_200_LN_9_LD_30_RN_13_RD_26_1.png","img2/200/Congruent/R/C_Dist_200_LN_13_LD_26_RN_14_RD_20_1.png","img2/200/Congruent/L/C_Dist_200_LN_16_LD_20_RN_12_RD_20_0.png","img2/200/Incongruent/L/I_Dist_200_LN_3_LD_4_RN_11_RD_20_0.png","img2/300/Congruent/L/C_Dist_300_LN_20_LD_25_RN_13_RD_26_0.png","img2/300/Congruent/R/C_Dist_300_LN_1_LD_20_RN_7_RD_20_1.png","img2/100/Congruent/L/C_Dist_100_LN_10_LD_25_RN_3_RD_10_0.png","img2/200/Congruent/R/C_Dist_200_LN_1_LD_2_RN_21_RD_30_1.png","img2/300/Congruent/R/C_Dist_300_LN_1_LD_20_RN_7_RD_20_1.png","img2/100/Incongruent/L/I_Dist_100_LN_9_LD_15_RN_14_RD_28_0.png","img2/100/Congruent/L/C_Dist_100_LN_11_LD_22_RN_6_RD_15_0.png","img2/300/Incongruent/L/I_Dist_300_LN_8_LD_10_RN_14_RD_28_0.png","img2/100/Congruent/L/C_Dist_100_LN_8_LD_16_RN_2_RD_5_0.png","img2/100/Congruent/L/C_Dist_100_LN_10_LD_25_RN_3_RD_10_0.png","img2/100/Congruent/R/C_Dist_100_LN_1_LD_2_RN_18_RD_30_1.png","img2/100/Congruent/R/C_Dist_100_LN_6_LD_12_RN_15_RD_25_1.png","img2/100/Congruent/L/C_Dist_100_LN_3_LD_6_RN_2_RD_5_0.png","img2/200/Congruent/R/C_Dist_200_LN_3_LD_10_RN_14_RD_28_1.png","img2/100/Incongruent/L/I_Dist_100_LN_9_LD_15_RN_13_RD_26_0.png","img2/300/Congruent/L/C_Dist_300_LN_9_LD_10_RN_3_RD_5_0.png","img2/100/Congruent/L/C_Dist_100_LN_15_LD_25_RN_13_RD_26_0.png","img2/100/Congruent/R/C_Dist_100_LN_1_LD_2_RN_3_RD_5_1.png","img2/200/Congruent/R/C_Dist_200_LN_6_LD_12_RN_7_RD_10_1.png","img2/100/Incongruent/R/I_Dist_100_LN_13_LD_26_RN_12_RD_20_1.png","img2/300/Incongruent/L/I_Dist_300_LN_4_LD_5_RN_6_RD_12_0.png","img2/200/Incongruent/L/I_Dist_200_LN_1_LD_2_RN_3_RD_10_0.png","img2/100/Incongruent/L/I_Dist_100_LN_3_LD_5_RN_8_RD_16_0.png","img2/300/Congruent/L/C_Dist_300_LN_11_LD_22_RN_2_RD_10_0.png","img2/300/Incongruent/R/I_Dist_300_LN_13_LD_26_RN_12_RD_15_1.png","img2/100/Incongruent/L/I_Dist_100_LN_2_LD_4_RN_6_RD_15_0.png","img2/200/Congruent/L/C_Dist_200_LN_21_LD_30_RN_2_RD_4_0.png","img2/200/Congruent/R/C_Dist_200_LN_6_LD_20_RN_11_RD_22_1.png","img2/200/Incongruent/R/I_Dist_200_LN_6_LD_20_RN_3_RD_6_1.png","img2/200/Incongruent/R/I_Dist_200_LN_4_LD_30_RN_1_RD_3_1.png","img2/100/Incongruent/R/I_Dist_100_LN_6_LD_12_RN_3_RD_5_1.png","img2/200/Congruent/L/C_Dist_200_LN_15_LD_25_RN_4_RD_10_0.png","img2/100/Incongruent/L/I_Dist_100_LN_2_LD_4_RN_8_RD_20_0.png","img2/300/Congruent/R/C_Dist_300_LN_8_LD_15_RN_10_RD_12_1.png","img2/200/Incongruent/R/I_Dist_200_LN_14_LD_30_RN_12_RD_18_1.png","img2/200/Incongruent/L/I_Dist_200_LN_4_LD_6_RN_14_RD_30_0.png","img2/300/Incongruent/L/I_Dist_300_LN_1_LD_2_RN_3_RD_15_0.png","img2/300/Incongruent/R/I_Dist_300_LN_13_LD_26_RN_12_RD_15_1.png","img2/100/Incongruent/R/I_Dist_100_LN_10_LD_25_RN_8_RD_16_1.png","img2/100/Incongruent/R/I_Dist_100_LN_12_LD_24_RN_9_RD_15_1.png","img2/300/Incongruent/L/I_Dist_300_LN_8_LD_10_RN_14_RD_28_0.png","img2/300/Incongruent/R/I_Dist_300_LN_4_LD_20_RN_2_RD_4_1.png","img2/200/Incongruent/L/I_Dist_200_LN_7_LD_10_RN_14_RD_28_0.png","img2/300/Incongruent/L/I_Dist_300_LN_3_LD_6_RN_4_RD_20_0.png","img2/100/Congruent/R/C_Dist_100_LN_2_LD_5_RN_6_RD_12_1.png","img2/300/Incongruent/L/I_Dist_300_LN_7_LD_10_RN_8_RD_20_0.png","img2/100/Incongruent/L/I_Dist_100_LN_6_LD_10_RN_7_RD_14_0.png","img2/100/Incongruent/L/I_Dist_100_LN_3_LD_5_RN_8_RD_16_0.png","img2/100/Incongruent/R/I_Dist_100_LN_13_LD_26_RN_12_RD_20_1.png","img2/100/Incongruent/L/I_Dist_100_LN_4_LD_8_RN_8_RD_20_0.png","img2/200/Incongruent/L/I_Dist_200_LN_1_LD_3_RN_2_RD_15_0.png","img2/300/Congruent/R/C_Dist_300_LN_1_LD_5_RN_3_RD_6_1.png","img2/200/Incongruent/L/I_Dist_200_LN_4_LD_6_RN_14_RD_30_0.png","img2/200/Incongruent/R/I_Dist_200_LN_6_LD_20_RN_3_RD_6_1.png","img2/100/Congruent/L/C_Dist_100_LN_11_LD_22_RN_4_RD_10_0.png","img2/100/Incongruent/R/I_Dist_100_LN_17_LD_30_RN_10_RD_15_1.png","img2/100/Incongruent/L/I_Dist_100_LN_4_LD_8_RN_8_RD_20_0.png","img2/300/Congruent/L/C_Dist_300_LN_20_LD_25_RN_5_RD_10_0.png","img2/300/Incongruent/R/I_Dist_300_LN_4_LD_20_RN_2_RD_4_1.png","img2/200/Incongruent/L/I_Dist_200_LN_1_LD_3_RN_2_RD_15_0.png","img2/200/Congruent/L/C_Dist_200_LN_11_LD_22_RN_3_RD_10_0.png","img2/300/Incongruent/R/I_Dist_300_LN_13_LD_26_RN_12_RD_15_1.png","img2/300/Congruent/L/C_Dist_300_LN_9_LD_10_RN_3_RD_5_0.png","img2/100/Incongruent/L/I_Dist_100_LN_2_LD_4_RN_8_RD_20_0.png","img2/200/Incongruent/R/I_Dist_200_LN_4_LD_30_RN_1_RD_3_1.png","img2/200/Congruent/R/C_Dist_200_LN_3_LD_10_RN_11_RD_22_1.png","img2/100/Congruent/L/C_Dist_100_LN_10_LD_25_RN_3_RD_10_0.png","img2/200/Congruent/R/C_Dist_200_LN_1_LD_2_RN_21_RD_30_1.png","img2/300/Congruent/L/C_Dist_300_LN_12_LD_24_RN_2_RD_10_0.png","img2/300/Incongruent/R/I_Dist_300_LN_13_LD_26_RN_12_RD_15_1.png","img2/100/Incongruent/R/I_Dist_100_LN_6_LD_12_RN_3_RD_5_1.png","img2/300/Congruent/R/C_Dist_300_LN_5_LD_25_RN_6_RD_12_1.png","img2/300/Congruent/L/C_Dist_300_LN_4_LD_10_RN_1_RD_10_0.png","img2/200/Congruent/R/C_Dist_200_LN_5_LD_10_RN_14_RD_20_1.png","img2/300/Incongruent/L/I_Dist_300_LN_7_LD_10_RN_8_RD_20_0.png","img2/300/Incongruent/R/I_Dist_300_LN_4_LD_20_RN_2_RD_4_1.png"],"dist100_C":[["C_Dist_100_LN_10_LD_25_RN_3_RD_10_0.png","C_Dist_100_LN_11_LD_22_RN_4_RD_10_0.png","C_Dist_100_LN_11_LD_22_RN_6_RD_15_0.png","C_Dist_100_LN_15_LD_25_RN_13_RD_26_0.png","C_Dist_100_LN_3_LD_6_RN_2_RD_5_0.png","C_Dist_100_LN_6_LD_20_RN_5_RD_25_0.png","C_Dist_100_LN_8_LD_16_RN_2_RD_5_0.png","C_Dist_100_LN_9_LD_15_RN_8_RD_16_0.png"],["C_Dist_100_LN_1_LD_2_RN_18_RD_30_1.png","C_Dist_100_LN_1_LD_2_RN_3_RD_5_1.png","C_Dist_100_LN_12_LD_30_RN_13_RD_26_1.png","C_Dist_100_LN_2_LD_5_RN_11_RD_22_1.png","C_Dist_100_LN_2_LD_5_RN_6_RD_12_1.png","C_Dist_100_LN_3_LD_20_RN_4_RD_16_1.png","C_Dist_100_LN_4_LD_10_RN_15_RD_30_1.png","C_Dist_100_LN_4_LD_8_RN_6_RD_10_1.png","C_Dist_100_LN_6_LD_12_RN_15_RD_25_1.png","C_Dist_100_LN_7_LD_14_RN_15_RD_25_1.png","C_Dist_100_LN_7_LD_14_RN_9_RD_15_1.png"]],"dist100_I":[["I_Dist_100_LN_1_LD_2_RN_8_RD_20_0.png","I_Dist_100_LN_2_LD_4_RN_6_RD_15_0.png","I_Dist_100_LN_2_LD_4_RN_8_RD_20_0.png","I_Dist_100_LN_3_LD_5_RN_11_RD_22_0.png","I_Dist_100_LN_3_LD_5_RN_8_RD_16_0.png","I_Dist_100_LN_3_LD_6_RN_4_RD_10_0.png","I_Dist_100_LN_3_LD_9_RN_7_RD_30_0.png","I_Dist_100_LN_4_LD_8_RN_8_RD_20_0.png","I_Dist_100_LN_6_LD_10_RN_11_RD_22_0.png","I_Dist_100_LN_6_LD_10_RN_13_RD_26_0.png","I_Dist_100_LN_6_LD_10_RN_7_RD_14_0.png","I_Dist_100_LN_9_LD_10_RN_20_RD_25_0.png","I_Dist_100_LN_9_LD_15_RN_13_RD_26_0.png","I_Dist_100_LN_9_LD_15_RN_14_RD_28_0.png"],["I_Dist_100_LN_10_LD_25_RN_8_RD_16_1.png","I_Dist_100_LN_10_LD_25_RN_9_RD_18_1.png","I_Dist_100_LN_11_LD_22_RN_9_RD_15_1.png","I_Dist_100_LN_12_LD_24_RN_9_RD_15_1.png","I_Dist_100_LN_12_LD_30_RN_2_RD_4_1.png","I_Dist_100_LN_13_LD_26_RN_12_RD_20_1.png","I_Dist_100_LN_13_LD_26_RN_6_RD_10_1.png","I_Dist_100_LN_17_LD_30_RN_10_RD_15_1.png","I_Dist_100_LN_6_LD_12_RN_3_RD_5_1.png","I_Dist_100_LN_8_LD_16_RN_6_RD_10_1.png","I_Dist_100_LN_8_LD_20_RN_1_RD_2_1.png","I_Dist_100_LN_9_LD_18_RN_6_RD_10_1.png"]],"dist100_S":[["E_Dist_100_LN_2_LD_12_RN_2_RD_30_0.png","E_Dist_100_LN_6_LD_10_RN_6_RD_12_0.png"],["E_Dist_100_LN_6_LD_12_RN_6_RD_10_1.png"]],"dist200_C":[["C_Dist_200_LN_11_LD_22_RN_3_RD_10_0.png","C_Dist_200_LN_12_LD_15_RN_6_RD_10_0.png","C_Dist_200_LN_12_LD_20_RN_6_RD_15_0.png","C_Dist_200_LN_14_LD_28_RN_6_RD_20_0.png","C_Dist_200_LN_15_LD_25_RN_4_RD_10_0.png","C_Dist_200_LN_16_LD_20_RN_12_RD_20_0.png","C_Dist_200_LN_16_LD_30_RN_9_RD_27_0.png","C_Dist_200_LN_20_LD_25_RN_9_RD_15_0.png","C_Dist_200_LN_21_LD_30_RN_2_RD_4_0.png","C_Dist_200_LN_4_LD_10_RN_3_RD_15_0.png","C_Dist_200_LN_4_LD_8_RN_3_RD_10_0.png","C_Dist_200_LN_6_LD_15_RN_3_RD_15_0.png","C_Dist_200_LN_7_LD_21_RN_2_RD_15_0.png","C_Dist_200_LN_8_LD_15_RN_2_RD_6_0.png","C_Dist_200_LN_8_LD_15_RN_3_RD_9_0.png","C_Dist_200_LN_8_LD_15_RN_7_RD_21_0.png","C_Dist_200_LN_9_LD_20_RN_4_RD_16_0.png"],["C_Dist_200_LN_1_LD_2_RN_21_RD_30_1.png","C_Dist_200_LN_13_LD_26_RN_14_RD_20_1.png","C_Dist_200_LN_3_LD_10_RN_11_RD_22_1.png","C_Dist_200_LN_3_LD_10_RN_14_RD_28_1.png","C_Dist_200_LN_3_LD_10_RN_7_RD_14_1.png","C_Dist_200_LN_3_LD_12_RN_9_RD_20_1.png","C_Dist_200_LN_3_LD_6_RN_14_RD_20_1.png","C_Dist_200_LN_5_LD_10_RN_14_RD_20_1.png","C_Dist_200_LN_6_LD_12_RN_7_RD_10_1.png","C_Dist_200_LN_6_LD_20_RN_11_RD_22_1.png","C_Dist_200_LN_7_LD_15_RN_18_RD_27_1.png","C_Dist_200_LN_9_LD_30_RN_13_RD_26_1.png"]],"dist200_I":[["I_Dist_200_LN_1_LD_2_RN_3_RD_10_0.png","I_Dist_200_LN_1_LD_3_RN_2_RD_15_0.png","I_Dist_200_LN_3_LD_4_RN_11_RD_20_0.png","I_Dist_200_LN_4_LD_5_RN_6_RD_10_0.png","I_Dist_200_LN_4_LD_6_RN_14_RD_30_0.png","I_Dist_200_LN_7_LD_10_RN_12_RD_24_0.png","I_Dist_200_LN_7_LD_10_RN_14_RD_28_0.png","I_Dist_200_LN_7_LD_10_RN_8_RD_16_0.png"],["I_Dist_200_LN_11_LD_20_RN_3_RD_4_1.png","I_Dist_200_LN_14_LD_30_RN_12_RD_18_1.png","I_Dist_200_LN_14_LD_30_RN_6_RD_9_1.png","I_Dist_200_LN_3_LD_10_RN_1_RD_2_1.png","I_Dist_200_LN_4_LD_30_RN_1_RD_3_1.png","I_Dist_200_LN_6_LD_20_RN_3_RD_6_1.png","I_Dist_200_LN_7_LD_15_RN_4_RD_6_1.png","I_Dist_200_LN_7_LD_15_RN_6_RD_9_1.png","I_Dist_200_LN_9_LD_15_RN_8_RD_10_1.png"]],"dist200_S":[["E_Dist_200_LN_3_LD_6_RN_3_RD_10_0.png"],["E_Dist_200_LN_3_LD_10_RN_3_RD_6_1.png"]],"dist300_C":[["C_Dist_300_LN_11_LD_22_RN_1_RD_5_0.png","C_Dist_300_LN_11_LD_22_RN_2_RD_10_0.png","C_Dist_300_LN_11_LD_22_RN_4_RD_20_0.png","C_Dist_300_LN_12_LD_24_RN_2_RD_10_0.png","C_Dist_300_LN_18_LD_20_RN_9_RD_15_0.png","C_Dist_300_LN_20_LD_25_RN_13_RD_26_0.png","C_Dist_300_LN_20_LD_25_RN_14_RD_28_0.png","C_Dist_300_LN_20_LD_25_RN_5_RD_10_0.png","C_Dist_300_LN_20_LD_25_RN_8_RD_16_0.png","C_Dist_300_LN_20_LD_25_RN_9_RD_18_0.png","C_Dist_300_LN_24_LD_30_RN_2_RD_4_0.png","C_Dist_300_LN_24_LD_30_RN_8_RD_16_0.png","C_Dist_300_LN_3_LD_6_RN_2_RD_10_0.png","C_Dist_300_LN_4_LD_10_RN_1_RD_10_0.png","C_Dist_300_LN_4_LD_5_RN_2_RD_4_0.png","C_Dist_300_LN_8_LD_16_RN_1_RD_5_0.png","C_Dist_300_LN_9_LD_10_RN_3_RD_5_0.png"],["C_Dist_300_LN_1_LD_20_RN_7_RD_20_1.png","C_Dist_300_LN_1_LD_3_RN_19_RD_30_1.png","C_Dist_300_LN_1_LD_30_RN_8_RD_24_1.png","C_Dist_300_LN_1_LD_5_RN_11_RD_22_1.png","C_Dist_300_LN_1_LD_5_RN_3_RD_6_1.png","C_Dist_300_LN_1_LD_5_RN_6_RD_12_1.png","C_Dist_300_LN_2_LD_10_RN_12_RD_24_1.png","C_Dist_300_LN_2_LD_20_RN_10_RD_25_1.png","C_Dist_300_LN_3_LD_12_RN_11_RD_20_1.png","C_Dist_300_LN_3_LD_6_RN_4_RD_5_1.png","C_Dist_300_LN_4_LD_20_RN_13_RD_26_1.png","C_Dist_300_LN_5_LD_25_RN_6_RD_12_1.png","C_Dist_300_LN_5_LD_25_RN_7_RD_14_1.png","C_Dist_300_LN_7_LD_14_RN_20_RD_25_1.png","C_Dist_300_LN_8_LD_15_RN_10_RD_12_1.png"]],"dist300_I":[["I_Dist_300_LN_1_LD_2_RN_2_RD_10_0.png","I_Dist_300_LN_1_LD_2_RN_3_RD_15_0.png","I_Dist_300_LN_2_LD_4_RN_6_RD_30_0.png","I_Dist_300_LN_3_LD_6_RN_4_RD_20_0.png","I_Dist_300_LN_4_LD_5_RN_6_RD_12_0.png","I_Dist_300_LN_4_LD_5_RN_8_RD_16_0.png","I_Dist_300_LN_7_LD_10_RN_8_RD_20_0.png","I_Dist_300_LN_8_LD_10_RN_14_RD_28_0.png","I_Dist_300_LN_8_LD_10_RN_9_RD_18_0.png"],["I_Dist_300_LN_13_LD_26_RN_12_RD_15_1.png","I_Dist_300_LN_4_LD_20_RN_2_RD_4_1.png"]],"dist300_S":[["E_Dist_300_LN_9_LD_12_RN_9_RD_20_0.png"],["E_Dist_300_LN_18_LD_30_RN_18_RD_20_1.png","E_Dist_300_LN_3_LD_10_RN_3_RD_5_1.png","E_Dist_300_LN_9_LD_20_RN_9_RD_12_1.png"]],"dist500_C":[["C_Dist_500_LN_10_LD_13_RN_7_RD_26_0.png","C_Dist_500_LN_10_LD_15_RN_4_RD_24_0.png","C_Dist_500_LN_12_LD_16_RN_3_RD_12_0.png","C_Dist_500_LN_12_LD_18_RN_4_RD_24_0.png","C_Dist_500_LN_15_LD_18_RN_5_RD_15_0.png","C_Dist_500_LN_15_LD_20_RN_1_RD_4_0.png","C_Dist_500_LN_18_LD_27_RN_1_RD_6_0.png","C_Dist_500_LN_20_LD_24_RN_1_RD_3_0.png","C_Dist_500_LN_20_LD_24_RN_3_RD_9_0.png","C_Dist_500_LN_20_LD_24_RN_7_RD_21_0.png","C_Dist_500_LN_20_LD_28_RN_3_RD_14_0.png","C_Dist_500_LN_21_LD_28_RN_6_RD_24_0.png","C_Dist_500_LN_22_LD_28_RN_2_RD_7_0.png","C_Dist_500_LN_25_LD_30_RN_9_RD_27_0.png","C_Dist_500_LN_4_LD_6_RN_1_RD_6_0.png","C_Dist_500_LN_5_LD_6_RN_2_RD_6_0.png","C_Dist_500_LN_6_LD_9_RN_1_RD_6_0.png","C_Dist_500_LN_7_LD_10_RN_1_RD_5_0.png","C_Dist_500_LN_8_LD_12_RN_1_RD_6_0.png","C_Dist_500_LN_8_LD_12_RN_4_RD_24_0.png"],["C_Dist_500_LN_1_LD_4_RN_12_RD_16_1.png","C_Dist_500_LN_1_LD_4_RN_9_RD_12_1.png","C_Dist_500_LN_1_LD_9_RN_11_RD_18_1.png","C_Dist_500_LN_10_LD_24_RN_22_RD_24_1.png","C_Dist_500_LN_2_LD_12_RN_10_RD_15_1.png","C_Dist_500_LN_2_LD_12_RN_12_RD_18_1.png","C_Dist_500_LN_2_LD_12_RN_4_RD_6_1.png","C_Dist_500_LN_2_LD_24_RN_7_RD_12_1.png","C_Dist_500_LN_2_LD_5_RN_18_RD_20_1.png","C_Dist_500_LN_2_LD_5_RN_9_RD_10_1.png","C_Dist_500_LN_2_LD_8_RN_12_RD_16_1.png","C_Dist_500_LN_2_LD_8_RN_21_RD_28_1.png","C_Dist_500_LN_3_LD_10_RN_4_RD_5_1.png","C_Dist_500_LN_3_LD_12_RN_15_RD_20_1.png","C_Dist_500_LN_3_LD_30_RN_6_RD_10_1.png","C_Dist_500_LN_3_LD_8_RN_14_RD_16_1.png","C_Dist_500_LN_4_LD_16_RN_15_RD_20_1.png","C_Dist_500_LN_4_LD_24_RN_12_RD_18_1.png","C_Dist_500_LN_5_LD_14_RN_6_RD_7_1.png","C_Dist_500_LN_7_LD_21_RN_20_RD_24_1.png","C_Dist_500_LN_7_LD_28_RN_12_RD_16_1.png","C_Dist_500_LN_7_LD_28_RN_9_RD_12_1.png","C_Dist_500_LN_9_LD_27_RN_20_RD_24_1.png"]],"dist500_I":[["I_Dist_500_LN_2_LD_3_RN_4_RD_24_0.png","I_Dist_500_LN_5_LD_6_RN_6_RD_18_0.png","I_Dist_500_LN_7_LD_8_RN_9_RD_24_0.png"],["I_Dist_500_LN_7_LD_21_RN_5_RD_6_1.png"]],"dist500_S":[["E_Dist_500_LN_6_LD_8_RN_6_RD_24_0.png"],["E_Dist_500_LN_2_LD_12_RN_2_RD_3_1.png","E_Dist_500_LN_6_LD_24_RN_6_RD_8_1.png"]]}},{"start_time":1552308709808,"click_time":1552308710804,"finger_time":1552308710265,"fix_duration":801.9068070455448,"trial":1,"RT":457,"MT":539,"sideResp":2,"stimulus":[],"xmouse":[816,816,816,816,816,816,816,816,816,815,815,815,815,815,815,815,815,815,815,815,819,825,848,858,867,875,880,903,920,941,961,977,995,1006,1018,1045,1087,1161,1168,1169,1169,1169,1178,1182,1182,1190,1190,1189,1163,1153],"ymouse":[634,634,634,634,634,634,634,634,634,634,634,634,634,634,634,634,634,634,634,634,623,614,576,557,542,531,524,483,447,394,352,333,317,298,268,208,151,54,42,39,38,38,24,13,13,0,0,0,21,31],"timestamp_mouse":[17,44,57,78,97,117,137,157,176,197,218,237,258,276,298,317,338,356,378,397,418,437,457,477,498,517,539,558,577,596,617,636,657,676,697,717,738,757,777,796,817,836,857,877,897,919,937,957,977,996],"xSR":741.5,"ySR":573.95,"xT1":424.9,"yT1":0,"xT2":1058.1,"yT2":0,"toosoon":0,"cond_shown":"Incongruent","ratio_trial":300,"L_num":8,"L_den":10,"R_num":14,"R_den":28,"correct_side":1,"subjID":"MariaPaulaBeltranMora34","gender":"1","school":"4","age":"9"},{"start_time":1552308712947,"click_time":1552308714105,"finger_time":1552308713745,"fix_duration":700.73928074602,"trial":2,"RT":798,"MT":360,"sideResp":1,"stimulus":[],"xmouse":[809,809,809,809,809,809,809,809,809,809,809,809,809,809,809,809,809,809,809,809,809,809,809,809,808,808,808,808,808,808,808,808,808,808,808,808,808,807,805,801,785,740,729,721,716,709,690,669,646,630,624,624,624,624,624,621,537,500],"ymouse":[611,611,611,611,611,611,611,611,612,612,612,612,612,612,612,612,612,612,612,612,612,612,612,612,611,611,611,611,611,611,611,611,611,611,611,611,611,606,584,543,471,338,309,284,264,238,187,148,110,85,78,78,78,78,77,73,35,28],"timestamp_mouse":[23,39,59,79,98,118,138,157,179,198,218,239,257,277,299,319,337,358,379,397,417,439,458,479,498,518,537,557,578,597,618,638,659,678,697,718,738,758,779,798,818,838,857,878,899,918,937,957,977,999,1018,1037,1057,1077,1098,1119,1138,1157],"xSR":741.5,"ySR":573.95,"xT1":424.9,"yT1":0,"xT2":1058.1,"yT2":0,"toosoon":0,"cond_shown":"Congruent","ratio_trial":100,"L_num":1,"L_den":2,"R_num":3,"R_den":5,"correct_side":2,"subjID":"MariaPaulaBeltranMora34","gender":"1","school":"4","age":"9"},{"start_time":1552308716457,"click_time":1552308718546,"finger_time":1552308717806,"fix_duration":1150.7449563307136,"trial":3,"RT":1349,"MT":740,"sideResp":1,"stimulus":[],"xmouse":[795,795,795,795,795,795,795,795,795,795,795,795,795,795,795,795,795,795,795,795,795,795,795,795,795,795,795,795,795,795,795,795,795,795,795,795,795,795,795,795,795,795,795,795,795,795,795,795,795,795,795,795,795,795,795,795,795,795,795,795,795,795,795,795,795,796,797,797,787,773,768,768,769,770,770,763,726,704,692,683,675,663,611,591,578,573,571,567,564,563,561,559,549,542,536,532,531,531,531,531,531,530,527,525,523],"ymouse":[631,631,631,631,631,631,631,631,631,631,631,631,631,631,631,631,631,631,631,631,631,631,631,631,631,631,631,631,631,631,631,631,631,631,631,631,631,631,631,631,631,631,631,631,631,631,631,631,631,631,631,631,631,631,631,631,631,631,631,631,631,631,631,631,631,627,614,566,498,386,352,335,310,293,269,240,172,148,140,133,126,112,42,12,0,0,0,1,3,3,3,5,13,18,23,26,27,27,27,27,27,28,29,30,32],"timestamp_mouse":[9,37,48,68,89,108,128,149,169,187,209,229,247,267,289,309,329,348,369,389,407,427,449,469,489,507,527,548,567,589,609,627,647,669,689,707,729,748,769,788,808,829,847,869,889,907,928,948,967,987,1007,1028,1049,1069,1088,1109,1127,1147,1169,1188,1208,1228,1247,1268,1288,1308,1328,1349,1368,1388,1408,1428,1449,1468,1489,1508,1529,1548,1568,1587,1608,1628,1648,1669,1689,1707,1727,1747,1768,1788,1809,1829,1849,1868,1888,1909,1930,1948,1969,1987,2007,2029,2048,2067,2088],"xSR":741.5,"ySR":573.95,"xT1":424.9,"yT1":0,"xT2":1058.1,"yT2":0,"toosoon":0,"cond_shown":"Incongruent","ratio_trial":200,"L_num":7,"L_den":15,"R_num":6,"R_den":9,"correct_side":2,"subjID":"MariaPaulaBeltranMora34","gender":"1","school":"4","age":"9"},{"start_time":1552308720962,"click_time":1552308722645,"finger_time":1552308722104,"fix_duration":935.8581613934026,"trial":4,"RT":1142,"MT":541,"sideResp":2,"stimulus":[],"xmouse":[788,788,788,788,788,788,788,788,788,788,788,788,788,788,788,788,788,788,788,788,788,788,788,788,788,788,788,788,788,788,788,788,788,788,788,788,788,788,788,788,788,788,788,788,788,788,788,788,788,788,788,788,788,788,798,806,825,869,891,904,913,924,946,951,955,959,960,961,962,965,971,986,1020,1036,1050,1053,1053,1053,1063,1082,1096,1108,1108,1108,1107],"ymouse":[634,634,634,634,634,634,634,634,634,634,634,634,634,634,634,634,634,634,634,634,634,634,634,634,634,634,634,634,634,634,634,634,634,634,634,634,634,634,634,634,634,634,634,634,634,634,634,634,634,634,634,634,634,634,626,615,593,545,514,496,481,456,392,363,325,293,264,225,221,216,206,177,83,36,5,0,0,0,0,0,0,0,0,0,9],"timestamp_mouse":[13,23,44,63,82,102,124,142,162,184,202,224,244,263,283,304,324,342,363,383,402,422,444,463,482,504,524,543,563,582,602,624,642,663,684,704,723,742,764,783,802,824,844,863,884,903,924,943,963,984,1003,1022,1042,1064,1083,1104,1122,1142,1164,1184,1203,1224,1243,1262,1282,1304,1324,1343,1362,1382,1402,1424,1442,1462,1484,1503,1524,1543,1562,1582,1603,1622,1643,1664,1683],"xSR":741.5,"ySR":573.95,"xT1":424.9,"yT1":0,"xT2":1058.1,"yT2":0,"toosoon":0,"cond_shown":"Incongruent","ratio_trial":100,"L_num":17,"L_den":30,"R_num":10,"R_den":15,"correct_side":2,"subjID":"MariaPaulaBeltranMora34","gender":"1","school":"4","age":"9"},{"start_time":1552308730941,"click_time":1552308732845,"finger_time":1552308732465,"fix_duration":1413.259267992139,"trial":5,"RT":1524,"MT":380,"sideResp":1,"stimulus":[],"xmouse":[798,793,789,787,786,786,785,784,782,781,781,781,781,781,781,781,781,781,781,781,781,781,781,781,781,781,781,781,781,781,781,781,781,781,781,781,781,781,781,781,781,781,781,781,781,781,781,781,781,781,781,781,781,781,781,781,781,781,781,781,781,781,781,781,781,781,781,781,781,781,781,780,780,779,777,776,771,766,744,692,659,621,591,575,567,564,561,553,545,535,527,527,527,527,527,523],"ymouse":[615,608,605,603,603,603,603,603,604,604,605,605,605,605,605,605,605,605,605,605,605,605,605,605,605,605,605,605,605,605,605,605,605,605,605,605,605,605,605,605,605,605,605,605,605,605,605,605,605,605,605,605,605,605,605,605,605,605,605,605,605,605,605,605,605,605,605,605,605,605,605,599,596,593,584,575,537,516,434,332,290,243,215,195,186,175,159,128,105,86,72,72,72,72,70,58],"timestamp_mouse":[9,25,48,63,83,104,123,143,165,183,205,223,244,265,283,305,324,343,363,385,404,425,445,464,484,504,523,545,565,584,604,623,644,664,683,704,725,744,765,785,804,823,845,865,884,903,925,944,965,983,1004,1023,1045,1065,1083,1104,1123,1145,1165,1185,1204,1225,1244,1263,1283,1304,1325,1344,1364,1384,1405,1423,1443,1463,1484,1504,1524,1545,1564,1584,1604,1623,1643,1664,1684,1704,1724,1745,1763,1783,1804,1824,1844,1865,1884,1903],"xSR":741.5,"ySR":573.95,"xT1":424.9,"yT1":0,"xT2":1058.1,"yT2":0,"toosoon":0,"cond_shown":"Congruent","ratio_trial":200,"L_num":11,"L_den":22,"R_num":3,"R_den":10,"correct_side":1,"subjID":"MariaPaulaBeltranMora34","gender":"1","school":"4","age":"9"},{"start_time":1552308741631,"click_time":1552308743225,"finger_time":1552308742985,"fix_duration":702.5367455738832,"trial":6,"RT":1354,"MT":240,"sideResp":1,"stimulus":[],"xmouse":[800,800,800,800,800,800,800,800,800,800,800,800,800,800,800,800,800,800,800,800,800,800,800,800,800,800,800,800,800,800,800,800,800,800,800,800,800,800,800,800,800,800,800,800,800,800,800,800,800,800,800,800,800,800,800,800,800,800,800,800,800,800,800,800,800,800,795,784,740,697,667,646,646,645,643,631,574,524,515,506],"ymouse":[613,613,613,613,613,613,613,613,613,613,613,613,613,613,613,613,613,613,613,613,613,613,613,613,613,613,613,613,613,613,613,613,613,613,613,613,613,613,613,613,613,613,613,613,613,613,613,613,613,613,613,613,613,613,613,613,613,613,613,613,613,613,613,613,613,613,596,547,431,359,313,280,278,277,269,248,173,111,102,90],"timestamp_mouse":[15,33,53,74,94,114,134,154,173,193,213,234,254,274,295,315,335,354,374,394,414,435,453,473,493,513,535,554,574,594,614,634,653,673,694,714,735,754,773,794,814,833,854,875,894,913,935,953,975,995,1013,1034,1053,1075,1095,1114,1135,1155,1174,1194,1214,1234,1255,1274,1294,1313,1333,1354,1375,1393,1414,1433,1453,1475,1495,1514,1534,1554,1575,1594],"xSR":741.5,"ySR":573.95,"xT1":424.9,"yT1":0,"xT2":1058.1,"yT2":0,"toosoon":0,"cond_shown":"Congruent","ratio_trial":300,"L_num":9,"L_den":10,"R_num":3,"R_den":5,"correct_side":1,"subjID":"MariaPaulaBeltranMora34","gender":"1","school":"4","age":"9"},{"start_time":1552308746527,"click_time":1552308748245,"finger_time":1552308747844,"fix_duration":1319.2963922836266,"trial":7,"RT":1317,"MT":401,"sideResp":1,"stimulus":[],"xmouse":[798,798,798,798,798,798,798,798,798,798,798,798,798,798,798,798,798,798,798,798,798,798,798,798,798,798,798,798,798,798,798,798,798,798,798,798,798,798,798,798,798,798,798,798,798,798,798,798,798,798,798,798,798,798,798,798,798,798,798,798,798,798,798,798,795,783,757,750,747,746,746,729,714,700,687,678,659,643,609,573,536,498,497,493,490,488],"ymouse":[634,634,634,634,634,634,634,634,634,634,634,634,634,634,634,634,634,634,634,634,634,634,634,634,634,634,634,634,634,634,634,634,634,634,634,634,634,634,634,634,634,634,634,634,634,634,634,634,634,634,634,634,634,634,634,634,634,634,634,634,634,634,634,614,599,560,499,481,468,451,416,288,258,237,222,212,180,147,93,43,0,0,0,0,0,1],"timestamp_mouse":[18,38,59,78,98,119,138,159,177,197,219,238,259,278,299,319,337,358,377,398,419,439,458,479,498,519,538,559,578,598,617,638,657,679,698,719,739,758,778,798,817,838,859,878,898,917,939,957,978,999,1018,1039,1058,1078,1099,1117,1139,1158,1177,1199,1218,1238,1258,1278,1297,1317,1338,1359,1378,1398,1418,1438,1459,1477,1498,1518,1537,1557,1579,1598,1619,1638,1657,1678,1699,1718],"xSR":741.5,"ySR":573.95,"xT1":424.9,"yT1":0,"xT2":1058.1,"yT2":0,"toosoon":0,"cond_shown":"Congruent","ratio_trial":300,"L_num":12,"L_den":24,"R_num":2,"R_den":10,"correct_side":1,"subjID":"MariaPaulaBeltranMora34","gender":"1","school":"4","age":"9"},{"start_time":1552308753880,"click_time":1552308754946,"finger_time":1552308754644,"fix_duration":813.6749478965979,"trial":8,"RT":764,"MT":302,"sideResp":2,"stimulus":[],"xmouse":[775,775,775,775,775,775,775,775,775,775,776,780,782,784,786,787,787,787,787,787,787,787,787,787,787,787,787,787,787,787,787,787,787,787,787,787,805,818,881,951,1068,1082,1085,1086,1089,1101,1108,1113,1114,1115,1114,1113,1113,1113],"ymouse":[600,600,600,600,600,600,600,600,600,600,604,608,611,613,614,615,615,615,615,615,615,615,615,615,615,615,615,615,615,615,615,615,615,615,615,615,604,593,549,488,391,381,378,377,372,334,300,271,253,247,229,187,124,40],"timestamp_mouse":[9,34,44,65,85,106,125,146,166,185,204,225,245,265,285,304,326,345,366,385,406,426,446,465,486,505,524,545,566,585,606,624,645,666,685,706,725,745,764,784,805,825,845,866,886,905,924,944,965,986,1005,1025,1045,1066],"xSR":741.5,"ySR":573.95,"xT1":424.9,"yT1":0,"xT2":1058.1,"yT2":0,"toosoon":0,"cond_shown":"Incongruent","ratio_trial":300,"L_num":4,"L_den":5,"R_num":8,"R_den":16,"correct_side":1,"subjID":"MariaPaulaBeltranMora34","gender":"1","school":"4","age":"9"},{"start_time":1552308759865,"click_time":1552308762404,"finger_time":1552308761205,"fix_duration":1478.5201705552447,"trial":9,"RT":1340,"MT":1199,"sideResp":1,"stimulus":[],"xmouse":[779,779,779,779,779,779,777,773,769,767,766,765,764,764,764,764,764,764,764,764,764,764,764,764,764,764,764,764,764,764,764,764,764,764,764,764,764,764,764,764,764,764,764,764,764,764,764,764,764,764,764,764,764,764,764,764,764,764,764,764,764,764,764,764,772,776,777,757,733,694,662,632,607,605,605,604,598,597,597,597,597,597,597,597,597,597,597,596,583,570,555,544,531,529,528,527,524,523,523,523,523,525,526,526,527,527,528,528,528,528,528,528,528,528,528,528,528,528,528,528,528,528,528,528,528,528,525,524],"ymouse":[615,615,615,615,615,615,616,624,631,635,637,645,648,649,649,649,649,649,649,649,649,649,649,649,649,649,649,649,649,649,649,649,649,649,649,649,649,649,649,649,649,649,649,649,649,649,649,649,649,649,649,649,649,649,649,649,649,649,649,649,649,649,649,649,625,610,581,515,472,399,343,288,236,228,226,224,222,222,222,222,222,222,222,222,222,222,222,221,216,206,196,185,168,164,161,157,148,145,139,135,131,116,105,95,87,82,81,81,81,81,81,81,81,81,81,81,81,81,80,79,79,79,79,79,79,79,79,79],"timestamp_mouse":[1,20,40,61,80,100,121,141,159,179,201,221,239,261,279,300,320,341,361,379,400,421,441,460,480,500,521,540,561,580,601,619,640,660,681,701,720,739,760,779,800,821,840,861,879,900,920,940,961,981,1000,1021,1040,1061,1080,1100,1120,1140,1160,1181,1201,1220,1239,1260,1281,1301,1319,1340,1360,1381,1400,1420,1439,1460,1480,1500,1521,1540,1561,1580,1599,1619,1640,1659,1679,1699,1720,1741,1761,1780,1800,1820,1839,1859,1881,1900,1921,1939,1960,1980,2001,2021,2039,2060,2080,2100,2119,2139,2159,2179,2200,2221,2240,2259,2280,2301,2321,2341,2360,2380,2399,2419,2441,2460,2481,2500,2521,2539],"xSR":741.5,"ySR":573.95,"xT1":424.9,"yT1":0,"xT2":1058.1,"yT2":0,"toosoon":0,"cond_shown":"Incongruent","ratio_trial":300,"L_num":13,"L_den":26,"R_num":12,"R_den":15,"correct_side":2,"subjID":"MariaPaulaBeltranMora34","gender":"1","school":"4","age":"9"},{"start_time":1552308766738,"click_time":1552308768465,"finger_time":1552308768005,"fix_duration":250,"trial":10,"RT":1267,"MT":460,"sideResp":2,"stimulus":[],"xmouse":[784,784,784,784,784,784,784,784,784,784,784,784,784,784,784,784,784,784,784,784,784,784,784,784,784,784,784,784,784,784,784,784,784,784,784,784,784,784,784,784,784,784,784,784,784,784,784,784,784,784,784,784,784,784,784,784,784,784,784,784,784,784,784,803,815,830,846,860,894,915,936,969,1019,1031,1033,1039,1045,1055,1072,1076,1078,1078,1078,1078,1080,1087,1093],"ymouse":[604,604,604,604,604,604,604,604,604,604,604,604,604,604,604,604,604,604,604,604,604,604,604,604,604,604,604,604,604,604,604,604,604,604,604,604,604,604,604,604,604,604,604,604,604,604,604,604,604,604,604,604,604,604,604,604,604,604,604,604,604,603,598,565,548,529,510,492,451,429,402,359,304,286,281,266,249,226,184,164,150,140,135,132,124,110,94],"timestamp_mouse":[9,33,48,68,88,108,126,147,167,186,206,228,248,266,288,308,327,348,367,387,408,428,447,466,488,506,527,548,567,588,607,627,648,667,687,707,726,747,767,788,808,827,848,868,886,906,926,948,966,987,1007,1028,1048,1067,1087,1106,1127,1148,1168,1186,1207,1226,1247,1267,1286,1306,1327,1348,1367,1386,1407,1428,1446,1467,1486,1506,1526,1547,1567,1586,1608,1628,1648,1666,1687,1706,1727],"xSR":741.5,"ySR":573.95,"xT1":424.9,"yT1":0,"xT2":1058.1,"yT2":0,"toosoon":0,"cond_shown":"Congruent","ratio_trial":100,"L_num":7,"L_den":14,"R_num":15,"R_den":25,"correct_side":2,"subjID":"MariaPaulaBeltranMora34","gender":"1","school":"4","age":"9"},{"start_time":1552308769978,"click_time":1552308771525,"finger_time":1552308770805,"fix_duration":250,"trial":11,"RT":827,"MT":720,"sideResp":2,"stimulus":[],"xmouse":[756,756,756,756,756,756,756,756,756,756,756,756,756,756,756,756,756,756,756,756,756,756,756,756,756,756,756,756,756,756,756,756,756,756,756,756,756,756,756,758,760,761,754,735,717,706,702,704,708,718,731,748,816,861,908,976,1129,1192,1244,1254,1254,1254,1254,1254,1254,1254,1254,1254,1254,1254,1246,1232,1183,1168,1163,1162,1161,1152],"ymouse":[603,603,603,603,603,603,603,603,603,603,603,603,603,603,603,603,603,603,603,603,603,603,603,603,603,603,603,603,603,603,603,603,603,603,603,603,603,603,603,602,589,570,498,438,390,354,335,305,301,297,297,299,334,350,356,354,275,216,101,36,2,0,0,0,0,0,0,0,0,0,4,11,24,26,26,26,26,26],"timestamp_mouse":[13,35,46,67,87,108,128,147,167,188,207,228,247,267,287,308,326,346,366,388,408,428,446,466,487,508,527,548,568,587,607,628,647,667,688,707,727,746,768,787,808,827,847,866,887,907,926,946,967,987,1008,1026,1047,1068,1088,1108,1128,1146,1168,1187,1207,1228,1247,1268,1287,1308,1328,1347,1367,1387,1407,1427,1448,1467,1488,1507,1527,1546],"xSR":741.5,"ySR":573.95,"xT1":424.9,"yT1":0,"xT2":1058.1,"yT2":0,"toosoon":0,"cond_shown":"Incongruent","ratio_trial":100,"L_num":6,"L_den":10,"R_num":7,"R_den":14,"correct_side":1,"subjID":"MariaPaulaBeltranMora34","gender":"1","school":"4","age":"9"},{"start_time":1552308788114,"click_time":1552308788605,"finger_time":1552308788446,"fix_duration":768.3657162128674,"trial":12,"RT":332,"MT":159,"sideResp":2,"stimulus":[],"xmouse":[786,786,786,786,786,786,786,786,786,786,786,786,786,786,790,808,866,891,908,923,936,969,1001,1051,1101],"ymouse":[634,634,634,634,634,634,634,634,634,634,634,634,634,634,628,609,536,498,458,414,370,256,185,104,26],"timestamp_mouse":[10,38,51,70,90,112,132,151,170,191,212,230,251,271,292,311,332,350,371,391,412,432,450,470,490],"xSR":741.5,"ySR":573.95,"xT1":424.9,"yT1":0,"xT2":1058.1,"yT2":0,"toosoon":0,"cond_shown":"Congruent","ratio_trial":300,"L_num":20,"L_den":25,"R_num":8,"R_den":16,"correct_side":1,"subjID":"MariaPaulaBeltranMora34","gender":"1","school":"4","age":"9"},{"start_time":1552308790416,"click_time":1552308792165,"finger_time":1552308791706,"fix_duration":250,"trial":13,"RT":1290,"MT":459,"sideResp":1,"stimulus":[],"xmouse":[823,821,820,819,818,818,818,818,818,818,818,818,817,815,815,815,815,815,815,815,815,815,815,815,815,815,815,815,815,815,815,815,815,815,815,815,815,815,815,815,815,815,815,815,815,815,815,815,815,815,815,815,815,815,815,815,815,815,815,815,815,815,815,819,826,826,821,772,751,744,741,740,740,740,740,734,713,655,628,610,603,601,597,584,565,539,525,521],"ymouse":[617,618,618,618,619,619,619,619,619,619,619,619,620,622,622,622,622,622,622,622,621,621,621,621,621,619,619,619,619,619,619,619,619,619,619,619,619,619,619,619,617,616,615,615,615,615,615,615,615,615,615,615,615,615,615,615,615,615,615,615,615,615,613,592,548,483,382,116,53,25,18,17,17,17,17,17,17,23,30,35,37,38,38,38,38,45,49,50],"timestamp_mouse":[8,38,48,70,88,110,130,148,169,189,210,230,249,270,290,310,329,349,368,388,409,430,449,469,488,509,529,549,569,589,609,630,650,669,688,709,730,749,769,789,809,830,849,869,889,909,930,948,969,990,1010,1028,1048,1070,1090,1110,1129,1148,1170,1190,1210,1228,1249,1269,1290,1310,1328,1348,1368,1388,1409,1428,1449,1469,1489,1510,1529,1548,1570,1588,1610,1629,1649,1668,1689,1710,1730,1749],"xSR":741.5,"ySR":573.95,"xT1":424.9,"yT1":0,"xT2":1058.1,"yT2":0,"toosoon":0,"cond_shown":"Incongruent","ratio_trial":300,"L_num":13,"L_den":26,"R_num":12,"R_den":15,"correct_side":2,"subjID":"MariaPaulaBeltranMora34","gender":"1","school":"4","age":"9"},{"start_time":1552308795289,"click_time":1552308796025,"finger_time":1552308795866,"fix_duration":762.2278455211178,"trial":14,"RT":577,"MT":159,"sideResp":2,"stimulus":[],"xmouse":[806,806,806,806,806,806,806,806,806,806,806,806,806,806,806,806,806,806,806,806,806,806,807,807,807,808,809,813,854,878,920,959,996,1079,1108,1133,1155],"ymouse":[637,637,637,637,637,637,637,637,637,637,637,637,637,637,637,637,637,637,637,637,637,637,638,639,639,639,639,639,565,509,423,359,309,214,173,133,93],"timestamp_mouse":[18,42,56,76,95,115,135,155,175,195,215,235,255,275,295,315,335,355,375,395,415,436,457,475,496,517,537,556,577,596,615,636,657,677,696,716,736],"xSR":741.5,"ySR":573.95,"xT1":424.9,"yT1":0,"xT2":1058.1,"yT2":0,"toosoon":0,"cond_shown":"Incongruent","ratio_trial":200,"L_num":3,"L_den":4,"R_num":11,"R_den":20,"correct_side":1,"subjID":"MariaPaulaBeltranMora34","gender":"1","school":"4","age":"9"},{"start_time":1552308806327,"click_time":1552308814005,"finger_time":1552308811326,"fix_duration":861.0221746025569,"trial":15,"RT":4999,"MT":2679,"sideResp":1,"stimulus":[],"xmouse":[813,813,813,813,813,813,813,813,813,813,813,813,813,813,813,813,813,813,813,813,813,813,813,813,813,813,813,813,813,813,813,813,813,813,813,813,813,813,813,813,813,813,813,813,813,813,813,813,813,813,813,813,813,813,813,813,813,813,813,813,813,813,813,813,813,813,813,813,813,813,813,813,813,813,813,813,813,813,813,813,813,813,813,813,813,813,813,813,813,813,813,813,813,813,813,813,813,813,813,813,813,813,813,813,813,813,813,813,813,813,813,813,813,813,813,813,813,813,813,813,813,813,813,813,813,813,813,813,813,813,813,813,813,813,813,813,813,813,813,813,813,813,813,813,813,813,813,813,813,813,813,813,813,813,813,813,813,813,813,813,813,813,813,813,813,813,813,813,813,813,813,813,813,813,813,813,813,813,813,813,813,813,813,813,813,813,813,813,813,813,813,813,813,813,813,813,813,813,813,813,813,813,813,813,813,813,813,813,813,813,813,813,813,813,813,813,813,813,813,813,813,813,813,813,813,813,813,813,813,813,813,813,813,813,813,813,813,813,813,813,813,813,813,813,813,813,813,813,829,889,896,896,896,896,896,896,896,896,896,896,896,896,896,895,887,878,863,849,844,844,844,844,838,837,835,831,827,817,791,783,778,774,771,767,767,767,767,767,767,767,767,767,767,767,767,767,767,767,767,767,767,767,767,767,767,767,767,767,767,767,767,767,767,767,767,770,773,784,807,821,836,842,846,846,846,846,846,846,846,846,846,857,866,927,966,1008,1042,1063,1089,1101,1111,1119,1134,1165,1173,1175,1173,1169,1149,1133,1112,1061,1026,967,942,916,889,826,826,744,715,698,678,655,600,575,553,538,528,517,502,480,455,415,405,402,401,401,401,401,402,411,420,430],"ymouse":[629,629,629,629,629,629,629,629,629,629,629,629,629,629,629,629,629,629,629,629,629,629,629,629,629,629,629,629,629,629,629,629,629,629,629,629,629,629,629,629,629,629,629,629,629,629,629,629,629,629,629,629,629,629,629,629,629,629,629,629,629,629,629,629,629,629,629,629,629,629,629,629,629,629,629,629,629,629,629,629,629,629,629,629,629,629,629,629,629,629,629,629,629,629,629,629,629,629,629,629,629,629,629,629,629,629,629,629,629,629,629,629,629,629,629,629,629,629,629,629,629,629,629,629,629,629,629,629,629,629,629,629,629,629,629,629,629,629,629,629,629,629,629,629,629,629,629,629,629,629,629,629,629,629,629,629,629,629,629,629,629,629,629,629,629,629,629,629,629,629,629,629,629,629,629,629,629,629,629,629,629,629,629,629,629,629,629,629,629,629,629,629,629,629,629,629,629,629,629,629,629,629,629,629,629,629,629,629,629,629,629,629,629,629,629,629,629,629,629,629,629,629,629,629,629,629,629,629,629,629,629,629,629,629,629,629,629,629,629,629,629,629,629,629,629,629,629,629,633,648,652,652,652,652,652,652,652,652,652,652,652,652,652,652,645,628,606,589,582,582,582,581,575,573,572,572,572,574,585,589,593,598,604,610,610,610,610,610,610,610,610,610,610,610,610,610,610,610,610,610,610,610,610,610,610,610,610,610,610,610,610,610,610,610,612,614,614,615,616,616,613,612,611,611,611,611,611,611,611,611,611,608,607,592,569,544,527,513,488,473,463,455,441,373,336,309,283,264,227,207,185,137,106,56,37,23,10,0,0,0,0,0,0,0,0,0,0,0,0,0,0,0,0,0,0,3,3,3,3,4,9,21,34,48],"timestamp_mouse":[18,39,58,78,97,119,139,157,178,198,218,238,258,278,299,317,338,359,377,397,419,439,459,477,499,518,537,558,579,597,618,638,657,679,697,717,738,758,778,797,817,839,859,877,897,919,937,959,978,998,1017,1037,1059,1078,1097,1118,1139,1159,1178,1199,1219,1237,1259,1277,1299,1319,1337,1357,1378,1399,1418,1439,1458,1478,1499,1517,1537,1559,1578,1599,1619,1638,1657,1679,1699,1718,1737,1759,1777,1799,1817,1838,1859,1879,1899,1918,1938,1959,1978,1999,2017,2037,2059,2078,2099,2119,2139,2159,2179,2198,2217,2238,2259,2279,2297,2318,2337,2358,2377,2399,2418,2439,2459,2478,2499,2518,2537,2559,2579,2599,2618,2639,2658,2678,2698,2719,2739,2759,2778,2797,2819,2839,2858,2877,2899,2918,2939,2959,2978,2998,3018,3038,3059,3078,3099,3119,3139,3158,3179,3198,3218,3239,3258,3277,3298,3319,3338,3359,3378,3399,3418,3438,3459,3478,3498,3519,3539,3558,3578,3599,3619,3638,3657,3678,3699,3718,3739,3759,3779,3799,3819,3839,3859,3878,3899,3918,3938,3958,3979,3998,4019,4038,4059,4079,4099,4119,4138,4159,4178,4198,4218,4239,4259,4279,4299,4318,4338,4359,4379,4398,4417,4437,4459,4478,4498,4519,4539,4559,4577,4598,4617,4639,4658,4679,4698,4718,4739,4758,4778,4797,4818,4839,4859,4878,4898,4919,4939,4959,4978,4999,5017,5037,5059,5078,5097,5117,5138,5158,5179,5199,5219,5238,5258,5278,5298,5318,5338,5359,5377,5397,5417,5439,5458,5478,5498,5518,5539,5559,5578,5599,5618,5638,5658,5677,5699,5718,5739,5759,5777,5797,5817,5839,5858,5878,5897,5918,5937,5959,5977,5999,6019,6037,6059,6079,6099,6118,6139,6159,6177,6199,6219,6237,6259,6279,6297,6318,6339,6359,6378,6397,6418,6439,6458,6478,6498,6517,6538,6558,6579,6599,6618,6637,6659,6678,6697,6719,6738,6757,6778,6799,6819,6838,6858,6878,6898,6918,6939,6959,6978,6997,7017,7037,7059,7078,7097,7118,7139,7157,7178,7198,7218,7237,7259,7279,7298,7318,7339,7359,7378,7398,7418,7438,7459,7479,7498,7518,7539,7558,7578,7598,7618,7637,7657,7677],"xSR":741.5,"ySR":573.95,"xT1":424.9,"yT1":0,"xT2":1058.1,"yT2":0,"toosoon":0,"cond_shown":"Incongruent","ratio_trial":200,"L_num":7,"L_den":10,"R_num":12,"R_den":24,"correct_side":1,"subjID":"MariaPaulaBeltranMora34","gender":"1","school":"4","age":"9"},{"start_time":1552308816129,"click_time":1552308818046,"finger_time":1552308817625,"fix_duration":704.528941435711,"trial":16,"RT":1496,"MT":421,"sideResp":1,"stimulus":[],"xmouse":[802,802,802,802,802,802,802,802,802,802,802,802,802,802,802,802,802,802,802,802,802,802,802,802,802,802,802,802,802,802,802,802,802,802,802,802,802,802,802,802,802,802,802,802,802,802,802,802,802,802,802,802,802,802,802,802,802,802,802,802,802,802,802,802,802,802,802,802,802,802,802,802,802,802,800,784,764,735,693,655,648,644,643,640,632,627,623,617,608,593,585,578,569,559,533,522],"ymouse":[605,605,605,605,605,605,605,605,605,605,605,605,605,605,605,605,605,605,605,605,605,605,605,605,605,605,605,605,605,605,605,605,605,605,605,605,605,605,605,605,605,605,605,605,605,605,605,605,605,605,605,605,605,605,605,605,605,605,605,605,605,605,605,605,605,605,605,605,605,605,605,605,605,596,568,511,453,386,302,227,202,185,172,159,136,123,111,101,91,84,81,79,75,68,54,50],"timestamp_mouse":[16,37,55,77,96,115,137,157,176,197,216,236,257,275,295,316,337,355,377,397,417,436,456,477,496,517,536,557,577,597,616,636,657,676,697,716,737,757,776,795,815,837,857,877,897,916,936,956,975,995,1016,1036,1057,1075,1095,1115,1136,1156,1177,1196,1215,1237,1256,1276,1295,1317,1337,1355,1376,1397,1416,1437,1457,1476,1496,1516,1535,1556,1577,1596,1615,1636,1656,1676,1697,1717,1737,1756,1776,1796,1815,1835,1856,1877,1896,1917],"xSR":741.5,"ySR":573.95,"xT1":424.9,"yT1":0,"xT2":1058.1,"yT2":0,"toosoon":0,"cond_shown":"Congruent","ratio_trial":100,"L_num":6,"L_den":20,"R_num":5,"R_den":25,"correct_side":1,"subjID":"MariaPaulaBeltranMora34","gender":"1","school":"4","age":"9"},{"start_time":1552308822886,"click_time":1552308824706,"finger_time":1552308824266,"fix_duration":477.2110649208643,"trial":17,"RT":1380,"MT":440,"sideResp":1,"stimulus":[],"xmouse":[777,777,777,777,777,777,777,777,777,777,777,777,777,777,777,777,777,777,777,777,777,777,777,777,777,777,777,777,777,777,777,777,777,777,777,777,777,777,777,777,777,777,777,777,777,777,777,777,777,777,777,777,777,777,777,777,777,777,777,777,777,777,777,777,777,777,783,785,798,807,813,815,815,815,815,815,815,815,819,823,827,829,829,808,781,739,677,637,568,532,491,447],"ymouse":[623,623,623,623,623,623,623,623,623,623,623,623,623,623,623,623,623,623,623,623,623,623,623,623,623,623,623,623,623,623,623,623,623,623,623,623,623,623,623,623,623,623,623,623,623,623,623,623,623,623,623,623,623,623,623,623,623,623,623,623,623,623,623,623,623,623,618,616,592,570,541,513,485,435,405,380,358,339,301,288,277,267,260,241,235,233,224,216,181,155,128,96],"timestamp_mouse":[1,19,39,60,80,98,119,139,160,179,199,220,239,258,280,300,319,339,358,380,399,420,440,459,480,498,519,539,559,578,600,620,640,659,680,699,720,739,760,779,800,820,839,859,880,899,920,940,960,979,1000,1020,1038,1058,1079,1098,1120,1140,1158,1180,1199,1218,1240,1260,1278,1300,1318,1340,1358,1380,1399,1420,1438,1459,1480,1499,1520,1539,1559,1579,1599,1618,1638,1658,1679,1699,1720,1740,1759,1779,1798,1820],"xSR":741.5,"ySR":573.95,"xT1":424.9,"yT1":0,"xT2":1058.1,"yT2":0,"toosoon":0,"cond_shown":"Congruent","ratio_trial":100,"L_num":7,"L_den":14,"R_num":9,"R_den":15,"correct_side":2,"subjID":"MariaPaulaBeltranMora34","gender":"1","school":"4","age":"9"},{"start_time":1552308827186,"click_time":1552308829345,"finger_time":1552308828565,"fix_duration":1098.1266734033634,"trial":18,"RT":1379,"MT":780,"sideResp":1,"stimulus":[],"xmouse":[772,772,772,772,772,772,772,772,772,772,772,772,772,772,772,772,772,772,772,772,772,772,772,772,772,772,772,772,772,772,772,772,772,772,772,772,772,772,772,772,772,772,772,772,772,772,772,772,772,772,772,772,772,772,772,772,772,772,772,772,772,772,772,772,772,772,772,773,775,775,768,763,754,742,735,725,715,699,664,644,627,613,608,600,599,598,595,591,587,587,587,587,587,572,563,555,545,536,530,529,529,529,529,529,529,529,527,526,512],"ymouse":[639,639,639,639,639,639,639,639,639,639,639,639,639,639,639,639,639,639,639,639,639,639,639,639,639,639,639,639,639,639,639,639,639,639,639,639,639,639,639,639,639,639,639,639,639,639,639,639,639,639,639,639,639,639,639,639,639,639,639,639,639,639,639,639,639,639,639,626,582,554,531,509,489,464,446,430,409,384,336,308,284,253,235,202,189,176,164,153,146,146,146,146,146,137,132,128,125,121,118,117,117,117,117,117,117,117,115,114,99],"timestamp_mouse":[1,20,38,59,79,99,119,139,158,179,200,220,238,260,280,300,318,339,358,380,400,419,438,459,480,499,518,538,560,579,599,618,640,659,680,699,719,740,759,780,798,819,839,858,878,899,919,939,960,979,999,1019,1039,1059,1079,1099,1119,1139,1159,1180,1199,1219,1240,1260,1280,1298,1318,1339,1359,1379,1399,1419,1439,1459,1478,1499,1519,1540,1559,1579,1600,1619,1639,1659,1678,1700,1719,1740,1759,1779,1798,1819,1838,1859,1879,1898,1919,1939,1959,1980,1998,2019,2039,2059,2078,2098,2119,2140,2159],"xSR":741.5,"ySR":573.95,"xT1":424.9,"yT1":0,"xT2":1058.1,"yT2":0,"toosoon":0,"cond_shown":"Incongruent","ratio_trial":200,"L_num":1,"L_den":2,"R_num":3,"R_den":10,"correct_side":1,"subjID":"MariaPaulaBeltranMora34","gender":"1","school":"4","age":"9"},{"start_time":1552308833928,"click_time":1552308846107,"finger_time":1552308844926,"fix_duration":1479.6515176387472,"trial":19,"RT":10998,"MT":1181,"sideResp":1,"stimulus":[],"xmouse":[827,827,827,827,827,827,827,827,827,827,827,827,827,827,827,827,827,827,827,827,827,827,827,827,827,827,827,827,827,827,827,827,827,827,827,827,827,827,827,827,827,827,827,827,827,827,827,827,827,827,827,827,827,827,827,827,827,827,827,827,827,827,827,827,827,827,827,827,827,827,827,827,827,827,827,827,827,827,827,827,827,827,827,827,827,827,827,827,827,827,827,827,827,827,827,827,827,827,827,827,827,827,827,827,827,827,827,827,827,827,827,827,827,827,827,827,827,827,827,827,827,827,827,827,827,827,827,827,827,827,827,827,827,827,827,827,827,827,827,827,827,827,827,827,827,827,827,827,827,827,827,827,827,827,827,827,827,827,827,827,827,827,827,827,827,827,827,827,827,827,827,827,827,827,827,827,827,827,827,827,827,827,827,827,827,827,827,827,827,827,827,827,827,827,827,827,827,827,827,827,827,827,827,827,827,827,827,827,827,827,827,827,827,827,827,827,827,827,827,827,827,827,827,827,827,827,827,827,827,827,827,827,827,827,827,827,827,827,827,827,827,827,827,827,827,827,827,827,827,827,827,827,827,827,827,827,827,827,827,827,827,827,827,827,827,827,827,827,827,827,827,827,827,827,827,827,827,827,827,827,827,827,827,827,827,827,827,827,827,827,827,827,827,827,827,827,827,827,827,827,827,827,827,827,827,827,827,827,827,827,827,827,827,827,827,827,827,827,827,827,827,827,827,827,827,827,827,827,827,827,827,827,827,827,827,827,827,827,827,827,827,827,827,827,827,827,827,827,827,827,827,827,827,827,827,827,827,827,827,827,827,827,827,827,827,827,827,827,827,827,827,827,827,827,827,827,827,827,827,827,827,827,827,827,827,827,827,827,827,827,827,827,827,827,827,827,827,827,827,827,827,827,827,827,827,827,827,827,827,827,827,827,827,827,827,827,827,827,827,827,827,827,827,827,827,827,827,827,827,827,827,827,827,827,827,827,827,827,827,827,827,827,827,827,827,827,827,827,827,827,827,827,827,827,827,827,827,827,827,827,827,827,827,827,827,827,827,827,827,827,827,827,827,827,827,827,827,827,827,827,827,827,827,827,827,827,827,827,827,827,827,827,827,827,827,827,827,827,827,827,827,827,827,827,827,827,827,827,827,827,827,827,827,827,827,827,827,827,827,827,827,827,827,827,827,827,827,827,827,827,827,827,827,827,827,827,827,827,827,827,827,827,827,827,827,827,827,827,839,859,873,884,888,888,888,888,888,888,888,888,889,889,889,889,889,883,845,766,733,705,682,665,636,629,628,628,628,637,657,684,715,740,779,796,814,833,842,822,782,738,700,674,661,661,664,664,660,640,628,603,581,563,547,546,546,546,543,538,513],"ymouse":[636,636,636,636,636,636,636,636,636,636,636,636,636,636,636,636,636,636,636,636,636,636,636,636,636,636,636,636,636,636,636,636,636,636,636,636,636,636,636,636,636,636,636,636,636,636,636,636,636,636,636,636,636,636,636,636,636,636,636,636,636,636,636,636,636,636,636,636,636,636,636,636,636,636,636,636,636,636,636,636,636,636,636,636,636,636,636,636,636,636,636,636,636,636,636,636,636,636,636,636,636,636,636,636,636,636,636,636,636,636,636,636,636,636,636,636,636,636,636,636,636,636,636,636,636,636,636,636,636,636,636,636,636,636,636,636,636,636,636,636,636,636,636,636,636,636,636,636,636,636,636,636,636,636,636,636,636,636,636,636,636,636,636,636,636,636,636,636,636,636,636,636,636,636,636,636,636,636,636,636,636,636,636,636,636,636,636,636,636,636,636,636,636,636,636,636,636,636,636,636,636,636,636,636,636,636,636,636,636,636,636,636,636,636,636,636,636,636,636,636,636,636,636,636,636,636,636,636,636,636,636,636,636,636,636,636,636,636,636,636,636,636,636,636,636,636,636,636,636,636,636,636,636,636,636,636,636,636,636,636,636,636,636,636,636,636,636,636,636,636,636,636,636,636,636,636,636,636,636,636,636,636,636,636,636,636,636,636,636,636,636,636,636,636,636,636,636,636,636,636,636,636,636,636,636,636,636,636,636,636,636,636,636,636,636,636,636,636,636,636,636,636,636,636,636,636,636,636,636,636,636,636,636,636,636,636,636,636,636,636,636,636,636,636,636,636,636,636,636,636,636,636,636,636,636,636,636,636,636,636,636,636,636,636,636,636,636,636,636,636,636,636,636,636,636,636,636,636,636,636,636,636,636,636,636,636,636,636,636,636,636,636,636,636,636,636,636,636,636,636,636,636,636,636,636,636,636,636,636,636,636,636,636,636,636,636,636,636,636,636,636,636,636,636,636,636,636,636,636,636,636,636,636,636,636,636,636,636,636,636,636,636,636,636,636,636,636,636,636,636,636,636,636,636,636,636,636,636,636,636,636,636,636,636,636,636,636,636,636,636,636,636,636,636,636,636,636,636,636,636,636,636,636,636,636,636,636,636,636,636,636,636,636,636,636,636,636,636,636,636,636,636,636,636,636,636,636,636,636,636,636,636,636,636,636,636,636,636,636,636,636,636,636,636,636,636,636,636,636,636,636,636,636,636,636,636,636,636,636,636,636,636,636,636,636,636,636,636,610,567,531,518,514,514,514,514,514,514,514,513,511,511,511,511,511,511,527,571,603,631,651,668,691,697,702,704,704,705,705,699,693,690,675,661,639,579,501,270,163,80,14,0,0,0,0,0,0,0,0,5,15,26,35,35,35,35,35,35,40],"timestamp_mouse":[19,38,59,78,98,119,139,158,179,199,217,239,258,278,298,318,338,357,378,399,417,437,458,478,499,518,537,558,579,599,619,637,659,679,699,719,738,759,778,799,818,839,859,879,899,918,937,958,978,997,1017,1038,1058,1077,1097,1117,1138,1159,1177,1197,1218,1238,1257,1279,1298,1319,1338,1359,1379,1398,1418,1439,1457,1478,1499,1517,1537,1558,1579,1599,1619,1637,1659,1679,1699,1717,1738,1759,1778,1798,1818,1837,1858,1877,1899,1918,1938,1958,1979,1998,2018,2038,2059,2078,2098,2119,2139,2159,2177,2199,2219,2239,2259,2278,2297,2319,2339,2358,2378,2397,2419,2438,2457,2478,2499,2519,2538,2559,2577,2598,2619,2638,2657,2679,2699,2718,2737,2759,2778,2799,2819,2839,2858,2877,2899,2918,2938,2959,2978,2999,3019,3038,3057,3079,3098,3119,3138,3159,3179,3199,3219,3238,3259,3278,3298,3319,3338,3358,3379,3398,3418,3439,3459,3478,3499,3518,3538,3559,3579,3599,3619,3639,3659,3678,3699,3718,3738,3759,3779,3798,3818,3839,3857,3878,3899,3919,3939,3959,3979,3999,4019,4039,4059,4079,4099,4119,4138,4158,4179,4199,4218,4239,4258,4277,4297,4319,4338,4359,4379,4397,4419,4439,4458,4479,4499,4518,4537,4558,4579,4598,4618,4638,4657,4679,4699,4717,4738,4759,4779,4798,4819,4838,4859,4879,4899,4918,4939,4958,4978,4999,5018,5038,5059,5079,5097,5118,5137,5158,5179,5198,5217,5238,5258,5279,5297,5318,5338,5359,5378,5399,5418,5439,5459,5478,5498,5519,5538,5558,5579,5598,5619,5638,5658,5678,5699,5718,5739,5758,5779,5798,5819,5838,5858,5879,5898,5918,5939,5958,5978,5999,6019,6038,6058,6077,6098,6119,6138,6158,6178,6197,6218,6239,6258,6278,6297,6318,6339,6358,6379,6398,6417,6439,6458,6478,6498,6519,6538,6558,6578,6598,6619,6638,6658,6679,6697,6719,6739,6758,6778,6798,6818,6838,6858,6878,6898,6918,6938,6959,6978,6999,7018,7037,7059,7079,7098,7118,7138,7158,7178,7198,7218,7239,7258,7279,7299,7319,7339,7357,7379,7398,7418,7438,7459,7478,7498,7519,7538,7559,7579,7597,7619,7638,7659,7678,7698,7719,7738,7758,7779,7799,7818,7837,7859,7879,7898,7918,7938,7958,7979,7999,8019,8038,8059,8079,8099,8119,8138,8157,8178,8199,8219,8237,8259,8278,8299,8317,8339,8358,8379,8399,8419,8439,8459,8477,8498,8519,8539,8559,8577,8599,8619,8638,8658,8678,8699,8718,8738,8759,8779,8798,8818,8839,8859,8878,8898,8919,8939,8958,8978,8998,9019,9039,9059,9078,9099,9119,9139,9158,9178,9199,9219,9239,9258,9277,9297,9319,9338,9359,9379,9399,9419,9438,9459,9479,9499,9519,9538,9559,9578,9599,9619,9638,9659,9678,9697,9718,9738,9758,9778,9798,9817,9838,9859,9879,9898,9919,9939,9958,9979,9999,10019,10039,10059,10079,10097,10117,10138,10159,10179,10198,10218,10238,10258,10279,10299,10318,10338,10359,10379,10397,10417,10439,10459,10479,10499,10518,10538,10559,10578,10598,10617,10638,10659,10679,10699,10719,10739,10759,10779,10799,10817,10838,10858,10879,10898,10918,10939,10958,10978,10997,11018,11038,11058,11077,11099,11118,11138,11159,11178,11199,11218,11238,11259,11278,11298,11319,11338,11358,11378,11398,11419,11438,11458,11478,11498,11519,11538,11558,11579,11598,11618,11638,11658,11677,11698,11718,11739,11758,11778,11799,11817,11839,11858,11878,11898,11918,11937,11959,11978,11998,12018,12038,12058,12078,12098,12119,12139,12158,12179],"xSR":741.5,"ySR":573.95,"xT1":424.9,"yT1":0,"xT2":1058.1,"yT2":0,"toosoon":0,"cond_shown":"Congruent","ratio_trial":200,"L_num":11,"L_den":22,"R_num":3,"R_den":10,"correct_side":1,"subjID":"MariaPaulaBeltranMora34","gender":"1","school":"4","age":"9"},{"start_time":1552308854342,"click_time":1552308856007,"finger_time":1552308854827,"fix_duration":1014.9774830137216,"trial":20,"RT":485,"MT":1180,"sideResp":1,"stimulus":[],"xmouse":[809,810,810,810,811,815,817,818,818,817,817,817,817,819,819,819,819,819,819,819,819,812,808,808,808,806,799,784,695,640,579,527,484,422,403,391,389,388,436,505,599,624,662,673,682,688,703,721,739,785,817,864,881,898,898,898,886,867,845,787,733,703,688,678,673,664,656,647,635,609,599,587,583,579,575,573,573,573,573,572,556,539,525,521],"ymouse":[655,655,655,655,655,648,634,617,592,590,589,589,589,585,583,582,582,582,582,582,582,581,578,577,571,561,555,549,545,572,646,714,763,806,821,828,828,829,830,835,858,866,877,878,878,874,864,847,827,759,700,606,541,398,332,280,236,200,174,128,90,72,62,59,59,61,65,69,73,80,83,89,92,93,93,93,93,93,93,92,90,86,82,81],"timestamp_mouse":[8,24,44,64,85,105,125,145,164,184,205,224,244,264,284,304,324,345,363,383,405,424,444,465,485,505,523,544,564,583,604,624,645,664,683,704,723,745,765,783,804,824,844,864,885,904,924,944,964,984,1004,1024,1044,1065,1083,1104,1124,1145,1164,1184,1205,1225,1244,1264,1283,1304,1323,1345,1363,1385,1405,1425,1445,1464,1484,1504,1524,1543,1565,1584,1605,1625,1644,1665],"xSR":741.5,"ySR":573.95,"xT1":424.9,"yT1":0,"xT2":1058.1,"yT2":0,"toosoon":0,"cond_shown":"Congruent","ratio_trial":300,"L_num":1,"L_den":5,"R_num":3,"R_den":6,"correct_side":2,"subjID":"MariaPaulaBeltranMora34","gender":"1","school":"4","age":"9"},{"start_time":1552308859835,"click_time":1552308861826,"finger_time":1552308860807,"fix_duration":647.5435574559181,"trial":21,"RT":972,"MT":1019,"sideResp":1,"stimulus":[],"xmouse":[756,756,756,756,756,756,756,756,756,756,756,756,756,756,756,756,756,756,756,756,756,756,756,756,756,756,756,756,756,756,756,756,756,756,756,756,756,756,756,756,756,756,756,756,756,756,748,746,741,734,732,727,722,716,704,701,697,696,694,690,686,680,670,658,641,638,636,634,633,623,615,604,589,577,551,542,538,538,540,552,555,555,556,556,556,556,556,556,556,556,556,556,554,550,533,521,507,498,484,468],"ymouse":[636,636,636,636,636,636,636,636,636,636,636,636,636,636,636,636,636,636,636,636,636,636,636,636,636,636,636,636,636,636,636,636,636,636,636,636,636,636,636,636,636,636,636,636,636,636,634,633,631,628,627,624,622,620,614,613,612,611,610,609,607,605,602,597,588,586,584,582,580,570,542,476,402,331,243,226,215,204,191,165,158,152,150,150,150,150,150,150,150,150,149,148,147,146,138,133,123,117,107,98],"timestamp_mouse":[11,36,52,71,92,111,131,151,172,192,210,232,252,271,292,312,331,352,372,392,411,432,451,470,492,511,531,552,572,592,611,632,651,671,692,711,731,751,772,792,810,832,851,872,891,910,932,951,972,991,1010,1031,1051,1071,1091,1111,1131,1152,1171,1191,1212,1232,1252,1272,1290,1311,1331,1352,1371,1391,1411,1431,1450,1472,1491,1511,1531,1552,1571,1591,1612,1631,1651,1671,1692,1711,1731,1751,1771,1791,1811,1831,1850,1872,1891,1911,1932,1951,1971,1991],"xSR":741.5,"ySR":573.95,"xT1":424.9,"yT1":0,"xT2":1058.1,"yT2":0,"toosoon":0,"cond_shown":"Congruent","ratio_trial":300,"L_num":2,"L_den":20,"R_num":10,"R_den":25,"correct_side":2,"subjID":"MariaPaulaBeltranMora34","gender":"1","school":"4","age":"9"},{"start_time":1552308863545,"click_time":1552308865326,"finger_time":1552308864786,"fix_duration":296.82944676414104,"trial":22,"RT":1241,"MT":540,"sideResp":2,"stimulus":[],"xmouse":[830,830,830,830,829,828,827,827,827,827,827,826,826,825,821,820,818,817,817,817,817,817,817,817,817,817,817,817,817,817,817,816,816,816,816,816,816,816,816,816,816,816,816,816,816,816,816,816,816,816,816,816,816,816,816,816,816,816,816,820,829,841,853,866,889,902,922,954,999,1027,1087,1122,1153,1174,1199,1213,1229,1249,1261,1271,1279,1280,1280,1280,1280,1274,1258,1213,1173,1141],"ymouse":[631,631,631,631,632,632,632,632,632,632,632,632,632,632,632,632,632,632,632,632,632,632,632,632,632,632,632,632,632,632,632,632,632,632,632,632,632,632,632,632,632,632,632,632,632,632,632,632,632,632,632,632,632,632,632,632,632,632,632,632,627,619,611,601,587,580,568,546,512,491,444,414,386,365,329,311,288,247,218,189,153,147,145,142,142,139,132,112,95,83],"timestamp_mouse":[12,25,42,61,81,102,120,141,160,181,202,222,242,262,281,301,321,341,361,380,401,422,442,461,482,500,521,540,562,582,602,621,640,660,681,701,722,741,760,781,801,822,841,861,882,902,921,941,960,981,1001,1021,1041,1061,1082,1101,1121,1141,1161,1181,1201,1222,1241,1262,1281,1301,1322,1341,1360,1382,1402,1421,1442,1462,1481,1501,1520,1541,1560,1581,1602,1621,1641,1662,1681,1701,1721,1741,1760,1780],"xSR":741.5,"ySR":573.95,"xT1":424.9,"yT1":0,"xT2":1058.1,"yT2":0,"toosoon":0,"cond_shown":"Congruent","ratio_trial":300,"L_num":20,"L_den":25,"R_num":9,"R_den":18,"correct_side":1,"subjID":"MariaPaulaBeltranMora34","gender":"1","school":"4","age":"9"},{"start_time":1552308869319,"click_time":1552308870886,"finger_time":1552308870367,"fix_duration":511.87181498264687,"trial":23,"RT":1048,"MT":519,"sideResp":2,"stimulus":[],"xmouse":[766,766,766,766,766,766,766,766,766,766,766,766,766,766,766,766,766,766,766,766,766,766,766,766,766,766,766,766,766,766,766,766,766,766,766,766,766,766,766,766,766,766,766,766,766,766,766,766,766,769,776,817,851,901,946,1011,1092,1125,1149,1165,1183,1219,1243,1267,1287,1310,1324,1326,1326,1326,1326,1310,1286,1261,1236,1210,1163,1159,1158],"ymouse":[668,668,668,668,668,668,668,668,668,668,668,668,668,668,668,668,668,668,668,668,668,668,668,668,668,668,668,668,668,668,668,668,668,668,668,668,668,668,668,668,668,668,668,668,668,668,668,668,668,668,663,634,602,561,524,445,342,295,260,235,210,159,130,101,76,51,29,25,25,25,25,25,25,21,18,15,15,15,15],"timestamp_mouse":[9,38,46,67,87,107,128,148,167,188,207,228,246,268,287,307,328,347,368,388,406,427,446,467,488,506,528,547,567,588,607,628,648,668,688,707,728,747,768,787,808,828,847,868,888,908,927,946,968,987,1007,1027,1048,1068,1086,1108,1127,1148,1167,1188,1207,1227,1248,1267,1288,1307,1327,1347,1367,1388,1407,1427,1447,1467,1488,1508,1527,1547,1567],"xSR":741.5,"ySR":573.95,"xT1":424.9,"yT1":0,"xT2":1058.1,"yT2":0,"toosoon":0,"cond_shown":"Congruent","ratio_trial":100,"L_num":8,"L_den":16,"R_num":2,"R_den":5,"correct_side":1,"subjID":"MariaPaulaBeltranMora34","gender":"1","school":"4","age":"9"},{"start_time":1552308874007,"click_time":1552308876146,"finger_time":1552308875646,"fix_duration":1418.5446061136884,"trial":24,"RT":1639,"MT":500,"sideResp":2,"stimulus":[],"xmouse":[827,829,829,830,831,832,832,832,832,832,832,832,832,832,832,832,832,832,832,832,832,832,832,832,832,832,832,832,832,832,832,832,832,832,832,832,832,832,832,832,832,832,832,832,832,832,832,832,832,832,832,832,832,832,832,832,832,832,832,832,832,832,832,832,832,832,832,832,832,832,832,832,832,832,832,832,832,832,832,832,835,839,842,848,855,865,876,900,914,939,950,990,1051,1092,1123,1152,1175,1202,1209,1210,1209,1200,1192,1179,1169,1154,1139,1119],"ymouse":[663,662,662,662,662,662,662,662,662,662,662,662,662,662,662,662,662,662,662,662,662,662,662,662,662,662,662,662,662,662,662,662,662,662,662,662,662,662,662,662,662,662,662,662,662,662,662,662,662,662,662,662,662,662,662,662,662,662,662,662,662,662,662,662,662,662,662,662,662,662,662,662,662,662,662,662,662,662,662,662,660,657,652,644,635,620,606,579,562,528,512,450,359,300,242,182,125,38,0,0,0,0,0,0,0,0,0,3],"timestamp_mouse":[1,19,38,60,79,99,120,140,158,180,200,220,240,260,280,299,320,338,360,380,399,420,439,460,479,500,520,540,559,578,599,620,639,659,678,700,720,740,758,780,800,818,838,859,880,900,919,940,959,980,1000,1019,1039,1059,1080,1100,1120,1140,1160,1179,1200,1219,1239,1260,1279,1299,1320,1340,1360,1378,1400,1420,1439,1459,1479,1500,1519,1539,1559,1579,1599,1619,1639,1660,1679,1698,1720,1740,1758,1779,1800,1820,1839,1858,1879,1899,1919,1939,1959,1979,1998,2018,2039,2059,2079,2100,2119,2139],"xSR":741.5,"ySR":573.95,"xT1":424.9,"yT1":0,"xT2":1058.1,"yT2":0,"toosoon":0,"cond_shown":"Congruent","ratio_trial":200,"L_num":6,"L_den":12,"R_num":7,"R_den":10,"correct_side":2,"subjID":"MariaPaulaBeltranMora34","gender":"1","school":"4","age":"9"},{"start_time":1552308885686,"click_time":1552308887847,"finger_time":1552308887586,"fix_duration":1298.7365971016577,"trial":25,"RT":1900,"MT":261,"sideResp":1,"stimulus":[],"xmouse":[819,819,818,817,815,813,813,813,813,813,813,813,813,813,813,813,813,813,813,813,813,813,813,813,813,813,813,813,813,813,813,813,813,813,813,813,813,813,813,813,813,813,813,813,813,813,813,813,813,813,813,813,813,813,813,813,813,813,813,813,813,813,813,813,813,813,813,813,813,813,813,813,813,813,813,813,813,813,813,813,813,813,813,813,813,813,813,813,813,813,813,813,813,813,809,784,753,720,694,692,677,646,624,590,573,536,524,511,496],"ymouse":[609,609,609,609,611,613,613,613,613,613,613,613,613,613,613,613,613,613,613,613,613,613,613,613,613,613,613,613,613,613,613,613,613,613,613,613,613,613,613,613,613,613,613,613,613,613,613,613,613,613,613,613,613,613,613,613,613,613,613,613,613,613,613,613,613,613,613,613,613,613,613,613,613,613,613,613,613,613,613,613,613,613,613,613,613,613,613,613,613,613,613,613,613,613,598,511,434,358,310,308,292,259,238,204,188,141,123,103,79],"timestamp_mouse":[1,23,47,60,81,100,121,140,160,181,201,221,241,260,281,299,320,341,361,380,401,421,441,461,481,501,519,541,561,580,601,620,641,660,681,699,720,741,761,781,801,820,841,861,880,901,920,940,960,981,1000,1021,1040,1061,1080,1101,1121,1140,1160,1181,1201,1221,1240,1260,1280,1301,1321,1341,1360,1380,1401,1420,1441,1461,1480,1499,1520,1540,1560,1581,1600,1621,1641,1660,1681,1701,1721,1741,1760,1780,1801,1820,1840,1861,1881,1900,1920,1940,1960,1980,1999,2020,2040,2061,2081,2099,2119,2141,2161],"xSR":741.5,"ySR":573.95,"xT1":424.9,"yT1":0,"xT2":1058.1,"yT2":0,"toosoon":0,"cond_shown":"Incongruent","ratio_trial":200,"L_num":7,"L_den":10,"R_num":14,"R_den":28,"correct_side":1,"subjID":"MariaPaulaBeltranMora34","gender":"1","school":"4","age":"9"},{"start_time":1552308892587,"click_time":1552308894106,"finger_time":1552308893607,"fix_duration":578.5562933945341,"trial":26,"RT":1020,"MT":499,"sideResp":1,"stimulus":[],"xmouse":[772,772,772,772,772,772,772,772,772,772,772,772,772,772,772,772,772,772,772,772,772,772,772,772,772,772,772,772,772,772,772,772,772,772,772,772,772,772,772,772,772,772,772,774,774,771,768,768,768,766,763,743,729,715,701,689,667,662,654,647,641,632,629,623,621,615,613,613,613,611,594,530,509,493,480,474,467],"ymouse":[648,648,648,648,648,648,648,648,648,648,648,648,648,648,648,648,648,648,648,648,648,648,648,648,648,648,648,648,648,648,648,648,648,648,648,648,648,648,648,648,648,647,647,637,626,604,586,586,586,584,579,553,533,508,486,466,432,426,408,392,380,338,318,295,290,280,276,276,276,271,245,162,141,125,115,109,99],"timestamp_mouse":[8,21,40,60,81,100,119,139,159,181,200,220,239,260,281,300,320,339,360,381,400,419,439,460,480,499,519,539,561,579,600,619,640,659,680,700,720,741,761,779,800,819,840,861,880,900,919,940,960,980,999,1020,1040,1060,1080,1100,1119,1140,1160,1181,1200,1219,1240,1259,1279,1300,1320,1340,1359,1380,1399,1419,1440,1460,1479,1500,1519],"xSR":741.5,"ySR":573.95,"xT1":424.9,"yT1":0,"xT2":1058.1,"yT2":0,"toosoon":0,"cond_shown":"Congruent","ratio_trial":300,"L_num":1,"L_den":5,"R_num":11,"R_den":22,"correct_side":2,"subjID":"MariaPaulaBeltranMora34","gender":"1","school":"4","age":"9"},{"start_time":1552308897905,"click_time":1552308899627,"finger_time":1552308898927,"fix_duration":1397.202965875664,"trial":27,"RT":1022,"MT":700,"sideResp":2,"stimulus":[],"xmouse":[787,787,787,787,787,787,787,787,787,787,787,787,787,787,787,787,787,787,787,787,787,787,787,787,787,787,787,787,787,787,787,787,787,787,787,787,787,787,787,787,787,787,787,787,787,787,789,796,801,810,822,845,892,961,1006,1094,1133,1171,1208,1239,1300,1328,1371,1401,1428,1451,1452,1452,1451,1451,1450,1395,1336,1307,1283,1267,1249,1247,1244,1242,1241,1239,1230,1215,1193,1168,1126],"ymouse":[636,636,636,636,636,636,636,636,636,636,636,636,636,636,636,636,636,636,636,636,636,636,636,636,636,636,636,636,636,636,636,636,636,636,636,636,636,636,636,636,636,636,636,636,636,636,636,632,628,622,612,590,556,506,471,410,377,344,308,275,212,180,130,91,52,0,0,0,0,0,0,8,16,21,23,24,27,27,28,28,28,29,31,35,41,45,49],"timestamp_mouse":[8,32,42,62,83,103,122,142,161,182,203,223,242,262,283,301,322,342,362,381,402,422,442,462,481,502,522,542,563,581,601,621,642,663,682,702,721,742,763,782,802,821,841,862,881,902,922,942,962,983,1003,1022,1043,1061,1081,1102,1121,1141,1162,1181,1202,1222,1241,1262,1281,1303,1323,1341,1361,1381,1402,1421,1441,1461,1482,1501,1522,1541,1562,1582,1602,1623,1641,1661,1682,1702,1721],"xSR":741.5,"ySR":573.95,"xT1":424.9,"yT1":0,"xT2":1058.1,"yT2":0,"toosoon":0,"cond_shown":"Incongruent","ratio_trial":300,"L_num":13,"L_den":26,"R_num":12,"R_den":15,"correct_side":2,"subjID":"MariaPaulaBeltranMora34","gender":"1","school":"4","age":"9"},{"start_time":1552308906300,"click_time":1552308907507,"finger_time":1552308906927,"fix_duration":1112.3722923551152,"trial":28,"RT":627,"MT":580,"sideResp":1,"stimulus":[],"xmouse":[815,815,815,815,815,815,815,815,815,815,815,815,815,815,815,815,815,815,815,815,815,815,815,815,815,815,815,815,815,815,815,834,845,849,845,841,838,823,817,813,807,799,779,766,748,729,696,677,660,635,619,603,601,600,599,596,584,570,546,531,518],"ymouse":[623,623,623,623,623,623,623,623,623,623,623,623,623,623,623,623,623,623,623,623,623,623,623,623,623,623,623,623,623,623,620,534,455,381,322,303,294,271,264,261,256,248,235,227,220,209,184,169,158,140,128,115,113,112,111,107,99,92,83,77,71],"timestamp_mouse":[8,38,47,67,87,108,126,147,166,188,207,227,246,266,288,307,326,346,366,386,407,426,446,467,488,506,527,547,567,588,607,627,646,667,688,707,726,746,768,788,807,826,847,866,886,907,927,946,966,986,1006,1027,1046,1066,1086,1107,1127,1146,1167,1188,1207],"xSR":741.5,"ySR":573.95,"xT1":424.9,"yT1":0,"xT2":1058.1,"yT2":0,"toosoon":0,"cond_shown":"Congruent","ratio_trial":200,"L_num":3,"L_den":10,"R_num":11,"R_den":22,"correct_side":2,"subjID":"MariaPaulaBeltranMora34","gender":"1","school":"4","age":"9"},{"start_time":1552308910318,"click_time":1552308912046,"finger_time":1552308911707,"fix_duration":250,"trial":29,"RT":1389,"MT":339,"sideResp":2,"stimulus":[],"xmouse":[777,777,777,777,777,777,777,777,777,777,777,777,777,777,777,777,777,777,777,777,777,777,777,777,777,777,777,777,777,777,777,777,777,777,777,777,777,777,777,777,777,777,777,777,777,777,777,777,777,777,777,777,777,777,777,777,777,777,777,777,777,777,777,777,777,777,778,793,828,887,956,1076,1117,1144,1162,1174,1186,1189,1193,1197,1197,1198,1198,1198,1197,1189,1156],"ymouse":[628,628,628,628,628,628,628,628,628,628,628,628,628,628,628,628,628,628,628,628,628,628,628,628,628,628,628,628,628,628,628,628,628,628,628,628,628,628,628,628,628,628,628,628,628,628,628,628,628,628,628,628,628,628,628,628,628,628,628,628,628,628,628,628,628,628,628,613,574,502,421,284,231,188,154,126,101,92,83,74,67,56,55,55,54,54,61],"timestamp_mouse":[17,36,48,68,88,109,129,149,169,188,209,228,248,269,289,308,328,348,369,389,408,428,449,469,489,508,529,548,569,589,609,628,650,668,689,709,729,750,769,789,808,829,848,869,889,908,929,949,970,988,1009,1029,1049,1070,1090,1109,1129,1149,1168,1189,1209,1230,1249,1269,1290,1308,1329,1348,1369,1389,1408,1428,1449,1469,1489,1509,1528,1548,1568,1588,1610,1630,1649,1669,1689,1709,1728],"xSR":741.5,"ySR":573.95,"xT1":424.9,"yT1":0,"xT2":1058.1,"yT2":0,"toosoon":0,"cond_shown":"Incongruent","ratio_trial":200,"L_num":7,"L_den":10,"R_num":14,"R_den":28,"correct_side":1,"subjID":"MariaPaulaBeltranMora34","gender":"1","school":"4","age":"9"},{"start_time":1552308914436,"click_time":1552308915427,"finger_time":1552308914867,"fix_duration":688.3969786783666,"trial":30,"RT":431,"MT":560,"sideResp":1,"stimulus":[],"xmouse":[807,807,807,807,807,807,807,807,807,807,807,807,807,807,807,807,807,807,807,807,807,810,810,806,799,778,762,746,728,706,676,666,658,652,647,626,607,589,576,556,540,538,537,537,537,536,532,527,525,516],"ymouse":[578,578,578,578,578,578,578,578,578,578,578,578,578,578,578,578,578,578,578,578,578,567,547,530,516,491,478,465,451,426,380,361,346,326,299,230,189,160,141,120,104,103,101,101,101,100,99,98,97,94],"timestamp_mouse":[12,39,51,70,91,110,131,152,172,191,210,231,250,271,290,311,332,350,370,392,411,431,450,470,491,510,530,551,572,591,610,630,651,670,691,710,732,750,771,790,810,830,851,871,890,910,931,952,972,991],"xSR":741.5,"ySR":573.95,"xT1":424.9,"yT1":0,"xT2":1058.1,"yT2":0,"toosoon":0,"cond_shown":"Incongruent","ratio_trial":200,"L_num":7,"L_den":15,"R_num":6,"R_den":9,"correct_side":2,"subjID":"MariaPaulaBeltranMora34","gender":"1","school":"4","age":"9"},{"start_time":1552308920831,"click_time":1552308923666,"finger_time":1552308922306,"fix_duration":442.7394288183268,"trial":31,"RT":1475,"MT":1360,"sideResp":2,"stimulus":[],"xmouse":[793,793,793,793,793,793,793,793,793,793,793,793,793,793,793,793,793,793,793,793,793,793,793,793,793,793,793,793,793,793,793,793,793,793,793,793,793,793,793,793,793,793,793,793,793,793,793,793,793,793,793,793,793,793,793,793,793,793,793,793,793,793,793,793,793,793,793,793,793,793,794,815,831,851,872,892,927,935,940,946,948,960,966,971,974,976,984,986,988,989,990,991,991,991,991,991,991,991,991,991,991,991,991,991,991,991,995,1006,1023,1043,1067,1106,1115,1120,1122,1126,1130,1131,1133,1134,1134,1134,1134,1134,1134,1134,1134,1134,1134,1134,1134,1134,1134,1134,1134,1134,1134,1134,1134,1134,1133,1131],"ymouse":[634,634,634,634,634,634,634,634,634,634,634,634,634,634,634,634,634,634,634,634,634,634,634,634,634,634,634,634,634,634,634,634,634,634,634,634,634,634,634,634,634,634,634,634,634,634,634,634,634,634,634,634,634,634,634,634,634,634,634,634,634,634,634,634,634,634,634,634,634,634,634,615,599,574,537,498,446,433,425,409,406,367,349,335,325,316,284,267,254,241,233,225,222,220,218,217,216,216,216,216,216,216,216,216,216,216,214,211,204,196,187,167,160,157,154,148,135,129,123,117,112,105,103,103,103,103,103,103,103,103,103,103,103,103,103,103,103,103,103,103,100,97],"timestamp_mouse":[17,35,56,77,95,115,136,157,175,195,216,236,257,277,296,316,335,355,375,396,416,436,456,475,496,515,536,556,575,597,617,636,655,675,696,715,736,756,775,796,817,837,856,877,896,916,935,955,975,997,1016,1035,1056,1076,1095,1116,1136,1157,1175,1196,1216,1235,1255,1276,1295,1316,1336,1355,1376,1395,1415,1435,1456,1475,1496,1516,1537,1556,1577,1596,1616,1635,1655,1676,1696,1716,1735,1757,1776,1796,1815,1835,1855,1875,1896,1916,1936,1955,1975,1995,2015,2035,2056,2076,2097,2116,2135,2156,2175,2195,2216,2236,2255,2275,2295,2317,2336,2355,2376,2396,2416,2435,2456,2475,2496,2515,2535,2556,2577,2597,2615,2635,2655,2675,2696,2717,2737,2755,2775,2796,2816,2835],"xSR":741.5,"ySR":573.95,"xT1":424.9,"yT1":0,"xT2":1058.1,"yT2":0,"toosoon":0,"cond_shown":"Incongruent","ratio_trial":200,"L_num":4,"L_den":5,"R_num":6,"R_den":10,"correct_side":1,"subjID":"MariaPaulaBeltranMora34","gender":"1","school":"4","age":"9"},{"start_time":1552308941662,"click_time":1552308942407,"finger_time":1552308942047,"fix_duration":1252.7444190720514,"trial":32,"RT":385,"MT":360,"sideResp":1,"stimulus":[],"xmouse":[836,836,836,836,836,836,836,836,836,836,836,836,836,836,836,836,836,836,829,801,763,723,683,623,583,557,522,497,474,473,473,473,473,475,478,481,483,484],"ymouse":[620,620,620,620,620,620,620,620,620,620,620,620,620,620,620,620,620,620,589,529,460,409,361,295,254,227,186,159,130,129,129,129,123,116,108,102,100,98],"timestamp_mouse":[9,32,45,64,86,104,124,145,165,186,205,224,245,266,285,305,326,345,365,385,405,424,444,465,485,506,524,545,565,584,604,624,645,664,684,704,725,745],"xSR":741.5,"ySR":573.95,"xT1":424.9,"yT1":0,"xT2":1058.1,"yT2":0,"toosoon":0,"cond_shown":"Incongruent","ratio_trial":300,"L_num":1,"L_den":2,"R_num":3,"R_den":15,"correct_side":1,"subjID":"MariaPaulaBeltranMora34","gender":"1","school":"4","age":"9"},{"start_time":1552308952116,"click_time":1552308953167,"finger_time":1552308952986,"fix_duration":1466.8855838088116,"trial":33,"RT":870,"MT":181,"sideResp":1,"stimulus":[],"xmouse":[791,791,791,791,791,791,791,791,791,791,791,791,791,791,791,791,791,791,791,791,791,791,791,791,791,791,791,791,791,791,791,791,791,791,791,791,791,791,791,791,791,784,776,770,762,745,736,731,714,675,579,529,491],"ymouse":[637,637,637,637,637,637,637,637,637,637,637,637,637,637,637,637,637,637,637,637,637,637,637,637,637,637,637,637,637,637,637,637,637,637,637,637,637,637,637,637,634,609,586,573,562,539,528,520,493,416,224,131,71],"timestamp_mouse":[10,38,51,70,91,111,131,150,170,190,211,231,250,271,290,310,330,350,371,390,410,431,450,470,490,512,532,551,571,592,610,630,650,670,690,711,730,751,770,790,810,832,850,870,892,911,931,951,972,992,1012,1030,1051],"xSR":741.5,"ySR":573.95,"xT1":424.9,"yT1":0,"xT2":1058.1,"yT2":0,"toosoon":0,"cond_shown":"Congruent","ratio_trial":300,"L_num":3,"L_den":6,"R_num":4,"R_den":5,"correct_side":2,"subjID":"MariaPaulaBeltranMora34","gender":"1","school":"4","age":"9"},{"start_time":1552308958618,"click_time":1552308959767,"finger_time":1552308959546,"fix_duration":250,"trial":34,"RT":928,"MT":221,"sideResp":1,"stimulus":[],"xmouse":[805,805,805,805,805,805,805,805,805,805,805,805,805,805,805,805,805,805,805,805,805,805,805,805,805,805,805,805,805,805,805,805,805,805,805,805,805,805,805,805,805,805,805,805,796,789,744,703,642,614,584,560,543,541,540,540,538,519],"ymouse":[601,601,601,601,601,601,601,601,601,601,601,601,601,601,601,601,601,601,601,601,601,601,601,601,601,601,601,601,601,601,601,601,601,601,601,601,601,601,601,601,601,601,601,601,590,577,474,398,276,229,183,149,128,125,123,123,118,84],"timestamp_mouse":[9,45,49,69,88,110,128,148,168,189,210,229,249,270,288,308,329,349,369,390,409,428,449,469,489,508,529,550,569,589,609,629,650,669,689,708,728,749,770,790,809,829,849,869,889,908,928,948,969,990,1008,1028,1049,1068,1088,1109,1129,1149],"xSR":741.5,"ySR":573.95,"xT1":424.9,"yT1":0,"xT2":1058.1,"yT2":0,"toosoon":0,"cond_shown":"Congruent","ratio_trial":100,"L_num":3,"L_den":6,"R_num":2,"R_den":5,"correct_side":1,"subjID":"MariaPaulaBeltranMora34","gender":"1","school":"4","age":"9"},{"start_time":1552308961780,"click_time":1552308963266,"finger_time":1552308962588,"fix_duration":250,"trial":35,"RT":808,"MT":678,"sideResp":1,"stimulus":[],"xmouse":[790,790,790,790,790,790,790,790,790,790,790,790,790,790,790,790,790,790,790,790,790,790,790,790,790,790,790,790,790,790,790,790,790,790,790,790,790,790,790,778,768,759,751,745,730,721,711,700,688,662,660,651,646,644,641,638,634,625,616,593,586,583,580,574,561,559,556,555,555,554,553,545,539,531,521],"ymouse":[611,611,611,611,611,611,611,611,611,611,611,611,611,611,611,611,611,611,611,611,611,611,611,611,611,611,611,611,611,611,611,611,611,611,611,611,611,611,611,574,547,525,507,494,464,446,427,408,388,348,344,335,328,324,315,308,297,278,259,219,205,199,195,184,164,159,153,151,150,148,144,132,119,107,89],"timestamp_mouse":[11,32,47,66,87,107,128,148,167,187,208,226,247,268,287,308,326,347,367,387,406,427,448,467,487,507,527,546,568,586,606,626,648,666,686,708,726,747,768,787,808,826,847,866,887,908,928,946,967,986,1006,1026,1048,1067,1087,1108,1127,1146,1167,1188,1207,1227,1247,1266,1287,1307,1326,1346,1367,1386,1407,1427,1446,1467,1486],"xSR":741.5,"ySR":573.95,"xT1":424.9,"yT1":0,"xT2":1058.1,"yT2":0,"toosoon":0,"cond_shown":"Congruent","ratio_trial":200,"L_num":6,"L_den":12,"R_num":7,"R_den":10,"correct_side":2,"subjID":"MariaPaulaBeltranMora34","gender":"1","school":"4","age":"9"},{"start_time":1552308964701,"click_time":1552308965747,"finger_time":1552308965287,"fix_duration":250,"trial":36,"RT":586,"MT":460,"sideResp":1,"stimulus":[],"xmouse":[767,767,767,767,767,767,767,767,767,767,767,767,767,767,767,767,767,767,767,767,767,767,767,767,767,767,767,767,768,775,778,782,782,768,753,737,718,699,662,645,635,631,631,623,621,617,610,589,556,546,537,531,523],"ymouse":[597,597,597,597,597,597,597,597,597,597,597,597,597,597,597,597,597,597,597,597,597,597,597,597,597,597,597,597,595,571,545,516,496,406,345,285,235,194,126,99,86,80,80,64,61,59,58,57,57,56,56,56,56],"timestamp_mouse":[8,25,45,66,86,107,125,145,166,186,205,227,245,265,287,305,326,346,366,387,406,427,447,466,486,505,526,545,566,586,607,625,645,665,687,706,727,745,765,786,807,826,846,865,887,906,926,946,966,986,1006,1026,1046],"xSR":741.5,"ySR":573.95,"xT1":424.9,"yT1":0,"xT2":1058.1,"yT2":0,"toosoon":0,"cond_shown":"Congruent","ratio_trial":200,"L_num":20,"L_den":25,"R_num":9,"R_den":15,"correct_side":1,"subjID":"MariaPaulaBeltranMora34","gender":"1","school":"4","age":"9"},{"start_time":1552308967707,"click_time":1552308968807,"finger_time":1552308968267,"fix_duration":578.4307812619899,"trial":37,"RT":560,"MT":540,"sideResp":2,"stimulus":[],"xmouse":[781,781,781,781,781,781,781,781,781,781,781,781,781,781,781,781,781,781,781,781,781,781,781,781,781,781,782,793,862,890,899,914,921,936,947,962,975,984,998,1000,1000,1000,1000,1000,1001,1005,1012,1025,1045,1085,1090,1093,1094,1095,1095,1095],"ymouse":[635,635,635,635,635,635,635,635,635,635,635,635,635,635,635,635,635,635,635,635,635,635,635,635,635,635,633,618,507,457,443,416,403,377,361,339,320,300,272,266,266,266,266,266,260,246,226,180,97,0,0,0,0,0,0,1],"timestamp_mouse":[1,19,39,60,80,100,120,140,160,179,199,221,239,261,280,299,320,339,360,380,400,421,439,459,479,501,520,540,560,579,601,620,640,660,680,699,721,741,760,780,800,819,840,860,880,899,919,939,959,980,999,1021,1039,1061,1081,1100],"xSR":741.5,"ySR":573.95,"xT1":424.9,"yT1":0,"xT2":1058.1,"yT2":0,"toosoon":0,"cond_shown":"Incongruent","ratio_trial":100,"L_num":2,"L_den":4,"R_num":6,"R_den":15,"correct_side":1,"subjID":"MariaPaulaBeltranMora34","gender":"1","school":"4","age":"9"},{"start_time":1552308971067,"click_time":1552308973787,"finger_time":1552308972787,"fix_duration":778.3132006159302,"trial":38,"RT":1720,"MT":1000,"sideResp":1,"stimulus":[],"xmouse":[828,828,828,828,828,828,828,828,828,828,828,828,828,828,828,828,828,828,828,828,828,828,828,828,828,828,828,828,828,828,828,828,828,828,828,828,828,828,828,828,828,828,828,828,828,828,828,828,828,828,828,828,828,828,828,828,828,828,828,828,828,828,828,828,828,828,828,828,828,828,828,828,828,828,828,828,828,828,828,828,828,828,828,828,830,829,817,810,805,800,798,787,780,771,765,758,744,734,720,704,690,671,629,579,528,471,413,396,390,388,388,388,388,388,388,388,388,388,388,388,388,396,404,405,410,415,418,418,418,418,418,418,418,418,418,421,452],"ymouse":[637,637,637,637,637,637,637,637,637,637,637,637,637,637,637,637,637,637,637,637,637,637,637,637,637,637,637,637,637,637,637,637,637,637,637,637,637,637,637,637,637,637,637,637,637,637,637,637,637,637,637,637,637,637,637,637,637,637,637,637,637,637,637,637,637,637,637,637,637,637,637,637,637,637,637,637,637,637,637,637,637,637,637,631,602,578,538,517,499,481,459,372,318,266,222,190,119,89,58,29,4,0,0,0,0,0,3,8,11,11,11,11,11,11,11,11,11,11,11,11,13,16,26,29,35,41,44,44,44,44,44,44,44,44,44,45,46],"timestamp_mouse":[8,20,40,60,80,101,120,141,161,179,201,220,239,259,279,299,319,341,359,379,399,421,439,460,481,500,521,540,559,580,600,620,640,660,680,699,720,740,761,780,799,820,840,860,880,900,919,940,961,980,999,1019,1040,1059,1081,1101,1119,1140,1160,1180,1200,1220,1241,1259,1280,1300,1320,1341,1360,1380,1401,1419,1440,1460,1480,1499,1521,1540,1560,1580,1601,1621,1641,1661,1679,1701,1720,1741,1760,1780,1799,1819,1841,1860,1880,1900,1919,1940,1959,1980,1999,2020,2040,2059,2080,2100,2120,2139,2161,2180,2200,2220,2239,2259,2280,2300,2321,2340,2360,2381,2401,2421,2440,2460,2481,2501,2519,2541,2560,2579,2600,2619,2640,2660,2680,2700,2719],"xSR":741.5,"ySR":573.95,"xT1":424.9,"yT1":0,"xT2":1058.1,"yT2":0,"toosoon":0,"cond_shown":"Congruent","ratio_trial":100,"L_num":3,"L_den":20,"R_num":4,"R_den":16,"correct_side":2,"subjID":"MariaPaulaBeltranMora34","gender":"1","school":"4","age":"9"},{"start_time":1552308977298,"click_time":1552308980308,"finger_time":1552308978867,"fix_duration":328.6736330082888,"trial":39,"RT":1569,"MT":1441,"sideResp":1,"stimulus":[],"xmouse":[808,808,808,808,808,808,808,808,808,808,808,808,808,808,808,808,808,808,808,808,808,808,808,808,808,808,808,808,808,808,808,808,808,808,808,808,808,808,808,808,808,808,808,808,808,808,808,808,808,808,808,808,808,808,808,808,808,808,808,808,808,808,808,808,808,808,808,808,808,808,808,808,808,808,808,809,809,807,806,805,803,803,802,801,793,788,785,778,769,760,737,720,698,670,648,589,572,554,540,531,521,513,509,507,505,505,505,505,505,505,507,511,515,516,516,517,517,517,517,517,518,518,518,518,518,518,518,518,518,518,518,518,518,518,518,518,518,518,518,518,518,518,518,518,518,518,518,518,517,513,506],"ymouse":[644,644,644,644,644,644,644,644,644,644,644,644,644,644,644,644,644,644,644,644,644,644,644,644,644,644,644,644,644,644,644,644,644,644,644,644,644,644,644,644,644,644,644,644,644,644,644,644,644,644,644,644,644,644,644,644,644,644,644,644,644,644,644,644,644,644,644,644,644,644,644,644,644,639,616,597,588,576,573,567,564,561,559,557,547,540,534,527,515,500,464,442,413,381,352,286,266,242,225,214,202,193,188,184,182,182,182,182,182,180,169,155,145,138,129,114,112,110,110,110,109,109,109,109,109,109,109,109,109,109,109,109,109,109,109,109,109,109,109,109,109,109,109,109,109,109,109,107,106,103,98],"timestamp_mouse":[10,35,49,68,88,110,128,148,169,190,209,229,248,268,289,309,328,348,369,388,408,429,448,469,488,508,529,549,570,588,609,630,649,670,688,708,729,748,768,788,808,829,849,868,890,908,928,948,969,990,1009,1028,1049,1068,1090,1110,1128,1148,1170,1189,1208,1229,1248,1268,1288,1308,1328,1348,1368,1389,1410,1428,1448,1470,1490,1509,1528,1550,1569,1590,1609,1629,1649,1668,1690,1708,1730,1749,1769,1790,1808,1829,1849,1869,1889,1909,1928,1949,1969,1988,2009,2029,2049,2069,2089,2109,2129,2149,2168,2190,2210,2229,2249,2270,2290,2308,2328,2349,2370,2389,2409,2429,2448,2468,2490,2508,2529,2549,2568,2588,2609,2628,2650,2669,2689,2708,2728,2749,2769,2790,2809,2829,2849,2868,2889,2909,2929,2948,2968,2989,3010],"xSR":741.5,"ySR":573.95,"xT1":424.9,"yT1":0,"xT2":1058.1,"yT2":0,"toosoon":0,"cond_shown":"Congruent","ratio_trial":200,"L_num":14,"L_den":28,"R_num":6,"R_den":20,"correct_side":1,"subjID":"MariaPaulaBeltranMora34","gender":"1","school":"4","age":"9"},{"start_time":1552308981738,"click_time":1552308983507,"finger_time":1552308983006,"fix_duration":250,"trial":40,"RT":1268,"MT":501,"sideResp":2,"stimulus":[],"xmouse":[775,775,775,775,775,775,775,775,775,775,775,775,775,775,775,775,775,775,775,775,775,775,775,775,775,775,775,775,775,775,775,775,775,775,775,775,775,775,775,775,775,775,775,775,775,775,775,775,775,775,775,775,775,775,775,776,781,788,797,799,801,803,806,813,822,837,857,881,918,930,944,956,972,998,1002,1004,1005,1009,1020,1026,1028,1033,1037,1043,1046,1050,1054,1058,1064],"ymouse":[612,612,612,612,612,612,612,612,612,612,612,612,612,612,612,612,612,612,612,612,612,612,612,612,612,612,612,612,612,612,612,612,612,612,612,612,612,612,612,612,612,612,612,612,612,612,612,612,612,612,612,612,612,612,612,613,608,599,588,587,584,582,578,569,559,542,518,485,426,405,379,358,337,289,279,273,267,254,217,199,181,163,140,119,112,99,81,62,30],"timestamp_mouse":[9,33,48,69,90,109,129,150,169,190,210,230,249,270,290,308,329,350,370,388,409,429,449,470,488,509,530,548,568,588,609,628,649,669,689,710,729,748,769,788,810,830,849,869,889,909,930,950,969,988,1008,1028,1049,1068,1088,1108,1128,1150,1169,1188,1209,1228,1249,1268,1289,1309,1328,1348,1369,1389,1409,1429,1449,1468,1489,1508,1529,1549,1568,1589,1609,1630,1649,1668,1689,1709,1728,1749,1769],"xSR":741.5,"ySR":573.95,"xT1":424.9,"yT1":0,"xT2":1058.1,"yT2":0,"toosoon":0,"cond_shown":"Congruent","ratio_trial":200,"L_num":9,"L_den":30,"R_num":13,"R_den":26,"correct_side":2,"subjID":"MariaPaulaBeltranMora34","gender":"1","school":"4","age":"9"},{"start_time":1552308987995,"click_time":1552308990006,"finger_time":1552308989527,"fix_duration":645.6873925584774,"trial":41,"RT":1532,"MT":479,"sideResp":2,"stimulus":[],"xmouse":[827,827,827,827,827,827,827,827,827,827,827,827,827,827,827,827,827,827,827,827,827,827,827,827,827,827,827,827,827,827,827,827,827,827,827,827,827,827,827,827,827,827,827,827,827,827,827,827,827,827,827,827,827,827,827,827,827,827,827,827,827,827,827,827,827,827,827,827,827,827,827,827,827,827,827,832,882,911,935,952,964,988,998,1012,1030,1086,1121,1140,1152,1169,1196,1204,1208,1210,1210,1210,1210,1210,1197,1177,1152],"ymouse":[633,633,633,633,633,633,633,633,633,633,633,633,633,633,633,633,633,633,633,633,633,633,633,633,633,633,633,633,633,633,633,633,633,633,633,633,633,633,633,633,633,633,633,633,633,633,633,633,633,633,633,633,633,633,633,633,633,633,633,633,633,633,633,633,633,633,633,633,633,633,633,633,633,633,633,621,521,449,380,342,322,297,291,280,269,244,226,215,206,188,147,129,115,105,101,101,101,100,95,85,75],"timestamp_mouse":[18,44,51,72,93,111,133,151,172,192,213,231,251,272,293,312,332,352,371,391,412,433,452,472,491,512,533,553,571,592,612,632,653,672,692,713,731,752,771,792,811,832,852,872,892,911,931,952,973,992,1011,1032,1052,1073,1092,1112,1132,1153,1172,1192,1211,1232,1253,1272,1291,1312,1332,1351,1372,1391,1412,1433,1453,1473,1491,1512,1532,1551,1571,1592,1612,1633,1652,1671,1691,1713,1731,1753,1771,1793,1813,1832,1852,1873,1892,1913,1933,1951,1971,1993,2011],"xSR":741.5,"ySR":573.95,"xT1":424.9,"yT1":0,"xT2":1058.1,"yT2":0,"toosoon":0,"cond_shown":"Congruent","ratio_trial":200,"L_num":13,"L_den":26,"R_num":14,"R_den":20,"correct_side":2,"subjID":"MariaPaulaBeltranMora34","gender":"1","school":"4","age":"9"},{"start_time":1552308994674,"click_time":1552308996547,"finger_time":1552308996188,"fix_duration":1465.6770751564343,"trial":42,"RT":1514,"MT":359,"sideResp":1,"stimulus":[],"xmouse":[795,795,795,795,795,795,795,795,795,795,795,795,795,795,795,795,795,795,795,795,795,795,795,795,795,795,795,795,795,795,795,795,795,795,795,795,795,795,795,795,795,795,795,795,795,795,795,795,795,795,795,795,795,795,795,795,795,795,795,795,795,795,795,795,795,795,795,795,795,795,795,795,795,804,810,815,818,820,820,820,817,795,732,710,635,587,568,535,497,491,487,483,474,450],"ymouse":[632,632,632,632,632,632,632,632,632,632,632,632,632,632,632,632,632,632,632,632,632,632,632,632,632,632,632,632,632,632,632,632,632,632,632,632,632,632,632,632,632,632,632,632,632,632,632,632,632,632,632,632,632,632,632,632,632,632,632,632,632,632,632,632,632,632,632,632,632,632,632,632,628,605,582,558,537,510,491,461,333,249,97,44,0,0,0,0,0,0,0,0,0,12],"timestamp_mouse":[12,44,53,74,92,113,133,153,172,193,213,233,252,274,293,313,332,352,372,394,413,433,453,472,492,514,533,553,572,592,613,633,653,674,692,714,734,753,774,794,814,832,853,873,894,913,934,953,972,992,1012,1033,1053,1072,1093,1114,1133,1153,1173,1194,1214,1233,1252,1273,1294,1313,1333,1352,1374,1392,1413,1432,1452,1473,1494,1514,1533,1553,1572,1594,1613,1633,1652,1672,1693,1713,1732,1752,1773,1792,1812,1833,1853,1873],"xSR":741.5,"ySR":573.95,"xT1":424.9,"yT1":0,"xT2":1058.1,"yT2":0,"toosoon":0,"cond_shown":"Congruent","ratio_trial":200,"L_num":16,"L_den":20,"R_num":12,"R_den":20,"correct_side":1,"subjID":"MariaPaulaBeltranMora34","gender":"1","school":"4","age":"9"},{"start_time":1552309001446,"click_time":1552309002887,"finger_time":1552309002167,"fix_duration":1477.4722779442418,"trial":43,"RT":721,"MT":720,"sideResp":2,"stimulus":[],"xmouse":[804,804,804,804,804,804,804,804,804,804,804,804,804,804,804,804,804,804,804,804,804,804,804,804,804,804,804,804,804,804,804,804,804,804,804,819,842,870,892,927,979,99