[{"start_time":1552309572264,"click_time":1552309574560,"finger_time":1552309572300,"fix_duration":1280.451530246479,"trial":0,"RT":36,"MT":2260,"sideResp":2,"stimulus":"img/900/randomdotsizeEA/R/3_Ratio_900_L_9_R_10.png","xmouse":[796,796,796,796,796,796,796,796,796,796,796,796,796,796,796,796,796,796,796,796,796,796,796,796,796,796,796,796,796,796,796,796,796,796,796,796,796,796,796,796,796,796,796,796,796,796,796,796,796,796,796,796,796,796,796,796,796,796,796,796,796,796,796,796,796,796,796,792,784,776,763,757,755,754,754,754,754,754,754,755,777,798,827,859,883,911,919,924,927,931,936,939,940,940,940,940,940,940,940,940,946,978,1009,1036,1048,1048,1048,1048,1048,1048,1048,1048,1048,1078],"ymouse":[575,574,574,574,574,574,574,574,574,574,574,574,574,574,574,574,574,574,574,574,574,574,574,574,574,574,574,574,574,574,574,574,574,574,574,574,574,574,574,574,574,574,574,574,574,574,574,574,574,574,574,574,574,574,574,574,574,574,574,574,574,574,574,574,574,574,574,562,544,529,506,498,493,492,492,492,492,492,492,492,488,470,432,377,315,187,135,98,70,52,31,18,17,17,17,17,17,17,17,17,15,12,11,5,3,3,3,3,3,3,3,3,3,10],"timestamp_mouse":[36,56,77,97,116,136,157,177,197,217,236,257,277,296,317,336,356,378,397,417,436,457,476,496,516,536,556,577,598,617,636,656,676,696,717,736,756,778,797,816,837,856,877,896,918,936,956,976,997,1017,1037,1057,1077,1096,1118,1136,1156,1177,1197,1217,1237,1256,1277,1298,1318,1336,1357,1377,1397,1416,1436,1457,1478,1497,1517,1537,1557,1577,1597,1616,1637,1657,1676,1697,1716,1736,1758,1777,1796,1817,1836,1857,1876,1896,1916,1937,1956,1976,1996,2017,2036,2056,2076,2097,2117,2137,2157,2178,2197,2216,2236,2256,2276,2296],"xSR":741.5,"ySR":501.8,"xT1":424.9,"yT1":0,"xT2":1058.1,"yT2":0,"toosoon":0,"cond_shown":"randomdotsizeEA","ratio_trial":900,"smaller_num":"9","larger_num":"10","correct_side":2,"subjID":"mariapaulabeltranmora34","gender":"1","age":"9","school":"1","test":{"fix_dur":[250,1500],"timestim":300,"targets_dim":[100,100],"targets_relative_coord":[0.3,0.7],"size_stim":[880,420],"start_dim":[100,100],"size_start":[300,300],"size_fix":60,"samplingrate":20,"img_types":["equaldotsize","equaldotanddens","randomdotsizeEA"],"ratios":[250,500,750,900],"rep_conds":9,"nTrials":120,"trials_to_rest":500,"Trials_order":[71,85,16,19,21,63,88,116,112,25,83,60,91,40,87,6,69,17,109,51,100,73,20,118,13,15,70,92,105,117,50,55,1,67,78,48,3,119,18,12,52,101,93,36,7,41,96,74,10,23,104,77,97,43,76,0,14,42,66,2,80,79,24,32,28,11,9,44,8,34,107,29,102,30,106,86,98,114,59,65,26,49,95,33,90,108,111,47,57,39,56,82,27,94,62,103,58,45,46,35,115,4,31,53,89,64,84,22,54,68,75,110,113,72,5,61,81,99,37,38],"cond_shown":["randomdotsizeEA","equaldotanddens","equaldotanddens","equaldotanddens","equaldotsize","equaldotsize","equaldotanddens","randomdotsizeEA","equaldotanddens","equaldotanddens","randomdotsizeEA","equaldotsize","equaldotanddens","equaldotanddens","equaldotsize","equaldotsize","equaldotsize","randomdotsizeEA","equaldotanddens","equaldotsize","equaldotanddens","equaldotanddens","randomdotsizeEA","equaldotanddens","equaldotanddens","equaldotsize","equaldotanddens","randomdotsizeEA","equaldotsize","equaldotsize","randomdotsizeEA","equaldotanddens","equaldotanddens","equaldotanddens","equaldotsize","equaldotsize","equaldotsize","randomdotsizeEA","equaldotsize","equaldotsize","equaldotanddens","randomdotsizeEA","equaldotsize","equaldotsize","equaldotanddens","randomdotsizeEA","equaldotsize","randomdotsizeEA","equaldotanddens","randomdotsizeEA","randomdotsizeEA","randomdotsizeEA","equaldotanddens","equaldotanddens","equaldotanddens","equaldotsize","randomdotsizeEA","equaldotsize","equaldotsize","randomdotsizeEA","randomdotsizeEA","equaldotanddens","equaldotsize","randomdotsizeEA","equaldotanddens","randomdotsizeEA","equaldotsize","randomdotsizeEA","randomdotsizeEA","equaldotanddens","randomdotsizeEA","randomdotsizeEA","equaldotsize","equaldotsize","equaldotanddens","randomdotsizeEA","randomdotsizeEA","equaldotsize","randomdotsizeEA","randomdotsizeEA","randomdotsizeEA","equaldotanddens","randomdotsizeEA","equaldotsize","equaldotsize","equaldotsize","equaldotsize","randomdotsizeEA","equaldotsize","equaldotsize","randomdotsizeEA","equaldotanddens","equaldotsize","equaldotanddens","randomdotsizeEA","equaldotanddens","equaldotanddens","equaldotsize","equaldotanddens","randomdotsizeEA","equaldotanddens","equaldotanddens","equaldotanddens","randomdotsizeEA","randomdotsizeEA","equaldotanddens","equaldotsize","equaldotanddens","equaldotsize","randomdotsizeEA","equaldotsize","randomdotsizeEA","randomdotsizeEA","equaldotsize","randomdotsizeEA","equaldotanddens","equaldotsize","equaldotsize","equaldotanddens","randomdotsizeEA"],"ratio_trial":[900,250,500,750,900,500,500,750,500,250,900,250,750,500,500,750,900,500,250,500,500,250,750,900,250,500,900,750,900,900,250,750,250,750,750,250,500,900,750,250,500,500,900,250,750,500,250,250,900,900,750,500,250,750,500,250,250,750,750,250,750,750,250,750,500,900,900,750,750,900,900,500,750,750,900,250,250,750,900,500,250,250,900,900,750,250,500,900,900,500,750,900,500,900,250,750,900,900,900,900,750,500,750,500,500,500,250,900,750,750,500,250,500,250,500,250,900,500,250,250],"smaller_num":["9","2","9","3","18","1","2","15","9","2","18","2","15","1","6","12","9","5","2","9","1","3","6","18","2","4","18","6","9","18","3","3","4","9","15","2","2","9","3","3","10","1","18","2","18","9","2","3","18","9","15","2","5","3","2","3","1","15","6","1","15","3","2","3","4","9","9","12","12","18","9","9","15","12","9","3","2","9","18","9","2","3","18","9","3","1","5","9","18","1","9","18","5","18","3","3","9","18","9","18","15","9","9","5","5","5","3","18","6","3","6","1","6","6","3","2","18","6","3","6"],"larger_num":["10","8","18","4","20","2","4","20","18","8","20","8","20","2","12","16","10","10","8","18","2","12","8","20","8","8","20","8","10","20","12","4","16","12","20","8","4","10","4","12","20","2","20","8","24","18","8","12","20","10","20","4","20","4","4","12","4","20","8","4","20","4","8","4","8","10","10","16","16","20","10","18","20","16","10","12","8","12","20","18","8","12","20","10","4","4","10","10","20","2","12","20","10","20","12","4","10","20","10","20","20","18","12","10","10","10","12","20","8","4","12","4","12","24","6","8","20","12","12","24"],"correct_side":[2,2,1,2,1,2,1,1,2,1,1,1,2,2,1,2,2,2,1,1,2,1,2,1,2,1,2,2,2,1,1,2,1,2,2,1,1,2,2,1,2,2,1,2,1,2,1,1,1,1,2,1,2,2,1,2,2,2,2,2,2,2,1,1,1,2,1,2,2,2,2,2,2,2,1,1,1,2,1,2,1,1,1,2,2,2,1,1,1,2,2,1,1,2,2,1,2,1,2,1,1,2,2,2,1,1,2,2,1,1,1,2,1,1,2,1,2,1,2,2],"img_shown":["img/900/randomdotsizeEA/R/3_Ratio_900_L_9_R_10.png","img/250/equaldotanddens/R/13_Ratio_250_L_2_R_8.png","img/500/equaldotanddens/L/4_Ratio_500_L_18_R_9.png","img/750/equaldotanddens/R/12_Ratio_750_L_3_R_4.png","img/900/equaldotsize/L/8_Ratio_900_L_20_R_18.png","img/500/equaldotsize/R/12_Ratio_500_L_1_R_2.png","img/500/equaldotanddens/L/10_Ratio_500_L_4_R_2.png","img/750/randomdotsizeEA/L/1_Ratio_750_L_20_R_15.png","img/500/equaldotanddens/R/1_Ratio_500_L_9_R_18.png","img/250/equaldotanddens/L/1_Ratio_250_L_8_R_2.png","img/900/randomdotsizeEA/L/2_Ratio_900_L_20_R_18.png","img/250/equaldotsize/L/7_Ratio_250_L_8_R_2.png","img/750/equaldotanddens/R/4_Ratio_750_L_15_R_20.png","img/500/equaldotanddens/R/15_Ratio_500_L_1_R_2.png","img/500/equaldotsize/L/13_Ratio_500_L_12_R_6.png","img/750/equaldotsize/R/11_Ratio_750_L_12_R_16.png","img/900/equaldotsize/R/5_Ratio_900_L_9_R_10.png","img/500/randomdotsizeEA/R/14_Ratio_500_L_5_R_10.png","img/250/equaldotanddens/L/1_Ratio_250_L_8_R_2.png","img/500/equaldotsize/L/4_Ratio_500_L_18_R_9.png","img/500/equaldotanddens/R/12_Ratio_500_L_1_R_2.png","img/250/equaldotanddens/L/14_Ratio_250_L_12_R_3.png","img/750/randomdotsizeEA/R/2_Ratio_750_L_6_R_8.png","img/900/equaldotanddens/L/4_Ratio_900_L_20_R_18.png","img/250/equaldotanddens/R/13_Ratio_250_L_2_R_8.png","img/500/equaldotsize/L/8_Ratio_500_L_8_R_4.png","img/900/equaldotanddens/R/11_Ratio_900_L_18_R_20.png","img/750/randomdotsizeEA/R/2_Ratio_750_L_6_R_8.png","img/900/equaldotsize/R/6_Ratio_900_L_9_R_10.png","img/900/equaldotsize/L/2_Ratio_900_L_20_R_18.png","img/250/randomdotsizeEA/L/15_Ratio_250_L_12_R_3.png","img/750/equaldotanddens/R/7_Ratio_750_L_3_R_4.png","img/250/equaldotanddens/L/2_Ratio_250_L_16_R_4.png","img/750/equaldotanddens/R/15_Ratio_750_L_9_R_12.png","img/750/equaldotsize/R/4_Ratio_750_L_15_R_20.png","img/250/equaldotsize/L/7_Ratio_250_L_8_R_2.png","img/500/equaldotsize/L/10_Ratio_500_L_4_R_2.png","img/900/randomdotsizeEA/R/5_Ratio_900_L_9_R_10.png","img/750/equaldotsize/R/7_Ratio_750_L_3_R_4.png","img/250/equaldotsize/L/15_Ratio_250_L_12_R_3.png","img/500/equaldotanddens/R/3_Ratio_500_L_10_R_20.png","img/500/randomdotsizeEA/R/12_Ratio_500_L_1_R_2.png","img/900/equaldotsize/L/4_Ratio_900_L_20_R_18.png","img/250/equaldotsize/R/13_Ratio_250_L_2_R_8.png","img/750/equaldotanddens/L/6_Ratio_750_L_24_R_18.png","img/500/randomdotsizeEA/R/6_Ratio_500_L_9_R_18.png","img/250/equaldotsize/L/1_Ratio_250_L_8_R_2.png","img/250/randomdotsizeEA/L/14_Ratio_250_L_12_R_3.png","img/900/equaldotanddens/L/10_Ratio_900_L_20_R_18.png","img/900/randomdotsizeEA/L/1_Ratio_900_L_10_R_9.png","img/750/randomdotsizeEA/R/5_Ratio_750_L_15_R_20.png","img/500/randomdotsizeEA/L/5_Ratio_500_L_4_R_2.png","img/250/equaldotanddens/R/12_Ratio_250_L_5_R_20.png","img/750/equaldotanddens/R/12_Ratio_750_L_3_R_4.png","img/500/equaldotanddens/L/10_Ratio_500_L_4_R_2.png","img/250/equaldotsize/R/11_Ratio_250_L_3_R_12.png","img/250/randomdotsizeEA/R/8_Ratio_250_L_1_R_4.png","img/750/equaldotsize/R/3_Ratio_750_L_15_R_20.png","img/750/equaldotsize/R/2_Ratio_750_L_6_R_8.png","img/250/randomdotsizeEA/R/8_Ratio_250_L_1_R_4.png","img/750/randomdotsizeEA/R/5_Ratio_750_L_15_R_20.png","img/750/equaldotanddens/R/12_Ratio_750_L_3_R_4.png","img/250/equaldotsize/L/1_Ratio_250_L_8_R_2.png","img/750/randomdotsizeEA/L/9_Ratio_750_L_4_R_3.png","img/500/equaldotanddens/L/8_Ratio_500_L_8_R_4.png","img/900/randomdotsizeEA/R/6_Ratio_900_L_9_R_10.png","img/900/equaldotsize/L/1_Ratio_900_L_10_R_9.png","img/750/randomdotsizeEA/R/11_Ratio_750_L_12_R_16.png","img/750/randomdotsizeEA/R/11_Ratio_750_L_12_R_16.png","img/900/equaldotanddens/R/13_Ratio_900_L_18_R_20.png","img/900/randomdotsizeEA/R/3_Ratio_900_L_9_R_10.png","img/500/randomdotsizeEA/R/6_Ratio_500_L_9_R_18.png","img/750/equaldotsize/R/5_Ratio_750_L_15_R_20.png","img/750/equaldotsize/R/11_Ratio_750_L_12_R_16.png","img/900/equaldotanddens/L/1_Ratio_900_L_10_R_9.png","img/250/randomdotsizeEA/L/15_Ratio_250_L_12_R_3.png","img/250/randomdotsizeEA/L/7_Ratio_250_L_8_R_2.png","img/750/equaldotsize/R/15_Ratio_750_L_9_R_12.png","img/900/randomdotsizeEA/L/10_Ratio_900_L_20_R_18.png","img/500/randomdotsizeEA/R/1_Ratio_500_L_9_R_18.png","img/250/randomdotsizeEA/L/7_Ratio_250_L_8_R_2.png","img/250/equaldotanddens/L/15_Ratio_250_L_12_R_3.png","img/900/randomdotsizeEA/L/10_Ratio_900_L_20_R_18.png","img/900/equaldotsize/R/15_Ratio_900_L_9_R_10.png","img/750/equaldotsize/R/12_Ratio_750_L_3_R_4.png","img/250/equaldotsize/R/8_Ratio_250_L_1_R_4.png","img/500/equaldotsize/L/7_Ratio_500_L_10_R_5.png","img/900/randomdotsizeEA/L/1_Ratio_900_L_10_R_9.png","img/900/equaldotsize/L/10_Ratio_900_L_20_R_18.png","img/500/equaldotsize/R/12_Ratio_500_L_1_R_2.png","img/750/randomdotsizeEA/R/15_Ratio_750_L_9_R_12.png","img/900/equaldotanddens/L/8_Ratio_900_L_20_R_18.png","img/500/equaldotsize/L/7_Ratio_500_L_10_R_5.png","img/900/equaldotanddens/R/14_Ratio_900_L_18_R_20.png","img/250/randomdotsizeEA/R/9_Ratio_250_L_3_R_12.png","img/750/equaldotanddens/L/9_Ratio_750_L_4_R_3.png","img/900/equaldotanddens/R/3_Ratio_900_L_9_R_10.png","img/900/equaldotsize/L/8_Ratio_900_L_20_R_18.png","img/900/equaldotanddens/R/5_Ratio_900_L_9_R_10.png","img/900/randomdotsizeEA/L/8_Ratio_900_L_20_R_18.png","img/750/equaldotanddens/L/1_Ratio_750_L_20_R_15.png","img/500/equaldotanddens/R/1_Ratio_500_L_9_R_18.png","img/750/equaldotanddens/R/15_Ratio_750_L_9_R_12.png","img/500/randomdotsizeEA/R/14_Ratio_500_L_5_R_10.png","img/500/randomdotsizeEA/L/7_Ratio_500_L_10_R_5.png","img/500/equaldotanddens/L/7_Ratio_500_L_10_R_5.png","img/250/equaldotsize/R/11_Ratio_250_L_3_R_12.png","img/900/equaldotanddens/R/9_Ratio_900_L_18_R_20.png","img/750/equaldotsize/L/13_Ratio_750_L_8_R_6.png","img/750/randomdotsizeEA/L/8_Ratio_750_L_4_R_3.png","img/500/equaldotsize/L/11_Ratio_500_L_12_R_6.png","img/250/randomdotsizeEA/R/8_Ratio_250_L_1_R_4.png","img/500/randomdotsizeEA/L/13_Ratio_500_L_12_R_6.png","img/250/equaldotsize/L/5_Ratio_250_L_24_R_6.png","img/500/randomdotsizeEA/R/2_Ratio_500_L_3_R_6.png","img/250/equaldotanddens/L/3_Ratio_250_L_8_R_2.png","img/900/equaldotsize/R/13_Ratio_900_L_18_R_20.png","img/500/equaldotsize/L/11_Ratio_500_L_12_R_6.png","img/250/equaldotanddens/R/4_Ratio_250_L_3_R_12.png","img/250/randomdotsizeEA/R/6_Ratio_250_L_6_R_24.png"],"Rat0":[["12_Ratio_0_L_9_R_0.png","13_Ratio_0_L_6_R_0.png","5_Ratio_0_L_2_R_0.png","6_Ratio_0_L_4_R_0.png","8_Ratio_0_L_6_R_0.png"],["1_Ratio_0_L_0_R_17.png","10_Ratio_0_L_0_R_22.png","11_Ratio_0_L_0_R_1.png","14_Ratio_0_L_0_R_24.png","15_Ratio_0_L_0_R_4.png","2_Ratio_0_L_0_R_5.png","3_Ratio_0_L_0_R_17.png","4_Ratio_0_L_0_R_7.png","7_Ratio_0_L_0_R_19.png","9_Ratio_0_L_0_R_15.png"]],"Rat250":[["1_Ratio_250_L_8_R_2.png","14_Ratio_250_L_12_R_3.png","15_Ratio_250_L_12_R_3.png","2_Ratio_250_L_16_R_4.png","3_Ratio_250_L_8_R_2.png","5_Ratio_250_L_24_R_6.png","7_Ratio_250_L_8_R_2.png"],["10_Ratio_250_L_4_R_16.png","11_Ratio_250_L_3_R_12.png","12_Ratio_250_L_5_R_20.png","13_Ratio_250_L_2_R_8.png","4_Ratio_250_L_3_R_12.png","6_Ratio_250_L_6_R_24.png","8_Ratio_250_L_1_R_4.png","9_Ratio_250_L_3_R_12.png"]],"Rat500":[["10_Ratio_500_L_4_R_2.png","11_Ratio_500_L_12_R_6.png","13_Ratio_500_L_12_R_6.png","4_Ratio_500_L_18_R_9.png","5_Ratio_500_L_4_R_2.png","7_Ratio_500_L_10_R_5.png","8_Ratio_500_L_8_R_4.png"],["1_Ratio_500_L_9_R_18.png","12_Ratio_500_L_1_R_2.png","14_Ratio_500_L_5_R_10.png","15_Ratio_500_L_1_R_2.png","2_Ratio_500_L_3_R_6.png","3_Ratio_500_L_10_R_20.png","6_Ratio_500_L_9_R_18.png","9_Ratio_500_L_2_R_4.png"]],"Rat750":[["1_Ratio_750_L_20_R_15.png","10_Ratio_750_L_4_R_3.png","13_Ratio_750_L_8_R_6.png","14_Ratio_750_L_8_R_6.png","6_Ratio_750_L_24_R_18.png","8_Ratio_750_L_4_R_3.png","9_Ratio_750_L_4_R_3.png"],["11_Ratio_750_L_12_R_16.png","12_Ratio_750_L_3_R_4.png","15_Ratio_750_L_9_R_12.png","2_Ratio_750_L_6_R_8.png","3_Ratio_750_L_15_R_20.png","4_Ratio_750_L_15_R_20.png","5_Ratio_750_L_15_R_20.png","7_Ratio_750_L_3_R_4.png"]],"Rat900":[["1_Ratio_900_L_10_R_9.png","10_Ratio_900_L_20_R_18.png","2_Ratio_900_L_20_R_18.png","4_Ratio_900_L_20_R_18.png","8_Ratio_900_L_20_R_18.png"],["11_Ratio_900_L_18_R_20.png","12_Ratio_900_L_18_R_20.png","13_Ratio_900_L_18_R_20.png","14_Ratio_900_L_18_R_20.png","15_Ratio_900_L_9_R_10.png","3_Ratio_900_L_9_R_10.png","5_Ratio_900_L_9_R_10.png","6_Ratio_900_L_9_R_10.png","7_Ratio_900_L_9_R_10.png","9_Ratio_900_L_18_R_20.png"]],"Rat1000":[["10_Ratio_1000_L_16_R_16.png","11_Ratio_1000_L_6_R_6.png","12_Ratio_1000_L_14_R_14.png","13_Ratio_1000_L_20_R_20.png","15_Ratio_1000_L_15_R_15.png","2_Ratio_1000_L_17_R_17.png","4_Ratio_1000_L_9_R_9.png","5_Ratio_1000_L_6_R_6.png","6_Ratio_1000_L_19_R_19.png","8_Ratio_1000_L_14_R_14.png","9_Ratio_1000_L_25_R_25.png"],["1_Ratio_1000_L_1_R_1.png","14_Ratio_1000_L_17_R_17.png","3_Ratio_1000_L_17_R_17.png","7_Ratio_1000_L_6_R_6.png"]]}},{"start_time":1552309581691,"click_time":1552309583081,"finger_time":1552309582281,"fix_duration":468.48290302156636,"trial":1,"RT":590,"MT":800,"sideResp":2,"stimulus":"img/250/equaldotanddens/R/13_Ratio_250_L_2_R_8.png","xmouse":[810,810,810,810,810,810,810,810,810,810,810,810,810,810,810,810,810,810,810,810,810,810,810,810,810,810,810,810,810,810,810,810,810,810,810,810,821,826,830,835,845,886,912,933,943,950,968,973,982,988,991,989,986,985,988,998,1027,1029,1029,1029,1029,1029,1030,1033,1037,1037,1039,1042,1050,1061],"ymouse":[549,549,549,549,549,549,549,549,549,549,549,549,549,549,549,549,549,549,549,549,549,549,549,549,549,549,532,504,482,463,447,421,409,400,379,373,325,314,310,304,298,273,260,252,246,242,226,220,208,193,178,150,139,133,127,118,104,104,104,104,104,104,104,103,102,101,97,91,79,66],"timestamp_mouse":[11,41,49,69,90,110,130,151,169,189,210,231,251,270,289,310,330,350,370,390,411,429,450,471,489,510,531,550,570,590,609,629,650,670,691,709,729,750,769,790,809,829,849,869,890,910,929,949,969,989,1009,1029,1049,1070,1090,1110,1130,1149,1170,1189,1209,1229,1250,1269,1289,1310,1329,1350,1369,1389],"xSR":741.5,"ySR":469.95,"xT1":424.9,"yT1":0,"xT2":1058.1,"yT2":0,"toosoon":0,"cond_shown":"equaldotanddens","ratio_trial":250,"smaller_num":"2","larger_num":"8","correct_side":2,"subjID":"mariapaulabeltranmora34","gender":"1","age":"9","school":"1"},{"start_time":1552309585912,"click_time":1552309586882,"finger_time":1552309586122,"fix_duration":250,"trial":2,"RT":210,"MT":760,"sideResp":1,"stimulus":"img/500/equaldotanddens/L/4_Ratio_500_L_18_R_9.png","xmouse":[781,781,781,781,781,781,781,781,781,781,779,789,802,810,810,810,810,810,810,808,784,758,734,721,709,691,676,654,625,596,550,528,501,480,461,459,459,461,465,469,473,478,478,478,478,478,478,478,476],"ymouse":[513,513,513,513,513,513,513,513,513,524,599,640,659,666,666,666,666,666,660,644,555,503,467,449,426,382,353,332,313,297,266,254,237,223,206,193,182,169,158,148,136,117,113,111,110,110,108,103,96],"timestamp_mouse":[9,38,48,70,88,109,128,148,169,188,210,230,248,269,288,310,330,348,369,389,409,430,448,469,489,509,529,548,569,589,609,630,649,669,688,709,728,749,768,789,809,828,848,868,888,908,929,948,969],"xSR":741.5,"ySR":469.95,"xT1":424.9,"yT1":0,"xT2":1058.1,"yT2":0,"toosoon":0,"cond_shown":"equaldotanddens","ratio_trial":500,"smaller_num":"9","larger_num":"18","correct_side":1,"subjID":"mariapaulabeltranmora34","gender":"1","age":"9","school":"1"},{"start_time":1552309588191,"click_time":1552309589460,"finger_time":1552309588621,"fix_duration":309.5587890899264,"trial":3,"RT":430,"MT":839,"sideResp":2,"stimulus":"img/750/equaldotanddens/R/12_Ratio_750_L_3_R_4.png","xmouse":[818,818,818,818,818,818,818,818,818,818,818,818,818,818,818,818,818,818,818,818,818,838,850,858,866,876,883,897,905,917,922,927,942,952,961,967,974,993,1012,1020,1024,1032,1036,1039,1039,1039,1039,1039,1039,1039,1040,1043,1049,1049,1049,1049,1049,1049,1050,1053,1053,1053,1054,1070],"ymouse":[526,526,526,526,526,526,526,526,526,526,526,526,526,526,526,526,526,526,526,526,526,453,390,347,322,301,286,258,246,227,218,212,195,185,177,168,159,138,124,114,103,64,53,44,41,40,40,40,40,40,39,39,41,42,42,42,42,42,42,44,44,44,44,55],"timestamp_mouse":[10,39,49,69,89,109,129,149,169,190,211,229,249,269,289,309,329,350,370,389,410,430,449,470,489,510,529,549,569,589,610,631,650,669,689,709,731,751,769,790,809,830,849,870,889,909,930,950,970,990,1009,1029,1049,1069,1089,1111,1130,1149,1169,1190,1210,1229,1250,1269],"xSR":741.5,"ySR":469.95,"xT1":424.9,"yT1":0,"xT2":1058.1,"yT2":0,"toosoon":0,"cond_shown":"equaldotanddens","ratio_trial":750,"smaller_num":"3","larger_num":"4","correct_side":2,"subjID":"mariapaulabeltranmora34","gender":"1","age":"9","school":"1"},{"start_time":1552309592259,"click_time":1552309593102,"finger_time":1552309592720,"fix_duration":416.0570087739214,"trial":4,"RT":461,"MT":382,"sideResp":2,"stimulus":"img/900/equaldotsize/L/8_Ratio_900_L_20_R_18.png","xmouse":[792,792,792,792,792,792,792,792,792,792,792,792,792,792,792,792,792,792,792,792,793,793,793,803,853,889,923,954,966,970,970,971,973,979,979,979,979,979,979,979,979,979,1119],"ymouse":[549,549,549,549,549,549,549,549,549,549,549,549,549,549,549,549,549,549,549,549,535,517,492,459,333,252,179,123,89,50,42,37,31,13,13,13,13,13,13,13,13,13,4],"timestamp_mouse":[9,21,43,62,82,101,123,142,161,182,201,222,241,262,282,301,321,342,362,382,401,421,442,461,482,502,521,541,561,581,602,622,641,662,681,701,721,742,762,781,803,822,842],"xSR":741.5,"ySR":469.95,"xT1":424.9,"yT1":0,"xT2":1058.1,"yT2":0,"toosoon":0,"cond_shown":"equaldotsize","ratio_trial":900,"smaller_num":"18","larger_num":"20","correct_side":1,"subjID":"mariapaulabeltranmora34","gender":"1","age":"9","school":"1"},{"start_time":1552309595621,"click_time":1552309596501,"finger_time":1552309596240,"fix_duration":938.6887520409804,"trial":5,"RT":619,"MT":261,"sideResp":2,"stimulus":"img/500/equaldotsize/R/12_Ratio_500_L_1_R_2.png","xmouse":[799,799,799,799,798,798,798,798,798,798,798,798,798,798,798,798,798,798,798,798,798,798,798,798,798,798,798,798,798,793,777,720,697,677,667,664,664,664,666,673,721,871,997,1037,1114],"ymouse":[533,533,533,533,532,532,532,532,532,532,532,532,532,532,532,532,532,532,532,532,532,532,532,532,532,532,532,532,532,507,476,410,393,378,372,370,370,370,366,351,293,172,94,71,37],"timestamp_mouse":[1,25,40,59,79,101,120,139,161,179,199,220,241,259,279,299,319,339,359,380,400,420,439,459,480,499,520,539,559,579,600,619,639,660,679,699,719,741,759,780,799,820,839,859,880],"xSR":741.5,"ySR":469.95,"xT1":424.9,"yT1":0,"xT2":1058.1,"yT2":0,"toosoon":0,"cond_shown":"equaldotsize","ratio_trial":500,"smaller_num":"1","larger_num":"2","correct_side":2,"subjID":"mariapaulabeltranmora34","gender":"1","age":"9","school":"1"},{"start_time":1552309598173,"click_time":1552309599220,"finger_time":1552309598780,"fix_duration":690.4402209245758,"trial":6,"RT":607,"MT":440,"sideResp":1,"stimulus":"img/500/equaldotanddens/L/10_Ratio_500_L_4_R_2.png","xmouse":[797,797,797,797,797,797,797,797,797,797,797,797,797,797,797,797,797,797,797,797,797,797,797,797,797,797,797,797,797,787,746,694,634,563,441,395,381,370,362,347,345,344,344,346,360,371,387,402,412,416,416,417,428],"ymouse":[521,521,521,521,521,521,521,521,521,521,521,521,521,521,521,521,521,521,521,521,521,521,521,521,521,521,521,521,521,511,463,417,372,326,254,224,215,209,203,185,176,166,155,145,116,100,77,58,45,38,38,38,38],"timestamp_mouse":[9,34,48,68,88,109,127,148,168,189,208,228,248,269,287,309,328,348,367,389,408,428,448,467,489,508,527,547,568,588,607,627,649,667,687,707,727,748,767,788,808,828,848,867,887,907,928,948,969,988,1008,1028,1047],"xSR":741.5,"ySR":469.95,"xT1":424.9,"yT1":0,"xT2":1058.1,"yT2":0,"toosoon":0,"cond_shown":"equaldotanddens","ratio_trial":500,"smaller_num":"2","larger_num":"4","correct_side":1,"subjID":"mariapaulabeltranmora34","gender":"1","age":"9","school":"1"},{"start_time":1552309600942,"click_time":1552309601681,"finger_time":1552309601560,"fix_duration":679.662582066123,"trial":7,"RT":618,"MT":121,"sideResp":2,"stimulus":"img/750/randomdotsizeEA/L/1_Ratio_750_L_20_R_15.png","xmouse":[790,790,790,790,790,790,790,790,790,790,790,790,790,790,790,790,790,790,790,790,790,790,790,791,793,793,793,794,794,796,799,809,817,829,854,913,1045,1108],"ymouse":[531,531,531,531,531,531,531,531,531,531,531,531,531,531,531,531,531,531,531,531,531,531,530,525,515,514,513,510,505,500,489,454,431,405,358,271,143,81],"timestamp_mouse":[1,18,41,58,78,100,119,139,159,179,199,219,239,259,278,298,318,339,359,379,399,418,438,460,478,499,518,539,558,579,598,618,639,658,678,698,718,739],"xSR":741.5,"ySR":469.95,"xT1":424.9,"yT1":0,"xT2":1058.1,"yT2":0,"toosoon":0,"cond_shown":"randomdotsizeEA","ratio_trial":750,"smaller_num":"15","larger_num":"20","correct_side":1,"subjID":"mariapaulabeltranmora34","gender":"1","age":"9","school":"1"},{"start_time":1552309603189,"click_time":1552309604081,"finger_time":1552309603761,"fix_duration":506.75820955730177,"trial":8,"RT":572,"MT":320,"sideResp":2,"stimulus":"img/500/equaldotanddens/R/1_Ratio_500_L_9_R_18.png","xmouse":[796,796,796,796,796,796,796,796,796,796,796,796,796,796,796,796,796,796,796,796,796,796,796,796,796,796,798,801,817,825,831,841,849,875,894,924,963,1009,1092,1112,1119,1120,1120,1120,1131],"ymouse":[509,509,509,509,509,509,509,509,509,509,509,509,509,509,509,509,509,509,509,509,509,509,509,509,509,509,508,504,469,447,426,400,386,348,324,285,242,190,119,105,101,101,101,101,82],"timestamp_mouse":[12,31,52,72,92,111,132,151,172,192,211,232,251,272,292,312,331,351,371,391,412,432,452,472,491,511,532,552,572,591,612,632,652,671,691,711,731,751,772,791,812,833,853,872,892],"xSR":741.5,"ySR":469.95,"xT1":424.9,"yT1":0,"xT2":1058.1,"yT2":0,"toosoon":0,"cond_shown":"equaldotanddens","ratio_trial":500,"smaller_num":"9","larger_num":"18","correct_side":2,"subjID":"mariapaulabeltranmora34","gender":"1","age":"9","school":"1"},{"start_time":1552309605479,"click_time":1552309606540,"finger_time":1552309606020,"fix_duration":456.29031795512884,"trial":9,"RT":541,"MT":520,"sideResp":1,"stimulus":"img/250/equaldotanddens/L/1_Ratio_250_L_8_R_2.png","xmouse":[801,801,801,801,801,801,801,801,801,801,801,801,801,801,801,801,801,801,801,801,801,801,801,801,801,796,777,718,669,584,559,534,511,493,481,473,473,473,473,473,473,473,473,473,473,473,473,473,473,473,473,473,473,474],"ymouse":[511,511,511,511,511,511,511,511,511,511,511,511,511,511,511,511,511,511,511,511,511,511,511,511,511,511,487,436,401,334,301,262,227,196,178,169,168,168,168,168,168,157,139,123,114,104,104,104,104,104,104,104,103,93],"timestamp_mouse":[7,22,43,62,82,103,122,142,161,182,202,221,242,263,281,301,321,343,363,382,402,423,441,462,481,501,523,541,561,582,601,622,642,662,681,701,722,742,762,782,801,821,842,861,881,901,923,942,961,983,1001,1021,1041,1061],"xSR":741.5,"ySR":469.95,"xT1":424.9,"yT1":0,"xT2":1058.1,"yT2":0,"toosoon":0,"cond_shown":"equaldotanddens","ratio_trial":250,"smaller_num":"2","larger_num":"8","correct_side":1,"subjID":"mariapaulabeltranmora34","gender":"1","age":"9","school":"1"},{"start_time":1552309608340,"click_time":1552309609680,"finger_time":1552309609042,"fix_duration":776.878348930181,"trial":10,"RT":702,"MT":638,"sideResp":2,"stimulus":"img/900/randomdotsizeEA/L/2_Ratio_900_L_20_R_18.png","xmouse":[781,781,781,781,781,781,781,781,781,781,781,781,781,781,781,781,781,781,781,781,781,781,781,781,781,781,781,781,781,781,781,781,782,788,798,811,832,892,956,1034,1119,1199,1329,1350,1362,1373,1387,1387,1387,1387,1387,1387,1387,1387,1387,1310,1290,1265,1259,1251,1238,1223,1202,1200,1195,1186,1170,1130],"ymouse":[514,514,514,514,514,514,514,514,514,514,514,514,514,514,514,514,514,514,514,514,514,514,514,514,514,514,514,514,514,514,514,514,510,497,480,461,435,378,331,275,212,152,67,56,48,35,4,4,4,4,4,4,4,4,4,17,29,39,41,42,44,44,44,44,43,39,33,26],"timestamp_mouse":[12,20,40,61,80,100,121,140,161,181,201,220,241,262,281,301,322,342,361,381,401,420,442,460,480,500,520,541,561,581,601,621,640,661,681,701,722,741,760,780,801,821,841,861,880,901,920,941,960,981,1001,1021,1041,1061,1081,1101,1120,1140,1161,1181,1201,1222,1241,1261,1280,1300,1322,1340],"xSR":741.5,"ySR":469.95,"xT1":424.9,"yT1":0,"xT2":1058.1,"yT2":0,"toosoon":0,"cond_shown":"randomdotsizeEA","ratio_trial":900,"smaller_num":"18","larger_num":"20","correct_side":1,"subjID":"mariapaulabeltranmora34","gender":"1","age":"9","school":"1"},{"start_time":1552309612436,"click_time":1552309613142,"finger_time":1552309612900,"fix_duration":353.095339422292,"trial":11,"RT":464,"MT":242,"sideResp":1,"stimulus":"img/250/equaldotsize/L/7_Ratio_250_L_8_R_2.png","xmouse":[750,750,750,750,750,750,750,750,750,750,750,750,750,750,750,750,750,750,750,750,751,751,743,713,683,649,595,528,509,500,496,491,486,482,480,475],"ymouse":[534,534,534,534,534,534,534,534,534,534,534,534,534,534,534,534,534,534,534,534,526,518,499,453,416,369,304,205,168,151,142,136,127,116,110,95],"timestamp_mouse":[9,25,46,65,84,104,126,145,165,184,205,224,244,264,285,304,326,345,364,385,406,425,444,464,485,505,526,545,564,585,605,625,645,664,684,705],"xSR":741.5,"ySR":469.95,"xT1":424.9,"yT1":0,"xT2":1058.1,"yT2":0,"toosoon":0,"cond_shown":"equaldotsize","ratio_trial":250,"smaller_num":"2","larger_num":"8","correct_side":1,"subjID":"mariapaulabeltranmora34","gender":"1","age":"9","school":"1"},{"start_time":1552309615837,"click_time":1552309616901,"finger_time":1552309616502,"fix_duration":1176.2809852624962,"trial":12,"RT":665,"MT":399,"sideResp":2,"stimulus":"img/750/equaldotanddens/R/4_Ratio_750_L_15_R_20.png","xmouse":[815,815,815,815,815,815,815,815,815,815,815,815,815,815,815,815,815,815,815,815,815,815,815,815,815,815,815,815,815,815,815,816,828,881,944,984,1033,1073,1144,1174,1195,1210,1222,1243,1249,1251,1252,1253,1253,1253,1250,1230,1201,1123],"ymouse":[537,537,537,537,537,537,537,537,537,537,537,537,537,537,537,537,537,537,537,537,537,537,537,537,537,537,537,537,537,537,532,527,509,444,363,322,278,246,181,152,131,113,95,50,35,24,15,11,8,8,8,21,40,97],"timestamp_mouse":[12,23,45,65,83,103,124,145,165,184,203,224,244,263,283,303,324,344,364,385,404,424,443,465,484,504,524,543,564,583,604,623,644,665,683,703,723,745,764,783,804,823,843,863,884,905,924,944,963,983,1003,1024,1043,1064],"xSR":741.5,"ySR":469.95,"xT1":424.9,"yT1":0,"xT2":1058.1,"yT2":0,"toosoon":0,"cond_shown":"equaldotanddens","ratio_trial":750,"smaller_num":"15","larger_num":"20","correct_side":2,"subjID":"mariapaulabeltranmora34","gender":"1","age":"9","school":"1"},{"start_time":1552309618190,"click_time":1552309619221,"finger_time":1552309618720,"fix_duration":468.1578991407306,"trial":13,"RT":530,"MT":501,"sideResp":2,"stimulus":"img/500/equaldotanddens/R/15_Ratio_500_L_1_R_2.png","xmouse":[814,814,814,814,814,814,814,814,814,814,814,814,814,814,814,814,814,814,814,814,814,814,814,814,817,831,842,859,884,907,945,961,986,1025,1071,1167,1198,1219,1229,1232,1233,1233,1233,1233,1233,1209,1186,1171,1161,1159,1159,1158],"ymouse":[508,508,508,508,508,508,508,508,508,508,508,508,508,508,508,508,508,508,508,508,508,506,505,502,498,473,456,432,394,349,294,278,256,217,172,98,75,57,41,35,30,30,30,30,30,38,49,55,58,58,58,58],"timestamp_mouse":[10,38,50,72,92,111,131,152,171,192,210,230,252,271,291,311,331,350,371,392,411,430,451,470,491,510,530,550,571,590,611,630,651,670,691,710,731,751,770,790,810,830,850,870,890,910,930,950,970,990,1010,1031],"xSR":741.5,"ySR":469.95,"xT1":424.9,"yT1":0,"xT2":1058.1,"yT2":0,"toosoon":0,"cond_shown":"equaldotanddens","ratio_trial":500,"smaller_num":"1","larger_num":"2","correct_side":2,"subjID":"mariapaulabeltranmora34","gender":"1","age":"9","school":"1"},{"start_time":1552309622188,"click_time":1552309623082,"finger_time":1552309622681,"fix_duration":605.5715405605681,"trial":14,"RT":493,"MT":401,"sideResp":1,"stimulus":"img/500/equaldotsize/L/13_Ratio_500_L_12_R_6.png","xmouse":[790,790,790,790,790,790,790,790,790,790,790,790,790,790,790,790,790,790,790,790,790,789,786,772,751,694,663,634,614,600,580,573,569,567,564,557,553,552,552,552,552,542,533,525,520],"ymouse":[534,534,534,534,534,534,534,534,534,534,534,534,534,534,534,534,534,534,534,534,534,522,515,484,444,339,290,245,206,177,128,111,96,88,77,61,55,54,54,54,54,53,52,52,51],"timestamp_mouse":[13,39,52,73,92,112,134,153,172,193,213,232,253,272,294,314,333,352,372,394,412,432,453,473,493,513,532,552,573,593,614,632,652,672,693,714,732,753,773,793,812,832,853,873,894],"xSR":741.5,"ySR":469.95,"xT1":424.9,"yT1":0,"xT2":1058.1,"yT2":0,"toosoon":0,"cond_shown":"equaldotsize","ratio_trial":500,"smaller_num":"6","larger_num":"12","correct_side":1,"subjID":"mariapaulabeltranmora34","gender":"1","age":"9","school":"1"},{"start_time":1552309624389,"click_time":1552309625061,"finger_time":1552309624821,"fix_duration":466.78564166800487,"trial":15,"RT":432,"MT":240,"sideResp":2,"stimulus":"img/750/equaldotsize/R/11_Ratio_750_L_12_R_16.png","xmouse":[773,773,773,773,773,773,773,773,773,773,773,773,773,773,773,773,773,773,773,776,780,815,885,935,975,1001,1042,1060,1078,1087,1095,1097,1100,1104],"ymouse":[493,493,493,493,493,493,493,493,493,493,493,493,493,493,493,493,493,493,493,491,485,452,395,356,334,315,262,219,176,154,131,123,112,82],"timestamp_mouse":[12,31,57,73,91,112,132,152,172,192,211,232,252,272,292,313,331,351,372,392,412,432,451,472,492,511,532,552,571,592,613,631,651,671],"xSR":741.5,"ySR":469.95,"xT1":424.9,"yT1":0,"xT2":1058.1,"yT2":0,"toosoon":0,"cond_shown":"equaldotsize","ratio_trial":750,"smaller_num":"12","larger_num":"16","correct_side":2,"subjID":"mariapaulabeltranmora34","gender":"1","age":"9","school":"1"},{"start_time":1552309626785,"click_time":1552309628160,"finger_time":1552309627442,"fix_duration":862.6253724522331,"trial":16,"RT":657,"MT":718,"sideResp":1,"stimulus":"img/900/equaldotsize/R/5_Ratio_900_L_9_R_10.png","xmouse":[818,818,818,818,818,818,818,818,818,818,818,818,818,818,818,818,818,818,818,818,818,818,818,818,818,818,818,818,818,818,817,810,799,781,765,747,715,697,680,663,651,640,638,636,631,624,609,600,589,579,571,562,552,546,541,539,539,539,539,539,539,539,539,539,539,539,536,530,524],"ymouse":[528,528,528,528,528,528,528,528,528,528,528,528,528,528,528,528,528,528,528,528,528,528,528,528,528,528,528,528,528,528,528,481,442,399,366,334,285,260,233,213,194,177,174,171,166,155,130,115,100,88,80,71,66,64,62,62,62,62,62,62,62,62,62,62,62,62,62,60,59],"timestamp_mouse":[16,35,55,75,96,116,135,156,175,196,215,236,255,277,296,316,336,356,376,396,415,436,456,477,496,515,536,556,576,595,616,635,657,677,696,716,735,756,776,795,816,835,855,876,896,915,935,956,976,995,1016,1035,1056,1076,1095,1116,1135,1155,1175,1195,1215,1235,1256,1275,1295,1315,1335,1355,1375],"xSR":741.5,"ySR":469.95,"xT1":424.9,"yT1":0,"xT2":1058.1,"yT2":0,"toosoon":0,"cond_shown":"equaldotsize","ratio_trial":900,"smaller_num":"9","larger_num":"10","correct_side":2,"subjID":"mariapaulabeltranmora34","gender":"1","age":"9","school":"1"},{"start_time":1552309629676,"click_time":1552309630681,"finger_time":1552309630020,"fix_duration":554.0614288124517,"trial":17,"RT":344,"MT":661,"sideResp":2,"stimulus":"img/500/randomdotsizeEA/R/14_Ratio_500_L_5_R_10.png","xmouse":[771,771,771,771,771,771,771,771,771,771,771,771,771,771,771,774,783,816,845,888,932,963,986,1018,1024,1028,1029,1035,1039,1039,1039,1039,1039,1039,1039,1040,1030,1023,1023,1023,1027,1030,1034,1040,1047,1059,1064,1083,1091,1097,1097],"ymouse":[500,500,500,500,500,500,500,500,500,500,500,500,500,500,500,497,488,449,408,345,278,215,161,90,72,49,39,17,2,2,2,2,2,2,2,15,55,112,126,133,139,142,148,150,152,153,151,129,115,104,98],"timestamp_mouse":[9,34,45,65,85,104,125,145,166,186,205,224,245,265,286,305,324,344,364,386,405,425,445,464,484,505,525,545,564,586,605,626,645,666,684,704,725,744,765,785,805,825,845,865,885,906,926,945,965,984,1005],"xSR":741.5,"ySR":469.95,"xT1":424.9,"yT1":0,"xT2":1058.1,"yT2":0,"toosoon":0,"cond_shown":"randomdotsizeEA","ratio_trial":500,"smaller_num":"5","larger_num":"10","correct_side":2,"subjID":"mariapaulabeltranmora34","gender":"1","age":"9","school":"1"},{"start_time":1552309633192,"click_time":1552309634040,"finger_time":1552309633722,"fix_duration":250,"trial":18,"RT":530,"MT":318,"sideResp":1,"stimulus":"img/250/equaldotanddens/L/1_Ratio_250_L_8_R_2.png","xmouse":[793,793,793,793,793,793,793,793,793,793,793,793,793,793,793,793,793,793,793,793,793,793,793,793,790,785,740,700,624,582,548,526,504,500,496,489,488,486,486,486,486,486,490],"ymouse":[535,535,535,535,535,535,535,535,535,535,535,535,535,535,535,535,535,535,535,535,535,535,535,535,529,520,473,432,346,298,258,229,192,177,159,144,138,134,134,134,134,128,98],"timestamp_mouse":[10,31,48,69,88,109,129,148,168,189,209,228,250,268,290,309,329,348,368,389,408,429,449,469,489,509,530,548,568,588,608,629,649,669,688,709,729,748,768,788,808,828,848],"xSR":741.5,"ySR":469.95,"xT1":424.9,"yT1":0,"xT2":1058.1,"yT2":0,"toosoon":0,"cond_shown":"equaldotanddens","ratio_trial":250,"smaller_num":"2","larger_num":"8","correct_side":1,"subjID":"mariapaulabeltranmora34","gender":"1","age":"9","school":"1"},{"start_time":1552309636103,"click_time":1552309636860,"finger_time":1552309636561,"fix_duration":1181.4243642353867,"trial":19,"RT":458,"MT":299,"sideResp":1,"stimulus":"img/500/equaldotsize/L/4_Ratio_500_L_18_R_9.png","xmouse":[787,787,787,787,787,787,787,787,787,787,787,787,787,787,787,787,787,787,787,787,787,787,782,771,754,731,671,637,606,579,557,546,545,544,543,542,526,518],"ymouse":[508,508,508,508,508,508,508,508,508,508,508,508,508,508,508,508,508,508,508,508,508,488,465,439,405,368,287,240,196,157,125,109,107,106,102,89,52,40],"timestamp_mouse":[17,41,58,78,99,118,138,158,178,197,219,238,258,278,299,318,338,357,378,397,419,437,458,477,497,517,537,558,578,597,617,637,658,677,698,717,738,757],"xSR":741.5,"ySR":469.95,"xT1":424.9,"yT1":0,"xT2":1058.1,"yT2":0,"toosoon":0,"cond_shown":"equaldotsize","ratio_trial":500,"smaller_num":"9","larger_num":"18","correct_side":1,"subjID":"mariapaulabeltranmora34","gender":"1","age":"9","school":"1"},{"start_time":1552309638440,"click_time":1552309639422,"finger_time":1552309638941,"fix_duration":676.2731645417183,"trial":20,"RT":501,"MT":481,"sideResp":2,"stimulus":"img/500/equaldotanddens/R/12_Ratio_500_L_1_R_2.png","xmouse":[768,768,768,768,768,768,768,768,768,768,768,768,768,768,768,768,768,768,768,768,768,768,768,767,762,747,733,719,703,686,669,668,668,673,683,740,790,846,912,973,1035,1114,1138,1151,1157,1158,1160,1160,1160,1157],"ymouse":[496,496,496,496,496,496,496,496,496,496,496,496,496,496,496,496,496,496,496,496,496,496,496,492,481,446,428,413,399,385,371,371,369,355,343,307,288,275,264,254,239,202,181,168,158,153,132,115,96,84],"timestamp_mouse":[9,31,41,61,81,101,122,142,161,180,201,221,241,260,280,301,321,340,360,381,401,421,440,460,481,501,521,540,560,580,601,620,641,660,680,701,720,740,761,782,801,820,840,861,882,901,921,940,960,981],"xSR":741.5,"ySR":469.95,"xT1":424.9,"yT1":0,"xT2":1058.1,"yT2":0,"toosoon":0,"cond_shown":"equaldotanddens","ratio_trial":500,"smaller_num":"1","larger_num":"2","correct_side":2,"subjID":"mariapaulabeltranmora34","gender":"1","age":"9","school":"1"},{"start_time":1552309642961,"click_time":1552309643761,"finger_time":1552309643420,"fix_duration":759.7911183039703,"trial":21,"RT":459,"MT":341,"sideResp":1,"stimulus":"img/250/equaldotanddens/L/14_Ratio_250_L_12_R_3.png","xmouse":[801,801,801,801,801,801,801,801,801,801,801,801,801,801,801,801,801,801,801,795,790,783,770,756,729,710,695,675,656,627,614,600,584,570,559,557,554,546,536,519],"ymouse":[513,513,513,513,513,513,513,513,513,513,513,513,513,513,513,513,513,508,505,496,490,482,469,455,423,395,371,337,302,250,230,212,194,181,173,172,163,141,118,86],"timestamp_mouse":[20,41,60,79,99,120,139,159,180,201,221,240,260,279,300,320,339,360,379,399,420,439,459,481,500,519,539,560,579,599,621,639,660,680,700,719,739,759,780,800],"xSR":741.5,"ySR":469.95,"xT1":424.9,"yT1":0,"xT2":1058.1,"yT2":0,"toosoon":0,"cond_shown":"equaldotanddens","ratio_trial":250,"smaller_num":"3","larger_num":"12","correct_side":1,"subjID":"mariapaulabeltranmora34","gender":"1","age":"9","school":"1"},{"start_time":1552309645341,"click_time":1552309646100,"finger_time":1552309645802,"fix_duration":879.4525290290146,"trial":22,"RT":461,"MT":298,"sideResp":2,"stimulus":"img/750/randomdotsizeEA/R/2_Ratio_750_L_6_R_8.png","xmouse":[773,773,773,773,773,773,773,773,773,773,773,773,773,773,773,773,773,773,773,773,776,777,777,777,777,780,786,794,804,817,831,861,877,896,919,977,1058,1080],"ymouse":[497,497,497,497,497,497,497,497,497,497,497,497,497,497,497,497,497,497,497,496,480,471,465,461,457,444,429,409,387,362,337,289,265,242,215,165,112,98],"timestamp_mouse":[19,39,60,79,101,120,141,160,179,200,219,239,259,280,300,320,339,360,380,400,419,440,461,480,499,519,541,559,579,599,619,640,661,679,699,719,740,759],"xSR":741.5,"ySR":469.95,"xT1":424.9,"yT1":0,"xT2":1058.1,"yT2":0,"toosoon":0,"cond_shown":"randomdotsizeEA","ratio_trial":750,"smaller_num":"6","larger_num":"8","correct_side":2,"subjID":"mariapaulabeltranmora34","gender":"1","age":"9","school":"1"},{"start_time":1552309648144,"click_time":1552309648940,"finger_time":1552309648661,"fix_duration":1161.2507376660612,"trial":23,"RT":517,"MT":279,"sideResp":2,"stimulus":"img/900/equaldotanddens/L/4_Ratio_900_L_20_R_18.png","xmouse":[827,827,827,827,827,827,827,827,827,827,827,827,827,827,827,827,827,827,827,827,827,827,827,827,827,827,830,835,845,864,887,942,976,993,1006,1022,1030,1041,1050,1060],"ymouse":[489,489,489,489,489,489,489,488,488,488,488,488,488,488,488,488,488,488,488,488,488,488,488,484,478,469,459,442,420,377,323,222,162,135,117,96,84,68,53,40],"timestamp_mouse":[17,36,56,77,96,117,137,157,178,197,216,237,258,277,297,317,337,356,378,396,417,438,458,477,496,517,536,557,576,596,617,637,656,676,696,718,736,756,777,796],"xSR":741.5,"ySR":469.95,"xT1":424.9,"yT1":0,"xT2":1058.1,"yT2":0,"toosoon":0,"cond_shown":"equaldotanddens","ratio_trial":900,"smaller_num":"18","larger_num":"20","correct_side":1,"subjID":"mariapaulabeltranmora34","gender":"1","age":"9","school":"1"},{"start_time":1552309651745,"click_time":1552309653080,"finger_time":1552309652380,"fix_duration":422.31340741126166,"trial":24,"RT":635,"MT":700,"sideResp":2,"stimulus":"img/250/equaldotanddens/R/13_Ratio_250_L_2_R_8.png","xmouse":[762,762,762,762,762,762,762,762,762,762,762,762,762,762,762,762,762,762,762,762,762,762,762,762,762,762,762,762,762,762,762,750,738,727,719,713,707,703,696,691,684,675,673,671,671,671,700,734,781,833,871,945,965,979,985,988,1000,1011,1023,1030,1037,1042,1044,1046,1049,1053,1069],"ymouse":[526,526,526,526,526,526,526,526,526,526,526,526,526,526,526,526,526,526,526,526,526,526,526,526,526,526,526,526,519,509,486,403,369,349,336,328,319,314,305,296,289,277,272,269,267,262,228,205,178,155,144,139,139,139,138,137,129,122,113,106,98,90,87,84,81,78,63],"timestamp_mouse":[16,35,55,76,97,115,135,156,175,196,216,235,256,276,296,315,335,356,376,395,415,436,456,476,497,515,536,555,576,596,616,635,656,676,695,716,735,756,776,795,815,835,856,877,897,917,936,955,975,996,1016,1035,1056,1076,1096,1116,1135,1155,1175,1195,1216,1235,1255,1276,1296,1316,1335],"xSR":741.5,"ySR":469.95,"xT1":424.9,"yT1":0,"xT2":1058.1,"yT2":0,"toosoon":0,"cond_shown":"equaldotanddens","ratio_trial":250,"smaller_num":"2","larger_num":"8","correct_side":2,"subjID":"mariapaulabeltranmora34","gender":"1","age":"9","school":"1"},{"start_time":1552309655633,"click_time":1552309656421,"finger_time":1552309656141,"fix_duration":250,"trial":25,"RT":508,"MT":280,"sideResp":1,"stimulus":"img/500/equaldotsize/L/8_Ratio_500_L_8_R_4.png","xmouse":[805,805,805,805,805,805,805,805,805,805,805,805,805,805,805,805,805,805,805,805,805,805,795,785,769,738,709,624,597,585,582,580,578,575,572,569,567,553,537,523],"ymouse":[537,537,537,537,537,537,537,537,537,537,537,537,537,537,537,537,537,537,537,537,537,535,520,506,487,451,426,358,334,318,305,293,263,246,235,227,211,155,110,78],"timestamp_mouse":[9,35,47,67,87,107,127,148,169,188,209,227,248,268,287,307,327,347,368,388,407,427,447,468,488,508,527,548,567,587,608,627,648,667,688,707,727,748,768,787],"xSR":741.5,"ySR":469.95,"xT1":424.9,"yT1":0,"xT2":1058.1,"yT2":0,"toosoon":0,"cond_shown":"equaldotsize","ratio_trial":500,"smaller_num":"4","larger_num":"8","correct_side":1,"subjID":"mariapaulabeltranmora34","gender":"1","age":"9","school":"1"},{"start_time":1552309657451,"click_time":1552309658482,"finger_time":1552309657920,"fix_duration":250,"trial":26,"RT":469,"MT":562,"sideResp":2,"stimulus":"img/900/equaldotanddens/R/11_Ratio_900_L_18_R_20.png","xmouse":[779,779,779,779,779,779,779,779,779,779,779,779,779,779,779,779,779,779,780,781,781,781,773,767,761,755,753,752,752,758,774,798,880,947,981,997,1006,1015,1018,1023,1028,1034,1038,1040,1040,1040,1040,1040,1043,1049,1057,1080],"ymouse":[535,535,535,535,535,535,535,535,535,535,535,535,535,535,535,535,535,535,523,511,500,490,472,461,452,440,433,432,427,416,397,367,303,252,225,211,199,181,171,160,148,135,117,112,110,110,110,110,104,96,85,58],"timestamp_mouse":[10,35,51,69,90,110,129,150,169,190,210,229,249,269,289,309,330,349,370,389,409,429,449,469,489,509,530,549,569,589,610,631,650,670,689,710,729,749,769,789,810,831,849,870,890,909,931,950,970,990,1009,1031],"xSR":741.5,"ySR":469.95,"xT1":424.9,"yT1":0,"xT2":1058.1,"yT2":0,"toosoon":0,"cond_shown":"equaldotanddens","ratio_trial":900,"smaller_num":"18","larger_num":"20","correct_side":2,"subjID":"mariapaulabeltranmora34","gender":"1","age":"9","school":"1"},{"start_time":1552309659575,"click_time":1552309660360,"finger_time":1552309659961,"fix_duration":354.0315833398797,"trial":27,"RT":386,"MT":399,"sideResp":1,"stimulus":"img/750/randomdotsizeEA/R/2_Ratio_750_L_6_R_8.png","xmouse":[794,794,794,794,794,794,794,794,794,794,794,794,794,794,794,794,794,790,781,770,753,702,681,666,653,644,633,626,621,615,609,604,601,598,590,581,559,552,537,524],"ymouse":[516,516,516,516,516,516,516,516,516,516,516,516,516,516,516,516,516,502,484,457,427,353,323,303,284,271,242,227,214,201,192,179,170,160,143,130,101,93,84,77],"timestamp_mouse":[14,34,45,66,85,105,126,145,166,185,206,225,245,265,286,306,325,345,365,386,406,425,445,466,487,506,526,545,565,587,606,625,645,665,686,705,726,745,766,785],"xSR":741.5,"ySR":469.95,"xT1":424.9,"yT1":0,"xT2":1058.1,"yT2":0,"toosoon":0,"cond_shown":"randomdotsizeEA","ratio_trial":750,"smaller_num":"6","larger_num":"8","correct_side":2,"subjID":"mariapaulabeltranmora34","gender":"1","age":"9","school":"1"},{"start_time":1552309663230,"click_time":1552309663740,"finger_time":1552309663620,"fix_duration":407.42016260650917,"trial":28,"RT":390,"MT":120,"sideResp":2,"stimulus":"img/900/equaldotsize/R/6_Ratio_900_L_9_R_10.png","xmouse":[788,788,788,788,788,788,788,788,788,788,788,789,789,790,790,790,790,790,805,825,861,912,968,1074,1105,1122],"ymouse":[515,515,515,515,515,515,515,515,515,515,515,513,508,505,505,505,505,504,479,446,389,318,246,130,100,79],"timestamp_mouse":[10,32,50,72,90,110,130,150,170,191,210,231,250,270,290,310,330,351,370,390,411,431,451,470,490,510],"xSR":741.5,"ySR":469.95,"xT1":424.9,"yT1":0,"xT2":1058.1,"yT2":0,"toosoon":0,"cond_shown":"equaldotsize","ratio_trial":900,"smaller_num":"9","larger_num":"10","correct_side":2,"subjID":"mariapaulabeltranmora34","gender":"1","age":"9","school":"1"},{"start_time":1552309665628,"click_time":1552309666502,"finger_time":1552309666060,"fix_duration":1126.5455423486537,"trial":29,"RT":432,"MT":442,"sideResp":1,"stimulus":"img/900/equaldotsize/L/2_Ratio_900_L_20_R_18.png","xmouse":[791,791,791,791,791,791,791,791,791,791,791,791,791,791,791,791,791,791,791,793,794,794,788,781,764,758,751,744,723,712,705,696,685,676,659,648,636,622,577,549,517,483,464,442],"ymouse":[506,506,506,506,506,506,506,506,506,506,506,506,506,506,506,506,506,506,506,496,476,444,425,408,383,374,362,348,311,294,281,267,253,241,222,214,205,194,168,152,134,113,101,86],"timestamp_mouse":[13,40,52,72,92,113,132,153,173,193,212,234,252,273,292,313,332,352,372,393,412,432,453,472,492,512,533,552,573,592,612,633,653,673,693,712,733,752,774,792,812,832,852,874],"xSR":741.5,"ySR":469.95,"xT1":424.9,"yT1":0,"xT2":1058.1,"yT2":0,"toosoon":0,"cond_shown":"equaldotsize","ratio_trial":900,"smaller_num":"18","larger_num":"20","correct_side":1,"subjID":"mariapaulabeltranmora34","gender":"1","age":"9","school":"1"},{"start_time":1552309669340,"click_time":1552309670941,"finger_time":1552309669761,"fix_duration":718.2189159824809,"trial":30,"RT":421,"MT":1180,"sideResp":2,"stimulus":"img/250/randomdotsizeEA/L/15_Ratio_250_L_12_R_3.png","xmouse":[789,789,789,789,789,789,789,789,789,789,789,789,789,789,789,789,789,789,789,788,801,816,827,833,845,847,851,853,856,861,866,873,877,883,893,900,909,918,928,950,962,976,989,1007,1031,1044,1056,1066,1075,1086,1088,1089,1090,1090,1090,1090,1090,1090,1090,1090,1092,1093,1093,1093,1093,1093,1093,1093,1093,1093,1094,1094,1095,1095,1095,1096,1096,1098,1098,1099,1100],"ymouse":[515,515,515,515,515,515,515,515,515,515,515,515,515,515,515,515,515,515,515,514,486,455,434,422,397,387,377,371,367,354,342,330,322,314,296,288,277,266,255,229,215,202,190,177,160,152,144,138,132,126,125,124,123,123,123,123,123,123,123,123,121,121,120,120,120,120,120,120,120,119,116,116,114,113,112,110,108,105,103,101,99],"timestamp_mouse":[9,33,40,62,81,101,120,141,162,180,200,221,240,262,281,300,321,341,360,381,401,421,441,461,480,500,520,542,561,581,600,620,641,660,681,701,720,740,762,780,801,821,840,860,880,900,921,942,961,981,1000,1021,1041,1061,1081,1100,1121,1140,1161,1180,1202,1221,1240,1261,1280,1300,1321,1341,1361,1380,1400,1420,1441,1460,1480,1500,1521,1540,1560,1580,1601],"xSR":741.5,"ySR":469.95,"xT1":424.9,"yT1":0,"xT2":1058.1,"yT2":0,"toosoon":0,"cond_shown":"randomdotsizeEA","ratio_trial":250,"smaller_num":"3","larger_num":"12","correct_side":1,"subjID":"mariapaulabeltranmora34","gender":"1","age":"9","school":"1"},{"start_time":1552309672767,"click_time":1552309674422,"finger_time":1552309673320,"fix_duration":945.5049932806571,"trial":31,"RT":553,"MT":1102,"sideResp":2,"stimulus":"img/750/equaldotanddens/R/7_Ratio_750_L_3_R_4.png","xmouse":[765,765,765,765,765,765,765,765,765,765,765,765,765,765,765,765,765,765,765,765,765,765,765,765,765,765,761,731,710,692,675,668,660,653,645,634,624,603,599,595,592,589,587,587,587,587,587,587,587,587,587,590,645,696,769,856,940,1062,1088,1103,1112,1114,1119,1123,1124,1124,1114,1072,1044,1027,1022,1023,1026,1027,1027,1027,1027,1029,1042,1047,1055,1057,1059],"ymouse":[543,543,543,543,543,543,543,543,543,543,543,543,543,543,543,543,543,543,543,543,543,543,543,543,543,543,519,462,431,408,384,371,350,334,320,303,288,267,261,255,248,242,238,238,238,238,238,238,238,238,238,237,237,243,252,265,277,286,285,278,271,267,251,239,219,196,168,102,70,45,34,28,21,19,19,19,19,27,55,62,72,75,76],"timestamp_mouse":[13,37,53,73,94,113,133,154,173,193,214,233,255,273,294,314,333,354,373,394,414,434,455,474,493,514,534,553,573,594,615,634,653,673,693,713,733,754,773,795,814,833,853,873,893,914,934,955,973,994,1013,1033,1054,1073,1093,1114,1133,1153,1173,1195,1213,1234,1254,1274,1293,1314,1333,1354,1374,1393,1413,1434,1454,1474,1494,1514,1534,1554,1573,1594,1614,1634,1654],"xSR":741.5,"ySR":469.95,"xT1":424.9,"yT1":0,"xT2":1058.1,"yT2":0,"toosoon":0,"cond_shown":"equaldotanddens","ratio_trial":750,"smaller_num":"3","larger_num":"4","correct_side":2,"subjID":"mariapaulabeltranmora34","gender":"1","age":"9","school":"1"},{"start_time":1552309676651,"click_time":1552309680721,"finger_time":1552309680581,"fix_duration":1289.879685216146,"trial":32,"RT":3930,"MT":140,"sideResp":2,"stimulus":"img/250/equaldotanddens/L/2_Ratio_250_L_16_R_4.png","xmouse":[810,810,810,810,810,810,810,810,810,810,810,810,810,810,810,810,810,810,810,810,810,810,810,810,810,810,810,810,810,810,810,810,810,810,810,810,810,810,810,810,810,810,810,810,810,810,810,810,810,810,810,810,810,810,810,810,810,810,810,810,810,810,810,810,810,810,810,810,810,810,810,810,810,810,810,810,810,810,810,810,810,810,810,810,810,810,810,810,810,810,810,810,810,810,810,810,810,810,810,810,810,810,810,810,810,810,810,810,810,810,810,810,810,810,810,810,810,810,810,810,810,810,810,810,810,810,810,810,810,810,810,810,810,810,810,810,810,810,810,810,810,810,810,810,810,810,810,810,810,810,810,810,810,810,810,810,810,810,810,810,810,810,810,810,810,810,810,810,810,810,810,810,810,810,810,810,810,810,810,810,810,810,810,810,810,810,810,810,810,810,810,810,810,810,810,811,830,858,894,955,980,1005,1041,1088],"ymouse":[526,526,526,526,526,526,526,526,526,526,526,526,526,526,526,526,526,526,526,526,526,526,526,526,526,526,526,526,526,526,526,526,526,526,526,526,526,526,526,526,526,526,526,526,526,526,526,526,526,526,526,526,526,526,526,526,526,526,526,526,526,526,526,526,526,526,526,526,526,526,526,526,526,526,526,526,526,526,526,526,526,526,526,526,526,526,526,526,526,526,526,526,526,526,526,526,526,526,526,526,526,526,526,526,526,526,526,526,526,526,526,526,526,526,526,526,526,526,526,526,526,526,526,526,526,526,526,526,526,526,526,526,526,526,526,526,526,526,526,526,526,526,526,526,526,526,526,526,526,526,526,526,526,526,526,526,526,526,526,526,526,526,526,526,526,526,526,526,526,526,526,526,526,526,526,526,526,526,526,526,526,526,526,526,526,526,526,526,526,526,526,526,526,526,526,493,445,402,352,258,201,147,81,8],"timestamp_mouse":[9,29,51,69,89,111,130,149,170,191,210,229,249,270,289,310,330,349,369,390,411,429,450,470,491,510,529,549,570,589,610,629,650,670,691,711,729,749,769,789,810,830,850,870,890,910,930,950,969,989,1009,1029,1050,1070,1089,1110,1130,1149,1169,1191,1210,1230,1249,1270,1290,1310,1330,1350,1369,1390,1409,1429,1449,1469,1490,1509,1530,1550,1569,1589,1610,1630,1649,1669,1690,1710,1730,1750,1769,1790,1809,1831,1849,1869,1890,1909,1929,1949,1969,1989,2011,2030,2050,2069,2089,2110,2130,2149,2170,2190,2210,2231,2249,2269,2289,2310,2330,2349,2369,2389,2409,2429,2449,2469,2491,2510,2529,2550,2569,2589,2609,2630,2649,2669,2691,2710,2729,2750,2769,2789,2810,2830,2850,2871,2890,2909,2929,2950,2970,2991,3010,3030,3050,3069,3091,3110,3130,3150,3170,3191,3210,3230,3250,3270,3290,3309,3331,3349,3369,3390,3410,3430,3451,3470,3489,3509,3529,3550,3569,3589,3610,3630,3650,3670,3690,3711,3731,3750,3770,3789,3809,3829,3849,3871,3891,3909,3930,3950,3970,3989,4009,4030,4050,4070],"xSR":741.5,"ySR":469.95,"xT1":424.9,"yT1":0,"xT2":1058.1,"yT2":0,"toosoon":0,"cond_shown":"equaldotanddens","ratio_trial":250,"smaller_num":"4","larger_num":"16","correct_side":1,"subjID":"mariapaulabeltranmora34","gender":"1","age":"9","school":"1"},{"start_time":1552309683271,"click_time":1552309683901,"finger_time":1552309683701,"fix_duration":250,"trial":33,"RT":430,"MT":200,"sideResp":1,"stimulus":"img/750/equaldotanddens/R/15_Ratio_750_L_9_R_12.png","xmouse":[772,772,772,772,772,772,772,772,772,772,772,772,772,772,772,772,772,772,772,768,760,756,751,736,728,722,713,703,661,615,557,478],"ymouse":[539,539,539,539,539,539,539,539,539,539,539,539,539,539,539,539,539,539,538,501,478,452,433,390,368,347,327,306,238,193,151,97],"timestamp_mouse":[9,36,49,70,89,110,130,150,169,189,210,229,249,269,289,309,329,349,369,390,409,430,450,471,489,509,530,549,571,589,610,630],"xSR":741.5,"ySR":469.95,"xT1":424.9,"yT1":0,"xT2":1058.1,"yT2":0,"toosoon":0,"cond_shown":"equaldotanddens","ratio_trial":750,"smaller_num":"9","larger_num":"12","correct_side":2,"subjID":"mariapaulabeltranmora34","gender":"1","age":"9","school":"1"},{"start_time":1552309687474,"click_time":1552309688120,"finger_time":1552309687961,"fix_duration":1131.9527978524043,"trial":34,"RT":487,"MT":159,"sideResp":2,"stimulus":"img/750/equaldotsize/R/4_Ratio_750_L_15_R_20.png","xmouse":[802,802,802,802,802,802,802,802,802,802,802,802,802,802,802,802,802,802,802,802,802,802,802,802,826,860,905,945,987,1049,1063,1076,1086],"ymouse":[486,486,486,486,486,486,486,486,486,486,486,486,486,486,486,486,486,486,486,486,486,486,486,484,439,378,315,257,209,136,119,103,87],"timestamp_mouse":[9,36,46,67,86,107,127,147,166,187,207,226,247,267,288,307,327,347,366,386,407,426,447,466,487,506,526,546,567,587,606,626,646],"xSR":741.5,"ySR":469.95,"xT1":424.9,"yT1":0,"xT2":1058.1,"yT2":0,"toosoon":0,"cond_shown":"equaldotsize","ratio_trial":750,"smaller_num":"15","larger_num":"20","correct_side":2,"subjID":"mariapaulabeltranmora34","gender":"1","age":"9","school":"1"},{"start_time":1552309690069,"click_time":1552309691001,"finger_time":1552309690580,"fix_duration":1147.1225441701777,"trial":35,"RT":511,"MT":421,"sideResp":1,"stimulus":"img/250/equaldotsize/L/7_Ratio_250_L_8_R_2.png","xmouse":[811,811,811,811,811,811,811,811,811,811,811,811,811,811,811,811,811,811,811,811,811,811,811,811,802,779,752,732,713,657,607,537,455,380,305,299,299,300,308,325,336,348,358,368,395,415,433],"ymouse":[540,540,540,540,540,540,540,540,540,540,540,540,540,540,540,540,540,540,540,540,540,540,540,540,511,445,401,375,355,307,282,253,223,192,148,140,139,135,120,95,84,76,71,69,65,63,58],"timestamp_mouse":[12,36,50,71,91,111,132,150,171,191,210,231,252,271,290,311,331,351,372,391,410,432,451,470,490,511,532,551,572,592,611,630,651,671,692,711,730,752,771,791,812,830,851,872,892,911,932],"xSR":741.5,"ySR":469.95,"xT1":424.9,"yT1":0,"xT2":1058.1,"yT2":0,"toosoon":0,"cond_shown":"equaldotsize","ratio_trial":250,"smaller_num":"2","larger_num":"8","correct_side":1,"subjID":"mariapaulabeltranmora34","gender":"1","age":"9","school":"1"},{"start_time":1552309692411,"click_time":1552309693020,"finger_time":1552309692920,"fix_duration":250,"trial":36,"RT":509,"MT":100,"sideResp":1,"stimulus":"img/500/equaldotsize/L/10_Ratio_500_L_4_R_2.png","xmouse":[782,782,782,782,782,782,782,782,782,782,782,782,782,782,782,782,782,782,782,782,782,782,782,782,773,762,744,667,617,537,497],"ymouse":[514,514,514,514,514,514,514,514,514,514,514,514,514,514,514,514,514,514,514,514,514,514,514,497,475,454,426,316,243,129,74],"timestamp_mouse":[8,41,49,69,90,108,128,150,169,188,210,230,249,269,289,309,328,349,370,390,409,430,448,470,490,509,529,550,568,589,609],"xSR":741.5,"ySR":469.95,"xT1":424.9,"yT1":0,"xT2":1058.1,"yT2":0,"toosoon":0,"cond_shown":"equaldotsize","ratio_trial":500,"smaller_num":"2","larger_num":"4","correct_side":1,"subjID":"mariapaulabeltranmora34","gender":"1","age":"9","school":"1"},{"start_time":1552309695145,"click_time":1552309696180,"finger_time":1552309695779,"fix_duration":1284.1515692043376,"trial":37,"RT":634,"MT":401,"sideResp":2,"stimulus":"img/900/randomdotsizeEA/R/5_Ratio_900_L_9_R_10.png","xmouse":[799,799,799,799,799,799,799,799,799,799,799,799,799,799,799,799,799,799,799,799,799,799,799,799,799,799,799,799,799,797,804,901,930,950,971,983,995,997,998,1001,1002,1008,1008,1009,1010,1014,1023,1026,1031,1036,1041,1061],"ymouse":[500,500,500,500,500,500,500,500,500,500,500,500,500,500,500,500,500,500,500,500,500,500,500,500,500,500,500,500,500,500,478,268,198,157,125,105,87,82,76,72,67,58,58,57,57,56,54,54,52,51,51,49],"timestamp_mouse":[20,43,56,74,94,116,134,155,175,195,215,235,254,276,296,316,334,355,375,394,416,435,456,476,496,514,536,555,576,596,615,634,655,675,696,716,735,756,774,794,815,834,855,876,894,914,935,955,975,995,1015,1035],"xSR":741.5,"ySR":469.95,"xT1":424.9,"yT1":0,"xT2":1058.1,"yT2":0,"toosoon":0,"cond_shown":"randomdotsizeEA","ratio_trial":900,"smaller_num":"9","larger_num":"10","correct_side":2,"subjID":"mariapaulabeltranmora34","gender":"1","age":"9","school":"1"},{"start_time":1552309698714,"click_time":1552309699820,"finger_time":1552309699220,"fix_duration":413.3609364134543,"trial":38,"RT":506,"MT":600,"sideResp":2,"stimulus":"img/750/equaldotsize/R/7_Ratio_750_L_3_R_4.png","xmouse":[805,805,805,805,805,805,805,805,805,805,805,805,805,805,805,805,805,805,805,805,805,805,805,805,805,832,858,883,920,934,947,966,978,998,1006,1011,1015,1024,1050,1059,1062,1064,1066,1072,1076,1078,1079,1080,1082,1082,1082,1082,1082,1084,1084,1086],"ymouse":[478,478,478,478,478,478,478,478,478,478,478,478,478,478,478,478,478,478,478,478,478,478,478,478,476,454,436,416,380,363,346,321,306,283,274,265,259,247,218,207,203,190,179,155,142,132,122,113,106,106,106,106,106,103,102,97],"timestamp_mouse":[8,27,46,66,87,107,126,145,166,187,207,225,247,267,285,305,325,347,367,386,407,425,446,466,486,506,525,546,567,586,606,627,646,666,685,707,725,746,766,786,807,827,846,866,886,906,926,946,966,986,1006,1026,1047,1066,1086,1106],"xSR":741.5,"ySR":469.95,"xT1":424.9,"yT1":0,"xT2":1058.1,"yT2":0,"toosoon":0,"cond_shown":"equaldotsize","ratio_trial":750,"smaller_num":"3","larger_num":"4","correct_side":2,"subjID":"mariapaulabeltranmora34","gender":"1","age":"9","school":"1"},{"start_time":1552309702472,"click_time":1552309703819,"finger_time":1552309702981,"fix_duration":250,"trial":39,"RT":509,"MT":838,"sideResp":1,"stimulus":"img/250/equaldotsize/L/15_Ratio_250_L_12_R_3.png","xmouse":[760,760,760,760,760,760,760,760,760,760,760,760,760,760,760,760,760,760,760,760,760,760,760,761,757,719,605,533,450,374,331,317,317,317,317,317,331,358,401,450,533,576,592,597,598,599,598,589,581,578,575,574,574,573,567,560,544,540,536,534,533,533,533,533,533,531,527,516],"ymouse":[537,537,537,537,537,537,537,537,537,537,537,537,537,537,537,537,537,537,537,537,537,537,537,533,515,446,347,303,257,220,194,177,176,175,173,171,158,148,140,138,137,133,130,127,126,125,115,101,90,85,83,83,83,83,83,87,96,99,101,101,101,101,101,101,101,99,86,67],"timestamp_mouse":[10,37,48,69,88,108,128,148,169,189,208,228,249,269,289,308,328,348,369,389,408,429,449,467,489,509,528,549,568,588,608,627,648,669,689,708,729,749,767,789,810,828,848,868,888,909,928,948,969,988,1008,1029,1048,1069,1089,1108,1128,1147,1168,1189,1209,1228,1248,1268,1289,1308,1328,1347],"xSR":741.5,"ySR":469.95,"xT1":424.9,"yT1":0,"xT2":1058.1,"yT2":0,"toosoon":0,"cond_shown":"equaldotsize","ratio_trial":250,"smaller_num":"3","larger_num":"12","correct_side":1,"subjID":"mariapaulabeltranmora34","gender":"1","age":"9","school":"1"},{"start_time":1552309707755,"click_time":1552309708840,"finger_time":1552309708261,"fix_duration":973.1059326197932,"trial":40,"RT":506,"MT":579,"sideResp":2,"stimulus":"img/500/equaldotanddens/R/3_Ratio_500_L_10_R_20.png","xmouse":[787,787,787,787,787,787,787,787,787,787,787,787,787,787,787,787,787,787,787,787,787,787,787,787,787,790,819,824,826,829,834,839,846,855,882,893,910,910,910,911,916,927,974,1024,1036,1072,1094,1132,1137,1137,1137,1137,1137,1136,1126],"ymouse":[495,495,495,495,495,495,495,495,495,495,495,495,495,495,495,495,495,495,495,495,495,495,495,495,494,462,273,131,109,95,84,75,66,60,39,33,22,21,21,21,23,35,67,96,100,114,120,126,127,127,127,127,127,115,95],"timestamp_mouse":[8,38,44,65,86,105,125,144,165,186,206,225,246,266,285,305,324,345,366,386,405,424,446,466,485,506,525,546,565,586,606,625,646,664,685,705,726,745,766,784,804,824,845,869,885,905,925,946,964,985,1005,1025,1045,1065,1084],"xSR":741.5,"ySR":469.95,"xT1":424.9,"yT1":0,"xT2":1058.1,"yT2":0,"toosoon":0,"cond_shown":"equaldotanddens","ratio_trial":500,"smaller_num":"10","larger_num":"20","correct_side":2,"subjID":"mariapaulabeltranmora34","gender":"1","age":"9","school":"1"},{"start_time":1552309710568,"click_time":1552309711919,"finger_time":1552309711321,"fix_duration":266.9006298489822,"trial":41,"RT":753,"MT":598,"sideResp":2,"stimulus":"img/500/randomdotsizeEA/R/12_Ratio_500_L_1_R_2.png","xmouse":[802,802,802,802,802,802,802,802,802,802,802,802,802,802,802,802,802,802,802,802,802,802,802,802,802,802,802,802,802,802,802,802,802,802,802,802,828,844,858,871,884,895,925,945,952,953,953,953,954,961,970,987,998,1008,1018,1026,1032,1035,1035,1035,1035,1035,1035,1035,1038,1044,1051,1063],"ymouse":[527,527,527,527,527,527,527,527,527,527,527,527,527,527,527,527,527,527,527,527,527,527,527,527,527,527,527,527,527,527,527,527,527,527,527,526,481,459,442,426,411,396,362,331,318,314,314,314,312,302,287,248,210,185,162,139,123,118,117,117,117,117,117,117,117,112,101,85],"timestamp_mouse":[13,31,52,71,93,112,132,153,172,193,211,233,253,272,292,312,333,353,371,393,412,432,451,473,493,512,533,552,571,592,611,631,652,672,693,712,733,753,771,792,812,832,852,872,891,912,933,952,972,992,1011,1033,1052,1071,1093,1112,1132,1152,1172,1192,1212,1231,1251,1271,1292,1312,1332,1351],"xSR":741.5,"ySR":469.95,"xT1":424.9,"yT1":0,"xT2":1058.1,"yT2":0,"toosoon":0,"cond_shown":"randomdotsizeEA","ratio_trial":500,"smaller_num":"1","larger_num":"2","correct_side":2,"subjID":"mariapaulabeltranmora34","gender":"1","age":"9","school":"1"},{"start_time":1552309713516,"click_time":1552309715201,"finger_time":1552309714120,"fix_duration":896.1126344107498,"trial":42,"RT":604,"MT":1081,"sideResp":1,"stimulus":"img/900/equaldotsize/L/4_Ratio_900_L_20_R_18.png","xmouse":[780,780,780,780,780,780,780,780,780,780,780,780,780,780,780,780,780,780,780,781,782,783,783,783,783,783,785,786,789,793,808,821,841,868,902,988,1032,1061,1085,1099,1106,1106,1106,1106,1106,1106,1097,1079,1058,1025,936,889,840,793,756,680,663,650,642,631,595,575,559,539,534,533,533,533,533,532,530,529,529,529,529,529,529,529,529,529,529,529,527,525,523],"ymouse":[550,550,550,550,550,550,550,550,550,550,550,550,550,550,550,550,550,550,550,548,545,544,544,544,544,540,535,528,515,500,458,435,407,372,332,234,187,157,137,125,117,117,117,117,117,117,117,117,117,118,142,155,161,163,161,131,119,107,99,88,64,55,48,41,40,39,39,39,39,39,41,45,45,45,45,45,45,45,45,45,45,45,49,54,64],"timestamp_mouse":[9,24,43,65,85,105,124,144,164,185,205,225,244,265,285,303,324,344,363,384,403,423,443,465,484,504,525,544,564,585,604,624,644,664,685,703,724,744,764,784,803,824,845,865,884,904,924,943,964,984,1004,1024,1043,1063,1085,1104,1124,1144,1164,1184,1204,1225,1244,1264,1285,1304,1324,1345,1364,1384,1403,1425,1443,1463,1485,1504,1523,1545,1565,1585,1604,1623,1644,1665,1685],"xSR":741.5,"ySR":469.95,"xT1":424.9,"yT1":0,"xT2":1058.1,"yT2":0,"toosoon":0,"cond_shown":"equaldotsize","ratio_trial":900,"smaller_num":"18","larger_num":"20","correct_side":1,"subjID":"mariapaulabeltranmora34","gender":"1","age":"9","school":"1"},{"start_time":1552309717653,"click_time":1552309718641,"finger_time":1552309718079,"fix_duration":1252.6072342745008,"trial":43,"RT":426,"MT":562,"sideResp":2,"stimulus":"img/250/equaldotsize/R/13_Ratio_250_L_2_R_8.png","xmouse":[805,805,805,805,805,805,805,805,805,805,805,805,805,805,805,805,805,805,805,805,805,813,828,875,903,924,944,954,977,991,1005,1017,1024,1030,1030,1030,1030,1030,1030,1030,1030,1030,1030,1030,1030,1030,1030,1033,1056,1066],"ymouse":[504,504,504,504,504,504,504,504,504,504,504,504,504,504,504,504,504,504,504,504,491,464,429,321,271,236,205,188,146,124,100,85,74,66,65,65,65,65,65,65,65,65,65,65,65,65,65,64,64,64],"timestamp_mouse":[13,36,47,67,87,107,128,146,167,187,207,227,247,266,288,307,328,347,367,388,407,426,448,468,487,506,526,547,567,586,606,627,648,668,686,708,727,747,767,786,808,827,847,866,887,906,927,947,968,988],"xSR":741.5,"ySR":469.95,"xT1":424.9,"yT1":0,"xT2":1058.1,"yT2":0,"toosoon":0,"cond_shown":"equaldotsize","ratio_trial":250,"smaller_num":"2","larger_num":"8","correct_side":2,"subjID":"mariapaulabeltranmora34","gender":"1","age":"9","school":"1"},{"start_time":1552309719991,"click_time":1552309721060,"finger_time":1552309720400,"fix_duration":489.14124699385087,"trial":44,"RT":409,"MT":660,"sideResp":1,"stimulus":"img/750/equaldotanddens/L/6_Ratio_750_L_24_R_18.png","xmouse":[783,783,783,783,783,783,783,783,783,783,783,783,783,783,783,783,783,783,783,792,804,842,860,875,891,906,924,938,947,955,965,982,991,1001,1009,1016,1020,1025,1025,1025,1025,1025,1025,1025,1021,1010,993,943,914,878,819,746,562,458],"ymouse":[508,508,508,508,508,508,508,508,508,508,508,508,508,508,508,508,508,508,502,482,461,404,379,359,336,312,273,253,242,234,221,201,190,179,169,161,156,149,149,149,149,149,149,148,148,150,155,163,163,160,145,124,90,80],"timestamp_mouse":[8,38,50,69,89,110,130,150,169,190,209,228,250,270,290,309,330,349,369,389,409,431,449,469,488,509,531,549,569,589,609,630,649,670,689,709,729,749,770,789,809,829,849,869,890,909,929,948,969,990,1009,1028,1048,1069],"xSR":741.5,"ySR":469.95,"xT1":424.9,"yT1":0,"xT2":1058.1,"yT2":0,"toosoon":0,"cond_shown":"equaldotanddens","ratio_trial":750,"smaller_num":"18","larger_num":"24","correct_side":1,"subjID":"mariapaulabeltranmora34","gender":"1","age":"9","school":"1"},{"start_time":1552309727529,"click_time":1552309728441,"finger_time":1552309727900,"fix_duration":665.1907072912668,"trial":45,"RT":371,"MT":541,"sideResp":2,"stimulus":"img/500/randomdotsizeEA/R/6_Ratio_500_L_9_R_18.png","xmouse":[798,798,798,798,798,798,798,798,798,798,798,798,798,798,798,798,798,798,787,772,745,741,740,740,740,740,744,753,765,781,821,835,847,867,909,1030,1089,1112,1129,1142,1145,1145,1145,1146,1146,1146],"ymouse":[487,487,487,487,487,487,487,487,487,487,487,487,487,487,487,487,487,481,454,430,401,399,399,399,399,399,391,379,369,361,342,333,323,305,276,200,163,144,129,117,113,113,113,111,100,76],"timestamp_mouse":[11,31,57,71,92,112,131,152,172,191,212,230,252,272,292,311,332,351,370,392,412,431,451,472,490,511,531,552,572,592,613,630,651,671,691,712,731,752,771,792,812,832,851,872,891,912],"xSR":741.5,"ySR":469.95,"xT1":424.9,"yT1":0,"xT2":1058.1,"yT2":0,"toosoon":0,"cond_shown":"randomdotsizeEA","ratio_trial":500,"smaller_num":"9","larger_num":"18","correct_side":2,"subjID":"mariapaulabeltranmora34","gender":"1","age":"9","school":"1"},{"start_time":1552309734079,"click_time":1552309734901,"finger_time":1552309734539,"fix_duration":416.90035113989256,"trial":46,"RT":460,"MT":362,"sideResp":1,"stimulus":"img/250/equaldotsize/L/1_Ratio_250_L_8_R_2.png","xmouse":[800,800,800,800,800,800,800,800,800,800,800,797,797,797,797,797,796,796,796,794,790,785,773,756,696,659,651,638,635,633,619,602,577,553,533,533,533,533,533,533,533,513],"ymouse":[515,515,515,515,515,515,515,515,515,515,515,514,513,513,513,513,513,513,513,510,507,498,484,462,390,348,339,318,304,286,191,121,64,24,0,0,0,0,0,0,0,18],"timestamp_mouse":[9,20,48,61,80,101,121,140,162,181,200,222,241,261,280,300,321,342,360,381,402,421,442,460,481,501,522,541,562,582,602,621,641,662,681,701,722,742,762,781,802,822],"xSR":741.5,"ySR":469.95,"xT1":424.9,"yT1":0,"xT2":1058.1,"yT2":0,"toosoon":0,"cond_shown":"equaldotsize","ratio_trial":250,"smaller_num":"2","larger_num":"8","correct_side":1,"subjID":"mariapaulabeltranmora34","gender":"1","age":"9","school":"1"},{"start_time":1552309736681,"click_time":1552309737779,"finger_time":1552309737360,"fix_duration":778.030208803438,"trial":47,"RT":679,"MT":419,"sideResp":2,"stimulus":"img/250/randomdotsizeEA/L/14_Ratio_250_L_12_R_3.png","xmouse":[806,806,806,806,806,806,806,806,806,806,806,806,806,806,806,806,806,806,806,806,806,806,806,806,806,806,806,806,806,806,806,810,814,831,863,923,951,960,966,980,987,996,1004,1006,1006,1006,1006,1006,1006,1006,1006,1006,1006,1006,1006,1069],"ymouse":[493,495,500,509,519,519,519,519,519,519,519,519,519,522,523,523,523,523,523,523,523,523,523,523,523,523,523,523,523,523,523,520,510,475,407,272,204,170,146,99,73,43,17,8,8,8,8,8,8,8,8,8,8,8,8,17],"timestamp_mouse":[1,19,40,59,81,100,118,138,159,180,199,220,239,259,278,300,319,340,358,379,400,420,438,460,480,500,519,538,558,579,600,619,640,659,679,698,720,740,759,780,799,819,840,859,880,899,920,938,958,979,998,1018,1039,1059,1079,1098],"xSR":741.5,"ySR":469.95,"xT1":424.9,"yT1":0,"xT2":1058.1,"yT2":0,"toosoon":0,"cond_shown":"randomdotsizeEA","ratio_trial":250,"smaller_num":"3","larger_num":"12","correct_side":1,"subjID":"mariapaulabeltranmora34","gender":"1","age":"9","school":"1"},{"start_time":1552309740541,"click_time":1552309741021,"finger_time":1552309740919,"fix_duration":300.0218762452872,"trial":48,"RT":378,"MT":102,"sideResp":1,"stimulus":"img/900/equaldotanddens/L/10_Ratio_900_L_20_R_18.png","xmouse":[814,814,814,814,814,814,814,814,814,814,814,814,814,814,814,814,810,796,768,727,681,558,533,523],"ymouse":[547,547,547,547,547,547,547,547,547,547,547,547,547,547,547,547,539,494,412,320,237,118,104,96],"timestamp_mouse":[24,39,59,80,99,120,139,159,180,199,218,240,258,278,299,319,340,359,378,399,420,439,459,480],"xSR":741.5,"ySR":469.95,"xT1":424.9,"yT1":0,"xT2":1058.1,"yT2":0,"toosoon":0,"cond_shown":"equaldotanddens","ratio_trial":900,"smaller_num":"18","larger_num":"20","correct_side":1,"subjID":"mariapaulabeltranmora34","gender":"1","age":"9","school":"1"},{"start_time":1552309743814,"click_time":1552309744919,"finger_time":1552309744480,"fix_duration":250,"trial":49,"RT":666,"MT":439,"sideResp":1,"stimulus":"img/900/randomdotsizeEA/L/1_Ratio_900_L_10_R_9.png","xmouse":[768,768,768,768,768,768,768,768,768,768,768,768,768,768,768,768,768,768,768,768,768,768,768,768,768,768,768,768,768,768,768,768,769,758,743,726,703,686,650,633,614,596,585,581,580,575,563,550,538,530,529,529,529,529,525,522],"ymouse":[564,564,564,564,564,564,564,564,564,564,564,564,564,564,564,564,564,564,564,564,564,564,564,564,564,564,564,564,564,564,557,542,493,388,350,317,285,268,225,208,191,178,170,167,166,161,140,122,107,95,94,94,94,94,90,87],"timestamp_mouse":[8,35,47,65,85,106,127,146,165,185,207,226,246,267,287,307,327,346,367,387,406,426,446,467,487,506,527,546,565,587,606,626,645,666,686,707,725,746,767,785,806,826,847,866,886,906,926,946,966,986,1005,1027,1046,1067,1086,1105],"xSR":741.5,"ySR":469.95,"xT1":424.9,"yT1":0,"xT2":1058.1,"yT2":0,"toosoon":0,"cond_shown":"randomdotsizeEA","ratio_trial":900,"smaller_num":"9","larger_num":"10","correct_side":1,"subjID":"mariapaulabeltranmora34","gender":"1","age":"9","school":"1"},{"start_time":1552309746494,"click_time":1552309747161,"finger_time":1552309747000,"fix_duration":450.3042095030765,"trial":50,"RT":506,"MT":161,"sideResp":2,"stimulus":"img/750/randomdotsizeEA/R/5_Ratio_750_L_15_R_20.png","xmouse":[812,812,812,812,812,812,812,812,812,812,812,812,812,812,812,812,812,812,812,812,812,812,812,813,817,827,833,840,851,869,953,999,1045,1092],"ymouse":[502,502,502,502,502,502,502,502,502,502,502,502,502,502,502,502,502,502,502,502,502,502,500,496,489,465,451,437,413,377,233,165,104,53],"timestamp_mouse":[13,39,46,66,87,105,125,146,166,187,207,226,246,267,287,306,326,346,367,386,406,426,446,466,487,506,526,546,567,587,606,626,645,666],"xSR":741.5,"ySR":469.95,"xT1":424.9,"yT1":0,"xT2":1058.1,"yT2":0,"toosoon":0,"cond_shown":"randomdotsizeEA","ratio_trial":750,"smaller_num":"15","larger_num":"20","correct_side":2,"subjID":"mariapaulabeltranmora34","gender":"1","age":"9","school":"1"},{"start_time":1552309748563,"click_time":1552309749500,"finger_time":1552309749300,"fix_duration":280.03467733876096,"trial":51,"RT":737,"MT":200,"sideResp":2,"stimulus":"img/500/randomdotsizeEA/L/5_Ratio_500_L_4_R_2.png","xmouse":[802,802,802,802,802,802,802,802,802,802,802,802,802,802,802,802,802,802,802,802,802,802,802,802,802,802,802,802,802,804,806,807,808,808,808,811,844,903,975,1048,1106,1179,1192,1192,1185,1160,1071],"ymouse":[525,525,525,525,525,525,525,525,525,525,525,525,525,525,525,525,525,525,525,525,525,525,525,525,525,525,525,525,513,503,493,488,487,487,487,485,466,431,377,311,244,129,95,76,64,56,65],"timestamp_mouse":[18,47,57,77,98,116,137,156,177,197,218,238,257,278,298,318,336,357,377,398,418,438,458,477,498,518,537,557,577,597,616,637,658,678,698,718,737,758,777,796,817,837,856,877,897,918,936],"xSR":741.5,"ySR":469.95,"xT1":424.9,"yT1":0,"xT2":1058.1,"yT2":0,"toosoon":0,"cond_shown":"randomdotsizeEA","ratio_trial":500,"smaller_num":"2","larger_num":"4","correct_side":1,"subjID":"mariapaulabeltranmora34","gender":"1","age":"9","school":"1"},{"start_time":1552309751561,"click_time":1552309752239,"finger_time":1552309752099,"fix_duration":780.4734526243609,"trial":52,"RT":538,"MT":140,"sideResp":2,"stimulus":"img/250/equaldotanddens/R/12_Ratio_250_L_5_R_20.png","xmouse":[802,802,802,802,802,802,802,802,802,802,802,802,802,802,802,802,802,802,802,802,802,802,802,802,809,816,842,859,883,914,956,1038,1082,1126],"ymouse":[499,499,499,499,499,499,499,499,499,499,499,499,499,499,499,499,499,499,499,499,499,499,499,499,489,476,435,410,380,345,296,197,137,79],"timestamp_mouse":[18,38,59,79,99,118,138,158,178,199,218,239,259,279,299,319,339,357,378,398,419,439,458,478,498,517,538,557,578,598,619,639,658,678],"xSR":741.5,"ySR":469.95,"xT1":424.9,"yT1":0,"xT2":1058.1,"yT2":0,"toosoon":0,"cond_shown":"equaldotanddens","ratio_trial":250,"smaller_num":"5","larger_num":"20","correct_side":2,"subjID":"mariapaulabeltranmora34","gender":"1","age":"9","school":"1"},{"start_time":1552309754390,"click_time":1552309755040,"finger_time":1552309754938,"fix_duration":1149.2481409952536,"trial":53,"RT":548,"MT":102,"sideResp":2,"stimulus":"img/750/equaldotanddens/R/12_Ratio_750_L_3_R_4.png","xmouse":[798,798,798,798,798,798,798,798,798,798,798,798,798,798,798,798,798,798,798,798,798,798,798,798,798,799,805,815,839,866,948,1013,1137],"ymouse":[493,493,493,493,493,493,493,493,493,493,493,493,493,493,493,493,493,493,493,493,493,493,493,493,493,488,471,452,418,384,285,212,78],"timestamp_mouse":[11,38,50,70,89,109,130,149,169,190,210,230,248,271,290,310,329,349,369,390,409,430,450,470,490,508,530,548,569,589,610,629,650],"xSR":741.5,"ySR":469.95,"xT1":424.9,"yT1":0,"xT2":1058.1,"yT2":0,"toosoon":0,"cond_shown":"equaldotanddens","ratio_trial":750,"smaller_num":"3","larger_num":"4","correct_side":2,"subjID":"mariapaulabeltranmora34","gender":"1","age":"9","school":"1"},{"start_time":1552309759342,"click_time":1552309760340,"finger_time":1552309760039,"fix_duration":881.662822607919,"trial":54,"RT":697,"MT":301,"sideResp":1,"stimulus":"img/500/equaldotanddens/L/10_Ratio_500_L_4_R_2.png","xmouse":[784,784,784,784,784,784,784,784,784,784,784,784,784,784,784,784,784,784,784,784,784,784,784,784,784,783,782,779,773,773,773,773,773,769,764,753,739,717,689,653,645,641,639,638,636,632,620,598,531,501],"ymouse":[517,517,517,517,517,517,517,517,517,517,517,517,517,517,517,517,517,517,517,517,517,517,517,517,517,508,502,492,480,479,479,479,479,473,464,448,433,407,379,350,339,329,326,312,300,279,241,183,51,5],"timestamp_mouse":[17,40,58,77,98,116,138,158,177,197,218,237,258,277,298,319,338,357,378,398,417,437,457,478,497,517,537,558,577,598,617,638,658,677,697,717,737,757,777,797,817,837,858,877,896,918,937,957,978,998],"xSR":741.5,"ySR":469.95,"xT1":424.9,"yT1":0,"xT2":1058.1,"yT2":0,"toosoon":0,"cond_shown":"equaldotanddens","ratio_trial":500,"smaller_num":"2","larger_num":"4","correct_side":1,"subjID":"mariapaulabeltranmora34","gender":"1","age":"9","school":"1"},{"start_time":1552309761901,"click_time":1552309763420,"finger_time":1552309763138,"fix_duration":419.36791452504485,"trial":55,"RT":1237,"MT":282,"sideResp":2,"stimulus":"img/250/equaldotsize/R/11_Ratio_250_L_3_R_12.png","xmouse":[783,783,783,783,783,783,783,783,783,783,783,783,783,783,783,783,783,783,783,783,783,783,783,783,783,783,783,783,783,783,783,783,783,783,783,783,783,784,784,784,784,784,784,784,784,784,784,784,784,784,784,784,784,784,784,784,784,784,788,796,818,923,993,1116,1186,1237,1238,1238,1238,1238,1237,1226,1207,1191,1169,1154],"ymouse":[502,502,502,502,502,502,502,502,502,502,502,502,502,502,502,502,502,502,502,502,502,502,502,502,502,502,502,502,502,502,502,502,502,502,502,502,502,502,502,502,502,502,502,502,502,502,502,502,502,502,502,502,502,502,502,502,502,502,502,498,482,386,328,232,187,160,159,159,159,159,157,136,109,91,77,70],"timestamp_mouse":[18,38,58,78,99,118,138,158,179,198,219,238,259,277,299,319,339,359,378,399,419,437,459,479,498,519,539,557,578,598,618,639,658,678,698,718,739,759,779,799,819,839,859,878,899,918,938,959,978,998,1019,1037,1059,1078,1099,1119,1137,1158,1179,1198,1219,1237,1259,1278,1298,1319,1338,1358,1378,1398,1418,1438,1459,1479,1499,1519],"xSR":741.5,"ySR":469.95,"xT1":424.9,"yT1":0,"xT2":1058.1,"yT2":0,"toosoon":0,"cond_shown":"equaldotsize","ratio_trial":250,"smaller_num":"3","larger_num":"12","correct_side":2,"subjID":"mariapaulabeltranmora34","gender":"1","age":"9","school":"1"},{"start_time":1552309765293,"click_time":1552309768360,"finger_time":1552309767879,"fix_duration":912.3790187477791,"trial":56,"RT":2586,"MT":481,"sideResp":1,"stimulus":"img/250/randomdotsizeEA/R/8_Ratio_250_L_1_R_4.png","xmouse":[800,800,800,800,800,800,800,800,800,800,800,800,800,800,800,800,800,800,800,800,800,800,800,800,800,800,800,800,800,800,800,800,800,800,800,800,800,800,800,800,800,800,800,800,800,800,800,800,800,800,800,800,800,800,800,800,800,800,800,800,800,800,800,800,800,800,800,800,800,800,800,800,800,800,800,800,800,800,800,800,800,800,800,800,800,800,800,800,800,800,800,800,800,800,800,800,800,800,800,800,800,800,800,800,800,800,800,800,800,800,800,800,800,800,800,800,800,800,800,800,800,800,800,800,800,800,800,800,800,779,764,725,677,657,638,628,617,604,596,585,570,561,557,557,557,556,556,552,551,551,549,547,530,521],"ymouse":[517,517,517,517,517,517,517,517,517,517,517,517,517,517,517,517,517,517,517,517,517,517,517,517,517,517,517,517,517,517,517,517,517,517,517,517,517,517,517,517,517,517,517,517,517,517,517,517,517,517,517,517,517,517,517,517,517,517,517,517,517,517,517,517,517,517,517,517,517,517,517,517,517,517,517,517,517,517,517,517,517,517,517,517,517,517,517,517,517,517,517,517,517,517,517,517,517,517,517,517,517,517,517,517,517,517,517,517,517,517,517,517,517,517,517,517,517,517,517,517,517,517,517,517,517,517,517,517,505,439,406,334,273,251,225,202,179,134,109,80,46,31,26,26,26,26,26,27,27,27,30,31,60,74],"timestamp_mouse":[9,26,48,67,87,105,127,146,166,187,207,226,247,266,286,306,327,346,366,387,407,427,446,466,487,506,527,546,566,587,607,626,645,665,687,707,726,746,767,787,807,827,847,867,886,907,927,945,967,986,1007,1026,1047,1066,1086,1107,1126,1147,1166,1186,1206,1225,1246,1266,1286,1306,1327,1345,1367,1386,1407,1426,1446,1467,1486,1506,1526,1547,1567,1587,1607,1626,1645,1667,1687,1707,1726,1747,1767,1787,1807,1826,1847,1867,1886,1907,1926,1945,1965,1987,2006,2026,2047,2066,2087,2107,2126,2145,2165,2187,2207,2226,2247,2267,2286,2307,2326,2347,2368,2386,2406,2426,2446,2467,2487,2506,2526,2545,2567,2586,2607,2626,2646,2667,2686,2706,2727,2746,2766,2786,2807,2827,2847,2866,2886,2906,2927,2947,2965,2986,3006,3026,3046,3067],"xSR":741.5,"ySR":469.95,"xT1":424.9,"yT1":0,"xT2":1058.1,"yT2":0,"toosoon":0,"cond_shown":"randomdotsizeEA","ratio_trial":250,"smaller_num":"1","larger_num":"4","correct_side":2,"subjID":"mariapaulabeltranmora34","gender":"1","age":"9","school":"1"},{"start_time":1552309773296,"click_time":1552309774079,"finger_time":1552309773759,"fix_duration":373.2582320146108,"trial":57,"RT":463,"MT":320,"sideResp":2,"stimulus":"img/750/equaldotsize/R/3_Ratio_750_L_15_R_20.png","xmouse":[826,826,826,826,826,826,826,826,826,826,826,826,826,826,826,826,826,826,826,826,826,826,826,841,855,864,871,873,876,880,885,890,900,927,940,955,955,955,1038,1060],"ymouse":[525,525,525,525,525,525,525,525,525,525,525,525,525,525,525,525,525,525,525,525,525,525,521,387,279,209,159,134,91,77,65,56,41,14,5,1,1,1,10,20],"timestamp_mouse":[8,23,43,63,84,104,124,144,163,182,203,223,243,262,284,303,323,344,364,383,404,424,444,463,483,502,523,544,563,583,604,623,643,663,683,703,723,744,762,783],"xSR":741.5,"ySR":469.95,"xT1":424.9,"yT1":0,"xT2":1058.1,"yT2":0,"toosoon":0,"cond_shown":"equaldotsize","ratio_trial":750,"smaller_num":"15","larger_num":"20","correct_side":2,"subjID":"mariapaulabeltranmora34","gender":"1","age":"9","school":"1"},{"start_time":1552309775565,"click_time":1552309776720,"finger_time":1552309776220,"fix_duration":603.4472612189699,"trial":58,"RT":655,"MT":500,"sideResp":1,"stimulus":"img/750/equaldotsize/R/2_Ratio_750_L_6_R_8.png","xmouse":[787,787,787,787,787,787,787,787,787,787,787,787,787,787,787,787,787,787,787,787,787,787,787,787,787,787,787,787,787,787,787,787,786,780,765,755,746,738,729,706,688,668,644,608,559,539,521,507,494,486,476,473,472,472,473,478,484,491],"ymouse":[527,527,527,527,527,527,527,527,527,527,527,527,527,527,527,527,527,527,527,527,527,527,527,525,511,509,509,509,508,499,488,480,464,449,417,404,393,384,377,359,347,334,318,295,264,248,236,225,215,206,186,173,169,158,141,128,110,84],"timestamp_mouse":[15,41,54,75,94,115,135,154,175,195,214,234,254,275,294,315,334,355,374,394,415,434,454,475,494,515,535,555,574,594,615,634,655,674,694,715,733,754,774,795,814,834,854,874,894,914,935,954,975,994,1015,1034,1054,1075,1094,1115,1135,1155],"xSR":741.5,"ySR":469.95,"xT1":424.9,"yT1":0,"xT2":1058.1,"yT2":0,"toosoon":0,"cond_shown":"equaldotsize","ratio_trial":750,"smaller_num":"6","larger_num":"8","correct_side":2,"subjID":"mariapaulabeltranmora34","gender":"1","age":"9","school":"1"},{"start_time":1552309781351,"click_time":1552309782919,"finger_time":1552309781880,"fix_duration":250,"trial":59,"RT":529,"MT":1039,"sideResp":2,"stimulus":"img/250/randomdotsizeEA/R/8_Ratio_250_L_1_R_4.png","xmouse":[783,783,783,783,783,783,783,783,783,783,783,783,783,783,783,783,783,783,783,783,783,783,783,783,783,783,786,786,783,781,781,781,781,781,781,781,781,781,781,781,778,754,738,716,696,675,643,629,620,611,596,589,584,580,578,572,568,564,563,563,563,633,712,811,912,997,1095,1124,1146,1157,1169,1183,1185,1185,1185,1179,1151,1122,1089],"ymouse":[529,529,529,529,529,529,529,529,529,529,529,529,529,529,529,529,529,529,529,529,529,529,529,529,529,528,458,434,425,422,422,422,422,422,422,422,416,397,381,365,349,314,303,297,294,294,301,302,302,300,293,285,277,264,249,206,187,174,167,165,164,170,182,204,223,240,253,253,252,248,241,216,205,194,182,167,135,110,88],"timestamp_mouse":[11,37,48,69,88,107,129,148,169,188,209,229,248,268,289,309,329,349,369,388,409,428,449,468,489,509,529,548,569,588,608,628,649,668,688,708,729,748,769,787,808,828,848,868,888,908,927,948,968,988,1010,1028,1049,1068,1089,1110,1128,1149,1168,1188,1209,1228,1248,1268,1289,1310,1329,1348,1369,1388,1408,1428,1448,1469,1488,1508,1528,1547,1568],"xSR":741.5,"ySR":469.95,"xT1":424.9,"yT1":0,"xT2":1058.1,"yT2":0,"toosoon":0,"cond_shown":"randomdotsizeEA","ratio_trial":250,"smaller_num":"1","larger_num":"4","correct_side":2,"subjID":"mariapaulabeltranmora34","gender":"1","age":"9","school":"1"},{"start_time":1552309784646,"click_time":1552309785700,"finger_time":1552309785259,"fix_duration":804.5446936751362,"trial":60,"RT":613,"MT":441,"sideResp":2,"stimulus":"img/750/randomdotsizeEA/R/5_Ratio_750_L_15_R_20.png","xmouse":[815,815,815,815,815,815,815,815,815,815,815,815,815,815,815,815,815,815,815,815,815,815,815,815,815,815,815,815,821,833,860,892,907,920,929,950,979,992,1006,1020,1032,1045,1047,1049,1052,1054,1069,1071,1073,1073,1074,1076,1078],"ymouse":[544,544,544,544,544,544,544,544,544,544,544,544,544,544,544,544,544,544,544,544,544,544,544,544,544,544,544,544,520,499,451,403,384,369,357,330,290,274,255,235,214,179,172,164,158,153,125,116,110,107,104,100,97],"timestamp_mouse":[19,40,52,74,94,113,133,153,173,194,213,233,253,272,294,313,333,354,373,393,413,433,453,474,493,512,533,553,574,593,613,633,654,673,694,714,733,754,774,794,814,833,854,873,893,913,934,952,974,993,1014,1034,1054],"xSR":741.5,"ySR":469.95,"xT1":424.9,"yT1":0,"xT2":1058.1,"yT2":0,"toosoon":0,"cond_shown":"randomdotsizeEA","ratio_trial":750,"smaller_num":"15","larger_num":"20","correct_side":2,"subjID":"mariapaulabeltranmora34","gender":"1","age":"9","school":"1"},{"start_time":1552309787272,"click_time":1552309788460,"finger_time":1552309787980,"fix_duration":591.60427229082,"trial":61,"RT":708,"MT":480,"sideResp":2,"stimulus":"img/750/equaldotanddens/R/12_Ratio_750_L_3_R_4.png","xmouse":[791,791,791,791,791,791,791,791,791,791,791,791,791,791,791,791,791,791,791,791,791,791,791,791,791,791,791,791,791,791,791,791,791,791,792,808,817,824,828,831,859,884,913,965,1001,1036,1044,1051,1056,1059,1062,1065,1067,1067,1067,1061,1056,1056,1058,1063],"ymouse":[504,504,504,504,504,504,504,504,504,504,504,504,504,504,504,504,504,504,504,504,504,504,504,504,504,504,504,504,504,504,504,504,504,504,496,459,442,431,425,420,400,384,360,315,284,249,240,234,230,227,212,192,173,156,140,106,82,56,35,16],"timestamp_mouse":[10,36,47,67,87,107,127,148,168,188,207,226,246,267,288,308,328,347,367,388,407,428,448,467,488,507,528,546,568,588,607,628,647,668,687,707,728,747,768,788,808,827,848,866,887,908,927,948,967,988,1009,1026,1048,1068,1088,1108,1127,1147,1167,1188],"xSR":741.5,"ySR":469.95,"xT1":424.9,"yT1":0,"xT2":1058.1,"yT2":0,"toosoon":0,"cond_shown":"equaldotanddens","ratio_trial":750,"smaller_num":"3","larger_num":"4","correct_side":2,"subjID":"mariapaulabeltranmora34","gender":"1","age":"9","school":"1"},{"start_time":1552309789698,"click_time":1552309790820,"finger_time":1552309790299,"fix_duration":557.6769764895364,"trial":62,"RT":601,"MT":521,"sideResp":1,"stimulus":"img/250/equaldotsize/L/1_Ratio_250_L_8_R_2.png","xmouse":[822,822,822,822,822,822,822,822,822,822,822,822,822,822,822,822,822,822,822,822,822,822,822,822,822,822,822,822,822,809,688,578,477,388,239,202,188,185,185,185,202,214,222,232,244,278,294,307,316,319,323,329,339,353,396,417,431],"ymouse":[529,529,529,529,529,529,529,529,529,529,529,529,529,529,529,529,529,529,529,529,529,529,529,529,529,529,529,529,529,523,430,363,311,270,204,181,172,169,169,167,139,126,120,115,110,107,107,107,106,105,101,94,87,81,60,51,47],"timestamp_mouse":[8,29,41,61,81,101,121,141,162,181,202,221,242,262,282,301,322,342,360,382,401,421,442,461,481,502,521,542,562,581,601,621,641,662,683,701,722,741,761,781,801,822,842,861,880,902,921,941,961,982,1001,1021,1041,1061,1082,1101,1122],"xSR":741.5,"ySR":469.95,"xT1":424.9,"yT1":0,"xT2":1058.1,"yT2":0,"toosoon":0,"cond_shown":"equaldotsize","ratio_trial":250,"smaller_num":"2","larger_num":"8","correct_side":1,"subjID":"mariapaulabeltranmora34","gender":"1","age":"9","school":"1"},{"start_time":1552309793471,"click_time":1552309795200,"finger_time":1552309794799,"fix_duration":250,"trial":63,"RT":1328,"MT":401,"sideResp":2,"stimulus":"img/750/randomdotsizeEA/L/9_Ratio_750_L_4_R_3.png","xmouse":[799,799,799,799,799,799,799,799,799,799,799,799,799,799,799,799,799,799,799,799,799,799,799,799,799,799,799,799,799,799,799,799,799,799,799,799,799,799,799,799,799,799,799,799,799,799,799,799,799,799,799,799,799,799,799,799,799,799,799,799,799,799,799,799,799,805,839,885,935,1007,1029,1029,1029,1029,1029,1029,1029,1029,1029,1029,1029,1029,1029,1029,1029,1029,1119],"ymouse":[535,535,535,535,535,535,535,535,535,535,535,535,535,535,535,535,535,535,535,535,535,535,535,535,535,535,535,535,535,535,535,535,535,535,535,535,535,535,535,535,535,535,535,535,535,535,535,535,535,535,535,535,535,535,535,535,535,535,535,535,535,535,535,535,535,521,442,345,224,51,3,3,3,3,3,3,3,3,3,3,3,3,3,3,3,3,33],"timestamp_mouse":[8,28,49,68,89,108,128,148,168,189,209,227,249,269,289,307,329,348,369,389,408,429,449,469,488,508,528,549,569,588,608,628,649,669,688,709,729,749,769,789,808,829,849,868,888,909,928,949,969,989,1009,1028,1049,1068,1089,1108,1128,1149,1168,1188,1209,1228,1249,1269,1288,1309,1328,1349,1369,1388,1409,1428,1448,1469,1489,1509,1529,1547,1568,1589,1608,1629,1647,1668,1689,1708,1729],"xSR":741.5,"ySR":469.95,"xT1":424.9,"yT1":0,"xT2":1058.1,"yT2":0,"toosoon":0,"cond_shown":"randomdotsizeEA","ratio_trial":750,"smaller_num":"3","larger_num":"4","correct_side":1,"subjID":"mariapaulabeltranmora34","gender":"1","age":"9","school":"1"},{"start_time":1552309797760,"click_time":1552309798640,"finger_time":1552309798360,"fix_duration":1499.7873653210372,"trial":64,"RT":600,"MT":280,"sideResp":1,"stimulus":"img/500/equaldotanddens/L/8_Ratio_500_L_8_R_4.png","xmouse":[789,789,789,789,789,789,789,789,789,789,789,789,789,789,789,789,789,789,789,789,789,789,789,789,789,789,789,768,749,727,702,680,658,649,644,625,597,540,519,503,489,472,452,435],"ymouse":[524,524,524,524,524,524,524,524,524,524,524,524,524,524,524,524,524,524,524,524,524,524,524,524,524,524,516,497,480,463,443,425,395,370,349,315,276,217,200,186,175,148,108,81],"timestamp_mouse":[19,40,60,79,100,119,140,160,180,200,220,240,260,279,299,319,339,360,379,400,420,439,459,479,499,518,540,560,579,600,619,639,658,679,700,719,739,759,780,799,819,840,859,879],"xSR":741.5,"ySR":469.95,"xT1":424.9,"yT1":0,"xT2":1058.1,"yT2":0,"toosoon":0,"cond_shown":"equaldotanddens","ratio_trial":500,"smaller_num":"4","larger_num":"8","correct_side":1,"subjID":"mariapaulabeltranmora34","gender":"1","age":"9","school":"1"},{"start_time":1552309800580,"click_time":1552309802140,"finger_time":1552309801980,"fix_duration":759.9986469326914,"trial":65,"RT":1400,"MT":160,"sideResp":1,"stimulus":"img/900/randomdotsizeEA/R/6_Ratio_900_L_9_R_10.png","xmouse":[825,825,825,825,825,825,825,825,825,825,825,825,825,825,825,825,825,825,825,825,825,825,825,825,825,825,825,825,825,825,825,825,825,825,825,825,825,825,825,825,825,825,825,825,825,825,825,825,825,825,825,825,825,825,825,825,825,825,825,825,825,825,825,825,825,825,825,825,815,802,745,692,569,518,486,468,458,448,439],"ymouse":[548,548,548,548,548,548,548,548,548,548,548,548,548,548,548,548,548,548,548,548,548,548,548,548,548,548,548,548,548,548,548,548,548,548,548,548,548,548,548,548,548,548,548,548,548,548,548,548,548,548,548,548,548,548,548,548,548,548,548,548,548,548,548,548,548,548,548,548,527,504,424,362,247,204,173,149,132,103,89],"timestamp_mouse":[1,20,39,58,80,99,119,140,159,180,199,219,240,259,279,300,319,340,359,379,400,420,439,460,480,500,519,539,560,579,599,619,639,660,680,700,720,740,760,779,800,820,839,860,879,900,918,939,959,979,1000,1019,1040,1060,1079,1098,1120,1140,1159,1178,1200,1219,1240,1259,1280,1300,1319,1340,1359,1380,1400,1419,1440,1459,1479,1500,1520,1539,1560],"xSR":741.5,"ySR":469.95,"xT1":424.9,"yT1":0,"xT2":1058.1,"yT2":0,"toosoon":0,"cond_shown":"randomdotsizeEA","ratio_trial":900,"smaller_num":"9","larger_num":"10","correct_side":2,"subjID":"mariapaulabeltranmora34","gender":"1","age":"9","school":"1"},{"start_time":1552309805851,"click_time":1552309806639,"finger_time":1552309806180,"fix_duration":929.0023637536277,"trial":66,"RT":329,"MT":459,"sideResp":2,"stimulus":"img/900/equaldotsize/L/1_Ratio_900_L_10_R_9.png","xmouse":[803,803,803,803,803,803,803,803,803,803,803,803,803,803,803,808,822,834,848,853,861,867,874,889,896,905,911,914,922,926,934,943,953,969,977,983,991,1003,1021,1098],"ymouse":[536,536,536,536,536,536,536,536,536,536,536,536,536,536,532,503,466,440,403,392,377,359,336,280,256,227,215,210,201,192,181,168,155,138,133,130,125,118,108,69],"timestamp_mouse":[8,38,48,68,87,108,128,148,169,188,209,228,248,269,289,308,329,349,369,387,408,429,448,469,488,508,529,549,570,588,609,628,648,670,688,709,728,748,767,787],"xSR":741.5,"ySR":469.95,"xT1":424.9,"yT1":0,"xT2":1058.1,"yT2":0,"toosoon":0,"cond_shown":"equaldotsize","ratio_trial":900,"smaller_num":"9","larger_num":"10","correct_side":1,"subjID":"mariapaulabeltranmora34","gender":"1","age":"9","school":"1"},{"start_time":1552309810775,"click_time":1552309811879,"finger_time":1552309811479,"fix_duration":674.2016562045095,"trial":67,"RT":704,"MT":400,"sideResp":2,"stimulus":"img/750/randomdotsizeEA/R/11_Ratio_750_L_12_R_16.png","xmouse":[790,790,790,790,790,790,790,790,790,790,790,790,790,790,790,790,790,790,790,790,790,790,790,790,790,790,790,790,790,790,790,790,790,794,805,822,852,878,922,943,963,979,992,1013,1022,1034,1052,1067,1099,1147,1160,1166,1166,1163,1159,1154],"ymouse":[499,499,499,499,499,499,499,499,500,500,500,500,500,500,500,500,500,500,500,500,500,500,500,500,500,500,500,500,500,500,500,500,500,494,476,453,419,398,365,350,335,323,314,303,298,293,281,267,230,167,141,115,90,49,31,15],"timestamp_mouse":[8,24,43,63,83,103,123,144,163,185,203,223,244,265,285,303,324,344,364,383,405,423,444,464,485,505,524,544,564,585,604,624,644,664,684,704,724,744,764,783,803,824,844,863,883,905,925,944,963,984,1004,1025,1045,1063,1083,1104],"xSR":741.5,"ySR":469.95,"xT1":424.9,"yT1":0,"xT2":1058.1,"yT2":0,"toosoon":0,"cond_shown":"randomdotsizeEA","ratio_trial":750,"smaller_num":"12","larger_num":"16","correct_side":2,"subjID":"mariapaulabeltranmora34","gender":"1","age":"9","school":"1"},{"start_time":1552309813028,"click_time":1552309813959,"finger_time":1552309813598,"fix_duration":587.0761945749414,"trial":68,"RT":570,"MT":361,"sideResp":2,"stimulus":"img/750/randomdotsizeEA/R/11_Ratio_750_L_12_R_16.png","xmouse":[769,769,769,769,769,769,769,769,769,769,769,769,769,769,769,769,769,769,769,769,769,769,769,769,769,772,783,803,831,867,896,958,998,1023,1045,1080,1091,1101,1110,1116,1119,1125,1127,1129,1129,1129,1130],"ymouse":[554,554,554,554,554,554,554,554,554,554,554,554,554,554,554,554,554,554,554,554,554,554,554,554,554,552,532,503,466,421,384,312,271,246,225,189,177,166,155,145,138,123,116,113,111,109,99],"timestamp_mouse":[11,30,50,71,91,111,131,151,172,190,210,231,252,270,290,311,331,350,371,391,410,431,450,470,490,510,531,551,570,591,611,630,650,670,691,711,730,750,771,792,811,830,851,871,890,910,931],"xSR":741.5,"ySR":469.95,"xT1":424.9,"yT1":0,"xT2":1058.1,"yT2":0,"toosoon":0,"cond_shown":"randomdotsizeEA","ratio_trial":750,"smaller_num":"12","larger_num":"16","correct_side":2,"subjID":"mariapaulabeltranmora34","gender":"1","age":"9","school":"1"},{"start_time":1552309817439,"click_time":1552309819718,"finger_time":1552309818040,"fix_duration":1179.4582673873035,"trial":69,"RT":601,"MT":1678,"sideResp":1,"stimulus":"img/900/equaldotanddens/R/13_Ratio_900_L_18_R_20.png","xmouse":[793,793,793,793,793,793,793,793,793,793,792,791,791,790,790,789,789,789,789,788,788,788,788,788,788,788,788,788,788,783,764,737,719,693,667,646,609,596,584,570,555,532,531,531,531,531,531,535,540,544,549,552,552,552,552,552,552,552,552,552,552,552,552,552,552,552,552,552,552,551,548,548,547,547,546,545,544,544,544,542,541,534,532,530,528,528,528,528,528,528,528,528,528,528,528,528,528,528,528,528,528,528,528,528,528,528,528,526,525,525,525,525,525,525,524],"ymouse":[498,492,490,490,490,490,490,490,490,490,490,490,491,491,493,493,493,494,494,495,495,495,495,495,495,495,495,495,495,491,463,427,398,364,328,297,248,228,208,187,167,137,135,135,135,135,133,117,104,92,79,70,70,70,70,70,70,70,70,70,70,70,70,70,70,70,70,70,71,71,75,75,76,76,77,77,79,80,80,81,83,87,88,90,91,91,91,91,91,91,91,91,91,91,91,91,91,91,91,91,91,91,91,91,91,91,91,93,93,93,93,93,93,93,94],"timestamp_mouse":[8,20,49,60,81,100,120,140,160,181,199,221,241,260,280,300,319,341,360,380,400,421,439,460,481,500,519,539,560,580,601,619,639,659,680,700,719,740,759,779,799,819,839,860,881,900,919,939,961,979,1000,1019,1039,1059,1080,1099,1120,1139,1159,1180,1200,1219,1240,1260,1279,1300,1320,1339,1360,1380,1399,1420,1441,1459,1479,1499,1519,1540,1560,1581,1599,1620,1639,1660,1679,1700,1720,1739,1760,1780,1800,1819,1840,1860,1879,1899,1919,1939,1960,1980,2001,2019,2040,2060,2080,2099,2120,2141,2160,2179,2199,2220,2239,2259,2279],"xSR":741.5,"ySR":469.95,"xT1":424.9,"yT1":0,"xT2":1058.1,"yT2":0,"toosoon":0,"cond_shown":"equaldotanddens","ratio_trial":900,"smaller_num":"18","larger_num":"20","correct_side":2,"subjID":"mariapaulabeltranmora34","gender":"1","age":"9","school":"1"},{"start_time":1552309822259,"click_time":1552309823098,"finger_time":1552309822718,"fix_duration":1339.7382271451374,"trial":70,"RT":459,"MT":380,"sideResp":2,"stimulus":"img/900/randomdotsizeEA/R/3_Ratio_900_L_9_R_10.png","xmouse":[766,766,766,766,766,766,766,766,766,766,766,766,766,766,766,766,766,766,768,784,799,816,831,845,855,866,873,878,884,896,938,968,1002,1031,1063,1069,1076,1078,1081,1091,1095,1104],"ymouse":[538,538,538,538,538,538,538,538,538,538,538,538,538,538,538,538,538,538,535,512,493,475,457,443,434,422,414,410,407,402,378,359,331,309,277,261,232,208,187,137,109,78],"timestamp_mouse":[28,40,61,81,100,121,140,159,179,199,219,239,260,279,299,320,339,359,380,399,420,440,459,480,500,520,540,560,581,600,619,640,661,681,700,719,740,761,780,801,819,839],"xSR":741.5,"ySR":469.95,"xT1":424.9,"yT1":0,"xT2":1058.1,"yT2":0,"toosoon":0,"cond_shown":"randomdotsizeEA","ratio_trial":900,"smaller_num":"9","larger_num":"10","correct_side":2,"subjID":"mariapaulabeltranmora34","gender":"1","age":"9","school":"1"},{"start_time":1552309826172,"click_time":1552309827499,"finger_time":1552309827099,"fix_duration":971.4472470585441,"trial":71,"RT":927,"MT":400,"sideResp":2,"stimulus":"img/500/randomdotsizeEA/R/6_Ratio_500_L_9_R_18.png","xmouse":[782,782,782,782,782,782,782,782,782,782,782,782,782,782,782,782,782,782,782,782,782,782,782,782,782,782,782,782,782,782,782,782,782,782,782,782,782,782,782,782,782,782,782,782,786,811,861,914,955,991,1008,1014,1018,1022,1025,1030,1035,1041,1046,1056,1075,1089,1101,1112,1121,1130,1134],"ymouse":[532,532,532,532,532,532,532,532,532,532,532,532,532,532,532,532,532,532,532,532,532,532,532,532,532,532,532,532,532,532,532,532,532,532,532,532,532,532,532,532,532,532,532,532,530,501,451,399,350,309,282,272,264,256,248,234,220,207,194,174,151,138,129,121,114,104,97],"timestamp_mouse":[10,35,47,68,87,107,127,147,166,187,208,226,247,267,287,307,328,347,367,386,408,426,446,466,486,508,528,546,566,586,607,628,648,668,687,707,727,746,767,787,808,826,847,866,887,906,927,948,966,987,1006,1027,1047,1067,1087,1106,1128,1147,1167,1186,1206,1227,1246,1266,1287,1307,1326],"xSR":741.5,"ySR":469.95,"xT1":424.9,"yT1":0,"xT2":1058.1,"yT2":0,"toosoon":0,"cond_shown":"randomdotsizeEA","ratio_trial":500,"smaller_num":"9","larger_num":"18","correct_side":2,"subjID":"mariapaulabeltranmora34","gender":"1","age":"9","school":"1"},{"start_time":1552309829998,"click_time":1552309831159,"finger_time":1552309830900,"fix_duration":1217.8337410027766,"trial":72,"RT":902,"MT":259,"sideResp":2,"stimulus":"img/750/equaldotsize/R/5_Ratio_750_L_15_R_20.png","xmouse":[776,776,776,776,776,776,776,776,776,776,776,776,776,776,776,776,776,776