[{"start_time":1552327744404,"click_time":1552327749489,"finger_time":1552327744413,"fix_duration":1450.8312041891056,"trial":0,"RT":9,"MT":5076,"sideResp":2,"stimulus":[],"xmouse":[803,803,803,803,803,803,803,803,803,803,803,803,803,803,803,803,803,803,803,803,803,803,803,803,803,803,803,803,803,803,803,803,803,803,803,803,803,803,801,797,795,792,792,792,792,791,790,790,790,790,790,790,790,790,792,797,797,793,790,788,788,788,788,789,789,790,790,790,790,791,795,797,799,800,801,801,801,801,801,801,801,801,801,801,801,801,801,801,799,798,798,798,798,798,797,797,797,797,797,797,797,797,797,797,797,797,797,797,797,797,797,797,797,797,797,797,797,797,797,797,797,797,797,797,797,797,797,797,797,797,797,797,797,797,797,797,797,797,797,797,797,797,797,797,797,797,797,797,797,797,797,797,797,797,797,797,797,797,797,797,797,797,797,797,797,797,797,797,797,797,797,799,806,814,826,840,865,873,882,888,896,927,937,943,944,944,944,944,945,944,938,914,904,898,890,883,874,871,868,867,867,867,867,867,867,867,867,863,853,832,807,753,746,746,746,746,746,746,746,746,746,746,746,746,746,746,746,745,745,745,746,746,747,751,759,772,822,854,897,939,981,1036,1039,1040,1044,1050,1082,1107,1137,1150,1154,1155,1155,1154,1150],"ymouse":[521,521,521,521,521,521,521,521,521,521,521,521,521,521,521,521,521,521,521,521,521,521,521,521,521,521,521,521,521,521,521,521,521,521,521,521,521,521,525,531,535,544,545,545,545,549,551,554,557,560,563,564,566,571,579,604,627,653,677,697,719,721,721,721,721,722,722,722,722,722,717,710,707,702,697,691,690,688,687,686,684,684,684,682,680,670,665,658,648,641,635,635,635,635,634,634,634,634,634,634,634,634,634,634,634,634,634,634,634,634,634,634,634,634,634,634,634,634,634,634,634,634,634,634,634,634,634,634,634,634,634,634,634,634,634,634,634,634,634,634,634,634,634,634,634,634,634,634,634,634,634,634,634,634,634,634,634,634,634,634,634,634,634,634,634,634,634,634,634,634,634,637,643,648,655,663,680,687,696,702,710,732,738,741,741,741,741,741,740,737,729,703,692,682,668,659,647,645,644,644,644,644,644,644,644,644,644,642,638,636,636,642,645,645,645,645,645,645,645,645,645,645,645,645,645,645,645,645,644,636,618,598,588,579,567,549,478,434,371,311,244,93,50,16,0,0,0,0,0,0,0,0,0,0,4],"timestamp_mouse":[9,25,44,64,84,104,124,144,165,184,205,224,244,264,285,304,324,343,365,385,405,424,443,463,485,504,525,544,565,585,605,624,644,663,684,704,724,745,764,784,804,825,844,864,883,904,924,945,965,985,1005,1023,1044,1063,1084,1104,1124,1145,1164,1184,1204,1224,1244,1264,1284,1304,1323,1345,1364,1385,1404,1425,1444,1465,1484,1504,1523,1544,1564,1585,1604,1623,1644,1664,1684,1704,1724,1744,1764,1784,1803,1824,1844,1863,1884,1904,1925,1944,1965,1984,2005,2025,2045,2064,2084,2104,2125,2144,2164,2184,2204,2225,2244,2265,2284,2304,2324,2345,2365,2384,2405,2425,2444,2465,2484,2505,2525,2544,2565,2585,2604,2623,2643,2664,2684,2705,2725,2743,2765,2784,2804,2825,2844,2864,2884,2905,2924,2945,2965,2984,3004,3024,3044,3065,3083,3105,3124,3144,3164,3185,3205,3223,3245,3263,3284,3305,3324,3344,3365,3383,3404,3424,3444,3464,3485,3504,3524,3544,3564,3585,3604,3624,3644,3664,3685,3705,3723,3744,3764,3785,3804,3825,3843,3863,3885,3904,3924,3944,3965,3985,4004,4025,4044,4063,4085,4104,4123,4144,4164,4185,4203,4223,4244,4265,4285,4304,4324,4345,4365,4385,4405,4424,4445,4465,4483,4505,4524,4544,4564,4585,4604,4623,4644,4664,4684,4703,4724,4745,4763,4783,4803,4823,4844,4864,4884,4903,4925,4944,4965,4984,5006,5024,5044,5064,5084],"xSR":741.5,"ySR":469.95,"xT1":424.9,"yT1":0,"xT2":1058.1,"yT2":0,"toosoon":0,"cond_shown":"Congruent","ratio_trial":300,"L_num":24,"L_den":30,"R_num":8,"R_den":16,"correct_side":1,"subjID":"MariaPaulaLeguizamon33","gender":"1","age":"9","school":"4","test":{"fix_dur":[250,1500],"timestim":1000,"targets_dim":[100,100],"targets_relative_coord":[0.3,0.7],"size_stim":[880,420],"start_dim":[100,100],"size_start":[300,300],"size_fix":60,"samplingrate":20,"img_types":["Congruent","Incongruent"],"ratios":[100,200,300],"rep_conds":19,"nTrials":120,"trials_to_rest":500,"Trials_order":[28,76,37,119,109,90,52,92,83,84,116,97,2,35,105,44,20,99,21,16,112,55,104,1,88,107,93,111,29,10,30,39,100,51,86,11,45,108,7,85,48,49,4,77,63,40,65,103,94,41,19,27,57,14,98,8,64,6,69,31,113,38,82,89,66,106,9,75,81,13,50,70,78,5,17,15,22,80,0,54,68,79,34,33,36,110,46,58,47,73,43,71,12,60,61,101,25,53,114,102,96,91,118,115,87,23,95,67,18,74,72,117,59,42,56,32,24,3,62,26],"cond_shown":["Congruent","Congruent","Incongruent","Incongruent","Incongruent","Congruent","Congruent","Congruent","Incongruent","Congruent","Congruent","Incongruent","Congruent","Incongruent","Incongruent","Congruent","Congruent","Incongruent","Incongruent","Congruent","Congruent","Incongruent","Congruent","Incongruent","Congruent","Incongruent","Incongruent","Incongruent","Incongruent","Congruent","Congruent","Incongruent","Congruent","Incongruent","Congruent","Incongruent","Incongruent","Congruent","Incongruent","Incongruent","Congruent","Incongruent","Congruent","Incongruent","Incongruent","Congruent","Incongruent","Incongruent","Congruent","Incongruent","Incongruent","Incongruent","Incongruent","Congruent","Congruent","Congruent","Congruent","Congruent","Incongruent","Incongruent","Incongruent","Congruent","Congruent","Incongruent","Congruent","Congruent","Incongruent","Incongruent","Incongruent","Incongruent","Congruent","Congruent","Congruent","Incongruent","Incongruent","Incongruent","Congruent","Congruent","Congruent","Congruent","Congruent","Incongruent","Congruent","Incongruent","Congruent","Congruent","Congruent","Congruent","Incongruent","Incongruent","Incongruent","Incongruent","Congruent","Congruent","Incongruent","Incongruent","Incongruent","Incongruent","Congruent","Congruent","Congruent","Incongruent","Congruent","Incongruent","Incongruent","Incongruent","Incongruent","Incongruent","Congruent","Congruent","Congruent","Incongruent","Incongruent","Congruent","Congruent","Congruent","Congruent","Incongruent","Congruent","Congruent"],"ratio_trial":[300,300,100,300,100,100,300,200,300,100,200,100,200,300,200,200,200,200,200,300,300,100,200,100,300,300,200,200,300,300,100,200,300,200,200,300,200,100,100,100,100,100,300,300,200,300,300,100,300,300,100,200,200,200,200,200,300,100,200,100,300,200,300,300,100,300,200,200,200,100,200,300,100,300,300,200,300,200,100,100,200,100,300,200,100,200,300,300,300,100,100,300,100,100,100,300,100,300,100,100,100,100,300,100,200,300,300,100,100,200,100,200,300,100,200,200,100,200,200,200],"left_num":[24,12,11,4,9,9,11,3,2,3,5,2,8,2,1,16,6,3,7,4,9,6,12,13,24,2,1,4,8,1,1,7,1,14,12,4,11,11,9,3,9,9,24,13,1,1,7,9,8,13,6,14,3,3,21,9,20,7,14,10,4,20,5,1,2,5,14,4,7,13,4,3,1,8,4,7,5,8,8,6,3,13,5,14,12,15,7,11,13,10,1,7,3,15,17,1,9,1,6,6,3,8,1,11,4,8,1,3,8,15,11,6,13,6,14,6,4,14,1,6],"right_num":[8,2,9,6,20,8,1,9,6,4,14,8,3,6,3,12,11,1,4,13,3,3,6,12,2,6,2,1,14,3,18,12,19,6,6,2,3,4,14,4,8,14,8,12,3,8,8,13,10,12,3,12,11,14,2,4,8,9,6,9,2,9,7,2,11,7,6,6,6,12,3,11,18,14,8,8,6,2,2,5,9,6,7,6,13,4,20,1,12,9,8,8,4,13,10,2,13,3,15,5,2,6,6,9,6,14,3,11,2,4,6,3,12,15,6,11,15,12,21,7],"left_den":[30,24,22,5,10,15,22,12,4,20,10,4,15,4,2,20,20,10,15,20,10,12,20,26,30,4,3,30,10,5,2,10,3,30,20,20,20,22,15,6,15,15,30,26,2,30,10,15,15,26,12,30,4,6,30,20,25,14,30,25,20,25,25,2,5,25,30,5,15,26,10,12,2,10,5,10,25,15,16,20,12,26,25,30,30,25,14,22,26,25,2,10,20,25,30,2,15,2,12,20,6,16,5,22,5,10,2,5,16,25,22,20,26,12,28,20,10,30,2,12],"right_den":[16,10,15,12,25,16,5,20,30,16,20,20,9,30,10,20,22,2,6,26,5,5,15,20,4,30,15,3,28,6,30,24,30,9,15,4,4,10,28,10,16,28,16,15,10,24,20,26,12,15,5,18,20,20,4,16,16,15,9,18,4,15,14,10,22,14,9,10,9,20,15,20,30,28,16,16,12,6,5,25,20,10,14,9,26,10,25,5,15,18,20,20,16,26,15,10,26,15,25,25,5,10,12,15,10,28,15,22,5,10,15,6,15,25,20,22,30,18,30,10],"correct_side":[1,1,2,1,1,1,1,2,1,2,2,1,1,1,1,1,2,2,2,2,1,2,1,2,1,1,1,2,1,2,2,1,2,2,1,2,2,1,1,1,1,1,1,2,1,2,1,1,2,2,2,2,1,2,1,1,1,2,2,2,2,1,2,1,2,2,2,1,2,2,1,2,2,1,1,1,2,1,1,1,2,2,2,2,2,1,2,1,2,2,1,1,2,1,2,1,1,1,2,1,1,2,2,2,1,1,1,1,1,1,1,2,2,2,1,2,2,2,2,2],"img_shown":["img2/300/Congruent/L/C_Dist_300_LN_24_LD_30_RN_8_RD_16_0.png","img2/300/Congruent/L/C_Dist_300_LN_12_LD_24_RN_2_RD_10_0.png","img2/100/Incongruent/R/I_Dist_100_LN_11_LD_22_RN_9_RD_15_1.png","img2/300/Incongruent/L/I_Dist_300_LN_4_LD_5_RN_6_RD_12_0.png","img2/100/Incongruent/L/I_Dist_100_LN_9_LD_10_RN_20_RD_25_0.png","img2/100/Congruent/L/C_Dist_100_LN_9_LD_15_RN_8_RD_16_0.png","img2/300/Congruent/L/C_Dist_300_LN_11_LD_22_RN_1_RD_5_0.png","img2/200/Congruent/R/C_Dist_200_LN_3_LD_12_RN_9_RD_20_1.png","img2/300/Incongruent/L/I_Dist_300_LN_2_LD_4_RN_6_RD_30_0.png","img2/100/Congruent/R/C_Dist_100_LN_3_LD_20_RN_4_RD_16_1.png","img2/200/Congruent/R/C_Dist_200_LN_5_LD_10_RN_14_RD_20_1.png","img2/100/Incongruent/L/I_Dist_100_LN_2_LD_4_RN_8_RD_20_0.png","img2/200/Congruent/L/C_Dist_200_LN_8_LD_15_RN_3_RD_9_0.png","img2/300/Incongruent/L/I_Dist_300_LN_2_LD_4_RN_6_RD_30_0.png","img2/200/Incongruent/L/I_Dist_200_LN_1_LD_2_RN_3_RD_10_0.png","img2/200/Congruent/L/C_Dist_200_LN_16_LD_20_RN_12_RD_20_0.png","img2/200/Congruent/R/C_Dist_200_LN_6_LD_20_RN_11_RD_22_1.png","img2/200/Incongruent/R/I_Dist_200_LN_3_LD_10_RN_1_RD_2_1.png","img2/200/Incongruent/R/I_Dist_200_LN_7_LD_15_RN_4_RD_6_1.png","img2/300/Congruent/R/C_Dist_300_LN_4_LD_20_RN_13_RD_26_1.png","img2/300/Congruent/L/C_Dist_300_LN_9_LD_10_RN_3_RD_5_0.png","img2/100/Incongruent/R/I_Dist_100_LN_6_LD_12_RN_3_RD_5_1.png","img2/200/Congruent/L/C_Dist_200_LN_12_LD_20_RN_6_RD_15_0.png","img2/100/Incongruent/R/I_Dist_100_LN_13_LD_26_RN_12_RD_20_1.png","img2/300/Congruent/L/C_Dist_300_LN_24_LD_30_RN_2_RD_4_0.png","img2/300/Incongruent/L/I_Dist_300_LN_2_LD_4_RN_6_RD_30_0.png","img2/200/Incongruent/L/I_Dist_200_LN_1_LD_3_RN_2_RD_15_0.png","img2/200/Incongruent/R/I_Dist_200_LN_4_LD_30_RN_1_RD_3_1.png","img2/300/Incongruent/L/I_Dist_300_LN_8_LD_10_RN_14_RD_28_0.png","img2/300/Congruent/R/C_Dist_300_LN_1_LD_5_RN_3_RD_6_1.png","img2/100/Congruent/R/C_Dist_100_LN_1_LD_2_RN_18_RD_30_1.png","img2/200/Incongruent/L/I_Dist_200_LN_7_LD_10_RN_12_RD_24_0.png","img2/300/Congruent/R/C_Dist_300_LN_1_LD_3_RN_19_RD_30_1.png","img2/200/Incongruent/R/I_Dist_200_LN_14_LD_30_RN_6_RD_9_1.png","img2/200/Congruent/L/C_Dist_200_LN_12_LD_20_RN_6_RD_15_0.png","img2/300/Incongruent/R/I_Dist_300_LN_4_LD_20_RN_2_RD_4_1.png","img2/200/Incongruent/R/I_Dist_200_LN_11_LD_20_RN_3_RD_4_1.png","img2/100/Congruent/L/C_Dist_100_LN_11_LD_22_RN_4_RD_10_0.png","img2/100/Incongruent/L/I_Dist_100_LN_9_LD_15_RN_14_RD_28_0.png","img2/100/Incongruent/L/I_Dist_100_LN_3_LD_6_RN_4_RD_10_0.png","img2/100/Congruent/L/C_Dist_100_LN_9_LD_15_RN_8_RD_16_0.png","img2/100/Incongruent/L/I_Dist_100_LN_9_LD_15_RN_14_RD_28_0.png","img2/300/Congruent/L/C_Dist_300_LN_24_LD_30_RN_8_RD_16_0.png","img2/300/Incongruent/R/I_Dist_300_LN_13_LD_26_RN_12_RD_15_1.png","img2/200/Incongruent/L/I_Dist_200_LN_1_LD_2_RN_3_RD_10_0.png","img2/300/Congruent/R/C_Dist_300_LN_1_LD_30_RN_8_RD_24_1.png","img2/300/Incongruent/L/I_Dist_300_LN_7_LD_10_RN_8_RD_20_0.png","img2/100/Incongruent/L/I_Dist_100_LN_9_LD_15_RN_13_RD_26_0.png","img2/300/Congruent/R/C_Dist_300_LN_8_LD_15_RN_10_RD_12_1.png","img2/300/Incongruent/R/I_Dist_300_LN_13_LD_26_RN_12_RD_15_1.png","img2/100/Incongruent/R/I_Dist_100_LN_6_LD_12_RN_3_RD_5_1.png","img2/200/Incongruent/R/I_Dist_200_LN_14_LD_30_RN_12_RD_18_1.png","img2/200/Incongruent/L/I_Dist_200_LN_3_LD_4_RN_11_RD_20_0.png","img2/200/Congruent/R/C_Dist_200_LN_3_LD_6_RN_14_RD_20_1.png","img2/200/Congruent/L/C_Dist_200_LN_21_LD_30_RN_2_RD_4_0.png","img2/200/Congruent/L/C_Dist_200_LN_9_LD_20_RN_4_RD_16_0.png","img2/300/Congruent/L/C_Dist_300_LN_20_LD_25_RN_8_RD_16_0.png","img2/100/Congruent/R/C_Dist_100_LN_7_LD_14_RN_9_RD_15_1.png","img2/200/Incongruent/R/I_Dist_200_LN_14_LD_30_RN_6_RD_9_1.png","img2/100/Incongruent/R/I_Dist_100_LN_10_LD_25_RN_9_RD_18_1.png","img2/300/Incongruent/R/I_Dist_300_LN_4_LD_20_RN_2_RD_4_1.png","img2/200/Congruent/L/C_Dist_200_LN_20_LD_25_RN_9_RD_15_0.png","img2/300/Congruent/R/C_Dist_300_LN_5_LD_25_RN_7_RD_14_1.png","img2/300/Incongruent/L/I_Dist_300_LN_1_LD_2_RN_2_RD_10_0.png","img2/100/Congruent/R/C_Dist_100_LN_2_LD_5_RN_11_RD_22_1.png","img2/300/Congruent/R/C_Dist_300_LN_5_LD_25_RN_7_RD_14_1.png","img2/200/Incongruent/R/I_Dist_200_LN_14_LD_30_RN_6_RD_9_1.png","img2/200/Incongruent/L/I_Dist_200_LN_4_LD_5_RN_6_RD_10_0.png","img2/200/Incongruent/R/I_Dist_200_LN_7_LD_15_RN_6_RD_9_1.png","img2/100/Incongruent/R/I_Dist_100_LN_13_LD_26_RN_12_RD_20_1.png","img2/200/Congruent/L/C_Dist_200_LN_4_LD_10_RN_3_RD_15_0.png","img2/300/Congruent/R/C_Dist_300_LN_3_LD_12_RN_11_RD_20_1.png","img2/100/Congruent/R/C_Dist_100_LN_1_LD_2_RN_18_RD_30_1.png","img2/300/Incongruent/L/I_Dist_300_LN_8_LD_10_RN_14_RD_28_0.png","img2/300/Incongruent/L/I_Dist_300_LN_4_LD_5_RN_8_RD_16_0.png","img2/200/Incongruent/L/I_Dist_200_LN_7_LD_10_RN_8_RD_16_0.png","img2/300/Congruent/R/C_Dist_300_LN_5_LD_25_RN_6_RD_12_1.png","img2/200/Congruent/L/C_Dist_200_LN_8_LD_15_RN_2_RD_6_0.png","img2/100/Congruent/L/C_Dist_100_LN_8_LD_16_RN_2_RD_5_0.png","img2/100/Congruent/L/C_Dist_100_LN_6_LD_20_RN_5_RD_25_0.png","img2/200/Congruent/R/C_Dist_200_LN_3_LD_12_RN_9_RD_20_1.png","img2/100/Incongruent/R/I_Dist_100_LN_13_LD_26_RN_6_RD_10_1.png","img2/300/Congruent/R/C_Dist_300_LN_5_LD_25_RN_7_RD_14_1.png","img2/200/Incongruent/R/I_Dist_200_LN_14_LD_30_RN_6_RD_9_1.png","img2/100/Congruent/R/C_Dist_100_LN_12_LD_30_RN_13_RD_26_1.png","img2/200/Congruent/L/C_Dist_200_LN_15_LD_25_RN_4_RD_10_0.png","img2/300/Congruent/R/C_Dist_300_LN_7_LD_14_RN_20_RD_25_1.png","img2/300/Congruent/L/C_Dist_300_LN_11_LD_22_RN_1_RD_5_0.png","img2/300/Incongruent/R/I_Dist_300_LN_13_LD_26_RN_12_RD_15_1.png","img2/100/Incongruent/R/I_Dist_100_LN_10_LD_25_RN_9_RD_18_1.png","img2/100/Incongruent/L/I_Dist_100_LN_1_LD_2_RN_8_RD_20_0.png","img2/300/Incongruent/L/I_Dist_300_LN_7_LD_10_RN_8_RD_20_0.png","img2/100/Congruent/R/C_Dist_100_LN_3_LD_20_RN_4_RD_16_1.png","img2/100/Congruent/L/C_Dist_100_LN_15_LD_25_RN_13_RD_26_0.png","img2/100/Incongruent/R/I_Dist_100_LN_17_LD_30_RN_10_RD_15_1.png","img2/300/Incongruent/L/I_Dist_300_LN_1_LD_2_RN_2_RD_10_0.png","img2/100/Incongruent/L/I_Dist_100_LN_9_LD_15_RN_13_RD_26_0.png","img2/300/Incongruent/L/I_Dist_300_LN_1_LD_2_RN_3_RD_15_0.png","img2/100/Congruent/R/C_Dist_100_LN_6_LD_12_RN_15_RD_25_1.png","img2/100/Congruent/L/C_Dist_100_LN_6_LD_20_RN_5_RD_25_0.png","img2/100/Congruent/L/C_Dist_100_LN_3_LD_6_RN_2_RD_5_0.png","img2/100/Incongruent/R/I_Dist_100_LN_8_LD_16_RN_6_RD_10_1.png","img2/300/Congruent/R/C_Dist_300_LN_1_LD_5_RN_6_RD_12_1.png","img2/100/Incongruent/R/I_Dist_100_LN_11_LD_22_RN_9_RD_15_1.png","img2/200/Incongruent/L/I_Dist_200_LN_4_LD_5_RN_6_RD_10_0.png","img2/300/Incongruent/L/I_Dist_300_LN_8_LD_10_RN_14_RD_28_0.png","img2/300/Incongruent/L/I_Dist_300_LN_1_LD_2_RN_3_RD_15_0.png","img2/100/Incongruent/L/I_Dist_100_LN_3_LD_5_RN_11_RD_22_0.png","img2/100/Congruent/L/C_Dist_100_LN_8_LD_16_RN_2_RD_5_0.png","img2/200/Congruent/L/C_Dist_200_LN_15_LD_25_RN_4_RD_10_0.png","img2/100/Congruent/L/C_Dist_100_LN_11_LD_22_RN_6_RD_15_0.png","img2/200/Incongruent/R/I_Dist_200_LN_6_LD_20_RN_3_RD_6_1.png","img2/300/Incongruent/R/I_Dist_300_LN_13_LD_26_RN_12_RD_15_1.png","img2/100/Congruent/R/C_Dist_100_LN_6_LD_12_RN_15_RD_25_1.png","img2/200/Congruent/L/C_Dist_200_LN_14_LD_28_RN_6_RD_20_0.png","img2/200/Congruent/R/C_Dist_200_LN_6_LD_20_RN_11_RD_22_1.png","img2/100/Congruent/R/C_Dist_100_LN_4_LD_10_RN_15_RD_30_1.png","img2/200/Incongruent/R/I_Dist_200_LN_14_LD_30_RN_12_RD_18_1.png","img2/200/Congruent/R/C_Dist_200_LN_1_LD_2_RN_21_RD_30_1.png","img2/200/Congruent/R/C_Dist_200_LN_6_LD_12_RN_7_RD_10_1.png"],"dist100_C":[["C_Dist_100_LN_10_LD_25_RN_3_RD_10_0.png","C_Dist_100_LN_11_LD_22_RN_4_RD_10_0.png","C_Dist_100_LN_11_LD_22_RN_6_RD_15_0.png","C_Dist_100_LN_15_LD_25_RN_13_RD_26_0.png","C_Dist_100_LN_3_LD_6_RN_2_RD_5_0.png","C_Dist_100_LN_6_LD_20_RN_5_RD_25_0.png","C_Dist_100_LN_8_LD_16_RN_2_RD_5_0.png","C_Dist_100_LN_9_LD_15_RN_8_RD_16_0.png"],["C_Dist_100_LN_1_LD_2_RN_18_RD_30_1.png","C_Dist_100_LN_1_LD_2_RN_3_RD_5_1.png","C_Dist_100_LN_12_LD_30_RN_13_RD_26_1.png","C_Dist_100_LN_2_LD_5_RN_11_RD_22_1.png","C_Dist_100_LN_2_LD_5_RN_6_RD_12_1.png","C_Dist_100_LN_3_LD_20_RN_4_RD_16_1.png","C_Dist_100_LN_4_LD_10_RN_15_RD_30_1.png","C_Dist_100_LN_4_LD_8_RN_6_RD_10_1.png","C_Dist_100_LN_6_LD_12_RN_15_RD_25_1.png","C_Dist_100_LN_7_LD_14_RN_15_RD_25_1.png","C_Dist_100_LN_7_LD_14_RN_9_RD_15_1.png"]],"dist100_I":[["I_Dist_100_LN_1_LD_2_RN_8_RD_20_0.png","I_Dist_100_LN_2_LD_4_RN_6_RD_15_0.png","I_Dist_100_LN_2_LD_4_RN_8_RD_20_0.png","I_Dist_100_LN_3_LD_5_RN_11_RD_22_0.png","I_Dist_100_LN_3_LD_5_RN_8_RD_16_0.png","I_Dist_100_LN_3_LD_6_RN_4_RD_10_0.png","I_Dist_100_LN_3_LD_9_RN_7_RD_30_0.png","I_Dist_100_LN_4_LD_8_RN_8_RD_20_0.png","I_Dist_100_LN_6_LD_10_RN_11_RD_22_0.png","I_Dist_100_LN_6_LD_10_RN_13_RD_26_0.png","I_Dist_100_LN_6_LD_10_RN_7_RD_14_0.png","I_Dist_100_LN_9_LD_10_RN_20_RD_25_0.png","I_Dist_100_LN_9_LD_15_RN_13_RD_26_0.png","I_Dist_100_LN_9_LD_15_RN_14_RD_28_0.png"],["I_Dist_100_LN_10_LD_25_RN_8_RD_16_1.png","I_Dist_100_LN_10_LD_25_RN_9_RD_18_1.png","I_Dist_100_LN_11_LD_22_RN_9_RD_15_1.png","I_Dist_100_LN_12_LD_24_RN_9_RD_15_1.png","I_Dist_100_LN_12_LD_30_RN_2_RD_4_1.png","I_Dist_100_LN_13_LD_26_RN_12_RD_20_1.png","I_Dist_100_LN_13_LD_26_RN_6_RD_10_1.png","I_Dist_100_LN_17_LD_30_RN_10_RD_15_1.png","I_Dist_100_LN_6_LD_12_RN_3_RD_5_1.png","I_Dist_100_LN_8_LD_16_RN_6_RD_10_1.png","I_Dist_100_LN_8_LD_20_RN_1_RD_2_1.png","I_Dist_100_LN_9_LD_18_RN_6_RD_10_1.png"]],"dist100_S":[["E_Dist_100_LN_2_LD_12_RN_2_RD_30_0.png","E_Dist_100_LN_6_LD_10_RN_6_RD_12_0.png"],["E_Dist_100_LN_6_LD_12_RN_6_RD_10_1.png"]],"dist200_C":[["C_Dist_200_LN_11_LD_22_RN_3_RD_10_0.png","C_Dist_200_LN_12_LD_15_RN_6_RD_10_0.png","C_Dist_200_LN_12_LD_20_RN_6_RD_15_0.png","C_Dist_200_LN_14_LD_28_RN_6_RD_20_0.png","C_Dist_200_LN_15_LD_25_RN_4_RD_10_0.png","C_Dist_200_LN_16_LD_20_RN_12_RD_20_0.png","C_Dist_200_LN_16_LD_30_RN_9_RD_27_0.png","C_Dist_200_LN_20_LD_25_RN_9_RD_15_0.png","C_Dist_200_LN_21_LD_30_RN_2_RD_4_0.png","C_Dist_200_LN_4_LD_10_RN_3_RD_15_0.png","C_Dist_200_LN_4_LD_8_RN_3_RD_10_0.png","C_Dist_200_LN_6_LD_15_RN_3_RD_15_0.png","C_Dist_200_LN_7_LD_21_RN_2_RD_15_0.png","C_Dist_200_LN_8_LD_15_RN_2_RD_6_0.png","C_Dist_200_LN_8_LD_15_RN_3_RD_9_0.png","C_Dist_200_LN_8_LD_15_RN_7_RD_21_0.png","C_Dist_200_LN_9_LD_20_RN_4_RD_16_0.png"],["C_Dist_200_LN_1_LD_2_RN_21_RD_30_1.png","C_Dist_200_LN_13_LD_26_RN_14_RD_20_1.png","C_Dist_200_LN_3_LD_10_RN_11_RD_22_1.png","C_Dist_200_LN_3_LD_10_RN_14_RD_28_1.png","C_Dist_200_LN_3_LD_10_RN_7_RD_14_1.png","C_Dist_200_LN_3_LD_12_RN_9_RD_20_1.png","C_Dist_200_LN_3_LD_6_RN_14_RD_20_1.png","C_Dist_200_LN_5_LD_10_RN_14_RD_20_1.png","C_Dist_200_LN_6_LD_12_RN_7_RD_10_1.png","C_Dist_200_LN_6_LD_20_RN_11_RD_22_1.png","C_Dist_200_LN_7_LD_15_RN_18_RD_27_1.png","C_Dist_200_LN_9_LD_30_RN_13_RD_26_1.png"]],"dist200_I":[["I_Dist_200_LN_1_LD_2_RN_3_RD_10_0.png","I_Dist_200_LN_1_LD_3_RN_2_RD_15_0.png","I_Dist_200_LN_3_LD_4_RN_11_RD_20_0.png","I_Dist_200_LN_4_LD_5_RN_6_RD_10_0.png","I_Dist_200_LN_4_LD_6_RN_14_RD_30_0.png","I_Dist_200_LN_7_LD_10_RN_12_RD_24_0.png","I_Dist_200_LN_7_LD_10_RN_14_RD_28_0.png","I_Dist_200_LN_7_LD_10_RN_8_RD_16_0.png"],["I_Dist_200_LN_11_LD_20_RN_3_RD_4_1.png","I_Dist_200_LN_14_LD_30_RN_12_RD_18_1.png","I_Dist_200_LN_14_LD_30_RN_6_RD_9_1.png","I_Dist_200_LN_3_LD_10_RN_1_RD_2_1.png","I_Dist_200_LN_4_LD_30_RN_1_RD_3_1.png","I_Dist_200_LN_6_LD_20_RN_3_RD_6_1.png","I_Dist_200_LN_7_LD_15_RN_4_RD_6_1.png","I_Dist_200_LN_7_LD_15_RN_6_RD_9_1.png","I_Dist_200_LN_9_LD_15_RN_8_RD_10_1.png"]],"dist200_S":[["E_Dist_200_LN_3_LD_6_RN_3_RD_10_0.png"],["E_Dist_200_LN_3_LD_10_RN_3_RD_6_1.png"]],"dist300_C":[["C_Dist_300_LN_11_LD_22_RN_1_RD_5_0.png","C_Dist_300_LN_11_LD_22_RN_2_RD_10_0.png","C_Dist_300_LN_11_LD_22_RN_4_RD_20_0.png","C_Dist_300_LN_12_LD_24_RN_2_RD_10_0.png","C_Dist_300_LN_18_LD_20_RN_9_RD_15_0.png","C_Dist_300_LN_20_LD_25_RN_13_RD_26_0.png","C_Dist_300_LN_20_LD_25_RN_14_RD_28_0.png","C_Dist_300_LN_20_LD_25_RN_5_RD_10_0.png","C_Dist_300_LN_20_LD_25_RN_8_RD_16_0.png","C_Dist_300_LN_20_LD_25_RN_9_RD_18_0.png","C_Dist_300_LN_24_LD_30_RN_2_RD_4_0.png","C_Dist_300_LN_24_LD_30_RN_8_RD_16_0.png","C_Dist_300_LN_3_LD_6_RN_2_RD_10_0.png","C_Dist_300_LN_4_LD_10_RN_1_RD_10_0.png","C_Dist_300_LN_4_LD_5_RN_2_RD_4_0.png","C_Dist_300_LN_8_LD_16_RN_1_RD_5_0.png","C_Dist_300_LN_9_LD_10_RN_3_RD_5_0.png"],["C_Dist_300_LN_1_LD_20_RN_7_RD_20_1.png","C_Dist_300_LN_1_LD_3_RN_19_RD_30_1.png","C_Dist_300_LN_1_LD_30_RN_8_RD_24_1.png","C_Dist_300_LN_1_LD_5_RN_11_RD_22_1.png","C_Dist_300_LN_1_LD_5_RN_3_RD_6_1.png","C_Dist_300_LN_1_LD_5_RN_6_RD_12_1.png","C_Dist_300_LN_2_LD_10_RN_12_RD_24_1.png","C_Dist_300_LN_2_LD_20_RN_10_RD_25_1.png","C_Dist_300_LN_3_LD_12_RN_11_RD_20_1.png","C_Dist_300_LN_3_LD_6_RN_4_RD_5_1.png","C_Dist_300_LN_4_LD_20_RN_13_RD_26_1.png","C_Dist_300_LN_5_LD_25_RN_6_RD_12_1.png","C_Dist_300_LN_5_LD_25_RN_7_RD_14_1.png","C_Dist_300_LN_7_LD_14_RN_20_RD_25_1.png","C_Dist_300_LN_8_LD_15_RN_10_RD_12_1.png"]],"dist300_I":[["I_Dist_300_LN_1_LD_2_RN_2_RD_10_0.png","I_Dist_300_LN_1_LD_2_RN_3_RD_15_0.png","I_Dist_300_LN_2_LD_4_RN_6_RD_30_0.png","I_Dist_300_LN_3_LD_6_RN_4_RD_20_0.png","I_Dist_300_LN_4_LD_5_RN_6_RD_12_0.png","I_Dist_300_LN_4_LD_5_RN_8_RD_16_0.png","I_Dist_300_LN_7_LD_10_RN_8_RD_20_0.png","I_Dist_300_LN_8_LD_10_RN_14_RD_28_0.png","I_Dist_300_LN_8_LD_10_RN_9_RD_18_0.png"],["I_Dist_300_LN_13_LD_26_RN_12_RD_15_1.png","I_Dist_300_LN_4_LD_20_RN_2_RD_4_1.png"]],"dist300_S":[["E_Dist_300_LN_9_LD_12_RN_9_RD_20_0.png"],["E_Dist_300_LN_18_LD_30_RN_18_RD_20_1.png","E_Dist_300_LN_3_LD_10_RN_3_RD_5_1.png","E_Dist_300_LN_9_LD_20_RN_9_RD_12_1.png"]],"dist500_C":[["C_Dist_500_LN_10_LD_13_RN_7_RD_26_0.png","C_Dist_500_LN_10_LD_15_RN_4_RD_24_0.png","C_Dist_500_LN_12_LD_16_RN_3_RD_12_0.png","C_Dist_500_LN_12_LD_18_RN_4_RD_24_0.png","C_Dist_500_LN_15_LD_18_RN_5_RD_15_0.png","C_Dist_500_LN_15_LD_20_RN_1_RD_4_0.png","C_Dist_500_LN_18_LD_27_RN_1_RD_6_0.png","C_Dist_500_LN_20_LD_24_RN_1_RD_3_0.png","C_Dist_500_LN_20_LD_24_RN_3_RD_9_0.png","C_Dist_500_LN_20_LD_24_RN_7_RD_21_0.png","C_Dist_500_LN_20_LD_28_RN_3_RD_14_0.png","C_Dist_500_LN_21_LD_28_RN_6_RD_24_0.png","C_Dist_500_LN_22_LD_28_RN_2_RD_7_0.png","C_Dist_500_LN_25_LD_30_RN_9_RD_27_0.png","C_Dist_500_LN_4_LD_6_RN_1_RD_6_0.png","C_Dist_500_LN_5_LD_6_RN_2_RD_6_0.png","C_Dist_500_LN_6_LD_9_RN_1_RD_6_0.png","C_Dist_500_LN_7_LD_10_RN_1_RD_5_0.png","C_Dist_500_LN_8_LD_12_RN_1_RD_6_0.png","C_Dist_500_LN_8_LD_12_RN_4_RD_24_0.png"],["C_Dist_500_LN_1_LD_4_RN_12_RD_16_1.png","C_Dist_500_LN_1_LD_4_RN_9_RD_12_1.png","C_Dist_500_LN_1_LD_9_RN_11_RD_18_1.png","C_Dist_500_LN_10_LD_24_RN_22_RD_24_1.png","C_Dist_500_LN_2_LD_12_RN_10_RD_15_1.png","C_Dist_500_LN_2_LD_12_RN_12_RD_18_1.png","C_Dist_500_LN_2_LD_12_RN_4_RD_6_1.png","C_Dist_500_LN_2_LD_24_RN_7_RD_12_1.png","C_Dist_500_LN_2_LD_5_RN_18_RD_20_1.png","C_Dist_500_LN_2_LD_5_RN_9_RD_10_1.png","C_Dist_500_LN_2_LD_8_RN_12_RD_16_1.png","C_Dist_500_LN_2_LD_8_RN_21_RD_28_1.png","C_Dist_500_LN_3_LD_10_RN_4_RD_5_1.png","C_Dist_500_LN_3_LD_12_RN_15_RD_20_1.png","C_Dist_500_LN_3_LD_30_RN_6_RD_10_1.png","C_Dist_500_LN_3_LD_8_RN_14_RD_16_1.png","C_Dist_500_LN_4_LD_16_RN_15_RD_20_1.png","C_Dist_500_LN_4_LD_24_RN_12_RD_18_1.png","C_Dist_500_LN_5_LD_14_RN_6_RD_7_1.png","C_Dist_500_LN_7_LD_21_RN_20_RD_24_1.png","C_Dist_500_LN_7_LD_28_RN_12_RD_16_1.png","C_Dist_500_LN_7_LD_28_RN_9_RD_12_1.png","C_Dist_500_LN_9_LD_27_RN_20_RD_24_1.png"]],"dist500_I":[["I_Dist_500_LN_2_LD_3_RN_4_RD_24_0.png","I_Dist_500_LN_5_LD_6_RN_6_RD_18_0.png","I_Dist_500_LN_7_LD_8_RN_9_RD_24_0.png"],["I_Dist_500_LN_7_LD_21_RN_5_RD_6_1.png"]],"dist500_S":[["E_Dist_500_LN_6_LD_8_RN_6_RD_24_0.png"],["E_Dist_500_LN_2_LD_12_RN_2_RD_3_1.png","E_Dist_500_LN_6_LD_24_RN_6_RD_8_1.png"]]}},{"start_time":1552327753566,"click_time":1552327755989,"finger_time":1552327755167,"fix_duration":937.4700064328138,"trial":1,"RT":1601,"MT":822,"sideResp":1,"stimulus":[],"xmouse":[783,783,783,783,783,783,783,783,783,783,783,783,783,783,783,783,783,783,783,783,783,783,783,783,783,783,783,783,783,783,783,783,783,783,783,783,783,783,783,783,783,783,783,783,783,783,783,783,783,783,783,783,783,783,783,783,783,783,783,783,783,783,783,783,783,783,783,783,783,783,783,783,783,783,783,783,783,783,783,784,788,788,788,792,793,793,793,793,793,793,787,775,762,738,669,613,560,508,438,386,376,375,375,375,375,375,375,378,387,394,397,400,404,411,424,432,437,439,441,442,449,469],"ymouse":[597,597,597,597,597,597,597,597,597,597,597,597,597,597,597,597,597,597,597,597,597,597,597,597,597,597,597,597,597,597,597,597,597,597,597,597,597,597,597,597,597,597,597,597,597,597,597,597,597,597,597,597,597,597,597,597,597,597,597,597,597,597,597,597,597,597,597,597,597,597,597,597,597,597,597,597,597,597,593,585,564,557,557,538,523,515,510,508,508,507,496,477,460,435,365,319,277,243,197,158,150,149,149,148,143,132,117,99,65,44,38,34,29,23,10,0,0,0,0,0,0,11],"timestamp_mouse":[13,25,43,62,82,102,123,141,162,183,201,223,243,262,283,303,321,341,362,382,403,421,441,462,482,503,521,542,562,582,601,621,643,662,682,702,722,742,763,783,802,822,843,862,882,901,923,941,961,982,1001,1021,1042,1063,1082,1103,1122,1142,1163,1183,1201,1221,1243,1262,1282,1303,1322,1341,1362,1383,1402,1422,1443,1463,1483,1502,1522,1542,1563,1581,1601,1623,1643,1662,1682,1702,1721,1742,1762,1783,1801,1823,1842,1863,1882,1902,1923,1942,1962,1982,2002,2022,2042,2062,2081,2102,2123,2142,2162,2182,2202,2223,2242,2262,2282,2302,2322,2343,2362,2382,2402,2423],"xSR":741.5,"ySR":573.95,"xT1":424.9,"yT1":0,"xT2":1058.1,"yT2":0,"toosoon":0,"cond_shown":"Congruent","ratio_trial":300,"L_num":12,"L_den":24,"R_num":2,"R_den":10,"correct_side":1,"subjID":"MariaPaulaLeguizamon33","gender":"1","school":"4","age":"9"},{"start_time":1552327758149,"click_time":1552327760309,"finger_time":1552327759829,"fix_duration":1099.4559040009383,"trial":2,"RT":1680,"MT":480,"sideResp":2,"stimulus":[],"xmouse":[764,764,764,764,764,764,764,764,764,764,764,764,764,764,764,764,764,764,764,764,764,764,764,764,764,764,764,764,764,764,764,764,764,764,764,764,764,764,764,764,764,764,764,764,764,764,764,764,764,764,764,764,764,764,764,764,764,764,764,764,764,764,764,764,764,764,764,764,764,764,764,764,764,764,764,764,764,764,764,764,777,789,799,805,810,823,827,828,833,834,839,847,859,880,913,1007,1053,1081,1092,1094,1096,1097,1099,1100,1106,1121,1127,1136,1139],"ymouse":[603,603,603,603,603,603,603,603,603,603,603,603,603,603,603,603,603,603,603,603,603,603,603,603,603,603,603,603,603,603,603,603,603,603,603,603,603,603,603,603,603,603,603,603,603,603,603,603,603,603,603,603,603,603,603,603,603,603,603,603,603,603,603,603,603,603,603,603,603,603,603,603,603,603,603,603,603,603,603,603,600,594,589,578,563,530,520,517,510,508,502,494,482,464,435,342,293,257,237,225,217,209,202,197,187,154,130,101,80],"timestamp_mouse":[1,20,40,58,79,100,120,139,160,180,200,220,240,258,280,299,320,338,360,380,399,419,438,460,479,500,520,540,560,579,600,620,638,658,680,700,720,740,759,780,799,819,840,859,880,900,920,938,960,980,999,1020,1039,1058,1078,1100,1119,1139,1160,1178,1200,1218,1239,1260,1279,1298,1320,1340,1359,1379,1399,1420,1439,1460,1479,1500,1520,1540,1559,1579,1599,1619,1638,1659,1680,1699,1718,1739,1759,1780,1799,1820,1839,1859,1879,1899,1920,1940,1960,1980,1999,2019,2039,2059,2079,2099,2120,2140,2160],"xSR":741.5,"ySR":573.95,"xT1":424.9,"yT1":0,"xT2":1058.1,"yT2":0,"toosoon":0,"cond_shown":"Incongruent","ratio_trial":100,"L_num":11,"L_den":22,"R_num":9,"R_den":15,"correct_side":2,"subjID":"MariaPaulaLeguizamon33","gender":"1","school":"4","age":"9"},{"start_time":1552327762160,"click_time":1552327763968,"finger_time":1552327763548,"fix_duration":250,"trial":3,"RT":1388,"MT":420,"sideResp":1,"stimulus":[],"xmouse":[826,826,826,826,826,826,826,826,826,826,826,826,826,826,826,826,826,826,826,826,826,826,825,825,825,825,825,825,825,825,825,825,825,825,825,825,825,825,825,825,825,825,825,825,825,825,825,825,825,825,825,825,825,825,825,825,825,825,825,825,825,825,825,825,825,825,825,825,822,793,761,732,704,675,640,631,620,615,607,577,566,550,543,536,534,534,534,534,534,529,523],"ymouse":[587,587,587,587,587,587,587,587,587,587,587,587,587,587,587,587,587,588,588,588,588,588,588,588,588,588,588,588,588,588,588,588,588,588,588,588,588,588,588,588,588,588,588,588,588,588,588,588,588,588,588,588,588,588,588,588,588,588,588,588,588,588,588,588,588,588,588,588,587,554,528,502,477,452,416,402,381,369,348,276,250,213,183,163,148,147,147,144,138,108,84],"timestamp_mouse":[10,34,48,69,89,108,127,153,169,189,208,228,248,269,289,308,328,349,369,389,408,429,447,468,487,509,529,548,568,589,607,629,649,668,687,709,729,748,769,787,809,828,848,869,888,909,927,948,967,988,1008,1027,1048,1069,1089,1107,1127,1148,1169,1187,1209,1227,1248,1268,1288,1308,1329,1348,1368,1388,1408,1428,1448,1469,1488,1507,1529,1549,1568,1588,1607,1628,1648,1669,1688,1707,1728,1748,1768,1788,1808],"xSR":741.5,"ySR":573.95,"xT1":424.9,"yT1":0,"xT2":1058.1,"yT2":0,"toosoon":0,"cond_shown":"Incongruent","ratio_trial":300,"L_num":4,"L_den":5,"R_num":6,"R_den":12,"correct_side":1,"subjID":"MariaPaulaLeguizamon33","gender":"1","school":"4","age":"9"},{"start_time":1552327765777,"click_time":1552327767688,"finger_time":1552327767249,"fix_duration":348.70659954647056,"trial":4,"RT":1472,"MT":439,"sideResp":1,"stimulus":[],"xmouse":[795,795,795,795,795,795,795,795,795,795,795,795,795,795,795,795,795,795,795,795,795,795,795,795,795,795,795,795,795,795,795,795,795,795,795,795,795,795,795,795,795,795,795,795,795,795,795,795,795,795,795,795,795,795,795,795,795,795,795,795,795,795,795,795,795,795,795,795,795,795,796,796,791,777,743,724,698,667,635,581,556,532,513,490,489,489,489,489,489,489,489,489,489,494,502,505],"ymouse":[614,614,614,614,614,614,614,614,614,614,614,614,614,614,614,614,614,614,614,614,614,614,614,614,614,614,614,614,614,614,614,614,614,614,614,614,614,614,614,614,614,614,614,614,614,614,614,614,614,614,614,614,614,614,614,614,614,614,614,614,614,614,614,614,614,614,614,614,614,614,611,607,595,567,518,484,448,406,362,291,259,230,208,173,169,168,168,168,168,168,168,167,162,146,108,85],"timestamp_mouse":[11,35,51,72,91,111,132,151,171,191,212,232,252,272,291,311,332,351,371,391,412,432,452,472,492,511,532,551,571,591,612,632,652,671,692,711,731,752,772,792,811,832,852,871,891,912,932,951,972,991,1011,1032,1051,1072,1091,1111,1132,1151,1171,1191,1211,1232,1251,1271,1291,1313,1331,1352,1372,1391,1412,1431,1452,1472,1491,1511,1532,1552,1571,1591,1611,1631,1651,1672,1691,1711,1731,1751,1772,1792,1811,1831,1851,1871,1891,1911],"xSR":741.5,"ySR":573.95,"xT1":424.9,"yT1":0,"xT2":1058.1,"yT2":0,"toosoon":0,"cond_shown":"Incongruent","ratio_trial":100,"L_num":9,"L_den":10,"R_num":20,"R_den":25,"correct_side":1,"subjID":"MariaPaulaLeguizamon33","gender":"1","school":"4","age":"9"},{"start_time":1552327772527,"click_time":1552327774748,"finger_time":1552327773988,"fix_duration":1297.1242743071384,"trial":5,"RT":1461,"MT":760,"sideResp":1,"stimulus":[],"xmouse":[817,817,817,817,817,817,817,817,817,817,817,817,817,817,817,817,817,817,817,817,817,817,817,817,817,817,817,817,817,817,817,817,817,817,817,817,817,817,817,817,817,817,817,817,817,817,817,817,817,817,817,817,817,817,817,817,817,817,817,817,817,817,817,817,817,817,817,817,817,817,817,817,817,817,817,825,833,841,848,855,862,868,872,875,876,876,876,876,876,876,876,876,876,876,876,876,876,876,868,862,855,842,838,828,827,825,822,780,719,661,603,503],"ymouse":[618,618,618,618,618,618,618,618,618,618,618,618,618,618,618,618,618,618,618,618,618,618,618,618,618,618,618,618,618,618,618,618,618,618,618,618,618,618,618,618,618,618,618,618,618,618,618,618,618,618,618,618,618,618,618,618,618,618,618,618,618,618,618,618,618,618,618,618,618,618,618,618,613,554,504,447,393,314,285,262,244,231,224,220,219,219,219,219,219,219,219,219,219,219,219,219,218,218,216,216,216,216,216,213,212,210,205,184,153,119,92,40],"timestamp_mouse":[9,22,45,62,81,102,122,142,161,182,201,222,241,261,282,302,321,342,361,382,402,421,442,462,482,502,521,542,561,581,602,622,642,662,681,702,721,741,762,782,802,822,842,862,882,901,921,941,961,982,1002,1021,1041,1061,1082,1102,1122,1141,1161,1182,1201,1221,1242,1261,1281,1302,1321,1342,1362,1381,1402,1421,1442,1461,1481,1501,1522,1542,1561,1582,1602,1621,1641,1662,1681,1702,1721,1741,1761,1782,1801,1822,1843,1861,1881,1902,1921,1942,1961,1982,2001,2021,2041,2061,2080,2102,2121,2142,2161,2181,2201,2221],"xSR":741.5,"ySR":573.95,"xT1":424.9,"yT1":0,"xT2":1058.1,"yT2":0,"toosoon":0,"cond_shown":"Congruent","ratio_trial":100,"L_num":9,"L_den":15,"R_num":8,"R_den":16,"correct_side":1,"subjID":"MariaPaulaLeguizamon33","gender":"1","school":"4","age":"9"},{"start_time":1552327779328,"click_time":1552327782128,"finger_time":1552327781649,"fix_duration":1078.7516297501336,"trial":6,"RT":2321,"MT":479,"sideResp":1,"stimulus":[],"xmouse":[785,785,785,785,785,785,785,785,785,785,785,785,785,785,785,785,785,785,785,785,785,785,785,785,785,785,785,785,785,785,785,785,785,785,785,785,785,785,785,785,785,785,785,785,785,785,785,785,785,785,785,785,785,785,785,785,785,785,785,785,785,785,785,785,785,785,785,785,785,785,785,785,785,785,785,785,785,785,785,785,785,785,785,785,785,785,785,785,785,785,785,785,785,785,785,785,785,785,785,785,785,785,785,785,785,785,785,785,785,785,785,785,785,783,770,757,741,724,692,679,665,650,636,620,588,568,546,523,494,444,434,433,432,432,432,433,438,443,452,456,461],"ymouse":[645,645,645,645,645,645,645,645,645,645,645,645,645,645,645,645,645,645,645,645,645,645,645,645,645,645,645,645,645,645,645,645,645,645,645,645,645,645,645,645,645,645,645,645,645,645,645,645,645,645,645,645,645,645,645,645,645,645,645,645,645,645,645,645,645,645,645,645,645,645,645,645,645,645,645,645,645,645,645,645,645,645,645,645,645,645,645,645,645,645,645,645,645,645,645,645,645,645,645,645,645,645,645,645,645,645,645,645,645,645,645,645,645,642,630,619,606,592,556,538,520,501,481,462,422,399,373,346,318,269,257,252,248,247,237,226,210,190,138,103,84],"timestamp_mouse":[10,20,41,60,81,101,121,140,160,181,200,221,240,261,281,301,320,341,361,381,401,420,441,461,480,501,521,540,560,581,601,621,640,660,681,701,721,740,760,780,801,821,841,861,881,901,921,940,961,981,1000,1020,1040,1060,1080,1100,1120,1141,1160,1181,1202,1220,1241,1260,1280,1300,1320,1341,1361,1381,1400,1421,1440,1461,1480,1500,1521,1540,1560,1581,1601,1621,1641,1660,1681,1701,1720,1741,1760,1780,1801,1821,1840,1861,1880,1901,1921,1941,1960,1981,2001,2020,2041,2060,2081,2100,2121,2141,2161,2181,2201,2222,2241,2261,2281,2300,2321,2340,2361,2380,2400,2420,2441,2460,2480,2501,2521,2541,2561,2580,2600,2621,2641,2661,2680,2700,2720,2740,2761,2780,2800],"xSR":741.5,"ySR":573.95,"xT1":424.9,"yT1":0,"xT2":1058.1,"yT2":0,"toosoon":0,"cond_shown":"Congruent","ratio_trial":300,"L_num":11,"L_den":22,"R_num":1,"R_den":5,"correct_side":1,"subjID":"MariaPaulaLeguizamon33","gender":"1","school":"4","age":"9"},{"start_time":1552327784379,"click_time":1552327786229,"finger_time":1552327785968,"fix_duration":328.5199520727871,"trial":7,"RT":1589,"MT":261,"sideResp":2,"stimulus":[],"xmouse":[808,808,808,808,808,808,808,809,813,815,815,815,815,815,815,815,815,815,815,815,815,815,815,815,815,815,815,815,815,815,815,815,815,815,815,815,815,815,815,815,815,815,815,815,815,815,815,815,815,815,815,815,815,815,815,815,815,815,815,815,815,815,815,815,815,815,815,815,815,815,815,815,815,815,815,817,820,823,825,827,829,833,836,838,846,854,889,916,950,983,1008,1052,1067],"ymouse":[637,637,637,637,637,637,637,633,631,630,630,630,630,630,630,630,630,630,630,630,630,630,630,630,630,630,630,630,630,630,630,630,630,630,630,630,630,630,630,630,630,630,630,630,630,630,630,630,630,630,630,630,630,630,630,630,630,630,630,630,630,630,630,630,630,630,630,630,630,630,630,630,630,630,630,628,609,595,581,566,550,519,505,490,465,439,355,297,239,190,143,54,19],"timestamp_mouse":[11,41,49,69,90,110,129,149,170,190,209,229,249,269,290,309,330,349,370,389,410,430,449,470,489,509,529,550,570,590,610,629,650,669,690,709,729,749,770,789,810,830,850,870,890,909,930,949,969,990,1010,1030,1050,1070,1089,1109,1130,1149,1170,1190,1210,1230,1249,1270,1289,1309,1330,1350,1369,1390,1409,1429,1449,1470,1489,1510,1529,1549,1570,1589,1610,1629,1650,1669,1690,1710,1729,1750,1769,1790,1810,1829,1850],"xSR":741.5,"ySR":573.95,"xT1":424.9,"yT1":0,"xT2":1058.1,"yT2":0,"toosoon":0,"cond_shown":"Congruent","ratio_trial":200,"L_num":3,"L_den":12,"R_num":9,"R_den":20,"correct_side":2,"subjID":"MariaPaulaLeguizamon33","gender":"1","school":"4","age":"9"},{"start_time":1552327788461,"click_time":1552327790650,"finger_time":1552327789928,"fix_duration":250,"trial":8,"RT":1467,"MT":722,"sideResp":1,"stimulus":[],"xmouse":[822,822,822,822,822,822,822,822,822,822,822,822,822,822,822,822,822,822,822,822,822,822,822,822,822,822,822,822,822,822,822,822,822,822,822,822,822,822,822,822,822,822,822,822,822,822,822,822,822,822,822,822,822,822,822,822,822,822,822,822,822,822,822,822,822,822,822,822,822,822,822,822,814,806,796,785,770,754,729,720,711,705,695,673,665,660,655,645,641,637,630,626,619,608,602,596,591,585,582,582,582,582,582,580,577,572,560,544,526,524],"ymouse":[590,590,590,590,590,590,590,590,590,590,590,590,590,590,590,590,590,590,590,590,590,590,590,590,590,590,590,590,590,590,590,590,590,590,590,590,590,590,590,590,590,590,590,590,590,590,590,590,590,590,590,590,590,590,590,590,590,590,590,590,590,590,590,590,590,590,590,590,590,590,590,590,581,570,557,546,530,511,475,457,440,427,405,359,341,327,308,255,231,209,188,168,149,110,101,89,77,64,59,59,59,59,59,59,59,59,61,61,61,61],"timestamp_mouse":[11,31,47,68,87,107,128,147,168,188,206,228,248,267,288,307,327,347,368,388,408,428,447,468,487,508,527,548,568,588,607,627,648,667,688,708,727,748,767,787,808,828,847,868,887,908,927,947,968,987,1008,1028,1047,1067,1088,1108,1127,1147,1168,1188,1208,1227,1248,1268,1288,1307,1327,1348,1368,1387,1408,1427,1448,1467,1488,1507,1528,1547,1567,1588,1608,1627,1647,1667,1687,1708,1727,1748,1767,1788,1807,1827,1847,1867,1888,1908,1928,1947,1967,1987,2007,2027,2047,2067,2087,2107,2127,2148,2167,2188],"xSR":741.5,"ySR":573.95,"xT1":424.9,"yT1":0,"xT2":1058.1,"yT2":0,"toosoon":0,"cond_shown":"Incongruent","ratio_trial":300,"L_num":2,"L_den":4,"R_num":6,"R_den":30,"correct_side":1,"subjID":"MariaPaulaLeguizamon33","gender":"1","school":"4","age":"9"},{"start_time":1552327794989,"click_time":1552327797710,"finger_time":1552327797188,"fix_duration":499.457870935891,"trial":9,"RT":2199,"MT":522,"sideResp":2,"stimulus":[],"xmouse":[751,751,751,751,751,751,751,751,751,751,751,751,751,751,751,751,751,751,751,751,751,751,751,751,751,751,751,751,751,751,751,751,751,751,751,751,751,751,751,751,751,751,751,751,751,751,751,751,751,751,751,751,751,751,751,751,751,751,751,751,751,751,751,751,751,751,751,751,751,751,751,751,751,751,751,751,751,751,751,751,751,751,751,751,751,751,751,751,751,751,751,751,751,750,750,750,750,750,750,750,752,753,753,755,755,757,762,767,778,793,806,823,845,852,860,864,879,895,908,919,930,944,950,956,961,968,986,999,1006,1012,1019,1034,1041,1046,1054,1060],"ymouse":[650,650,650,650,650,650,650,650,650,650,650,650,650,650,650,650,650,650,650,650,650,650,650,650,650,650,650,650,650,650,650,650,650,650,650,650,650,650,650,650,650,650,650,650,650,650,650,650,650,650,650,650,650,650,650,650,650,650,650,650,650,650,650,650,650,650,650,650,650,650,650,650,650,650,650,650,650,650,650,650,650,650,650,650,650,650,650,650,650,650,650,649,647,645,643,642,638,635,630,627,622,619,617,615,614,611,603,595,580,567,552,536,503,489,476,467,444,422,404,387,367,332,313,295,277,256,213,183,167,153,138,113,100,88,71,51],"timestamp_mouse":[19,39,59,79,99,120,139,159,179,200,220,240,259,280,299,320,340,360,380,400,420,439,459,480,500,519,540,559,579,599,619,640,659,680,699,720,740,760,780,800,819,840,859,879,899,919,940,960,979,999,1020,1039,1059,1079,1099,1120,1139,1159,1179,1200,1219,1240,1259,1279,1301,1320,1340,1359,1380,1400,1419,1440,1460,1479,1500,1519,1539,1560,1580,1599,1620,1640,1660,1679,1700,1719,1739,1760,1779,1800,1820,1839,1859,1880,1900,1919,1939,1959,1979,2000,2019,2039,2059,2080,2100,2119,2139,2160,2179,2199,2220,2239,2259,2279,2299,2319,2339,2359,2379,2399,2419,2439,2459,2480,2499,2520,2539,2559,2579,2599,2619,2639,2659,2680,2699,2721],"xSR":741.5,"ySR":573.95,"xT1":424.9,"yT1":0,"xT2":1058.1,"yT2":0,"toosoon":0,"cond_shown":"Congruent","ratio_trial":100,"L_num":3,"L_den":20,"R_num":4,"R_den":16,"correct_side":2,"subjID":"MariaPaulaLeguizamon33","gender":"1","school":"4","age":"9"},{"start_time":1552327803621,"click_time":1552327805888,"finger_time":1552327805289,"fix_duration":1430.638614716916,"trial":10,"RT":1668,"MT":599,"sideResp":2,"stimulus":[],"xmouse":[819,819,819,819,819,819,819,819,819,819,819,819,819,819,819,819,819,819,819,819,819,819,819,819,819,819,819,819,819,819,819,819,819,819,819,819,819,819,819,819,819,819,819,819,819,819,819,819,819,819,819,819,819,819,819,819,819,819,819,819,819,819,819,819,819,819,819,819,819,819,819,819,819,819,819,819,819,819,819,819,819,819,831,842,874,900,950,971,986,997,1013,1049,1087,1116,1144,1173,1222,1234,1239,1243,1243,1246,1259,1267,1284,1306,1389,1428,1451,1450,1408,1263,1163,1110],"ymouse":[625,625,625,625,625,625,625,625,625,625,625,625,625,625,625,625,625,625,625,625,625,625,625,625,625,625,625,625,625,625,625,625,625,625,625,625,625,625,625,625,625,625,625,625,625,625,625,625,625,625,625,625,625,625,625,625,625,625,625,625,625,625,625,625,625,625,625,625,625,625,625,625,625,625,625,625,625,625,625,625,625,625,629,631,642,652,669,674,676,677,674,662,644,628,610,582,506,470,434,411,386,342,299,269,224,158,0,0,0,0,0,0,0,4],"timestamp_mouse":[17,38,47,67,87,107,128,148,168,187,208,227,247,267,287,308,327,347,368,387,407,428,448,468,488,508,527,548,567,588,608,627,647,667,688,707,727,747,768,789,807,827,847,868,887,907,928,948,967,987,1007,1027,1048,1068,1088,1108,1127,1147,1168,1187,1208,1228,1248,1267,1288,1308,1328,1348,1368,1387,1408,1428,1448,1467,1488,1507,1527,1548,1568,1588,1608,1627,1647,1668,1688,1707,1727,1747,1768,1788,1818,1827,1847,1867,1887,1907,1927,1948,1968,1988,2007,2027,2047,2067,2087,2107,2128,2149,2167,2187,2208,2227,2247,2267],"xSR":741.5,"ySR":573.95,"xT1":424.9,"yT1":0,"xT2":1058.1,"yT2":0,"toosoon":0,"cond_shown":"Congruent","ratio_trial":200,"L_num":5,"L_den":10,"R_num":14,"R_den":20,"correct_side":2,"subjID":"MariaPaulaLeguizamon33","gender":"1","school":"4","age":"9"},{"start_time":1552327810581,"click_time":1552327812248,"finger_time":1552327811949,"fix_duration":450.38658142130714,"trial":11,"RT":1368,"MT":299,"sideResp":1,"stimulus":[],"xmouse":[807,807,807,807,807,807,807,807,807,807,807,807,807,807,807,807,807,807,807,807,807,807,807,807,807,807,807,807,807,807,807,807,807,807,807,807,807,807,807,807,807,807,807,807,807,807,807,807,807,807,807,807,807,807,807,807,807,807,807,807,807,807,807,807,807,804,793,781,763,726,710,695,674,648,611,589,571,557,543,514,496,491,481,473],"ymouse":[627,627,627,627,627,627,627,627,627,627,627,627,627,627,627,627,627,627,627,627,627,627,627,627,627,627,627,627,627,627,627,627,627,627,627,627,627,627,627,627,627,627,627,627,627,627,627,627,627,627,627,627,627,627,627,627,627,627,627,627,627,627,627,627,625,616,602,589,571,527,500,462,412,346,276,243,220,199,181,149,128,122,110,99],"timestamp_mouse":[10,33,47,68,87,107,127,148,168,188,207,227,248,268,288,308,328,348,368,388,408,428,448,468,488,507,528,547,567,588,607,628,647,668,688,707,728,748,768,788,808,826,848,868,888,908,927,948,968,988,1008,1028,1048,1068,1088,1107,1128,1148,1167,1188,1207,1228,1247,1268,1287,1307,1327,1348,1368,1388,1407,1427,1448,1468,1487,1507,1527,1547,1567,1587,1608,1627,1647,1667],"xSR":741.5,"ySR":573.95,"xT1":424.9,"yT1":0,"xT2":1058.1,"yT2":0,"toosoon":0,"cond_shown":"Incongruent","ratio_trial":100,"L_num":2,"L_den":4,"R_num":8,"R_den":20,"correct_side":1,"subjID":"MariaPaulaLeguizamon33","gender":"1","school":"4","age":"9"},{"start_time":1552327814280,"click_time":1552327816268,"finger_time":1552327815868,"fix_duration":250,"trial":12,"RT":1588,"MT":400,"sideResp":1,"stimulus":[],"xmouse":[778,778,778,778,778,778,778,778,778,778,778,778,778,778,778,778,778,778,778,778,778,778,778,778,778,778,778,778,778,778,778,778,778,778,778,778,778,778,778,778,778,778,778,778,778,778,778,778,778,778,778,778,778,778,778,778,778,778,778,778,778,778,778,778,778,778,778,778,778,778,778,778,778,778,778,778,779,766,746,723,716,711,709,707,705,700,696,691,684,663,652,642,629,618,594,582,569,557,541,523],"ymouse":[634,634,634,634,634,634,634,634,634,634,634,634,634,634,634,634,634,634,634,634,634,634,634,634,634,634,634,634,634,634,634,634,634,634,634,634,634,634,634,634,634,634,634,634,634,634,634,634,634,634,634,634,634,634,634,634,634,634,634,634,634,634,634,634,634,634,634,634,634,634,634,634,634,634,634,634,634,624,610,586,576,564,554,542,528,495,474,456,440,397,374,352,326,301,232,201,166,137,105,64],"timestamp_mouse":[10,32,49,69,89,108,128,149,169,189,208,229,249,268,289,308,329,349,369,389,409,428,449,469,489,508,528,549,567,588,608,628,648,668,689,708,729,749,768,788,808,828,849,868,889,909,929,948,969,989,1008,1029,1048,1068,1088,1108,1129,1149,1168,1187,1208,1229,1249,1269,1288,1308,1328,1349,1368,1388,1407,1428,1448,1467,1489,1509,1528,1548,1569,1588,1608,1629,1648,1670,1689,1708,1728,1748,1768,1788,1809,1828,1849,1868,1889,1908,1929,1949,1968,1988],"xSR":741.5,"ySR":573.95,"xT1":424.9,"yT1":0,"xT2":1058.1,"yT2":0,"toosoon":0,"cond_shown":"Congruent","ratio_trial":200,"L_num":8,"L_den":15,"R_num":3,"R_den":9,"correct_side":1,"subjID":"MariaPaulaLeguizamon33","gender":"1","school":"4","age":"9"},{"start_time":1552327818750,"click_time":1552327819968,"finger_time":1552327819788,"fix_duration":1199.534951268428,"trial":13,"RT":1038,"MT":180,"sideResp":1,"stimulus":[],"xmouse":[805,805,805,805,805,805,805,805,805,805,805,805,805,805,805,805,805,805,805,805,805,805,805,805,805,805,805,805,805,805,805,805,805,805,805,805,805,805,805,805,805,805,805,805,805,805,805,805,805,805,804,793,784,767,743,711,631,596,557,528,500],"ymouse":[654,654,654,654,654,654,654,654,654,654,654,654,654,654,654,654,654,654,654,654,654,654,654,654,654,654,654,654,654,654,654,654,654,654,654,654,654,654,654,654,654,654,654,654,654,654,654,649,645,637,622,561,526,488,439,380,247,183,121,71,9],"timestamp_mouse":[19,38,58,78,99,118,139,159,178,198,219,238,258,279,298,319,338,358,379,398,418,438,458,479,498,519,538,558,579,598,618,638,659,679,699,718,738,759,779,800,819,839,858,878,899,919,938,959,978,998,1019,1038,1059,1079,1099,1119,1138,1158,1178,1198,1218],"xSR":741.5,"ySR":573.95,"xT1":424.9,"yT1":0,"xT2":1058.1,"yT2":0,"toosoon":0,"cond_shown":"Incongruent","ratio_trial":300,"L_num":2,"L_den":4,"R_num":6,"R_den":30,"correct_side":1,"subjID":"MariaPaulaLeguizamon33","gender":"1","school":"4","age":"9"},{"start_time":1552327824006,"click_time":1552327825689,"finger_time":1552327825509,"fix_duration":775.0140392149924,"trial":14,"RT":1503,"MT":180,"sideResp":1,"stimulus":[],"xmouse":[772,772,772,772,772,772,772,772,772,772,772,772,772,772,772,772,772,772,772,772,772,772,772,772,772,772,772,772,772,772,772,772,772,772,772,772,772,772,772,772,772,772,772,772,772,772,772,772,772,772,772,772,772,772,772,772,772,772,772,772,772,772,772,772,772,772,772,772,772,772,772,770,769,761,746,703,677,654,632,601,585,567,541,512,445],"ymouse":[621,621,621,621,621,621,621,621,621,621,621,621,621,621,621,621,621,621,621,621,621,621,621,621,621,621,621,621,621,621,621,621,621,621,621,621,621,621,621,621,621,621,621,621,621,621,621,621,621,621,621,621,621,621,621,621,621,621,621,621,621,621,621,621,621,621,621,621,621,621,621,621,619,612,598,550,518,480,443,339,287,230,171,118,23],"timestamp_mouse":[11,29,42,61,82,103,123,142,163,183,203,223,243,262,283,302,323,341,363,383,403,423,443,462,482,503,522,543,563,582,603,623,642,663,683,703,723,743,763,782,803,821,842,863,883,902,922,942,962,983,1002,1022,1043,1062,1083,1103,1122,1142,1163,1183,1203,1223,1242,1262,1283,1302,1323,1343,1363,1382,1402,1422,1442,1463,1482,1503,1522,1543,1563,1583,1602,1622,1642,1663,1683],"xSR":741.5,"ySR":573.95,"xT1":424.9,"yT1":0,"xT2":1058.1,"yT2":0,"toosoon":0,"cond_shown":"Incongruent","ratio_trial":200,"L_num":1,"L_den":2,"R_num":3,"R_den":10,"correct_side":1,"subjID":"MariaPaulaLeguizamon33","gender":"1","school":"4","age":"9"},{"start_time":1552327828952,"click_time":1552327830608,"finger_time":1552327830448,"fix_duration":1322.4775615940425,"trial":15,"RT":1496,"MT":160,"sideResp":1,"stimulus":[],"xmouse":[790,790,790,790,790,790,790,790,790,790,790,790,790,790,790,790,790,790,790,790,790,790,790,790,790,790,790,790,790,790,790,790,790,790,790,790,790,790,790,790,790,790,790,790,790,790,790,790,790,790,790,790,790,790,790,790,790,790,790,790,790,790,790,790,790,790,790,790,790,789,788,786,778,771,755,736,713,671,643,617,582,543,471],"ymouse":[643,643,643,643,643,643,643,643,643,643,643,643,643,643,643,643,643,643,643,643,643,643,643,643,643,643,643,643,643,643,643,643,643,643,643,643,643,643,643,643,643,643,643,643,643,643,643,643,643,643,643,643,643,643,643,643,643,643,643,643,643,643,643,643,643,643,643,643,643,636,632,625,606,591,563,540,509,448,404,359,298,229,59],"timestamp_mouse":[17,36,56,76,97,116,136,156,176,196,217,236,257,276,297,318,337,356,376,397,418,437,457,478,498,517,536,557,577,597,617,637,657,676,696,716,736,757,776,796,816,836,857,876,896,916,937,957,976,996,1016,1036,1056,1078,1097,1116,1136,1157,1177,1196,1217,1237,1257,1278,1297,1317,1336,1357,1376,1397,1417,1437,1456,1476,1496,1516,1537,1556,1576,1597,1616,1638,1656],"xSR":741.5,"ySR":573.95,"xT1":424.9,"yT1":0,"xT2":1058.1,"yT2":0,"toosoon":0,"cond_shown":"Congruent","ratio_trial":200,"L_num":16,"L_den":20,"R_num":12,"R_den":20,"correct_side":1,"subjID":"MariaPaulaLeguizamon33","gender":"1","school":"4","age":"9"},{"start_time":1552327832247,"click_time":1552327834609,"finger_time":1552327833928,"fix_duration":397.2242741667835,"trial":16,"RT":1681,"MT":681,"sideResp":2,"stimulus":[],"xmouse":[794,794,794,794,794,794,794,794,794,794,794,794,794,794,794,794,794,794,794,794,794,795,795,798,798,798,798,798,798,798,798,798,798,798,798,798,798,798,798,798,798,798,798,798,798,798,798,798,798,798,798,798,798,798,798,798,798,798,798,798,798,798,798,798,798,798,798,798,798,798,798,798,798,798,798,798,798,798,798,798,798,798,798,799,803,809,818,829,841,878,900,920,937,957,967,978,993,1006,1016,1031,1031,1031,1031,1031,1031,1031,1031,1031,1031,1032,1033,1038,1042,1046,1052,1056,1059,1066,1076],"ymouse":[616,616,616,616,616,616,616,616,616,616,616,616,616,616,616,616,616,616,616,616,616,615,612,603,601,600,600,600,600,600,600,600,600,600,600,600,600,600,600,600,600,600,600,600,600,600,600,600,600,600,600,600,600,600,600,600,600,600,600,600,600,600,600,600,600,600,600,600,600,600,600,600,600,600,600,600,600,600,600,600,600,600,599,584,563,539,511,487,462,392,359,327,296,249,225,203,181,162,147,129,129,129,129,129,129,129,129,129,129,128,128,127,125,123,119,116,112,106,94],"timestamp_mouse":[8,30,42,61,82,101,121,141,161,182,202,222,241,262,282,302,322,341,362,381,401,421,441,462,481,502,522,541,561,582,602,622,641,662,682,702,721,742,761,781,802,822,841,862,883,901,922,943,961,982,1001,1021,1042,1061,1081,1101,1122,1141,1162,1182,1201,1221,1241,1261,1282,1301,1321,1342,1362,1381,1401,1421,1441,1462,1482,1501,1522,1541,1562,1582,1601,1621,1642,1662,1681,1701,1722,1742,1761,1781,1802,1822,1842,1862,1881,1901,1922,1941,1961,1982,2002,2023,2041,2061,2083,2101,2121,2141,2162,2181,2202,2222,2242,2261,2281,2301,2321,2341,2362],"xSR":741.5,"ySR":573.95,"xT1":424.9,"yT1":0,"xT2":1058.1,"yT2":0,"toosoon":0,"cond_shown":"Congruent","ratio_trial":200,"L_num":6,"L_den":20,"R_num":11,"R_den":22,"correct_side":2,"subjID":"MariaPaulaLeguizamon33","gender":"1","school":"4","age":"9"},{"start_time":1552327836830,"click_time":1552327838869,"finger_time":1552327838349,"fix_duration":719.9776493463894,"trial":17,"RT":1519,"MT":520,"sideResp":1,"stimulus":[],"xmouse":[806,806,806,806,806,806,806,806,806,806,806,806,806,806,806,806,806,806,806,806,806,806,806,806,806,806,806,806,806,806,806,806,806,806,806,806,806,806,806,806,806,806,806,806,806,806,806,806,806,806,806,806,806,806,806,806,806,806,806,806,806,806,806,806,806,806,806,806,806,806,806,806,806,799,764,732,704,666,651,617,598,581,570,561,547,538,534,533,533,533,533,533,533,533,533,533,533,533,533,529,526,520],"ymouse":[623,623,623,623,623,623,623,623,623,623,623,623,623,623,623,623,623,623,623,623,623,623,623,623,623,623,623,623,623,623,623,623,623,623,623,623,623,623,623,623,623,623,623,623,623,623,623,623,623,623,623,623,623,623,623,623,623,623,623,623,623,623,623,623,623,623,623,623,623,623,623,623,623,615,582,546,510,448,411,323,282,244,219,194,154,140,134,132,132,132,132,132,132,132,132,132,132,132,131,118,105,92],"timestamp_mouse":[30,40,58,78,99,118,138,158,180,199,218,239,258,278,298,319,339,359,380,399,419,439,459,478,499,519,538,559,579,599,620,639,659,678,699,718,739,759,779,798,819,839,860,879,899,918,939,958,978,999,1019,1038,1058,1079,1099,1119,1139,1158,1179,1198,1219,1238,1258,1278,1299,1319,1338,1359,1378,1399,1419,1439,1458,1479,1498,1519,1538,1558,1580,1599,1618,1638,1659,1678,1698,1718,1738,1759,1778,1798,1818,1838,1859,1880,1899,1918,1939,1959,1978,1998,2018,2039],"xSR":741.5,"ySR":573.95,"xT1":424.9,"yT1":0,"xT2":1058.1,"yT2":0,"toosoon":0,"cond_shown":"Incongruent","ratio_trial":200,"L_num":3,"L_den":10,"R_num":1,"R_den":2,"correct_side":2,"subjID":"MariaPaulaLeguizamon33","gender":"1","school":"4","age":"9"},{"start_time":1552327842880,"click_time":1552327844849,"finger_time":1552327844489,"fix_duration":250,"trial":18,"RT":1609,"MT":360,"sideResp":2,"stimulus":[],"xmouse":[823,823,823,823,823,823,823,823,823,823,823,823,823,823,823,823,823,823,823,823,823,823,823,823,823,823,823,823,823,823,823,823,823,823,823,823,823,823,823,823,823,823,823,823,823,823,823,823,823,823,823,823,823,823,823,823,823,823,823,823,823,823,823,823,823,823,823,823,823,823,823,823,823,823,823,823,821,818,816,816,815,814,813,813,813,813,813,813,816,825,838,854,883,892,908,925,948,1032,1088],"ymouse":[632,632,632,632,632,632,632,632,632,632,632,632,632,632,632,632,632,632,632,632,632,632,632,632,632,632,632,632,632,632,632,632,632,632,632,632,632,632,632,632,632,632,632,632,632,632,632,632,632,632,632,632,632,632,632,632,632,632,632,632,632,632,632,632,632,632,632,632,632,632,632,632,632,632,632,626,618,596,584,577,568,562,557,555,555,553,551,548,520,489,443,389,246,196,160,125,94,34,11],"timestamp_mouse":[12,33,49,68,89,110,129,149,170,188,208,229,249,268,290,308,329,350,369,388,409,428,448,470,488,509,529,549,569,590,608,628,648,668,689,708,728,748,770,789,808,829,850,870,888,908,928,948,968,988,1009,1028,1048,1068,1088,1108,1128,1148,1168,1188,1208,1229,1249,1270,1289,1308,1329,1349,1368,1389,1408,1428,1449,1468,1488,1509,1529,1549,1568,1588,1609,1629,1648,1668,1689,1708,1728,1748,1768,1789,1809,1829,1849,1868,1889,1908,1928,1949,1969],"xSR":741.5,"ySR":573.95,"xT1":424.9,"yT1":0,"xT2":1058.1,"yT2":0,"toosoon":0,"cond_shown":"Incongruent","ratio_trial":200,"L_num":7,"L_den":15,"R_num":4,"R_den":6,"correct_side":2,"subjID":"MariaPaulaLeguizamon33","gender":"1","school":"4","age":"9"},{"start_time":1552327848575,"click_time":1552327850549,"finger_time":1552327850149,"fix_duration":1344.8763573201622,"trial":19,"RT":1574,"MT":400,"sideResp":2,"stimulus":[],"xmouse":[794,794,794,794,794,794,794,794,794,794,794,794,794,794,794,794,794,794,794,794,794,794,794,794,794,794,794,794,794,794,794,794,794,794,794,794,794,794,794,794,794,794,794,794,794,794,794,794,794,794,794,794,794,794,794,794,794,794,794,794,794,794,794,794,794,794,794,794,794,794,794,794,794,794,794,794,798,805,815,822,829,846,869,890,952,970,984,997,1024,1040,1055,1073,1089,1103,1107,1111,1115,1121,1138],"ymouse":[641,641,641,641,641,641,641,641,641,641,641,641,641,641,641,641,641,641,641,641,641,641,641,641,641,641,641,641,641,641,641,641,641,641,641,641,641,641,641,641,641,641,641,641,641,641,641,641,641,641,641,641,641,641,641,641,641,641,641,641,641,641,641,641,641,641,641,641,641,641,641,641,641,641,641,637,619,596,542,512,481,441,396,353,269,244,224,204,172,160,152,143,136,131,128,124,116,105,69],"timestamp_mouse":[13,34,54,74,94,113,134,154,173,193,213,234,254,273,293,314,333,353,374,393,414,433,453,474,493,513,533,553,573,593,614,634,655,673,693,713,733,753,775,793,813,833,854,874,894,913,934,954,974,994,1014,1033,1054,1073,1094,1113,1133,1153,1173,1194,1214,1233,1254,1273,1294,1314,1333,1353,1374,1393,1413,1434,1453,1473,1494,1513,1533,1554,1574,1593,1613,1633,1654,1673,1694,1714,1733,1754,1773,1793,1813,1834,1853,1873,1893,1913,1933,1954,1973],"xSR":741.5,"ySR":573.95,"xT1":424.9,"yT1":0,"xT2":1058.1,"yT2":0,"toosoon":0,"cond_shown":"Congruent","ratio_trial":300,"L_num":4,"L_den":20,"R_num":13,"R_den":26,"correct_side":2,"subjID":"MariaPaulaLeguizamon33","gender":"1","school":"4","age":"9"},{"start_time":1552327860589,"click_time":1552327862268,"finger_time":1552327861628,"fix_duration":298.5601751014482,"trial":20,"RT":1039,"MT":640,"sideResp":1,"stimulus":[],"xmouse":[787,787,787,787,789,789,789,789,789,789,789,789,789,789,789,789,789,789,789,790,792,792,792,792,792,792,792,792,792,792,792,792,792,792,792,792,792,792,792,792,792,792,792,792,792,792,792,792,792,792,786,767,741,707,641,620,608,602,594,581,571,566,564,562,560,560,560,560,560,559,559,559,559,558,558,558,558,558,558,557,550,543,535,527,519],"ymouse":[647,647,647,647,647,647,647,647,647,647,647,647,647,647,647,647,647,647,647,648,650,651,651,651,651,651,651,651,651,651,651,651,651,651,651,651,651,651,651,651,651,651,651,651,651,651,651,651,651,651,645,629,605,571,492,454,421,390,355,289,213,182,155,135,116,87,76,59,46,34,30,30,30,29,29,29,29,29,29,29,29,29,29,29,29],"timestamp_mouse":[1,29,40,59,80,100,119,139,160,179,199,219,240,259,280,299,319,340,359,379,399,419,440,459,480,499,520,539,559,580,599,620,641,659,679,699,719,739,760,780,799,820,840,859,880,901,920,940,960,979,999,1019,1039,1060,1080,1099,1119,1140,1159,1180,1200,1220,1239,1260,1279,1299,1319,1339,1360,1379,1400,1419,1439,1461,1481,1500,1519,1539,1559,1579,1599,1619,1639,1659,1679],"xSR":741.5,"ySR":573.95,"xT1":424.9,"yT1":0,"xT2":1058.1,"yT2":0,"toosoon":0,"cond_shown":"Congruent","ratio_trial":300,"L_num":9,"L_den":10,"R_num":3,"R_den":5,"correct_side":1,"subjID":"MariaPaulaLeguizamon33","gender":"1","school":"4","age":"9"},{"start_time":1552327867812,"click_time":1552327869450,"finger_time":1552327869308,"fix_duration":601.9408374473508,"trial":21,"RT":1496,"MT":142,"sideResp":2,"stimulus":[],"xmouse":[811,811,811,811,811,811,811,811,811,811,811,811,811,811,811,811,811,811,811,811,811,811,811,811,811,811,811,811,811,811,811,811,811,811,811,811,811,811,811,811,811,811,811,811,811,811,811,811,811,811,811,811,811,811,811,811,811,811,811,811,811,811,811,811,811,811,811,811,811,811,811,811,811,818,842,862,881,910,977,1009,1044,1073],"ymouse":[631,631,631,631,631,631,631,631,631,631,631,631,631,631,631,631,631,631,631,631,631,631,631,631,631,631,631,631,631,631,631,631,631,631,631,631,631,631,631,631,631,631,631,631,631,631,631,631,631,631,631,631,631,631,631,631,631,631,631,631,631,631,631,631,631,631,631,631,631,631,631,631,631,617,567,521,470,393,239,157,81,11],"timestamp_mouse":[16,38,56,76,96,116,138,156,176,196,216,237,258,277,297,317,337,357,376,397,417,437,456,477,497,517,537,557,577,597,616,636,656,676,697,716,736,757,778,797,816,837,858,876,897,917,937,958,976,996,1016,1037,1057,1077,1097,1118,1137,1156,1177,1198,1216,1237,1257,1276,1297,1317,1337,1357,1377,1397,1416,1437,1456,1476,1496,1516,1536,1556,1577,1596,1617,1638],"xSR":741.5,"ySR":573.95,"xT1":424.9,"yT1":0,"xT2":1058.1,"yT2":0,"toosoon":0,"cond_shown":"Incongruent","ratio_trial":100,"L_num":6,"L_den":12,"R_num":3,"R_den":5,"correct_side":2,"subjID":"MariaPaulaLeguizamon33","gender":"1","school":"4","age":"9"},{"start_time":1552327873328,"click_time":1552327874428,"finger_time":1552327874308,"fix_duration":298.80556928857374,"trial":22,"RT":980,"MT":120,"sideResp":1,"stimulus":[],"xmouse":[812,812,812,812,812,812,812,812,812,812,812,812,812,812,812,812,812,812,812,812,812,812,812,812,812,812,812,812,812,812,812,812,812,812,812,812,812,812,812,812,812,812,812,812,812,812,812,811,803,778,755,729,697,651,535,493],"ymouse":[598,598,598,598,598,598,598,598,598,598,598,598,598,598,598,598,598,598,598,598,598,598,598,598,598,598,598,598,598,598,598,598,598,598,598,598,598,598,598,598,598,598,598,598,598,598,598,598,589,530,477,412,339,259,101,41],"timestamp_mouse":[18,25,41,61,80,100,120,140,161,182,200,221,241,262,280,300,320,340,360,380,400,420,442,460,481,502,521,541,561,581,600,621,641,661,680,701,722,741,761,781,800,821,840,861,881,901,921,940,961,980,1001,1020,1041,1062,1080,1100],"xSR":741.5,"ySR":573.95,"xT1":424.9,"yT1":0,"xT2":1058.1,"yT2":0,"toosoon":0,"cond_shown":"Congruent","ratio_trial":200,"L_num":12,"L_den":20,"R_num":6,"R_den":15,"correct_side":1,"subjID":"MariaPaulaLeguizamon33","gender":"1","school":"4","age":"9"},{"start_time":1552327878902,"click_time":1552327881308,"finger_time":1552327880448,"fix_duration":1472.0857465653328,"trial":23,"RT":1546,"MT":860,"sideResp":2,"stimulus":[],"xmouse":[784,784,784,784,784,784,784,784,784,784,784,784,784,784,784,784,784,784,784,784,784,784,784,784,784,784,784,784,784,784,784,784,784,784,784,784,784,784,784,784,784,784,784,784,784,784,784,784,784,784,784,784,784,784,784,784,784,784,784,784,784,784,784,784,784,784,784,784,784,784,784,784,784,784,784,784,784,783,781,781,781,781,781,781,781,779,778,783,796,808,822,853,866,881,898,934,986,1018,1059,1114,1158,1199,1204,1205,1205,1208,1223,1234,1242,1248,1249,1242,1230,1194,1165,1134,1107,1107,1107,1106,1102],"ymouse":[575,575,575,575,575,575,575,575,575,575,575,575,575,575,575,575,575,575,575,575,575,575,575,575,575,575,575,575,575,575,575,575,575,575,575,575,575,575,575,575,575,575,575,575,575,575,575,575,575,575,575,575,575,575,575,575,575,575,575,575,575,575,575,575,575,575,575,575,575,575,575,575,575,575,575,575,574,562,546,531,518,490,479,470,457,443,403,380,355,337,319,295,288,281,274,261,239,225,215,204,198,192,190,190,190,188,169,153,134,115,95,48,18,0,0,0,0,0,0,0,10],"timestamp_mouse":[10,37,46,66,86,108,127,146,166,186,206,226,246,267,286,306,326,347,366,387,406,426,447,467,486,506,527,548,567,586,607,626,646,667,686,708,727,747,767,786,807,827,847,867,887,908,926,946,967,988,1006,1026,1047,1066,1086,1106,1127,1147,1167,1187,1206,1226,1246,1266,1287,1306,1326,1347,1366,1386,1406,1426,1446,1466,1487,1506,1526,1546,1566,1587,1606,1626,1646,1667,1687,1707,1726,1746,1766,1787,1806,1826,1846,1866,1886,1907,1926,1946,1966,1986,2006,2026,2046,2066,2086,2107,2126,2146,2166,2187,2206,2226,2246,2267,2288,2307,2326,2347,2366,2387,2406],"xSR":741.5,"ySR":573.95,"xT1":424.9,"yT1":0,"xT2":1058.1,"yT2":0,"toosoon":0,"cond_shown":"Incongruent","ratio_trial":100,"L_num":13,"L_den":26,"R_num":12,"R_den":20,"correct_side":2,"subjID":"MariaPaulaLeguizamon33","gender":"1","school":"4","age":"9"},{"start_time":1552327885185,"click_time":1552327886510,"finger_time":1552327885968,"fix_duration":833.7953145793749,"trial":24,"RT":783,"MT":542,"sideResp":1,"stimulus":[],"xmouse":[825,825,825,825,825,825,825,825,825,825,825,825,825,825,825,825,825,825,825,825,825,825,825,825,825,825,825,825,825,825,825,825,825,825,825,825,825,806,790,772,759,750,732,722,714,705,686,645,610,593,576,559,538,531,527,526,526,526,526,526,526,526,526,526,526,524,520],"ymouse":[647,647,647,647,647,647,647,647,647,647,647,647,647,647,647,647,647,647,647,647,647,647,647,647,647,647,647,647,647,647,647,647,647,647,647,647,646,607,579,547,523,508,476,461,441,406,341,195,80,13,0,0,0,0,0,0,0,0,0,0,0,0,0,0,0,0,3],"timestamp_mouse":[12,23,44,64,84,104,123,143,163,183,204,223,243,264,283,304,324,343,364,384,403,425,444,463,484,503,524,544,563,584,603,623,644,663,683,703,723,744,764,783,803,824,844,863,883,903,925,944,963,984,1004,1024,1044,1063,1083,1104,1123,1143,1164,1184,1203,1223,1244,1263,1284,1303,1325],"xSR":741.5,"ySR":573.95,"xT1":424.9,"yT1":0,"xT2":1058.1,"yT2":0,"toosoon":0,"cond_shown":"Congruent","ratio_trial":300,"L_num":24,"L_den":30,"R_num":2,"R_den":4,"correct_side":1,"subjID":"MariaPaulaLeguizamon33","gender":"1","school":"4","age":"9"},{"start_time":1552327890705,"click_time":1552327891869,"finger_time":1552327891648,"fix_duration":934.2561069342713,"trial":25,"RT":943,"MT":221,"sideResp":1,"stimulus":[],"xmouse":[779,779,779,779,779,779,779,781,782,782,783,783,784,784,784,784,784,784,784,784,784,784,784,784,784,784,784,784,784,784,784,784,784,784,784,784,784,784,784,784,784,784,784,784,784,783,778,745,722,685,663,646,611,596,581,570,555,529,517],"ymouse":[648,648,648,648,648,648,648,648,648,648,648,648,648,648,648,648,648,648,648,648,648,648,648,648,648,648,648,648,648,648,648,648,648,648,648,648,648,648,648,648,648,648,648,648,648,641,634,573,536,470,423,383,299,262,220,177,130,50,11],"timestamp_mouse":[11,23,44,64,84,104,124,143,164,183,203,223,243,264,283,303,324,343,363,383,404,423,443,463,483,505,523,544,563,585,603,623,645,663,683,704,723,743,763,784,804,824,843,863,883,903,924,943,963,983,1004,1024,1043,1063,1083,1104,1123,1143,1163],"xSR":741.5,"ySR":573.95,"xT1":424.9,"yT1":0,"xT2":1058.1,"yT2":0,"toosoon":0,"cond_shown":"Incongruent","ratio_trial":300,"L_num":2,"L_den":4,"R_num":6,"R_den":30,"correct_side":1,"subjID":"MariaPaulaLeguizamon33","gender":"1","school":"4","age":"9"},{"start_time":1552327894831,"click_time":1552327896968,"finger_time":1552327896768,"fix_duration":1142.2858714043796,"trial":26,"RT":1937,"MT":200,"sideResp":1,"stimulus":[],"xmouse":[802,802,802,802,802,802,802,802,802,802,802,802,802,802,802,802,802,802,802,802,802,802,802,800,799,799,797,797,797,797,797,797,797,797,797,797,797,797,797,797,797,797,797,797,797,797,797,797,797,797,797,797,797,797,797,797,797,797,797,797,797,797,797,797,797,797,797,797,797,797,797,797,797,797,797,797,797,797,797,797,797,797,797,797,797,797,797,797,797,797,797,797,797,797,797,797,790,787,783,776,759,706,670,633,596,559,488],"ymouse":[631,631,631,631,631,631,631,631,631,631,631,631,631,631,631,631,631,631,631,631,631,631,631,633,634,639,646,648,649,649,649,649,649,650,650,650,650,650,650,650,650,650,650,650,650,650,650,650,650,650,650,650,650,650,650,650,650,650,650,650,650,650,650,650,650,650,650,650,650,650,650,650,650,650,650,650,650,650,650,650,650,650,650,650,650,650,650,650,650,650,650,650,644,630,608,582,534,516,500,483,443,366,319,269,217,165,54],"timestamp_mouse":[29,37,57,78,98,117,138,157,177,198,217,238,258,277,297,318,337,357,378,397,418,438,458,477,497,517,537,558,578,597,618,638,657,678,697,717,739,758,778,797,818,838,857,877,898,917,937,958,977,998,1017,1038,1057,1077,1097,1118,1138,1158,1177,1198,1217,1237,1258,1277,1297,1317,1338,1358,1378,1398,1418,1437,1458,1478,1498,1517,1537,1558,1578,1598,1618,1639,1657,1677,1697,1719,1738,1757,1778,1798,1817,1838,1857,1877,1897,1917,1937,1958,1977,1997,2017,2038,2057,2077,2098,2117,2137],"xSR":741.5,"ySR":573.95,"xT1":424.9,"yT1":0,"xT2":1058.1,"yT2":0,"toosoon":0,"cond_shown":"Incongruent","ratio_trial":200,"L_num":1,"L_den":3,"R_num":2,"R_den":15,"correct_side":1,"subjID":"MariaPaulaLeguizamon33","gender":"1","school":"4","age":"9"},{"start_time":1552327899192,"click_time":1552327901888,"finger_time":1552327900969,"fix_duration":702.5367317740627,"trial":27,"RT":1777,"MT":919,"sideResp":2,"stimulus":[],"xmouse":[813,813,813,813,813,813,813,813,813,813,813,813,813,813,813,813,813,813,813,813,813,810,803,797,788,782,779,776,771,770,770,770,770,770,770,770,770,770,770,770,770,770,770,770,770,770,770,770,770,770,770,770,770,770,770,770,770,770,770,770,770,770,770,770,770,770,770,770,770,770,770,770,770,770,770,770,770,770,770,770,770,770,770,770,770,770,770,771,786,803,829,857,895,1000,1058,1113,1165,1220,1346,1450,1520,1574,1574,1574,1574,1574,1574,1574,1581,1582,1582,1582,1582,1582,1582,1582,1582,1582,1582,1543,1478,1406,1330,1291,1275,1275,1275,1272,1265,1261,1259,1256,1247,1225,1156],"ymouse":[622,622,622,622,622,622,622,622,622,622,622,622,622,622,622,622,622,622,622,622,622,622,622,622,624,627,628,630,632,633,633,633,633,633,633,633,633,633,633,633,633,633,633,633,633,633,633,633,633,633,633,633,633,633,633,633,633,633,633,633,633,633,633,633,633,633,633,633,633,633,633,633,633,633,633,633,633,633,633,633,633,633,633,633,633,633,631,621,528,466,387,305,221,37,0,0,0,0,0,0,0,0,0,0,0,0,0,0,91,95,95,95,95,95,95,95,95,95,96,78,52,23,0,0,0,0,0,2,14,17,19,22,27,33,43],"timestamp_mouse":[16,38,56,77,96,116,136,156,176,196,216,237,257,276,296,317,336,357,377,398,416,437,456,476,497,518,536,556,576,596,616,637,658,676,696,717,738,756,776,796,816,836,857,877,896,917,937,956,977,996,1016,1037,1058,1077,1097,1117,1136,1156,1177,1197,1217,1236,1257,1276,1296,1317,1336,1356,1377,1397,1417,1437,1457,1477,1497,1516,1537,1556,1578,1596,1617,1636,1656,1677,1697,1718,1736,1757,1777,1796,1816,1837,1856,1876,1896,1916,1936,1958,1976,1998,2016,2037,2056,2076,2097,2116,2137,2157,2179,2196,2217,2237,2257,2276,2297,2316,2336,2357,2376,2397,2416,2437,2456,2476,2496,2517,2536,2557,2576,2596,2617,2636,2657,2676,2696],"xSR":741.5,"ySR":573.95,"xT1":424.9,"yT1":0,"xT2":1058.1,"yT2":0,"toosoon":0,"cond_shown":"Incongruent","ratio_trial":200,"L_num":4,"L_den":30,"R_num":1,"R_den":3,"correct_side":2,"subjID":"MariaPaulaLeguizamon33","gender":"1","school":"4","age":"9"},{"start_time":1552327904192,"click_time":1552327905568,"finger_time":1552327905288,"fix_duration":582.5149723078164,"trial":28,"RT":1096,"MT":280,"sideResp":1,"stimulus":[],"xmouse":[794,794,794,794,794,794,794,794,794,794,794,794,794,794,794,794,794,794,794,794,794,794,794,794,794,794,794,794,794,794,794,794,794,794,794,794,794,794,794,794,794,794,794,794,794,794,794,794,794,794,794,794,793,793,799,806,808,795,724,603,567,549,539,538,526,508,492,473,464],"ymouse":[610,610,610,610,610,610,610,610,610,610,610,610,610,610,610,610,610,610,610,610,610,610,610,610,610,610,610,610,610,610,610,610,610,610,610,610,610,610,610,610,610,610,610,610,610,610,610,610,610,610,610,610,605,584,462,350,220,69,0,0,0,0,0,0,0,0,0,0,4],"timestamp_mouse":[20,36,56,78,96,116,137,157,176,197,216,236,256,277,297,317,337,357,376,396,417,436,457,477,497,517,537,556,577,597,617,636,656,676,696,716,737,757,776,796,816,836,856,876,896,916,936,957,977,996,1016,1037,1056,1077,1096,1116,1137,1156,1176,1197,1216,1236,1256,1276,1297,1317,1337,1357,1376],"xSR":741.5,"ySR":573.95,"xT1":424.9,"yT1":0,"xT2":1058.1,"yT2":0,"toosoon":0,"cond_shown":"Incongruent","ratio_trial":300,"L_num":8,"L_den":10,"R_num":14,"R_den":28,"correct_side":1,"subjID":"MariaPaulaLeguizamon33","gender":"1","school":"4","age":"9"},{"start_time":1552327909984,"click_time":1552327913028,"finger_time":1552327911728,"fix_duration":1334.0731549659413,"trial":29,"RT":1744,"MT":1300,"sideResp":2,"stimulus":[],"xmouse":[798,798,798,798,798,798,798,798,798,798,798,798,798,798,798,798,798,798,798,798,798,798,798,798,798,798,798,798,798,798,798,798,798,798,798,798,798,798,798,798,798,798,798,798,798,798,798,798,798,798,798,798,798,798,798,798,798,798,798,798,798,798,798,798,798,798,798,798,798,798,798,798,798,798,798,798,798,798,798,798,798,798,798,798,799,804,811,820,832,855,950,1019,1094,1165,1231,1293,1427,1456,1499,1528,1578,1578,1578,1578,1578,1578,1578,1578,1580,1557,1467,1409,1357,1312,1254,1207,1079,1054,1019,983,952,910,900,898,897,898,915,939,968,997,1032,1146,1211,1271,1341,1362,1367,1367,1367,1367,1367,1364,1357,1330,1272,1240,1210,1209,1209,1208,1202,1168,1150],"ymouse":[632,632,632,632,632,632,632,632,632,632,632,632,632,632,632,632,632,632,632,632,632,632,632,632,632,632,632,632,632,632,632,632,632,632,632,632,632,632,632,632,632,632,632,632,632,632,632,632,632,632,632,632,632,632,632,632,632,632,632,632,632,632,632,632,632,632,632,632,632,632,632,632,632,632,632,632,632,632,632,632,632,632,632,632,625,608,583,561,534,487,353,273,184,113,51,10,0,0,0,0,0,0,0,0,0,0,0,0,0,0,0,0,0,0,0,0,0,0,0,0,0,3,8,10,11,13,18,26,38,51,66,109,124,134,144,145,145,145,145,145,145,145,145,135,110,95,83,82,82,82,81,76,73],"timestamp_mouse":[11,33,44,64,84,104,125,145,164,185,204,225,246,264,285,305,324,345,365,385,406,424,444,465,486,504,525,545,565,584,604,625,645,665,685,705,726,745,765,785,805,824,845,864,885,906,925,945,964,984,1004,1024,1045,1064,1084,1105,1124,1145,1164,1184,1204,1225,1244,1265,1285,1305,1325,1345,1365,1385,1405,1424,1445,1465,1484,1506,1525,1545,1565,1586,1605,1625,1645,1664,1685,1704,1724,1744,1764,1784,1805,1824,1844,1864,1885,1904,1925,1944,1964,1986,2004,2024,2044,2064,2085,2105,2125,2144,2164,2185,2206,2224,2244,2264,2284,2304,2329,2344,2364,2385,2404,2424,2445,2465,2484,2505,2524,2544,2565,2585,2604,2624,2644,2664,2684,2705,2725,2744,2764,2784,2804,2824,2845,2864,2885,2904,2925,2945,2964,2984,3004,3024,3044],"xSR":741.5,"ySR":573.95,"xT1":424.9,"yT1":0,"xT2":1058.1,"yT2":0,"toosoon":0,"cond_shown":"Congruent","ratio_trial":300,"L_num":1,"L_den":5,"R_num":3,"R_den":6,"correct_side":2,"subjID":"MariaPaulaLeguizamon33","gender":"1","school":"4","age":"9"},{"start_time":1552327917700,"click_time":1552327919168,"finger_time":1552327918628,"fix_duration":1391.746962130608,"trial":30,"RT":928,"MT":540,"sideResp":1,"stimulus":[],"xmouse":[775,775,775,772,771,769,768,767,766,765,764,764,764,764,764,764,764,764,764,764,764,764,764,764,764,764,764,764,764,764,763,763,760,757,751,742,742,742,742,742,742,742,742,742,742,742,741,739,735,726,707,698,691,681,663,608,590,581,577,576,576,576,576,576,576,576,564,556,543,535,532,532,525,500],"ymouse":[654,654,654,656,656,658,659,660,661,662,663,663,663,663,663,663,663,663,663,663,663,663,663,663,663,663,663,663,663,663,661,658,651,643,635,625,624,624,624,624,624,624,624,624,624,624,623,621,613,601,564,542,516,486,447,350,311,273,247,225,182,158,131,92,35,0,0,0,0,0,0,0,0,9],"timestamp_mouse":[11,36,49,68,88,108,128,148,169,188,209,228,250,269,289,308,328,349,369,390,408,428,448,468,489,509,528,548,570,590,608,628,648,668,688,708,728,748,768,788,809,829,849,868,888,909,928,948,968,989,1009,1028,1050,1068,1089,1108,1129,1148,1168,1188,1208,1228,1249,1269,1289,1309,1329,1348,1369,1388,1408,1428,1448,1468],"xSR":741.5,"ySR":573.95,"xT1":424.9,"yT1":0,"xT2":1058.1,"yT2":0,"toosoon":0,"cond_shown":"Congruent","ratio_trial":100,"L_num":1,"L_den":2,"R_num":18,"R_den":30,"correct_side":2,"subjID":"MariaPaulaLeguizamon33","gender":"1","school":"4","age":"9"},{"start_time":1552327922136,"click_time":1552327924628,"finger_time":1552327923608,"fix_duration":1105.0183454072749,"trial":31,"RT":1472,"MT":1020,"sideResp":1,"stimulus":[],"xmouse":[775,775,775,774,773,773,773,773,773,773,773,773,773,773,773,773,773,773,773,773,773,773,773,773,773,773,773,773,773,773,773,773,773,773,773,773,773,773,773,773,773,773,773,773,773,773,773,773,773,773,773,773,773,773,773,773,773,773,773,773,773,773,773,773,773,773,773,773,773,773,773,773,775,779,771,748,717,681,633,517,469,427,387,372,361,361,360,359,356,349,343,341,337,334,333,332,332,332,332,346,368,384,400,422,478,517,548,583,608,649,667,675,679,682,682,682,682,682,683,678,667,634,595,558,495],"ymouse":[608,608,610,613,614,614,614,614,614,614,614,614,614,614,614,614,614,614,614,614,614,614,614,614,614,614,614,614,614,614,614,614,614,614,614,614,614,614,614,614,614,614,614,614,614,614,614,614,614,614,614,614,614,614,614,614,614,614,614,614,614,614,614,614,614,614,614,614,614,614,614,603,579,532,388,304,211,128,43,0,0,0,0,0,0,0,0,0,0,0,1,2,5,10,17,21,24,26,28,41,55,66,74,86,109,123,132,139,143,149,151,151,151,151,151,151,151,151,150,141,127,103,81,62,32],"timestamp_mouse":[12,38,53,73,92,112,133,152,173,192,214,233,253,274,293,313,333,352,372,392,413,433,454,473,492,512,532,553,574,594,613,633,652,673,692,713,732,752,773,792,812,832,852,872,892,913,932,952,973,992,1012,1033,1053,1072,1092,1113,1133,1152,1172,1192,1213,1233,1252,1274,1293,1313,1333,1353,1373,1392,1412,1432,1453,1472,1492,1512,1532,1552,1572,1593,1612,1632,1652,1672,1693,1712,1733,1752,1772,1794,1812,1833,1853,1872,1893,1912,1932,1952,1972,1993,2013,2032,2052,2072,2093,2112,2132,2154,2173,2193,2213,2233,2252,2273,2292,2313,2332,2353,2373,2392,2412,2432,2452,2473,2492],"xSR":741.5,"ySR":573.95,"xT1":424.9,"yT1":0,"xT2":1058.1,"yT2":0,"toosoon":0,"cond_shown":"Incongruent","ratio_trial":200,"L_num":7,"L_den":10,"R_num":12,"R_den":24,"correct_side":1,"subjID":"MariaPaulaLeguizamon33","gender":"1","school":"4","age":"9"},{"start_time":1552327930335,"click_time":1552327932668,"finger_time":1552327931929,"fix_duration":825.3056764078681,"trial":32,"RT":1594,"MT":739,"sideResp":2,"stimulus":[],"xmouse":[802,802,802,802,802,802,802,802,802,802,802,802,802,802,802,802,802,802,802,802,802,802,802,802,802,802,802,802,802,802,802,802,802,802,802,802,802,802,802,802,802,802,802,802,802,802,802,802,802,802,802,802,802,802,802,802,802,802,802,802,802,802,802,802,802,802,802,802,802,802,802,802,802,802,802,802,803,804,806,807,813,820,829,843,866,917,954,992,1032,1081,1130,1149,1169,1186,1218,1227,1233,1233,1234,1234,1240,1242,1242,1242,1242,1242,1242,1242,1242,1242,1235,1227,1217,1205,1190,1159,1147],"ymouse":[606,606,606,606,606,606,606,606,606,606,606,606,606,606,606,606,606,606,606,606,606,606,606,606,606,606,606,606,606,606,606,606,606,606,606,606,606,606,606,606,606,606,606,606,606,606,606,606,606,606,606,606,606,606,606,606,606,606,606,606,606,606,606,606,606,606,606,606,606,606,606,606,606,606,606,601,595,589,580,571,545,524,490,436,367,214,138,74,17,0,0,0,0,0,0,0,0,0,0,0,5,10,11,11,11,11,11,12,12,12,16,19,21,23,26,35,40],"timestamp_mouse":[14,39,54,74,94,113,133,153,175,193,213,235,253,274,294,314,333,354,374,393,413,434,454,475,493,513,534,554,574,593,613,634,654,674,693,714,733,753,773,793,813,835,854,874,893,913,934,953,973,994,1014,1034,1054,1074,1094,1113,1134,1153,1175,1193,1213,1233,1254,1273,1294,1314,1333,1353,1373,1394,1413,1434,1453,1473,1493,1513,1534,1554,1573,1594,1613,1633,1653,1673,1693,1713,1734,1753,1774,1794,1814,1833,1854,1873,1895,1915,1933,1954,1973,1993,2014,2033,2054,2073,2094,2114,2134,2153,2174,2193,2213,2233,2254,2274,2294,2314,2333],"xSR":741.5,"ySR":573.95,"xT1":424.9,"yT1":0,"xT2":1058.1,"yT2":0,"toosoon":0,"cond_shown":"Congruent","ratio_trial":300,"L_num":1,"L_den":3,"R_num":19,"R_den":30,"correct_side":2,"subjID":"MariaPaulaLeguizamon33","gender":"1","school":"4","age":"9"},{"start_time":1552327934479,"click_time":1552327935948,"finger_time":1552327935648,"fix_duration":250,"trial":33,"RT":1169,"MT":300,"sideResp":2,"stimulus":[],"xmouse":[802,802,802,802,802,802,802,802,802,802,802,802,802,802,802,802,802,802,802,801,801,801,801,801,801,801,801,801,801,799,797,797,797,797,797,797,797,797,797,797,797,797,797,797,797,797,797,797,797,797,797,797,797,797,797,797,797,797,797,798,803,810,818,859,888,914,938,958,991,1017,1032,1046,1060,1082],"ymouse":[626,626,626,626,626,626,626,626,626,626,626,626,626,626,626,626,626,626,626,626,626,626,626,626,626,626,626,626,626,625,625,625,625,625,625,625,625,625,625,625,625,625,625,625,625,625,625,625,625,625,625,625,620,612,607,602,596,589,573,556,539,518,493,406,355,312,279,251,207,176,157,141,123,88],"timestamp_mouse":[12,33,50,71,89,109,129,150,170,189,211,230,250,270,289,310,330,350,369,389,411,430,450,470,490,509,530,550,571,589,609,630,650,670,689,710,730,749,770,790,809,830,850,870,889,910,930,950,970,989,1010,1029,1049,1069,1089,1109,1129,1149,1169,1189,1209,1230,1249,1269,1289,1309,1329,1349,1369,1391,1409,1429,1450,1469],"xSR":741.5,"ySR":573.95,"xT1":424.9,"yT1":0,"xT2":1058.1,"yT2":0,"toosoon":0,"cond_shown":"Incongruent","ratio_trial":200,"L_num":14,"L_den":30,"R_num":6,"R_den":9,"correct_side":2,"subjID":"MariaPaulaLeguizamon33","gender":"1","school":"4","age":"9"},{"start_time":1552327939939,"click_time":1552327941550,"finger_time":1552327941449,"fix_duration":308.27962648657706,"trial":34,"RT":1510,"MT":101,"sideResp":1,"stimulus":[],"xmouse":[786,786,786,786,786,786,786,786,786,786,786,786,786,786,786,786,786,786,786,786,786,786,786,786,786,786,786,786,786,786,786,786,786,786,786,786,786,786,786,786,786,786,786,786,786,786,786,786,786,786,786,786,786,786,786,786,786,786,786,786,786,786,786,786,786,786,786,786,786,786,786,786,783,778,763,734,653,607,552,498,447],"ymouse":[652,652,652,652,652,652,652,652,652,652,652,652,652,652,652,652,652,652,652,652,652,652,652,652,652,652,652,652,652,652,652,652,652,652,652,652,652,652,652,652,652,652,652,652,652,652,652,652,652,652,652,652,652,652,652,652,652,652,652,652,652,652,652,652,652,652,652,652,652,652,652,652,646,630,583,527,396,316,225,131,41],"timestamp_mouse":[9,29,49,69,89,109,131,151,170,189,210,230,250,269,290,310,329,349,370,391,410,429,449,470,490,510,529,549,570,589,609,630,649,669,690,710,729,749,770,790,809,830,850,870,890,910,930,950,969,989,1010,1030,1050,1070,1089,1110,1129,1150,1170,1190,1209,1231,1250,1269,1290,1310,1329,1350,1369,1389,1409,1429,1449,1469,1490,1510,1530,1549,1571,1589,1610],"xSR":741.5,"ySR":573.95,"xT1":424.9,"yT1":0,"xT2":1058.1,"yT2":0,"toosoon":0,"cond_shown":"Congruent","ratio_trial":200,"L_num":12,"L_den":20,"R_num":6,"R_den":15,"correct_side":1,"subjID":"MariaPaulaLeguizamon33","gender":"1","school":"4","age":"9"},{"start_time":1552327944680,"click_time":1552327946588,"finger_time":1552327944968,"fix_duration":1330.4438616080413,"trial":35,"RT":288,"MT":1620,"sideResp":2,"stimulus":[],"xmouse":[786,786,786,786,786,786,786,785,785,784,783,783,783,783,781,781,781,781,781,781,781,781,781,781,781,781,781,781,781,781,781,781,781,781,781,781,781,781,781,781,781,781,781,781,781,781,783,785,786,788,791,793,796,798,806,808,809,809,809,809,809,809,809,809,809,809,809,809,809,809,809,809,811,812,826,855,886,916,947,982,992,999,1005,1008,1013,1016,1019,1025,1030,1044,1058,1071,1089,1105,1127,1149],"ymouse":[660,660,660,660,660,660,660,662,662,664,665,666,668,670,675,679,681,681,681,681,681,681,681,681,681,681,681,681,681,681,681,681,681,681,681,681,681,681,681,681,681,681,681,681,681,681,677,673,669,666,658,654,647,640,623,618,616,616,616,616,616,616,616,616,616,616,616,616,616,616,616,616,612,608,576,528,480,424,361,283,260,245,235,230,223,221,218,214,209,197,185,174,158,144,123,96],"timestamp_mouse":[11,35,48,68,88,109,129,149,168,188,208,228,249,268,288,309,329,348,368,389,409,428,448,468,488,508,528,548,569,589,609,628,648,669,689,708,729,748,769,789,809,829,849,870,888,908,928,948,968,988,1008,1029,1048,1070,1088,1109,1129,1148,1168,1189,1208,1228,1249,1270,1288,1309,1329,1349,1368,1388,1408,1429,1448,1469,1488,1509,1528,1548,1568,1588,1608,1628,1648,1669,1689,1708,1728,1749,1768,1788,1808,1828,1849,1870,1889,1908],"xSR":741.5,"ySR":573.95,"xT1":424.9,"yT1":0,"xT2":1058.1,"yT2":0,"toosoon":0,"cond_shown":"Incongruent","ratio_trial":300,"L_num":4,"L_den":20,"R_num":2,"R_den":4,"correct_side":2,"subjID":"MariaPaulaLeguizamon33","gender":"1","school":"4","age":"9"},{"start_time":1552327950693,"click_time":1552327951887,"finger_time":1552327951588,"fix_duration":823.4370484963877,"trial":36,"RT":895,"MT":299,"sideResp":2,"stimulus":[],"xmouse":[790,790,790,790,790,790,790,790,790,790,790,790,790,790,790,790,790,790,790,790,790,790,790,790,790,790,790,790,790,790,790,790,790,790,790,790,790,790,790,790,792,796,802,808,827,845,863,882,896,927,939,962,977,996,1031,1049,1064,1075,1083,1092],"ymouse":[658,658,658,658,658,658,658,658,658,658,658,658,658,658,658,658,658,658,658,658,658,658,658,658,658,658,658,658,658,658,658,658,658,658,658,658,658,658,658,658,650,634,615,593,537,494,451,410,378,312,288,252,231,208,169,147,129,111,100,89],"timestamp_mouse":[18,36,54,75,95,115,135,155,176,194,215,235,255,275,296,315,335,356,375,394,415,436,455,476,495,515,536,555,575,596,616,634,655,676,695,715,734,756,775,796,816,835,855,874,895,915,935,955,976,995,1016,1035,1055,1075,1095,1115,1135,1155,1176,1194],"xSR":741.5,"ySR":573.95,"xT1":424.9,"yT1":0,"xT2":1058.1,"yT2":0,"toosoon":0,"cond_shown":"Incongruent","ratio_trial":200,"L_num":11,"L_den":20,"R_num":3,"R_den":4,"correct_side":2,"subjID":"MariaPaulaLeguizamon33","gender":"1","school":"4","age":"9"},{"start_time":1552327955766,"click_time":1552327958228,"finger_time":1552327957568,"fix_duration":1116.2873958357243,"trial":37,"RT":1802,"MT":660,"sideResp":2,"stimulus":[],"xmouse":[782,785,790,792,793,796,799,802,804,804,804,804,804,804,804,804,804,804,804,804,804,804,804,804,804,804,804,804,804,804,804,804,804,804,804,804,804,804,804,804,804,804,804,804,804,804,804,804,804,804,804,804,804,804,804,804,804,804,804,804,804,804,804,804,804,804,804,804,804,804,804,804,804,804,804,804,804,804,804,804,804,804,804,804,804,804,804,804,807,812,820,840,853,864,877,890,926,939,949,960,969,993,1009,1030,1055,1083,1141,1155,1165,1172,1179,1184,1193,1198,1204,1208,1210,1207,1204,1200,1194,1176,1163,1146],"ymouse":[652,651,647,645,644,641,635,630,627,626,626,626,626,626,626,626,626,626,626,626,626,626,626,626,626,626,626,626,626,626,626,626,626,626,626,626,626,626,626,626,626,626,626,626,626,626,626,626,626,626,626,626,626,626,626,626,626,626,626,626,626,626,626,626,626,626,626,626,626,626,626,626,626,626,626,626,626,626,626,626,626,626,626,626,626,626,626,622,607,592,570,513,486,463,437,416,365,349,338,328,320,300,286,269,252,231,184,165,151,139,125,114,92,80,67,52,35,19,15,13,12,9,9,9],"timestamp_mouse":[1,22,42,62,82,103,122,143,163,183,202,223,242,263,283,303,323,343,362,382,401,422,443,462,483,503,523,542,562,583,602,623,642,663,683,702,722,742,763,783,803,822,842,863,882,903,922,943,963,982,1001,1022,1042,1062,1083,1102,1121,1143,1162,1183,1202,1222,1243,1262,1283,1303,1322,1341,1363,1382,1403,1422,1442,1463,1483,1501,1522,1542,1562,1583,1603,1622,1643,1662,1681,1703,1722,1742,1761,1781,1802,1822,1842,1862,1882,1902,1922,1941,1962,1982,2002,2022,2041,2062,2082,2102,2122,2141,2162,2182,2202,2222,2241,2262,2282,2301,2321,2341,2362,2382,2401,2423,2441,2462],"xSR":741.5,"ySR":573.95,"xT1":424.9,"yT1":0,"xT2":1058.1,"yT2":0,"toosoon":0,"cond_shown":"Congruent","ratio_trial":100,"L_num":11,"L_den":22,"R_num":4,"R_den":10,"correct_side":1,"subjID":"MariaPaulaLeguizamon33","gender":"1","school":"4","age":"9"},{"start_time":1552327960603,"click_time":1552327962708,"finger_time":1552327962148,"fix_duration":1113.8823585972123,"trial":38,"RT":1545,"MT":560,"sideResp":1,"stimulus":[],"xmouse":[824,824,824,824,824,824,824,824,824,824,824,824,824,824,824,824,824,824,824,824,824,824,824,824,824,824,824,824,824,824,824,824,824,824,824,824,824,824,824,824,823,823,823,823,823,823,823,823,823,823,823,823,823,823,823,823,823,823,823,823,823,823,823,823,823,822,822,821,821,821,821,821,821,821,821,820,820,820,817,804,746,671,609,550,497,410,377,339,315,315,315,315,315,315,315,315,315,315,315,315,315,315,315,320,387,463],"ymouse":[603,603,603,603,603,603,603,603,603,603,603,603,603,603,603,603,603,603,603,603,603,603,603,603,603,603,603,603,603,603,603,603,603,603,603,603,603,603,603,602,602,601,601,601,601,601,601,601,601,601,601,601,601,601,601,601,601,601,601,601,601,601,601,601,601,601,601,601,600,600,600,600,600,600,600,596,587,572,551,520,438,361,309,255,202,89,39,0,0,0,0,0,0,0,0,0,0,0,0,0,0,0,0,1,28,50],"timestamp_mouse":[10,32,46,64,86,106,126,144,165,184,204,226,245,264,285,306,325,344,366,386,405,425,446,465,484,506,525,545,565,586,605,625,646,665,684,706,725,745,766,784,806,825,845,866,884,906,925,946,965,986,1005,1025,1046,1066,1086,1106,1125,1146,1165,1186,1205,1226,1245,1266,1285,1306,1324,1346,1365,1386,1405,1426,1445,1465,1484,1505,1524,1545,1565,1585,1604,1625,1644,1665,1685,1705,1725,1745,1765,1786,1806,1825,1846,1866,1885,1906,1925,1946,1966,1986,2005,2026,2045,2066,2086,2104],"xSR":741.5,"ySR":573.95,"xT1":424.9,"yT1":0,"xT2":1058.1,"yT2":0,"toosoon":0,"cond_shown":"Incongruent","ratio_trial":100,"L_num":9,"L_den":15,"R_num":14,"R_den":28,"correct_side":1,"subjID":"MariaPaulaLeguizamon33","gender":"1","school":"4","age":"9"},{"start_time":1552327964936,"click_time":1552327967128,"finger_time":1552327966567,"fix_duration":625.8835342823177,"trial":39,"RT":1631,"MT":561,"sideResp":2,"stimulus":[],"xmouse":[812,812,812,812,812,812,812,812,812,812,812,812,812,812,812,812,812,812,812,812,812,812,812,812,812,812,812,812,812,812,812,812,812,812,812,812,812,812,812,812,812,812,812,812,812,812,812,812,812,812,812,812,812,812,812,812,812,812,812,812,812,812,812,812,812,812,812,812,812,812,812,813,813,813,814,816,816,818,818,822,823,823,823,823,830,836,840,846,852,867,876,896,909,927,988,1026,1063,1097,1128,1170,1184,1198,1201,1201,1201,1201,1201,1199,1187,1106],"ymouse":[606,606,606,606,606,606,606,606,606,606,606,606,606,606,606,606,606,606,606,606,606,606,606,606,606,606,606,606,606,606,606,606,606,606,606,606,606,606,606,606,606,606,606,606,606,606,606,606,606,606,606,606,606,606,606,606,606,606,606,606,606,606,606,606,606,606,606,606,606,606,606,605,604,602,599,597,596,594,592,584,579,570,565,548,517,500,486,473,458,424,407,371,342,306,227,190,162,133,106,72,59,48,45,45,45,45,45,44,43,26],"timestamp_mouse":[12,36,53,72,91,112,133,152,171,192,211,233,253,273,293,313,332,351,373,393,413,432,452,473,492,512,532,551,572,592,613,631,651,672,692,713,731,753,773,793,813,833,852,873,893,911,933,953,973,993,1012,1033,1052,1072,1092,1111,1133,1152,1173,1192,1213,1231,1252,1272,1292,1313,1332,1353,1371,1393,1415,1432,1452,1472,1493,1512,1532,1553,1573,1592,1611,1631,1652,1672,1692,1712,1731,1752,1773,1791,1812,1832,1852,1872,1892,1912,1932,1952,1971,1992,2012,2032,2052,2072,2093,2112,2132,2151,2172,2192],"xSR":741.5,"ySR":573.95,"xT1":424.9,"yT1":0,"xT2":1058.1,"yT2":0,"toosoon":0,"cond_shown":"Incongruent","ratio_trial":100,"L_num":3,"L_den":6,"R_num":4,"R_den":10,"correct_side":1,"subjID":"MariaPaulaLeguizamon33","gender":"1","school":"4","age":"9"},{"start_time":1552327973237,"click_time":1552327975008,"finger_time":1552327974647,"fix_duration":427.7451101996862,"trial":40,"RT":1410,"MT":361,"sideResp":1,"stimulus":[],"xmouse":[813,814,814,814,814,814,814,814,814,814,814,814,814,814,814,814,814,814,814,814,814,814,814,814,815,815,815,815,815,815,815,815,815,815,815,815,815,815,815,815,815,815,816,816,816,816,816,816,816,816,816,816,816,816,816,816,816,816,816,816,816,816,816,816,816,816,816,817,819,826,826,824,811,793,751,692,667,651,635,613,606,598,589,578,570,546,537,525,506],"ymouse":[648,648,648,648,648,648,648,648,648,648,648,648,648,648,648,648,648,648,648,648,648,648,648,648,648,648,648,648,648,648,648,648,648,648,648,648,648,648,648,648,648,648,648,648,648,648,648,648,648,648,648,648,648,648,648,648,648,648,648,648,648,648,648,648,648,648,648,646,640,594,563,526,482,427,341,228,181,143,108,72,63,55,51,46,42,27,20,13,2],"timestamp_mouse":[11,36,51,71,91,111,130,152,171,192,212,231,252,271,291,312,332,352,372,391,412,432,452,471,491,511,532,552,571,592,612,632,650,672,692,712,732,751,771,792,812,832,851,872,892,912,932,950,972,992,1011,1032,1052,1071,1091,1112,1132,1151,1171,1192,1212,1232,1251,1270,1292,1311,1332,1351,1371,1392,1410,1431,1451,1471,1491,1512,1531,1552,1571,1592,1610,1631,1651,1672,1691,1711,1732,1751,1771],"xSR":741.5,"ySR":573.95,"xT1":424.9,"yT1":0,"xT2":1058.1,"yT2":0,"toosoon":0,"cond_shown":"Congruent","ratio_trial":100,"L_num":9,"L_den":15,"R_num":8,"R_den":16,"correct_side":1,"subjID":"MariaPaulaLeguizamon33","gender":"1","school":"4","age":"9"},{"start_time":1552327982002,"click_time":1552327983868,"finger_time":1552327983469,"fix_duration":250,"trial":41,"RT":1467,"MT":399,"sideResp":1,"stimulus":[],"xmouse":[808,808,808,808,808,808,808,808,808,808,808,808,808,808,808,808,808,808,808,808,808,808,808,808,808,808,808,808,808,808,808,808,808,808,808,808,808,808,808,808,808,808,808,808,808,808,808,808,808,808,808,808,808,808,808,808,808,808,808,808,808,808,808,808,808,808,808,808,808,808,808,808,808,800,790,772,747,667,637,608,574,563,553,548,548,547,543,538,534,534,534,532,530,523],"ymouse":[641,641,641,641,641,640,640,639,639,639,639,639,639,639,639,639,639,639,639,639,639,639,639,639,639,639,639,639,639,639,639,639,639,639,639,639,639,639,639,639,639,639,639,639,639,639,639,639,639,639,639,639,639,639,639,639,639,639,639,639,639,639,639,639,639,639,639,639,639,639,639,634,618,537,471,386,299,114,31,0,0,0,0,0,0,0,0,0,0,0,0,0,1,3],"timestamp_mouse":[10,31,47,66,87,106,126,146,166,186,207,225,247,267,286,306,326,345,367,387,406,425,447,467,487,506,526,547,566,587,605,626,647,666,686,707,725,746,767,787,807,826,847,866,886,907,927,945,965,987,1006,1026,1047,1066,1086,1107,1126,1146,1165,1187,1205,1226,1247,1267,1287,1306,1327,1346,1366,1386,1406,1427,1446,1467,1486,1507,1526,1547,1566,1587,1606,1626,1645,1665,1686,1707,1726,1747,1767,1786,1806,1827,1846,1866],"xSR":741.5,"ySR":573.95,"xT1":424.9,"yT1":0,"xT2":1058.1,"yT2":0,"toosoon":0,"cond_shown":"Incongruent","ratio_trial":100,"L_num":9,"L_den":15,"R_num":14,"R_den":28,"correct_side":1,"subjID":"MariaPaulaLeguizamon33","gender":"1","school":"4","age":"9"},{"start_time":1552327985808,"click_time":1552327987948,"finger_time":1552327987068,"fix_duration":479.4556296265091,"trial":42,"RT":1260,"MT":880,"sideResp":1,"stimulus":[],"xmouse":[766,769,769,781,784,788,792,792,792,792,792,792,792,792,792,792,792,792,792,792,792,792,792,792,792,792,792,792,792,792,792,792,792,792,792,792,792,792,792,792,792,792,792,792,792,792,792,792,792,792,792,792,792,792,792,792,792,792,792,792,792,792,791,785,778,772,764,757,748,746,744,741,738,720,707,696,683,672,651,637,627,620,617,615,614,613,613,613,607,599,591,580,566,538,526,516,509,504,497,495,495,495,493,490,489,488,487,486],"ymouse":[612,612,612,612,612,613,613,613,613,613,613,613,613,613,613,613,613,613,613,613,613,613,613,613,613,613,613,613,613,613,613,613,613,613,613,613,613,613,613,613,613,613,613,613,613,613,613,613,613,613,613,613,613,613,613,613,613,613,613,613,613,608,595,556,532,513,497,487,479,478,476,474,470,451,436,424,409,395,377,368,363,361,358,356,356,355,355,354,343,328,314,296,274,230,207,189,172,160,145,142,141,140,137,124,116,108,101,94],"timestamp_mouse":[1,29,40,60,79,100,121,139,160,179,201,220,241,260,279,301,321,339,361,380,400,421,441,461,480,501,521,539,561,580,601,620,640,661,681,699,721,741,761,781,799,821,841,861,880,901,921,941,961,981,999,1021,1040,1060,1081,1101,1120,1141,1161,1180,1200,1220,1240,1260,1280,1300,1320,1341,1360,1381,1400,1420,1440,1460,1479,1501,1520,1540,1559,1580,1599,1621,1641,1660,1681,1700,1721,1740,1760,1779,1800,1821,1841,1860,1880,1900,1920,1941,1960,1981,2000,2020,2041,2060,2079,2099,2121,2140],"xSR":741.5,"ySR":573.95,"xT1":424.9,"yT1":0,"xT2":1058.1,"yT2":0,"toosoon":0,"cond_shown":"Congruent","ratio_trial":300,"L_num":24,"L_den":30,"R_num":8,"R_den":16,"correct_side":1,"subjID":"MariaPaulaLeguizamon33","gender":"1","school":"4","age":"9"},{"start_time":1552327991596,"click_time":1552327993228,"finger_time":1552327992887,"fix_duration":1305.729221305907,"trial":43,"RT":1291,"MT":341,"sideResp":2,"stimulus":[],"xmouse":[811,811,811,811,811,811,811,811,811,811,811,811,811,811,811,811,811,811,811,811,811,811,811,811,811,811,811,811,811,811,811,811,811,811,811,811,811,811,811,811,811,811,811,811,811,811,811,811,811,811,811,811,811,811,811,811,811,811,811,811,811,813,815,826,861,882,903,926,936,946,951,954,959,964,985,1003,1033,1071,1109,1117,1122,1124],"ymouse":[641,641,641,641,641,641,641,641,641,641,641,641,641,641,641,641,641,641,641,641,641,641,641,641,641,641,641,641,641,641,641,641,641,641,641,641,641,641,641,641,641,641,641,641,641,641,641,641,641,641,641,641,641,641,641,641,641,641,641,641,641,640,636,617,557,526,489,446,424,389,374,361,348,335,295,268,229,185,134,117,104,93],"timestamp_mouse":[11,36,52,72,91,113,132,153,172,192,212,232,252,273,292,312,333,351,372,392,412,431,453,473,491,512,532,553,573,593,613,632,653,672,693,712,732,752,772,792,813,833,851,872,892,912,933,953,973,992,1012,1032,1052,1073,1091,1113,1133,1153,1172,1192,1212,1233,1252,1272,1291,1312,1332,1353,1372,1392,1413,1433,1452,1471,1491,1512,1532,1552,1573,1592,1612,1632],"xSR":741.5,"ySR":573.95,"xT1":424.9,"yT1":0,"xT2":1058.1,"yT2":0,"toosoon":0,"cond_shown":"Incongruent","ratio_trial":300,"L_num":13,"L_den":26,"R_num":12,"R_den":15,"correct_side":2,"subjID":"MariaPaulaLeguizamon33","gender":"1","school":"4","age":"9"},{"start_time":1552328004800,"click_time":1552328006248,"finger_time":1552328005869,"fix_duration":1169.9455261744288,"trial":44,"RT":1069,"MT":379,"sideResp":1,"stimulus":[],"xmouse":[788,788,788,788,789,789,789,789,789,789,789,789,789,789,789,789,789,789,789,789,789,789,789,789,789,789,789,789,789,789,789,789,789,789,789,789,789,789,789,789,789,789,789,789,789,789,789,789,789,789,789,789,789,789,789,786,781,774,755,744,698,674,655,647,614,592,555,542,531,524,517,517,514],"ymouse":[577,577,577,577,577,577,577,577,577,577,577,577,577,577,577,577,577,577,577,577,577,577,577,577,577,577,577,577,577,577,577,577,577,577,577,577,577,577,577,577,577,577,577,577,577,577,577,577,577,577,577,577,576,569,554,508,475,438,375,339,183,109,44,14,0,0,0,0,0,0,0,0,1],"timestamp_mouse":[10,35,49,68,87,108,127,149,168,188,208,229,249,269,289,308,328,349,369,389,409,428,448,468,489,508,528,547,569,589,608,628,649,669,689,709,727,749,768,788,809,828,848,869,888,908,928,947,968,989,1009,1029,1048,1069,1088,1108,1129,1148,1168,1189,1208,1229,1248,1269,1288,1308,1328,1347,1368,1388,1408,1427,1448],"xSR":741.5,"ySR":573.95,"xT1":424.9,"yT1":0,"xT2":1058.1,"yT2":0,"toosoon":0,"cond_shown":"Incongruent","ratio_trial":200,"L_num":1,"L_den":2,"R_num":3,"R_den":10,"correct_side":1,"subjID":"MariaPaulaLeguizamon33","gender":"1","school":"4","age":"9"},{"start_time":1552328008193,"click_time":1552328011268,"finger_time":1552328010789,"fix_duration":583.7918046810458,"trial":45,"RT":2596,"MT":479,"sideResp":2,"stimulus":[],"xmouse":[791,791,791,791,791,791,791,791,791,791,791,791,791,791,791,791,791,791,791,791,791,791,791,791,791,791,791,791,791,791,791,791,791,791,791,791,791,791,791,791,791,791,791,791,791,791,791,791,791,791,791,791,791,791,791,791,791,791,791,791,791,791,791,791,791,791,791,791,791,791,791,791,791,791,791,791,791,791,791,791,791,791,791,791,791,791,791,791,791,791,791,791,791,791,791,791,791,791,791,791,791,791,791,791,791,791,791,791,791,791,791,791,791,791,791,791,791,791,791,791,791,791,791,791,791,790,790,790,798,811,841,889,901,906,910,916,927,928,934,946,958,986,994,999,1002,1006,1011,1014,1019,1025,1034,1049,1056,1066],"ymouse":[609,609,609,609,609,609,609,609,609,609,609,609,609,609,609,609,609,609,609,609,609,609,609,609,609,609,609,609,609,609,609,609,609,609,609,609,609,609,609,609,609,609,609,609,609,609,609,609,609,609,609,609,609,609,609,609,609,609,609,609,609,609,609,609,609,609,609,609,609,609,609,609,609,609,609,609,609,609,609,609,609,609,609,609,609,609,609,609,609,609,609,609,609,609,609,609,609,609,609,609,609,609,609,609,609,609,609,609,609,609,609,609,609,609,609,609,609,609,609,609,609,609,609,609,609,609,605,594,574,557,518,446,423,399,376,353,309,294,279,261,247,222,211,198,187,175,157,148,132,121,106,81,70,59],"timestamp_mouse":[16,36,56,75,96,115,136,155,176,195,215,236,255,276,294,314,335,355,376,394,416,435,456,475,496,516,535,556,576,595,615,636,656,676,696,716,735,756,776,794,816,836,856,876,896,916,935,955,975,996,1016,1035,1056,1076,1095,1114,1135,1155,1175,1196,1216,1236,1255,1276,1295,1314,1335,1355,1376,1396,1415,1436,1456,1476,1496,1516,1536,1556,1575,1594,1616,1635,1655,1676,1695,1716,1736,1756,1776,1796,1815,1835,1855,1875,1896,1915,1935,1955,1975,1996,2016,2036,2054,2076,2096,2116,2135,2155,2175,2195,2216,2235,2255,2276,2296,2315,2335,2355,2376,2395,2414,2435,2454,2475,2495,2515,2535,2557,2575,2596,2615,2635,2655,2676,2695,2716,2735,2755,2775,2795,2815,2836,2855,2876,2895,2915,2935,2955,2975,2995,3015,3036,3055,3075],"xSR":741.5,"ySR":573.95,"xT1":424.9,"yT1":0,"xT2":1058.1,"yT2":0,"toosoon":0,"cond_shown":"Congruent","ratio_trial":300,"L_num":1,"L_den":30,"R_num":8,"R_den":24,"correct_side":2,"subjID":"MariaPaulaLeguizamon33","gender":"1","school":"4","age":"9"},{"start_time":1552328017021,"click_time":1552328018708,"finger_time":15523