[{"start_time":1552327375630,"click_time":1552327379940,"finger_time":1552327375656,"fix_duration":1245.3945569052275,"trial":0,"RT":26,"MT":4284,"sideResp":2,"stimulus":"img/500/equaldotanddens/R/1_Ratio_500_L_9_R_18.png","xmouse":[552,552,552,599,613,622,628,634,650,665,694,714,725,730,730,730,730,730,730,730,730,730,730,730,730,730,730,730,730,730,730,730,730,730,730,730,734,747,754,754,754,755,755,755,755,755,755,755,755,755,757,768,785,800,804,805,805,805,805,805,805,805,805,805,805,804,804,804,804,804,804,804,804,804,804,804,804,804,804,804,804,804,804,804,804,804,804,804,804,804,804,804,803,803,803,803,803,803,803,803,803,803,803,803,803,799,783,764,738,736,736,736,736,737,744,752,761,768,776,780,781,782,783,783,783,784,785,786,789,817,839,885,932,964,972,975,978,979,980,981,981,979,968,931,897,851,811,795,792,792,792,792,792,791,791,791,791,791,791,791,792,795,802,807,823,828,829,830,830,830,831,832,834,839,845,851,856,858,853,848,848,848,855,858,860,860,860,860,862,866,871,878,885,908,918,928,932,933,938,946,950,956,971,1005,1016,1021,1023,1023,1023,1025,1028,1033,1037,1045,1052,1063],"ymouse":[441,441,441,456,460,463,464,466,470,478,488,497,502,503,503,503,503,503,503,503,503,503,503,503,503,503,503,503,503,503,503,503,503,503,503,503,505,510,511,511,511,511,511,511,511,511,511,511,511,512,513,517,524,530,530,530,530,530,530,530,530,530,530,530,530,530,530,530,530,530,530,530,530,530,530,530,530,530,530,530,530,530,530,530,530,530,530,530,530,530,530,530,529,526,526,526,526,526,526,526,526,526,526,526,526,526,531,540,559,561,561,563,563,564,564,562,560,557,550,546,545,543,542,542,541,541,541,541,541,538,536,536,536,532,528,526,522,518,514,505,497,487,470,425,398,367,346,337,335,335,335,335,335,335,335,338,342,349,376,401,421,444,467,488,517,521,521,521,518,508,503,501,498,480,458,433,395,345,223,170,145,119,94,87,84,84,84,84,83,82,82,82,82,86,89,92,92,92,92,88,85,81,67,44,37,33,31,31,31,31,31,31,34,39,43,50],"timestamp_mouse":[25,30,49,69,90,109,128,149,169,190,209,230,249,268,290,310,330,350,369,390,410,429,450,469,489,510,529,550,569,590,610,629,650,670,688,709,729,749,770,789,810,829,849,869,890,910,929,950,970,989,1010,1030,1049,1068,1088,1110,1129,1150,1170,1189,1210,1229,1250,1270,1290,1309,1330,1349,1369,1390,1409,1429,1450,1469,1490,1510,1530,1550,1568,1590,1610,1629,1649,1669,1688,1710,1729,1749,1770,1790,1809,1830,1849,1869,1888,1909,1929,1948,1969,1990,2010,2029,2050,2069,2089,2110,2130,2150,2169,2189,2210,2229,2250,2269,2289,2310,2328,2349,2369,2390,2409,2430,2448,2469,2489,2509,2530,2549,2568,2590,2609,2629,2648,2669,2689,2709,2729,2749,2770,2790,2810,2829,2850,2870,2889,2909,2929,2949,2969,2990,3010,3030,3050,3069,3089,3110,3129,3149,3170,3189,3209,3230,3250,3269,3289,3310,3329,3349,3370,3390,3409,3429,3449,3470,3490,3510,3530,3550,3570,3588,3609,3630,3649,3669,3689,3710,3730,3749,3770,3789,3809,3829,3850,3870,3889,3909,3929,3949,3970,3989,4009,4030,4049,4070,4089,4109,4129,4149,4170,4190,4209,4229,4249,4270,4288,4309],"xSR":741.5,"ySR":469.95,"xT1":424.9,"yT1":0,"xT2":1058.1,"yT2":0,"toosoon":0,"cond_shown":"equaldotanddens","ratio_trial":500,"smaller_num":"9","larger_num":"18","correct_side":2,"subjID":"Nombre_Apellidos_NumeroLista","gender":"No_gender","age":"No_age","school":"No_school","test":{"fix_dur":[250,1500],"timestim":300,"targets_dim":[100,100],"targets_relative_coord":[0.3,0.7],"size_stim":[880,420],"start_dim":[100,100],"size_start":[300,300],"size_fix":60,"samplingrate":20,"img_types":["equaldotsize","equaldotanddens","randomdotsizeEA"],"ratios":[250,500,750,900],"rep_conds":9,"nTrials":120,"trials_to_rest":500,"Trials_order":[64,117,66,28,106,41,96,1,17,118,31,22,58,2,75,88,84,67,63,86,94,36,105,13,99,44,37,11,93,78,68,24,39,20,46,30,25,59,5,16,73,80,115,119,55,35,51,40,23,72,92,82,114,70,89,47,112,12,6,8,9,71,49,111,103,0,15,27,50,38,29,83,108,98,113,109,65,3,56,104,52,116,21,100,43,7,4,57,34,79,60,95,62,53,32,91,33,97,90,14,107,85,77,74,54,45,42,87,81,101,110,18,76,10,69,19,61,48,26,102],"cond_shown":["equaldotanddens","equaldotsize","equaldotsize","equaldotanddens","equaldotanddens","randomdotsizeEA","equaldotsize","equaldotanddens","randomdotsizeEA","equaldotanddens","equaldotanddens","equaldotanddens","equaldotanddens","randomdotsizeEA","equaldotsize","equaldotanddens","equaldotsize","equaldotanddens","equaldotsize","randomdotsizeEA","equaldotanddens","equaldotsize","equaldotsize","equaldotanddens","equaldotsize","randomdotsizeEA","equaldotanddens","randomdotsizeEA","equaldotsize","equaldotsize","randomdotsizeEA","equaldotsize","equaldotsize","randomdotsizeEA","equaldotanddens","equaldotsize","equaldotanddens","randomdotsizeEA","randomdotsizeEA","equaldotanddens","equaldotanddens","randomdotsizeEA","equaldotanddens","randomdotsizeEA","equaldotanddens","randomdotsizeEA","equaldotsize","equaldotanddens","randomdotsizeEA","equaldotsize","randomdotsizeEA","equaldotanddens","equaldotsize","equaldotanddens","randomdotsizeEA","randomdotsizeEA","equaldotanddens","equaldotsize","equaldotsize","randomdotsizeEA","equaldotsize","randomdotsizeEA","equaldotanddens","equaldotsize","equaldotanddens","equaldotsize","equaldotsize","equaldotsize","randomdotsizeEA","randomdotsizeEA","randomdotsizeEA","randomdotsizeEA","equaldotsize","randomdotsizeEA","randomdotsizeEA","equaldotanddens","randomdotsizeEA","equaldotsize","randomdotsizeEA","randomdotsizeEA","equaldotanddens","randomdotsizeEA","equaldotsize","equaldotanddens","equaldotanddens","equaldotanddens","equaldotanddens","equaldotsize","equaldotanddens","equaldotanddens","equaldotsize","randomdotsizeEA","randomdotsizeEA","randomdotsizeEA","randomdotsizeEA","equaldotanddens","equaldotsize","equaldotanddens","equaldotsize","randomdotsizeEA","randomdotsizeEA","equaldotanddens","randomdotsizeEA","randomdotsizeEA","equaldotsize","equaldotsize","equaldotsize","equaldotsize","equaldotsize","randomdotsizeEA","randomdotsizeEA","equaldotsize","equaldotanddens","equaldotanddens","equaldotsize","equaldotanddens","equaldotanddens","equaldotsize","randomdotsizeEA","equaldotsize"],"ratio_trial":[500,900,750,500,900,500,250,250,500,900,750,900,900,250,500,500,250,750,500,250,900,250,900,250,500,750,250,900,900,750,750,250,500,750,900,750,250,900,500,500,250,750,750,900,750,900,500,500,900,250,750,900,750,900,500,900,500,250,750,750,900,900,250,500,750,250,500,500,250,250,500,900,250,250,500,250,500,500,750,750,500,750,900,500,750,750,500,900,900,750,250,900,250,500,750,750,900,250,750,250,900,250,500,250,750,900,750,500,900,500,250,750,500,900,900,750,250,250,250,750],"smaller_num":["9","18","3","3","18","9","2","3","10","18","3","18","18","2","9","6","3","15","2","4","18","2","9","6","9","3","6","18","9","6","6","6","9","15","18","3","2","9","9","4","6","3","6","18","15","9","2","2","9","2","15","18","12","18","9","18","10","3","6","12","9","9","3","3","3","2","10","9","6","6","4","18","2","2","6","3","6","10","3","18","2","15","9","3","6","3","9","18","18","12","2","18","2","1","15","15","9","2","18","3","18","3","6","4","3","18","9","5","18","5","3","6","3","18","18","3","3","3","3","6"],"larger_num":["18","20","4","6","20","18","8","12","20","20","4","20","20","8","18","12","12","20","4","16","20","8","10","24","18","4","24","20","10","8","8","24","18","20","20","4","8","10","18","8","24","4","8","20","20","10","4","4","10","8","20","20","16","20","18","20","20","12","8","16","10","10","12","6","4","8","20","18","24","24","8","20","8","8","12","12","12","20","4","24","4","20","10","6","8","4","18","20","20","16","8","20","8","2","20","20","10","8","24","12","20","12","12","16","4","20","12","10","20","10","12","8","6","20","20","4","12","12","12","8"],"correct_side":[2,1,2,2,1,2,1,1,2,2,1,2,2,1,2,1,2,1,1,2,1,1,1,1,2,1,2,1,1,2,2,2,2,1,2,2,2,2,2,1,1,1,2,1,1,2,1,1,2,1,2,2,2,1,1,1,2,1,2,2,2,2,1,2,1,1,2,1,1,2,1,2,1,1,1,2,1,2,1,1,1,2,2,2,2,1,2,2,1,2,2,2,1,2,2,2,1,1,1,2,2,2,1,1,1,2,2,1,2,2,1,1,2,2,1,2,1,1,1,2],"img_shown":["img/500/equaldotanddens/R/1_Ratio_500_L_9_R_18.png","img/900/equaldotsize/L/10_Ratio_900_L_20_R_18.png","img/750/equaldotsize/R/7_Ratio_750_L_3_R_4.png","img/500/equaldotanddens/R/2_Ratio_500_L_3_R_6.png","img/900/equaldotanddens/L/2_Ratio_900_L_20_R_18.png","img/500/randomdotsizeEA/R/6_Ratio_500_L_9_R_18.png","img/250/equaldotsize/L/3_Ratio_250_L_8_R_2.png","img/250/equaldotanddens/L/14_Ratio_250_L_12_R_3.png","img/500/randomdotsizeEA/R/3_Ratio_500_L_10_R_20.png","img/900/equaldotanddens/R/9_Ratio_900_L_18_R_20.png","img/750/equaldotanddens/L/9_Ratio_750_L_4_R_3.png","img/900/equaldotanddens/R/11_Ratio_900_L_18_R_20.png","img/900/equaldotanddens/R/9_Ratio_900_L_18_R_20.png","img/250/randomdotsizeEA/L/7_Ratio_250_L_8_R_2.png","img/500/equaldotsize/R/6_Ratio_500_L_9_R_18.png","img/500/equaldotanddens/L/13_Ratio_500_L_12_R_6.png","img/250/equaldotsize/R/11_Ratio_250_L_3_R_12.png","img/750/equaldotanddens/L/1_Ratio_750_L_20_R_15.png","img/500/equaldotsize/L/5_Ratio_500_L_4_R_2.png","img/250/randomdotsizeEA/R/10_Ratio_250_L_4_R_16.png","img/900/equaldotanddens/L/2_Ratio_900_L_20_R_18.png","img/250/equaldotsize/L/1_Ratio_250_L_8_R_2.png","img/900/equaldotsize/L/1_Ratio_900_L_10_R_9.png","img/250/equaldotanddens/L/5_Ratio_250_L_24_R_6.png","img/500/equaldotsize/R/1_Ratio_500_L_9_R_18.png","img/750/randomdotsizeEA/L/8_Ratio_750_L_4_R_3.png","img/250/equaldotanddens/R/6_Ratio_250_L_6_R_24.png","img/900/randomdotsizeEA/L/2_Ratio_900_L_20_R_18.png","img/900/equaldotsize/L/1_Ratio_900_L_10_R_9.png","img/750/equaldotsize/R/2_Ratio_750_L_6_R_8.png","img/750/randomdotsizeEA/R/2_Ratio_750_L_6_R_8.png","img/250/equaldotsize/R/6_Ratio_250_L_6_R_24.png","img/500/equaldotsize/R/1_Ratio_500_L_9_R_18.png","img/750/randomdotsizeEA/L/1_Ratio_750_L_20_R_15.png","img/900/equaldotanddens/R/9_Ratio_900_L_18_R_20.png","img/750/equaldotsize/R/12_Ratio_750_L_3_R_4.png","img/250/equaldotanddens/R/13_Ratio_250_L_2_R_8.png","img/900/randomdotsizeEA/R/5_Ratio_900_L_9_R_10.png","img/500/randomdotsizeEA/R/1_Ratio_500_L_9_R_18.png","img/500/equaldotanddens/L/8_Ratio_500_L_8_R_4.png","img/250/equaldotanddens/L/5_Ratio_250_L_24_R_6.png","img/750/randomdotsizeEA/L/8_Ratio_750_L_4_R_3.png","img/750/equaldotanddens/R/2_Ratio_750_L_6_R_8.png","img/900/randomdotsizeEA/L/10_Ratio_900_L_20_R_18.png","img/750/equaldotanddens/L/1_Ratio_750_L_20_R_15.png","img/900/randomdotsizeEA/R/15_Ratio_900_L_9_R_10.png","img/500/equaldotsize/L/10_Ratio_500_L_4_R_2.png","img/500/equaldotanddens/L/5_Ratio_500_L_4_R_2.png","img/900/randomdotsizeEA/R/7_Ratio_900_L_9_R_10.png","img/250/equaldotsize/L/1_Ratio_250_L_8_R_2.png","img/750/randomdotsizeEA/R/4_Ratio_750_L_15_R_20.png","img/900/equaldotanddens/R/12_Ratio_900_L_18_R_20.png","img/750/equaldotsize/R/11_Ratio_750_L_12_R_16.png","img/900/equaldotanddens/L/4_Ratio_900_L_20_R_18.png","img/500/randomdotsizeEA/L/4_Ratio_500_L_18_R_9.png","img/900/randomdotsizeEA/L/2_Ratio_900_L_20_R_18.png","img/500/equaldotanddens/R/3_Ratio_500_L_10_R_20.png","img/250/equaldotsize/L/14_Ratio_250_L_12_R_3.png","img/750/equaldotsize/R/2_Ratio_750_L_6_R_8.png","img/750/randomdotsizeEA/R/11_Ratio_750_L_12_R_16.png","img/900/equaldotsize/R/15_Ratio_900_L_9_R_10.png","img/900/randomdotsizeEA/R/3_Ratio_900_L_9_R_10.png","img/250/equaldotanddens/L/15_Ratio_250_L_12_R_3.png","img/500/equaldotsize/R/2_Ratio_500_L_3_R_6.png","img/750/equaldotanddens/L/9_Ratio_750_L_4_R_3.png","img/250/equaldotsize/L/3_Ratio_250_L_8_R_2.png","img/500/equaldotsize/R/3_Ratio_500_L_10_R_20.png","img/500/equaldotsize/L/4_Ratio_500_L_18_R_9.png","img/250/randomdotsizeEA/L/5_Ratio_250_L_24_R_6.png","img/250/randomdotsizeEA/R/6_Ratio_250_L_6_R_24.png","img/500/randomdotsizeEA/L/8_Ratio_500_L_8_R_4.png","img/900/randomdotsizeEA/R/14_Ratio_900_L_18_R_20.png","img/250/equaldotsize/L/7_Ratio_250_L_8_R_2.png","img/250/randomdotsizeEA/L/3_Ratio_250_L_8_R_2.png","img/500/randomdotsizeEA/L/13_Ratio_500_L_12_R_6.png","img/250/equaldotanddens/R/4_Ratio_250_L_3_R_12.png","img/500/randomdotsizeEA/L/11_Ratio_500_L_12_R_6.png","img/500/equaldotsize/R/3_Ratio_500_L_10_R_20.png","img/750/randomdotsizeEA/L/10_Ratio_750_L_4_R_3.png","img/750/randomdotsizeEA/L/6_Ratio_750_L_24_R_18.png","img/500/equaldotanddens/L/10_Ratio_500_L_4_R_2.png","img/750/randomdotsizeEA/R/4_Ratio_750_L_15_R_20.png","img/900/equaldotsize/R/3_Ratio_900_L_9_R_10.png","img/500/equaldotanddens/R/2_Ratio_500_L_3_R_6.png","img/750/equaldotanddens/R/2_Ratio_750_L_6_R_8.png","img/750/equaldotanddens/L/8_Ratio_750_L_4_R_3.png","img/500/equaldotanddens/R/6_Ratio_500_L_9_R_18.png","img/900/equaldotsize/R/11_Ratio_900_L_18_R_20.png","img/900/equaldotanddens/L/10_Ratio_900_L_20_R_18.png","img/750/equaldotanddens/R/11_Ratio_750_L_12_R_16.png","img/250/equaldotsize/R/13_Ratio_250_L_2_R_8.png","img/900/randomdotsizeEA/R/14_Ratio_900_L_18_R_20.png","img/250/randomdotsizeEA/L/1_Ratio_250_L_8_R_2.png","img/500/randomdotsizeEA/R/15_Ratio_500_L_1_R_2.png","img/750/randomdotsizeEA/R/4_Ratio_750_L_15_R_20.png","img/750/equaldotanddens/R/5_Ratio_750_L_15_R_20.png","img/900/equaldotsize/L/1_Ratio_900_L_10_R_9.png","img/250/equaldotanddens/L/7_Ratio_250_L_8_R_2.png","img/750/equaldotsize/L/6_Ratio_750_L_24_R_18.png","img/250/randomdotsizeEA/R/4_Ratio_250_L_3_R_12.png","img/900/randomdotsizeEA/R/9_Ratio_900_L_18_R_20.png","img/250/equaldotanddens/R/4_Ratio_250_L_3_R_12.png","img/500/randomdotsizeEA/L/11_Ratio_500_L_12_R_6.png","img/250/randomdotsizeEA/L/2_Ratio_250_L_16_R_4.png","img/750/equaldotsize/L/10_Ratio_750_L_4_R_3.png","img/900/equaldotsize/R/11_Ratio_900_L_18_R_20.png","img/750/equaldotsize/R/15_Ratio_750_L_9_R_12.png","img/500/equaldotsize/L/7_Ratio_500_L_10_R_5.png","img/900/equaldotsize/R/12_Ratio_900_L_18_R_20.png","img/500/randomdotsizeEA/R/14_Ratio_500_L_5_R_10.png","img/250/randomdotsizeEA/L/14_Ratio_250_L_12_R_3.png","img/750/equaldotsize/L/13_Ratio_750_L_8_R_6.png","img/500/equaldotanddens/R/2_Ratio_500_L_3_R_6.png","img/900/equaldotanddens/R/14_Ratio_900_L_18_R_20.png","img/900/equaldotsize/L/2_Ratio_900_L_20_R_18.png","img/750/equaldotanddens/R/12_Ratio_750_L_3_R_4.png","img/250/equaldotanddens/L/14_Ratio_250_L_12_R_3.png","img/250/equaldotsize/L/14_Ratio_250_L_12_R_3.png","img/250/randomdotsizeEA/L/15_Ratio_250_L_12_R_3.png","img/750/equaldotsize/R/2_Ratio_750_L_6_R_8.png"],"Rat0":[["12_Ratio_0_L_9_R_0.png","13_Ratio_0_L_6_R_0.png","5_Ratio_0_L_2_R_0.png","6_Ratio_0_L_4_R_0.png","8_Ratio_0_L_6_R_0.png"],["1_Ratio_0_L_0_R_17.png","10_Ratio_0_L_0_R_22.png","11_Ratio_0_L_0_R_1.png","14_Ratio_0_L_0_R_24.png","15_Ratio_0_L_0_R_4.png","2_Ratio_0_L_0_R_5.png","3_Ratio_0_L_0_R_17.png","4_Ratio_0_L_0_R_7.png","7_Ratio_0_L_0_R_19.png","9_Ratio_0_L_0_R_15.png"]],"Rat250":[["1_Ratio_250_L_8_R_2.png","14_Ratio_250_L_12_R_3.png","15_Ratio_250_L_12_R_3.png","2_Ratio_250_L_16_R_4.png","3_Ratio_250_L_8_R_2.png","5_Ratio_250_L_24_R_6.png","7_Ratio_250_L_8_R_2.png"],["10_Ratio_250_L_4_R_16.png","11_Ratio_250_L_3_R_12.png","12_Ratio_250_L_5_R_20.png","13_Ratio_250_L_2_R_8.png","4_Ratio_250_L_3_R_12.png","6_Ratio_250_L_6_R_24.png","8_Ratio_250_L_1_R_4.png","9_Ratio_250_L_3_R_12.png"]],"Rat500":[["10_Ratio_500_L_4_R_2.png","11_Ratio_500_L_12_R_6.png","13_Ratio_500_L_12_R_6.png","4_Ratio_500_L_18_R_9.png","5_Ratio_500_L_4_R_2.png","7_Ratio_500_L_10_R_5.png","8_Ratio_500_L_8_R_4.png"],["1_Ratio_500_L_9_R_18.png","12_Ratio_500_L_1_R_2.png","14_Ratio_500_L_5_R_10.png","15_Ratio_500_L_1_R_2.png","2_Ratio_500_L_3_R_6.png","3_Ratio_500_L_10_R_20.png","6_Ratio_500_L_9_R_18.png","9_Ratio_500_L_2_R_4.png"]],"Rat750":[["1_Ratio_750_L_20_R_15.png","10_Ratio_750_L_4_R_3.png","13_Ratio_750_L_8_R_6.png","14_Ratio_750_L_8_R_6.png","6_Ratio_750_L_24_R_18.png","8_Ratio_750_L_4_R_3.png","9_Ratio_750_L_4_R_3.png"],["11_Ratio_750_L_12_R_16.png","12_Ratio_750_L_3_R_4.png","15_Ratio_750_L_9_R_12.png","2_Ratio_750_L_6_R_8.png","3_Ratio_750_L_15_R_20.png","4_Ratio_750_L_15_R_20.png","5_Ratio_750_L_15_R_20.png","7_Ratio_750_L_3_R_4.png"]],"Rat900":[["1_Ratio_900_L_10_R_9.png","10_Ratio_900_L_20_R_18.png","2_Ratio_900_L_20_R_18.png","4_Ratio_900_L_20_R_18.png","8_Ratio_900_L_20_R_18.png"],["11_Ratio_900_L_18_R_20.png","12_Ratio_900_L_18_R_20.png","13_Ratio_900_L_18_R_20.png","14_Ratio_900_L_18_R_20.png","15_Ratio_900_L_9_R_10.png","3_Ratio_900_L_9_R_10.png","5_Ratio_900_L_9_R_10.png","6_Ratio_900_L_9_R_10.png","7_Ratio_900_L_9_R_10.png","9_Ratio_900_L_18_R_20.png"]],"Rat1000":[["10_Ratio_1000_L_16_R_16.png","11_Ratio_1000_L_6_R_6.png","12_Ratio_1000_L_14_R_14.png","13_Ratio_1000_L_20_R_20.png","15_Ratio_1000_L_15_R_15.png","2_Ratio_1000_L_17_R_17.png","4_Ratio_1000_L_9_R_9.png","5_Ratio_1000_L_6_R_6.png","6_Ratio_1000_L_19_R_19.png","8_Ratio_1000_L_14_R_14.png","9_Ratio_1000_L_25_R_25.png"],["1_Ratio_1000_L_1_R_1.png","14_Ratio_1000_L_17_R_17.png","3_Ratio_1000_L_17_R_17.png","7_Ratio_1000_L_6_R_6.png"]]}},{"start_time":1552327381920,"click_time":1552327383460,"finger_time":1552327382919,"fix_duration":360.8893569532223,"trial":1,"RT":999,"MT":541,"sideResp":2,"stimulus":"img/900/equaldotsize/L/10_Ratio_900_L_20_R_18.png","xmouse":[767,767,768,769,770,770,770,770,770,770,772,774,775,777,777,777,777,777,777,777,777,777,777,777,777,777,777,777,777,777,777,777,777,777,777,777,777,777,777,777,777,777,777,777,778,778,784,791,809,857,876,887,891,891,891,891,891,891,891,891,890,888,886,886,886,886,885,885,886,892,897,908,926,954,1040,1076,1093],"ymouse":[500,500,500,500,500,500,500,500,500,500,500,500,500,502,502,502,502,502,502,502,502,502,502,502,502,502,502,502,502,502,502,502,502,502,502,502,502,502,502,502,502,502,502,502,502,502,502,496,479,406,367,336,321,313,313,313,313,313,313,312,312,312,312,312,312,312,311,309,305,291,277,260,242,221,154,115,86],"timestamp_mouse":[32,40,59,79,99,119,139,160,180,199,219,239,259,280,299,319,340,359,379,399,420,440,460,480,500,519,540,559,580,600,619,640,660,679,700,720,739,760,780,799,820,839,860,879,900,919,938,959,979,999,1019,1040,1060,1079,1098,1120,1140,1159,1179,1199,1220,1239,1260,1279,1300,1319,1339,1360,1380,1399,1419,1439,1460,1479,1498,1519,1540],"xSR":741.5,"ySR":469.95,"xT1":424.9,"yT1":0,"xT2":1058.1,"yT2":0,"toosoon":0,"cond_shown":"equaldotsize","ratio_trial":900,"smaller_num":"18","larger_num":"20","correct_side":1,"subjID":"Nombre_Apellidos_NumeroLista","gender":"No_gender","age":"No_age","school":"No_school"},{"start_time":1552327389328,"click_time":1552327390640,"finger_time":1552327390259,"fix_duration":1466.3340676230866,"trial":2,"RT":931,"MT":381,"sideResp":1,"stimulus":"img/750/equaldotsize/R/7_Ratio_750_L_3_R_4.png","xmouse":[761,761,761,761,761,761,761,761,761,761,761,761,761,761,761,761,761,761,761,761,761,761,761,761,761,761,761,761,761,761,761,761,761,761,761,761,761,761,761,761,761,762,763,764,765,765,759,751,736,709,598,564,564,564,564,564,564,564,564,564,564,564,564,564,564,498],"ymouse":[533,533,533,533,533,533,533,533,533,533,533,533,533,533,533,533,533,533,533,533,533,533,533,533,533,533,533,533,533,533,533,533,533,533,533,533,533,533,533,533,533,533,531,528,520,486,463,432,370,275,54,10,10,10,10,10,10,10,10,10,10,10,10,10,10,7],"timestamp_mouse":[12,36,52,71,92,112,131,152,171,192,212,232,252,272,292,311,330,352,371,392,412,432,452,472,492,511,532,551,571,592,610,631,652,671,692,712,732,751,772,792,811,831,851,870,891,911,931,951,970,992,1011,1032,1052,1072,1092,1111,1131,1151,1171,1191,1211,1232,1251,1271,1292,1311],"xSR":741.5,"ySR":469.95,"xT1":424.9,"yT1":0,"xT2":1058.1,"yT2":0,"toosoon":0,"cond_shown":"equaldotsize","ratio_trial":750,"smaller_num":"3","larger_num":"4","correct_side":2,"subjID":"Nombre_Apellidos_NumeroLista","gender":"No_gender","age":"No_age","school":"No_school"},{"start_time":1552327394905,"click_time":1552327396719,"finger_time":1552327396100,"fix_duration":1004.0130807500698,"trial":3,"RT":1195,"MT":619,"sideResp":2,"stimulus":"img/500/equaldotanddens/R/2_Ratio_500_L_3_R_6.png","xmouse":[756,757,757,757,757,757,757,757,757,757,757,757,757,757,757,757,757,757,757,757,757,757,757,757,757,757,757,757,757,757,757,757,757,757,757,757,757,757,757,757,757,757,757,757,757,757,757,757,757,757,757,757,757,757,757,757,758,758,750,741,717,671,671,674,682,694,713,722,728,733,739,750,760,775,796,822,906,935,953,968,977,986,990,996,1001,1008,1031,1039,1047,1057,1067],"ymouse":[544,544,544,544,544,544,544,544,544,544,544,544,544,544,544,544,544,544,544,544,544,544,544,544,544,544,544,544,544,544,544,544,544,544,544,544,544,544,544,544,544,544,544,544,544,544,544,544,544,544,544,544,544,544,544,544,543,537,521,504,469,389,385,365,341,319,294,288,286,284,284,282,280,277,271,264,241,231,226,221,216,212,208,203,194,186,159,147,133,109,85],"timestamp_mouse":[15,34,55,75,95,115,135,154,175,194,215,235,254,275,295,314,333,355,374,394,414,434,455,475,493,515,533,554,575,594,615,634,654,675,694,714,734,754,774,793,815,834,855,875,894,915,934,955,974,994,1014,1033,1055,1075,1094,1115,1134,1153,1174,1195,1215,1234,1254,1274,1295,1315,1335,1355,1375,1394,1415,1434,1454,1474,1494,1514,1535,1554,1574,1594,1615,1635,1654,1674,1695,1715,1735,1754,1774,1794,1814],"xSR":741.5,"ySR":469.95,"xT1":424.9,"yT1":0,"xT2":1058.1,"yT2":0,"toosoon":0,"cond_shown":"equaldotanddens","ratio_trial":500,"smaller_num":"3","larger_num":"6","correct_side":2,"subjID":"Nombre_Apellidos_NumeroLista","gender":"No_gender","age":"No_age","school":"No_school"},{"start_time":1552327400212,"click_time":1552327401240,"finger_time":1552327400619,"fix_duration":911.95186580908,"trial":4,"RT":407,"MT":621,"sideResp":1,"stimulus":"img/900/equaldotanddens/L/2_Ratio_900_L_20_R_18.png","xmouse":[804,803,801,801,800,800,800,800,800,800,800,800,800,800,800,800,800,799,792,783,768,744,673,639,618,604,595,592,592,592,591,586,574,565,562,555,553,548,547,545,545,542,542,542,542,542,542,542,542,526,507,490],"ymouse":[541,539,534,530,527,521,515,513,513,513,513,513,512,512,512,512,509,503,491,477,460,430,341,307,279,256,240,233,233,232,231,220,190,172,165,156,152,149,149,149,149,149,149,149,149,149,149,149,144,127,111,95],"timestamp_mouse":[8,31,47,67,88,108,128,147,168,187,208,228,248,267,287,306,326,347,368,386,407,427,447,467,488,508,526,548,568,587,608,627,647,667,688,708,727,747,768,788,807,828,847,867,888,908,928,946,966,987,1007,1028],"xSR":741.5,"ySR":469.95,"xT1":424.9,"yT1":0,"xT2":1058.1,"yT2":0,"toosoon":0,"cond_shown":"equaldotanddens","ratio_trial":900,"smaller_num":"18","larger_num":"20","correct_side":1,"subjID":"Nombre_Apellidos_NumeroLista","gender":"No_gender","age":"No_age","school":"No_school"},{"start_time":1552327403751,"click_time":1552327404480,"finger_time":1552327404159,"fix_duration":930.1689292362144,"trial":5,"RT":408,"MT":321,"sideResp":1,"stimulus":"img/500/randomdotsizeEA/R/6_Ratio_500_L_9_R_18.png","xmouse":[789,789,789,789,789,789,789,789,789,789,789,789,789,789,789,789,789,789,786,779,750,734,713,699,685,676,654,641,625,606,572,549,536,528,516,507,503],"ymouse":[522,522,522,522,522,522,522,522,522,522,522,522,522,522,522,522,520,514,501,486,442,419,389,370,354,341,313,298,274,250,193,159,142,130,115,101,98],"timestamp_mouse":[18,37,48,69,89,108,129,148,168,189,207,228,248,268,289,308,328,349,368,389,408,428,448,468,488,508,528,549,568,588,609,628,648,669,688,709,728],"xSR":741.5,"ySR":469.95,"xT1":424.9,"yT1":0,"xT2":1058.1,"yT2":0,"toosoon":0,"cond_shown":"randomdotsizeEA","ratio_trial":500,"smaller_num":"9","larger_num":"18","correct_side":2,"subjID":"Nombre_Apellidos_NumeroLista","gender":"No_gender","age":"No_age","school":"No_school"},{"start_time":1552327413531,"click_time":1552327415439,"finger_time":1552327414540,"fix_duration":250,"trial":6,"RT":1009,"MT":899,"sideResp":1,"stimulus":"img/250/equaldotsize/L/3_Ratio_250_L_8_R_2.png","xmouse":[786,786,786,786,786,786,786,786,786,786,786,786,786,786,786,786,786,786,786,786,786,786,786,786,786,786,786,786,786,786,786,786,786,786,786,786,786,786,786,786,786,786,786,786,786,786,786,786,786,791,799,815,834,858,868,873,877,878,878,878,873,853,740,665,594,565,558,558,558,558,558,558,558,561,565,571,576,582,584,584,584,584,584,577,576,576,576,576,579,581,585,590,593,593,555,470],"ymouse":[554,554,554,554,554,554,554,554,554,554,554,554,554,554,554,554,554,554,554,554,554,554,554,554,554,554,554,554,554,554,554,554,554,554,554,554,554,554,554,554,554,554,554,554,554,554,550,523,507,483,457,417,376,335,320,311,304,302,301,300,294,287,241,212,191,181,180,180,179,179,179,179,179,179,178,177,176,175,173,169,165,159,154,146,145,145,145,144,140,137,133,127,120,94,58,11],"timestamp_mouse":[12,29,49,69,88,108,129,148,168,189,209,228,249,268,289,309,329,348,369,388,408,427,449,468,489,508,529,549,569,588,608,628,649,669,688,708,729,749,769,789,809,829,848,869,888,908,928,948,968,988,1009,1029,1049,1068,1088,1108,1128,1148,1168,1188,1209,1228,1248,1268,1289,1309,1328,1349,1368,1389,1407,1428,1448,1468,1488,1508,1527,1548,1568,1588,1608,1629,1649,1668,1689,1708,1729,1749,1768,1788,1808,1829,1849,1868,1889,1907],"xSR":741.5,"ySR":469.95,"xT1":424.9,"yT1":0,"xT2":1058.1,"yT2":0,"toosoon":0,"cond_shown":"equaldotsize","ratio_trial":250,"smaller_num":"2","larger_num":"8","correct_side":1,"subjID":"Nombre_Apellidos_NumeroLista","gender":"No_gender","age":"No_age","school":"No_school"},{"start_time":1552327418213,"click_time":1552327419960,"finger_time":1552327419199,"fix_duration":352.6256121689515,"trial":7,"RT":986,"MT":761,"sideResp":1,"stimulus":"img/250/equaldotanddens/L/14_Ratio_250_L_12_R_3.png","xmouse":[784,784,784,784,784,783,783,782,782,782,782,781,781,781,780,779,779,779,779,779,779,779,779,779,779,779,779,779,778,773,770,767,767,767,767,767,767,767,767,767,767,767,767,767,767,767,767,766,763,712,663,539,393,393,393,393,393,393,393,393,393,393,393,393,393,393,393,393,393,393,393,393,393,393,206,233,255,273,287,296,300,304,307,314,356,391,415,438],"ymouse":[535,535,535,535,535,535,535,535,535,535,535,534,534,534,533,533,533,533,533,533,533,533,533,533,533,533,533,533,532,527,524,522,522,522,522,522,522,522,522,522,522,522,522,522,522,522,522,521,509,399,324,190,60,60,60,60,60,60,60,60,60,60,60,60,60,60,60,60,60,60,60,60,60,60,6,17,25,32,38,40,40,40,40,41,56,71,81,90],"timestamp_mouse":[11,28,46,67,87,106,127,147,166,187,206,226,247,267,285,307,326,346,366,385,406,426,446,467,487,506,526,547,566,586,606,625,647,666,687,706,727,747,766,787,807,826,847,866,887,906,926,946,966,986,1005,1026,1046,1066,1086,1106,1127,1147,1167,1186,1206,1226,1247,1267,1287,1306,1327,1346,1367,1387,1406,1426,1446,1466,1486,1506,1526,1547,1566,1586,1606,1626,1646,1667,1686,1706,1726,1747],"xSR":741.5,"ySR":469.95,"xT1":424.9,"yT1":0,"xT2":1058.1,"yT2":0,"toosoon":0,"cond_shown":"equaldotanddens","ratio_trial":250,"smaller_num":"3","larger_num":"12","correct_side":1,"subjID":"Nombre_Apellidos_NumeroLista","gender":"No_gender","age":"No_age","school":"No_school"},{"start_time":1552327422965,"click_time":1552327424961,"finger_time":1552327424002,"fix_duration":1363.4855508623173,"trial":8,"RT":1037,"MT":959,"sideResp":2,"stimulus":"img/500/randomdotsizeEA/R/3_Ratio_500_L_10_R_20.png","xmouse":[790,790,790,790,790,790,790,790,790,790,790,790,790,790,790,790,790,790,790,790,790,790,790,790,790,790,790,790,790,790,790,790,790,790,790,790,790,790,790,790,790,790,790,790,790,790,790,790,790,790,791,795,800,805,809,814,818,824,827,828,831,847,860,885,915,942,968,968,968,968,968,968,968,968,968,968,968,968,968,968,968,968,968,968,968,968,968,968,968,968,968,968,968,968,968,968,968,968,968,1099],"ymouse":[524,524,524,524,524,524,524,524,524,524,524,524,524,524,524,524,524,524,524,524,524,524,524,524,524,524,524,524,524,524,524,524,524,524,524,524,524,524,524,524,524,524,524,524,524,524,524,524,524,517,504,444,427,411,395,384,375,363,360,356,352,328,302,243,168,91,12,12,12,12,12,12,12,12,12,12,12,12,12,12,12,12,12,12,12,12,12,12,12,12,12,12,12,12,12,12,12,12,12,6],"timestamp_mouse":[18,36,56,77,95,115,136,155,176,195,217,235,255,276,297,316,336,355,375,396,417,436,455,477,495,516,535,557,576,596,615,635,656,676,696,717,735,756,775,795,816,836,857,876,896,916,936,957,976,996,1016,1037,1055,1075,1096,1116,1135,1156,1176,1196,1217,1237,1255,1276,1297,1315,1336,1355,1376,1397,1416,1436,1457,1477,1496,1516,1536,1555,1575,1596,1616,1636,1655,1676,1696,1716,1735,1755,1776,1796,1815,1836,1855,1876,1895,1916,1936,1956,1976,1995],"xSR":741.5,"ySR":469.95,"xT1":424.9,"yT1":0,"xT2":1058.1,"yT2":0,"toosoon":0,"cond_shown":"randomdotsizeEA","ratio_trial":500,"smaller_num":"10","larger_num":"20","correct_side":2,"subjID":"Nombre_Apellidos_NumeroLista","gender":"No_gender","age":"No_age","school":"No_school"},{"start_time":1552327426572,"click_time":1552327428341,"finger_time":1552327427720,"fix_duration":250,"trial":9,"RT":1148,"MT":621,"sideResp":2,"stimulus":"img/900/equaldotanddens/R/9_Ratio_900_L_18_R_20.png","xmouse":[826,826,826,826,826,826,826,826,826,826,826,826,826,826,826,826,826,826,826,826,826,826,826,826,826,826,826,826,826,826,826,826,826,826,826,826,826,826,826,826,826,826,826,826,826,826,826,826,826,826,826,826,826,826,824,829,836,851,858,863,863,864,864,864,866,869,875,894,908,938,955,964,980,985,993,1000,1004,1010,1012,1013,1014,1014,1015,1019,1024,1030,1040,1067,1079],"ymouse":[533,533,533,533,533,533,533,533,533,533,533,533,533,533,533,533,533,533,533,533,533,533,533,533,533,533,533,533,533,533,533,533,533,533,533,533,533,533,533,533,533,533,533,533,533,533,533,533,533,533,533,533,533,533,531,513,497,465,452,443,443,442,442,442,441,440,434,412,391,345,313,295,259,242,225,210,199,179,171,168,167,166,164,159,152,144,133,100,84],"timestamp_mouse":[10,28,48,70,89,108,128,148,169,188,210,228,249,268,289,308,328,349,369,389,409,430,450,469,489,509,529,548,568,589,609,629,649,668,689,709,730,748,768,789,810,828,849,869,889,908,928,949,968,988,1010,1029,1049,1069,1089,1110,1128,1148,1169,1188,1209,1228,1248,1269,1289,1308,1328,1348,1369,1389,1409,1428,1448,1469,1490,1509,1530,1549,1568,1589,1609,1628,1648,1669,1689,1709,1729,1749,1769],"xSR":741.5,"ySR":469.95,"xT1":424.9,"yT1":0,"xT2":1058.1,"yT2":0,"toosoon":0,"cond_shown":"equaldotanddens","ratio_trial":900,"smaller_num":"18","larger_num":"20","correct_side":2,"subjID":"Nombre_Apellidos_NumeroLista","gender":"No_gender","age":"No_age","school":"No_school"},{"start_time":1552327432371,"click_time":1552327433540,"finger_time":1552327433321,"fix_duration":288.7763907063278,"trial":10,"RT":950,"MT":219,"sideResp":1,"stimulus":"img/750/equaldotanddens/L/9_Ratio_750_L_4_R_3.png","xmouse":[782,782,782,782,782,782,782,782,782,782,782,782,782,782,782,782,782,782,782,782,782,782,782,782,782,782,782,782,782,782,782,782,782,782,782,782,782,782,782,782,782,782,782,782,782,770,760,676,591,548,515,493,476,449,434,422,420,420,439],"ymouse":[537,537,537,537,537,537,537,537,537,537,537,537,537,537,537,537,537,537,537,537,537,537,537,537,537,537,537,537,537,537,537,537,537,537,537,537,537,537,537,537,537,537,537,537,537,528,523,461,405,368,336,312,286,219,172,124,90,85,70],"timestamp_mouse":[11,29,51,70,89,111,130,149,179,189,209,231,250,269,291,310,329,349,370,390,409,430,450,471,489,510,529,550,570,589,609,631,649,670,690,709,730,750,771,789,810,830,850,869,889,910,931,950,969,990,1010,1029,1049,1069,1089,1111,1130,1150,1169],"xSR":741.5,"ySR":469.95,"xT1":424.9,"yT1":0,"xT2":1058.1,"yT2":0,"toosoon":0,"cond_shown":"equaldotanddens","ratio_trial":750,"smaller_num":"3","larger_num":"4","correct_side":1,"subjID":"Nombre_Apellidos_NumeroLista","gender":"No_gender","age":"No_age","school":"No_school"},{"start_time":1552327436557,"click_time":1552327438121,"finger_time":1552327437381,"fix_duration":1135.8778725247214,"trial":11,"RT":824,"MT":740,"sideResp":2,"stimulus":"img/900/equaldotanddens/R/11_Ratio_900_L_18_R_20.png","xmouse":[800,800,800,800,800,800,800,800,800,800,800,800,800,800,800,800,800,800,800,800,800,800,800,800,800,800,800,800,800,800,800,800,800,800,800,800,800,799,798,798,798,798,798,798,791,780,767,767,767,767,767,767,767,767,767,767,767,767,767,767,767,767,767,767,767,767,767,767,767,767,767,767,767,767,767,767,767,1058,1070],"ymouse":[534,534,534,534,534,534,534,534,534,534,534,534,534,534,534,534,534,534,534,534,534,534,534,534,534,534,530,525,520,509,507,505,504,502,494,489,484,478,476,474,471,464,448,424,308,224,137,26,26,26,26,26,26,26,26,26,26,26,26,26,26,26,26,26,26,26,26,26,26,26,26,26,26,26,26,26,26,12,29],"timestamp_mouse":[11,28,44,64,83,104,124,145,163,183,205,223,244,263,285,304,323,343,363,385,405,423,443,464,483,504,524,544,564,583,603,624,643,663,684,704,724,743,763,784,803,824,844,863,883,905,925,945,965,984,1003,1023,1043,1064,1083,1103,1124,1143,1163,1185,1205,1223,1244,1265,1284,1305,1324,1343,1363,1383,1403,1424,1443,1464,1484,1503,1523,1544,1563],"xSR":741.5,"ySR":469.95,"xT1":424.9,"yT1":0,"xT2":1058.1,"yT2":0,"toosoon":0,"cond_shown":"equaldotanddens","ratio_trial":900,"smaller_num":"18","larger_num":"20","correct_side":2,"subjID":"Nombre_Apellidos_NumeroLista","gender":"No_gender","age":"No_age","school":"No_school"},{"start_time":1552327440269,"click_time":1552327441361,"finger_time":1552327440661,"fix_duration":826.3446969769233,"trial":12,"RT":392,"MT":700,"sideResp":1,"stimulus":"img/900/equaldotanddens/R/9_Ratio_900_L_18_R_20.png","xmouse":[775,775,775,775,775,775,775,775,775,775,775,775,775,775,775,775,775,775,775,744,663,549,416,295,295,295,295,295,295,295,295,295,295,295,295,295,295,295,295,295,295,322,338,364,374,381,389,398,400,401,401,402,406,420,428],"ymouse":[505,505,505,505,505,505,505,505,505,505,505,505,505,505,505,505,505,505,505,457,365,255,132,19,19,19,19,19,19,19,19,19,19,19,19,19,19,19,19,19,19,14,24,37,42,44,48,51,52,52,52,52,52,56,59],"timestamp_mouse":[18,34,51,71,91,113,131,152,172,192,212,232,252,272,293,312,332,352,371,392,412,431,453,472,491,513,532,553,573,592,612,633,652,672,692,711,731,751,772,792,811,832,852,873,891,912,932,952,972,992,1012,1031,1052,1073,1092],"xSR":741.5,"ySR":469.95,"xT1":424.9,"yT1":0,"xT2":1058.1,"yT2":0,"toosoon":0,"cond_shown":"equaldotanddens","ratio_trial":900,"smaller_num":"18","larger_num":"20","correct_side":2,"subjID":"Nombre_Apellidos_NumeroLista","gender":"No_gender","age":"No_age","school":"No_school"},{"start_time":1552327444040,"click_time":1552327445460,"finger_time":1552327444382,"fix_duration":256.93227096067375,"trial":13,"RT":342,"MT":1078,"sideResp":2,"stimulus":"img/250/randomdotsizeEA/L/7_Ratio_250_L_8_R_2.png","xmouse":[799,800,800,800,800,800,800,800,800,794,789,773,773,773,773,773,773,773,773,773,773,769,767,767,767,767,767,767,768,768,768,768,768,768,768,768,768,768,768,768,768,768,768,768,769,769,777,785,803,819,830,856,862,865,866,866,867,867,872,880,893,962,995,1014,1033,1045,1058,1062,1066,1067,1068,1073],"ymouse":[497,496,495,494,493,493,493,493,492,486,481,470,470,470,470,470,470,469,459,455,444,422,415,413,412,410,409,409,408,408,407,406,406,406,406,406,406,406,406,406,406,406,406,406,404,401,383,368,334,306,285,246,238,234,232,232,231,231,225,220,212,185,170,158,142,130,113,109,104,103,101,96],"timestamp_mouse":[1,29,42,62,82,101,122,140,160,181,201,220,242,262,280,300,320,342,361,382,401,421,441,461,481,501,520,540,560,581,601,620,640,662,681,701,720,740,761,782,801,820,841,861,881,900,920,941,961,982,1001,1020,1041,1061,1081,1101,1121,1141,1160,1181,1201,1221,1240,1261,1281,1301,1320,1341,1361,1381,1401,1420],"xSR":741.5,"ySR":469.95,"xT1":424.9,"yT1":0,"xT2":1058.1,"yT2":0,"toosoon":0,"cond_shown":"randomdotsizeEA","ratio_trial":250,"smaller_num":"2","larger_num":"8","correct_side":1,"subjID":"Nombre_Apellidos_NumeroLista","gender":"No_gender","age":"No_age","school":"No_school"},{"start_time":1552327467828,"click_time":1552327469761,"finger_time":1552327468802,"fix_duration":1126.5997242988099,"trial":14,"RT":974,"MT":959,"sideResp":2,"stimulus":"img/500/equaldotsize/R/6_Ratio_500_L_9_R_18.png","xmouse":[789,789,790,792,792,792,792,792,792,792,792,792,792,792,792,793,793,794,796,798,799,801,801,802,802,802,802,802,802,802,802,802,802,802,802,802,802,802,802,802,802,802,802,802,802,804,806,812,822,871,904,947,982,1043,1066,1085,1102,1114,1131,1155,1168,1181,1190,1201,1203,1206,1208,1209,1210,1212,1212,1212,1212,1212,1212,1212,1212,1212,1211,1210,1207,1203,1197,1192,1179,1175,1174,1174,1171,1168,1167,1167,1167,1166,1163,1159,1155],"ymouse":[502,502,502,502,502,502,502,502,502,502,502,502,502,502,502,501,501,499,498,493,491,489,488,487,487,487,487,487,487,487,487,487,487,487,487,487,487,487,487,487,487,487,487,487,487,484,482,475,464,427,409,385,362,325,313,302,295,288,276,253,241,228,216,193,183,171,163,157,152,137,129,119,111,96,88,81,76,74,72,71,70,69,68,66,63,63,63,63,63,63,63,63,63,63,63,63,63],"timestamp_mouse":[13,38,52,73,92,114,133,152,172,192,213,234,252,274,294,312,332,353,373,394,412,432,453,472,493,513,532,554,572,592,612,633,653,674,693,712,732,752,773,792,812,832,854,872,892,913,932,952,974,993,1013,1033,1054,1074,1092,1113,1133,1152,1173,1192,1213,1234,1253,1274,1293,1313,1333,1352,1373,1392,1412,1433,1453,1474,1492,1512,1533,1554,1574,1593,1613,1632,1654,1673,1692,1713,1733,1752,1774,1792,1813,1834,1853,1874,1892,1913,1933],"xSR":741.5,"ySR":469.95,"xT1":424.9,"yT1":0,"xT2":1058.1,"yT2":0,"toosoon":0,"cond_shown":"equaldotsize","ratio_trial":500,"smaller_num":"9","larger_num":"18","correct_side":2,"subjID":"Nombre_Apellidos_NumeroLista","gender":"No_gender","age":"No_age","school":"No_school"},{"start_time":1552327472289,"click_time":1552327475940,"finger_time":1552327474620,"fix_duration":1066.9692631156554,"trial":15,"RT":2331,"MT":1320,"sideResp":1,"stimulus":"img/500/equaldotanddens/L/13_Ratio_500_L_12_R_6.png","xmouse":[806,806,806,806,806,806,806,806,806,806,806,806,806,806,806,806,806,806,806,806,806,806,806,806,806,806,806,806,806,806,806,806,806,806,806,806,806,806,806,806,806,806,806,806,806,806,806,806,806,806,806,806,806,806,806,806,806,806,806,806,806,806,806,806,806,806,806,806,806,806,806,806,806,806,806,806,806,806,806,806,806,806,806,806,806,806,806,806,806,806,806,806,806,806,806,806,806,806,806,806,806,806,806,806,806,806,806,806,806,806,806,806,806,806,802,794,783,776,768,760,751,742,728,721,718,714,707,703,701,701,701,697,695,695,694,693,693,686,681,678,675,672,663,661,658,656,652,644,639,634,628,612,607,602,598,593,589,586,586,586,584,575,569,565,557,545,531,527,527,527,527,527,527,527,527,527,527,527,527,527,527,527,522],"ymouse":[496,496,496,496,496,496,496,496,496,496,496,496,496,496,496,496,496,496,496,496,496,496,496,496,496,496,496,496,496,496,496,496,496,496,496,496,496,496,496,496,496,496,496,496,496,496,496,496,496,496,496,496,496,496,496,496,496,496,496,496,496,496,496,496,496,496,496,496,496,496,496,496,496,496,496,496,496,496,496,496,496,496,496,496,496,496,496,496,496,496,496,496,496,496,496,496,496,496,496,496,496,496,496,496,496,496,496,496,496,496,496,496,496,496,488,473,446,430,412,391,373,351,305,268,243,216,170,148,132,116,103,82,72,70,69,69,69,67,67,67,67,67,67,67,67,67,67,67,67,67,67,67,67,67,67,66,65,65,65,65,65,65,66,66,67,70,71,71,71,71,71,71,71,71,71,71,71,71,71,71,71,71,71],"timestamp_mouse":[11,41,52,71,92,112,131,152,172,192,211,233,252,271,292,312,333,351,371,393,411,432,453,472,491,512,531,553,571,592,612,633,652,673,691,712,733,753,772,791,812,832,852,873,891,911,931,953,973,992,1011,1031,1052,1073,1091,1112,1132,1151,1172,1193,1211,1231,1251,1272,1292,1312,1332,1351,1372,1393,1413,1431,1452,1472,1492,1512,1533,1552,1573,1593,1612,1631,1652,1672,1692,1712,1732,1751,1772,1792,1813,1831,1852,1873,1892,1912,1931,1953,1971,1991,2012,2032,2051,2072,2093,2112,2132,2151,2172,2191,2211,2232,2251,2271,2291,2312,2331,2352,2371,2391,2412,2432,2453,2471,2492,2512,2531,2551,2573,2592,2612,2633,2652,2672,2693,2712,2732,2751,2772,2791,2812,2832,2851,2872,2893,2912,2931,2951,2971,2991,3012,3032,3051,3072,3091,3111,3132,3152,3172,3191,3213,3232,3251,3272,3291,3311,3333,3352,3372,3392,3412,3432,3452,3472,3492,3512,3532,3552,3572,3591,3611,3631,3651],"xSR":741.5,"ySR":469.95,"xT1":424.9,"yT1":0,"xT2":1058.1,"yT2":0,"toosoon":0,"cond_shown":"equaldotanddens","ratio_trial":500,"smaller_num":"6","larger_num":"12","correct_side":1,"subjID":"Nombre_Apellidos_NumeroLista","gender":"No_gender","age":"No_age","school":"No_school"},{"start_time":1552327479785,"click_time":1552327481601,"finger_time":1552327480640,"fix_duration":363.19378832582896,"trial":16,"RT":855,"MT":961,"sideResp":2,"stimulus":"img/250/equaldotsize/R/11_Ratio_250_L_3_R_12.png","xmouse":[793,793,793,793,793,793,793,793,793,793,793,793,793,793,793,793,793,793,793,793,793,793,793,793,793,793,793,793,793,793,793,793,793,793,793,793,793,793,793,793,793,801,844,910,1043,1129,1215,1338,1374,1397,1404,1408,1409,1409,1409,1409,1410,1411,1412,1412,1412,1412,1405,1393,1377,1364,1351,1334,1329,1323,1320,1316,1303,1292,1278,1272,1268,1259,1252,1241,1229,1223,1212,1206,1201,1199,1196,1189,1181,1167,1154],"ymouse":[552,552,552,552,552,552,552,552,552,552,552,552,552,552,552,552,552,552,552,552,552,552,552,552,552,552,552,552,552,552,552,552,552,552,552,552,552,552,552,552,552,549,520,482,410,361,302,203,163,129,111,99,96,96,96,96,94,91,89,87,86,85,79,75,67,62,58,55,55,54,53,53,51,49,47,47,46,44,43,42,41,39,38,36,35,35,35,35,34,33,32],"timestamp_mouse":[16,36,55,75,96,116,135,156,177,195,215,235,257,276,296,315,335,356,375,396,417,435,455,476,496,516,536,555,576,595,617,636,656,675,695,715,736,757,777,795,815,835,855,876,896,916,937,956,975,995,1015,1036,1055,1076,1095,1115,1136,1156,1175,1196,1216,1236,1256,1275,1295,1316,1336,1355,1375,1396,1416,1436,1455,1476,1495,1517,1537,1555,1576,1595,1615,1637,1656,1676,1695,1716,1735,1756,1776,1796,1816],"xSR":741.5,"ySR":469.95,"xT1":424.9,"yT1":0,"xT2":1058.1,"yT2":0,"toosoon":0,"cond_shown":"equaldotsize","ratio_trial":250,"smaller_num":"3","larger_num":"12","correct_side":2,"subjID":"Nombre_Apellidos_NumeroLista","gender":"No_gender","age":"No_age","school":"No_school"},{"start_time":1552327483861,"click_time":1552327485402,"finger_time":1552327484781,"fix_duration":398.98786753641224,"trial":17,"RT":920,"MT":621,"sideResp":1,"stimulus":"img/750/equaldotanddens/L/1_Ratio_750_L_20_R_15.png","xmouse":[768,768,768,768,768,768,768,768,768,768,768,768,768,768,768,768,768,768,768,768,768,768,768,768,768,768,768,768,768,768,768,768,768,768,768,768,768,768,768,768,768,768,768,767,757,748,741,737,733,728,723,716,710,702,695,680,668,658,650,634,634,634,634,634,634,634,634,634,634,634,634,634,634,634,634,634,465,461],"ymouse":[504,504,504,504,504,504,504,504,504,504,504,504,504,504,504,504,504,504,504,504,504,504,504,504,504,504,504,504,504,504,504,504,504,504,504,504,504,504,504,504,504,504,504,505,504,499,491,483,476,459,438,419,394,367,340,262,213,158,95,6,6,6,6,6,6,6,6,6,6,6,6,6,6,6,6,6,0,10],"timestamp_mouse":[8,27,41,59,80,101,121,140,161,179,202,220,240,261,281,299,320,339,359,379,401,421,441,460,480,501,521,541,559,580,601,621,640,660,680,701,721,741,761,780,800,820,841,860,880,900,920,940,961,981,1000,1020,1040,1060,1081,1100,1120,1141,1160,1181,1200,1220,1240,1261,1281,1300,1320,1339,1360,1379,1400,1420,1441,1460,1481,1500,1520,1541],"xSR":741.5,"ySR":469.95,"xT1":424.9,"yT1":0,"xT2":1058.1,"yT2":0,"toosoon":0,"cond_shown":"equaldotanddens","ratio_trial":750,"smaller_num":"15","larger_num":"20","correct_side":1,"subjID":"Nombre_Apellidos_NumeroLista","gender":"No_gender","age":"No_age","school":"No_school"},{"start_time":1552327487640,"click_time":1552327489421,"finger_time":1552327488861,"fix_duration":778.1252841182297,"trial":18,"RT":1221,"MT":560,"sideResp":1,"stimulus":"img/500/equaldotsize/L/5_Ratio_500_L_4_R_2.png","xmouse":[787,787,787,787,787,787,787,787,787,787,787,787,787,787,787,787,787,787,787,787,787,787,787,787,787,787,787,787,787,787,787,787,787,787,787,787,787,787,787,787,787,787,787,787,787,787,787,787,787,787,787,787,784,782,779,775,765,760,755,747,742,729,721,706,691,678,652,639,627,608,588,550,540,534,529,527,526,526,526,526,526,526,526,526,526,526,526,526,525,521],"ymouse":[545,545,545,545,545,545,545,545,545,545,545,545,545,545,545,545,545,545,545,545,545,545,545,545,545,545,545,545,545,545,545,545,545,545,545,545,545,545,545,545,545,545,545,545,545,545,545,545,545,545,545,545,545,545,545,545,538,527,515,494,478,440,418,391,366,341,294,272,252,219,192,140,123,111,100,94,90,90,90,90,90,90,90,90,90,90,90,90,88,85],"timestamp_mouse":[8,21,41,61,81,100,122,141,162,182,201,221,242,262,282,301,321,340,361,381,402,422,441,462,482,502,520,542,561,582,600,622,642,662,680,701,721,741,762,782,802,822,842,861,882,902,921,941,962,981,1001,1022,1041,1060,1082,1101,1120,1141,1162,1182,1201,1221,1241,1261,1280,1302,1321,1342,1361,1380,1402,1421,1441,1460,1481,1501,1521,1542,1562,1581,1602,1622,1641,1661,1682,1701,1721,1741,1761,1780],"xSR":741.5,"ySR":469.95,"xT1":424.9,"yT1":0,"xT2":1058.1,"yT2":0,"toosoon":0,"cond_shown":"equaldotsize","ratio_trial":500,"smaller_num":"2","larger_num":"4","correct_side":1,"subjID":"Nombre_Apellidos_NumeroLista","gender":"No_gender","age":"No_age","school":"No_school"},{"start_time":1552327491425,"click_time":1552327493562,"finger_time":1552327493142,"fix_duration":303.54773097476584,"trial":19,"RT":1717,"MT":420,"sideResp":2,"stimulus":"img/250/randomdotsizeEA/R/10_Ratio_250_L_4_R_16.png","xmouse":[802,802,802,802,802,802,802,802,802,802,802,802,802,802,802,802,802,802,802,802,802,802,802,802,802,802,802,802,802,802,802,802,802,802,802,802,802,802,802,802,802,802,802,802,802,802,802,802,802,802,802,801,800,798,797,795,793,789,788,787,787,786,786,786,786,785,785,785,784,783,783,782,781,780,779,777,776,776,776,776,776,782,797,815,840,865,907,970,998,1018,1030,1039,1050,1054,1058,1061,1072,1075,1080,1084,1091,1099,1121,1132,1141,1148,1156],"ymouse":[568,568,568,568,568,568,568,568,568,568,568,568,568,568,568,568,568,568,568,568,568,568,568,568,568,568,568,568,568,568,568,568,568,568,568,568,568,568,568,568,568,568,568,568,568,568,568,568,568,568,568,568,568,568,568,568,568,568,568,568,568,568,568,568,568,568,568,568,568,568,568,568,568,568,568,568,568,568,568,568,568,568,561,552,534,515,476,414,379,355,334,315,288,279,272,267,250,246,239,230,219,208,178,161,141,124,98],"timestamp_mouse":[16,36,56,76,97,117,135,157,176,195,217,235,257,277,295,316,336,357,377,396,417,436,457,477,495,516,536,557,577,596,615,636,657,676,697,716,736,755,775,796,816,836,856,875,897,917,936,956,977,997,1016,1036,1057,1077,1096,1117,1136,1157,1176,1196,1216,1236,1256,1277,1295,1316,1337,1357,1375,1396,1416,1436,1456,1477,1497,1517,1536,1556,1576,1597,1616,1636,1656,1677,1697,1717,1736,1757,1776,1796,1817,1837,1856,1876,1896,1916,1937,1956,1976,1997,2016,2036,2056,2076,2096,2116,2137],"xSR":741.5,"ySR":469.95,"xT1":424.9,"yT1":0,"xT2":1058.1,"yT2":0,"toosoon":0,"cond_shown":"randomdotsizeEA","ratio_trial":250,"smaller_num":"4","larger_num":"16","correct_side":2,"subjID":"Nombre_Apellidos_NumeroLista","gender":"No_gender","age":"No_age","school":"No_school"},{"start_time":1552327495289,"click_time":1552327497541,"finger_time":1552327496381,"fix_duration":367.88812963971475,"trial":20,"RT":1092,"MT":1160,"sideResp":1,"stimulus":"img/900/equaldotanddens/L/2_Ratio_900_L_20_R_18.png","xmouse":[804,804,804,804,804,804,804,804,804,804,804,804,804,804,804,804,804,804,804,804,804,805,805,805,805,805,805,805,805,805,805,805,805,805,805,805,805,805,805,805,806,806,806,806,807,807,807,808,808,808,807,805,802,800,794,791,788,786,783,779,778,775,773,768,755,748,742,734,727,713,706,700,690,684,671,665,660,653,643,625,616,605,598,595,594,594,594,594,595,596,596,596,596,596,596,596,596,596,596,596,596,596,596,596,596,596,596,596,596,596,596,596,491],"ymouse":[556,556,556,556,556,556,556,556,556,556,556,556,556,556,556,556,556,556,556,556,556,556,556,556,556,556,556,556,556,556,556,556,556,556,556,556,556,556,556,556,556,556,556,556,556,555,555,555,551,538,528,517,498,486,459,443,427,405,387,359,350,340,336,331,328,327,326,326,326,324,323,323,322,322,320,319,317,311,301,266,244,220,194,178,147,132,118,106,94,60,42,23,3,3,3,3,3,3,3,3,3,3,3,3,3,3,3,3,3,3,3,3,18],"timestamp_mouse":[11,34,52,73,92,112,133,152,171,193,213,233,252,272,292,312,332,352,371,393,411,433,453,473,493,513,532,553,573,593,613,633,653,671,691,712,733,753,771,791,812,833,853,871,893,912,933,952,973,992,1012,1033,1052,1072,1092,1112,1132,1152,1172,1191,1212,1232,1251,1271,1291,1312,1332,1353,1373,1392,1412,1432,1453,1472,1493,1512,1532,1553,1573,1592,1612,1633,1653,1672,1692,1712,1733,1752,1773,1791,1813,1832,1852,1872,1892,1912,1932,1953,1973,1992,2012,2032,2053,2072,2092,2112,2133,2152,2173,2193,2213,2233,2252],"xSR":741.5,"ySR":469.95,"xT1":424.9,"yT1":0,"xT2":1058.1,"yT2":0,"toosoon":0,"cond_shown":"equaldotanddens","ratio_trial":900,"smaller_num":"18","larger_num":"20","correct_side":1,"subjID":"Nombre_Apellidos_NumeroLista","gender":"No_gender","age":"No_age","school":"No_school"},{"start_time":1552327514281,"click_time":1552327518441,"finger_time":1552327515601,"fix_duration":477.78485406477967,"trial":21,"RT":1320,"MT":2840,"sideResp":1,"stimulus":"img/250/equaldotsize/L/1_Ratio_250_L_8_R_2.png","xmouse":[813,813,813,813,813,813,813,813,813,813,813,813,813,813,813,813,813,813,813,813,813,813,813,813,813,813,813,813,813,813,813,813,813,813,813,813,813,813,813,813,813,813,813,813,813,813,813,813,813,813,813,813,813,813,813,813,813,813,813,813,813,813,813,813,813,818,864,1103,1162,1176,1178,1178,1178,1178,1178,1178,1178,1178,1178,1178,1178,1178,1178,1178,1178,1178,1178,1178,1178,1178,1178,1178,1178,1178,1178,1179,1227,1420,1509,1565,1565,1565,1565,1565,1565,1565,1565,1565,1565,1565,1565,1565,1565,1565,1565,1565,1565,1565,1565,1565,1565,1565,1565,1565,1565,1565,1565,1564,1561,1560,1559,1555,1547,1547,1547,1547,1547,1547,1547,1547,1546,1546,1565,1565,1565,1565,1565,1565,1565,1565,1565,1582,1552,1472,1472,1472,1472,1472,1472,1472,1472,1472,1472,1472,1472,1472,1472,1472,1472,1472,1472,1472,1472,684,677,677,680,683,690,696,700,704,712,721,728,734,740,743,744,744,742,739,736,726,717,708,696,673,666,660,654,649,648,644,634,611,586,533,505],"ymouse":[510,510,510,510,510,510,510,510,510,510,510,510,510,510,510,510,510,510,510,510,510,510,510,510,510,510,510,510,510,510,510,510,510,510,510,510,510,510,510,510,510,510,510,510,510,510,510,510,510,510,510,510,510,510,510,510,510,510,510,510,510,510,510,510,510,512,528,630,644,644,644,644,644,644,644,644,644,644,644,644,644,644,644,644,644,644,644,644,644,644,644,644,644,644,644,644,614,518,496,483,483,483,483,483,483,483,483,483,483,483,483,483,483,483,483,483,483,483,483,483,483,483,483,483,483,483,483,246,240,234,223,211,194,194,194,194,194,194,194,194,193,196,251,251,251,251,251,251,251,251,251,378,201,42,42,42,42,42,42,42,42,42,42,42,42,42,42,42,42,42,42,42,42,3,47,81,107,124,139,142,143,146,163,182,190,192,195,195,195,192,183,174,161,121,102,81,60,28,16,10,7,6,5,6,9,14,22,38,46],"timestamp_mouse":[8,20,40,60,81,101,120,139,159,181,200,221,241,259,280,301,320,341,361,380,400,420,439,461,481,501,519,541,560,581,600,620,641,661,680,699,720,741,760,780,801,820,841,861,880,901,920,941,961,981,1000,1020,1041,1060,1079,1100,1121,1139,1160,1180,1200,1220,1241,1261,1280,1300,1320,1340,1360,1380,1400,1420,1440,1460,1480,1500,1521,1540,1561,1581,1600,1620,1640,1660,1681,1701,1720,1740,1760,1781,1801,1820,1840,1860,1880,1901,1920,1939,1960,1980,2001,2020,2040,2060,2080,2100,2120,2140,2160,2180,2200,2220,2241,2261,2280,2301,2320,2340,2359,2380,2400,2421,2440,2460,2480,2500,2520,2540,2560,2581,2600,2621,2640,2660,2680,2701,2721,2740,2761,2780,2799,2820,2840,2860,2880,2900,2920,2940,2960,2981,3000,3021,3040,3061,3080,3100,3120,3140,3161,3180,3200,3220,3240,3260,3280,3300,3320,3341,3361,3379,3399,3421,3440,3460,3480,3500,3519,3540,3559,3580,3599,3621,3640,3660,3680,3701,3720,3741,3760,3780,3800,3819,3840,3860,3880,3901,3920,3940,3959,3980,4001,4021,4040,4060,4080,4100,4120,4141,4160],"xSR":741.5,"ySR":469.95,"xT1":424.9,"yT1":0,"xT2":1058.1,"yT2":0,"toosoon":0,"cond_shown":"equaldotsize","ratio_trial":250,"smaller_num":"2","larger_num":"8","correct_side":1,"subjID":"Nombre_Apellidos_NumeroLista","gender":"No_gender","age":"No_age","school":"No_school"},{"start_time":1552327525057,"click_time":1552327526741,"finger_time":1552327525961,"fix_duration":1334.0133422155852,"trial":22,"RT":904,"MT":780,"sideResp":1,"stimulus":"img/900/equaldotsize/L/1_Ratio_900_L_10_R_9.png","xmouse":[794,794,794,794,794,794,794,794,794,794,794,794,794,794,794,794,794,794,794,794,794,794,794,794,794,794,794,794,794,794,794,794,794,794,794,794,794,794,794,799,805,821,827,832,837,839,839,838,829,804,778,759,745,727,698,684,675,665,654,642,637,628,621,617,609,604,596,589,581,577,576,576,574,572,564,561,558,556,554,549,542,535,528,517,505],"ymouse":[542,542,542,542,542,542,542,542,542,542,542,542,542,542,542,542,542,542,542,542,542,542,542,542,542,542,542,542,542,542,542,542,542,542,542,542,542,542,542,538,534,521,512,502,470,448,423,401,379,340,311,294,277,257,223,208,198,190,188,186,186,184,183,182,180,179,177,174,171,169,169,165,161,155,141,135,130,127,126,122,118,115,109,100,93],"timestamp_mouse":[13,26,44,64,85,104,124,144,165,184,203,225,245,263,284,305,323,344,363,384,405,425,445,464,483,503,525,545,564,584,605,625,643,664,684,703,725,745,765,785,804,823,845,865,884,904,925,944,964,984,1004,1024,1044,1064,1084,1103,1125,1144,1164,1185,1205,1224,1245,1264,1284,1304,1324,1344,1364,1385,1403,1424,1445,1463,1484,1504,1525,1545,1564,1585,1604,1624,1645,1664,1684],"xSR":741.5,"ySR":469.95,"xT1":424.9,"yT1":0,"xT2":1058.1,"yT2":0,"toosoon":0,"cond_shown":"equaldotsize","ratio_trial":900,"smaller_num":"9","larger_num":"10","correct_side":1,"subjID":"Nombre_Apellidos_NumeroLista","gender":"No_gender","age":"No_age","school":"No_school"},{"start_time":1552327528560,"click_time":1552327530261,"finger_time":1552327529241,"fix_duration":456.085195913094,"trial":23,"RT":681,"MT":1020,"sideResp":1,"stimulus":"img/250/equaldotanddens/L/5_Ratio_250_L_24_R_6.png","xmouse":[811,811,807,803,801,798,797,796,795,792,791,789,788,787,785,779,779,779,779,779,778,777,776,775,775,773,773,772,771,770,770,768,767,767,767,773,780,786,790,791,788,784,780,777,766,739,722,706,693,670,659,649,633,618,604,596,596,594,592,589,579,575,573,571,569,568,563,558,552,546,539,536,533,530,526,525,524,524,524,524,524,524,523,522,520,507],"ymouse":[553,552,552,549,549,548,548,548,547,546,545,544,544,543,541,537,537,537,537,537,536,535,535,533,532,529,527,522,520,514,511,501,492,476,456,398,372,349,329,295,284,276,271,270,267,260,253,248,245,240,239,233,228,220,216,213,213,212,209,202,178,165,157,153,152,152,151,151,151,150,148,148,148,148,148,148,147,147,146,144,141,140,138,135,128,95],"timestamp_mouse":[9,21,44,62,81,101,121,141,161,182,201,221,241,261,281,302,321,341,361,381,401,422,442,461,481,502,521,542,561,582,601,621,640,662,681,701,721,741,762,782,801,821,841,862,881,902,921,940,961,982,1000,1021,1042,1061,1081,1101,1121,1141,1161,1181,1201,1221,1241,1262,1282,1301,1320,1340,1360,1382,1400,1422,1440,1462,1481,1501,1521,1541,1561,1581,1601,1621,1641,1660,1682,1701],"xSR":741.5,"ySR":469.95,"xT1":424.9,"yT1":0,"xT2":1058.1,"yT2":0,"toosoon":0,"cond_shown":"equaldotanddens","ratio_trial":250,"smaller_num":"6","larger_num":"24","correct_side":1,"subjID":"Nombre_Apellidos_NumeroLista","gender":"No_gender","age":"No_age","school":"No_school"},{"start_time":1552327541471,"click_time":1552327542841,"finger_time":1552327542321,"fix_duration":688.1058554214259,"trial":24,"RT":850,"MT":520,"sideResp":2,"stimulus":"img/500/equaldotsize/R/1_Ratio_500_L_9_R_18.png","xmouse":[790,790,790,790,790,790,790,790,790,790,790,790,790,790,790,790,790,790,790,790,790,790,790,790,790,790,790,790,790,790,790,790,790,790,790,790,790,790,790,792,802,819,850,880,913,952,1018,1048,1073,1094,1114,1121,1130,1135,1142,1158,1172,1187,1200,1212,1221,1213,1183,1164,1153,1139,1138,1138,1138],"ymouse":[535,535,535,535,535,535,535,535,535,535,535,535,535,535,535,535,535,535,535,535,535,535,535,535,535,535,535,535,535,535,535,535,535,535,535,535,535,535,535,531,515,501,490,487,486,486,486,484,480,476,470,466,461,457,453,440,429,413,393,369,321,290,239,212,188,143,120,101,85],"timestamp_mouse":[11,36,50,71,90,109,130,150,171,190,211,230,250,270,290,310,331,350,370,391,411,430,451,471,490,510,530,551,570,590,611,630,650,669,690,710,731,750,771,790,809,831,850,870,890,910,929,950,970,990,1011,1030,1050,1071,1090,1110,1129,1151,1171,1191,1210,1231,1250,1270,1290,1310,1329,1350,1370],"xSR":741.5,"ySR":469.95,"xT1":424.9,"yT1":0,"xT2":1058.1,"yT2":0,"toosoon":0,"cond_shown":"equaldotsize","ratio_trial":500,"smaller_num":"9","larger_num":"18","correct_side":2,"subjID":"Nombre_Apellidos_NumeroLista","gender":"No_gender","age":"No_age","school":"No_school"},{"start_time":1552327545993,"click_time":1552327548102,"finger_time":1552327547041,"fix_duration":250,"trial":25,"RT":1048,"MT":1061,"sideResp":2,"stimulus":"img/750/randomdotsizeEA/L/8_Ratio_750_L_4_R_3.png","xmouse":[776,776,776,776,776,776,776,776,776,776,776,776,776,776,776,776,776,776,776,776,776,776,776,776,776,776,776,776,776,776,776,776,776,776,776,776,776,776,776,776,776,776,776,776,776,776,776,776,776,776,774,771,770,770,770,781,786,789,790,795,799,808,821,841,948,1028,1107,1175,1238,1288,1337,1348,1354,1355,1356,1356,1354,1349,1340,1330,1318,1313,1301,1288,1261,1231,1219,1215,1219,1246,1253,1254,1254,1254,1254,1254,1254,1254,1254,1254,1215,1203,1193,1176,1167,1150],"ymouse":[545,545,545,545,545,545,545,545,545,545,545,545,545,545,545,545,545,545,545,545,545,545,545,545,545,545,545,545,545,545,545,545,545,545,545,545,545,545,545,545,545,545,545,545,545,545,545,542,539,528,490,473,456,439,424,390,380,374,372,365,360,355,350,344,329,320,320,320,320,322,320,316,311,308,304,290,278,267,251,238,221,212,198,183,160,122,99,79,62,26,12,5,5,5,5,5,5,5,5,5,3,10,16,25,31,45],"timestamp_mouse":[10,33,49,68,90,109,129,149,169,188,208,228,250,269,288,308,328,350,368,389,408,428,449,468,489,509,528,550,568,589,608,628,648,669,689,708,728,749,769,789,809,829,849,869,888,908,928,948,968,989,1008,1028,1048,1068,1088,1110,1128,1149,1168,1190,1208,1229,1249,1268,1290,1308,1328,1349,1369,1388,1408,1429,1448,1470,1488,1508,1528,1549,1568,1589,1608,1628,1649,1669,1688,1709,1729,1749,1768,1790,1808,1829,1848,1869,1888,1908,1929,1949,1969,1990,2008,2030,2049,2068,2088,2108],"xSR":741.5,"ySR":469.95,"xT1":424.9,"yT1":0,"xT2":1058.1,"yT2":0,"toosoon":0,"cond_shown":"randomdotsizeEA","ratio_trial":750,"smaller_num":"3","larger_num":"4","correct_side":1,"subjID":"Nombre_Apellidos_NumeroLista","gender":"No_gender","age":"No_age","school":"No_school"},{"start_time":1552327554513,"click_time":1552327556961,"finger_time":1552327555321,"fix_duration":948.0911378085258,"trial":26,"RT":808,"MT":1640,"sideResp":2,"stimulus":"img/250/equaldotanddens/R/6_Ratio_250_L_6_R_24.png","xmouse":[810,810,810,810,810,810,810,810,810,810,810,810,810,810,810,810,810,810,810,810,810,810,810,810,810,810,810,810,810,810,810,810,810,810,810,810,810,810,810,819,879,971,1101,1268,1431,1431,1431,1431,1431,1431,1431,1431,1431,1431,1431,1431,1431,1431,1431,1431,1431,1431,1431,1431,1431,1431,1431,1431,1431,1431,1431,1431,1431,1431,1431,1431,1431,1431,1431,1431,1431,1431,1431,1431,1431,1431,1431,1431,1431,1431,1431,1431,1431,1431,1576,1502,1475,1461,1455,1453,1453,1453,1453,1453,1453,1465,1478,1493,1502,1503,1503,1503,1504,1502,1488,1429,1394,1360,1325,1291,1204,1164,1146],"ymouse":[541,541,541,541,541,541,541,541,541,541,541,541,541,541,541,541,541,541,541,541,541,541,541,541,541,541,541,541,541,541,541,541,541,541,541,541,541,541,541,539,528,501,456,413,380,380,380,380,380,380,380,380,380,380,380,380,380,380,380,380,380,380,380,380,380,380,380,380,380,380,380,380,380,380,380,380,380,380,380,380,380,380,380,380,380,380,380,380,380,380,380,380,380,380,218,198,194,193,193,193,193,193,193,193,193,193,193,193,193,193,193,193,192,191,188,170,159,149,134,121,90,74,71],"timestamp_mouse":[8,37,49,69,88,108,129,150,169,189,209,228,248,268,288,308,328,349,368,389,409,428,448,469,488,509,529,549,569,589,610,629,649,669,689,709,729,749,768,789,808,828,849,868,888,910,928,948,969,988,1008,1028,1048,1068,1090,1108,1128,1149,1169,1189,1208,1228,1248,1270,1288,1308,1330,1350,1368,1388,1409,1428,1448,1470,1490,1509,1528,1548,1568,1588,1608,1628,1648,1669,1688,1709,1728,1748,1768,1789,1810,1829,1848,1870,1889,1909,1928,1948,1968,1988,2009,2029,2048,2068,2088,2108,2128,2148,2168,2188,2210,2230,2250,2268,2288,2309,2328,2348,2368,2389,2408,2428,2448],"xSR":741.5,"ySR":469.95,"xT1":424.9,"yT1":0,"xT2":1058.1,"yT2":0,"toosoon":0,"cond_shown":"equaldotanddens","ratio_trial":250,"smaller_num":"6","larger_num":"24","correct_side":2,"subjID":"Nombre_Apellidos_NumeroLista","gender":"No_gender","age":"No_age","school":"No_school"},{"start_time":1552327563192,"click_time":1552327564782,"finger_time":1552327564081,"fix_duration":807.5167171535342,"trial":27,"RT":889,"MT":701,"sideResp":2,"stimulus":"img/900/randomdotsizeEA/L/2_Ratio_900_L_20_R_18.png","xmouse":[805,805,805,805,805,805,805,805,805,805,805,805,805,805,805,805,805,805,805,805,805,805,805,805,805,805,805,805,805,805,805,805,805,805,805,805,805,805,805,805,810,822,831,840,851,869,875,897,907,920,930,941,968,986,1008,1035,1079,1121,1133,1140,1145,1151,1166,1170,1174,1176,1178,1175,1171,1164,1156,1141,1136,1135,1135,1135,1135,1138,1142,1145],"ymouse":[531,531,531,531,531,531,531,531,531,531,531,531,531,531,531,531,531,531,531,531,531,531,531,531,531,531,531,531,531,531,531,531,531,531,531,531,531,531,531,531,525,517,511,506,502,497,496,491,488,484,482,478,470,465,458,451,436,408,395,382,368,352,321,305,288,277,253,245,237,228,215,192,181,173,165,155,138,113,101,89],"timestamp_mouse":[11,30,50,70,89,110,130,149,169,190,210,231,249,271,290,310,330,350,370,389,409,430,451,469,489,509,529,549,569,591,610,630,650,670,690,710,730,751,769,790,809,830,849,870,889,910,930,949,969,990,1010,1029,1049,1069,1089,1110,1130,1149,1169,1189,1209,1230,1249,1269,1289,1309,1330,1349,1369,1390,1409,1430,1449,1469,1489,1511,1529,1549,1569,1590],"xSR":741.5,"ySR":469.95,"xT1":424.9,"yT1":0,"xT2":1058.1,"yT2":0,"toosoon":0,"cond_shown":"randomdotsizeEA","ratio_trial":900,"smaller_num":"18","larger_num":"20","correct_side":1,"subjID":"Nombre_Apellidos_NumeroLista","gender":"No_gender","age":"No_age","school":"No_school"},{"start_time":1552327566780,"click_time":1552327568201,"finger_time":1552327567023,"fix_duration":277.81235035256435,"trial":28,"RT":243,"MT":1178,"sideResp":1,"stimulus":"img/900/equaldotsize/L/1_Ratio_900_L_10_R_9.png","xmouse":[838,838,838,838,838,838,839,839,839,839,840,840,842,842,842,842,842,842,842,842,842,842,842,842,842,842,841,841,840,840,840,840,840,840,840,840,840,839,837,836,836,835,828,800,781,759,705,679,640,626,616,612,608,606,606,608,608,608,608,608,609,611,611,611,607,604,599,590,555,539,525,513],"ymouse":[520,520,520,520,520,520,521,522,523,523,524,524,524,524,524,524,524,523,523,523,523,523,523,522,520,517,514,513,513,513,513,513,513,512,512,511,509,508,507,507,507,507,505,495,487,477,450,435,402,377,348,322,296,251,240,231,230,229,226,222,217,209,201,176,155,146,135,126,105,96,90,87],"timestamp_mouse":[12,22,42,61,81,101,121,141,161,181,201,221,243,262,282,301,321,342,361,381,402,422,442,462,481,501,521,541,562,581,602,622,642,661,681,701,722,741,762,783,802,821,842,861,882,901,921,942,962,981,1002,1021,1042,1062,1082,1101,1122,1141,1162,1181,1202,1222,1241,1261,1282,1301,1321,1341,1361,1381,1402,1421],"xSR":741.5,"ySR":469.95,"xT1":424.9,"yT1":0,"xT2":1058.1,"yT2":0,"toosoon":0,"cond_shown":"equaldotsize","ratio_trial":900,"smaller_num":"9","larger_num":"10","correct_side":1,"subjID":"Nombre_Apellidos_NumeroLista","gender":"No_gender","age":"No_age","school":"No_school"},{"start_time":1552327570622,"click_time":1552327572902,"finger_time":1552327571721,"fix_duration":838.2888727284064,"trial":29,"RT":1099,"MT":1181,"sideResp":2,"stimulus":"img/750/equaldotsize/R/2_Ratio_750_L_6_R_8.png","xmouse":[779,779,779,779,779,779,779,779,779,779,779,779,779,779,779,779,779,779,779,779,779,779,779,779,779,779,779,779,779,779,779,779,779,779,779,779,779,779,779,779,779,779,779,779,779,779,779,779,779,779,779,779,779,779,785,795,803,803,804,805,805,802,796,784,773,767,761,760,760,760,760,760,772,840,972,1140,1482,1482,1482,1482,1482,1482,1482,1482,1482,1482,1482,1482,1482,1582,1555,1536,1491,1465,1445,1429,1406,1395,1385,1380,1378,1377,1370,1365,1359,1354,1339,1301,1286,1271,1251,1228,1179,1163,1141],"ymouse":[520,520,520,520,520,520,520,520,520,520,520,520,520,520,520,520,520,520,520,520,520,520,520,520,520,520,520,520,520,520,520,520,520,520,520,520,520,520,520,520,520,520,520,520,520,520,520,520,520,520,520,520,520,520,501,467,397,369,349,338,335,332,330,328,328,325,322,322,321,321,321,321,321,321,321,327,340,340,340,340,340,340,340,340,340,340,340,340,340,311,299,285,254,234,213,193,151,134,121,114,112,112,112,112,112,112,112,106,102,99,96,94,86,83,78],"timestamp_mouse":[1,19,39,60,80,99,119,139,161,179,200,219,241,260,280,299,320,340,359,379,399,419,440,459,479,500,520,539,559,579,600,619,639,659,679,699,720,739,759,779,799,819,839,860,879,899,919,940,960,981,999,1019,1040,1059,1079,1099,1120,1139,1159,1180,1199,1221,1239,1259,1280,1299,1321,1339,1361,1379,1400,1420,1440,1459,1479,1499,1520,1539,1560,1580,1600,1619,1640,1660,1680,1699,1720,1739,1760,1779,1800,1819,1840,1859,1880,1899,1921,1939,1961,1980,1999,2019,2039,2059,2080,2099,2120,2139,2159,2180,2200,2219,2239,2259,2280],"xSR":741.5,"ySR":469.95,"xT1":424.9,"yT1":0,"xT2":1058.1,"yT2":0,"toosoon":0,"cond_shown":"equaldotsize","ratio_trial":750,"smaller_num":"6","larger_num":"8","correct_side":2,"subjID":"Nombre_Apellidos_NumeroLista","gender":"No_gender","age":"No_age","school":"No_school"},{"start_time":1552327578313,"click_time":1552327580762,"finger_time":1552327579481,"fix_duration":250,"trial":30,"RT":1168,"MT":1281,"sideResp":2,"stimulus":"img/750/randomdotsizeEA/R/2_Ratio_750_L_6_R_8.png","xmouse":[787,787,787,787,787,787,787,787,787,787,787,787,787,787,787,787,787,787,787,787,787,787,787,787,787,787,787,787,787,787,787,787,787,787,787,787,787,787,787,787,787,787,787,787,787,787,787,787,787,787,787,787,787,787,787,787,790,827,853,879,911,952,1079,1171,1220,1240,1247,1248,1248,1248,1248,1248,1248,1246,1239,1232,1221,1201,1190,1179,1168,1159,1149,1145,1145,1149,1152,1168,1179,1197,1224,1224,1224,1224,1224,1224,1224,1224,1224,1224,1224,1224,1224,1224,1224,1216,1200,1186,1185,1184,1184,1182,1171,1161,1160,1160,1160,1160,1160,1160,1159,1159,1143],"ymouse":[532,532,532,532,532,532,532,532,532,532,532,532,532,532,532,532,532,532,532,532,532,532,532,532,532,532,532,532,532,532,532,532,532,532,532,532,532,532,532,532,532,532,532,532,532,532,532,522,520,518,517,517,517,517,516,516,511,494,483,473,459,441,386,361,353,350,349,349,349,349,349,344,331,321,304,287,268,240,230,222,215,207,194,182,175,164,157,122,96,60,13,13,13,13,13,13,13,13,13,13,13,13,13,13,5,10,19,27,28,28,28,29,32,36,37,37,37,37,37,37,38,38,49],"timestamp_mouse":[11,32,49,69,89,109,128,148,169,190,208,230,248,269,289,308,329,349,368,389,409,430,448,468,489,508,530,549,568,589,608,629,648,670,688,708,729,748,768,789,810,829,849,870,889,909,928,948,968,990,1009,1029,1048,1068,1089,1109,1129,1148,1168,1189,1209,1229,1249,1268,1288,1309,1329,1348,1368,1389,1408,1429,1449,1468,1488,1508,1528,1549,1568,1588,1608,1629,1648,1670,1688,1708,1729,1749,1768,1788,1809,1830,1849,1870,1888,1908,1928,1949,1968,1990,2010,2029,2049,2069,2088,2109,2128,2149,2168,2188,2208,2229,2248,2268,2290,2308,2329,2348,2369,2388,2408,2429,2449],"xSR":741.5,"ySR":469.95,"xT1":424.9,"yT1":0,"xT2":1058.1,"yT2":0,"toosoon":0,"cond_shown":"randomdotsizeEA","ratio_trial":750,"smaller_num":"6","larger_num":"8","correct_side":2,"subjID":"Nombre_Apellidos_NumeroLista","gender":"No_gender","age":"No_age","school":"No_school"},{"start_time":1552327584234,"click_time":1552327586022,"finger_time":1552327585121,"fix_duration":250,"trial":31,"RT":887,"MT":901,"sideResp":2,"stimulus":"img/250/equaldotsize/R/6_Ratio_250_L_6_R_24.png","xmouse":[768,768,768,768,768,768,768,768,768,768,768,768,768,768,768,768,768,768,768,768,768,768,768,768,768,768,768,768,768,768,768,768,768,768,768,768,768,768,768,769,771,778,805,830,902,947,983,1038,1059,1086,1111,1133,1175,1194,1216,1224,1233,1243,1253,1263,1274,1286,1303,1305,1308,1308,1308,1292,1282,1270,1260,1248,1223,1219,1214,1209,1205,1190,1182,1175,1168,1164,1162,1161,1160,1160,1158,1154,1149,1142],"ymouse":[521,521,521,521,521,521,521,521,521,521,521,521,521,521,521,521,521,521,521,521,521,521,521,521,521,521,521,521,521,521,521,521,521,521,521,521,521,521,521,515,511,503,485,479,459,451,445,422,406,383,362,348,324,317,309,306,303,300,294,287,278,269,248,244,235,231,226,206,200,191,184,174,154,152,147,142,138,129,124,120,115,112,110,109,108,108,108,106,103,99],"timestamp_mouse":[12,27,48,67,88,108,127,147,167,187,208,227,249,268,287,309,328,347,367,388,409,428,447,469,488,507,528,549,568,587,607,627,648,668,687,708,727,747,768,789,808,827,847,868,887,907,928,947,967,988,1007,1028,1047,1068,1087,1108,1127,1147,1167,1189,1208,1228,1248,1268,1287,1308,1327,1347,1367,1388,1408,1428,1447,1467,1487,1507,1527,1547,1567,1588,1607,1628,1648,1668,1688,1708,1727,1747,1767,1788],"xSR":741.5,"ySR":469.95,"xT1":424.9,"yT1":0,"xT2":1058.1,"yT2":0,"toosoon":0,"cond_shown":"equaldotsize","ratio_trial":250,"smaller_num":"6","larger_num":"24","correct_side":2,"subjID":"Nombre_Apellidos_NumeroLista","gender":"No_gender","age":"No_age","school":"No_school"},{"start_time":1552327605274,"click_time":1552327606762,"finger_time":1552327606101,"fix_duration":870.5071805517202,"trial":32,"RT":827,"MT":661,"sideResp":2,"stimulus":"img/500/equaldotsize/R/1_Ratio_500_L_9_R_18.png","xmouse":[775,775,775,775,775,775,775,775,775,775,775,775,775,775,775,775,775,775,775,775,775,775,775,775,778,778,782,785,785,785,785,785,785,785,785,785,789,795,807,820,841,871,904,1021,1069,1110,1137,1178,1189,1195,1197,1197,1197,1199,1199,1199,1199,1197,1189,1178,1163,1151,1131,1129,1128,1127,1127,1126,1124,1123,1123,1123,1122,1121,1120],"ymouse":[546,546,546,546,546,546,546,546,546,546,546,546,546,546,546,546,546,546,546,546,546,546,546,546,545,544,542,541,541,541,541,541,541,541,541,541,539,535,525,514,493,460,424,306,264,228,203,167,157,152,150,150,150,149,149,149,149,146,140,134,126,119,107,106,105,104,104,104,103,103,103,103,103,100,99],"timestamp_mouse":[11,28,48,67,87,107,127,147,167,187,207,227,247,267,287,308,327,347,367,387,407,427,449,468,487,508,528,548,569,588,608,629,648,669,689,709,727,748,768,788,809,827,848,867,887,907,928,948,967,988,1007,1028,1047,1067,1088,1107,1127,1148,1167,1187,1208,1229,1248,1267,1287,1308,1327,1348,1368,1389,1408,1428,1448,1467,1488],"xSR":741.5,"ySR":469.95,"xT1":424.9,"yT1":0,"xT2":1058.1,"yT2":0,"toosoon":0,"cond_shown":"equaldotsize","ratio_trial":500,"smaller_num":"9","larger_num":"18","correct_side":2,"subjID":"Nombre_Apellidos_NumeroLista","gender":"No_gender","age":"No_age","school":"No_school"},{"start_time":1552327617551,"click_time":1552327619083,"finger_time":1552327618242,"fix_duration":628.720813304794,"trial":33,"RT":691,"MT":841,"sideResp":1,"stimulus":"img/750/randomdotsizeEA/L/1_Ratio_750_L_20_R_15.png","xmouse":[749,749,749,749,749,749,749,749,749,749,749,749,749,749,749,749,749,749,749,751,752,754,767,781,791,796,796,796,796,796,800,802,811,825,857,907,934,957,975,988,1010,1015,1018,1021,1025,1027,1028,1028,1028,1027,1005,985,959,904,789,712,673,673,673,673,673,673,673,673,673,673,673,673,673,301,321,336,354,367,383,423,435],"ymouse":[535,535,535,535,535,535,535,535,535,535,535,535,535,535,535,535,535,535,535,535,535,535,529,523,520,518,518,518,518,518,518,517,511,501,475,429,399,373,354,341,328,326,322,319,311,306,303,301,299,295,279,263,244,200,114,59,28,28,28,28,28,28,28,28,28,28,28,28,28,0,17,23,28,34,42,64,73],"timestamp_mouse":[19,38,51,71,91,111,130,150,172,190,211,230,252,272,292,310,330,351,372,392,410,431,450,471,491,510,532,551,572,592,610,631,650,671,691,710,730,752,771,790,810,832,850,871,892,911,932,952,971,991,1011,1030,1050,1071,1092,1110,1130,1152,1171,1191,1212,1232,1251,1270,1290,1311,1331,1350,1371,1390,1410,1432,1450,1472,1491,1511,1532],"xSR":741.5,"ySR":469.95,"xT1":424.9,"yT1":0,"xT2":1058.1,"yT2":0,"toosoon":0,"cond_shown":"randomdotsizeEA","ratio_trial":750,"smaller_num":"15","larger_num":"20","correct_side":1,"subjID":"Nombre_Apellidos_NumeroLista","gender":"No_gender","age":"No_age","school":"No_school"},{"start_time":1552327623258,"click_time":1552327625001,"finger_time":1552327624161,"fix_duration":1154.545898295055,"trial":34,"RT":903,"MT":840,"sideResp":2,"stimulus":"img/900/equaldotanddens/R/9_Ratio_900_L_18_R_20.png","xmouse":[765,765,765,765,765,765,765,765,765,765,765,765,765,765,765,765,765,765,765,765,765,765,765,765,765,765,765,765,765,765,765,765,765,765,765,765,765,765,765,765,765,765,768,777,800,843,948,974,991,998,1000,1000,1000,1001,1004,1038,1054,1066,1078,1084,1100,1111,1123,1132,1142,1162,1170,1177,1178,1181,1185,1186,1186,1188,1192,1198,1199,1199,1199,1199,1195,1190,1185,1180,1174,1162,1159,1152],"ymouse":[505,505,505,505,505,505,505,505,505,505,505,505,505,505,505,505,505,505,505,505,505,505,505,505,505,505,505,505,505,505,505,505,505,505,505,505,505,505,505,505,505,505,501,493,476,456,428,426,426,426,426,426,426,426,422,401,391,383,374,368,344,330,312,300,288,268,261,253,250,247,242,240,236,233,222,199,190,176,160,150,127,116,109,101,93,82,80,78],"timestamp_mouse":[10,32,45,65,83,103,124,145,164,184,203,224,245,265,284,303,324,345,363,385,404,424,444,465,485,505,524,544,563,584,604,625,644,665,683,705,724,744,764,784,804,823,844,864,884,903,923,943,964,985,1005,1024,1043,1064,1084,1104,1123,1143,1164,1184,1205,1223,1244,1264,1284,1305,1324,1344,1364,1383,1405,1423,1444,1464,1485,1504,1523,1543,1564,1583,1605,1623,1644,1664,1684,1705,1723,1743],"xSR":741.5,"ySR":469.95,"xT1":424.9,"yT1":0,"xT2":1058.1,"yT2":0,"toosoon":0,"cond_shown":"equaldotanddens","ratio_trial":900,"smaller_num":"18","larger_num":"20","correct_side":2,"subjID":"Nombre_Apellidos_NumeroLista","gender":"No_gender","age":"No_age","school":"No_school"},{"start_time":1552327626959,"click_time":1552327628921,"finger_time":1552327627902,"fix_duration":375.9760619862657,"trial":35,"RT":943,"MT":1019,"sideResp":1,"stimulus":"img/750/equaldotsize/R/12_Ratio_750_L_3_R_4.png","xmouse":[784,784,784,784,784,784,784,784,784,784,784,784,784,784,784,784,784,784,784,785,785,786,786,786,786,786,786,787,787,787,787,787,787,787,787,787,787,787,787,788,788,789,789,790,791,794,803,808,815,818,820,822,823,826,828,831,835,835,835,830,823,803,790,771,756,743,714,705,693,685,675,648,634,622,613,608,601,597,590,581,570,547,537,529,522,518,512,512,511,511,511,511,511,511,511,511,512,514,516],"ymouse":[491,491,491,491,491,491,491,491,491,491,491,491,491,491,490,490,490,490,489,489,488,487,487,487,487,486,486,485,485,485,485,485,485,485,485,484,484,484,484,484,484,483,482,481,480,477,470,467,464,461,460,457,455,450,442,438,418,399,388,374,357,327,308,286,268,253,224,213,197,186,176,156,145,137,131,129,127,126,123,120,115,108,107,105,104,103,102,102,102,102,102,102,102,102,102,102,102,100,98],"timestamp_mouse":[11,31,43,62,83,103,124,142,164,183,202,223,244,264,282,302,322,344,363,383,404,424,443,464,482,502,523,543,563,583,602,624,642,662,682,704,723,743,764,784,802,823,843,864,883,902,922,943,963,983,1003,1024,1044,1063,1082,1104,1122,1144,1162,1183,1202,1222,1243,1263,1283,1303,1322,1344,1362,1383,1403,1422,1442,1463,1483,1504,1522,1542,1562,1583,1603,1622,1642,1663,1683,1702,1722,1742,1763,1783,1802,1823,1843,1864,1882,1903,1922,1944,1962],"xSR":741.5,"ySR":469.95,"xT1":424.9,"yT1":0,"xT2":1058.1,"yT2":0,"toosoon":0,"cond_shown":"equaldotsize","ratio_trial":750,"smaller_num":"3","larger_num":"4","correct_side":2,"subjID":"Nombre_Apellidos_NumeroLista","gender":"No_gender","age":"No_age","school":"No_school"},{"start_time":1552327631727,"click_time":1552327633263,"finger_time":1552327632581,"fix_duration":1163.387643878625,"trial":36,"RT":854,"MT":682,"sideResp":2,"stimulus":"img/250/equaldotanddens/R/13_Ratio_250_L_2_R_8.png","xmouse":[802,802,802,802,802,802,802,802,802,802,802,802,802,802,802,802,802,803,803,804,805,805,806,807,807,807,807,807,807,807,807,807,807,807,807,807,807,807,807,807,813,816,836,900,955,1002,1067,1091,1111,1116,1121,1124,1136,1147,1162,1178,1195,1234,1244,1251,1254,1255,1255,1255,1255,1255,1253,1249,1245,1239,1228,1216,1191,1179,1168,1160,1155],"ymouse":[500,500,499,499,498,498,498,498,497,497,497,497,497,497,497,497,497,496,495,493,491,490,489,488,488,488,488,488,488,488,488,488,488,488,488,488,488,488,488,488,483,479,465,432,412,397,381,376,370,367,364,362,351,342,326,309,284,222,201,184,175,168,162,159,157,156,153,148,146,142,137,130,118,111,104,100,97],"timestamp_mouse":[14,35,54,75,95,114,136,154,175,196,216,236,255,274,294,315,336,355,375,395,414,434,455,475,496,515,535,555,576,594,614,634,656,674,694,715,736,754,775,795,815,835,854,874,894,915,935,955,976,994,1016,1035,1055,1074,1094,1114,1135,1155,1176,1194,1215,1235,1255,1274,1294,1314,1335,1356,1376,1394,1414,1434,1456,1475,1495,1515,1536],"xSR":741.5,"ySR":469.95,"xT1":424.9,"yT1":0,"xT2":1058.1,"yT2":0,"toosoon":0,"cond_shown":"equaldotanddens","ratio_trial":250,"smaller_num":"2","larger_num":"8","correct_side":2,"subjID":"Nombre_Apellidos_NumeroLista","gender":"No_gender","age":"No_age","school":"No_school"},{"start_time":1552327645788,"click_time":1552327647503,"finger_time":1552327646702,"fix_duration":385.8981981044101,"trial":37,"RT":914,"MT":801,"sideResp":1,"stimulus":"img/900/randomdotsizeEA/R/5_Ratio_900_L_9_R_10.png","xmouse":[778,778,778,778,778,778,778,778,778,778,778,778,778,778,778,778,778,778,778,778,778,778,778,778,778,778,778,778,778,778,778,779,779,779,779,779,779,780,781,782,784,794,798,805,815,828,850,857,864,867,867,864,858,849,837,822,793,765,750,735,711,673,654,643,643,643,643,643,643,643,643,643,643,643,643,643,643,643,643,643,643,643,643,643,643,461],"ymouse":[516,516,516,516,516,516,516,516,516,516,516,516,516,516,516,516,516,516,516,516,516,516,516,516,516,516,516,516,516,516,516,516,516,516,516,516,516,515,514,513,512,502,498,488,474,459,425,415,391,381,371,358,352,346,338,331,314,295,280,255,215,111,41,3,3,3,3,3,3,3,3,3,3,3,3,3,3,3,3,3,3,3,3,3,3,6],"timestamp_mouse":[13,33,54,74,93,114,135,153,175,193,214,234,254,274,294,314,335,353,373,393,414,435,454,475,493,513,534,553,574,594,613,633,654,674,694,713,735,754,774,794,814,834,854,874,893,914,934,955,973,993,1013,1034,1054,1074,1093,1114,1133,1154,1173,1194,1214,1234,1254,1275,1294,1315,1334,1354,1374,1394,1415,1434,1455,1474,1495,1514,1534,1554,1574,1594,1615,1633,1655,1675,1694,1715],"xSR":741.5,"ySR":469.95,"xT1":424.9,"yT1":0,"xT2":1058.1,"yT2":0,"toosoon":0,"cond_shown":"randomdotsizeEA","ratio_trial":900,"smaller_num":"9","larger_num":"10","correct_side":2,"subjID":"Nombre_Apellidos_NumeroLista","gender":"No_gender","age":"No_age","school":"No_school"},{"start_time":1552327657253,"click_time":1552327659123,"finger_time":1552327658162,"fix_duration":250,"trial":38,"RT":909,"MT":961,"sideResp":1,"stimulus":"img/500/randomdotsizeEA/R/1_Ratio_500_L_9_R_18.png","xmouse":[760,760,761,761,761,762,762,762,762,763,764,765,765,765,765,765,765,765,766,766,767,767,767,767,767,768,768,768,768,768,769,769,769,769,769,769,769,769,769,769,769,769,775,778,788,815,828,838,847,852,850,845,842,839,820,802,788,780,774,756,752,747,744,740,718,668,648,645,638,537,400,374,369,369,369,369,369,368,366,365,365,369,371,375,378,385,387,391,394,397,405,412,421,427],"ymouse":[500,500,500,501,501,502,502,502,502,502,502,502,502,502,502,502,502,502,502,502,502,502,502,502,502,502,502,502,502,502,502,502,502,502,502,502,502,502,502,502,502,502,497,494,480,443,425,407,390,332,298,254,219,196,163,148,135,124,117,101,98,97,96,95,93,80,75,74,74,66,33,25,24,24,24,24,24,24,24,28,33,43,49,55,58,62,62,63,64,65,67,69,72,74],"timestamp_mouse":[11,32,49,69,88,109,130,148,168,189,210,229,249,270,289,308,328,349,368,390,410,428,448,470,489,509,528,548,570,589,610,629,650,669,688,710,730,748,768,789,809,828,850,869,888,909,928,948,970,989,1008,1028,1049,1070,1089,1108,1128,1148,1169,1189,1209,1228,1249,1270,1289,1308,1328,1348,1369,1388,1410,1429,1450,1470,1489,1509,1529,1548,1569,1590,1608,1629,1649,1668,1688,1709,1730,1749,1769,1789,1809,1829,1849,1870],"xSR":741.5,"ySR":469.95,"xT1":424.9,"yT1":0,"xT2":1058.1,"yT2":0,"toosoon":0,"cond_shown":"randomdotsizeEA","ratio_trial":500,"smaller_num":"9","larger_num":"18","correct_side":2,"subjID":"Nombre_Apellidos_NumeroLista","gender":"No_gender","age":"No_age","school":"No_school"},{"start_time":1552327661631,"click_time":1552328468472,"finger_time":1552327666161,"fix_duration":1208.5606957121718,"trial":39,"RT":4530,"MT":802311,"sideResp":1,"stimulus":"img/500/equaldotanddens/L/8_Ratio_500_L_8_R_4.png","xmouse":[759,759,759,759,759,759,759,760,760,760,760,760,759,758,757,757,757,757,757,757,757,757,757,757,757,757,757,757,757,757,757,757,757,757,757,757,757,757,757,757,757,757,757,757,757,757,757,757,757,757,757,757,757,757,757,757,757,757,757,757,757,757,757,757,757,757,757,757,757,757,757,757,757,757,757,757,757,757,757,757,757,757,757,757,757,757,757,757,757,757,757,757,757,757,757,757,757,757,757,757,757,757,757,757,757,757,757,757,757,757,757,757,757,757,757,757,757,757,757,757,757,757,757,757,757,757,757,757,757,757,757,757,757,757,757,757,757,757,757,757,757,757,757,757,757,757,757,757,757,757,757,757,757,757,757,757,757,757,757,757,757,757,757,757,757,757,757,757,757,757,757,757,757,757,757,757,757,757,757,757,757,757,757,757,757,757,757,757,757,757,757,757,757,757,757,757,757,757,757,757,757,757,757,757,757,757,757,757,757,757,757,757,757,757,757,757,757,757,757,757,757,757,757,757,757,760,808,893,893,893,893,893,893,893,893,893,893,893,893,893,893,893,893,893,893,893,893,893,943,950,955,961,968,971,972,973,973,973,972,972,972,973,973,977,979,982,983,983,983,983,984,984,984,982,978,967,945,911,901,897,893,889,875,865,854,851,851,851,851,851,850,850,847,846,845,845,845,845,845,845,843,842,842,840,839,836,834,830,828,826,823,817,817,816,816,816,816,812,809,807,805,804,804,804,804,804,804,804,804,804,804,804,804,804,804,804,804,804,804,804,804,804,804,804,804,804,804,804,804,804,804,804,804,804,804,804,804,804,804,804,804,804,814,827,842,856,858,859,859,859,859,859,859,859,859,859,859,859,859,859,859,859,860,860,860,860,860,860,861,864,869,875,878,881,881,881,881,881,881,881,881,881,881,881,881,881,881,881,881,881,881,881,881,881,881,881,881,881,881,881,881,881,881,881,880,880,879,879,878,877,877,877,877,877,876,876,875,873,873,873,873,873,873,873,873,873,875,877,880,880,881,884,888,888,888,888,888,894,894,896,896,899,907,910,911,911,911,911,912,912,912,913,913,913,913,913,914,915,915,915,915,915,915,915,915,915,915,915,915,915,915,915,915,915,915,915,915,915,915,915,915,915,915,915,915,915,915,915,915,915,915,915,915,915,915,915,915,915,915,915,915,915,915,915,915,915,915,917,919,920,922,925,928,928,928,928,928,928,928,928,928,928,928,928,928,928,928,928,928,928,928,928,928,928,929,931,936,940,941,943,945,946,946,947,948,948,949,949,949,949,949,949,949,949,949,949,949,949,949,949,949,949,949,949,949,949,949,949,949,949,949,949,949,949,949,949,949,949,949,949,949,949,949,949,949,949,949,949,949,949,949,949,949,949,949,949,949,949,948,947,945,945,945,945,945,945,945,945,945,945,945,945,945,945,945,945,945,945,945,945,945,945,945,945,945,945,945,945,945,945,945,945,945,945,945,945,945,945,945,945,945,945,945,945,945,945,945,945,946,949,950,950,951,951,951,951,951,951,951,951,951,951,951,951,951,951,951,951,951,951,952,954,962,964,965,965,965,965,965,965,965,965,965,965,965,965,965,965,965,965,965,965,965,965,965,966,968,969,969,969,969,969,969,969,969,969,969,969,969,969,969,969,969,969,969,969,969,969,969,970,971,971,972,972,973,979,991,1019,1030,1038,1043,1049,1059,1080,1091,1100,1105,1114,1125,1136,1151,1151,1151,1151,1151,1151,1151,1151,1151,1151,1151,1151,1151,1151,1151,1151,1151,1151,1151,1151,1151,1151,1151,1151,1151,1151,1151,1151,1151,1151,1151,1151,1151,1151,1151,1151,1151,1151,1151,1151,1151,1151,1151,1151,1151,1151,1151,1151,1151,1151,1151,1151,1151,1151,1151,1151,1151,1151,1151,1151,1151,1151,1151,1151,1151,1151,1151,1151,1151,1151,1151,1151,1151,1151,1151,1151,1151,1151,1151,1151,1151,1151,1151,1151,1151,1151,1151,1151,1151,1151,1151,1151,1151,1151,1151,1151,1151,1151,1151,1151,1151,1151,1151,1151,1151,1151,1151,1151,1151,1151,1151,1151,1151,1151,1151,1151,1151,1151,1151,1151,1151,1151,1151,1151,1151,1151,1151,1151,1151,1151,1151,1151,1151,1151,1151,1151,1151,1151,1151,1283,1283,1283,1283,1283,1283,1283,1283,1283,1283,1283,1283,1283,1283,1283,1283,1283,1283,1282,1281,1281,1281,1281,1281,1281,1281,1281,1281,1281,1281,1281,1281,1281,1281,1281,1281,1281,1281,1281,1281,1281,1281,1281,1281,1281,1281,1281,1281,1281,1281,1281,1281,1281,1281,1281,1281,1281,1281,1281,1281,1281,1281,1281,1281,1281,1281,1281,1281,1281,1281,1281,1281,1281,1281,1281,1281,1281,1281,1281,1281,1281,1281,1281,1281,1281,1281,1281,1281,1281,1281,1281,1281,1281,1281,1281,1281,1281,1281,1281,1281,1281,1281,1281,1281,1281,1281,1281,1281,1281,1281,1281,1281,1281,1281,1281,1281,1281,1281,1281,1281,1281,1281,1281,1281,1281,1281,1281,1281,1281,1281,1281,1281,1281,1281,1281,1281,1281,1281,1281,1281,1281,1281,1281,1281,1281,1281,1281,1281,1281,1281,1281,1281,1281,1281,1281,1281,1281,1281,1281,1281,1281,1281,1281,1281,1281,1281,1281,1281,1281,1281,1281,1281,1281,1281,1281,1281,1281,1281,1281,1281,1281,1281,1281,1281,1281,1281,1281,1281,1281,1281,1281,1281,1281,1281,1281,1281,1281,1281,1281,1281,1281,1281,1281,1281,1281,1281,1281,1281,1281,1281,1281,1281,1281,1281,1281,1281,1281,1281,1281,1281,1281,1281,1281,1281,1281,1281,1281,1281,1281,1281,1281,1281,1281,1281,1281,1281,1281,1281,1281,1281,1281,1281,1281,1281,1281,1281,1281,1281,1281,1281,1281,1281,1281,1281,1281,1281,1281,1281,1281,1281,1281,1281,1281,1281,1281,1281,1281,1281,1281,1281,1281,1281,1281,1281,1281,1281,1281,1281,1281,1281,1281,1281,1281,1281,1281,1281,1281,1281,1281,1281,1281,1281,1281,1281,1281,1281,1281,1281,1281,1281,1281,1281,1281,1281,1281,1281,1281,1281,1281,1281,1281,1281,1281,1281,1281,1281,1281,1281,1281,1281,1281,1281,1281,1281,1281,1281,1281,1281,1281,1281,1281,1281,1281,1281,1281,1281,1281,1281,1281,1281,1281,1281,1281,1281,1281,1281,1281,1281,1281,1281,1281,1281,1281,1281,1281,1281,1281,1281,1281,1281,1281,1281,1281,1281,1281,1281,1281,1281,1281,1281,1281,1281,1281,1281,1281,1282,1283,1284,1284,1284,1284,1284,1284,1284,1284,1284,1284,1284,1284,1284,1284,1284,1284,1284,1284,1284,1284,1284,1284,1284,1284,1284,1284,1284,1284,1284,1284,1284,1284,1284,1284,1284,1284,1284,1284,1284,1284,1284,1284,1284,1284,1284,1284,1284,1284,1284,1284,1284,1284,1284,1284,1284,1284,1284,1284,1284,1284,1284,1284,1284,1284,1284,1284,1284,1284,1284,1284,1284,1284,1284,1284,1284,1284,1284,1284,1284,1284,1284,1284,1284,1284,1284,1284,1284,1284,1284,1284,1284,1284,1284,1284,1284,1284,1284,1284,1284,1284,1284,1284,1284,1284,1284,1284,1284,1284,1284,1284,1284,1284,1284,1284,1284,1284,1284,1284,1284,1284,1284,1284,1284,1284,1284,1284,1284,1284,1284,1284,1284,1284,1284,1284,1284,1284,1284,1284,1284,1284,1284,1284,1284,1284,1284,1284,1284,1284,1284,1284,1285,1289,1293,1297,1298,1299,1300,1300,1302,1302,1302,1302,1302,1302,1302,1302,1302,1302,1302,1302,1302,1302,1302,1302,1302,1302,1302,1302,1302,1302,1302,1302,1302,1302,1302,1302,1302,1302,1302,1302,1302,1302,1302,1302,1302,1302,1302,1302,1302,1302,1302,1302,1302,1302,1302,1302,1302,1302,1302,1302,1302,1302,1302,1302,1302,1302,1302,1302,1302,1302,1302,1302,1302,1302,1302,1302,1302,1302,1302,1302,1302,1302,1302,1302,1302,1302,1302,1302,1302,1302,1302,1302,1302,1302,1302,1302,1302,1302,1302,1302,1302,1302,1302,1302,1302,1302,1302,1302,1302,1302,1302,1302,1302,1302,1302,1302,1302,1302,1302,1302,1303,1302,1301,1300,1299,1299,1299,1298,1297,1296,1296,1295,1295,1294,1293,1293,1293,1292,1291,1291,1291,1291,1291,1291,1291,1291,1291,1291,1291,1291,1291,1291,1291,1291,1291,1291,1291,1291,1291,1291,1291,1291,1291,1291,1291,1291,1291,1291,1291,1291,1291,1291,1291,1291,1291,1291,1291,1291,1291,1291,1291,1291,1291,1291,1291,1291,1291,1291,1291,1291,1291,1291,1291,1291,1291,1291,1291,1291,1291,1291,1291,1291,1291,1291,1291,1291,1291,1291,1291,1291,1291,1291,1291,1291,1291,1291,1291,1291,1291,1291,1291,1291,1291,1291,1291,1291,1291,1291,1291,1291,1291,1290,1290,1290,1290,1290,1290,1290,1290,1290,1290,1290,1290,1290,1290,1290,1290,1290,1290,1290,1290,1290,1290,1290,1290,1290,1290,1290,1290,1290,1290,1290,1290,1290,1290,1290,1290,1290,1290,1290,1290,1290,1290,1290,1290,1290,1290,1290,1290,1290,1290,1290,1290,1290,1290,1290,1290,1290,1290,1290,1290,1290,1290,1290,1290,1290,1290,1290,1290,1290,1290,1290,1290,1290,1290,1290,1290,1290,1290,1290,1290,1290,1290,1290,1290,1290,1290,1290,1290,1290,1290,1290,1290,1290,1290,1290,1290,1290,1290,1290,1290,1290,1290,1290,1290,1290,1290,1290,1290,1290,1290,1290,1290,1290,1290,1290,1290,1290,1290,1290,1290,1290,1290,1290,1290,1290,1290,1290,1290,1290,1290,1290,1290,1290,1290,1290,1290,1290,1290,1290,1290,1290,1290,1290,1290,1290,1290,1290,1290,1290,1290,1290,1290,1290,1290,1290,1290,1290,1290,1290,1290,1290,1290,1290,1290,1290,1290,1290,1290,1290,1290,1290,1290,1290,1290,1290,1290,1290,1290,1290,1290,1290,1290,1290,1290,1290,1290,1290,1290,1290,1290,1290,1290,1290,1290,1290,1290,1290,1290,1290,1290,1290,1290,1290,1290,1290,1290,1290,1290,1290,1290,1290,1290,1290,1290,1290,1289,1288,1283,1280,1280,1280,1280,1280,1280,1280,1280,1280,1280,1280,1280,1280,1280,1280,1280,1280,1280,1280,1280,1280,1280,1280,1280,1280,1280,1280,1280,1280,1280,1280,1280,1280,1280,1280,1280,1280,1280,1280,1280,1280,1280,1280,1280,1280,1280,1280,1280,1280,1280,1280,1280,1280,1280,1280,1280,1280,1280,1280,1280,1280,1280,1280,1280,1280,1280,1280,1280,1280,1280,1280,1280,1280,1280,1280,1280,1280,1280,1280,1280,1280,1280,1280,1280,1280,1280,1280,1280,1280,1280,1280,1280,1280,1280,1280,1280,1280,1280,1280,1280,1280,1280,1280,1280,1280,1280,1280,1280,1280,1280,1280,1280,1280,1280,1280,1280,1280,1280,1280,1280,1280,1280,1280,1280,1280,1280,1280,1280,1280,1280,1280,1280,1280,1280,1280,1280,1280,1280,1280,1280,1280,1280,1280,1280,1280,1280,1280,1280,1280,1280,1280,1280,1280,1280,1280,1280,1280,1280,1280,1280,1280,1280,1280,1280,1280,1280,1280,1280,1280,1280,1280,1280,1252,1351,1351,1351,1351,1351,1351,1351,1351,1351,1351,1351,1351,1351,1351,1351,1351,1351,1351,1351,1348,1336,1323,1264,1245,1237,1235,1234,1213,1175,1104,1038,945,861,841,838,835,829,785,676,655,651,646,551,482,423,373,300,48,0,0,0,0,0,0,7,27,55,77,77,77,77,77,77,77,77,77,77,77,77,77,77,77,77,77,77,77,77,77,77,77,77,77,77,77,77,77,77,77,77,77,77,77,77,77,77,77,77,77,77,77,77,77,77,77,77,77,77,77,77,77,77,77,77,77,77,77,77,77,77,77,77,77,77,77,77,77,77,77,77,77,77,77,77,77,77,77,77,77,77,77,77,77,77,77,77,77,77,77,77,77,77,77,77,77,77,77,77,77,77,77,77,77,77,77,77,77,77,77,77,77,77,77,77,77,77,77,77,77,77,77,77,77,77,77,77,77,77,77,77,77,77,77,77,77,77,77,77,77,77,77,77,77,77,77,77,77,77,77,77,77,77,77,77,77,77,77,77,77,77,77,77,77,77,77,77,77,77,77,77,77,77,77,77,77,77,77,77,77,77,77,77,77,77,77,77,77,77,77,77,77,77,77,77,77,77,77,77,77,77,77,77,77,77,77,77,77,77,77,77,77,77,77,77,77,77,77,77,77,77,77,77,77,77,77,77,77,77,77,77,77,77,77,77,77,77,77,77,77,77,77,77,77,77,77,77,77,77,77,77,77,77,77,77,77,77,77,77,77,77,77,77,77,77,77,77,77,77,77,77,77,77,77,77,77,77,77,77,77,77,77,77,77,77,77,77,77,77,77,77,77,77,77,77,77,77,77,77,77,77,77,77,77,77,77,77,77,77,77,77,77,77,77,77,77,77,77,77,77,77,77,77,77,77,77,77,77,77,77,77,77,77,77,77,77,77,77,77,77,77,77,77,77,77,77,77,77,77,77,77,77,77,77,77,77,77,77,77,77,77,77,77,77,77,77,77,77,77,77,77,77,77,77,77,77,77,77,77,77,77,77,77,77,77,77,77,77,77,77,77,77,77,77,77,77,77,77,77,77,77,77,77,77,77,77,77,77,77,77,77,77,77,77,77,77,77,77,77,77,77,77,77,77,77,77,77,77,77,77,77,77,77,77,77,77,77,77,77,77,77,77,77,77,77,77,77,77,77,77,77,77,77,77,77,77,77,77,77,77,77,77,77,77,77,77,77,77,77,77,77,77,77,77,77,77,77,77,77,77,77,77,77,77,77,77,77,77,77,77,77,77,77,77,77,77,77,77,77,77,77,77,77,77,77,77,77,77,77,77,77,77,77,77,77,77,77,77,77,77,77,77,77,77,77,77,77,77,77,77,77,77,77,77,77,77,77,77,77,77,77,77,77,77,77,77,77,77,77,77,77,77,77,77,77,77,77,77,77,77,77,77,77,77,77,77,77,77,77,77,77,77,77,77,77,77,77,77,77,77,77,77,77,77,77,77,77,77,77,77,77,77,77,77,77,77,77,77,77,77,77,77,77,77,77,77,77,77,77,77,77,77,77,77,77,77,77,77,77,77,77,77,77,77,77,77,77,77,77,77,77,77,77,77,77,77,77,77,77,77,77,77,77,77,77,77,77,77,77,77,77,77,77,77,77,77,77,77,77,77,77,77,77,77,77,77,77,77,77,77,77,77,77,77,77,77,77,77,77,77,77,77,77,77,77,77,77,77,77,77,77,77,77,77,77,77,77,77,77,77,77,77,77,77,77,77,77,77,77,77,77,77,77,77,77,77,77,77,77,77,77,77,77,77,77,77,77,77,77,77,77,77,77,77,77,77,77,77,77,77,77,77,77,77,77,77,77,77,77,77,77,77,77,77,77,77,77,77,77,77,77,77,77,77,77,77,77,77,77,77,77,77,77,77,77,77,77,77,77,77,77,77,77,77,77,77,77,77,77,77,77,77,77,77,77,77,77,77,77,77,77,77,77,77,77,77,77,77,77,77,77,77,77,77,77,77,526,526,526,527,531,545,550,555,567,572,618,643,668,689,713,714,714,714,714,708,694,693,692,692,689,689,689,689,690,694,696,696,696,696,696,696,696,696,696,696,697,697,697,695,693,693,693,693,693,693,693,693,693,693,693,693,693,693,693,689,678,676,674,672,660,642,608,593,578,564,539,537,565,618,679,761,767,767,767,766,752,751,751,751,751,751,751,749,749,749,751,752,754,756,759,761,762,762,763,763,763,763,763,763,763,763,764,766,768,769,770,770,772,774,774,774,774,774,774,774,774,774,774,774,774,774,774,774,774,774,774,774,774,774,774,774,774,774,774,774,774,774,774,774,774,774,774,774,774,774,774,774,774,774,774,774,774,775,777,776,670,597,529,492],"ymouse":[510,510,510,510,510,510,510,509,509,509,508,508,508,507,507,507,507,507,507,507,507,507,507,507,507,507,507,507,507,507,507,507,507,507,507,507,507,507,507,507,507,507,507,507,507,507,507,507,507,507,507,507,507,507,507,507,507,507,507,507,507,507,507,507,507,507,507,507,507,507,507,507,507,507,507,507,507,507,507,507,507,507,507,507,507,507,507,507,507,507,507,507,507,507,507,507,507,507,507,507,507,507,507,507,507,507,507,507,507,507,507,507,507,507,507,507,507,507,507,507,507,507,507,507,507,507,507,507,507,507,507,507,507,507,507,507,507,507,507,507,507,507,507,507,507,507,507,507,507,507,507,507,507,507,507,507,507,507,507,507,507,507,507,507,507,507,507,507,507,507,507,507,507,507,507,507,507,507,507,507,507,507,507,507,507,507,507,507,507,507,507,507,507,507,507,507,507,507,507,507,507,507,507,507,507,507,507,507,507,507,507,507,507,507,507,507,507,507,507,507,507,507,507,507,507,482,323,0,0,0,0,0,0,0,0,0,0,0,0,0,0,0,0,0,0,0,0,0,23,48,67,82,111,122,127,131,133,140,148,156,164,187,199,210,222,232,239,242,248,254,264,304,329,348,364,382,407,435,446,457,462,469,478,478,478,478,478,478,478,478,478,479,481,483,488,490,491,491,492,492,495,502,504,507,511,516,518,522,525,528,532,539,539,539,540,540,540,543,547,549,551,552,552,552,552,552,552,552,552,552,552,552,552,552,552,552,552,552,552,552,552,552,552,552,552,552,552,552,552,552,552,552,552,552,552,552,552,552,552,552,552,552,546,537,526,516,514,513,513,513,513,513,513,513,513,513,513,513,513,513,513,513,513,513,513,513,513,513,513,512,505,494,488,484,483,483,483,483,483,483,483,483,483,483,483,483,483,483,483,483,483,483,483,483,483,483,483,483,489,493,497,502,507,508,509,512,514,517,518,519,520,521,521,522,523,524,526,528,528,528,529,529,529,529,530,530,534,536,538,538,538,538,540,540,540,540,540,540,540,540,540,540,540,541,541,541,541,541,541,542,542,542,542,542,542,542,542,542,542,542,542,542,542,542,542,542,542,542,542,542,542,542,542,542,542,542,542,542,542,542,542,542,542,542,542,542,542,542,542,542,542,542,542,542,542,542,542,542,542,542,542,542,544,546,550,554,555,562,566,573,582,589,601,601,601,601,601,601,601,601,601,601,601,601,601,601,601,602,602,602,602,602,602,602,602,603,605,607,608,609,609,609,609,609,609,609,609,609,609,609,609,609,609,609,609,609,609,609,609,609,609,609,609,609,609,609,609,609,609,609,609,609,609,609,609,609,609,609,609,609,609,609,609,609,609,609,609,609,609,609,609,609,609,609,609,609,609,609,609,609,609,609,609,609,609,609,609,609,609,609,609,609,609,609,609,609,609,609,609,609,609,609,609,609,609,609,609,609,609,609,609,609,609,609,609,609,609,609,609,609,609,609,609,609,609,609,609,609,609,609,610,610,610,610,610,610,610,610,610,610,610,610,610,610,610,610,610,610,610,610,610,610,606,605,605,605,605,605,605,605,605,605,605,605,605,605,605,605,605,605,605,605,605,605,605,605,605,605,605,605,605,605,605,605,605,605,605,605,605,605,605,605,605,605,605,605,605,605,605,605,605,605,605,606,607,613,621,638,645,650,655,659,664,679,687,691,693,698,706,714,722,722,722,722,722,722,722,722,722,722,722,722,722,722,722,722,722,722,722,722,722,722,722,722,722,722,722,722,722,722,722,722,722,722,722,722,722,722,722,722,722,722,722,722,722,722,722,722,722,722,722,722,722,722,722,722,722,722,722,722,722,722,722,722,722,722,722,722,722,722,722,722,722,722,722,722,722,722,722,722,722,722,722,722,722,722,722,722,722,722,722,722,722,722,722,722,722,722,722,722,722,722,722,722,722,722,722,722,722,722,722,722,722,722,722,722,722,722,722,722,722,722,722,722,722,722,722,722,722,722,722,722,722,722,722,722,722,722,722,722,722,722,722,722,722,722,722,722,722,722,722,722,722,722,722,722,722,722,722,722,722,722,722,722,722,722,722,722,722,722,722,722,722,722,722,722,722,722,722,722,722,722,722,722,722,722,722,722,722,722,722,722,722,722,722,722,722,722,722,722,722,722,722,722,722,722,722,722,722,722,722,722,722,722,722,722,722,722,722,722,722,722,722,722,722,722,722,722,722,722,722,722,722,722,722,722,722,722,722,722,722,722,722,722,722,722,722,722,722,722,722,722,722,722,722,722,722,722,722,722,722,722,722,722,722,722,722,722,722,722,722,722,722,722,722,722,722,722,722,722,722,722,722,722,722,722,722,722,722,722,722,722,722,722,722,722,722,722,722,722,722,722,722,722,722,722,722,722,722,722,722,722,722,722,722,722,722,722,722,722,722,722,722,722,722,722,722,722,722,722,722,722,722,722,722,722,722,722,722,722,722,722,722,722,722,722,722,722,722,722,722,722,722,722,722,722,722,722,722,722,722,722,722,722,722,722,722,722,722,722,722,722,722,722,722,722,722,722,722,722,722,722,722,722,722,722,722,722,722,722,722,722,722,722,722,722,722,722,722,722,722,722,722,722,722,722,722,722,722,722,722,722,722,722,722,722,722,722,722,722,722,722,722,722,722,722,722,722,722,722,722,722,722,722,722,722,722,722,722,722,722,722,722,722,722,722,722,722,722,722,722,722,722,722,722,722,722,722,722,722,722,722,722,722,722,722,722,722,722,722,722,722,722,722,722,722,722,722,722,722,722,722,722,722,722,722,722,722,722,722,722,722,722,722,722,722,722,722,722,722,722,722,722,722,722,722,722,722,722,722,722,722,722,722,721,721,721,721,721,721,721,721,721,721,721,721,721,721,721,721,721,721,721,721,721,721,721,721,721,721,721,721,721,721,721,721,721,721,721,721,721,721,721,721,721,721,721,721,721,721,721,721,721,721,721,721,721,721,721,721,721,721,721,721,721,721,721,721,721,721,721,721,721,721,721,721,721,721,721,721,721,721,721,721,721,721,721,721,721,721,721,721,721,721,721,721,721,721,721,721,721,721,721,721,721,721,721,721,721,721,721,721,721,721,721,721,721,721,721,721,721,721,721,721,721,721,721,721,721,721,721,721,721,721,721,721,721,721,721,721,721,721,721,721,721,721,721,721,721,721,721,721,721,721,721,721,721,721,721,721,721,721,721,721,722,722,722,722,722,722,722,722,722,722,722,722,722,722,722,722,722,722,722,722,722,722,722,722,722,722,722,722,722,722,722,722,722,722,722,722,722,722,722,722,722,722,722,722,722,722,722,722,722,722,722,722,722,722,722,722,722,722,722,722,722,722,722,722,722,722,722,722,722,722,722,722,722,722,722,722,722,722,722,722,722,722,722,722,722,722,722,722,722,722,722,722,722,722,722,722,722,722,722,722,722,722,722,722,722,722,722,722,722,722,722,722,722,721,719,717,716,715,715,714,713,712,711,711,711,709,707,707,707,706,705,705,705,705,705,705,705,705,705,705,705,705,705,705,705,705,705,705,705,705,705,705,705,705,705,705,705,705,705,705,705,705,705,705,705,705,705,705,705,705,705,705,705,705,705,705,705,705,705,705,705,705,705,705,705,705,705,705,705,705,705,705,705,705,705,705,705,705,705,705,705,705,705,705,705,705,705,705,705,705,705,705,705,705,705,705,705,705,705,705