[{"start_time":1552073151776,"click_time":1552073160377,"finger_time":1552073151787,"fix_duration":953.6638368261024,"trial":0,"RT":11,"MT":8590,"sideResp":1,"stimulus":[],"xmouse":[800,800,800,800,800,800,800,800,800,800,800,800,800,800,800,800,800,800,800,800,800,800,800,800,800,800,800,800,800,800,800,800,800,800,800,800,800,800,800,800,800,800,800,800,800,808,815,816,810,810,809,807,807,805,805,805,805,805,805,805,805,805,805,805,805,805,805,805,805,805,805,803,802,794,793,791,790,787,786,784,784,784,783,783,783,783,783,783,783,783,783,783,783,783,783,783,783,783,783,783,783,783,783,783,783,783,783,783,783,783,783,783,783,783,783,783,783,783,783,783,783,783,783,783,783,783,783,783,783,783,783,784,784,786,786,786,786,786,787,787,787,787,787,787,787,787,787,787,787,787,787,787,787,787,787,787,787,787,787,787,787,787,787,787,787,787,787,787,787,787,787,787,787,787,787,787,787,787,787,787,787,787,787,787,787,787,787,787,787,787,787,787,787,787,787,787,787,787,787,787,787,787,787,787,787,787,787,787,787,787,787,787,787,787,787,787,787,787,787,787,787,787,787,787,787,787,787,787,787,787,787,787,787,787,787,787,787,787,787,787,787,787,787,787,787,787,787,787,787,787,787,787,787,787,787,787,787,787,787,787,787,787,787,787,787,787,787,787,787,787,787,787,787,787,787,787,787,787,787,787,787,787,787,787,787,787,787,787,787,787,787,787,787,787,787,787,787,787,787,787,787,787,787,787,787,787,787,787,787,787,787,787,787,787,787,787,787,787,787,787,787,787,787,787,788,789,789,789,789,790,790,791,792,792,794,796,796,798,802,814,819,831,846,873,878,858,825,825,619,619,41,0,0,10,352,559,754,900,995,1021,983,870,707,534,373,393,472,595,706,799,800,786,766,745,732,755,787,842,877,886,871,843,795,784,764,764,770,776,783,785,787,787,786,784,783,783,783,783,783,785,788,789,790,790,791,791,791,791,791,791,791,791,791,790,791,796,799,801,801,801,801,800,783,743,516,383,271,230,227,320,455],"ymouse":[532,532,532,532,532,532,532,532,532,532,532,532,532,532,532,532,532,532,532,532,532,532,532,532,532,532,532,532,532,532,532,532,532,532,532,532,532,532,532,532,532,532,532,532,532,535,542,558,569,576,583,590,595,609,614,617,617,617,617,617,617,617,617,617,617,617,617,617,617,617,617,618,618,621,622,622,622,624,625,627,627,627,628,629,630,630,630,630,630,630,630,630,630,630,630,630,630,630,630,630,630,630,630,630,630,630,630,630,630,630,630,630,630,630,630,630,630,630,630,630,630,630,630,630,630,630,630,630,631,631,631,631,631,630,629,629,629,629,629,629,629,629,629,629,629,629,629,629,629,629,629,629,629,629,629,629,629,629,629,629,629,629,629,629,629,629,629,629,629,629,629,629,629,629,629,629,629,629,629,629,629,629,629,629,629,629,629,629,629,629,629,629,629,629,629,629,629,629,629,629,629,629,629,629,629,629,629,629,629,629,629,629,629,629,629,629,629,629,629,629,629,629,629,629,629,629,629,629,629,629,629,629,629,629,629,629,629,629,629,629,629,629,629,629,629,629,629,629,629,629,629,629,629,629,629,629,629,629,629,629,629,629,629,629,629,629,629,629,629,629,629,629,629,629,629,629,629,629,629,629,629,629,629,629,629,629,629,629,629,629,629,629,629,629,629,629,629,629,629,629,629,629,629,629,629,629,629,629,629,629,629,629,629,629,629,629,629,629,627,627,626,625,625,625,624,623,622,622,622,621,621,620,620,619,618,617,617,615,606,562,522,471,414,319,164,86,11,11,0,0,0,3,19,41,165,224,288,331,359,370,355,308,251,198,126,116,115,122,152,221,242,269,294,325,371,384,388,390,390,390,394,397,409,415,437,442,449,455,463,471,489,496,505,517,534,539,543,546,549,552,561,565,568,569,570,570,570,570,571,573,575,576,581,586,601,610,615,617,617,615,602,578,527,445,168,70,10,0,0,14,34],"timestamp_mouse":[11,21,42,61,80,100,121,141,161,181,200,221,241,260,281,301,321,340,361,381,401,420,441,461,481,501,521,541,561,582,601,621,641,662,681,700,720,741,761,781,800,820,841,861,881,901,921,940,962,980,1001,1021,1042,1061,1080,1102,1120,1141,1160,1180,1202,1221,1240,1262,1282,1301,1321,1342,1361,1380,1400,1420,1442,1462,1481,1502,1520,1541,1562,1580,1600,1620,1642,1662,1681,1700,1721,1741,1760,1780,1802,1820,1840,1862,1880,1900,1922,1940,1961,1981,2001,2020,2040,2060,2081,2102,2121,2140,2160,2180,2201,2222,2241,2261,2281,2300,2322,2341,2360,2381,2401,2421,2441,2462,2481,2502,2521,2540,2561,2580,2601,2621,2641,2660,2680,2702,2722,2741,2762,2781,2801,2822,2840,2860,2881,2900,2921,2942,2961,2981,3001,3020,3041,3061,3081,3101,3120,3142,3161,3180,3200,3220,3241,3262,3282,3302,3320,3340,3360,3382,3400,3420,3440,3460,3482,3500,3520,3541,3561,3580,3602,3620,3640,3660,3682,3701,3721,3741,3762,3781,3801,3821,3840,3862,3880,3901,3921,3940,3961,3982,4000,4022,4041,4062,4080,4101,4122,4141,4160,4180,4201,4221,4242,4260,4280,4301,4321,4342,4360,4381,4402,4421,4441,4460,4481,4502,4520,4541,4560,4580,4600,4620,4641,4661,4681,4700,4720,4742,4760,4780,4800,4820,4841,4862,4881,4902,4922,4940,4960,4982,5000,5020,5041,5062,5082,5101,5122,5142,5160,5181,5200,5222,5240,5261,5280,5300,5320,5340,5360,5380,5401,5421,5441,5462,5480,5501,5520,5542,5562,5580,5600,5621,5641,5660,5681,5700,5720,5742,5761,5781,5801,5820,5840,5861,5881,5901,5920,5940,5962,5980,6001,6021,6042,6062,6082,6101,6121,6141,6160,6180,6201,6220,6241,6260,6280,6301,6320,6340,6360,6381,6402,6422,6441,6460,6480,6500,6520,6541,6561,6581,6601,6620,6640,6662,6681,6700,6720,6742,6761,6780,6800,6820,6840,6860,6881,6900,6921,6940,6960,6981,7000,7020,7040,7061,7082,7100,7120,7142,7161,7183,7200,7221,7241,7261,7283,7300,7320,7341,7361,7382,7401,7420,7440,7461,7481,7501,7521,7542,7561,7580,7601,7622,7641,7660,7680,7701,7721,7741,7762,7780,7800,7822,7841,7860,7880,7900,7920,7942,7962,7981,8001,8021,8040,8061,8080,8101,8120,8140,8160,8181,8200,8221,8241,8260,8280,8300,8322,8340,8360,8381,8400,8421,8442,8462,8481,8501,8521,8541,8560,8584,8600],"xSR":741.5,"ySR":501.8,"xT1":424.9,"yT1":0,"xT2":1058.1,"yT2":0,"toosoon":0,"cond_shown":"Congruent","ratio_trial":100,"L_num":15,"L_den":25,"R_num":13,"R_den":26,"correct_side":1,"subjID":"mariapuentesobando9","gender":"1","age":"9","school":"4","test":{"fix_dur":[250,1500],"timestim":1000,"targets_dim":[100,100],"targets_relative_coord":[0.3,0.7],"size_stim":[880,420],"start_dim":[100,100],"size_start":[300,300],"size_fix":60,"samplingrate":20,"img_types":["Congruent","Incongruent"],"ratios":[100,200,300],"rep_conds":19,"nTrials":120,"trials_to_rest":500,"Trials_order":[18,76,38,68,3,114,55,54,17,13,42,72,29,115,87,111,79,77,82,12,36,8,26,84,63,94,62,116,100,70,0,20,71,102,43,25,95,73,97,69,74,58,107,35,15,16,4,23,89,39,104,49,91,31,78,105,27,59,19,52,48,60,101,92,10,93,21,53,9,112,109,103,22,50,90,33,98,96,37,66,6,40,119,80,47,117,46,88,61,56,118,65,5,83,57,30,51,34,75,86,44,108,32,81,2,1,106,99,67,64,45,14,85,7,11,110,41,113,28,24],"cond_shown":["Congruent","Congruent","Congruent","Congruent","Incongruent","Congruent","Incongruent","Congruent","Incongruent","Incongruent","Congruent","Congruent","Incongruent","Incongruent","Incongruent","Incongruent","Incongruent","Incongruent","Congruent","Congruent","Congruent","Congruent","Congruent","Congruent","Incongruent","Congruent","Congruent","Congruent","Congruent","Congruent","Congruent","Congruent","Incongruent","Congruent","Incongruent","Incongruent","Incongruent","Incongruent","Incongruent","Incongruent","Congruent","Congruent","Incongruent","Incongruent","Incongruent","Congruent","Congruent","Incongruent","Incongruent","Incongruent","Congruent","Incongruent","Incongruent","Incongruent","Congruent","Incongruent","Incongruent","Incongruent","Incongruent","Congruent","Congruent","Congruent","Incongruent","Congruent","Congruent","Incongruent","Incongruent","Incongruent","Incongruent","Congruent","Incongruent","Incongruent","Congruent","Congruent","Congruent","Incongruent","Congruent","Congruent","Incongruent","Congruent","Congruent","Congruent","Incongruent","Congruent","Incongruent","Incongruent","Congruent","Congruent","Incongruent","Congruent","Congruent","Incongruent","Incongruent","Incongruent","Incongruent","Congruent","Incongruent","Congruent","Incongruent","Congruent","Congruent","Congruent","Congruent","Incongruent","Congruent","Incongruent","Congruent","Incongruent","Incongruent","Congruent","Incongruent","Congruent","Incongruent","Incongruent","Incongruent","Congruent","Incongruent","Incongruent","Congruent","Congruent"],"ratio_trial":[100,300,200,200,200,100,100,100,300,100,100,100,300,100,200,200,100,300,300,100,100,200,200,100,200,300,200,200,300,300,100,200,300,100,100,100,300,100,100,200,200,300,300,300,200,300,300,300,300,200,200,100,100,100,100,200,200,300,100,300,100,100,300,200,300,200,200,300,200,300,100,100,300,200,100,200,200,100,100,100,100,300,300,200,300,200,300,300,100,200,300,300,300,300,200,100,200,300,200,200,200,100,200,200,200,100,300,200,100,300,200,200,100,100,300,200,300,300,300,100],"left_num":[15,5,7,12,14,1,6,11,4,9,12,1,3,9,3,1,8,1,1,2,3,8,6,15,7,18,13,9,9,24,6,20,13,6,6,9,7,9,3,1,9,8,1,8,1,20,1,4,1,3,4,10,12,11,1,3,7,4,3,24,4,1,4,1,1,7,14,8,4,8,10,3,4,5,8,7,21,8,6,11,11,20,13,8,13,4,8,4,13,15,20,4,4,4,14,7,11,5,7,8,3,9,4,1,11,6,20,7,12,2,7,3,8,17,4,4,13,8,3,7],"right_num":[13,6,2,6,12,3,3,6,6,6,13,18,4,14,1,2,6,3,19,6,4,7,11,13,14,9,14,13,3,8,15,9,12,15,13,14,8,6,8,2,13,1,2,14,2,8,6,2,2,11,3,9,9,9,18,1,4,6,7,8,6,3,2,21,7,12,6,9,6,10,8,7,2,14,2,8,2,2,13,4,4,5,12,7,12,14,10,1,6,4,5,2,6,8,6,9,3,7,8,3,14,8,3,2,3,11,9,6,2,12,4,14,6,10,6,3,12,9,11,15],"left_den":[25,25,21,20,30,2,12,22,5,18,30,2,6,15,10,3,16,2,3,5,20,15,20,25,10,20,26,30,10,30,12,25,26,12,10,15,10,18,5,3,30,16,2,10,3,25,5,20,2,4,8,25,24,22,2,10,15,5,9,30,8,2,20,2,20,10,30,10,5,15,25,9,5,10,16,10,30,16,10,22,22,25,26,15,26,6,15,10,26,25,25,20,5,5,30,14,20,25,10,15,10,15,10,3,22,10,25,15,30,10,15,10,16,30,5,8,26,10,12,14],"right_den":[26,12,15,15,18,5,5,15,12,10,26,30,20,28,2,15,10,15,30,12,16,21,22,26,28,15,20,26,5,16,25,15,15,25,26,28,20,10,16,15,26,5,10,28,15,16,12,4,10,20,10,18,15,15,30,2,6,12,30,16,10,5,4,30,20,24,9,18,10,12,16,30,4,20,5,16,4,5,26,10,10,10,15,21,15,30,12,10,10,10,10,4,12,16,9,15,4,14,16,9,28,16,15,15,10,22,18,9,4,24,6,28,10,15,12,10,15,18,20,25],"correct_side":[1,2,1,1,2,2,2,1,1,2,2,2,1,1,2,1,2,1,2,2,2,1,2,1,1,1,2,2,1,1,2,1,2,2,1,1,1,2,1,1,2,1,1,1,1,1,2,2,1,1,1,2,2,2,2,2,2,1,1,1,2,2,2,2,2,1,2,1,1,2,2,1,1,2,1,1,1,1,1,1,1,1,2,1,2,1,2,1,2,1,1,2,1,1,2,2,2,2,1,1,2,1,1,1,1,1,1,2,2,2,2,2,2,2,1,1,2,1,2,2],"img_shown":["img2/100/Congruent/L/C_Dist_100_LN_15_LD_25_RN_13_RD_26_0.png","img2/300/Congruent/R/C_Dist_300_LN_5_LD_25_RN_6_RD_12_1.png","img2/200/Congruent/L/C_Dist_200_LN_7_LD_21_RN_2_RD_15_0.png","img2/200/Congruent/L/C_Dist_200_LN_12_LD_20_RN_6_RD_15_0.png","img2/200/Incongruent/R/I_Dist_200_LN_14_LD_30_RN_12_RD_18_1.png","img2/100/Congruent/R/C_Dist_100_LN_1_LD_2_RN_3_RD_5_1.png","img2/100/Incongruent/R/I_Dist_100_LN_6_LD_12_RN_3_RD_5_1.png","img2/100/Congruent/L/C_Dist_100_LN_11_LD_22_RN_6_RD_15_0.png","img2/300/Incongruent/L/I_Dist_300_LN_4_LD_5_RN_6_RD_12_0.png","img2/100/Incongruent/R/I_Dist_100_LN_9_LD_18_RN_6_RD_10_1.png","img2/100/Congruent/R/C_Dist_100_LN_12_LD_30_RN_13_RD_26_1.png","img2/100/Congruent/R/C_Dist_100_LN_1_LD_2_RN_18_RD_30_1.png","img2/300/Incongruent/L/I_Dist_300_LN_3_LD_6_RN_4_RD_20_0.png","img2/100/Incongruent/L/I_Dist_100_LN_9_LD_15_RN_14_RD_28_0.png","img2/200/Incongruent/R/I_Dist_200_LN_3_LD_10_RN_1_RD_2_1.png","img2/200/Incongruent/L/I_Dist_200_LN_1_LD_3_RN_2_RD_15_0.png","img2/100/Incongruent/R/I_Dist_100_LN_8_LD_16_RN_6_RD_10_1.png","img2/300/Incongruent/L/I_Dist_300_LN_1_LD_2_RN_3_RD_15_0.png","img2/300/Congruent/R/C_Dist_300_LN_1_LD_3_RN_19_RD_30_1.png","img2/100/Congruent/R/C_Dist_100_LN_2_LD_5_RN_6_RD_12_1.png","img2/100/Congruent/R/C_Dist_100_LN_3_LD_20_RN_4_RD_16_1.png","img2/200/Congruent/L/C_Dist_200_LN_8_LD_15_RN_7_RD_21_0.png","img2/200/Congruent/R/C_Dist_200_LN_6_LD_20_RN_11_RD_22_1.png","img2/100/Congruent/L/C_Dist_100_LN_15_LD_25_RN_13_RD_26_0.png","img2/200/Incongruent/L/I_Dist_200_LN_7_LD_10_RN_14_RD_28_0.png","img2/300/Congruent/L/C_Dist_300_LN_18_LD_20_RN_9_RD_15_0.png","img2/200/Congruent/R/C_Dist_200_LN_13_LD_26_RN_14_RD_20_1.png","img2/200/Congruent/R/C_Dist_200_LN_9_LD_30_RN_13_RD_26_1.png","img2/300/Congruent/L/C_Dist_300_LN_9_LD_10_RN_3_RD_5_0.png","img2/300/Congruent/L/C_Dist_300_LN_24_LD_30_RN_8_RD_16_0.png","img2/100/Congruent/R/C_Dist_100_LN_6_LD_12_RN_15_RD_25_1.png","img2/200/Congruent/L/C_Dist_200_LN_20_LD_25_RN_9_RD_15_0.png","img2/300/Incongruent/R/I_Dist_300_LN_13_LD_26_RN_12_RD_15_1.png","img2/100/Congruent/R/C_Dist_100_LN_6_LD_12_RN_15_RD_25_1.png","img2/100/Incongruent/L/I_Dist_100_LN_6_LD_10_RN_13_RD_26_0.png","img2/100/Incongruent/L/I_Dist_100_LN_9_LD_15_RN_14_RD_28_0.png","img2/300/Incongruent/L/I_Dist_300_LN_7_LD_10_RN_8_RD_20_0.png","img2/100/Incongruent/R/I_Dist_100_LN_9_LD_18_RN_6_RD_10_1.png","img2/100/Incongruent/L/I_Dist_100_LN_3_LD_5_RN_8_RD_16_0.png","img2/200/Incongruent/L/I_Dist_200_LN_1_LD_3_RN_2_RD_15_0.png","img2/200/Congruent/R/C_Dist_200_LN_9_LD_30_RN_13_RD_26_1.png","img2/300/Congruent/L/C_Dist_300_LN_8_LD_16_RN_1_RD_5_0.png","img2/300/Incongruent/L/I_Dist_300_LN_1_LD_2_RN_2_RD_10_0.png","img2/300/Incongruent/L/I_Dist_300_LN_8_LD_10_RN_14_RD_28_0.png","img2/200/Incongruent/L/I_Dist_200_LN_1_LD_3_RN_2_RD_15_0.png","img2/300/Congruent/L/C_Dist_300_LN_20_LD_25_RN_8_RD_16_0.png","img2/300/Congruent/R/C_Dist_300_LN_1_LD_5_RN_6_RD_12_1.png","img2/300/Incongruent/R/I_Dist_300_LN_4_LD_20_RN_2_RD_4_1.png","img2/300/Incongruent/L/I_Dist_300_LN_1_LD_2_RN_2_RD_10_0.png","img2/200/Incongruent/L/I_Dist_200_LN_3_LD_4_RN_11_RD_20_0.png","img2/200/Congruent/L/C_Dist_200_LN_4_LD_8_RN_3_RD_10_0.png","img2/100/Incongruent/R/I_Dist_100_LN_10_LD_25_RN_9_RD_18_1.png","img2/100/Incongruent/R/I_Dist_100_LN_12_LD_24_RN_9_RD_15_1.png","img2/100/Incongruent/R/I_Dist_100_LN_11_LD_22_RN_9_RD_15_1.png","img2/100/Congruent/R/C_Dist_100_LN_1_LD_2_RN_18_RD_30_1.png","img2/200/Incongruent/R/I_Dist_200_LN_3_LD_10_RN_1_RD_2_1.png","img2/200/Incongruent/R/I_Dist_200_LN_7_LD_15_RN_4_RD_6_1.png","img2/300/Incongruent/L/I_Dist_300_LN_4_LD_5_RN_6_RD_12_0.png","img2/100/Incongruent/L/I_Dist_100_LN_3_LD_9_RN_7_RD_30_0.png","img2/300/Congruent/L/C_Dist_300_LN_24_LD_30_RN_8_RD_16_0.png","img2/100/Congruent/R/C_Dist_100_LN_4_LD_8_RN_6_RD_10_1.png","img2/100/Congruent/R/C_Dist_100_LN_1_LD_2_RN_3_RD_5_1.png","img2/300/Incongruent/R/I_Dist_300_LN_4_LD_20_RN_2_RD_4_1.png","img2/200/Congruent/R/C_Dist_200_LN_1_LD_2_RN_21_RD_30_1.png","img2/300/Congruent/R/C_Dist_300_LN_1_LD_20_RN_7_RD_20_1.png","img2/200/Incongruent/L/I_Dist_200_LN_7_LD_10_RN_12_RD_24_0.png","img2/200/Incongruent/R/I_Dist_200_LN_14_LD_30_RN_6_RD_9_1.png","img2/300/Incongruent/L/I_Dist_300_LN_8_LD_10_RN_9_RD_18_0.png","img2/200/Incongruent/L/I_Dist_200_LN_4_LD_5_RN_6_RD_10_0.png","img2/300/Congruent/R/C_Dist_300_LN_8_LD_15_RN_10_RD_12_1.png","img2/100/Incongruent/R/I_Dist_100_LN_10_LD_25_RN_8_RD_16_1.png","img2/100/Incongruent/L/I_Dist_100_LN_3_LD_9_RN_7_RD_30_0.png","img2/300/Congruent/L/C_Dist_300_LN_4_LD_5_RN_2_RD_4_0.png","img2/200/Congruent/R/C_Dist_200_LN_5_LD_10_RN_14_RD_20_1.png","img2/100/Congruent/L/C_Dist_100_LN_8_LD_16_RN_2_RD_5_0.png","img2/200/Incongruent/L/I_Dist_200_LN_7_LD_10_RN_8_RD_16_0.png","img2/200/Congruent/L/C_Dist_200_LN_21_LD_30_RN_2_RD_4_0.png","img2/100/Congruent/L/C_Dist_100_LN_8_LD_16_RN_2_RD_5_0.png","img2/100/Incongruent/L/I_Dist_100_LN_6_LD_10_RN_13_RD_26_0.png","img2/100/Congruent/L/C_Dist_100_LN_11_LD_22_RN_4_RD_10_0.png","img2/100/Congruent/L/C_Dist_100_LN_11_LD_22_RN_4_RD_10_0.png","img2/300/Congruent/L/C_Dist_300_LN_20_LD_25_RN_5_RD_10_0.png","img2/300/Incongruent/R/I_Dist_300_LN_13_LD_26_RN_12_RD_15_1.png","img2/200/Congruent/L/C_Dist_200_LN_8_LD_15_RN_7_RD_21_0.png","img2/300/Incongruent/R/I_Dist_300_LN_13_LD_26_RN_12_RD_15_1.png","img2/200/Incongruent/L/I_Dist_200_LN_4_LD_6_RN_14_RD_30_0.png","img2/300/Congruent/R/C_Dist_300_LN_8_LD_15_RN_10_RD_12_1.png","img2/300/Congruent/L/C_Dist_300_LN_4_LD_10_RN_1_RD_10_0.png","img2/100/Incongruent/R/I_Dist_100_LN_13_LD_26_RN_6_RD_10_1.png","img2/200/Congruent/L/C_Dist_200_LN_15_LD_25_RN_4_RD_10_0.png","img2/300/Congruent/L/C_Dist_300_LN_20_LD_25_RN_5_RD_10_0.png","img2/300/Incongruent/R/I_Dist_300_LN_4_LD_20_RN_2_RD_4_1.png","img2/300/Incongruent/L/I_Dist_300_LN_4_LD_5_RN_6_RD_12_0.png","img2/300/Incongruent/L/I_Dist_300_LN_4_LD_5_RN_8_RD_16_0.png","img2/200/Incongruent/R/I_Dist_200_LN_14_LD_30_RN_6_RD_9_1.png","img2/100/Congruent/R/C_Dist_100_LN_7_LD_14_RN_9_RD_15_1.png","img2/200/Incongruent/R/I_Dist_200_LN_11_LD_20_RN_3_RD_4_1.png","img2/300/Congruent/R/C_Dist_300_LN_5_LD_25_RN_7_RD_14_1.png","img2/200/Incongruent/L/I_Dist_200_LN_7_LD_10_RN_8_RD_16_0.png","img2/200/Congruent/L/C_Dist_200_LN_8_LD_15_RN_3_RD_9_0.png","img2/200/Congruent/R/C_Dist_200_LN_3_LD_10_RN_14_RD_28_1.png","img2/100/Congruent/L/C_Dist_100_LN_9_LD_15_RN_8_RD_16_0.png","img2/200/Congruent/L/C_Dist_200_LN_4_LD_10_RN_3_RD_15_0.png","img2/200/Incongruent/L/I_Dist_200_LN_1_LD_3_RN_2_RD_15_0.png","img2/200/Congruent/L/C_Dist_200_LN_11_LD_22_RN_3_RD_10_0.png","img2/100/Incongruent/L/I_Dist_100_LN_6_LD_10_RN_11_RD_22_0.png","img2/300/Congruent/L/C_Dist_300_LN_20_LD_25_RN_9_RD_18_0.png","img2/200/Incongruent/R/I_Dist_200_LN_7_LD_15_RN_6_RD_9_1.png","img2/100/Incongruent/R/I_Dist_100_LN_12_LD_30_RN_2_RD_4_1.png","img2/300/Congruent/R/C_Dist_300_LN_2_LD_10_RN_12_RD_24_1.png","img2/200/Incongruent/R/I_Dist_200_LN_7_LD_15_RN_4_RD_6_1.png","img2/200/Congruent/R/C_Dist_200_LN_3_LD_10_RN_14_RD_28_1.png","img2/100/Incongruent/R/I_Dist_100_LN_8_LD_16_RN_6_RD_10_1.png","img2/100/Incongruent/R/I_Dist_100_LN_17_LD_30_RN_10_RD_15_1.png","img2/300/Incongruent/L/I_Dist_300_LN_4_LD_5_RN_6_RD_12_0.png","img2/200/Congruent/L/C_Dist_200_LN_4_LD_8_RN_3_RD_10_0.png","img2/300/Incongruent/R/I_Dist_300_LN_13_LD_26_RN_12_RD_15_1.png","img2/300/Incongruent/L/I_Dist_300_LN_8_LD_10_RN_9_RD_18_0.png","img2/300/Congruent/R/C_Dist_300_LN_3_LD_12_RN_11_RD_20_1.png","img2/100/Congruent/R/C_Dist_100_LN_7_LD_14_RN_15_RD_25_1.png"],"dist100_C":[["C_Dist_100_LN_10_LD_25_RN_3_RD_10_0.png","C_Dist_100_LN_11_LD_22_RN_4_RD_10_0.png","C_Dist_100_LN_11_LD_22_RN_6_RD_15_0.png","C_Dist_100_LN_15_LD_25_RN_13_RD_26_0.png","C_Dist_100_LN_3_LD_6_RN_2_RD_5_0.png","C_Dist_100_LN_6_LD_20_RN_5_RD_25_0.png","C_Dist_100_LN_8_LD_16_RN_2_RD_5_0.png","C_Dist_100_LN_9_LD_15_RN_8_RD_16_0.png"],["C_Dist_100_LN_1_LD_2_RN_18_RD_30_1.png","C_Dist_100_LN_1_LD_2_RN_3_RD_5_1.png","C_Dist_100_LN_12_LD_30_RN_13_RD_26_1.png","C_Dist_100_LN_2_LD_5_RN_11_RD_22_1.png","C_Dist_100_LN_2_LD_5_RN_6_RD_12_1.png","C_Dist_100_LN_3_LD_20_RN_4_RD_16_1.png","C_Dist_100_LN_4_LD_10_RN_15_RD_30_1.png","C_Dist_100_LN_4_LD_8_RN_6_RD_10_1.png","C_Dist_100_LN_6_LD_12_RN_15_RD_25_1.png","C_Dist_100_LN_7_LD_14_RN_15_RD_25_1.png","C_Dist_100_LN_7_LD_14_RN_9_RD_15_1.png"]],"dist100_I":[["I_Dist_100_LN_1_LD_2_RN_8_RD_20_0.png","I_Dist_100_LN_2_LD_4_RN_6_RD_15_0.png","I_Dist_100_LN_2_LD_4_RN_8_RD_20_0.png","I_Dist_100_LN_3_LD_5_RN_11_RD_22_0.png","I_Dist_100_LN_3_LD_5_RN_8_RD_16_0.png","I_Dist_100_LN_3_LD_6_RN_4_RD_10_0.png","I_Dist_100_LN_3_LD_9_RN_7_RD_30_0.png","I_Dist_100_LN_4_LD_8_RN_8_RD_20_0.png","I_Dist_100_LN_6_LD_10_RN_11_RD_22_0.png","I_Dist_100_LN_6_LD_10_RN_13_RD_26_0.png","I_Dist_100_LN_6_LD_10_RN_7_RD_14_0.png","I_Dist_100_LN_9_LD_10_RN_20_RD_25_0.png","I_Dist_100_LN_9_LD_15_RN_13_RD_26_0.png","I_Dist_100_LN_9_LD_15_RN_14_RD_28_0.png"],["I_Dist_100_LN_10_LD_25_RN_8_RD_16_1.png","I_Dist_100_LN_10_LD_25_RN_9_RD_18_1.png","I_Dist_100_LN_11_LD_22_RN_9_RD_15_1.png","I_Dist_100_LN_12_LD_24_RN_9_RD_15_1.png","I_Dist_100_LN_12_LD_30_RN_2_RD_4_1.png","I_Dist_100_LN_13_LD_26_RN_12_RD_20_1.png","I_Dist_100_LN_13_LD_26_RN_6_RD_10_1.png","I_Dist_100_LN_17_LD_30_RN_10_RD_15_1.png","I_Dist_100_LN_6_LD_12_RN_3_RD_5_1.png","I_Dist_100_LN_8_LD_16_RN_6_RD_10_1.png","I_Dist_100_LN_8_LD_20_RN_1_RD_2_1.png","I_Dist_100_LN_9_LD_18_RN_6_RD_10_1.png"]],"dist100_S":[["E_Dist_100_LN_2_LD_12_RN_2_RD_30_0.png","E_Dist_100_LN_6_LD_10_RN_6_RD_12_0.png"],["E_Dist_100_LN_6_LD_12_RN_6_RD_10_1.png"]],"dist200_C":[["C_Dist_200_LN_11_LD_22_RN_3_RD_10_0.png","C_Dist_200_LN_12_LD_15_RN_6_RD_10_0.png","C_Dist_200_LN_12_LD_20_RN_6_RD_15_0.png","C_Dist_200_LN_14_LD_28_RN_6_RD_20_0.png","C_Dist_200_LN_15_LD_25_RN_4_RD_10_0.png","C_Dist_200_LN_16_LD_20_RN_12_RD_20_0.png","C_Dist_200_LN_16_LD_30_RN_9_RD_27_0.png","C_Dist_200_LN_20_LD_25_RN_9_RD_15_0.png","C_Dist_200_LN_21_LD_30_RN_2_RD_4_0.png","C_Dist_200_LN_4_LD_10_RN_3_RD_15_0.png","C_Dist_200_LN_4_LD_8_RN_3_RD_10_0.png","C_Dist_200_LN_6_LD_15_RN_3_RD_15_0.png","C_Dist_200_LN_7_LD_21_RN_2_RD_15_0.png","C_Dist_200_LN_8_LD_15_RN_2_RD_6_0.png","C_Dist_200_LN_8_LD_15_RN_3_RD_9_0.png","C_Dist_200_LN_8_LD_15_RN_7_RD_21_0.png","C_Dist_200_LN_9_LD_20_RN_4_RD_16_0.png"],["C_Dist_200_LN_1_LD_2_RN_21_RD_30_1.png","C_Dist_200_LN_13_LD_26_RN_14_RD_20_1.png","C_Dist_200_LN_3_LD_10_RN_11_RD_22_1.png","C_Dist_200_LN_3_LD_10_RN_14_RD_28_1.png","C_Dist_200_LN_3_LD_10_RN_7_RD_14_1.png","C_Dist_200_LN_3_LD_12_RN_9_RD_20_1.png","C_Dist_200_LN_3_LD_6_RN_14_RD_20_1.png","C_Dist_200_LN_5_LD_10_RN_14_RD_20_1.png","C_Dist_200_LN_6_LD_12_RN_7_RD_10_1.png","C_Dist_200_LN_6_LD_20_RN_11_RD_22_1.png","C_Dist_200_LN_7_LD_15_RN_18_RD_27_1.png","C_Dist_200_LN_9_LD_30_RN_13_RD_26_1.png"]],"dist200_I":[["I_Dist_200_LN_1_LD_2_RN_3_RD_10_0.png","I_Dist_200_LN_1_LD_3_RN_2_RD_15_0.png","I_Dist_200_LN_3_LD_4_RN_11_RD_20_0.png","I_Dist_200_LN_4_LD_5_RN_6_RD_10_0.png","I_Dist_200_LN_4_LD_6_RN_14_RD_30_0.png","I_Dist_200_LN_7_LD_10_RN_12_RD_24_0.png","I_Dist_200_LN_7_LD_10_RN_14_RD_28_0.png","I_Dist_200_LN_7_LD_10_RN_8_RD_16_0.png"],["I_Dist_200_LN_11_LD_20_RN_3_RD_4_1.png","I_Dist_200_LN_14_LD_30_RN_12_RD_18_1.png","I_Dist_200_LN_14_LD_30_RN_6_RD_9_1.png","I_Dist_200_LN_3_LD_10_RN_1_RD_2_1.png","I_Dist_200_LN_4_LD_30_RN_1_RD_3_1.png","I_Dist_200_LN_6_LD_20_RN_3_RD_6_1.png","I_Dist_200_LN_7_LD_15_RN_4_RD_6_1.png","I_Dist_200_LN_7_LD_15_RN_6_RD_9_1.png","I_Dist_200_LN_9_LD_15_RN_8_RD_10_1.png"]],"dist200_S":[["E_Dist_200_LN_3_LD_6_RN_3_RD_10_0.png"],["E_Dist_200_LN_3_LD_10_RN_3_RD_6_1.png"]],"dist300_C":[["C_Dist_300_LN_11_LD_22_RN_1_RD_5_0.png","C_Dist_300_LN_11_LD_22_RN_2_RD_10_0.png","C_Dist_300_LN_11_LD_22_RN_4_RD_20_0.png","C_Dist_300_LN_12_LD_24_RN_2_RD_10_0.png","C_Dist_300_LN_18_LD_20_RN_9_RD_15_0.png","C_Dist_300_LN_20_LD_25_RN_13_RD_26_0.png","C_Dist_300_LN_20_LD_25_RN_14_RD_28_0.png","C_Dist_300_LN_20_LD_25_RN_5_RD_10_0.png","C_Dist_300_LN_20_LD_25_RN_8_RD_16_0.png","C_Dist_300_LN_20_LD_25_RN_9_RD_18_0.png","C_Dist_300_LN_24_LD_30_RN_2_RD_4_0.png","C_Dist_300_LN_24_LD_30_RN_8_RD_16_0.png","C_Dist_300_LN_3_LD_6_RN_2_RD_10_0.png","C_Dist_300_LN_4_LD_10_RN_1_RD_10_0.png","C_Dist_300_LN_4_LD_5_RN_2_RD_4_0.png","C_Dist_300_LN_8_LD_16_RN_1_RD_5_0.png","C_Dist_300_LN_9_LD_10_RN_3_RD_5_0.png"],["C_Dist_300_LN_1_LD_20_RN_7_RD_20_1.png","C_Dist_300_LN_1_LD_3_RN_19_RD_30_1.png","C_Dist_300_LN_1_LD_30_RN_8_RD_24_1.png","C_Dist_300_LN_1_LD_5_RN_11_RD_22_1.png","C_Dist_300_LN_1_LD_5_RN_3_RD_6_1.png","C_Dist_300_LN_1_LD_5_RN_6_RD_12_1.png","C_Dist_300_LN_2_LD_10_RN_12_RD_24_1.png","C_Dist_300_LN_2_LD_20_RN_10_RD_25_1.png","C_Dist_300_LN_3_LD_12_RN_11_RD_20_1.png","C_Dist_300_LN_3_LD_6_RN_4_RD_5_1.png","C_Dist_300_LN_4_LD_20_RN_13_RD_26_1.png","C_Dist_300_LN_5_LD_25_RN_6_RD_12_1.png","C_Dist_300_LN_5_LD_25_RN_7_RD_14_1.png","C_Dist_300_LN_7_LD_14_RN_20_RD_25_1.png","C_Dist_300_LN_8_LD_15_RN_10_RD_12_1.png"]],"dist300_I":[["I_Dist_300_LN_1_LD_2_RN_2_RD_10_0.png","I_Dist_300_LN_1_LD_2_RN_3_RD_15_0.png","I_Dist_300_LN_2_LD_4_RN_6_RD_30_0.png","I_Dist_300_LN_3_LD_6_RN_4_RD_20_0.png","I_Dist_300_LN_4_LD_5_RN_6_RD_12_0.png","I_Dist_300_LN_4_LD_5_RN_8_RD_16_0.png","I_Dist_300_LN_7_LD_10_RN_8_RD_20_0.png","I_Dist_300_LN_8_LD_10_RN_14_RD_28_0.png","I_Dist_300_LN_8_LD_10_RN_9_RD_18_0.png"],["I_Dist_300_LN_13_LD_26_RN_12_RD_15_1.png","I_Dist_300_LN_4_LD_20_RN_2_RD_4_1.png"]],"dist300_S":[["E_Dist_300_LN_9_LD_12_RN_9_RD_20_0.png"],["E_Dist_300_LN_18_LD_30_RN_18_RD_20_1.png","E_Dist_300_LN_3_LD_10_RN_3_RD_5_1.png","E_Dist_300_LN_9_LD_20_RN_9_RD_12_1.png"]],"dist500_C":[["C_Dist_500_LN_10_LD_13_RN_7_RD_26_0.png","C_Dist_500_LN_10_LD_15_RN_4_RD_24_0.png","C_Dist_500_LN_12_LD_16_RN_3_RD_12_0.png","C_Dist_500_LN_12_LD_18_RN_4_RD_24_0.png","C_Dist_500_LN_15_LD_18_RN_5_RD_15_0.png","C_Dist_500_LN_15_LD_20_RN_1_RD_4_0.png","C_Dist_500_LN_18_LD_27_RN_1_RD_6_0.png","C_Dist_500_LN_20_LD_24_RN_1_RD_3_0.png","C_Dist_500_LN_20_LD_24_RN_3_RD_9_0.png","C_Dist_500_LN_20_LD_24_RN_7_RD_21_0.png","C_Dist_500_LN_20_LD_28_RN_3_RD_14_0.png","C_Dist_500_LN_21_LD_28_RN_6_RD_24_0.png","C_Dist_500_LN_22_LD_28_RN_2_RD_7_0.png","C_Dist_500_LN_25_LD_30_RN_9_RD_27_0.png","C_Dist_500_LN_4_LD_6_RN_1_RD_6_0.png","C_Dist_500_LN_5_LD_6_RN_2_RD_6_0.png","C_Dist_500_LN_6_LD_9_RN_1_RD_6_0.png","C_Dist_500_LN_7_LD_10_RN_1_RD_5_0.png","C_Dist_500_LN_8_LD_12_RN_1_RD_6_0.png","C_Dist_500_LN_8_LD_12_RN_4_RD_24_0.png"],["C_Dist_500_LN_1_LD_4_RN_12_RD_16_1.png","C_Dist_500_LN_1_LD_4_RN_9_RD_12_1.png","C_Dist_500_LN_1_LD_9_RN_11_RD_18_1.png","C_Dist_500_LN_10_LD_24_RN_22_RD_24_1.png","C_Dist_500_LN_2_LD_12_RN_10_RD_15_1.png","C_Dist_500_LN_2_LD_12_RN_12_RD_18_1.png","C_Dist_500_LN_2_LD_12_RN_4_RD_6_1.png","C_Dist_500_LN_2_LD_24_RN_7_RD_12_1.png","C_Dist_500_LN_2_LD_5_RN_18_RD_20_1.png","C_Dist_500_LN_2_LD_5_RN_9_RD_10_1.png","C_Dist_500_LN_2_LD_8_RN_12_RD_16_1.png","C_Dist_500_LN_2_LD_8_RN_21_RD_28_1.png","C_Dist_500_LN_3_LD_10_RN_4_RD_5_1.png","C_Dist_500_LN_3_LD_12_RN_15_RD_20_1.png","C_Dist_500_LN_3_LD_30_RN_6_RD_10_1.png","C_Dist_500_LN_3_LD_8_RN_14_RD_16_1.png","C_Dist_500_LN_4_LD_16_RN_15_RD_20_1.png","C_Dist_500_LN_4_LD_24_RN_12_RD_18_1.png","C_Dist_500_LN_5_LD_14_RN_6_RD_7_1.png","C_Dist_500_LN_7_LD_21_RN_20_RD_24_1.png","C_Dist_500_LN_7_LD_28_RN_12_RD_16_1.png","C_Dist_500_LN_7_LD_28_RN_9_RD_12_1.png","C_Dist_500_LN_9_LD_27_RN_20_RD_24_1.png"]],"dist500_I":[["I_Dist_500_LN_2_LD_3_RN_4_RD_24_0.png","I_Dist_500_LN_5_LD_6_RN_6_RD_18_0.png","I_Dist_500_LN_7_LD_8_RN_9_RD_24_0.png"],["I_Dist_500_LN_7_LD_21_RN_5_RD_6_1.png"]],"dist500_S":[["E_Dist_500_LN_6_LD_8_RN_6_RD_24_0.png"],["E_Dist_500_LN_2_LD_12_RN_2_RD_3_1.png","E_Dist_500_LN_6_LD_24_RN_6_RD_8_1.png"]]}},{"start_time":1552073162709,"click_time":1552073175157,"finger_time":1552073163337,"fix_duration":1248.6930393763562,"trial":1,"RT":628,"MT":11820,"sideResp":1,"stimulus":[],"xmouse":[787,787,787,787,787,787,787,787,787,787,787,787,787,787,787,787,788,789,793,796,800,804,811,812,812,812,812,807,799,790,778,768,746,726,688,663,636,636,636,636,636,637,638,638,638,637,636,635,635,635,635,645,653,656,668,673,687,692,696,700,704,713,716,718,721,724,727,734,736,738,740,744,746,748,749,751,754,762,765,768,769,770,770,770,770,770,770,770,770,770,771,772,775,775,775,775,776,776,778,781,782,783,783,783,783,783,783,783,783,783,783,783,783,783,783,783,783,783,783,783,783,783,783,783,783,783,783,783,783,783,783,783,783,783,783,783,783,783,783,783,783,783,783,783,783,783,783,783,783,783,783,783,783,783,783,783,783,783,783,783,783,782,780,769,764,755,729,605,528,466,419,397,386,385,385,385,385,385,385,386,394,408,462,477,490,499,506,514,520,526,533,539,549,552,556,562,566,581,587,594,600,608,616,620,623,626,631,640,647,654,660,666,681,690,698,705,713,726,731,736,739,741,748,752,756,766,774,789,799,808,813,817,818,818,818,818,818,818,818,818,816,816,808,801,794,789,787,786,786,786,786,786,786,786,785,784,784,784,784,784,784,784,784,784,784,784,784,784,784,784,784,784,784,784,784,784,784,784,784,784,784,784,784,784,784,784,784,784,784,784,784,784,784,784,784,784,784,784,784,784,784,784,784,784,784,784,784,784,784,784,784,784,784,784,784,784,784,784,784,784,784,784,784,784,784,784,784,784,784,784,784,784,784,784,784,784,784,784,784,784,784,784,784,784,784,784,784,784,784,784,784,784,784,784,784,784,784,784,784,784,784,784,784,784,784,784,784,784,784,784,784,784,784,784,784,784,784,784,784,784,784,784,784,784,784,784,784,784,784,784,784,784,784,784,784,784,784,784,784,784,784,784,784,784,784,784,784,784,784,784,784,784,784,784,784,784,784,784,784,784,784,784,784,784,784,784,784,784,784,784,784,784,784,784,784,784,784,784,784,784,784,784,784,784,784,784,784,784,784,784,784,784,784,784,784,784,784,784,784,784,784,784,784,784,784,784,784,784,784,784,784,784,784,784,784,784,784,784,784,784,784,784,784,784,784,784,784,784,784,784,784,784,784,784,784,784,784,784,784,784,784,784,784,784,784,784,784,784,784,784,784,784,784,784,784,784,784,784,784,784,784,784,784,784,784,784,784,784,784,784,784,784,784,784,784,784,784,784,784,784,784,784,784,784,784,784,784,784,784,784,784,784,784,784,784,784,784,784,784,784,784,784,784,784,784,784,784,784,784,784,784,784,784,784,784,784,784,784,784,784,784,784,784,784,784,784,784,784,784,784,784,784,784,784,784,784,784,784,784,784,784,784,784,784,784,795,807,830,864,864,862,852,835,769,713,636,542,390,311,313,344,449],"ymouse":[627,627,627,627,627,627,627,627,627,627,627,627,627,627,627,627,623,622,618,614,611,606,596,594,593,591,587,584,580,575,566,555,492,419,287,190,92,88,88,88,90,96,102,103,104,106,109,121,126,132,140,164,183,191,218,236,274,291,306,319,332,355,363,376,386,394,404,419,426,431,437,443,451,456,465,477,490,519,533,543,550,555,559,559,559,561,562,568,571,575,581,586,598,598,599,599,599,599,602,607,610,611,611,611,611,611,611,611,611,611,612,612,612,612,612,612,612,612,612,612,612,612,612,612,612,612,612,612,612,612,612,612,612,612,612,612,612,612,612,612,612,612,612,612,612,612,612,612,612,612,612,612,612,612,612,612,612,612,612,612,612,609,606,582,547,472,385,154,43,0,0,0,0,0,0,0,0,0,1,7,26,48,123,140,156,169,183,203,215,231,245,259,292,306,324,343,359,395,408,419,430,444,459,466,470,475,482,497,508,517,526,531,544,549,551,555,558,566,569,572,574,577,584,586,590,598,604,613,617,619,619,619,618,618,618,618,618,618,617,617,617,616,614,614,614,614,614,614,614,614,614,614,614,614,614,614,614,614,614,614,614,614,614,614,614,614,614,614,614,614,614,614,614,614,614,614,614,614,614,614,614,614,614,614,614,614,614,614,614,614,614,614,614,614,614,614,614,614,614,614,614,614,614,614,614,614,614,614,614,614,614,614,614,614,614,614,614,614,614,614,614,614,614,614,614,614,614,614,614,614,614,614,614,614,614,614,614,614,614,614,614,614,614,614,614,614,614,614,614,614,614,614,614,614,614,614,614,614,614,614,614,614,614,614,614,614,614,614,614,614,614,614,614,614,614,614,614,614,614,614,614,614,614,614,614,614,614,614,614,614,614,614,614,614,614,614,614,614,614,614,614,614,614,614,614,614,614,614,614,614,614,614,614,614,614,614,614,614,614,614,614,614,614,614,614,614,614,614,614,614,614,614,614,614,614,614,614,614,614,614,614,614,614,614,614,614,614,614,614,614,614,614,614,614,614,614,614,614,614,614,614,614,614,614,614,614,614,614,614,614,614,614,614,614,614,614,614,614,614,614,614,614,614,614,614,614,614,614,614,614,614,614,614,614,614,614,614,614,614,614,614,614,614,614,614,614,614,614,614,614,614,614,614,614,614,614,614,614,614,614,614,614,614,614,614,614,614,614,614,614,614,614,614,614,614,614,614,614,614,614,614,614,614,614,614,614,614,614,614,614,614,614,614,614,614,614,614,614,614,614,614,614,614,614,614,614,614,614,614,614,614,614,614,614,614,614,614,614,614,614,614,614,614,614,614,614,614,614,614,614,614,614,614,614,614,614,614,614,614,614,614,614,614,614,614,586,557,489,352,311,269,229,181,81,27,0,0,0,0,5,20,49],"timestamp_mouse":[13,47,67,89,109,128,148,167,189,209,227,249,269,289,308,329,349,368,388,408,428,447,468,489,508,528,549,568,589,607,628,648,668,688,708,728,749,768,788,809,828,847,868,889,909,929,949,968,988,1008,1028,1050,1069,1088,1108,1128,1149,1168,1188,1208,1229,1250,1267,1288,1307,1329,1349,1367,1389,1408,1429,1448,1468,1488,1509,1528,1549,1568,1589,1608,1629,1649,1669,1688,1707,1728,1749,1768,1788,1808,1829,1848,1868,1889,1907,1929,1948,1968,1989,2009,2029,2049,2069,2088,2109,2128,2149,2169,2189,2208,2229,2248,2269,2289,2309,2328,2349,2369,2388,2409,2429,2449,2469,2489,2508,2529,2548,2569,2589,2609,2629,2649,2668,2689,2709,2729,2748,2769,2788,2809,2828,2849,2869,2889,2908,2929,2949,2969,2987,3007,3029,3049,3069,3088,3108,3129,3149,3168,3189,3209,3229,3248,3267,3288,3308,3329,3349,3368,3388,3408,3428,3447,3468,3488,3509,3529,3548,3568,3587,3608,3628,3649,3668,3689,3708,3728,3748,3767,3789,3808,3829,3848,3868,3889,3908,3929,3949,3968,3988,4008,4029,4048,4067,4088,4108,4128,4149,4168,4187,4209,4229,4248,4269,4290,4308,4328,4349,4368,4387,4409,4429,4447,4468,4487,4507,4529,4549,4569,4589,4608,4629,4649,4668,4689,4709,4729,4748,4768,4789,4808,4828,4847,4867,4889,4908,4927,4949,4968,4988,5009,5029,5049,5068,5089,5108,5129,5147,5168,5189,5208,5229,5248,5268,5288,5309,5328,5349,5368,5389,5407,5429,5449,5468,5489,5509,5528,5548,5569,5588,5608,5628,5649,5668,5689,5708,5730,5749,5769,5789,5808,5828,5847,5869,5889,5908,5928,5948,5968,5988,6007,6028,6049,6068,6089,6108,6127,6147,6169,6189,6208,6229,6248,6268,6288,6308,6329,6349,6369,6389,6409,6429,6447,6469,6489,6508,6528,6549,6568,6588,6608,6629,6649,6669,6689,6709,6729,6748,6768,6789,6808,6828,6849,6869,6888,6908,6928,6948,6969,6989,7008,7029,7048,7069,7089,7108,7128,7149,7169,7189,7209,7228,7249,7268,7289,7309,7329,7348,7369,7389,7409,7428,7449,7468,7489,7508,7528,7548,7569,7589,7609,7628,7649,7668,7688,7709,7729,7748,7769,7789,7808,7828,7849,7868,7888,7909,7928,7948,7969,7987,8009,8029,8049,8069,8089,8109,8129,8148,8169,8188,8207,8228,8248,8269,8289,8308,8329,8348,8368,8388,8408,8429,8448,8469,8489,8508,8527,8548,8567,8589,8609,8629,8648,8668,8688,8708,8729,8749,8769,8789,8809,8829,8849,8867,8888,8909,8929,8948,8968,8988,9008,9028,9048,9067,9088,9108,9128,9148,9168,9188,9209,9229,9249,9267,9288,9309,9329,9349,9367,9389,9409,9428,9448,9469,9489,9509,9528,9549,9569,9588,9609,9629,9648,9668,9688,9708,9728,9749,9769,9788,9809,9829,9849,9868,9888,9909,9927,9949,9968,9988,10008,10029,10048,10069,10088,10107,10127,10149,10169,10188,10209,10228,10249,10268,10289,10308,10329,10349,10368,10388,10409,10429,10449,10469,10489,10508,10528,10548,10568,10589,10608,10629,10649,10668,10688,10707,10729,10749,10768,10787,10809,10829,10848,10869,10887,10908,10928,10948,10969,10988,11008,11028,11047,11069,11088,11109,11128,11149,11169,11188,11208,11229,11249,11267,11288,11309,11328,11349,11369,11388,11407,11429,11449,11469,11488,11509,11529,11548,11569,11588,11608,11628,11647,11668,11688,11708,11729,11748,11768,11788,11809,11829,11847,11869,11889,11908,11929,11948,11969,11988,12008,12028,12049,12069,12089,12108,12129,12148,12169,12188,12207,12228,12249,12269,12288,12307,12329,12349,12368,12388,12408,12429,12448],"xSR":741.5,"ySR":573.95,"xT1":424.9,"yT1":0,"xT2":1058.1,"yT2":0,"toosoon":0,"cond_shown":"Congruent","ratio_trial":300,"L_num":5,"L_den":25,"R_num":6,"R_den":12,"correct_side":2,"subjID":"mariapuentesobando9","gender":"1","school":"4","age":"9"},{"start_time":1552073177283,"click_time":1552073178198,"finger_time":1552073178058,"fix_duration":1385.311175859314,"trial":2,"RT":775,"MT":140,"sideResp":1,"stimulus":[],"xmouse":[773,773,773,773,773,773,773,773,773,773,773,773,773,773,773,773,773,773,773,773,773,773,773,773,773,773,773,773,773,773,773,773,773,773,773,773,771,764,748,729,665,631,590,558,532,488],"ymouse":[611,611,611,611,611,611,611,611,611,611,611,611,611,611,611,611,611,611,611,611,611,611,611,611,611,611,611,611,611,611,611,611,611,611,611,611,605,597,571,537,423,357,280,205,138,28],"timestamp_mouse":[15,40,54,75,94,115,135,154,175,195,213,234,255,275,294,313,335,355,373,393,413,435,454,474,495,514,535,553,573,594,614,635,655,675,695,714,735,755,775,795,814,834,855,873,894,915],"xSR":741.5,"ySR":573.95,"xT1":424.9,"yT1":0,"xT2":1058.1,"yT2":0,"toosoon":0,"cond_shown":"Congruent","ratio_trial":200,"L_num":7,"L_den":21,"R_num":2,"R_den":15,"correct_side":1,"subjID":"mariapuentesobando9","gender":"1","school":"4","age":"9"},{"start_time":1552073179739,"click_time":1552073182658,"finger_time":1552073180537,"fix_duration":839.5270785871234,"trial":3,"RT":798,"MT":2121,"sideResp":1,"stimulus":[],"xmouse":[792,792,792,792,792,792,792,792,792,792,792,792,792,792,792,792,792,792,792,792,792,792,792,791,791,791,791,791,791,791,791,791,790,782,774,768,762,758,743,733,723,709,696,668,641,628,618,606,588,579,573,568,567,566,566,566,564,560,553,550,543,538,532,527,526,526,526,526,526,526,526,526,526,526,526,526,529,533,540,545,549,554,559,581,590,603,621,637,674,690,704,716,728,751,762,771,779,784,790,792,794,795,796,796,796,796,796,796,796,796,796,796,796,796,797,797,797,797,796,796,796,796,796,796,791,783,768,754,703,658,600,536,482,392,364,339,330,322,316,316,316,317,320,361,393,428],"ymouse":[623,623,623,623,623,623,623,623,623,623,623,623,623,623,623,623,623,623,623,623,623,623,623,623,623,623,623,623,623,623,623,623,623,623,624,625,625,625,618,610,596,574,546,474,408,367,327,288,225,201,185,176,172,172,172,171,170,168,160,155,145,137,127,109,103,100,98,98,98,98,97,97,96,101,105,112,123,136,164,180,196,214,233,284,306,330,357,383,436,461,483,506,527,566,582,595,608,616,632,638,642,643,644,644,644,644,644,644,644,644,644,644,644,644,644,642,639,634,632,632,632,632,632,632,629,624,612,594,503,431,349,262,180,54,9,0,0,0,0,0,0,0,1,13,27,43],"timestamp_mouse":[18,38,59,78,98,118,139,158,178,198,219,238,258,278,298,319,338,358,379,398,418,439,459,478,498,517,539,559,578,599,618,638,658,678,699,718,739,758,778,798,819,838,858,877,897,919,938,958,978,998,1017,1038,1059,1079,1098,1117,1138,1159,1178,1198,1219,1238,1258,1278,1298,1319,1339,1360,1378,1399,1418,1438,1458,1478,1498,1517,1538,1559,1579,1598,1618,1637,1659,1678,1698,1718,1738,1758,1778,1798,1818,1837,1857,1879,1898,1918,1938,1958,1978,1999,2018,2039,2057,2078,2098,2118,2138,2159,2178,2199,2219,2238,2258,2278,2299,2319,2338,2358,2377,2399,2418,2439,2457,2478,2499,2518,2538,2559,2578,2598,2619,2639,2658,2678,2698,2720,2739,2757,2778,2799,2818,2839,2858,2879,2898,2918],"xSR":741.5,"ySR":573.95,"xT1":424.9,"yT1":0,"xT2":1058.1,"yT2":0,"toosoon":0,"cond_shown":"Congruent","ratio_trial":200,"L_num":12,"L_den":20,"R_num":6,"R_den":15,"correct_side":1,"subjID":"mariapuentesobando9","gender":"1","school":"4","age":"9"},{"start_time":1552073185963,"click_time":1552073187018,"finger_time":1552073186578,"fix_duration":743.3763951693686,"trial":4,"RT":615,"MT":440,"sideResp":1,"stimulus":[],"xmouse":[792,792,792,792,792,792,792,792,792,792,792,792,792,792,792,792,792,792,792,792,792,792,792,792,792,792,792,792,792,792,787,779,741,723,705,687,671,639,619,604,593,583,580,579,579,578,578,575,562,553,544,529,519],"ymouse":[625,625,625,625,625,625,625,625,625,625,625,625,625,625,625,625,625,625,625,625,625,625,625,625,625,625,624,618,610,595,566,517,361,304,246,196,149,57,11,0,0,0,0,0,0,0,0,3,25,42,58,79,86],"timestamp_mouse":[14,36,53,73,95,115,134,154,174,195,214,235,254,275,295,314,335,353,374,395,415,435,454,475,494,515,535,554,573,594,615,634,654,673,694,714,734,754,776,794,814,834,855,874,894,914,935,954,974,994,1015,1034,1054],"xSR":741.5,"ySR":573.95,"xT1":424.9,"yT1":0,"xT2":1058.1,"yT2":0,"toosoon":0,"cond_shown":"Incongruent","ratio_trial":200,"L_num":14,"L_den":30,"R_num":12,"R_den":18,"correct_side":2,"subjID":"mariapuentesobando9","gender":"1","school":"4","age":"9"},{"start_time":1552073188700,"click_time":1552073189977,"finger_time":1552073189837,"fix_duration":679.8966267835226,"trial":5,"RT":1137,"MT":140,"sideResp":2,"stimulus":[],"xmouse":[792,792,792,792,792,792,792,792,792,792,792,792,792,792,792,792,792,792,792,792,792,792,792,792,792,792,792,792,792,792,792,792,792,792,792,792,792,792,792,792,792,792,792,792,792,792,792,792,792,792,792,792,792,792,793,800,846,888,941,999,1047,1119,1141,1148],"ymouse":[632,632,630,627,627,627,627,627,627,627,627,627,627,627,627,627,627,627,627,627,627,627,627,627,627,627,627,627,627,627,627,627,627,627,627,626,624,623,623,623,623,623,623,623,623,623,623,623,623,623,623,623,623,621,619,612,565,525,471,413,354,222,141,91],"timestamp_mouse":[17,38,57,77,97,117,136,156,177,197,216,236,256,276,297,316,336,356,376,396,416,439,456,477,498,516,538,557,578,598,618,638,658,677,697,718,737,758,777,797,817,837,857,877,897,917,937,957,977,997,1017,1037,1058,1077,1098,1118,1137,1158,1178,1197,1218,1237,1257,1277],"xSR":741.5,"ySR":573.95,"xT1":424.9,"yT1":0,"xT2":1058.1,"yT2":0,"toosoon":0,"cond_shown":"Congruent","ratio_trial":100,"L_num":1,"L_den":2,"R_num":3,"R_den":5,"correct_side":2,"subjID":"mariapuentesobando9","gender":"1","school":"4","age":"9"},{"start_time":1552073191779,"click_time":1552073193478,"finger_time":1552073191878,"fix_duration":700.1108212897341,"trial":6,"RT":99,"MT":1600,"sideResp":1,"stimulus":[],"xmouse":[751,749,750,763,773,773,773,752,740,727,716,711,710,710,710,710,710,714,716,718,721,726,739,740,740,740,740,740,740,740,740,740,740,740,741,747,762,815,836,851,860,864,866,866,866,866,865,847,830,810,788,771,762,762,762,762,762,762,762,762,762,762,762,762,761,761,761,761,761,761,761,761,761,760,760,757,750,744,670,625,581,537,485,470,465],"ymouse":[591,595,644,672,688,691,691,695,699,708,731,757,780,796,796,796,796,773,769,766,763,758,734,718,702,689,682,678,678,678,678,678,678,677,675,671,661,631,619,609,602,599,596,596,596,596,596,599,605,610,615,620,620,620,620,620,620,620,620,620,620,620,620,620,620,617,615,614,614,614,614,614,614,614,614,610,597,586,455,377,295,228,133,104,88],"timestamp_mouse":[18,44,58,79,99,119,139,158,177,199,218,239,258,278,298,319,338,358,379,398,418,438,458,477,498,519,539,559,578,599,618,638,658,677,699,718,738,758,779,798,817,837,858,879,898,919,939,958,979,998,1018,1038,1058,1078,1098,1119,1138,1158,1177,1199,1218,1239,1257,1279,1298,1318,1339,1358,1378,1399,1417,1438,1458,1478,1499,1519,1539,1558,1578,1598,1619,1639,1658,1678,1699],"xSR":741.5,"ySR":573.95,"xT1":424.9,"yT1":0,"xT2":1058.1,"yT2":0,"toosoon":0,"cond_shown":"Incongruent","ratio_trial":100,"L_num":6,"L_den":12,"R_num":3,"R_den":5,"correct_side":2,"subjID":"mariapuentesobando9","gender":"1","school":"4","age":"9"},{"start_time":1552073194561,"click_time":1552073195838,"finger_time":1552073195398,"fix_duration":363.0291660126107,"trial":7,"RT":837,"MT":440,"sideResp":1,"stimulus":[],"xmouse":[772,772,772,772,772,772,772,772,772,772,772,772,772,772,771,771,771,771,771,771,771,771,771,771,771,771,771,771,771,771,771,771,771,771,771,771,771,769,768,764,764,761,757,741,723,702,683,657,624,614,607,599,591,581,576,572,566,558,546,541,537,533,525,516],"ymouse":[632,632,632,632,632,632,632,632,632,632,632,632,632,632,632,632,632,632,632,632,632,632,632,632,632,632,632,632,632,632,632,632,632,632,632,632,632,632,631,613,596,571,542,471,426,382,350,296,225,205,188,175,164,156,154,153,151,148,136,125,113,97,82,65],"timestamp_mouse":[16,43,55,75,97,116,137,155,176,197,217,236,256,276,296,316,335,355,375,396,416,436,456,475,497,517,536,556,575,597,616,636,655,676,696,717,736,756,775,796,815,837,857,876,896,916,936,956,976,996,1016,1036,1057,1076,1095,1117,1137,1157,1176,1196,1216,1236,1256,1277],"xSR":741.5,"ySR":573.95,"xT1":424.9,"yT1":0,"xT2":1058.1,"yT2":0,"toosoon":0,"cond_shown":"Congruent","ratio_trial":100,"L_num":11,"L_den":22,"R_num":6,"R_den":15,"correct_side":1,"subjID":"mariapuentesobando9","gender":"1","school":"4","age":"9"},{"start_time":1552073197460,"click_time":1552073198239,"finger_time":1552073198056,"fix_duration":820.4469279515675,"trial":8,"RT":596,"MT":183,"sideResp":2,"stimulus":[],"xmouse":[774,774,774,774,774,774,774,774,774,774,774,774,774,774,774,774,775,775,776,776,777,777,777,777,777,779,783,791,823,861,880,939,973,1023,1034,1042,1049,1049,1060],"ymouse":[632,632,632,632,632,632,632,632,632,632,632,632,632,632,632,632,631,631,629,628,628,628,628,627,626,624,619,612,584,541,518,440,393,282,229,177,133,94,31],"timestamp_mouse":[23,47,56,78,97,117,137,158,176,197,217,237,258,278,297,318,336,357,378,397,417,438,458,477,498,517,537,558,579,596,617,636,657,678,697,716,737,757,779],"xSR":741.5,"ySR":573.95,"xT1":424.9,"yT1":0,"xT2":1058.1,"yT2":0,"toosoon":0,"cond_shown":"Incongruent","ratio_trial":300,"L_num":4,"L_den":5,"R_num":6,"R_den":12,"correct_side":1,"subjID":"mariapuentesobando9","gender":"1","school":"4","age":"9"},{"start_time":1552073200162,"click_time":1552073200998,"finger_time":1552073200757,"fix_duration":922.3496629440302,"trial":9,"RT":595,"MT":241,"sideResp":1,"stimulus":[],"xmouse":[785,785,785,785,785,785,785,785,785,785,785,785,785,785,785,785,785,785,785,785,785,785,785,785,785,784,780,771,759,734,723,717,711,702,653,626,600,578,560,535,529,524],"ymouse":[625,625,625,625,625,625,625,625,625,625,625,625,625,625,625,625,625,625,625,625,625,625,625,625,625,625,619,598,575,523,496,475,452,422,295,247,204,172,150,119,109,98],"timestamp_mouse":[16,44,56,74,95,114,135,155,176,195,215,235,254,276,296,314,335,355,375,395,415,435,455,476,495,516,535,556,576,595,616,635,656,677,695,717,735,755,775,795,814,835],"xSR":741.5,"ySR":573.95,"xT1":424.9,"yT1":0,"xT2":1058.1,"yT2":0,"toosoon":0,"cond_shown":"Incongruent","ratio_trial":100,"L_num":9,"L_den":18,"R_num":6,"R_den":10,"correct_side":2,"subjID":"mariapuentesobando9","gender":"1","school":"4","age":"9"},{"start_time":1552073202979,"click_time":1552073203858,"finger_time":1552073203497,"fix_duration":921.7464114493305,"trial":10,"RT":518,"MT":361,"sideResp":2,"stimulus":[],"xmouse":[773,773,774,774,774,775,775,775,775,775,775,775,775,775,775,777,777,777,777,777,777,777,778,790,806,835,874,918,966,1032,1049,1061,1077,1092,1098,1100,1100,1100,1100,1098,1097,1092,1089,1080],"ymouse":[605,605,605,605,605,605,605,605,605,605,605,605,605,605,604,603,603,603,603,603,603,603,602,593,576,545,490,425,356,263,240,217,186,149,135,125,119,117,116,114,114,110,108,97],"timestamp_mouse":[18,39,59,79,98,118,138,158,178,199,218,239,258,278,298,318,339,358,378,398,418,439,459,478,499,518,538,559,578,599,618,637,658,678,697,718,739,758,778,798,818,838,858,879],"xSR":741.5,"ySR":573.95,"xT1":424.9,"yT1":0,"xT2":1058.1,"yT2":0,"toosoon":0,"cond_shown":"Congruent","ratio_trial":100,"L_num":12,"L_den":30,"R_num":13,"R_den":26,"correct_side":2,"subjID":"mariapuentesobando9","gender":"1","school":"4","age":"9"},{"start_time":1552073206215,"click_time":1552073206957,"finger_time":1552073206638,"fix_duration":1137.2127697255323,"trial":11,"RT":423,"MT":319,"sideResp":2,"stimulus":[],"xmouse":[761,761,761,762,762,763,763,763,763,763,763,763,763,763,763,763,763,764,775,788,808,821,845,914,961,1001,1035,1060,1085,1095,1100,1104,1106,1105,1104,1103,1101,1100],"ymouse":[599,599,600,602,602,603,603,603,603,603,603,603,603,603,603,603,603,603,597,590,577,565,545,479,428,375,323,274,202,171,156,140,129,113,107,103,100,97],"timestamp_mouse":[14,22,42,62,82,102,123,143,163,182,203,223,243,262,283,303,323,342,362,383,403,423,442,462,483,502,522,542,562,582,602,623,643,662,681,703,722,742],"xSR":741.5,"ySR":573.95,"xT1":424.9,"yT1":0,"xT2":1058.1,"yT2":0,"toosoon":0,"cond_shown":"Congruent","ratio_trial":100,"L_num":1,"L_den":2,"R_num":18,"R_den":30,"correct_side":2,"subjID":"mariapuentesobando9","gender":"1","school":"4","age":"9"},{"start_time":1552073209163,"click_time":1552073209897,"finger_time":1552073209757,"fix_duration":1344.7377794794354,"trial":12,"RT":594,"MT":140,"sideResp":2,"stimulus":[],"xmouse":[790,790,790,790,790,790,790,790,790,790,790,790,790,790,790,790,790,790,790,790,790,790,790,790,789,789,789,791,797,811,843,867,894,925,960,1034,1069],"ymouse":[631,631,631,631,631,631,631,631,631,631,631,631,631,631,631,631,631,631,631,631,631,631,631,631,628,625,620,610,596,564,465,406,356,305,253,140,88],"timestamp_mouse":[15,34,55,73,94,115,134,154,175,195,215,235,254,275,293,314,335,355,374,395,414,434,454,474,494,514,533,555,575,594,614,635,654,674,695,715,734],"xSR":741.5,"ySR":573.95,"xT1":424.9,"yT1":0,"xT2":1058.1,"yT2":0,"toosoon":0,"cond_shown":"Incongruent","ratio_trial":300,"L_num":3,"L_den":6,"R_num":4,"R_den":20,"correct_side":1,"subjID":"mariapuentesobando9","gender":"1","school":"4","age":"9"},{"start_time":1552073211775,"click_time":1552073212478,"finger_time":1552073212318,"fix_duration":717.9955894434299,"trial":13,"RT":543,"MT":160,"sideResp":2,"stimulus":[],"xmouse":[797,797,797,797,797,797,797,797,797,797,797,797,797,797,797,797,797,796,795,794,794,794,794,794,793,793,793,796,803,821,856,886,935,988,1033,1119],"ymouse":[583,583,583,583,583,583,583,583,583,583,583,583,583,583,583,583,583,581,581,579,578,578,578,578,578,578,576,573,564,541,494,446,363,274,197,45],"timestamp_mouse":[10,33,41,63,83,101,122,143,163,183,203,223,242,262,281,302,323,342,362,382,402,422,443,463,482,503,522,543,562,583,602,622,643,661,681,703],"xSR":741.5,"ySR":573.95,"xT1":424.9,"yT1":0,"xT2":1058.1,"yT2":0,"toosoon":0,"cond_shown":"Incongruent","ratio_trial":100,"L_num":9,"L_den":15,"R_num":14,"R_den":28,"correct_side":1,"subjID":"mariapuentesobando9","gender":"1","school":"4","age":"9"},{"start_time":1552073214709,"click_time":1552073215358,"finger_time":1552073215097,"fix_duration":971.3883214311223,"trial":14,"RT":388,"MT":261,"sideResp":2,"stimulus":[],"xmouse":[782,782,782,782,782,782,782,782,782,783,783,784,785,785,785,786,788,793,802,837,862,892,915,933,959,964,969,972,975,988,1003,1024,1061],"ymouse":[612,612,612,612,612,612,612,612,612,611,611,612,612,612,612,612,612,608,597,558,528,493,459,436,391,371,348,324,300,229,187,140,88],"timestamp_mouse":[13,35,49,68,88,109,129,148,168,189,209,228,248,268,288,308,329,349,368,388,408,427,449,468,488,508,528,548,568,588,608,629,649],"xSR":741.5,"ySR":573.95,"xT1":424.9,"yT1":0,"xT2":1058.1,"yT2":0,"toosoon":0,"cond_shown":"Incongruent","ratio_trial":200,"L_num":3,"L_den":10,"R_num":1,"R_den":2,"correct_side":2,"subjID":"mariapuentesobando9","gender":"1","school":"4","age":"9"},{"start_time":1552073217677,"click_time":1552073218217,"finger_time":1552073218097,"fix_duration":1278.2206573076132,"trial":15,"RT":420,"MT":120,"sideResp":1,"stimulus":[],"xmouse":[792,792,792,792,792,792,792,792,792,792,792,792,792,792,792,792,792,792,792,792,792,783,763,730,686,629,515,479],"ymouse":[626,626,626,626,626,626,626,626,626,626,626,626,626,626,626,626,626,626,626,624,618,561,512,451,384,300,127,56],"timestamp_mouse":[11,20,40,60,80,100,121,140,161,181,200,221,240,261,280,301,320,341,361,379,400,420,440,460,481,500,520,540],"xSR":741.5,"ySR":573.95,"xT1":424.9,"yT1":0,"xT2":1058.1,"yT2":0,"toosoon":0,"cond_shown":"Incongruent","ratio_trial":200,"L_num":1,"L_den":3,"R_num":2,"R_den":15,"correct_side":1,"subjID":"mariapuentesobando9","gender":"1","school":"4","age":"9"},{"start_time":1552073220572,"click_time":1552073221237,"finger_time":1552073221117,"fix_duration":1134.2265744403699,"trial":16,"RT":545,"MT":120,"sideResp":2,"stimulus":[],"xmouse":[784,784,784,784,784,784,784,784,784,784,784,784,784,784,784,784,784,784,784,784,784,784,785,786,790,796,814,877,922,972,1021,1097,1120,1130],"ymouse":[629,629,629,629,629,629,629,629,629,629,629,629,629,629,629,629,629,629,629,629,629,629,629,629,629,627,618,574,530,468,392,227,141,65],"timestamp_mouse":[11,25,45,66,84,104,126,146,165,186,206,226,245,265,286,306,325,346,365,386,405,426,445,466,486,505,525,545,565,584,606,625,645,665],"xSR":741.5,"ySR":573.95,"xT1":424.9,"yT1":0,"xT2":1058.1,"yT2":0,"toosoon":0,"cond_shown":"Incongruent","ratio_trial":100,"L_num":8,"L_den":16,"R_num":6,"R_den":10,"correct_side":2,"subjID":"mariapuentesobando9","gender":"1","school":"4","age":"9"},{"start_time":1552073223466,"click_time":1552073224017,"finger_time":1552073223877,"fix_duration":1285.320059101392,"trial":17,"RT":411,"MT":140,"sideResp":1,"stimulus":[],"xmouse":[774,774,774,774,774,774,774,774,774,774,774,774,774,774,774,774,774,774,775,771,761,741,670,630,594,567,550,521],"ymouse":[625,625,625,625,625,625,625,625,625,625,625,625,625,625,625,625,625,625,615,587,539,468,309,225,159,118,95,61],"timestamp_mouse":[13,37,52,72,91,111,132,152,171,192,213,232,252,271,291,311,332,353,372,392,411,431,451,471,491,512,531,551],"xSR":741.5,"ySR":573.95,"xT1":424.9,"yT1":0,"xT2":1058.1,"yT2":0,"toosoon":0,"cond_shown":"Incongruent","ratio_trial":300,"L_num":1,"L_den":2,"R_num":3,"R_den":15,"correct_side":1,"subjID":"mariapuentesobando9","gender":"1","school":"4","age":"9"},{"start_time":1552073225629,"click_time":1552073226617,"finger_time":1552073225978,"fix_duration":669.6593299457888,"trial":18,"RT":349,"MT":639,"sideResp":2,"stimulus":[],"xmouse":[776,776,776,776,776,776,776,776,776,776,776,776,776,776,777,787,800,820,879,978,1019,1053,1075,1085,1088,1087,1085,1085,1085,1085,1085,1085,1084,1080,1069,1062,1058,1053,1051,1050,1050,1050,1050,1050,1053,1057,1062,1070,1081,1093],"ymouse":[612,612,612,612,612,612,612,612,612,612,612,612,612,612,609,600,583,557,477,354,294,238,199,170,130,124,121,121,121,121,121,121,121,127,145,158,169,179,185,188,188,188,188,188,185,176,162,142,116,76],"timestamp_mouse":[10,38,48,69,88,109,129,148,169,189,209,229,248,269,289,309,328,349,368,389,409,428,449,469,488,509,528,549,569,588,608,628,649,668,688,708,728,748,769,788,808,829,848,869,888,910,928,948,970,988],"xSR":741.5,"ySR":573.95,"xT1":424.9,"yT1":0,"xT2":1058.1,"yT2":0,"toosoon":0,"cond_shown":"Congruent","ratio_trial":300,"L_num":1,"L_den":3,"R_num":19,"R_den":30,"correct_side":2,"subjID":"mariapuentesobando9","gender":"1","school":"4","age":"9"},{"start_time":1552073228311,"click_time":1552073229057,"finger_time":1552073228917,"fix_duration":571.9402641085017,"trial":19,"RT":606,"MT":140,"sideResp":2,"stimulus":[],"xmouse":[781,781,781,781,781,781,781,781,781,781,781,781,781,781,781,781,781,781,781,781,781,781,781,781,781,781,781,788,800,811,851,879,911,944,984,1077,1104,1118],"ymouse":[607,607,607,607,607,607,607,607,607,607,607,607,607,607,607,607,607,607,607,607,607,607,607,607,607,607,607,602,595,588,564,543,517,479,422,244,165,98],"timestamp_mouse":[13,39,46,66,86,106,127,147,167,187,206,226,247,267,287,306,326,347,366,386,406,426,447,467,486,506,527,546,567,586,606,628,646,666,686,706,726,746],"xSR":741.5,"ySR":573.95,"xT1":424.9,"yT1":0,"xT2":1058.1,"yT2":0,"toosoon":0,"cond_shown":"Congruent","ratio_trial":100,"L_num":2,"L_den":5,"R_num":6,"R_den":12,"correct_side":2,"subjID":"mariapuentesobando9","gender":"1","school":"4","age":"9"},{"start_time":1552073231050,"click_time":1552073231677,"finger_time":1552073231537,"fix_duration":1052.5863695263588,"trial":20,"RT":487,"MT":140,"sideResp":2,"stimulus":[],"xmouse":[792,792,792,792,792,792,792,792,792,792,792,792,792,792,792,792,792,792,792,792,792,792,793,797,816,834,858,920,1014,1066,1114,1156],"ymouse":[612,612,612,611,611,611,611,611,611,611,611,611,611,611,611,611,611,611,611,611,610,609,606,601,573,550,510,418,265,189,121,58],"timestamp_mouse":[12,37,47,68,88,108,129,148,168,188,207,227,247,268,287,308,327,347,368,387,407,428,447,467,487,507,527,547,568,587,607,627],"xSR":741.5,"ySR":573.95,"xT1":424.9,"yT1":0,"xT2":1058.1,"yT2":0,"toosoon":0,"cond_shown":"Congruent","ratio_trial":100,"L_num":3,"L_den":20,"R_num":4,"R_den":16,"correct_side":2,"subjID":"mariapuentesobando9","gender":"1","school":"4","age":"9"},{"start_time":1552073233944,"click_time":1552073234577,"finger_time":1552073234437,"fix_duration":1084.6240137012674,"trial":21,"RT":493,"MT":140,"sideResp":2,"stimulus":[],"xmouse":[771,771,771,771,771,771,771,771,771,771,771,773,777,782,791,796,798,800,802,808,812,815,818,825,854,884,922,963,1009,1076,1096,1101],"ymouse":[625,625,625,625,625,625,625,625,625,625,625,624,622,620,615,612,610,608,606,601,596,591,587,577,529,476,404,328,250,137,106,98],"timestamp_mouse":[13,37,54,73,93,113,134,154,173,193,214,234,253,273,293,313,333,353,373,394,414,433,453,474,493,513,533,553,573,593,613,633],"xSR":741.5,"ySR":573.95,"xT1":424.9,"yT1":0,"xT2":1058.1,"yT2":0,"toosoon":0,"cond_shown":"Congruent","ratio_trial":200,"L_num":8,"L_den":15,"R_num":7,"R_den":21,"correct_side":1,"subjID":"mariapuentesobando9","gender":"1","school":"4","age":"9"},{"start_time":1552073238426,"click_time":1552073240598,"finger_time":1552073238958,"fix_duration":1187.6633239185685,"trial":22,"RT":532,"MT":1640,"sideResp":1,"stimulus":[],"xmouse":[791,791,791,791,791,791,791,791,791,791,791,791,791,791,791,791,791,791,791,791,791,789,788,787,784,782,775,768,754,735,676,649,609,529,459,345,312,294,289,287,287,291,299,314,329,344,374,392,413,436,454,492,501,508,508,509,512,515,516,516,516,516,516,516,517,524,548,566,586,606,651,677,692,704,711,716,721,721,722,722,722,723,723,724,724,731,739,754,777,795,819,824,826,827,827,827,828,829,829,829,829,811,805,776,737,615,559,510,471],"ymouse":[611,611,611,611,611,611,611,611,611,611,611,611,611,611,611,611,611,611,611,611,611,611,607,604,591,576,536,505,453,388,236,159,75,0,0,0,0,0,0,0,14,31,52,82,102,123,166,191,221,252,276,311,317,320,320,320,307,288,268,250,237,233,233,234,251,277,349,395,453,498,587,624,642,656,665,672,678,678,679,679,680,680,680,681,681,678,671,658,642,629,615,613,612,611,611,611,610,608,606,600,593,562,555,519,474,331,250,162,70],"timestamp_mouse":[11,43,51,71,91,112,132,151,171,192,211,231,251,271,291,311,332,351,371,391,411,432,451,472,492,511,532,551,571,592,611,632,651,671,692,711,731,752,772,792,812,831,851,872,892,911,931,952,971,992,1012,1032,1052,1071,1091,1111,1131,1151,1172,1191,1211,1231,1251,1271,1291,1311,1331,1352,1372,1392,1412,1432,1452,1472,1492,1511,1530,1551,1571,1592,1611,1631,1652,1671,1690,1712,1732,1752,1771,1791,1812,1831,1852,1872,1891,1913,1931,1952,1971,1992,2012,2031,2051,2072,2092,2112,2131,2152,2172],"xSR":741.5,"ySR":573.95,"xT1":424.9,"yT1":0,"xT2":1058.1,"yT2":0,"toosoon":0,"cond_shown":"Congruent","ratio_trial":200,"L_num":6,"L_den":20,"R_num":11,"R_den":22,"correct_side":2,"subjID":"mariapuentesobando9","gender":"1","school":"4","age":"9"},{"start_time":1552073242844,"click_time":1552073243577,"finger_time":1552073243198,"fix_duration":1364.9529030926394,"trial":23,"RT":354,"MT":379,"sideResp":2,"stimulus":[],"xmouse":[791,791,791,791,791,791,791,791,791,791,791,791,791,791,794,801,807,818,837,864,915,932,939,944,948,952,955,957,958,961,965,970,976,985,996,1044,1071],"ymouse":[614,614,614,614,614,614,614,614,614,614,614,613,612,610,605,588,576,558,531,493,410,369,345,320,292,251,232,212,195,181,155,137,126,117,107,72,55],"timestamp_mouse":[15,46,53,73,93,113,133,154,173,194,213,234,254,274,293,313,333,354,374,394,413,433,453,473,494,513,533,553,574,593,613,633,653,673,695,713,733],"xSR":741.5,"ySR":573.95,"xT1":424.9,"yT1":0,"xT2":1058.1,"yT2":0,"toosoon":0,"cond_shown":"Congruent","ratio_trial":100,"L_num":15,"L_den":25,"R_num":13,"R_den":26,"correct_side":1,"subjID":"mariapuentesobando9","gender":"1","school":"4","age":"9"},{"start_time":1552073245819,"click_time":1552073246357,"finger_time":1552073245957,"fix_duration":1181.981549587026,"trial":24,"RT":138,"MT":400,"sideResp":2,"stimulus":[],"xmouse":[790,790,790,790,791,799,831,847,861,869,871,872,878,883,887,894,903,927,947,965,995,1017,1042,1050,1057,1060,1067],"ymouse":[597,597,597,597,596,588,561,549,541,537,536,535,529,525,518,507,494,455,420,380,304,255,187,156,132,109,62],"timestamp_mouse":[19,38,58,79,99,119,138,158,178,198,218,238,258,278,299,319,339,358,379,398,418,438,459,478,499,519,538],"xSR":741.5,"ySR":573.95,"xT1":424.9,"yT1":0,"xT2":1058.1,"yT2":0,"toosoon":0,"cond_shown":"Incongruent","ratio_trial":200,"L_num":7,"L_den":10,"R_num":14,"R_den":28,"correct_side":1,"subjID":"mariapuentesobando9","gender":"1","school":"4","age":"9"},{"start_time":1552073248018,"click_time":1552073248777,"finger_time":1552073248339,"fix_duration":720.5116793563017,"trial":25,"RT":321,"MT":438,"sideResp":2,"stimulus":[],"xmouse":[804,804,804,804,804,804,804,804,804,804,804,804,804,805,811,832,854,883,893,901,913,922,935,940,947,952,964,970,978,985,996,1006,1011,1016,1023,1036,1047,1076],"ymouse":[584,584,584,584,584,584,584,584,584,584,584,584,584,584,577,549,516,463,446,426,396,374,309,284,260,240,212,200,187,173,154,139,131,124,118,109,99,70],"timestamp_mouse":[23,40,60,79,99,119,139,160,179,201,220,239,259,280,300,321,339,359,379,399,419,440,459,479,499,519,540,559,580,599,619,640,659,680,699,719,739,759],"xSR":741.5,"ySR":573.95,"xT1":424.9,"yT1":0,"xT2":1058.1,"yT2":0,"toosoon":0,"cond_shown":"Congruent","ratio_trial":300,"L_num":18,"L_den":20,"R_num":9,"R_den":15,"correct_side":1,"subjID":"mariapuentesobando9","gender":"1","school":"4","age":"9"},{"start_time":1552073251359,"click_time":1552073252079,"finger_time":1552073251638,"fix_duration":1480.358418021768,"trial":26,"RT":279,"MT":441,"sideResp":1,"stimulus":[],"xmouse":[769,769,769,769,769,769,769,769,769,768,767,765,762,757,741,729,715,703,687,668,650,638,629,619,606,602,594,588,577,553,541,534,531,525,505],"ymouse":[611,611,611,611,611,611,611,611,611,607,598,587,572,550,488,444,395,357,319,233,175,141,109,84,54,47,40,32,24,1,0,0,0,6,61],"timestamp_mouse":[40,58,78,98,118,138,158,179,199,218,238,259,279,299,318,338,358,378,399,418,439,459,478,499,518,538,559,579,599,618,638,658,678,698,720],"xSR":741.5,"ySR":573.95,"xT1":424.9,"yT1":0,"xT2":1058.1,"yT2":0,"toosoon":0,"cond_shown":"Congruent","ratio_trial":200,"L_num":13,"L_den":26,"R_num":14,"R_den":20,"correct_side":2,"subjID":"mariapuentesobando9","gender":"1","school":"4","age":"9"},{"start_time":1552073253720,"click_time":1552073254358,"finger_time":1552073254138,"fix_duration":740.4026929687161,"trial":27,"RT":418,"MT":220,"sideResp":2,"stimulus":[],"xmouse":[769,768,766,766,766,766,766,766,766,766,766,766,766,766,766,766,766,766,773,786,825,850,1010,1056,1083,1096,1105,1111,1111,1111,1108,1102],"ymouse":[611,612,612,612,612,612,612,612,612,612,612,612,612,612,612,612,612,610,597,577,534,503,338,277,234,210,181,143,127,114,103,93],"timestamp_mouse":[19,37,58,77,99,118,137,158,177,197,217,237,257,277,297,317,338,357,377,397,418,437,458,477,497,518,538,557,577,597,617,638],"xSR":741.5,"ySR":573.95,"xT1":424.9,"yT1":0,"xT2":1058.1,"yT2":0,"toosoon":0,"cond_shown":"Congruent","ratio_trial":200,"L_num":9,"L_den":30,"R_num":13,"R_den":26,"correct_side":2,"subjID":"mariapuentesobando9","gender":"1","school":"4","age":"9"},{"start_time":1552073256260,"click_time":1552073256998,"finger_time":1552073256617,"fix_duration":981.3675546474938,"trial":28,"RT":357,"MT":381,"sideResp":2,"stimulus":[],"xmouse":[797,797,797,797,797,797,797,797,797,797,797,797,797,797,797,811,826,847,877,924,1040,1105,1185,1208,1255,1268,1271,1271,1271,1271,1271,1271,1271,1269,1256,1235,1151],"ymouse":[608,608,608,608,608,608,608,608,608,608,608,608,608,607,605,592,578,558,526,483,365,294,192,159,72,28,0,0,0,0,0,0,0,0,7,23,76],"timestamp_mouse":[18,41,57,77,97,118,138,157,178,198,217,238,258,278,297,317,338,357,378,398,418,437,458,477,498,518,537,558,577,597,617,638,657,678,697,717,737],"xSR":741.5,"ySR":573.95,"xT1":424.9,"yT1":0,"xT2":1058.1,"yT2":0,"toosoon":0,"cond_shown":"Congruent","ratio_trial":300,"L_num":9,"L_den":10,"R_num":3,"R_den":5,"correct_side":1,"subjID":"mariapuentesobando9","gender":"1","school":"4","age":"9"},{"start_time":1552073259651,"click_time":1552073260918,"finger_time":1552073260718,"fix_duration":250,"trial":29,"RT":1067,"MT":200,"sideResp":1,"stimulus":[],"xmouse":[801,801,801,801,801,801,801,801,801,801,801,801,801,801,801,801,801,801,801,801,802,802,802,800,800,800,800,800,800,800,799,799,799,799,799,799,799,799,799,799,799,799,799,799,799,799,799,799,799,799,799,799,797,771,739,703,665,609,586,569,561,551,525,510],"ymouse":[623,623,623,623,623,623,623,623,623,623,623,623,623,623,623,623,623,623,623,623,623,624,624,624,624,624,624,624,624,624,624,625,625,625,625,625,625,625,625,625,625,625,625,625,625,625,625,625,625,625,625,625,620,567,514,464,419,354,321,283,246,181,86,46],"timestamp_mouse":[10,27,46,66,86,107,127,147,167,186,207,226,247,267,286,306,327,347,366,386,407,427,447,466,486,506,527,547,566,586,607,627,647,667,686,706,727,748,766,787,807,826,846,866,887,907,927,946,967,987,1008,1027,1046,1067,1086,1107,1127,1146,1166,1187,1207,1226,1246,1266],"xSR":741.5,"ySR":573.95,"xT1":424.9,"yT1":0,"xT2":1058.1,"yT2":0,"toosoon":0,"cond_shown":"Congruent","ratio_trial":300,"L_num":24,"L_den":30,"R_num":8,"R_den":16,"correct_side":1,"subjID":"mariapuentesobando9","gender":"1","school":"4","age":"9"},{"start_time":1552073263467,"click_time":1552073264477,"finger_time":1552073263838,"fix_duration":1128.203839144592,"trial":30,"RT":371,"MT":639,"sideResp":2,"stimulus":[],"xmouse":[791,791,791,791,791,791,791,791,791,791,791,791,791,791,791,792,795,800,813,818,829,855,871,887,902,916,921,923,923,923,923,934,946,959,975,1003,1014,1022,1025,1028,1028,1028,1028,1028,1029,1032,1037,1044,1057,1069],"ymouse":[604,604,604,604,604,604,604,604,604,604,604,604,604,604,604,598,582,559,511,499,474,415,389,360,333,285,259,225,192,145,119,81,65,55,46,37,36,34,34,33,33,33,33,33,33,46,55,63,67,67],"timestamp_mouse":[10,50,71,90,110,131,150,171,190,210,230,251,270,291,311,330,350,371,390,411,430,450,470,490,511,530,550,571,590,610,630,651,670,691,711,730,750,770,790,811,831,851,871,890,911,930,950,970,990,1010],"xSR":741.5,"ySR":573.95,"xT1":424.9,"yT1":0,"xT2":1058.1,"yT2":0,"toosoon":0,"cond_shown":"Congruent","ratio_trial":100,"L_num":6,"L_den":12,"R_num":15,"R_den":25,"correct_side":2,"subjID":"mariapuentesobando9","gender":"1","school":"4","age":"9"},{"start_time":1552073265834,"click_time":1552073266539,"finger_time":1552073266377,"fix_duration":455.34369594688195,"trial":31,"RT":543,"MT":162,"sideResp":1,"stimulus":[],"xmouse":[761,761,761,761,761,761,761,761,761,761,761,761,761,761,761,761,761,761,761,761,761,761,761,761,761,756,746,727,674,648,622,585,560,542,517,505],"ymouse":[638,638,638,638,638,638,638,638,638,638,638,638,638,638,638,638,638,638,638,638,638,638,638,634,625,613,596,570,488,436,372,267,210,167,111,88],"timestamp_mouse":[10,36,43,64,84,103,124,144,164,183,204,223,244,263,284,303,324,344,363,384,404,424,444,464,484,504,525,543,564,583,603,624,643,665,683,704],"xSR":741.5,"ySR":573.95,"xT1":424.9,"yT1":0,"xT2":1058.1,"yT2":0,"toosoon":0,"cond_shown":"Congruent","ratio_trial":200,"L_num":20,"L_den":25,"R_num":9,"R_den":15,"correct_side":1,"subjID":"mariapuentesobando9","gender":"1","school":"4","age":"9"},{"start_time":1552073267987,"click_time":1552073268838,"finger_time":1552073268358,"fix_duration":609.9044493171568,"trial":32,"RT":371,"MT":480,"sideResp":2,"stimulus":[],"xmouse":[804,804,804,804,804,804,804,804,804,804,804,804,804,804,804,804,814,831,857,886,917,958,976,989,996,999,1001,1001,1001,1001,1001,1001,1003,1003,1007,1010,1016,1018,1019,1022,1023,1047,1074],"ymouse":[638,638,638,638,638,638,638,638,638,638,638,638,638,638,638,637,627,609,581,542,511,457,422,390,363,337,295,276,256,236,216,179,156,142,128,121,112,110,109,108,108,98,80],"timestamp_mouse":[14,43,50,70,90,111,131,152,171,191,211,230,251,271,291,310,330,350,371,391,410,430,450,470,491,511,531,550,570,591,610,630,650,670,691,711,730,750,770,790,810,830,851],"xSR":741.5,"ySR":573.95,"xT1":424.9,"yT1":0,"xT2":1058.1,"yT2":0,"toosoon":0,"cond_shown":"Incongruent","ratio_trial":300,"L_num":13,"L_den":26,"R_num":12,"R_den":15,"correct_side":2,"subjID":"mariapuentesobando9","gender":"1","school":"4","age":"9"},{"start_time":1552073271085,"click_time":1552073271897,"finger_time":1552073271558,"fix_duration":1105.9907554010151,"trial":33,"RT":473,"MT":339,"sideResp":1,"stimulus":[],"xmouse":[800,800,800,801,802,802,802,802,802,802,802,802,802,802,802,802,802,802,802,802,802,798,792,782,768,745,649,610,580,557,539,522,496,489,486,485,485,485,485,485,485],"ymouse":[625,625,625,625,623,621,619,619,619,619,619,619,619,619,619,619,619,619,618,616,612,599,581,547,491,407,220,158,105,58,15,0,0,0,0,0,0,0,0,0,3],"timestamp_mouse":[15,33,53,73,92,112,133,153,172,192,212,232,252,272,292,313,332,352,372,392,412,432,452,473,492,512,532,554,572,592,612,632,653,673,693,712,732,752,772,792,812],"xSR":741.5,"ySR":573.95,"xT1":424.9,"yT1":0,"xT2":1058.1,"yT2":0,"toosoon":0,"cond_shown":"Congruent","ratio_trial":100,"L_num":6,"L_den":12,"R_num":15,"R_den":25,"correct_side":2,"subjID":"mariapuentesobando9","gender":"1","school":"4","age":"9"},{"start_time":1552073273309,"click_time":1552073273938,"finger_time":1552073273777,"fix_duration":250,"trial":34,"RT":468,"MT":161,"sideResp":2,"stimulus":[],"xmouse":[787,787,787,787,787,787,787,790,791,792,792,792,792,792,792,792,792,792,792,792,792,793,798,849,890,954,982,1004,1028,1053,1071,1100],"ymouse":[607,607,607,607,607,607,607,609,609,609,609,609,609,609,609,609,609,609,609,609,609,609,609,569,520,427,377,329,288,229,174,58],"timestamp_mouse":[10,28,49,69,88,108,129,148,168,188,209,228,248,269,289,309,328,349,369,389,409,428,448,468,488,509,528,548,569,590,608,629],"xSR":741.5,"ySR":573.95,"xT1":424.9,"yT1":0,"xT2":1058.1,"yT2":0,"toosoon":0,"cond_shown":"Incongruent","ratio_trial":100,"L_num":6,"L_den":10,"R_num":13,"R_den":26,"correct_side":1,"subjID":"mariapuentesobando9","gender":"1","school":"4","age":"9"},{"start_time":1552073276216,"click_time":1552073276777,"finger_time":1552073276637,"fix_duration":1456.5268194010355,"trial":35,"RT":421,"MT":140,"sideResp":1,"stimulus":[],"xmouse":[765,765,765,765,765,765,765,765,765,765,765,765,765,765,765,765,765,765,765,764,763,741,719,688,656,616,528,465,428],"ymouse":[612,612,612,612,612,612,612,612,612,612,612,612,612,612,612,612,612,612,612,611,605,565,525,474,416,358,235,145,93],"timestamp_mouse":[11,34,41,62,82,102,122,141,162,182,201,222,242,261,281,301,321,342,362,381,401,421,442,462,481,501,522,541,561],"xSR":741.5,"ySR":573.95,"xT1":424.9,"yT1":0,"xT2":1058.1,"yT2":0,"toosoon":0,"cond_shown":"Incongruent","ratio_trial":100,"L_num":9,"L_den":15,"R_num":14,"R_den":28,"correct_side":1,"subjID":"mariapuentesobando9","gender":"1","school":"4","age":"9"},{"start_time":1552073278593,"click_time":1552073279058,"finger_time":1552073278958,"fix_duration":953.356909691765,"trial":36,"RT":365,"MT":100,"sideResp":2,"stimulus":[],"xmouse":[791,791,791,791,791,791,791,791,791,791,791,792,792,792,792,792,792,807,830,870,926,992,1106,1129],"ymouse":[606,606,606,606,606,606,606,606,606,606,606,606,606,606,606,606,606,589,552,482,386,294,138,94],"timestamp_mouse":[12,25,44,65,85,105,124,144,164,184,204,224,244,265,285,304,325,344,365,383,405,425,444,465],"xSR":741.5,"ySR":573.95,"xT1":424.9,"yT1":0,"xT2":1058.1,"yT2":0,"toosoon":0,"cond_shown":"Incongruent","ratio_trial":300,"L_num":7,"L_den":10,"R_num":8,"R_den":20,"correct_side":1,"subjID":"mariapuentesobando9","gender":"1","school":"4","age":"9"},{"start_time":1552073280343,"click_time":1552073280918,"finger_time":1552073280697,"fix_duration":425.68714720657886,"trial":37,"RT":354,"MT":221,"sideResp":1,"stimulus":[],"xmouse":[778,778,778,778,778,778,778,778,778,778,778,778,778,778,778,778,773,750,734,628,591,562,547,536,526,521,515,508,502],"ymouse":[618,618,618,618,618,618,618,618,618,618,618,618,618,618,618,609,597,535,501,331,286,254,235,217,186,166,141,115,83],"timestamp_mouse":[15,34,55,74,94,115,135,155,174,194,214,234,255,274,294,314,334,354,374,394,416,434,454,474,494,514,534,555,575],"xSR":741.5,"ySR":573.95,"xT1":424.9,"yT1":0,"xT2":1058.1,"yT2":0,"toosoon":0,"cond_shown":"Incongruent","ratio_trial":100,"L_num":9,"L_den":18,"R_num":6,"R_den":10,"correct_side":2,"subjID":"mariapuentesobando9","gender":"1","school":"4","age":"9"},{"start_time":1552073283530,"click_time":1552073284298,"finger_time":1552073283899,"fix_duration":1328.3956707281166,"trial":38,"RT":369,"MT":399,"sideResp":2,"stimulus":[],"xmouse":[779,779,779,779,779,779,779,779,779,779,779,779,779,779,779,779,790,813,861,896,923,971,997,1017,1035,1050,1053,1055,1055,1055,1056,1056,1056,1056,1056,1056,1056,1057,1061],"ymouse":[602,602,602,602,602,602,602,602,602,602,602,602,602,602,602,602,596,583,549,518,488,419,367,301,236,143,111,86,59,49,45,45,45,45,45,45,45,44,45],"timestamp_mouse":[10,37,48,68,88,109,129,148,167,187,208,228,248,267,287,308,328,349,369,387,407,428,448,467,488,508,527,547,567,589,607,629,648,667,687,708,727,748,768],"xSR":741.5,"ySR":573.95,"xT1":424.9,"yT1":0,"xT2":1058.1,"yT2":0,"toosoon":0,"cond_shown":"Incongruent","ratio_trial":100,"L_num":3,"L_den":5,"R_num":8,"R_den":16,"correct_side":1,"subjID":"mariapuentesobando9","gender":"1","school":"4","age":"9"},{"start_time":1552073285449,"click_time":1552073288598,"finger_time":1552073286757,"fix_duration":250,"trial":39,"RT":1308,"MT":1841,"sideResp":2,"stimulus":[],"xmouse":[804,804,804,804,804,804,804,804,804,804,804,804,804,804,804,804,804,804,804,804,804,804,804,804,804,804,804,804,804,804,804,804,804,804,804,804,804,804,804,804,797,797,797,797,797,797,797,797,797,797,797,797,797,797,797,797,797,797,797,797,797,797,796,793,787,778,776,776,776,776,776,776,776,776,776,781,784,789,794,798,803,803,803,803,803,803,803,803,803,803,803,803,803,803,803,803,803,803,803,803,803,803,803,803,803,803,803,803,803,803,803,803,803,803,803,803,803,803,803,803,803,803,803,803,803,803,803,803,808,811,818,824,825,825,825,825,825,825,826,827,831,898,946,990,1029,1082,1103,1123,1137,1154,1181,1181,1181,1179,1171,1156,1149,1138],"ymouse":[610,610,610,610,610,610,610,610,610,610,610,610,610,610,610,610,610,610,610,610,610,610,610,610,610,610,610,610,610,610,610,610,610,610,610,610,610,610,609,608,596,596,596,596,596,596,596,596,596,596,596,596,596,596,596,596,596,596,596,596,596,596,594,590,580,572,570,570,570,570,570,570,570,570,572,583,586,591,595,597,599,599,599,599,599,599,599,599,599,599,599,599,599,599,599,599,599,599,599,599,599,599,599,599,599,599,599,599,599,599,599,599,599,599,599,599,599,599,599,599,599,599,599,599,599,599,599,599,599,596,593,590,589,589,589,589,589,589,589,588,583,514,467,422,379,302,260,215,170,113,0,0,0,0,0,0,0,6],"timestamp_mouse":[10,37,49,68,88,109,128,149,168,188,208,230,250,270,288,308,329,349,369,389,409,430,450,470,489,508,528,548,569,589,609,630,650,669,688,708,729,748,768,788,810,828,849,868,889,910,930,949,968,989,1009,1030,1049,1069,1088,1108,1129,1149,1168,1188,1209,1228,1249,1270,1288,1308,1330,1349,1369,1389,1408,1429,1448,1469,1488,1508,1529,1549,1569,1590,1608,1629,1649,1670,1689,1708,1729,1748,1769,1788,1808,1829,1849,1868,1888,1909,1929,1949,1970,1990,2008,2029,2049,2070,2089,2108,2129,2150,2169,2188,2208,2230,2249,2268,2288,2309,2328,2350,2369,2389,2408,2429,2449,2469,2489,2509,2528,2549,2569,2589,2608,2628,2649,2668,2690,2708,2729,2749,2768,2789,2808,2828,2848,2869,2890,2909,2928,2949,2969,2990,3009,3030,3048,3069,3089,3111,3128,3149],"xSR":741.5,"ySR":573.95,"xT1":424.9,"yT1":0,"xT2":1058.1,"yT2":0,"toosoon":0,"cond_shown":"Incongruent","ratio_trial":200,"L_num":1,"L_den":3,"R_num":2,"R_den":15,"correct_side":1,"subjID":"mariapuentesobando9","gender":"1","school":"4","age":"9"},{"start_time":1552073290082,"click_time":1552073291919,"finger_time":1552073291497,"fix_duration":422.1074074931843,"trial":40,"RT":1415,"MT":422,"sideResp":1,"stimulus":[],"xmouse":[791,791,791,791,791,791,791,791,791,791,791,791,791,791,791,791,791,791,791,791,791,791,791,791,791,791,791,791,791,791,791,791,791,791,791,791,791,791,791,791,791,791,791,791,791,791,791,791,791,791,791,791,791,791,791,791,791,791,790,789,789,789,789,789,789,789,789,789,788,786,777,763,743,676,639,607,574,561,550,547,545,542,540,534,533,532,531,530,526,522,517,511],"ymouse":[614,614,614,614,614,614,614,614,614,614,614,614,614,614,614,614,614,614,614,614,614,614,614,614,614,614,614,614,614,614,614,614,614,614,614,614,614,614,614,614,614,614,614,614,614,614,614,614,614,614,614,614,614,614,614,614,614,608,586,580,579,578,578,578,578,578,578,578,577,576,571,556,528,434,378,329,273,249,208,192,176,164,154,140,138,134,132,128,117,109,101,94],"timestamp_mouse":[15,41,56,75,95,117,136,156,176,196,216,236,255,276,296,316,336,356,375,397,416,436,456,475,495,515,537,556,575,596,616,636,657,676,696,717,736,756,776,795,817,836,857,876,895,915,937,956,975,995,1015,1035,1057,1075,1095,1116,1136,1156,1176,1195,1216,1237,1256,1276,1296,1317,1337,1356,1375,1397,1415,1436,1456,1476,1495,1515,1535,1555,1576,1595,1617,1637,1657,1676,1695,1715,1735,1755,1776,1795,1816,1836],"xSR":741.5,"ySR":573.95,"xT1":424.9,"yT1":0,"xT2":1058.1,"yT2":0,"toosoon":0,"cond_shown":"Congruent","ratio_trial":200,"L_num":9,"L_den":30,"R_num":13,"R_den":26,"correct_side":2,"subjID":"mariapuentesobando9","gender":"1","school":"4","age":"9"},{"start_time":1552073293881,"click_time":1552073295017,"finger_time":1552073294878,"fix_duration":1141.462789844073,"trial":41,"RT":997,"MT":139,"sideResp":1,"stimulus":[],"xmouse":[774,774,774,774,774,774,774,774,774,774,774,774,774,774,774,774,774,774,774,774,774,774,774,774,774,774,774,779,782,784,784,784,784,784,784,784,784,784,784,784,784,784,784,784,784,784,784,784,782,768,748,720,682,641,557,527,519],"ymouse":[620,620,620,620,620,620,620,620,620,620,620,620,620,620,620,620,620,620,620,620,620,620,620,620,620,620,620,614,612,608,608,608,608,608,608,608,608,608,608,608,608,608,608,608,608,608,608,608,604,570,504,425,344,267,120,69,57],"timestamp_mouse":[17,37,58,86,97,118,137,157,177,197,218,237,256,277,296,316,337,356,376,397,417,438,456,476,497,518,536,556,577,596,616,636,656,677,697,716,738,756,777,798,817,836,857,877,897,916,936,958,976,997,1016,1037,1058,1078,1096,1116,1136],"xSR":741.5,"ySR":573.95,"xT1":424.9,"yT1":0,"xT2":1058.1,"yT2":0,"toosoon":0,"cond_shown":"Congruent","ratio_trial":300,"L_num":8,"L_den":16,"R_num":1,"R_den":5,"correct_side":1,"subjID":"mariapuentesobando9","gender":"1","school":"4","age":"9"},{"start_time":1552073296372,"click_time":1552073297638,"finger_time":1552073296978,"fix_duration":292.88054668998285,"trial":42,"RT":606,"MT":660,"sideResp":2,"stimulus":[],"xmouse":[771,771,771,771,771,771,771,771,771,771,771,771,771,771,771,771,771,771,771,771,771,771,771,771,771,771,771,779,786,805,856,871,882,893,906,943,975,996,1005,1009,1012,1012,1012,1013,1015,1021,1027,1030,1034,1035,1041,1043,1044,1045,1046,1046,1047,1049,1050,1051,1053,1053,1054,1061],"ymouse":[617,617,617,617,617,617,617,617,617,617,617,617,617,617,617,617,617,617,617,617,617,617,617,617,617,617,617,612,607,592,557,545,535,523,505,445,385,326,296,272,229,217,208,201,194,175,163,156,148,146,139,136,134,132,129,125,122,119,117,116,113,112,93,76],"timestamp_mouse":[11,25,45,66,85,105,126,147,167,186,206,226,245,265,286,307,326,346,365,385,405,426,445,466,485,505,526,546,567,587,606,626,645,666,686,706,726,746,765,786,805,825,846,866,885,905,925,945,965,985,1007,1026,1046,1065,1086,1105,1127,1145,1166,1185,1205,1227,1245,1266],"xSR":741.5,"ySR":573.95,"xT1":424.9,"yT1":0,"xT2":1058.1,"yT2":0,"toosoon":0,"cond_shown":"Incongruent","ratio_trial":300,"L_num":1,"L_den":2,"R_num":2,"R_den":10,"correct_side":1,"subjID":"mariapuentesobando9","gender":"1","school":"4","age":"9"},{"start_time":1552073299525,"click_time":1552073300597,"finger_time":1552073300178,"fix_duration":266.7225962822546,"trial":43,"RT":653,"MT":419,"sideResp":1,"stimulus":[],"xmouse":[772,772,772,772,772,772,772,772,772,772,772,772,772,772,772,772,772,772,772,772,772,772,772,772,772,772,772,772,772,772,772,763,738,718,700,683,674,654,625,594,568,551,548,546,546,546,546,546,538,525,518,511,496,488],"ymouse":[638,638,638,638,638,638,638,638,638,638,638,638,638,638,638,638,638,638,638,638,638,638,638,638,638,638,638,638,638,638,636,621,578,544,508,470,437,370,316,265,234,214,209,206,206,206,206,206,194,171,155,139,102,88],"timestamp_mouse":[16,34,52,72,93,113,133,153,173,192,213,232,253,273,293,313,333,353,374,392,413,433,452,473,493,512,534,553,573,592,613,633,653,672,693,712,732,753,772,792,812,833,854,873,893,912,933,952,973,993,1012,1032,1053,1072],"xSR":741.5,"ySR":573.95,"xT1":424.9,"yT1":0,"xT2":1058.1,"yT2":0,"toosoon":0,"cond_shown":"Incongruent","ratio_trial":300,"L_num":8,"L_den":10,"R_num":14,"R_den":28,"correct_side":1,"subjID":"mariapuentesobando9","gender":"1","school":"4","age":"9"},{"start_time":1552073302205,"click_time":1552073302918,"finger_time":1552073302738,"fix_duration":625.5203718683766,"trial":44,"RT":533,"MT":180,"sideResp":2,"stimulus":[],"xmouse":[789,789,789,789,789,789,789,789,789,789,789,789,789,789,789,789,789,789,789,789,789,789,789,788,788,797,808,820,868,897,925,955,979,1004,1054,1124],"ymouse":[600,600,600,600,600,600,600,600,600,600,600,600,600,600,600,600,600,600,600,600,600,600,600,600,594,576,558,536,449,389,318,247,196,160,111,66],"timestamp_mouse":[14,38,52,72,92,112,133,153,174,193,212,232,254,272,292,314,333,353,373,392,413,434,452,472,492,514,533,553,574,593,613,632,652,674,692,712],"xSR":741.5,"ySR":573.95,"xT1":424.9,"yT1":0,"xT2":1058.1,"yT2":0,"toosoon":0,"cond_shown":"Incongruent","ratio_trial":200,"L_num":1,"L_den":3,"R_num":2,"R_den":15,"correct_side":1,"subjID":"mariapuentesobando9","gender":"1","school":"4","age":"9"},{"start_time":1552073304807,"click_time":1552073305638,"finger_time":1552073305319,"fix_duration":707.5494375456219,"trial":45,"RT":512,"MT":319,"sideResp":1,"stimulus":[],"xmouse":[774,774,774,774,774,774,774,774,774,774,774,774,774,774,774,770,761,752,747,746,746,746,746,745,742,736,724,709,680,618,599,581,564,550,536,533,531,526,520,502,493,486],"ymouse":[638,638,638,638,638,638,638,638,638,638,638,638,638,638,638,634,625,618,615,615,615,615,615,614,611,603,585,555,507,401,357,317,276,234,202,193,185,176,162,127,106,83],"timestamp_mouse":[12,40,50,71,90,110,130,151,171,190,211,232,252,271,291,310,332,350,370,390,412,431,451,470,490,512,530,551,570,590,610,630,650,670,691,710,730,750,772,791,810,831],"xSR":741.5,"ySR":573.95,"xT1":424.9,"yT1":0,"xT2":1058.1,"yT2":0,"toosoon":0,"cond_shown":"Congruent","ratio_trial":300,"L_num":20,"L_den":25,"R_num":8,"R_den":16,"correct_side":1,"subjID":"mariapuentesobando9","gender":"1","school":"4","age":"9"},{"start_time":1552073308155,"click_time":1552073308938,"finger_time":1552073308598,"fix_duration":1474.0431748117724,"trial":46,"RT":443,"MT":340,"sideResp":2,"stimulus":[],"xmouse":[778,778,778,778,778,778,778,778,778,778,778,778,778,778,778,778,780,782,788,792,796,802,817,828,843,863,907,988,1023,1045,1054,1058,1058,1055,1053,1052,1051,1056,1058,1060],"ymouse":[616,616,616,616,616,616,616,616,616,616,616,616,616,616,616,616,616,612,602,595,585,574,548,534,519,502,471,383,321,266,221,180,128,102,85,72,57,38,33,28],"timestamp_mouse":[10,23,43,62,83,102,122,143,162,183,202,222,243,264,283,302,323,342,362,383,402,424,443,462,482,503,523,543,563,583,602,622,644,662,683,702,723,743,762,783],"xSR":741.5,"ySR":573.95,"xT1":424.9,"yT1":0,"xT2":1058.1,"yT2":0,"toosoon":0,"cond_shown":"Congruent","ratio_trial":300,"L_num":1,"L_den":5,"R_num":6,"R_den":12,"correct_side":2,"subjID":"mariapuentesobando9","gender":"1","school":"4","age":"9"},{"start_time":1552073310381,"click_time":1552073311217,"finger_time":1552073310837,"fix_duration":661.3626393220554,"trial":47,"RT":456,"MT":380,"sideResp":1,"stimulus":[],"xmouse":[796,796,796,796,796,796,796,796,796,796,796,797,797,797,798,798,800,802,804,806,807,811,816,817,817,812,803,791,777,763,748,713,676,646,617,591,553,541,525,510,499,468],"ymouse":[648,648,648,648,648,648,646,644,639,637,634,632,630,626,623,620,613,607,600,595,587,576,564,556,548,525,515,500,485,467,449,390,324,280,250,228,195,184,166,148,131,94],"timestamp_mouse":[16,37,57,77,97,118,136,156,176,197,218,236,257,277,297,316,336,357,377,397,417,436,456,476,497,518,536,557,576,597,616,636,656,677,697,717,736,757,777,798,816,836],"xSR":741.5,"ySR":573.95,"xT1":424.9,"yT1":0,"xT2":1058.1,"yT2":0,"toosoon":0,"cond_shown":"Incongruent","ratio_trial":300,"L_num":4,"L_den":20,"R_num":2,"R_den":4,"correct_side":2,"subjID":"mariapuentesobando9","gender":"1","school":"4","age":"9"},{"start_time":1552073315235,"click_time":1552073316118,"finger_time":1552073315637,"fix_duration":895.9798443317861,"trial":48,"RT":402,"MT":481,"sideResp":2,"stimulus":[],"xmouse":[803,803,803,803,803,803,803,803,803,803,803,803,803,803,803,803,803,803,803,809,855,870,889,911,955,973,989,1015,1027,1035,1046,1049,1051,1051,1051,1051,1051,1051,1051,1051,1051,1051,1052,1054,1060],"ymouse":[590,590,590,590,590,590,590,590,590,590,590,590,590,590,590,590,590,590,589,574,468,430,399,352,259,230,205,162,140,121,90,80,73,67,61,61,61,61,61,61,61,61,60,58,54],"timestamp_mouse":[14,41,42,62,82,103,122,143,163,183,204,222,243,263,282,303,322,343,363,382,402,422,443,462,482,502,523,543,564,583,603,624,643,662,682,702,723,743,763,783,802,823,842,862,883],"xSR":741.5,"ySR":573.95,"xT1":424.9,"yT1":0,"xT2":1058.1,"yT2":0,"toosoon":0,"cond_shown":"Incongruent","ratio_trial":300,"L_num":1,"L_den":2,"R_num":2,"R_den":10,"correct_side":1,"subjID":"mariapuentesobando9","gender":"1","school":"4","age":"9"},{"start_time":1552073318218,"click_time":1552073319018,"finger_time":1552073318758,"fix_duration":978.497679264981,"trial":49,"RT":540,"MT":260,"sideResp":2,"stimulus":[],"xmouse":[787,787,787,787,787,787,787,787,787,787,787,787,787,787,787,787,787,787,787,787,787,787,787,787,787,787,791,795,813,825,841,906,943,973,1000,1018,1053,1068,1076,1081,1085],"ymouse":[579,579,579,579,579,579,579,579,579,579,579,579,579,579,579,579,579,579,579,579,579,579,579,579,579,579,576,564,523,484,446,330,278,241,211,189,148,127,114,103,94],"timestamp_mouse":[9,37,39,60,80,100,121,140,160,180,201,219,239,259,279,299,319,340,360,379,399,420,439,460,479,499,519,540,559,581,599,619,639,659,680,699,720,739,759,780,800],"xSR":741.5,"ySR":573.95,"xT1":424.9,"yT1":0,"xT2":1058.1,"yT2":0,"toosoon":0,"cond_shown":"Incongruent","ratio_trial":200,"L_num":3,"L_den":4,"R_num":11,"R_den":20,"correct_side":1,"subjID":"mariapuentesobando9","gender":"1","school":"4","age":"9"},{"start_time":1552073321044,"click_time":1552073321738,"finger_time":1552073321518,"fix_duration":764.2197733392131,"trial":50,"RT":474,"MT":220,"sideResp":2,"stimulus":[],"xmouse":[790,790,790,790,790,790,790,790,790,790,790,790,790,790,790,790,790,790,790,790,790,790,797,831,917,955,981,1006,1023,1048,1055,1062,1070,1078,1097],"ymouse":[593,593,593,593,593,593,593,593,593,593,593,593,593,593,593,593,593,593,593,593,593,593,580,534,411,361,322,284,248,179,155,134,116,103,72],"timestamp_mouse":[13,44,54,74,95,115,134,155,173,194,215,235,254,274,293,313,334,353,373,394,413,435,454,474,494,514,533,554,574,593,615,634,654,675,694],"xSR":741.5,"ySR":573.95,"xT1":424.9,"yT1":0,"xT2":1058.1,"yT2":0,"toosoon":0,"cond_shown":"Congruent","ratio_trial":200,"L_num":4,"L_den":8,"R_num":3,"R_den":10,"correct_side":1,"subjID":"mariapuentesobando9","gender":"1","school":"4","age":"9"},{"start_time":1552073324539,"click_time":1552073325098,"finger_time":1552073324879,"fix_duration":1339.634969972179,"trial":51,"RT":340,"MT":219,"sideResp":2,"stimulus":[],"xmouse":[783,783,783,783,783,783,783,783,783,783,783,783,783,783,783,789,798,827,886,971,1022,1063,1091,1110,1128,1135,1142,1150],"ymouse":[596,596,596,596,596,596,596,596,596,596,596,596,596,596,596,585,572,537,469,349,285,220,184,158,128,116,102,83],"timestamp_mouse":[19,38,59,78,98,119,138,158,178,199,218,239,259,279,298,318,340,358,379,399,418,438,459,478,498,518,539,559],"xSR":741.5,"ySR":573.95,"xT1":424.9,"yT1":0,"xT2":1058.1,"yT2":0,"toosoon":0,"cond_shown":"Incongruent","ratio_trial":100,"L_num":10,"L_den":25,"R_num":9,"R_den":18,"correct_side":2,"subjID":"mariapuentesobando9","gender":"1","school":"4","age":"9"},{"start_time":1552073327945,"click_time":1552073328817,"finger_time":1552073328258,"fix_duration":1345.8043658572474,"trial":52,"RT":313,"MT":559,"sideResp":1,"stimulus":[],"xmouse":[763,763,763,763,763,763,764,764,764,764,758,756,753,750,745,732,722,707,688,666,625,607,591,577,563,543,537,534,531,530,529,529,529,529,529,529,529,529,529,529,529,529,527,523],"ymouse":[642,642,642,642,642,642,642,636,627,616,593,589,585,581,576,539,499,437,375,311,224,191,163,138,114,70,57,50,43,41,40,40,40,40,40,40,40,40,40,40,40,40,39,38],"timestamp_mouse":[20,36,52,72,93,114,132,153,172,192,212,232,252,273,294,313,333,352,372,392,413,432,452,472,493,512,533,552,572,593,612,633,653,673,693,713,732,753,772,793,812,832,854,872],"xSR":741.5,"ySR":573.95,"xT1":424.9,"yT1":0,"xT2":1058.1,"yT2":0,"toosoon":0,"cond_shown":"Incongruent","ratio_trial":100,"L_num":12,"L_den":24,"R_num":9,"R_den":15,"correct_side":2,"subjID":"mariapuentesobando9","gender":"1","school":"4","age":"9"},{"start_time":1552073334036,"click_time":1552073335018,"finger_time":1552073334658,"fix_duration":396.3339477344998,"trial":53,"RT":622,"MT":360,"sideResp":2,"stimulus":[],"xmouse":[817,816,816,816,816,815,814,814,814,813,813,813,813,813,813,813,813,813,813,813,813,813,813,813,813,813,813,813,813,821,904,993,1076,1141,1185,1216,1239,1239,1235,1224,1214,1201,1198,1194,1192,1183,1177,1167,1156],"ymouse":[611,611,611,611,611,611,611,611,611,611,611,611,611,611,611,611,611,611,611,611,611,611,611,611,611,611,611,611,611,609,536,451,371,298,228,155,36,0,0,0,0,0,0,0,0,7,13,27,42],"timestamp_mouse":[4,46,61,81,101,122,141,161,181,202,222,242,263,282,302,322,341,363,382,402,422,441,462,483,502,522,542,563,582,601,622,641,661,681,701,722,742,762,782,802,822,843,862,882,902,922,941,962,982],"xSR":741.5,"ySR":573.95,"xT1":424.9,"yT1":0,"xT2":1058.1,"yT2":0,"toosoon":0,"cond_shown":"Incongruent","ratio_trial":100,"L_num":11,"L_den":22,"R_num":9,"R_den":15,"correct_side":2,"subjID":"mariapuentesobando9","gender":"1","school":"4","age":"9"},{"start_time":1552073336878,"click_time":1552073337538,"finger_time":1552073337297,"fix_duration":578.4771490901369,"trial":54,"RT":419,"MT":241,"sideResp":2,"stimulus":[],"xmouse":[796,796,796,796,796,796,796,796,796,796,796,796,796,796,796,796,796,796,796,798,804,811,818,826,834,852,865,898,929,964,1038,1067,1085,1091],"ymouse":[586,586,586,586,586,586,586,586,586,586,586,586,586,586,586,586,586,586,586,583,577,570,561,553,543,518,499,453,407,355,239,181,129,83],"timestamp_mouse":[1,20,39,60,79,99,120,139,159,180,199,219,241,260,280,299,320,341,359,379,399,419,439,459,480,500,520,539,560,580,599,620,640,660],"xSR":741.5,"ySR":573.95,"xT1":424.9,"yT1":0,"xT2":1058.1,"yT2":0,"toosoon":0,"cond_shown":"Congruent","ratio_trial":100,"L_num":1,"L_den":2,"R_num":18,"R_den":30,"correct_side":2,"subjID":"mariapuentesobando9","gender":"1","school":"4","age":"9"},{"start_time":1552073339604,"click_time":1552073340598,"finger_time":1552073340218,"fix_duration":1164.3803545626674,"trial":55,"RT":614,"MT":380,"sideResp":1,"stimulus":[],"xmouse":[786,786,786,786,786,786,786,786,786,786,786,786,786,786,786,786,786,786,786,787,788,788,789,790,790,790,790,790,790,784,777,764,736,669,635,608,585,574,548,537,525,515,504,492,492,492,492,492,492,492],"ymouse":[639,639,639,639,639,639,639,639,639,639,639,639,639,639,639,639,639,639,639,636,632,628,625,622,622,622,621,619,601,585,561,516,457,310,232,173,119,87,30,11,0,0,0,0,0,0,0,0,0,1],"timestamp_mouse":[18,37,54,75,93,113,134,154,173,193,213,234,255,273,294,313,334,354,373,394,414,434,454,473,495,513,533,553,573,595,614,633,654,674,694,713,733,754,773,795,814,835,854,876,893,913,933,954,974,994],"xSR":741.5,"ySR":573.95,"xT1":424.9,"yT1":0,"xT2":1058.1,"yT2":0,"toosoon":0,"cond_shown":"Incongruent","ratio_trial":200,"L_num":3,"L_den":10,"R_num":1,"R_den":2,"correct_side":2,"subjID":"mariapuentesobando9","gender":"1","school":"4","age":"9"},{"start_time":1552073342238,"click_time":1552073343078,"finger_time":1552073342938,"fix_duration":739.3435571631865,"trial":56,"RT":700,"MT":140,"sideResp":2,"stimulus":[],"xmouse":[811,811,811,811,811,811,811,811,811,811,811,811,811,811,811,811,811,811,811,811,811,811,811,811,811,811,811,811,811,811,811,811,811,810,810,832,865,968,1021,1071,1100,1119,1135],"ymouse":[612,612,612,612,612,612,612,612,612,612,612,612,612,612,612,612,612,612,612,612,612,612,612,612,612,612,612,612,612,612,612,612,612,611,608,568,507,353,275,209,167,136,94],"timestamp_mouse":[1,19,39,60,79,100,119,140,160,181,199,219,239,259,279,299,320,339,360,381,399,420,439,460,480,500,520,539,560,579,600,620,640,659,680,700,719,740,759,779,799,819,840],"xSR":741.5,"ySR":573.95,"xT1":424.9,"yT1":0,"xT2":1058.1,"yT2":0,"toosoon":0,"cond_shown":"Incongruent","ratio_trial":200,"L_num":7,"L_den":15,"R_num":4,"R_den":6,"correct_side":2,"subjID":"mariapuentesobando9","gender":"1","school":"4","age":"9"},{"start_time":1552073344752,"click_time":1552073346017,"finger_time":1552073345357,"fix_duration":472.13296407461024,"trial":57,"RT":605,"MT":660,"sideResp":2,"stimulus":[],"xmouse":[797,797,797,797,797,797,797,797,797,797,797,797,797,797,797,797,797,797,797,797,797,797,797,797,797,797,797,797,797,804,811,826,836,844,852,862,874,893,903,913,920,928,942,953,964,975,989,1016,1032,1038,1043,1044,1046,1046,1046,1046,1046,1046,1046,1046,1046,1046,1057,1064],"ymouse":[631,631,631,631,631,631,631,631,631,631,631,631,631,631,631,631,631,631,631,631,631,631,631,631,631,631,631,631,626,590,548,482,451,424,395,364,335,296,279,255,242,226,194,176,156,136,117,79,59,50,43,39,36,36,36,36,36,36,36,36,36,36,33,30],"timestamp_mouse":[20,43,46,65,85,105,126,146,167,185,205,225,246,267,286,306,326,347,365,386,407,425,445,466,487,505,527,546,566,586,605,627,646,665,686,705,726,746,765,785,807,827,845,866,885,907,925,945,966,986,1007,1027,1046,1065,1085,1106,1126,1145,1166,1186,1206,1226,1247,1265],"xSR":741.5,"ySR":573.95,"xT1":424.9,"yT1":0,"xT2":1058.1,"yT2":0,"toosoon":0,"cond_shown":"Incongruent","ratio_trial":300,"L_num":4,"L_den":5,"R_num":6,"R_den":12,"correct_side":1,"subjID":"mariapuentesobando9","gender":"1","school":"4","age":"9"},{"start_time":1552073348061,"click_time":1552073348838,"finger_time":1552073348419,"fix_duration":1281.0873902296516,"trial":58,"RT":358,"MT":419,"sideResp":1,"stimulus":[],"xmouse":[787,787,787,787,787,787,787,787,783,779,774,774,774,774,773,771,762,757,752,747,743,726,716,707,698,687,669,660,650,641,629,599,591,582,572,562,543,533,523],"ymouse":[632,632,632,632,632,632,632,626,617,611,604,604,604,604,603,601,580,568,557,546,536,510,496,483,467,450,411,388,366,329,285,211,187,165,142,121,87,71,59],"timestamp_mouse":[16,36,56,78,96,116,136,156,177,197,218,238,257,276,296,317,337,358,377,396,416,436,456,476,496,516,536,556,577,598,618,637,656,676,696,718,736,756,777],"xSR":741.5,"ySR":573.95,"xT1":424.9,"yT1":0,"xT2":1058.1,"yT2":0,"toosoon":0,"cond_shown":"Incongruent","ratio_trial":100,"L_num":3,"L_den":9,"R_num":7,"R_den":30,"correct_side":1,"subjID":"mariapuentesobando9","gender":"1","school":"4","age":"9"},{"start_time":1552073350955,"click_time":1552073352057,"finger_time":1552073351459,"fix_duration":1036.736946697801,"trial":59,"RT":504,"MT":598,"sideResp":1,"stimulus":[],"xmouse":[797,797,797,797,797,797,797,797,797,797,797,797,797,797,797,796,795,794,794,794,794,791,784,773,756,749,737,722,710,693,666,629,529,473,418,356,342,307,284,272,268,266,265,265,266,272,280,291,325,344,363,380,392,411,421,427],"ymouse":[634,634,634,634,634,634,634,634,634,634,634,634,634,634,634,633,633,632,632,632,632,628,620,608,575,560,526,481,452,414,366,314,186,126,75,17,5,0,0,0,0,0,0,0,0,0,5,9,25,31,37,40,43,47,50,52],"timestamp_mouse":[18,37,43,63,82,104,123,143,162,182,202,223,242,262,283,303,322,342,362,383,402,422,442,463,483,504,523,543,562,582,602,623,643,663,683,703,724,743,763,782,802,823,844,864,882,902,922,943,963,982,1002,1023,1042,1062,1082,1102],"xSR":741.5,"ySR":573.95,"xT1":424.9,"yT1":0,"xT2":1058.1,"yT2":0,"toosoon":0,"cond_shown":"Congruent","ratio_trial":300,"L_num":24,"L_den":30,"R_num":8,"R_den":16,"correct_side":1,"subjID":"mariapuentesobando9","gender":"1","school":"4","age":"9"},{"start_time":1552073355017,"click_time":1552073355919,"finger_time":1552073355617,"fix_duration":697.4811662554458,"trial":60,"RT":600,"MT":302,"sideResp":2,"stimulus":[],"xmouse":[797,797,797,797,797,797,797,797,797,797,797,797,797,797,797,797,797,797,795,794,789,788,787,787,787,787,787,787,791,802,892,954,1011,1063,1107,1160,1168,1174,1176,1177,1178,1178,1176,1176,1175,1158],"ymouse":[633,633,633,633,633,633,633,633,633,633,633,633,633,633,633,633,633,633,632,632,629,629,628,628,628,628,628,628,621,609,492,427,371,325,276,170,143,120,104,86,53,45,42,41,41,51],"timestamp_mouse":[10,35,40,60,81,100,122,141,160,181,200,222,241,260,280,302,320,341,360,380,400,421,442,460,480,501,521,540,560,580,600,621,641,660,680,700,722,741,761,780,801,821,840,861,881,902],"xSR":741.5,"ySR":573.95,"xT1":424.9,"yT1":0,"xT2":1058.1,"yT2":0,"toosoon":0,"cond_shown":"Congruent","ratio_trial":100,"L_num":4,"L_den":8,"R_num":6,"R_den":10,"correct_side":2,"subjID":"mariapuentesobando9","gender":"1","school":"4","age":"9"},{"start_time":1552073357130,"click_time":1552073358298,"finger_time":1552073357638,"fix_duration":250,"trial":61,"RT":508,"MT":660,"sideResp":2,"stimulus":[],"xmouse":[799,799,799,799,799,799,799,799,799,799,799,799,799,799,799,799,799,799,799,799,799,799,799,799,799,813,833,851,868,898,909,917,925,931,936,945,948,952,955,963,969,976,985,995,1019,1027,1030,1035,1038,1043,1046,1048,1049,1050,1052,1052,1053,1056,1059],"ymouse":[592,592,592,592,592,592,592,592,592,592,592,592,592,592,592,592,592,592,592,592,592,592,592,592,587,565,538,511,488,448,428,409,392,374,358,328,316,302,287,253,234,213,194,176,144,135,131,124,120,109,104,99,96,95,92,91,90,88,85],"timestamp_mouse":[13,38,47,67,87,109,127,148,168,187,208,228,247,267,287,309,327,349,368,387,408,427,447,468,487,508,527,548,567,587,607,629,649,667,687,707,727,748,767,787,807,828,848,867,887,909,928,947,968,987,1007,1028,1047,1067,1087,1109,1128,1148,1168],"xSR":741.5,"ySR":573.95,"xT1":424.9,"yT1":0,"xT2":1058.1,"yT2":0,"toosoon":0,"cond_shown":"Congruent","ratio_trial":100,"L_num":1,"L_den":2,"R_num":3,"R_den":5,"correct_side":2,"subjID":"mariapuentesobando9","gender":"1","school":"4","age":"9"},{"start_time":1552073360386,"click_time":1552073361978,"finger_time":1552073360797,"fix_duration":786.6019418229914,"trial":62,"RT":411,"MT":1181,"sideResp":1,"stimulus":[],"xmouse":[772,772,772,772,772,772,772,772,772,772,772,772,772,772,772,772,772,771,761,747,732,720,707,706,706,706,706,706,706,706,706,706,706,706,706,707,709,709,709,709,709,713,718,725,733,742,753,761,763,770,772,774,777,778,778,778,780,781,781,781,782,782,773,756,728,691,658,613,602,590,586,584,583,582,581,581,576,553,538,514],"ymouse":[610,610,610,610,610,610,610,610,610,610,610,610,610,610,610,610,610,609,612,617,618,617,608,607,607,607,607,607,607,607,607,607,607,607,605,603,601,601,601,601,601,601,601,601,601,601,601,603,604,609,611,613,615,615,615,615,616,616,616,616,615,608,532,462,382,318,269,210,198,177,166,158,149,144,139,128,115,92,81,72],"timestamp_mouse":[12,35,52,73,92,111,131,151,171,191,211,231,251,271,291,311,331,351,371,391,411,432,451,471,492,512,532,551,572,592,612,632,652,672,692,711,733,752,772,791,811,832,851,872,892,912,932,951,972,991,1011,1031,1053,1071,1091,1112,1133,1152,1172,1192,1212,1231,1253,1273,1292,1313,1333,1351,1372,1391,1411,1432,1452,1471,1492,1512,1531,1551,1572,1592],"xSR":741.5,"ySR":573.95,"xT1":424.9,"yT1":0,"xT2":1058.1,"yT2":0,"toosoon":0,"cond_shown":"Incongruent","ratio_trial":300,"L_num":4,"L_den":20,"R_num":2,"R_den":4,"correct_side":2,"subjID":"mariapuentesobando9","gender":"1","school":"4","age":"9"},{"start_time":1552073363042,"click_time":1552073363737,"finger_time":1552073363617,"fix_duration":304.1332898893446,"trial":63,"RT":575,"MT":120,"sideResp":2,"stimulus":[],"xmouse":[803,803,803,803,803,803,803,803,803,803,803,803,803,803,803,803,803,803,804,805,806,807,808,809,811,817,829,844,900,937,969,998,1020,1060],"ymouse":[632,632,632,632,632,632,632,632,632,632,632,632,632,632,632,632,632,632,631,629,628,626,624,623,620,611,590,562,452,383,310,243,189,76],"timestamp_mouse":[35,55,76,96,115,136,155,176,195,217,235,256,275,295,315,336,355,375,395,415,435,456,476,495,516,536,555,575,595,616,635,655,675,695],"xSR":741.5,"ySR":573.95,"xT1":424.9,"yT1":0,"xT2":1058.1,"yT2":0,"toosoon":0,"cond_shown":"Congruent","ratio_trial":200,"L_num":1,"L_den":2,"R_num":21,"R_den":30,"correct_side":2,"subjID":"mariapuentesobando9","gender":"1","school":"4","age":"9"},{"start_time":1552073365480,"click_time":1552073366657,"finger_time":1552073365958,"fix_duration":941.8890029686819,"trial":64,"RT":478,"MT":699,"sideResp":2,"stimulus":[],"xmouse":[791,791,791,791,791,791,791,791,791,791,791,791,791,791,791,791,791,791,791,791,791,791,800,806,810,814,816,817,817,817,817,817,818,819,823,830,839,868,891,911,928,942,966,972,977,983,988,993,1000,1005,1008,1013,1021,1029,1038,1046,1051,1058,1059],"ymouse":[617,617,617,617,617,617,617,617,617,617,617,617,617,617,617,617,617,617,617,617,616,612,579,566,555,546,532,522,520,520,51