[{"start_time":1552073741507,"click_time":1552073744811,"finger_time":1552073743791,"fix_duration":1270.3345177425192,"trial":0,"RT":2284,"MT":1020,"sideResp":2,"stimulus":"img/750/equaldotanddens/R/3_Ratio_750_L_15_R_20.png","xmouse":[801,801,801,801,801,801,801,801,801,801,801,801,801,801,801,801,801,801,801,801,801,801,801,801,801,801,801,801,801,801,801,801,801,801,801,801,801,801,801,801,801,801,801,801,801,801,801,801,801,802,802,802,802,803,804,804,804,804,804,804,804,804,804,804,804,804,804,804,804,804,804,804,804,804,804,804,804,804,804,804,804,804,804,804,804,804,804,804,804,804,804,804,804,804,804,804,804,804,804,804,804,804,804,804,804,804,804,804,804,804,804,804,807,814,820,826,838,840,842,842,842,842,841,841,841,841,841,841,841,841,841,841,841,841,841,841,848,910,937,970,1011,1122,1176,1207,1231,1249,1259,1260,1260,1260,1260,1260,1258,1251,1242,1234,1222,1213,1210,1205,1200,1187,1178,1169,1159,1146],"ymouse":[512,512,512,512,512,512,512,512,512,512,512,512,512,512,512,512,512,512,512,512,512,512,512,512,512,512,512,512,512,512,512,512,512,512,512,512,512,512,512,512,512,512,512,512,512,512,512,512,512,512,512,512,512,512,512,512,512,512,512,512,512,512,512,512,512,512,512,512,512,512,512,512,512,512,512,512,512,512,512,512,512,512,512,512,512,512,512,512,512,512,512,512,512,512,512,512,512,512,512,512,512,512,512,512,512,512,512,512,512,512,512,512,507,489,465,439,399,394,392,392,392,392,392,392,392,392,392,392,392,392,392,392,392,392,392,392,389,364,362,362,362,339,327,323,321,320,313,298,278,252,219,186,138,125,116,113,109,105,103,101,99,94,90,87,82,77],"timestamp_mouse":[8,24,45,65,84,105,124,145,165,185,203,224,245,264,285,304,324,344,365,384,405,424,444,464,485,505,523,545,565,585,605,624,645,664,685,704,724,745,764,785,804,824,845,865,884,905,924,945,964,984,1005,1024,1044,1064,1085,1104,1124,1145,1163,1185,1204,1224,1243,1265,1285,1305,1325,1345,1365,1385,1404,1425,1445,1463,1485,1504,1523,1545,1565,1585,1605,1624,1645,1664,1685,1703,1725,1745,1765,1784,1805,1824,1845,1863,1885,1905,1924,1944,1963,1983,2003,2024,2045,2065,2085,2105,2124,2143,2165,2185,2205,2224,2244,2264,2284,2304,2325,2343,2364,2384,2405,2425,2444,2464,2485,2503,2525,2544,2565,2584,2603,2625,2643,2665,2685,2704,2723,2743,2764,2785,2804,2826,2843,2864,2884,2904,2924,2944,2964,2985,3004,3023,3044,3064,3084,3103,3124,3143,3164,3184,3204,3225,3244,3264,3284,3304],"xSR":741.5,"ySR":469.95,"xT1":424.9,"yT1":0,"xT2":1058.1,"yT2":0,"toosoon":0,"cond_shown":"equaldotanddens","ratio_trial":750,"smaller_num":"15","larger_num":"20","correct_side":2,"subjID":"mariapuentesobando9","gender":"1","age":"9","school":"4","test":{"fix_dur":[250,1500],"timestim":300,"targets_dim":[100,100],"targets_relative_coord":[0.3,0.7],"size_stim":[880,420],"start_dim":[100,100],"size_start":[300,300],"size_fix":60,"samplingrate":20,"img_types":["equaldotsize","equaldotanddens","randomdotsizeEA"],"ratios":[250,500,750,900],"rep_conds":9,"nTrials":120,"trials_to_rest":500,"Trials_order":[55,59,87,118,9,51,56,23,29,36,94,66,58,86,15,84,113,96,74,13,25,117,27,63,61,97,45,101,82,46,53,68,98,34,102,99,114,18,4,62,7,104,88,72,6,54,32,80,0,33,14,44,47,73,78,111,19,1,85,76,100,40,30,41,70,48,110,71,2,64,35,17,109,112,79,21,108,60,105,89,69,3,65,5,43,107,106,39,8,115,38,50,16,31,10,75,37,119,95,24,11,103,67,116,28,81,42,83,77,22,93,52,12,57,20,49,26,90,92,91],"cond_shown":["equaldotanddens","randomdotsizeEA","equaldotsize","equaldotanddens","equaldotsize","equaldotsize","randomdotsizeEA","randomdotsizeEA","randomdotsizeEA","equaldotsize","equaldotanddens","equaldotsize","equaldotanddens","randomdotsizeEA","equaldotsize","equaldotsize","randomdotsizeEA","equaldotsize","randomdotsizeEA","equaldotanddens","equaldotanddens","equaldotsize","equaldotsize","equaldotsize","equaldotanddens","equaldotanddens","equaldotsize","randomdotsizeEA","equaldotanddens","equaldotanddens","randomdotsizeEA","randomdotsizeEA","randomdotsizeEA","equaldotanddens","equaldotsize","equaldotsize","equaldotsize","equaldotsize","equaldotanddens","randomdotsizeEA","equaldotanddens","randomdotsizeEA","equaldotanddens","equaldotsize","equaldotsize","equaldotsize","randomdotsizeEA","randomdotsizeEA","equaldotsize","equaldotsize","randomdotsizeEA","randomdotsizeEA","randomdotsizeEA","equaldotanddens","equaldotsize","equaldotsize","equaldotanddens","equaldotanddens","equaldotanddens","equaldotanddens","equaldotanddens","equaldotanddens","equaldotsize","randomdotsizeEA","equaldotanddens","equaldotsize","randomdotsizeEA","randomdotsizeEA","randomdotsizeEA","equaldotanddens","randomdotsizeEA","randomdotsizeEA","equaldotanddens","equaldotanddens","equaldotanddens","equaldotsize","equaldotsize","equaldotsize","equaldotsize","randomdotsizeEA","equaldotsize","equaldotsize","randomdotsizeEA","randomdotsizeEA","equaldotanddens","randomdotsizeEA","equaldotanddens","equaldotsize","randomdotsizeEA","equaldotanddens","randomdotsizeEA","randomdotsizeEA","equaldotanddens","equaldotanddens","equaldotanddens","equaldotsize","equaldotanddens","randomdotsizeEA","randomdotsizeEA","equaldotsize","randomdotsizeEA","equaldotanddens","equaldotanddens","randomdotsizeEA","equaldotanddens","equaldotsize","equaldotsize","randomdotsizeEA","randomdotsizeEA","equaldotanddens","equaldotsize","equaldotanddens","equaldotsize","equaldotsize","randomdotsizeEA","equaldotanddens","randomdotsizeEA","equaldotsize","randomdotsizeEA","equaldotanddens"],"ratio_trial":[750,900,500,900,900,500,750,900,500,250,900,750,900,250,500,250,500,250,250,250,250,900,500,500,250,250,900,500,900,900,500,750,250,900,750,500,750,750,500,250,750,750,500,250,750,750,750,750,250,900,250,750,900,250,750,500,750,250,250,500,500,500,750,500,900,250,250,900,250,500,900,500,250,500,750,900,250,250,900,500,900,500,500,500,750,900,900,500,750,750,250,250,500,750,900,500,250,900,900,250,900,750,750,750,500,900,750,900,500,900,900,500,250,900,750,250,250,750,750,750],"smaller_num":["15","9","2","18","18","9","3","9","1","4","18","9","18","2","1","4","3","3","4","2","2","18","9","5","5","5","18","5","18","9","2","3","2","9","15","1","18","6","9","4","3","15","1","4","3","3","15","6","6","18","3","18","18","3","15","5","3","3","6","5","1","2","6","9","18","3","1","18","4","9","9","6","5","2","3","9","2","4","18","5","18","1","10","9","15","9","18","9","3","6","3","2","6","6","9","2","1","18","18","3","9","15","3","15","10","18","3","9","6","9","9","1","6","9","15","2","3","15","12","3"],"larger_num":["20","10","4","20","20","18","4","10","2","16","20","12","20","8","2","16","6","12","16","8","8","20","18","10","20","20","20","10","20","10","4","4","8","10","20","2","24","8","18","16","4","20","2","16","4","4","20","8","24","20","12","24","20","12","20","10","4","12","24","10","2","4","8","18","20","12","4","20","16","18","10","12","20","4","4","10","8","16","20","10","20","2","20","18","20","10","20","18","4","8","12","8","12","8","10","4","4","20","20","12","10","20","4","20","20","20","4","10","12","10","10","2","24","10","20","8","12","20","16","4"],"correct_side":[2,1,1,2,1,2,1,2,2,2,2,2,1,1,2,2,2,2,1,1,1,1,2,1,2,2,1,2,2,2,1,1,1,1,2,2,1,2,2,1,2,2,2,1,1,2,2,1,2,2,2,1,2,2,2,1,1,1,1,1,2,1,1,1,1,2,2,1,1,1,2,1,2,2,1,2,1,1,2,1,2,2,2,1,2,2,2,2,1,2,1,1,1,2,2,1,2,1,1,2,2,1,2,1,2,1,1,2,1,2,1,2,1,2,2,1,2,2,2,2],"img_shown":["img/750/equaldotanddens/R/3_Ratio_750_L_15_R_20.png","img/900/randomdotsizeEA/L/1_Ratio_900_L_10_R_9.png","img/500/equaldotsize/L/10_Ratio_500_L_4_R_2.png","img/900/equaldotanddens/R/9_Ratio_900_L_18_R_20.png","img/900/equaldotsize/L/4_Ratio_900_L_20_R_18.png","img/500/equaldotsize/R/1_Ratio_500_L_9_R_18.png","img/750/randomdotsizeEA/L/9_Ratio_750_L_4_R_3.png","img/900/randomdotsizeEA/R/15_Ratio_900_L_9_R_10.png","img/500/randomdotsizeEA/R/12_Ratio_500_L_1_R_2.png","img/250/equaldotsize/R/10_Ratio_250_L_4_R_16.png","img/900/equaldotanddens/R/13_Ratio_900_L_18_R_20.png","img/750/equaldotsize/R/15_Ratio_750_L_9_R_12.png","img/900/equaldotanddens/L/10_Ratio_900_L_20_R_18.png","img/250/randomdotsizeEA/L/1_Ratio_250_L_8_R_2.png","img/500/equaldotsize/R/12_Ratio_500_L_1_R_2.png","img/250/equaldotsize/R/10_Ratio_250_L_4_R_16.png","img/500/randomdotsizeEA/R/2_Ratio_500_L_3_R_6.png","img/250/equaldotsize/R/11_Ratio_250_L_3_R_12.png","img/250/randomdotsizeEA/L/2_Ratio_250_L_16_R_4.png","img/250/equaldotanddens/L/7_Ratio_250_L_8_R_2.png","img/250/equaldotanddens/L/1_Ratio_250_L_8_R_2.png","img/900/equaldotsize/L/10_Ratio_900_L_20_R_18.png","img/500/equaldotsize/R/1_Ratio_500_L_9_R_18.png","img/500/equaldotsize/L/7_Ratio_500_L_10_R_5.png","img/250/equaldotanddens/R/12_Ratio_250_L_5_R_20.png","img/250/equaldotanddens/R/12_Ratio_250_L_5_R_20.png","img/900/equaldotsize/L/10_Ratio_900_L_20_R_18.png","img/500/randomdotsizeEA/R/14_Ratio_500_L_5_R_10.png","img/900/equaldotanddens/R/11_Ratio_900_L_18_R_20.png","img/900/equaldotanddens/R/7_Ratio_900_L_9_R_10.png","img/500/randomdotsizeEA/L/5_Ratio_500_L_4_R_2.png","img/750/randomdotsizeEA/L/10_Ratio_750_L_4_R_3.png","img/250/randomdotsizeEA/L/1_Ratio_250_L_8_R_2.png","img/900/equaldotanddens/L/1_Ratio_900_L_10_R_9.png","img/750/equaldotsize/R/5_Ratio_750_L_15_R_20.png","img/500/equaldotsize/R/12_Ratio_500_L_1_R_2.png","img/750/equaldotsize/L/6_Ratio_750_L_24_R_18.png","img/750/equaldotsize/R/2_Ratio_750_L_6_R_8.png","img/500/equaldotanddens/R/1_Ratio_500_L_9_R_18.png","img/250/randomdotsizeEA/L/2_Ratio_250_L_16_R_4.png","img/750/equaldotanddens/R/12_Ratio_750_L_3_R_4.png","img/750/randomdotsizeEA/R/4_Ratio_750_L_15_R_20.png","img/500/equaldotanddens/R/15_Ratio_500_L_1_R_2.png","img/250/equaldotsize/L/2_Ratio_250_L_16_R_4.png","img/750/equaldotsize/L/9_Ratio_750_L_4_R_3.png","img/750/equaldotsize/R/7_Ratio_750_L_3_R_4.png","img/750/randomdotsizeEA/R/3_Ratio_750_L_15_R_20.png","img/750/randomdotsizeEA/L/14_Ratio_750_L_8_R_6.png","img/250/equaldotsize/R/6_Ratio_250_L_6_R_24.png","img/900/equaldotsize/R/12_Ratio_900_L_18_R_20.png","img/250/randomdotsizeEA/R/9_Ratio_250_L_3_R_12.png","img/750/randomdotsizeEA/L/6_Ratio_750_L_24_R_18.png","img/900/randomdotsizeEA/R/9_Ratio_900_L_18_R_20.png","img/250/equaldotanddens/R/4_Ratio_250_L_3_R_12.png","img/750/equaldotsize/R/4_Ratio_750_L_15_R_20.png","img/500/equaldotsize/L/7_Ratio_500_L_10_R_5.png","img/750/equaldotanddens/L/10_Ratio_750_L_4_R_3.png","img/250/equaldotanddens/L/14_Ratio_250_L_12_R_3.png","img/250/equaldotanddens/L/5_Ratio_250_L_24_R_6.png","img/500/equaldotanddens/L/7_Ratio_500_L_10_R_5.png","img/500/equaldotanddens/R/15_Ratio_500_L_1_R_2.png","img/500/equaldotanddens/L/5_Ratio_500_L_4_R_2.png","img/750/equaldotsize/L/14_Ratio_750_L_8_R_6.png","img/500/randomdotsizeEA/L/4_Ratio_500_L_18_R_9.png","img/900/equaldotanddens/L/8_Ratio_900_L_20_R_18.png","img/250/equaldotsize/R/9_Ratio_250_L_3_R_12.png","img/250/randomdotsizeEA/R/8_Ratio_250_L_1_R_4.png","img/900/randomdotsizeEA/L/4_Ratio_900_L_20_R_18.png","img/250/randomdotsizeEA/L/2_Ratio_250_L_16_R_4.png","img/500/equaldotanddens/L/4_Ratio_500_L_18_R_9.png","img/900/randomdotsizeEA/R/6_Ratio_900_L_9_R_10.png","img/500/randomdotsizeEA/L/11_Ratio_500_L_12_R_6.png","img/250/equaldotanddens/R/12_Ratio_250_L_5_R_20.png","img/500/equaldotanddens/R/9_Ratio_500_L_2_R_4.png","img/750/equaldotanddens/L/9_Ratio_750_L_4_R_3.png","img/900/equaldotsize/R/6_Ratio_900_L_9_R_10.png","img/250/equaldotsize/L/7_Ratio_250_L_8_R_2.png","img/250/equaldotsize/L/2_Ratio_250_L_16_R_4.png","img/900/equaldotsize/R/9_Ratio_900_L_18_R_20.png","img/500/randomdotsizeEA/L/7_Ratio_500_L_10_R_5.png","img/900/equaldotsize/R/9_Ratio_900_L_18_R_20.png","img/500/equaldotsize/R/12_Ratio_500_L_1_R_2.png","img/500/randomdotsizeEA/R/3_Ratio_500_L_10_R_20.png","img/500/randomdotsizeEA/L/4_Ratio_500_L_18_R_9.png","img/750/equaldotanddens/R/5_Ratio_750_L_15_R_20.png","img/900/randomdotsizeEA/R/15_Ratio_900_L_9_R_10.png","img/900/equaldotanddens/R/11_Ratio_900_L_18_R_20.png","img/500/equaldotsize/R/6_Ratio_500_L_9_R_18.png","img/750/randomdotsizeEA/L/9_Ratio_750_L_4_R_3.png","img/750/equaldotanddens/R/2_Ratio_750_L_6_R_8.png","img/250/randomdotsizeEA/L/15_Ratio_250_L_12_R_3.png","img/250/randomdotsizeEA/L/1_Ratio_250_L_8_R_2.png","img/500/equaldotanddens/L/11_Ratio_500_L_12_R_6.png","img/750/equaldotanddens/R/2_Ratio_750_L_6_R_8.png","img/900/equaldotanddens/R/7_Ratio_900_L_9_R_10.png","img/500/equaldotsize/L/5_Ratio_500_L_4_R_2.png","img/250/equaldotanddens/R/8_Ratio_250_L_1_R_4.png","img/900/randomdotsizeEA/L/4_Ratio_900_L_20_R_18.png","img/900/randomdotsizeEA/L/4_Ratio_900_L_20_R_18.png","img/250/equaldotsize/R/9_Ratio_250_L_3_R_12.png","img/900/randomdotsizeEA/R/3_Ratio_900_L_9_R_10.png","img/750/equaldotanddens/L/1_Ratio_750_L_20_R_15.png","img/750/equaldotanddens/R/12_Ratio_750_L_3_R_4.png","img/750/randomdotsizeEA/L/1_Ratio_750_L_20_R_15.png","img/500/equaldotanddens/R/3_Ratio_500_L_10_R_20.png","img/900/equaldotsize/L/4_Ratio_900_L_20_R_18.png","img/750/equaldotsize/L/10_Ratio_750_L_4_R_3.png","img/900/randomdotsizeEA/R/6_Ratio_900_L_9_R_10.png","img/500/randomdotsizeEA/L/11_Ratio_500_L_12_R_6.png","img/900/equaldotanddens/R/15_Ratio_900_L_9_R_10.png","img/900/equaldotsize/L/1_Ratio_900_L_10_R_9.png","img/500/equaldotanddens/R/15_Ratio_500_L_1_R_2.png","img/250/equaldotsize/L/5_Ratio_250_L_24_R_6.png","img/900/equaldotsize/R/7_Ratio_900_L_9_R_10.png","img/750/randomdotsizeEA/R/4_Ratio_750_L_15_R_20.png","img/250/equaldotanddens/L/1_Ratio_250_L_8_R_2.png","img/250/randomdotsizeEA/R/4_Ratio_250_L_3_R_12.png","img/750/equaldotsize/R/5_Ratio_750_L_15_R_20.png","img/750/randomdotsizeEA/R/11_Ratio_750_L_12_R_16.png","img/750/equaldotanddens/R/7_Ratio_750_L_3_R_4.png"],"Rat0":[["12_Ratio_0_L_9_R_0.png","13_Ratio_0_L_6_R_0.png","5_Ratio_0_L_2_R_0.png","6_Ratio_0_L_4_R_0.png","8_Ratio_0_L_6_R_0.png"],["1_Ratio_0_L_0_R_17.png","10_Ratio_0_L_0_R_22.png","11_Ratio_0_L_0_R_1.png","14_Ratio_0_L_0_R_24.png","15_Ratio_0_L_0_R_4.png","2_Ratio_0_L_0_R_5.png","3_Ratio_0_L_0_R_17.png","4_Ratio_0_L_0_R_7.png","7_Ratio_0_L_0_R_19.png","9_Ratio_0_L_0_R_15.png"]],"Rat250":[["1_Ratio_250_L_8_R_2.png","14_Ratio_250_L_12_R_3.png","15_Ratio_250_L_12_R_3.png","2_Ratio_250_L_16_R_4.png","3_Ratio_250_L_8_R_2.png","5_Ratio_250_L_24_R_6.png","7_Ratio_250_L_8_R_2.png"],["10_Ratio_250_L_4_R_16.png","11_Ratio_250_L_3_R_12.png","12_Ratio_250_L_5_R_20.png","13_Ratio_250_L_2_R_8.png","4_Ratio_250_L_3_R_12.png","6_Ratio_250_L_6_R_24.png","8_Ratio_250_L_1_R_4.png","9_Ratio_250_L_3_R_12.png"]],"Rat500":[["10_Ratio_500_L_4_R_2.png","11_Ratio_500_L_12_R_6.png","13_Ratio_500_L_12_R_6.png","4_Ratio_500_L_18_R_9.png","5_Ratio_500_L_4_R_2.png","7_Ratio_500_L_10_R_5.png","8_Ratio_500_L_8_R_4.png"],["1_Ratio_500_L_9_R_18.png","12_Ratio_500_L_1_R_2.png","14_Ratio_500_L_5_R_10.png","15_Ratio_500_L_1_R_2.png","2_Ratio_500_L_3_R_6.png","3_Ratio_500_L_10_R_20.png","6_Ratio_500_L_9_R_18.png","9_Ratio_500_L_2_R_4.png"]],"Rat750":[["1_Ratio_750_L_20_R_15.png","10_Ratio_750_L_4_R_3.png","13_Ratio_750_L_8_R_6.png","14_Ratio_750_L_8_R_6.png","6_Ratio_750_L_24_R_18.png","8_Ratio_750_L_4_R_3.png","9_Ratio_750_L_4_R_3.png"],["11_Ratio_750_L_12_R_16.png","12_Ratio_750_L_3_R_4.png","15_Ratio_750_L_9_R_12.png","2_Ratio_750_L_6_R_8.png","3_Ratio_750_L_15_R_20.png","4_Ratio_750_L_15_R_20.png","5_Ratio_750_L_15_R_20.png","7_Ratio_750_L_3_R_4.png"]],"Rat900":[["1_Ratio_900_L_10_R_9.png","10_Ratio_900_L_20_R_18.png","2_Ratio_900_L_20_R_18.png","4_Ratio_900_L_20_R_18.png","8_Ratio_900_L_20_R_18.png"],["11_Ratio_900_L_18_R_20.png","12_Ratio_900_L_18_R_20.png","13_Ratio_900_L_18_R_20.png","14_Ratio_900_L_18_R_20.png","15_Ratio_900_L_9_R_10.png","3_Ratio_900_L_9_R_10.png","5_Ratio_900_L_9_R_10.png","6_Ratio_900_L_9_R_10.png","7_Ratio_900_L_9_R_10.png","9_Ratio_900_L_18_R_20.png"]],"Rat1000":[["10_Ratio_1000_L_16_R_16.png","11_Ratio_1000_L_6_R_6.png","12_Ratio_1000_L_14_R_14.png","13_Ratio_1000_L_20_R_20.png","15_Ratio_1000_L_15_R_15.png","2_Ratio_1000_L_17_R_17.png","4_Ratio_1000_L_9_R_9.png","5_Ratio_1000_L_6_R_6.png","6_Ratio_1000_L_19_R_19.png","8_Ratio_1000_L_14_R_14.png","9_Ratio_1000_L_25_R_25.png"],["1_Ratio_1000_L_1_R_1.png","14_Ratio_1000_L_17_R_17.png","3_Ratio_1000_L_17_R_17.png","7_Ratio_1000_L_6_R_6.png"]]}},{"start_time":1552073746774,"click_time":1552073748251,"finger_time":1552073747732,"fix_duration":940.4419401009825,"trial":1,"RT":958,"MT":519,"sideResp":1,"stimulus":"img/900/randomdotsizeEA/L/1_Ratio_900_L_10_R_9.png","xmouse":[796,796,796,796,796,796,796,795,795,794,794,793,793,793,793,793,793,793,793,793,793,793,793,793,793,793,793,793,793,793,793,793,793,792,792,791,791,791,791,791,791,791,790,789,787,786,778,771,757,751,748,744,739,724,714,704,693,675,641,625,604,594,588,577,571,567,562,559,557,548,543,539,531,515],"ymouse":[508,508,508,508,508,508,508,508,508,508,508,508,508,508,508,508,508,508,508,508,508,508,508,508,508,508,508,508,508,508,508,508,508,508,508,508,508,508,508,508,508,508,508,505,501,490,473,456,422,400,387,373,357,315,293,270,248,219,150,122,104,101,100,101,102,103,104,104,104,101,95,90,83,69],"timestamp_mouse":[16,38,57,78,98,117,138,157,176,197,217,237,258,278,298,317,337,356,378,398,417,438,457,477,498,517,537,558,578,597,618,638,657,677,697,717,736,756,777,797,817,837,857,877,897,917,936,958,978,998,1016,1036,1056,1077,1097,1116,1137,1157,1177,1197,1217,1237,1258,1278,1297,1317,1336,1356,1377,1397,1416,1438,1457,1477],"xSR":741.5,"ySR":469.95,"xT1":424.9,"yT1":0,"xT2":1058.1,"yT2":0,"toosoon":0,"cond_shown":"randomdotsizeEA","ratio_trial":900,"smaller_num":"9","larger_num":"10","correct_side":1,"subjID":"mariapuentesobando9","gender":"1","age":"9","school":"4"},{"start_time":1552073753248,"click_time":1552073754171,"finger_time":1552073753891,"fix_duration":616.9095854186005,"trial":2,"RT":643,"MT":280,"sideResp":1,"stimulus":"img/500/equaldotsize/L/10_Ratio_500_L_4_R_2.png","xmouse":[790,790,790,790,790,790,790,790,790,790,790,790,790,790,790,790,790,790,790,790,790,790,790,790,790,790,790,790,790,790,788,775,759,732,702,646,579,553,537,529,523,519,516,515,515,513,512],"ymouse":[501,501,501,501,501,501,501,501,501,501,501,501,501,501,501,501,501,501,501,501,501,501,501,501,501,501,501,501,501,501,495,480,462,440,414,371,314,278,252,228,205,162,144,124,117,101,84],"timestamp_mouse":[10,22,48,62,84,104,124,142,164,184,204,222,244,263,283,303,323,343,363,384,404,424,443,463,483,503,523,544,564,584,604,623,643,662,683,703,723,743,762,783,803,823,843,863,883,903,923],"xSR":741.5,"ySR":469.95,"xT1":424.9,"yT1":0,"xT2":1058.1,"yT2":0,"toosoon":0,"cond_shown":"equaldotsize","ratio_trial":500,"smaller_num":"2","larger_num":"4","correct_side":1,"subjID":"mariapuentesobando9","gender":"1","age":"9","school":"4"},{"start_time":1552073758189,"click_time":1552073759011,"finger_time":1552073758771,"fix_duration":1475.0428328246794,"trial":3,"RT":582,"MT":240,"sideResp":2,"stimulus":"img/900/equaldotanddens/R/9_Ratio_900_L_18_R_20.png","xmouse":[773,773,773,773,773,773,773,773,773,773,773,773,773,773,773,773,772,771,769,769,768,768,768,768,768,768,768,770,781,824,848,875,900,922,960,989,1005,1020,1034,1057,1064,1070],"ymouse":[517,517,517,517,517,517,517,517,517,517,517,517,517,517,517,517,517,512,506,497,493,493,493,493,493,493,492,486,472,417,377,327,282,247,201,179,166,154,142,121,109,97],"timestamp_mouse":[12,35,43,63,82,101,123,143,161,182,202,223,242,262,282,302,322,343,362,382,402,422,442,462,481,503,521,542,562,582,601,622,641,662,683,703,722,743,763,782,802,822],"xSR":741.5,"ySR":469.95,"xT1":424.9,"yT1":0,"xT2":1058.1,"yT2":0,"toosoon":0,"cond_shown":"equaldotanddens","ratio_trial":900,"smaller_num":"18","larger_num":"20","correct_side":2,"subjID":"mariapuentesobando9","gender":"1","age":"9","school":"4"},{"start_time":1552073760786,"click_time":1552073761931,"finger_time":1552073761532,"fix_duration":753.5030644494225,"trial":4,"RT":746,"MT":399,"sideResp":2,"stimulus":"img/900/equaldotsize/L/4_Ratio_900_L_20_R_18.png","xmouse":[812,812,812,812,812,812,812,812,812,812,812,812,812,812,812,812,812,812,812,812,812,812,812,812,812,812,812,812,812,812,812,812,812,816,818,833,839,847,857,881,896,914,936,956,989,997,1000,1003,1009,1018,1037,1042,1046,1049,1056,1068,1073,1077],"ymouse":[510,510,510,510,510,510,510,510,510,510,510,510,510,510,510,510,510,510,510,510,510,510,510,510,510,510,510,510,510,510,510,510,510,506,504,489,479,468,454,416,388,358,328,300,260,251,249,246,240,230,196,181,167,154,134,109,100,94],"timestamp_mouse":[11,42,45,64,86,105,126,145,166,185,205,224,246,266,286,305,326,346,365,386,405,425,446,464,485,505,526,545,564,585,605,624,645,665,685,704,725,746,764,786,805,826,845,865,886,904,925,944,964,986,1004,1026,1045,1065,1085,1105,1125,1145],"xSR":741.5,"ySR":469.95,"xT1":424.9,"yT1":0,"xT2":1058.1,"yT2":0,"toosoon":0,"cond_shown":"equaldotsize","ratio_trial":900,"smaller_num":"18","larger_num":"20","correct_side":1,"subjID":"mariapuentesobando9","gender":"1","age":"9","school":"4"},{"start_time":1552073765925,"click_time":1552073766711,"finger_time":1552073766511,"fix_duration":1292.2156562202008,"trial":5,"RT":586,"MT":200,"sideResp":2,"stimulus":"img/500/equaldotsize/R/1_Ratio_500_L_9_R_18.png","xmouse":[769,769,769,769,769,769,769,769,769,769,769,769,769,769,769,769,769,769,769,769,769,769,769,769,769,769,769,770,788,807,831,866,911,1002,1050,1075,1093,1107,1127,1137],"ymouse":[505,505,505,505,505,505,505,505,505,505,505,505,505,505,505,505,505,505,505,505,505,505,505,505,505,505,505,502,485,468,449,418,379,292,230,196,171,152,117,97],"timestamp_mouse":[13,37,47,67,86,106,126,146,167,186,205,227,247,266,286,306,326,346,365,386,406,427,447,466,486,507,527,545,566,586,607,625,647,666,686,706,726,746,766,786],"xSR":741.5,"ySR":469.95,"xT1":424.9,"yT1":0,"xT2":1058.1,"yT2":0,"toosoon":0,"cond_shown":"equaldotsize","ratio_trial":500,"smaller_num":"9","larger_num":"18","correct_side":2,"subjID":"mariapuentesobando9","gender":"1","age":"9","school":"4"},{"start_time":1552073768003,"click_time":1552073769211,"finger_time":1552073768910,"fix_duration":250,"trial":6,"RT":907,"MT":301,"sideResp":1,"stimulus":"img/750/randomdotsizeEA/L/9_Ratio_750_L_4_R_3.png","xmouse":[791,791,791,791,791,791,791,791,791,791,791,791,791,791,791,791,791,791,791,791,791,791,791,791,791,791,791,791,791,791,791,791,791,790,790,790,790,790,790,790,790,790,790,787,772,757,732,700,665,634,588,579,572,566,558,552,545,536,530,525,515],"ymouse":[516,516,516,516,516,516,516,516,516,516,516,516,516,516,516,516,516,516,516,516,516,516,516,516,516,516,516,516,516,516,513,511,509,508,508,508,508,508,508,508,508,508,508,503,483,460,424,380,328,284,211,198,184,176,159,147,134,120,110,100,85],"timestamp_mouse":[14,35,48,68,87,109,128,149,169,188,208,228,247,267,287,308,329,349,369,388,409,428,449,469,488,508,529,549,569,588,609,627,647,668,688,708,729,748,769,788,809,827,848,867,888,907,928,948,969,988,1008,1028,1049,1068,1088,1107,1127,1147,1168,1188,1208],"xSR":741.5,"ySR":469.95,"xT1":424.9,"yT1":0,"xT2":1058.1,"yT2":0,"toosoon":0,"cond_shown":"randomdotsizeEA","ratio_trial":750,"smaller_num":"3","larger_num":"4","correct_side":1,"subjID":"mariapuentesobando9","gender":"1","age":"9","school":"4"},{"start_time":1552073770303,"click_time":1552073771411,"finger_time":1552073770910,"fix_duration":250,"trial":7,"RT":607,"MT":501,"sideResp":2,"stimulus":"img/900/randomdotsizeEA/R/15_Ratio_900_L_9_R_10.png","xmouse":[769,769,769,769,769,769,769,769,769,769,769,769,769,769,769,769,769,769,769,769,769,769,769,769,769,769,771,774,786,802,845,869,892,909,935,942,947,951,957,969,977,984,997,1002,1014,1025,1027,1029,1030,1033,1035,1038,1042,1047,1059,1091],"ymouse":[516,516,516,516,516,516,516,516,516,516,516,516,516,516,516,516,516,516,516,516,516,516,516,516,516,516,516,513,503,491,458,442,426,412,379,368,357,347,335,309,292,273,240,227,202,176,170,164,162,155,152,146,138,132,119,95],"timestamp_mouse":[20,42,48,68,89,107,128,148,169,189,207,228,249,268,287,309,328,348,369,389,409,429,448,467,488,508,528,548,568,587,607,628,648,669,689,708,728,748,769,790,807,828,847,868,888,907,928,949,968,990,1008,1028,1047,1068,1090,1108],"xSR":741.5,"ySR":469.95,"xT1":424.9,"yT1":0,"xT2":1058.1,"yT2":0,"toosoon":0,"cond_shown":"randomdotsizeEA","ratio_trial":900,"smaller_num":"9","larger_num":"10","correct_side":2,"subjID":"mariapuentesobando9","gender":"1","age":"9","school":"4"},{"start_time":1552073773192,"click_time":1552073774471,"finger_time":1552073773811,"fix_duration":879.6148083249736,"trial":8,"RT":619,"MT":660,"sideResp":2,"stimulus":"img/500/randomdotsizeEA/R/12_Ratio_500_L_1_R_2.png","xmouse":[794,794,794,794,794,794,794,794,794,794,794,794,794,794,794,794,794,794,794,793,793,792,792,792,792,792,792,795,801,808,813,824,828,832,836,839,850,854,865,873,884,909,923,939,952,968,991,1002,1016,1023,1026,1032,1035,1037,1040,1044,1051,1056,1067,1072,1079,1094,1102,1109,1115],"ymouse":[528,528,528,528,528,528,528,528,528,528,528,528,528,528,528,528,528,521,517,509,505,503,503,503,503,502,499,494,487,479,473,464,460,455,452,448,435,433,421,411,399,371,356,340,325,305,268,248,219,204,192,169,159,149,141,135,125,121,116,114,112,109,106,103,98],"timestamp_mouse":[2,19,38,60,79,100,120,138,159,179,198,220,240,258,279,300,319,340,359,378,399,419,440,460,480,499,518,540,559,579,599,619,638,659,679,700,720,738,759,779,799,819,839,859,878,900,919,939,959,978,998,1019,1039,1059,1080,1100,1119,1139,1159,1179,1200,1219,1238,1260,1279],"xSR":741.5,"ySR":469.95,"xT1":424.9,"yT1":0,"xT2":1058.1,"yT2":0,"toosoon":0,"cond_shown":"randomdotsizeEA","ratio_trial":500,"smaller_num":"1","larger_num":"2","correct_side":2,"subjID":"mariapuentesobando9","gender":"1","age":"9","school":"4"},{"start_time":1552073775823,"click_time":1552073776772,"finger_time":1552073776411,"fix_duration":250,"trial":9,"RT":588,"MT":361,"sideResp":2,"stimulus":"img/250/equaldotsize/R/10_Ratio_250_L_4_R_16.png","xmouse":[817,817,817,817,817,817,817,817,817,817,817,817,817,817,817,817,817,817,817,817,817,817,817,817,817,817,817,817,821,848,875,900,926,942,968,973,976,979,980,980,984,987,991,996,1014,1037,1054,1071],"ymouse":[520,520,520,520,520,520,520,520,520,520,520,520,520,520,520,520,520,520,520,520,520,520,520,520,520,520,520,520,502,439,389,342,292,265,218,206,196,188,184,179,174,170,165,159,139,119,107,95],"timestamp_mouse":[12,35,48,69,89,107,127,149,169,188,208,228,248,268,288,308,328,347,367,388,408,429,447,468,488,508,528,548,567,588,608,628,648,668,689,709,728,749,768,789,808,828,848,868,888,909,928,949],"xSR":741.5,"ySR":469.95,"xT1":424.9,"yT1":0,"xT2":1058.1,"yT2":0,"toosoon":0,"cond_shown":"equaldotsize","ratio_trial":250,"smaller_num":"4","larger_num":"16","correct_side":2,"subjID":"mariapuentesobando9","gender":"1","age":"9","school":"4"},{"start_time":1552073784814,"click_time":1552073785791,"finger_time":1552073785432,"fix_duration":1199.3311994917722,"trial":10,"RT":618,"MT":359,"sideResp":2,"stimulus":"img/900/equaldotanddens/R/13_Ratio_900_L_18_R_20.png","xmouse":[760,760,760,760,760,760,760,760,760,760,760,760,760,760,760,760,760,760,760,760,760,760,760,761,761,763,765,768,771,774,797,810,822,834,854,862,869,878,889,904,922,968,982,996,1009,1037,1053,1065,1072],"ymouse":[510,510,510,510,510,510,510,510,510,510,509,509,509,509,509,509,509,509,509,509,509,508,507,506,505,502,498,494,490,485,455,434,411,390,359,348,338,327,314,295,268,201,181,164,150,127,116,105,96],"timestamp_mouse":[17,41,59,79,98,117,138,158,179,199,217,238,259,279,298,318,338,358,377,399,417,438,457,479,497,517,537,558,578,598,618,639,658,677,705,718,737,757,778,798,818,837,858,877,899,918,937,958,977],"xSR":741.5,"ySR":469.95,"xT1":424.9,"yT1":0,"xT2":1058.1,"yT2":0,"toosoon":0,"cond_shown":"equaldotanddens","ratio_trial":900,"smaller_num":"18","larger_num":"20","correct_side":2,"subjID":"mariapuentesobando9","gender":"1","age":"9","school":"4"},{"start_time":1552073787972,"click_time":1552073788733,"finger_time":1552073788533,"fix_duration":620.6113025050045,"trial":11,"RT":561,"MT":200,"sideResp":2,"stimulus":"img/750/equaldotsize/R/15_Ratio_750_L_9_R_12.png","xmouse":[769,769,769,769,769,770,770,770,770,770,770,770,771,771,771,772,773,774,779,783,786,787,788,790,790,793,799,823,847,877,910,945,986,1024,1037,1046,1054,1061],"ymouse":[542,542,542,542,542,542,542,542,542,542,542,542,542,542,542,542,542,540,534,529,521,514,512,498,493,485,470,428,386,330,272,213,141,88,73,61,50,41],"timestamp_mouse":[20,43,61,80,99,121,140,161,181,200,219,240,260,280,301,320,339,359,380,400,420,440,460,480,499,520,539,561,579,600,620,640,660,680,700,720,740,760],"xSR":741.5,"ySR":469.95,"xT1":424.9,"yT1":0,"xT2":1058.1,"yT2":0,"toosoon":0,"cond_shown":"equaldotsize","ratio_trial":750,"smaller_num":"9","larger_num":"12","correct_side":2,"subjID":"mariapuentesobando9","gender":"1","age":"9","school":"4"},{"start_time":1552073790004,"click_time":1552073792132,"finger_time":1552073791791,"fix_duration":250,"trial":12,"RT":1787,"MT":341,"sideResp":1,"stimulus":"img/900/equaldotanddens/L/10_Ratio_900_L_20_R_18.png","xmouse":[793,793,793,793,793,793,793,793,793,793,793,793,793,793,793,793,793,793,793,793,793,793,793,793,793,793,793,793,793,793,793,793,793,793,793,793,793,793,793,793,793,793,793,793,793,793,793,793,793,793,793,793,793,793,793,793,793,793,793,793,793,793,793,793,793,793,793,793,794,797,800,800,800,800,800,800,800,800,800,800,800,800,800,800,799,798,795,785,771,759,747,734,702,681,664,651,637,616,609,600,593,586,571,559,544,526,507],"ymouse":[501,501,501,501,501,501,501,501,501,501,501,501,501,501,501,501,501,501,501,501,501,501,501,501,501,501,501,501,501,501,501,501,501,501,501,501,501,501,501,501,501,501,501,501,501,501,501,501,501,501,501,501,501,501,501,501,501,501,501,501,501,501,501,501,501,501,501,501,505,513,522,527,533,533,533,533,533,533,533,533,533,533,534,534,534,534,532,518,491,468,442,410,332,281,234,187,150,106,95,85,82,79,75,74,71,68,63],"timestamp_mouse":[14,28,48,69,87,107,127,149,168,187,208,228,249,268,287,307,327,347,368,388,409,427,449,469,488,509,529,547,567,588,607,628,649,667,689,709,728,748,768,789,808,828,849,867,889,909,928,947,968,988,1008,1029,1049,1069,1089,1107,1128,1149,1168,1189,1209,1228,1247,1269,1288,1307,1329,1347,1369,1387,1408,1428,1448,1468,1487,1508,1529,1549,1569,1587,1607,1627,1647,1667,1688,1708,1728,1747,1768,1787,1809,1828,1848,1867,1888,1908,1928,1948,1969,1988,2009,2028,2048,2067,2087,2107,2127],"xSR":741.5,"ySR":469.95,"xT1":424.9,"yT1":0,"xT2":1058.1,"yT2":0,"toosoon":0,"cond_shown":"equaldotanddens","ratio_trial":900,"smaller_num":"18","larger_num":"20","correct_side":1,"subjID":"mariapuentesobando9","gender":"1","age":"9","school":"4"},{"start_time":1552073794076,"click_time":1552073795031,"finger_time":1552073794573,"fix_duration":1123.4203250403314,"trial":13,"RT":497,"MT":458,"sideResp":1,"stimulus":"img/250/randomdotsizeEA/L/1_Ratio_250_L_8_R_2.png","xmouse":[771,771,771,771,771,771,771,771,771,771,771,771,771,771,771,771,771,771,772,773,775,775,775,775,770,762,757,750,743,726,716,704,691,683,670,667,664,660,655,638,630,618,601,593,565,550,535,522],"ymouse":[506,506,506,506,506,506,506,506,506,506,506,506,506,506,506,506,506,506,506,506,503,500,495,477,436,418,403,383,365,325,304,282,258,237,205,197,190,186,181,171,166,158,146,141,111,100,93,87],"timestamp_mouse":[31,36,57,76,95,115,135,157,176,195,216,237,256,276,297,316,336,356,376,395,417,436,457,476,497,516,537,556,576,595,615,636,656,675,697,716,737,756,776,796,817,837,856,876,895,915,936,955],"xSR":741.5,"ySR":469.95,"xT1":424.9,"yT1":0,"xT2":1058.1,"yT2":0,"toosoon":0,"cond_shown":"randomdotsizeEA","ratio_trial":250,"smaller_num":"2","larger_num":"8","correct_side":1,"subjID":"mariapuentesobando9","gender":"1","age":"9","school":"4"},{"start_time":1552073796264,"click_time":1552073797471,"finger_time":1552073796991,"fix_duration":250,"trial":14,"RT":727,"MT":480,"sideResp":2,"stimulus":"img/500/equaldotsize/R/12_Ratio_500_L_1_R_2.png","xmouse":[807,807,807,807,807,806,806,806,805,805,805,805,805,805,805,805,805,805,805,805,805,805,805,805,805,805,805,805,808,811,819,821,823,824,825,836,844,852,864,889,901,910,917,926,944,960,965,972,981,990,1007,1016,1024,1030,1037,1045,1050,1053,1055,1057,1062],"ymouse":[530,530,530,530,530,527,526,525,524,524,524,524,524,524,524,524,524,524,524,524,524,524,524,524,524,524,523,519,515,509,501,497,495,494,493,482,471,458,438,392,366,344,326,304,264,196,157,128,104,82,48,35,25,18,14,11,11,11,13,14,19],"timestamp_mouse":[13,39,49,69,89,109,127,147,168,187,207,227,248,268,288,308,329,348,368,387,408,429,447,469,489,509,527,548,568,588,607,627,647,668,688,709,727,748,768,790,808,828,848,867,887,907,927,948,968,988,1007,1028,1048,1067,1088,1108,1128,1148,1167,1187,1207],"xSR":741.5,"ySR":469.95,"xT1":424.9,"yT1":0,"xT2":1058.1,"yT2":0,"toosoon":0,"cond_shown":"equaldotsize","ratio_trial":500,"smaller_num":"1","larger_num":"2","correct_side":2,"subjID":"mariapuentesobando9","gender":"1","age":"9","school":"4"},{"start_time":1552073799670,"click_time":1552073800493,"finger_time":1552073800212,"fix_duration":1396.9220411430395,"trial":15,"RT":542,"MT":281,"sideResp":2,"stimulus":"img/250/equaldotsize/R/10_Ratio_250_L_4_R_16.png","xmouse":[810,810,810,810,810,810,810,810,810,810,810,810,810,810,810,810,810,810,810,810,810,810,810,810,810,810,819,842,859,882,922,944,967,979,989,1008,1017,1025,1035,1043,1057,1066],"ymouse":[524,524,524,524,524,524,524,524,524,524,524,524,524,524,524,524,524,524,524,524,524,524,524,524,524,522,507,480,453,416,343,303,248,218,196,155,134,114,92,73,33,8],"timestamp_mouse":[20,43,54,63,84,103,122,142,163,182,203,222,241,261,282,301,322,341,362,381,403,421,441,463,482,503,521,542,562,581,602,623,642,661,681,702,721,742,762,782,802,823],"xSR":741.5,"ySR":469.95,"xT1":424.9,"yT1":0,"xT2":1058.1,"yT2":0,"toosoon":0,"cond_shown":"equaldotsize","ratio_trial":250,"smaller_num":"4","larger_num":"16","correct_side":2,"subjID":"mariapuentesobando9","gender":"1","age":"9","school":"4"},{"start_time":1552073802323,"click_time":1552073803273,"finger_time":1552073802972,"fix_duration":950.6593192637299,"trial":16,"RT":649,"MT":301,"sideResp":2,"stimulus":"img/500/randomdotsizeEA/R/2_Ratio_500_L_3_R_6.png","xmouse":[804,804,804,804,804,804,804,804,804,804,804,804,804,804,804,804,804,804,804,804,804,804,804,804,804,804,804,804,804,804,816,828,842,845,850,854,858,876,896,913,934,956,978,1019,1034,1046,1058,1071],"ymouse":[529,529,529,529,529,529,529,529,529,529,529,529,529,529,529,529,529,529,529,529,529,529,529,529,529,529,529,529,529,524,503,483,462,457,450,442,434,403,366,334,290,242,198,124,98,78,62,43],"timestamp_mouse":[9,36,49,69,89,110,128,148,169,189,210,228,248,270,289,309,330,349,369,390,410,429,449,468,489,510,528,549,569,588,610,629,649,668,688,709,730,749,768,789,810,829,849,869,888,909,928,949],"xSR":741.5,"ySR":469.95,"xT1":424.9,"yT1":0,"xT2":1058.1,"yT2":0,"toosoon":0,"cond_shown":"randomdotsizeEA","ratio_trial":500,"smaller_num":"3","larger_num":"6","correct_side":2,"subjID":"mariapuentesobando9","gender":"1","age":"9","school":"4"},{"start_time":1552073808516,"click_time":1552073809192,"finger_time":1552073809052,"fix_duration":1301.0507413282637,"trial":17,"RT":536,"MT":140,"sideResp":2,"stimulus":"img/250/equaldotsize/R/11_Ratio_250_L_3_R_12.png","xmouse":[781,781,781,781,781,781,781,781,781,781,781,781,781,781,781,781,781,781,781,781,781,781,781,781,782,787,804,834,937,980,1010,1038,1055,1075],"ymouse":[481,481,481,481,481,481,481,481,481,481,481,481,481,481,481,481,481,481,481,481,481,481,481,481,481,478,456,423,312,256,217,176,135,82],"timestamp_mouse":[17,38,56,76,97,116,136,155,176,197,215,237,257,277,296,317,335,357,375,397,415,436,457,476,496,515,536,556,575,595,615,636,656,675],"xSR":741.5,"ySR":469.95,"xT1":424.9,"yT1":0,"xT2":1058.1,"yT2":0,"toosoon":0,"cond_shown":"equaldotsize","ratio_trial":250,"smaller_num":"3","larger_num":"12","correct_side":2,"subjID":"mariapuentesobando9","gender":"1","age":"9","school":"4"},{"start_time":1552073810243,"click_time":1552073811552,"finger_time":1552073811112,"fix_duration":250,"trial":18,"RT":869,"MT":440,"sideResp":1,"stimulus":"img/250/randomdotsizeEA/L/2_Ratio_250_L_16_R_4.png","xmouse":[812,812,812,812,812,812,812,812,812,812,812,812,812,812,812,812,812,812,812,812,812,812,812,812,812,812,812,812,812,812,812,812,812,812,812,812,812,812,812,812,812,812,806,796,778,760,739,672,654,641,630,625,613,605,596,586,573,561,559,555,550,540,516,509,502,496],"ymouse":[516,516,516,516,516,516,516,516,516,516,516,516,516,516,516,516,516,516,516,516,516,516,516,516,516,516,516,516,514,512,510,510,510,510,510,510,510,510,510,510,510,507,484,460,429,398,367,286,266,248,235,222,193,180,166,152,138,129,128,126,124,119,109,106,101,99],"timestamp_mouse":[9,36,50,69,90,110,130,148,170,189,210,229,248,268,288,310,328,348,368,389,409,429,449,469,488,510,530,550,569,588,610,629,648,670,688,709,729,749,770,788,810,828,849,869,890,910,929,950,969,988,1009,1028,1049,1069,1089,1110,1130,1150,1168,1189,1209,1229,1250,1268,1289,1309],"xSR":741.5,"ySR":469.95,"xT1":424.9,"yT1":0,"xT2":1058.1,"yT2":0,"toosoon":0,"cond_shown":"randomdotsizeEA","ratio_trial":250,"smaller_num":"4","larger_num":"16","correct_side":1,"subjID":"mariapuentesobando9","gender":"1","age":"9","school":"4"},{"start_time":1552073813322,"click_time":1552073814111,"finger_time":1552073813812,"fix_duration":1147.1670286847275,"trial":19,"RT":490,"MT":299,"sideResp":2,"stimulus":"img/250/equaldotanddens/L/7_Ratio_250_L_8_R_2.png","xmouse":[798,798,797,796,796,796,796,796,796,796,796,796,796,796,796,796,796,796,796,796,796,796,796,801,811,817,824,834,864,884,902,920,946,964,998,1016,1030,1041,1057,1062],"ymouse":[538,533,533,531,531,531,531,531,531,531,531,531,531,531,531,531,531,531,531,527,522,513,492,477,437,417,397,373,308,264,228,196,155,132,104,91,80,72,58,53],"timestamp_mouse":[14,30,50,71,90,111,130,150,169,191,210,230,251,270,290,310,330,350,371,390,410,430,449,470,490,510,531,550,572,589,610,629,650,669,690,710,730,750,771,789],"xSR":741.5,"ySR":469.95,"xT1":424.9,"yT1":0,"xT2":1058.1,"yT2":0,"toosoon":0,"cond_shown":"equaldotanddens","ratio_trial":250,"smaller_num":"2","larger_num":"8","correct_side":1,"subjID":"mariapuentesobando9","gender":"1","age":"9","school":"4"},{"start_time":1552073818152,"click_time":1552073818832,"finger_time":1552073818592,"fix_duration":1459.8558552780496,"trial":20,"RT":440,"MT":240,"sideResp":1,"stimulus":"img/250/equaldotanddens/L/1_Ratio_250_L_8_R_2.png","xmouse":[785,785,785,785,785,785,785,785,785,785,785,785,785,785,785,785,785,785,785,783,783,780,780,771,762,749,727,708,662,632,613,593,572,533,519],"ymouse":[480,480,480,480,480,480,480,480,480,480,480,480,480,480,480,480,480,480,481,481,480,472,452,393,358,317,268,225,152,115,95,79,66,48,44],"timestamp_mouse":[1,20,42,59,81,100,120,141,159,180,201,220,240,259,281,300,320,341,360,380,399,420,440,460,479,501,520,540,560,581,600,620,640,660,680],"xSR":741.5,"ySR":469.95,"xT1":424.9,"yT1":0,"xT2":1058.1,"yT2":0,"toosoon":0,"cond_shown":"equaldotanddens","ratio_trial":250,"smaller_num":"2","larger_num":"8","correct_side":1,"subjID":"mariapuentesobando9","gender":"1","age":"9","school":"4"},{"start_time":1552073820642,"click_time":1552073821332,"finger_time":1552073821132,"fix_duration":1049.8425107130088,"trial":21,"RT":490,"MT":200,"sideResp":2,"stimulus":"img/900/equaldotsize/L/10_Ratio_900_L_20_R_18.png","xmouse":[780,780,780,780,780,780,780,780,780,780,780,780,780,780,780,780,780,780,780,779,779,782,786,793,820,836,849,865,914,945,977,1005,1029,1071,1084],"ymouse":[509,509,509,509,509,509,509,509,509,509,509,509,509,509,509,509,509,509,509,509,505,499,492,484,447,430,411,391,324,280,236,197,164,102,85],"timestamp_mouse":[13,30,51,69,91,110,130,150,169,191,211,231,249,270,290,311,330,350,370,389,410,430,449,469,490,509,529,550,571,589,610,630,650,671,690],"xSR":741.5,"ySR":469.95,"xT1":424.9,"yT1":0,"xT2":1058.1,"yT2":0,"toosoon":0,"cond_shown":"equaldotsize","ratio_trial":900,"smaller_num":"18","larger_num":"20","correct_side":1,"subjID":"mariapuentesobando9","gender":"1","age":"9","school":"4"},{"start_time":1552073823587,"click_time":1552073824472,"finger_time":1552073824011,"fix_duration":1293.1864122464299,"trial":22,"RT":424,"MT":461,"sideResp":2,"stimulus":"img/500/equaldotsize/R/1_Ratio_500_L_9_R_18.png","xmouse":[771,771,771,771,771,771,771,771,771,771,771,771,771,771,771,771,771,771,770,767,765,765,766,771,780,788,808,841,866,895,929,972,983,993,993,993,993,993,993,993,993,993,1044,1053,1067],"ymouse":[519,519,519,519,519,519,519,519,519,519,519,519,519,519,519,519,519,519,512,492,470,449,409,391,372,351,321,276,244,203,154,54,18,2,2,2,2,2,2,2,2,2,0,5,15],"timestamp_mouse":[12,40,45,66,85,106,125,145,166,184,206,226,244,265,286,305,325,345,364,385,405,424,445,466,485,506,525,545,565,586,605,628,645,664,685,706,725,745,766,785,806,825,845,865,885],"xSR":741.5,"ySR":469.95,"xT1":424.9,"yT1":0,"xT2":1058.1,"yT2":0,"toosoon":0,"cond_shown":"equaldotsize","ratio_trial":500,"smaller_num":"9","larger_num":"18","correct_side":2,"subjID":"mariapuentesobando9","gender":"1","age":"9","school":"4"},{"start_time":1552073825813,"click_time":1552073826632,"finger_time":1552073826373,"fix_duration":520.9776550371042,"trial":23,"RT":560,"MT":259,"sideResp":1,"stimulus":"img/500/equaldotsize/L/7_Ratio_500_L_10_R_5.png","xmouse":[777,777,777,777,777,777,777,777,777,777,777,778,778,778,778,778,778,778,778,778,778,778,778,778,778,778,778,775,768,758,732,712,697,681,662,623,599,575,549,532,515],"ymouse":[506,506,506,506,506,506,506,506,506,506,506,506,506,506,506,506,506,504,503,500,498,498,498,497,495,485,477,463,446,427,386,343,308,268,228,145,105,69,40,19,3],"timestamp_mouse":[20,46,60,80,99,120,140,159,179,200,219,239,259,278,300,319,340,359,379,398,419,439,460,479,499,519,538,560,579,599,619,640,659,678,698,718,738,759,779,799,819],"xSR":741.5,"ySR":469.95,"xT1":424.9,"yT1":0,"xT2":1058.1,"yT2":0,"toosoon":0,"cond_shown":"equaldotsize","ratio_trial":500,"smaller_num":"5","larger_num":"10","correct_side":1,"subjID":"mariapuentesobando9","gender":"1","age":"9","school":"4"},{"start_time":1552073828026,"click_time":1552073828933,"finger_time":1552073828531,"fix_duration":593.4802077796709,"trial":24,"RT":505,"MT":402,"sideResp":2,"stimulus":"img/250/equaldotanddens/R/12_Ratio_250_L_5_R_20.png","xmouse":[784,784,784,784,784,783,783,782,782,782,782,782,782,782,782,782,782,782,782,782,782,782,782,782,793,832,859,889,912,932,958,972,980,989,998,1007,1007,1008,1008,1010,1021,1027,1035,1046,1054,1068],"ymouse":[519,519,519,521,521,522,522,524,524,524,524,524,524,524,524,524,524,524,524,524,524,524,524,524,498,425,365,322,292,272,251,235,220,201,181,149,143,138,135,132,116,109,103,96,91,85],"timestamp_mouse":[10,42,47,67,85,105,127,147,166,186,205,227,246,267,285,305,326,346,367,386,406,426,446,465,485,505,525,546,566,585,606,625,645,666,686,707,725,746,766,787,807,826,846,866,886,907],"xSR":741.5,"ySR":469.95,"xT1":424.9,"yT1":0,"xT2":1058.1,"yT2":0,"toosoon":0,"cond_shown":"equaldotanddens","ratio_trial":250,"smaller_num":"5","larger_num":"20","correct_side":2,"subjID":"mariapuentesobando9","gender":"1","age":"9","school":"4"},{"start_time":1552073830091,"click_time":1552073831033,"finger_time":1552073830652,"fix_duration":557.6433035626809,"trial":25,"RT":561,"MT":381,"sideResp":2,"stimulus":"img/250/equaldotanddens/R/12_Ratio_250_L_5_R_20.png","xmouse":[770,770,769,768,767,767,767,767,767,766,764,764,764,764,764,764,764,764,763,763,763,763,763,763,772,779,809,833,885,917,943,967,985,1011,1022,1032,1039,1055,1065,1068,1070,1070,1071,1074,1080,1087,1105,1136],"ymouse":[523,522,520,516,512,511,510,510,510,510,510,510,510,510,510,510,510,510,512,514,515,516,516,516,513,508,488,471,435,408,380,351,327,289,270,252,235,206,175,168,164,161,155,148,136,126,109,87],"timestamp_mouse":[3,22,42,60,81,101,120,142,160,180,202,222,241,262,282,301,322,340,361,380,401,421,441,462,482,502,520,541,561,581,600,621,641,660,681,701,720,740,760,782,801,821,842,861,881,900,921,942],"xSR":741.5,"ySR":469.95,"xT1":424.9,"yT1":0,"xT2":1058.1,"yT2":0,"toosoon":0,"cond_shown":"equaldotanddens","ratio_trial":250,"smaller_num":"5","larger_num":"20","correct_side":2,"subjID":"mariapuentesobando9","gender":"1","age":"9","school":"4"},{"start_time":1552073832436,"click_time":1552073833551,"finger_time":1552073832973,"fix_duration":662.546270137611,"trial":26,"RT":537,"MT":578,"sideResp":1,"stimulus":"img/900/equaldotsize/L/10_Ratio_900_L_20_R_18.png","xmouse":[804,804,804,804,804,804,804,804,804,804,804,804,804,804,804,804,804,804,804,804,804,804,804,804,805,819,845,854,878,886,888,887,884,882,880,875,856,846,810,778,702,665,629,595,576,547,542,541,541,541,541,538,534,530,526,516],"ymouse":[519,519,519,519,519,519,519,519,519,519,519,519,519,519,519,519,519,519,519,519,519,519,519,519,518,497,450,437,402,385,354,340,330,325,323,322,321,319,309,296,253,225,197,174,164,150,146,145,145,145,143,134,120,106,92,68],"timestamp_mouse":[21,41,55,75,95,117,137,157,176,197,216,235,257,276,295,316,336,355,377,396,416,435,455,477,496,515,537,556,576,595,615,636,656,676,696,715,736,757,775,796,816,836,855,875,895,916,937,957,976,995,1016,1035,1057,1076,1096,1115],"xSR":741.5,"ySR":469.95,"xT1":424.9,"yT1":0,"xT2":1058.1,"yT2":0,"toosoon":0,"cond_shown":"equaldotsize","ratio_trial":900,"smaller_num":"18","larger_num":"20","correct_side":1,"subjID":"mariapuentesobando9","gender":"1","age":"9","school":"4"},{"start_time":1552073834665,"click_time":1552073835292,"finger_time":1552073834991,"fix_duration":250,"trial":27,"RT":326,"MT":301,"sideResp":2,"stimulus":"img/500/randomdotsizeEA/R/14_Ratio_500_L_5_R_10.png","xmouse":[761,761,761,761,761,761,761,761,761,761,761,761,761,761,770,824,864,908,946,982,992,1002,1011,1019,1039,1047,1054,1061,1062,1064,1065,1066],"ymouse":[525,525,525,525,525,525,525,525,525,525,525,525,525,525,524,490,456,412,350,309,297,286,275,261,226,208,189,159,140,109,100,95],"timestamp_mouse":[13,34,46,67,88,106,126,146,167,188,206,228,246,267,286,308,326,348,367,387,406,427,447,467,487,508,527,547,567,586,606,627],"xSR":741.5,"ySR":469.95,"xT1":424.9,"yT1":0,"xT2":1058.1,"yT2":0,"toosoon":0,"cond_shown":"randomdotsizeEA","ratio_trial":500,"smaller_num":"5","larger_num":"10","correct_side":2,"subjID":"mariapuentesobando9","gender":"1","age":"9","school":"4"},{"start_time":1552073837094,"click_time":1552073838272,"finger_time":1552073837571,"fix_duration":941.1247024467165,"trial":28,"RT":477,"MT":701,"sideResp":2,"stimulus":"img/900/equaldotanddens/R/11_Ratio_900_L_18_R_20.png","xmouse":[779,779,779,779,779,779,779,779,779,779,779,779,779,779,779,779,780,780,781,783,787,792,796,799,799,798,793,787,777,770,763,753,723,691,670,648,629,618,617,616,615,613,605,587,583,582,582,582,583,593,611,641,736,764,805,840,888,1015,1081],"ymouse":[537,537,537,537,537,537,537,537,537,537,537,537,536,536,535,534,533,531,527,523,515,503,489,436,410,388,366,347,314,301,291,279,250,226,213,201,190,182,180,178,175,169,152,124,120,119,118,118,122,135,153,174,213,214,209,193,167,99,74],"timestamp_mouse":[18,46,58,77,99,117,138,158,179,210,219,238,258,278,298,319,338,358,377,398,418,439,458,477,498,517,538,558,577,597,617,639,658,677,697,718,737,759,777,798,818,837,858,878,898,919,938,957,978,998,1018,1039,1059,1077,1097,1118,1139,1159,1177],"xSR":741.5,"ySR":469.95,"xT1":424.9,"yT1":0,"xT2":1058.1,"yT2":0,"toosoon":0,"cond_shown":"equaldotanddens","ratio_trial":900,"smaller_num":"18","larger_num":"20","correct_side":2,"subjID":"mariapuentesobando9","gender":"1","age":"9","school":"4"},{"start_time":1552073839999,"click_time":1552073841272,"finger_time":1552073840971,"fix_duration":585.4934804451794,"trial":29,"RT":972,"MT":301,"sideResp":1,"stimulus":"img/900/equaldotanddens/R/7_Ratio_900_L_9_R_10.png","xmouse":[803,802,802,802,802,802,802,802,802,802,802,802,802,801,799,795,792,791,790,790,790,790,790,790,790,790,790,790,790,790,790,790,790,790,790,790,790,790,790,790,790,790,790,790,788,786,771,755,717,701,694,688,680,672,660,647,633,606,574,559,542,523,494,436],"ymouse":[534,534,534,534,534,534,534,534,534,534,534,534,534,534,533,531,530,529,529,529,529,529,529,529,529,529,529,529,529,529,529,529,529,529,529,529,529,529,529,529,529,529,529,529,527,525,510,498,476,467,461,456,448,442,433,423,413,384,335,307,266,228,177,69],"timestamp_mouse":[13,32,54,74,92,112,132,154,174,193,213,233,253,272,294,312,333,352,373,392,414,433,452,473,494,513,534,552,572,594,614,634,652,673,694,713,733,752,774,794,812,832,854,874,893,913,933,953,972,992,1012,1032,1054,1073,1094,1113,1132,1153,1173,1192,1213,1233,1253,1273],"xSR":741.5,"ySR":469.95,"xT1":424.9,"yT1":0,"xT2":1058.1,"yT2":0,"toosoon":0,"cond_shown":"equaldotanddens","ratio_trial":900,"smaller_num":"9","larger_num":"10","correct_side":2,"subjID":"mariapuentesobando9","gender":"1","age":"9","school":"4"},{"start_time":1552073843977,"click_time":1552073845152,"finger_time":1552073844412,"fix_duration":1423.8496165116942,"trial":30,"RT":435,"MT":740,"sideResp":1,"stimulus":"img/500/randomdotsizeEA/L/5_Ratio_500_L_4_R_2.png","xmouse":[775,775,775,775,775,775,775,775,775,775,775,775,775,775,775,775,775,775,775,789,820,842,857,863,865,865,865,865,865,865,865,862,854,841,798,766,739,712,688,652,639,631,625,619,595,568,552,538,527,517,507,504,502,501,499,499,499,499,498],"ymouse":[522,522,522,522,522,522,522,522,522,522,522,522,522,522,522,522,522,522,522,514,484,470,461,458,458,458,458,458,458,458,458,457,454,449,430,415,404,391,375,343,328,316,305,291,254,222,201,179,161,148,134,130,125,121,114,110,106,102,97],"timestamp_mouse":[15,43,56,75,96,115,136,156,175,196,215,236,255,276,295,315,336,356,375,395,415,435,455,476,495,515,536,556,575,596,615,636,655,675,696,716,735,755,775,796,815,835,855,876,896,915,935,955,975,995,1015,1035,1055,1076,1095,1115,1135,1156,1175],"xSR":741.5,"ySR":469.95,"xT1":424.9,"yT1":0,"xT2":1058.1,"yT2":0,"toosoon":0,"cond_shown":"randomdotsizeEA","ratio_trial":500,"smaller_num":"2","larger_num":"4","correct_side":1,"subjID":"mariapuentesobando9","gender":"1","age":"9","school":"4"},{"start_time":1552073846145,"click_time":1552073847352,"finger_time":1552073847053,"fix_duration":250,"trial":31,"RT":908,"MT":299,"sideResp":2,"stimulus":"img/750/randomdotsizeEA/L/10_Ratio_750_L_4_R_3.png","xmouse":[785,785,785,785,785,785,785,785,785,785,785,785,785,785,785,785,785,785,785,785,785,785,785,785,785,785,785,785,785,785,785,785,785,785,785,785,785,785,785,785,785,785,785,790,801,818,877,900,921,943,973,1027,1052,1075,1089,1099,1103,1103,1105,1109,1112],"ymouse":[504,504,504,504,504,504,504,504,504,504,504,504,504,504,504,504,504,504,504,504,504,504,504,504,504,504,504,504,504,504,504,504,504,504,504,504,504,504,504,504,504,504,504,494,475,447,368,341,317,295,270,220,196,175,161,146,136,119,111,102,94],"timestamp_mouse":[11,42,47,67,87,107,127,148,168,188,207,227,247,268,288,307,327,347,367,388,407,427,447,467,488,508,527,547,568,588,608,628,648,669,687,708,727,748,768,788,807,828,847,868,887,908,929,947,967,988,1007,1028,1047,1068,1088,1108,1128,1149,1167,1188,1207],"xSR":741.5,"ySR":469.95,"xT1":424.9,"yT1":0,"xT2":1058.1,"yT2":0,"toosoon":0,"cond_shown":"randomdotsizeEA","ratio_trial":750,"smaller_num":"3","larger_num":"4","correct_side":1,"subjID":"mariapuentesobando9","gender":"1","age":"9","school":"4"},{"start_time":1552073849581,"click_time":1552073850392,"finger_time":1552073850192,"fix_duration":1407.8842063384345,"trial":32,"RT":611,"MT":200,"sideResp":1,"stimulus":"img/250/randomdotsizeEA/L/1_Ratio_250_L_8_R_2.png","xmouse":[763,763,763,763,763,763,763,763,763,763,763,763,763,764,764,764,764,765,765,765,766,766,766,766,766,766,766,765,763,761,749,739,717,696,640,616,596,576,561,545,513],"ymouse":[529,529,529,529,529,529,529,529,529,529,529,529,529,529,529,528,525,522,520,519,518,518,518,518,518,518,517,513,507,490,440,411,356,305,209,178,153,130,112,91,54],"timestamp_mouse":[13,36,52,71,91,112,131,152,171,192,211,232,251,272,293,312,331,352,371,391,412,432,453,471,492,512,530,551,571,591,611,632,651,671,693,712,732,751,772,791,811],"xSR":741.5,"ySR":469.95,"xT1":424.9,"yT1":0,"xT2":1058.1,"yT2":0,"toosoon":0,"cond_shown":"randomdotsizeEA","ratio_trial":250,"smaller_num":"2","larger_num":"8","correct_side":1,"subjID":"mariapuentesobando9","gender":"1","age":"9","school":"4"},{"start_time":1552073851889,"click_time":1552073852793,"finger_time":1552073852492,"fix_duration":755.0385011321579,"trial":33,"RT":603,"MT":301,"sideResp":2,"stimulus":"img/900/equaldotanddens/L/1_Ratio_900_L_10_R_9.png","xmouse":[789,789,789,789,789,789,789,789,789,789,789,789,789,789,789,789,789,789,789,789,789,789,789,789,789,789,789,789,795,808,842,864,888,915,938,984,1013,1023,1028,1030,1032,1032,1035,1039,1047,1064],"ymouse":[526,526,526,526,526,526,526,526,526,526,526,526,526,526,526,526,526,526,526,526,526,526,526,526,526,526,526,526,519,508,478,456,425,386,349,250,182,150,128,111,89,81,76,68,60,37],"timestamp_mouse":[12,38,44,63,83,104,125,143,164,183,204,224,244,264,284,303,324,343,364,383,403,423,444,463,483,503,523,543,564,583,603,623,643,663,684,704,724,743,763,783,803,823,844,863,884,904],"xSR":741.5,"ySR":469.95,"xT1":424.9,"yT1":0,"xT2":1058.1,"yT2":0,"toosoon":0,"cond_shown":"equaldotanddens","ratio_trial":900,"smaller_num":"9","larger_num":"10","correct_side":1,"subjID":"mariapuentesobando9","gender":"1","age":"9","school":"4"},{"start_time":1552073854992,"click_time":1552073856373,"finger_time":1552073855512,"fix_duration":1436.3602141774,"trial":34,"RT":520,"MT":861,"sideResp":2,"stimulus":"img/750/equaldotsize/R/5_Ratio_750_L_15_R_20.png","xmouse":[779,779,777,777,777,777,777,777,777,777,777,777,777,777,777,777,777,781,788,793,799,801,801,801,800,791,782,764,740,715,647,630,616,610,605,601,597,596,595,595,595,595,597,599,600,608,620,639,662,692,771,795,817,845,885,1007,1062,1106,1127,1138,1147,1150,1155,1166,1179,1187,1190,1186,1174,1154],"ymouse":[534,534,531,531,531,531,531,531,531,531,531,531,531,531,531,531,529,526,520,512,503,490,487,485,483,474,465,451,432,413,369,357,347,338,328,318,296,284,273,262,250,236,230,227,227,231,244,257,271,287,311,313,313,307,292,238,210,179,156,144,125,116,103,86,67,55,45,44,43,43],"timestamp_mouse":[10,20,47,60,80,100,121,140,160,181,200,220,241,261,281,300,320,341,360,380,400,421,440,460,480,501,520,540,560,580,602,620,640,660,680,700,720,740,760,780,800,820,840,860,880,901,920,940,961,981,1000,1020,1040,1060,1080,1101,1120,1140,1160,1180,1201,1220,1240,1260,1280,1300,1320,1340,1360,1380],"xSR":741.5,"ySR":469.95,"xT1":424.9,"yT1":0,"xT2":1058.1,"yT2":0,"toosoon":0,"cond_shown":"equaldotsize","ratio_trial":750,"smaller_num":"15","larger_num":"20","correct_side":2,"subjID":"mariapuentesobando9","gender":"1","age":"9","school":"4"},{"start_time":1552073857761,"click_time":1552073858712,"finger_time":1552073858533,"fix_duration":407.5017909879257,"trial":35,"RT":772,"MT":179,"sideResp":2,"stimulus":"img/500/equaldotsize/R/12_Ratio_500_L_1_R_2.png","xmouse":[796,796,796,796,796,796,796,796,796,796,796,796,796,796,796,796,796,796,796,796,798,799,806,810,816,822,826,833,835,835,835,835,835,835,835,835,835,837,843,854,873,895,955,988,1016,1050,1075,1107],"ymouse":[523,523,523,523,523,523,523,523,523,523,523,523,523,523,523,523,523,523,523,523,520,519,514,511,507,502,499,494,493,493,493,493,493,493,493,493,493,490,483,470,444,421,344,300,256,200,150,79],"timestamp_mouse":[12,35,51,71,91,112,132,152,172,191,211,231,252,271,292,312,332,351,372,391,412,432,452,471,491,511,532,551,572,591,612,631,652,671,691,712,731,751,772,791,812,831,851,871,892,911,932,951],"xSR":741.5,"ySR":469.95,"xT1":424.9,"yT1":0,"xT2":1058.1,"yT2":0,"toosoon":0,"cond_shown":"equaldotsize","ratio_trial":500,"smaller_num":"1","larger_num":"2","correct_side":2,"subjID":"mariapuentesobando9","gender":"1","age":"9","school":"4"},{"start_time":1552073860358,"click_time":1552073861772,"finger_time":1552073861372,"fix_duration":943.3363193997874,"trial":36,"RT":1014,"MT":400,"sideResp":1,"stimulus":"img/750/equaldotsize/L/6_Ratio_750_L_24_R_18.png","xmouse":[825,825,825,825,825,825,825,825,825,825,825,825,825,825,825,825,825,825,825,825,825,825,825,825,825,825,825,830,832,832,832,832,832,832,832,832,832,832,832,832,832,832,832,832,832,832,831,829,818,808,795,773,716,690,670,657,643,623,606,595,585,577,565,561,556,551,545,537,535,526,520],"ymouse":[521,521,521,521,521,521,521,521,521,521,521,521,521,521,521,521,521,521,521,521,521,521,521,521,521,520,517,513,511,511,511,511,511,511,511,511,511,511,511,511,511,511,511,511,510,508,507,505,492,478,456,416,303,258,219,187,158,120,101,93,86,82,75,75,74,74,74,74,72,64,58],"timestamp_mouse":[15,44,55,75,94,115,135,155,174,194,215,235,254,274,294,315,334,354,375,395,414,434,454,475,495,515,534,554,575,595,615,634,654,674,695,715,734,754,774,795,815,834,854,875,894,913,935,954,975,994,1014,1034,1054,1074,1094,1114,1134,1154,1175,1194,1214,1234,1254,1274,1294,1315,1334,1354,1375,1394,1414],"xSR":741.5,"ySR":469.95,"xT1":424.9,"yT1":0,"xT2":1058.1,"yT2":0,"toosoon":0,"cond_shown":"equaldotsize","ratio_trial":750,"smaller_num":"18","larger_num":"24","correct_side":1,"subjID":"mariapuentesobando9","gender":"1","age":"9","school":"4"},{"start_time":1552073863127,"click_time":1552073864232,"finger_time":1552073863912,"fix_duration":453.88692432266174,"trial":37,"RT":785,"MT":320,"sideResp":2,"stimulus":"img/750/equaldotsize/R/2_Ratio_750_L_6_R_8.png","xmouse":[803,803,803,803,803,803,803,803,803,803,803,803,803,803,803,803,803,803,803,803,803,803,803,803,803,803,803,803,803,803,803,803,803,803,803,803,803,803,811,851,899,945,987,1011,1040,1051,1059,1065,1069,1072,1072,1072,1072,1072,1074,1077],"ymouse":[498,498,498,498,498,498,498,498,498,498,498,498,498,498,498,498,498,498,498,498,498,498,498,498,498,498,498,498,498,498,498,498,498,498,498,498,498,498,496,468,427,386,344,320,281,262,248,232,222,189,177,165,150,136,101,85],"timestamp_mouse":[12,38,45,66,85,105,126,145,165,185,206,225,246,265,285,305,325,346,365,385,407,425,446,466,485,506,526,546,566,585,605,626,645,665,685,706,727,746,765,785,805,825,846,866,887,905,925,945,966,986,1005,1025,1046,1065,1086,1105],"xSR":741.5,"ySR":469.95,"xT1":424.9,"yT1":0,"xT2":1058.1,"yT2":0,"toosoon":0,"cond_shown":"equaldotsize","ratio_trial":750,"smaller_num":"6","larger_num":"8","correct_side":2,"subjID":"mariapuentesobando9","gender":"1","age":"9","school":"4"},{"start_time":1552073865507,"click_time":1552073866754,"finger_time":1552073866352,"fix_duration":672.0615545494431,"trial":38,"RT":845,"MT":402,"sideResp":2,"stimulus":"img/500/equaldotanddens/R/1_Ratio_500_L_9_R_18.png","xmouse":[777,777,777,777,777,777,777,777,777,777,777,777,777,777,777,777,777,777,777,777,777,777,777,777,777,777,777,777,777,777,777,777,777,777,777,777,777,777,777,778,784,801,811,824,844,875,895,913,936,941,956,968,975,984,994,1023,1038,1047,1051,1053,1054,1056,1059],"ymouse":[538,538,538,538,538,538,538,538,538,538,538,538,538,538,538,538,538,538,538,538,538,538,538,538,538,538,538,538,538,538,538,538,538,538,538,538,538,537,536,530,515,472,441,401,358,285,242,203,155,144,122,107,97,86,72,43,33,27,25,25,25,25,25],"timestamp_mouse":[13,38,45,65,85,106,126,146,165,186,206,225,246,266,285,305,325,346,366,386,406,426,446,466,485,506,526,546,566,586,606,626,646,665,685,706,726,746,765,786,805,825,844,865,885,907,925,945,965,986,1005,1025,1045,1065,1085,1107,1125,1145,1166,1185,1207,1225,1246],"xSR":741.5,"ySR":469.95,"xT1":424.9,"yT1":0,"xT2":1058.1,"yT2":0,"toosoon":0,"cond_shown":"equaldotanddens","ratio_trial":500,"smaller_num":"9","larger_num":"18","correct_side":2,"subjID":"mariapuentesobando9","gender":"1","age":"9","school":"4"},{"start_time":1552073868851,"click_time":1552073869952,"finger_time":1552073869532,"fix_duration":698.6328873315664,"trial":39,"RT":681,"MT":420,"sideResp":1,"stimulus":"img/250/randomdotsizeEA/L/2_Ratio_250_L_16_R_4.png","xmouse":[777,777,777,777,777,777,778,778,778,779,780,781,781,781,781,781,781,781,781,781,781,781,781,781,781,781,781,781,781,781,782,780,776,769,752,741,728,714,702,676,662,653,646,641,623,613,600,589,577,561,557,551,545,539,527,521],"ymouse":[506,506,506,508,510,512,513,513,513,514,514,514,514,514,514,514,514,514,514,514,514,514,514,514,514,514,514,514,514,514,514,508,499,488,457,437,415,389,360,303,268,249,232,215,178,160,147,138,131,123,121,119,115,112,97,89],"timestamp_mouse":[2,38,41,62,81,102,121,142,162,183,203,221,241,261,281,301,322,341,361,381,401,421,442,461,483,502,521,542,561,582,602,621,642,662,681,701,721,741,762,781,801,822,842,861,881,901,921,941,961,981,1001,1021,1042,1061,1081,1101],"xSR":741.5,"ySR":469.95,"xT1":424.9,"yT1":0,"xT2":1058.1,"yT2":0,"toosoon":0,"cond_shown":"randomdotsizeEA","ratio_trial":250,"smaller_num":"4","larger_num":"16","correct_side":1,"subjID":"mariapuentesobando9","gender":"1","age":"9","school":"4"},{"start_time":1552073871330,"click_time":1552073872433,"finger_time":1552073872054,"fix_duration":596.3901357656775,"trial":40,"RT":724,"MT":379,"sideResp":2,"stimulus":"img/750/equaldotanddens/R/12_Ratio_750_L_3_R_4.png","xmouse":[796,796,796,796,796,796,796,796,796,796,796,796,796,796,796,796,796,796,796,796,796,796,797,798,798,799,799,799,799,800,803,805,806,808,813,835,849,864,886,909,953,971,985,993,999,1003,1005,1011,1018,1026,1036,1040,1044,1048,1054,1068],"ymouse":[546,546,546,546,546,546,546,546,546,546,546,546,546,546,546,546,546,546,546,546,545,542,541,540,539,538,537,537,537,537,532,529,527,525,520,505,496,487,473,458,417,389,363,336,309,243,200,178,163,150,121,105,95,85,75,60],"timestamp_mouse":[10,23,43,63,82,102,121,143,162,182,203,223,243,262,282,302,322,343,362,382,403,422,443,463,482,502,522,542,562,582,603,622,642,662,683,702,724,742,762,782,803,822,842,862,882,903,922,942,963,982,1002,1022,1042,1062,1082,1103],"xSR":741.5,"ySR":469.95,"xT1":424.9,"yT1":0,"xT2":1058.1,"yT2":0,"toosoon":0,"cond_shown":"equaldotanddens","ratio_trial":750,"smaller_num":"3","larger_num":"4","correct_side":2,"subjID":"mariapuentesobando9","gender":"1","age":"9","school":"4"},{"start_time":1552073873484,"click_time":1552073874812,"finger_time":1552073874413,"fix_duration":250,"trial":41,"RT":929,"MT":399,"sideResp":1,"stimulus":"img/750/randomdotsizeEA/R/4_Ratio_750_L_15_R_20.png","xmouse":[795,805,805,813,816,816,816,816,817,817,817,817,817,817,817,817,817,817,809,798,788,784,782,778,778,778,778,778,778,778,778,778,778,778,778,778,778,778,778,778,778,778,777,773,764,750,735,697,687,682,677,671,665,643,631,621,612,607,592,582,572,562,553,536,525,509,492],"ymouse":[515,499,499,492,491,491,491,491,491,491,491,491,493,494,494,494,494,495,503,512,522,529,533,538,538,538,538,538,538,538,538,538,538,538,538,538,538,538,538,538,538,538,538,537,527,510,489,433,415,403,390,376,360,322,300,280,244,224,188,171,157,148,137,118,109,102,94],"timestamp_mouse":[14,29,49,68,88,109,128,149,168,188,209,229,249,268,289,308,329,348,368,389,409,428,449,469,488,508,528,549,568,588,608,629,649,669,689,708,728,748,769,789,808,829,849,868,888,909,929,950,968,988,1008,1028,1049,1068,1089,1108,1129,1149,1169,1188,1208,1228,1249,1269,1289,1308,1328],"xSR":741.5,"ySR":469.95,"xT1":424.9,"yT1":0,"xT2":1058.1,"yT2":0,"toosoon":0,"cond_shown":"randomdotsizeEA","ratio_trial":750,"smaller_num":"15","larger_num":"20","correct_side":2,"subjID":"mariapuentesobando9","gender":"1","age":"9","school":"4"},{"start_time":1552073876135,"click_time":1552073877252,"finger_time":1552073877152,"fix_duration":562.0283278669319,"trial":42,"RT":1017,"MT":100,"sideResp":2,"stimulus":"img/500/equaldotanddens/R/15_Ratio_500_L_1_R_2.png","xmouse":[771,771,771,771,771,771,771,771,771,771,771,771,771,771,771,769,767,767,767,767,767,767,767,767,767,767,767,767,767,767,767,767,767,767,767,767,767,767,767,767,767,767,767,767,767,767,768,775,795,883,947,1036,1080,1104,1117],"ymouse":[554,554,554,554,554,554,554,554,554,554,554,554,554,554,554,551,547,546,545,545,545,545,545,545,545,545,545,545,545,545,545,545,545,545,545,545,545,545,545,545,545,545,545,545,545,545,540,533,514,420,343,227,160,111,65],"timestamp_mouse":[38,58,78,97,117,137,158,177,197,218,238,258,277,298,317,337,357,379,397,418,437,457,477,498,518,537,557,578,598,618,638,658,677,698,717,738,757,776,796,816,838,857,878,897,918,938,957,977,997,1017,1038,1057,1078,1098,1117],"xSR":741.5,"ySR":469.95,"xT1":424.9,"yT1":0,"xT2":1058.1,"yT2":0,"toosoon":0,"cond_shown":"equaldotanddens","ratio_trial":500,"smaller_num":"1","larger_num":"2","correct_side":2,"subjID":"mariapuentesobando9","gender":"1","age":"9","school":"4"},{"start_time":1552073879201,"click_time":1552073880052,"finger_time":1552073879892,"fix_duration":1127.9805730453604,"trial":43,"RT":691,"MT":160,"sideResp":1,"stimulus":"img/250/equaldotsize/L/2_Ratio_250_L_16_R_4.png","xmouse":[812,812,812,812,812,812,812,812,812,812,812,812,812,812,812,812,812,812,812,812,812,812,812,812,812,812,812,812,812,812,812,812,809,801,783,759,730,660,613,584,560,539,502],"ymouse":[505,505,505,505,505,505,505,505,505,505,505,505,505,505,505,505,505,505,505,505,505,505,505,505,505,505,505,505,505,505,505,505,502,484,455,421,380,283,217,176,147,118,77],"timestamp_mouse":[11,40,51,72,90,111,132,151,171,191,211,231,251,271,291,311,332,351,372,392,411,431,451,471,492,511,532,551,572,592,612,632,651,671,691,711,732,752,771,791,812,833,851],"xSR":741.5,"ySR":469.95,"xT1":424.9,"yT1":0,"xT2":1058.1,"yT2":0,"toosoon":0,"cond_shown":"equaldotsize","ratio_trial":250,"smaller_num":"4","larger_num":"16","correct_side":1,"subjID":"mariapuentesobando9","gender":"1","age":"9","school":"4"},{"start_time":1552073881993,"click_time":1552073883513,"finger_time":1552073883253,"fix_duration":1299.8925913277433,"trial":44,"RT":1260,"MT":260,"sideResp":1,"stimulus":"img/750/equaldotsize/L/9_Ratio_750_L_4_R_3.png","xmouse":[793,793,793,793,793,793,793,793,793,793,793,793,793,793,793,793,793,793,793,793,793,793,793,793,793,793,793,793,793,793,793,793,793,793,793,793,793,793,793,793,793,793,793,793,793,793,793,793,793,793,793,793,793,793,793,793,793,793,793,793,793,792,782,688,617,550,499,465,447,441,441,442,442,442,434,430,430],"ymouse":[533,533,533,533,533,533,533,533,533,533,533,533,533,533,533,533,533,533,533,533,533,533,533,533,533,533,533,533,533,533,533,533,533,533,533,533,533,533,533,533,533,533,533,533,533,533,533,533,533,533,533,533,533,533,533,533,533,533,533,533,533,526,514,447,398,355,312,276,247,204,190,177,163,148,119,105,94],"timestamp_mouse":[1,19,39,60,79,100,119,140,160,179,199,220,239,259,280,301,320,339,360,380,400,419,439,459,479,499,520,539,560,579,600,619,639,660,680,700,719,740,760,780,799,819,840,860,879,900,920,940,959,980,1012,1020,1039,1059,1079,1100,1119,1140,1160,1180,1200,1220,1239,1260,1279,1299,1319,1340,1359,1379,1399,1419,1439,1460,1479,1499,1520],"xSR":741.5,"ySR":469.95,"xT1":424.9,"yT1":0,"xT2":1058.1,"yT2":0,"toosoon":0,"cond_shown":"equaldotsize","ratio_trial":750,"smaller_num":"3","larger_num":"4","correct_side":1,"subjID":"mariapuentesobando9","gender":"1","age":"9","school":"4"},{"start_time":1552073884745,"click_time":1552073885853,"finger_time":1552073885472,"fix_duration":250,"trial":45,"RT":727,"MT":381,"sideResp":2,"stimulus":"img/750/equaldotsize/R/7_Ratio_750_L_3_R_4.png","xmouse":[807,807,807,807,807,807,807,807,807,807,807,807,807,807,807,807,807,807,807,807,807,807,807,807,807,807,807,807,807,807,807,807,807,807,812,820,861,886,913,954,986,1023,1031,1035,1036,1036,1033,1031,1031,1033,1036,1042,1046,1052,1056,1060],"ymouse":[515,515,515,515,515,515,515,515,515,515,515,515,515,515,515,515,515,515,515,515,515,515,515,515,515,515,515,515,515,515,515,515,515,515,509,502,463,439,414,381,356,320,300,282,264,246,204,180,148,132,117,81,61,44,33,21],"timestamp_mouse":[8,45,47,68,87,107,127,147,167,188,207,227,248,267,288,308,328,347,367,387,408,428,448,467,487,508,527,549,568,588,608,628,647,667,688,707,727,748,767,787,807,827,847,867,887,908,927,948,967,987,1009,1027,1047,1068,1088,1108],"xSR":741.5,"ySR":469.95,"xT1":424.9,"yT1":0,"xT2":1058.1,"yT2":0,"toosoon":0,"cond_shown":"equaldotsize","ratio_trial":750,"smaller_num":"3","larger_num":"4","correct_side":2,"subjID":"mariapuentesobando9","gender":"1","age":"9","school":"4"},{"start_time":1552073887476,"click_time":1552073888672,"finger_time":1552073888292,"fix_duration":842.5947486016606,"trial":46,"RT":816,"MT":380,"sideResp":2,"stimulus":"img/750/randomdotsizeEA/R/3_Ratio_750_L_15_R_20.png","xmouse":[805,805,805,805,805,805,805,805,805,805,805,805,805,805,805,805,805,805,805,805,805,805,805,805,805,805,805,805,805,805,805,805,805,805,805,805,805,805,809,836,868,890,919,955,1010,1029,1043,1055,1063,1068,1072,1072,1069,1066,1059,1057,1056,1056,1057,1060],"ymouse":[526,526,526,526,526,526,526,526,526,526,526,526,526,526,526,526,526,526,526,526,526,526,526,526,526,526,526,526,526,526,526,526,526,526,526,526,526,524,520,493,468,451,426,395,338,316,299,284,270,258,223,207,186,167,129,112,97,88,79,71],"timestamp_mouse":[16,48,56,76,96,116,136,156,176,197,217,236,256,276,296,316,336,356,376,396,416,437,457,476,496,516,536,558,577,596,616,637,657,678,696,717,736,756,777,796,816,836,857,876,897,916,936,957,977,996,1016,1036,1056,1076,1097,1116,1136,1156,1177,1196],"xSR":741.5,"ySR":469.95,"xT1":424.9,"yT1":0,"xT2":1058.1,"yT2":0,"toosoon":0,"cond_shown":"randomdotsizeEA","ratio_trial":750,"smaller_num":"15","larger_num":"20","correct_side":2,"subjID":"mariapuentesobando9","gender":"1","age":"9","school":"4"},{"start_time":1552073889969,"click_time":1552073891473,"finger_time":1552073891173,"fix_duration":394.5718578546398,"trial":47,"RT":1204,"MT":300,"sideResp":1,"stimulus":"img/750/randomdotsizeEA/L/14_Ratio_750_L_8_R_6.png","xmouse":[798,798,798,798,798,798,798,798,798,798,798,798,798,798,798,798,798,798,798,798,798,798,797,797,797,797,797,797,797,797,797,797,797,797,797,797,797,797,797,797,797,798,800,806,812,814,814,814,814,814,814,814,814,814,813,810,807,802,794,781,767,717,688,657,628,592,583,575,568,558,536,526,519,516,514,513],"ymouse":[507,507,507,507,507,507,507,507,507,507,507,507,507,507,507,507,507,507,507,507,507,507,507,507,507,507,507,507,507,507,507,507,507,507,507,507,507,507,507,507,507,501,499,492,485,483,483,483,483,483,483,483,483,483,483,483,483,483,480,470,453,375,325,283,244,189,173,161,149,136,116,109,104,101,100,98],"timestamp_mouse":[9,40,43,64,83,103,123,143,164,184,203,224,245,264,284,303,323,344,364,384,403,424,443,463,484,503,523,543,564,583,603,624,644,663,684,703,724,744,763,783,804,823,844,863,884,904,923,943,964,983,1004,1023,1043,1063,1083,1104,1123,1144,1163,1183,1204,1223,1243,1263,1283,1304,1323,1344,1363,1383,1405,1423,1443,1463,1484,1504],"xSR":741.5,"ySR":469.95,"xT1":424.9,"yT1":0,"xT2":1058.1,"yT2":0,"toosoon":0,"cond_shown":"randomdotsizeEA","ratio_trial":750,"smaller_num":"6","larger_num":"8","correct_side":1,"subjID":"mariapuentesobando9","gender":"1","age":"9","school":"4"},{"start_time":1552073893757,"click_time":1552073894532,"finger_time":1552073894413,"fix_duration":1163.483447892703,"trial":48,"RT":656,"MT":119,"sideResp":2,"stimulus":"img/250/equaldotsize/R/6_Ratio_250_L_6_R_24.png","xmouse":[793,793,793,793,793,793,793,793,793,793,793,793,793,793,793,793,793,793,793,793,793,793,793,793,793,793,793,794,796,800,806,824,837,866,902,954,1071,1111,1137],"ymouse":[505,505,505,505,505,505,505,505,505,505,505,505,505,505,505,505,505,505,505,505,505,505,505,505,505,505,505,503,500,496,491,479,469,447,414,366,212,133,76],"timestamp_mouse":[16,47,57,76,96,116,136,155,176,196,215,236,255,277,295,316,335,355,376,396,416,435,455,475,496,515,535,556,576,595,615,634,656,675,696,716,735,756,775],"xSR":741.5,"ySR":469.95,"xT1":424.9,"yT1":0,"xT2":1058.1,"yT2":0,"toosoon":0,"cond_shown":"equaldotsize","ratio_trial":250,"smaller_num":"6","larger_num":"24","correct_side":2,"subjID":"mariapuentesobando9","gender":"1","age":"9","school":"4"},{"start_time":1552073896672,"click_time":1552073897932,"finger_time":1552073897552,"fix_duration":1317.845892058154,"trial":49,"RT":880,"MT":380,"sideResp":1,"stimulus":"img/900/equaldotsize/R/12_Ratio_900_L_18_R_20.png","xmouse":[800,800,800,800,800,800,800,800,800,800,800,800,800,800,800,800,800,800,800,800,800,800,800,800,800,800,800,800,800,800,800,800,800,800,800,800,800,800,800,800,800,798,787,768,739,702,640,619,611,605,597,576,564,548,533,521,507,501,497,495,490,464,453,445],"ymouse":[521,521,521,521,521,521,521,521,521,521,521,521,521,521,521,521,521,521,521,521,521,521,521,521,521,521,521,521,521,521,521,521,521,521,521,521,521,521,521,521,521,521,508,483,442,397,334,313,304,296,289,270,259,246,233,221,199,183,171,158,145,114,103,94],"timestamp_mouse":[10,21,40,60,80,101,121,140,161,181,200,220,241,260,280,301,320,341,361,382,401,420,441,461,480,501,521,541,561,581,601,620,640,661,681,701,720,741,760,780,801,820,840,861,880,900,921,940,960,980,1000,1021,1040,1061,1080,1100,1121,1140,1160,1180,1200,1220,1240,1260],"xSR":741.5,"ySR":469.95,"xT1":424.9,"yT1":0,"xT2":1058.1,"yT2":0,"toosoon":0,"cond_shown":"equaldotsize","ratio_trial":900,"smaller_num":"18","larger_num":"20","correct_side":2,"subjID":"mariapuentesobando9","gender":"1","age":"9","school":"4"},{"start_time":1552073901207,"click_time":1552073902372,"finger_time":1552073901912,"fix_duration":1472.4064822295416,"trial":50,"RT":705,"MT":460,"sideResp":2,"stimulus":"img/250/randomdotsizeEA/R/9_Ratio_250_L_3_R_12.png","xmouse":[790,790,790,790,790,790,790,790,790,790,790,790,790,790,790,790,790,790,790,790,789,790,791,793,794,796,796,797,797,798,798,799,800,804,809,823,835,858,866,887,909,920,929,940,964,975,986,993,1002,1007,1017,1022,1028,1031,1034,1044,1052,1055,1063],"ymouse":[517,517,517,517,517,517,517,517,517,517,517,517,517,517,517,517,517,517,517,517,515,513,511,508,505,503,503,502,502,502,501,497,493,486,473,439,421,393,383,354,305,280,255,230,182,166,150,139,129,124,118,115,111,109,108,103,100,99,96],"timestamp_mouse":[13,31,45,66,85,106,125,145,166,185,205,226,245,265,285,306,326,346,365,385,405,425,446,465,486,505,526,546,566,586,606,625,645,665,685,705,725,745,765,785,805,825,845,865,887,905,926,945,965,986,1006,1025,1045,1065,1085,1105,1126,1146,1165],"xSR":741.5,"ySR":469.95,"xT1":424.9,"yT1":0,"xT2":1058.1,"yT2":0,"toosoon":0,"cond_shown":"randomdotsizeEA","ratio_trial":250,"smaller_num":"3","larger_num":"12","correct_side":2,"subjID":"mariapuentesobando9","gender":"1","age":"9","school":"4"},{"start_time":1552073904752,"click_time":1552073905913,"finger_time":1552073905653,"fix_duration":1456.5923608876192,"trial":51,"RT":901,"MT":260,"sideResp":2,"stimulus":"img/750/randomdotsizeEA/L/6_Ratio_750_L_24_R_18.png","xmouse":[772,772,772,772,772,772,772,772,772,772,772,772,772,772,772,772,772,772,772,772,772,772,772,772,772,772,772,772,775,778,781,783,784,785,785,785,787,788,796,800,807,813,820,834,840,846,854,864,888,913,933,956,985,1043,1072,1095,1116,1130,1152],"ymouse":[531,531,531,531,531,531,531,531,531,531,531,531,531,531,531,531,531,531,531,531,531,531,531,531,531,531,532,532,532,531,531,530,530,530,530,530,529,528,523,520,515,511,505,494,488,482,474,463,434,408,388,362,325,235,198,167,143,123,86],"timestamp_mouse":[10,20,44,62,81,100,122,140,160,181,200,221,242,260,281,301,321,340,360,380,400,421,441,461,482,502,521,540,560,582,601,621,641,660,680,701,720,740,760,781,801,822,840,861,880,901,920,941,960,982,1000,1021,1040,1061,1080,1100,1121,1141,1161],"xSR":741.5,"ySR":469.95,"xT1":424.9,"yT1":0,"xT2":1058.1,"yT2":0,"toosoon":0,"cond_shown":"randomdotsizeEA","ratio_trial":750,"smaller_num":"18","larger_num":"24","correct_side":1,"subjID":"mariapuentesobando9","gender":"1","age":"9","school":"4"},{"start_time":1552073910188,"click_time":1552073911253,"finger_time":1552073910773,"fix_duration":1033.7382474941016,"trial":52,"RT":585,"MT":480,"sideResp":2,"stimulus":"img/900/randomdotsizeEA/R/9_Ratio_900_L_18_R_20.png","xmouse":[767,767,767,767,767,767,767,767,767,767,767,767,767,767,767,767,767,767,767,767,767,767,767,768,770,772,777,789,793,801,807,813,826,834,841,855,867,893,907,922,935,947,963,970,979,981,982,983,987,994,1007,1023,1056,1074],"ymouse":[540,540,540,540,540,540,540,540,540,540,540,540,540,540,540,540,540,540,540,540,540,540,540,540,536,532,525,499,477,454,429,410,368,340,315,277,258,225,204,182,162,146,124,115,105,105,104,104,104,104,104,104,97,92],"timestamp_mouse":[9,25,48,65,84,105,125,144,165,184,205,226,245,266,284,304,326,344,365,385,405,426,445,465,485,505,525,545,565,585,605,625,645,666,685,706,725,744,764,785,805,824,844,865,884,906,925,945,965,984,1005,1025,1045,1065],"xSR":741.5,"ySR":469.95,"xT1":424.9,"yT1":0,"xT2":1058.1,"yT2":0,"toosoon":0,"cond_shown":"randomdotsizeEA","ratio_trial":900,"smaller_num":"18","larger_num":"20","correct_side":2,"subjID":"mariapuentesobando9","gender":"1","age":"9","school":"4"},{"start_time":1552073918758,"click_time":1552073919832,"finger_time":1552073919414,"fix_duration":623.8319293403629,"trial":53,"RT":656,"MT":418,"sideResp":2,"stimulus":"img/250/equaldotanddens/R/4_Ratio_250_L_3_R_12.png","xmouse":[777,777,777,778,778,778,778,778,778,778,778,778,778,778,778,778,778,780,783,785,785,786,786,786,786,786,786,786,786,786,794,800,818,837,878,896,906,917,935,946,959,971,990,1001,1019,1026,1034,1040,1043,1048,1052,1053,1058,1061],"ymouse":[507,507,507,506,506,506,506,506,506,506,506,506,506,506,506,504,501,495,489,483,482,482,482,482,482,482,482,482,482,482,478,474,457,435,370,338,319,300,270,257,244,233,215,203,170,153,135,119,108,94,87,84,78,76],"timestamp_mouse":[15,42,54,76,95,114,135,155,175,196,215,235,255,275,295,314,336,355,374,395,415,435,456,476,495,515,536,556,576,594,623,634,656,675,694,714,735,755,777,795,815,835,855,875,894,914,934,955,974,995,1014,1035,1054,1074],"xSR":741.5,"ySR":469.95,"xT1":424.9,"yT1":0,"xT2":1058.1,"yT2":0,"toosoon":0,"cond_shown":"equaldotanddens","ratio_trial":250,"smaller_num":"3","larger_num":"12","correct_side":2,"subjID":"mariapuentesobando9","gender":"1","age":"9","school":"4"},{"start_time":1552073921017,"click_time":1552073921853,"finger_time":1552073921672,"fix_duration":321.89675500147564,"trial":54,"RT":655,"MT":181,"sideResp":2,"stimulus":"img/750/equaldotsize/R/4_Ratio_750_L_15_R_20.png","xmouse":[779,779,779,779,779,779,779,779,779,779,779,779,779,779,779,779,779,779,779,779,779,779,779,779,779,779,779,779,779,781,790,816,839,872,917,961,1045,1076,1096,1104,1111,1124],"ymouse":[524,524,524,524,524,524,524,524,524,524,524,524,524,524,524,524,524,524,524,524,524,524,524,524,524,524,524,524,523,519,511,486,463,430,383,343,259,217,177,152,130,89],"timestamp_mouse":[17,46,55,75,97,117,135,155,175,195,215,235,256,275,297,315,337,356,376,395,416,436,455,477,496,516,535,556,576,597,615,635,655,676,695,717,736,756,775,795,816,835],"xSR":741.5,"ySR":469.95,"xT1":424.9,"yT1":0,"xT2":1058.1,"yT2":0,"toosoon":0,"cond_shown":"equaldotsize","ratio_trial":750,"smaller_num":"15","larger_num":"20","correct_side":2,"subjID":"mariapuentesobando9","gender":"1","age":"9","school":"4"},{"start_time":1552073924176,"click_time":1552073925033,"finger_time":1552073924853,"fix_duration":1380.0944772555831,"trial":55,"RT":677,"MT":180,"sideResp":1,"stimulus":"img/500/equaldotsize/L/7_Ratio_500_L_10_R_5.png","xmouse":[795,795,795,795,795,795,795,795,795,795,795,795,795,795,795,795,795,794,794,793,793,791,789,785,778,776,773,771,770,770,770,766,760,740,717,683,643,591,528,522,518,514,512],"ymouse":[528,528,528,528,528,528,528,528,528,528,528,528,528,528,528,528,528,528,528,528,527,524,518,512,502,500,498,497,496,496,496,493,486,455,416,351,281,215,131,119,111,104,98],"timestamp_mouse":[17,41,57,76,97,118,137,156,177,197,218,237,258,277,298,318,337,356,376,397,417,437,457,476,496,517,537,557,577,597,617,638,656,677,696,717,736,756,776,796,816,837,856],"xSR":741.5,"ySR":469.95,"xT1":424.9,"yT1":0,"xT2":1058.1,"yT2":0,"toosoon":0,"cond_shown":"equaldotsize","ratio_trial":500,"smaller_num":"5","larger_num":"10","correct_side":1,"subjID":"mariapuentesobando9","gender":"1","age":"9","school":"4"},{"start_time":1552073927480,"click_time":1552073928673,"finger_time":1552073928193,"fix_duration":1424.0849342392178,"trial":56,"RT":713,"MT":480,"sideResp":1,"stimulus":"img/750/equaldotanddens/L/10_Ratio_750_L_4_R_3.png","xmouse":[776,776,776,776,776,776,776,776,776,776,776,776,776,776,776,776,776,776,776,776,776,776,776,776,776,776,776,776,776,776,776,775,775,773,765,762,756,753,749,741,732,724,714,697,689,680,672,668,663,653,647,632,619,611,593,582,568,554,541,519],"ymouse":[512,512,512,512,512,512,512,512,512,512,512,512,512,512,512,512,512,512,512,512,512,512,512,512,512,512,512,512,512,512,512,510,508,498,470,451,435,422,408,381,347,320,291,245,226,210,195,187,181,169,166,159,154,151,139,129,118,107,96,84],"timestamp_mouse":[19,39,54,73,92,114,132,152,174,192,214,234,252,274,293,314,333,352,373,393,414,433,453,474,492,513,532,554,574,593,613,633,653,673,693,713,732,752,773,793,813,833,852,873,893,912,932,952,972,992,1013,1032,1053,1074,1094,1113,1133,1153,1172,1193],"xSR":741.5,"ySR":469.95,"xT1":424.9,"yT1":0,"xT2":1058.1,"yT2":0,"toosoon":0,"cond_shown":"equaldotanddens","ratio_trial":750,"smaller_num":"3","larger_num":"4","correct_side":1,"subjID":"mariapuentesobando9","gender":"1","age":"9","school":"4"},{"start_time":1552073930208,"click_time":1552073931232,"finger_time":1552073930893,"fix_duration":874.5207584645802,"trial":57,"RT":685,"MT":339,"sideResp":1,"stimulus":"img/250/equaldotanddens/L/14_Ratio_250_L_12_R_3.png","xmouse":[801,800,797,793,791,789,788,787,787,787,787,787,787,787,787,787,787,787,787,787,787,787,787,787,787,787,787,787,787,787,787,783,779,775,743,710,672,632,596,591,588,583,579,570,568,567,563,557,540,532,527,524],"ymouse":[518,518,522,531,535,537,539,539,539,539,539,539,539,539,539,539,539,539,539,539,537,536,532,530,529,529,529,529,529,529,529,529,528,525,452,401,344,289,215,190,166,147,132,102,88,73,56,42,26,23,22,21],"timestamp_mouse":[4,24,46,65,85,105,125,144,166,185,206,225,245,265,286,305,325,344,365,386,405,425,444,464,485,504,526,544,564,584,606,625,645,664,685,704,725,744,764,785,805,825,844,865,885,904,925,945,964,984,1006,1024],"xSR":741.5,"ySR":469.95,"xT1":424.9,"yT1":0,"xT2":1058.1,"yT2":0,"toosoon":0,"cond_shown":"equaldotanddens","ratio_trial":250,"smaller_num":"3","larger_num":"12","correct_side":1,"subjID":"mariapuentesobando9","gender":"1","age":"9","school":"4"},{"start_time":1552073932250,"click_time":1552073933274,"finger_time":1552073932953,"fix_duration":316.00773216806965,"trial":58,"RT":703,"MT":321,"sideResp":1,"stimulus":"img/250/equaldotanddens/L/5_Ratio_250_L_24_R_6.png","xmouse":[796,796,796,796,796,796,796,796,796,796,796,796,796,796,796,796,796,796,796,796,796,796,796,796,796,796,796,796,796,794,793,786,782,778,771,763,735,711,681,647,611,569,563,558,555,551,536,526,513,501,492,474],"ymouse":[516,516,516,516,516,516,516,516,516,516,516,516,516,516,516,516,516,516,516,516,516,516,516,516,516,516,516,516,516,516,514,501,494,488,481,469,436,409,365,316,268,204,189,178,170,163,151,145,135,123,113,83],"timestamp_mouse":[12,36,43,64,83,103,123,142,162,182,203,223,243,263,282,303,323,342,363,383,404,423,443,463,483,502,522,542,563,583,602,622,643,662,683,703,723,742,763,783,804,824,842,862,883,903,923,942,963,984,1003,1023],"xSR":741.5,"ySR":469.95,"xT1":424.9,"yT1":0,"xT2":1058.1,"yT2":0,"toosoon":0,"cond_shown":"equaldotanddens","ratio_trial":250,"smaller_num":"6","larger_num":"24","correct_side":1,"subjID":"mariapuentesobando9","gender":"1","age":"9","school":"4"},{"start_time":1552073935473,"click_time":1552073936392,"finger_time":1552073935993,"fix_duration":1119.9501377213662,"trial":59,"RT":520,"MT":399,"sideResp":1,"stimulus":"img/500/equaldotanddens/L/7_Ratio_500_L_10_R_5.png","xmouse":[803,803,802,800,799,798,796,796,796,796,796,796,794,794,794,793,792,792,790,789,788,786,783,781,774,762,732,713,698,677,647,634,617,604,592,583,578,575,574,567,557,533,519,505,489,473,441],"ymouse":[515,515,515,515,515,515,515,515,515,515,515,515,515,515,515,515,514,514,513,512,512,509,507,503,496,484,450,428,408,372,304,272,245,225,212,202,188,182,180,176,171,154,142,130,116,103,73],"timestamp_mouse":[11,20,39,59,80,100,120,141,160,180,201,220,239,259,279,301,320,341,359,380,400,421,439,460,480,500,520,539,560,580,602,619,639,659,680,699,719,739,760,780,800,820,839,859,879,899,919],"xSR":741.5,"ySR":469.95,"xT1":424.9,"yT1":0,"xT2":1058.1,"yT2":0,"toosoon":0,"cond_shown":"equaldotanddens","ratio_trial":500,"smaller_num":"5","larger_num":"10","correct_side":1,"subjID":"mariapuentesobando9","gender":"1","age":"9","school":"4"},{"start_time":1552073939777,"click_time":1552073940813,"finger_time":1552073940413,"fix_duration":1183.2143516197802,"trial":60,"RT":636,"MT":400,"sideResp":2,"stimulus":"img/500/equaldotanddens/R/15_Ratio_500_L_1_R_2.png","xmouse":[777,777,777,777,777,777,777,777,777,777,777,777,777,777,777,777,777,777,778,779,779,780,780,780,780,780,780,780,780,780,785,800,823,851,879,919,932,945,956,967,983,993,999,1003,1007,1010,1017,1023,1032,1039,1056,1071],"ymouse":[504,504,504,504,504,504,504,504,504,504,504,504,504,504,504,504,504,504,504,502,499,498,497,497,497,497,497,497,496,495,485,468,442,409,381,331,310,289,268,243,207,183,169,158,148,138,117,104,88,77,51,34],"timestamp_mouse":[16,35,56,75,96,115,136,157,177,197,215,237,257,275,295,317,335,355,376,395,415,435,457,475,497,516,536,557,575,597,615,636,655,676,697,716,735,755,775,797,816,836,855,876,895,916,936,956,977,996,1016,1035],"xSR":741.5,"ySR":469.95,"xT1":424.9,"yT1":0,"xT2":1058.1,"yT2":0,"toosoon":0,"cond_shown":"equaldotanddens","ratio_trial":500,"smaller_num":"1","larger_num":"2","correct_side":2,"subjID":"mariapuentesobando9","gender":"1","age":"9","school":"4"},{"start_time":1552073942051,"click_time":1552073943413,"finger_time":1552073942932,"fix_duration":537.0146589851049,"trial":61,"RT":881,"MT":481,"sideResp":1,"stimulus":"img/500/equaldotanddens/L/5_Ratio_500_L_4_R_2.png","xmouse":[788,788,788,788,788,788,788,788,788,788,788,788,788,788,788,788,788,788,788,788,788,788,788,788,788,788,788,788,788,788,788,788,788,788,788,788,787,786,783,783,782,780,770,763,757,747,744,717,702,683,664,646,631,605,592,579,567,552,544,544,544,544,544,542,542,541,538,532,521],"ymouse":[543,543,543,543,543,543,543,543,543,543,543,543,543,543,543,543,543,543,542,542,542,541,541,540,539,538,537,536,536,536,536,536,536,536,534,533,532,530,522,516,509,503,485,471,456,428,417,363,337,312,284,259,238,193,151,117,98,73,55,51,49,49,49,48,47,46,46,46,51],"timestamp_mouse":[10,21,42,62,83,101,122,142,162,181,202,222,242,262,282,301,321,342,363,381,401,421,443,462,482,501,522,541,562,583,601,621,643,662,682,702,722,741,763,781,803,822,842,861,881,901,921,943,962,981,1002,1022,1041,1061,1082,1101,1122,1141,1161,1182,1201,1223,1243,1263,1283,1302,1321,1341,1362],"xSR":741.5,"ySR":469.95,"xT1":424.9,"yT1":0,"xT2":1058.1,"yT2":0,"toosoon":0,"cond_shown":"equaldotanddens","ratio_trial":500,"smaller_num":"2","larger_num":"4","correct_side":1,"subjID":"mariapuentesobando9","gender":"1","age":"9","school":"4"},{"start_time":1552073945772,"click_time":1552073946973,"finger_time":1552073946512,"fix_duration":1375.9159096090489,"trial":62,"RT":740,"MT":461,"sideResp":1,"stimulus":"img/750/equaldotsize/L/14_Ratio_750_L_8_R_6.png","xmouse":[809,809,809,809,809,809,809,809,809,809,809,809,809,809,809,809,809,809,809,809,809,809,809,809,809,809,809,809,808,807,806,805,805,805,805,805,807,816,819,820,821,821,821,821,821,821,821,812,798,779,753,722,670,644,624,606,589,558,544,531,524],"ymouse":[517,517,517,518,518,518,518,518,518,518,518,518,518,518,518,518,518,518,518,518,518,518,518,518,518,518,518,518,518,518,518,517,512,505,497,486,475,457,451,450,449,449,448,448,447,447,445,435,405,368,325,277,209,179,155,135,116,91,81,74,71],"timestamp_mouse":[11,21,40,61,81,101,120,140,161,180,202,222,240,261,280,301,320,341,362,381,401,421,441,460,481,501,522,541,561,581,601,621,642,661,681,700,722,740,762,780,801,820,841,862,882,901,921,940,962,980,1001,1020,1040,1060,1082,1101,1121,1140,1161,1180,1201],"xSR":741.5,"ySR":469.95,"xT1":424.9,"yT1":0,"xT2":1058.1,"yT2":0,"toosoon":0,"cond_shown":"equaldotsize","ratio_trial":750,"smaller_num":"6","larger_num":"8","correct_side":1,"subjID":"mariapuentesobando9","gender":"1","age":"9","school":"4"},{"start_time":1552073948492,"click_time":1552073949674,"finger_time":1552073949112,"fix_duration":517.8370911730735,"trial":63,"RT":620,"MT":562,"sideResp":2,"stimulus":"img/500/randomdotsizeEA/L/4_Ratio_500_L_18_R_9.png","xmouse":[803,803,803,803,803,803,803,803,803,803,803,803,803,803,803,803,803,803,803,803,803,803,803,803,803,803,803,804,806,814,836,848,859,868,878,902,918,932,942,952,971,985,990,995,1001,1010,1014,1016,1021,1023,1031,1037,1040,1043,1045,1050,1054,1057,1060],"ymouse":[516,516,516,516,516,516,516,516,516,516,516,516,516,516,516,516,516,516,516,516,516,516,516,516,516,516,516,513,509,496,466,449,434,420,404,366,337,307,284,261,220,187,170,153,139,111,97,88,77,71,57,50,45,42,40,37,36,36,36],"timestamp_mouse":[20,41,62,80,100,121,140,162,182,201,220,241,262,282,301,321,340,362,382,400,421,440,461,481,502,521,540,560,581,600,620,640,660,680,701,720,740,760,780,800,821,841,860,881,900,922,940,960,981,1002,1022,1041,1060,1080,1100,1121,1142,1161,1182],"xSR":741.5,"ySR":469.95,"xT1":424.9,"yT1":0,"xT2":1058.1,"yT2":0,"toosoon":0,"cond_shown":"randomdotsizeEA","ratio_trial":500,"smaller_num":"9","larger_num":"18","correct_side":1,"subjID":"mariapuentesobando9","gender":"1","age":"9","school":"4"},{"start_time":1552073950772,"click_time":1552073952033,"finger_time":1552073951934,"fix_duration":257.8987991626247,"trial":64,"RT":1162,"MT":99,"sideResp":2,"stimulus":"img/900/equaldotanddens/L/8_Ratio_900_L_20_R_18.png","xmouse":[772,772,772,772,772,772,772,772,772,772,772,772,772,772,772,772,772,772,772,772,772,772,772,772,772,772,772,772,772,772,772,772,772,772,772,772,772,772,772,772,772,772,772,772,772,772,772,772,772,772,772,772,772,772,772,772,779,811,905,952,997,1039,1074,1120],"ymouse":[530,530,529,529,529,529,529,529,529,529,529,529,529,529,529,529,529,529,529,529,529,529,529,529,529,529,529,529,529,529,529,529,529,529,529,529,529,529,529,529,529,529,529,529,529,529,529,529,529,529,529,529,529,529,529,526,518,479,355,301,252,197,145,72],"timestamp_mouse":[9,22,40,61,81,100,122,141,161,181,201,221,241,262,281,301,321,341,360,382,400,421,441,461,481,502,520,540,561,581,602,622,642,661,680,700,721,741,760,780,802,820,840,862,880,900,920,940,961,980,1000,1021,1042,1061,1082,1101,1121,1141,1162,1180,1201,1220,1241,1261],"xSR":741.5,"ySR":469.95,"xT1":424.9,"yT1":0,"xT2":1058.1,"yT2":0,"toosoon":0,"cond_shown":"equaldotanddens","ratio_trial":900,"smaller_num":"18","larger_num":"20","correct_side":1,"subjID":"mariapuentesobando9","gender":"1","age":"9","school":"4"},{"start_time":1552073953394,"click_time":1552073954433,"finger_time":1552073954173,"fix_duration":259.6568485272823,"trial":65,"RT":779,"MT":260,"sideResp":2,"stimulus":"img/250/equaldotsize/R/9_Ratio_250_L_3_R_12.png","xmouse":[771,771,771,771,771,771,771,771,771,771,771,771,771,771,771,771,771,771,771,771,771,771,771,771,771,771,771,771,771,771,771,771,771,771,771,774,780,790,807,838,902,935,973,1022,1039,1051,1053,1054,1055,1057,1061],"ymouse":[530,530,530,530,530,530,530,530,530,530,530,530,530,530,530,530,530,530,530,530,530,530,530,530,530,530,530,530,530,530,530,530,530,530,529,508,484,452,414,368,279,239,204,161,148,135,129,123,116,108,90],"timestamp_mouse":[38,60,78,99,120,140,159,179,200,220,239,259,279,298,319,339,358,380,398,418,439,460,479,499,520,539,558,578,598,619,640,660,679,700,719,739,759,779,798,819,839,858,879,899,918,938,958,979,999,1018,1038],"xSR":741.5,"ySR":469.95,"xT1":424.9,"yT1":0,"xT2":1058.1,"yT2":0,"toosoon":0,"cond_shown":"equaldotsize","ratio_trial":250,"smaller_num":"3","larger_num":"12","correct_side":2,"subjID":"mariapuentesobando9","gender":"1","age":"9","school":"4"},{"start_time":1552073956572,"click_time":1552073957973,"finger_time":1552073957113,"fix_duration":1417.4124498664498,"trial":66,"RT":541,"MT":860,"sideResp":2,"stimulus":"img/250/randomdotsizeEA/R/8_Ratio_250_L_1_R_4.png","xmouse":[794,794,794,794,794,794,794,794,794,794,794,794,794,794,794,794,794,794,794,794,794,794,794,794,794,794,798,804,816,817,818,816,808,772,755,738,728,722,716,714,714,713,711,711,711,711,712,722,736,768,787,808,832,954,1029,1104,1165,1209,1252,1257,1258,1258,1259,1259,1259,1255,1248,1234,1192,1170,1152],"ymouse":[506,504,504,503,503,503,503,503,503,503,503,503,503,503,503,503,503,503,503,503,503,503,503,503,503,498,487,464,408,390,375,360,343,303,290,277,269,264,259,257,256,255,254,254,254,254,254,254,254,255,257,257,255,192,147,104,69,46,29,28,26,26,26,25,24,24,25,31,48,54,58],"timestamp_mouse":[1,33,42,60,81,101,122,141,160,180,200,220,240,260,281,302,321,341,360,380,400,422,440,460,481,501,520,540,561,580,602,620,640,661,681,700,721,741,760,780,800,820,841,862,882,901,920,942,960,980,1001,1020,1041,1061,1081,1100,1122,1141,1161,1181,1202,1222,1240,1260,1280,1300,1321,1341,1361,1380,1401],"xSR":741.5,"ySR":469.95,"xT1":424.9,"yT1":0,"xT2":1058.1,"yT2":0,"toosoon":0,"cond_shown":"randomdotsizeEA","ratio_trial":250,"smaller_num":"1","larger_num":"4","correct_side":2,"subjID":"mariapuentesobando9","gender":"1","age":"9","school":"4"},{"start_time":1552073960219,"click_time":1552073961472,"finger_time":1552073961052,"fix_duration":885.0687668158321,"trial":67,"RT":833,"MT":420,"sideResp":2,"stimulus":"img/900/randomdotsizeEA/L/4_Ratio_900_L_20_R_18.png","xmouse":[772,772,772,772,772,772,772,772,772,772,772,772,772,772,772,772,772,772,772,772,772,772,772,772,773,781,786,791,794,795,797,798,799,799,800,800,800,801,803,805,816,824,833,841,846,851,853,857,865,882,932,957,982,1004,1023,1038,1056,1063,1074,1089,1113,1139,1146],"ymouse":[519,519,519,519,519,519,519,519,519,519,519,519,519,519,519,519,519,519,519,519,519,519,519,518,516,511,509,507,505,505,504,502,501,501,500,498,498,497,494,490,471,457,444,432,425,416,414,410,400,386,343,326,305,284,267,251,231,222,207,187,150,107,92],"timestamp_mouse":[14,33,55,74,94,113,133,153,175,194,214,235,253,274,295,314,335,353,373,394,414,435,454,475,494,514,533,553,575,594,614,633,653,675,693,714,734,754,773,795,814,833,853,874,894,914,933,955,973,994,1015,1034,1055,1074,1095,1114,1133,1154,1174,1194,1215,1234,1253],"xSR":741.5,"ySR":469.95,"xT1":424.9,"yT1":0,"xT2":1058.1,"yT2":0,"toosoon":0,"cond_shown":"randomdotsizeEA","ratio_trial":900,"smaller_num":"18","larger_num":"20","correct_side":1,"subjID":"mariapuentesobando9","gender":"1","age":"9","school":"4"},{"start_time":1552073964020,"click_time":1552073965073,"finger_time":1552073964652,"fix_duration":1466.5037891597353,"trial":68,"RT":632,"MT":421,"sideResp":1,"stimulus":"img/250/randomdotsizeEA/L/2_Ratio_250_L_16_R_4.png","xmouse":[780,780,780,780,780,781,781,781,781,781,781,781,781,781,781,781,781,781,781,781,781,781,781,781,781,781,781,781,781,783,788,832,862,888,903,912,912,912,912,912,909,878,852,806,748,687,596,566,540,533,530,525,522],"ymouse":[503,503,503,499,497,493,483,481,478,477,477,477,475,475,475,475,475,475,475,475,475,475,475,475,475,475,475,475,475,475,470,417,378,348,333,325,323,322,322,321,320,312,303,283,252,217,141,108,73,60,53,43,38],"timestamp_mouse":[14,35,54,72,93,113,132,153,172,193,213,232,253,272,294,312,332,353,373,394,412,432,453,473,494,513,532,552,573,594,613,632,652,673,693,714,733,753,774,793,813,833,852,873,893,914,933,952,972,994,1013,1032,1053],"xSR":741.5,"ySR":469.95,"xT1":424.9,"yT1":0,"xT2":1058.1,"yT2":0,"toosoon":0,"cond_shown":"randomdotsizeEA","ratio_trial":250,"smaller_num":"4","larger_num":"16","correct_side":1,"subjID":"mariapuentesobando9","gender":"1","age":"9","school":"4"},{"start_time":1552073967430,"click_time":1552073968273,"finger_time":1552073968112,"fix_duration":875.7618015162914,"trial":69,"RT":682,"MT":161,"sideResp":1,"stimulus":"img/500/equaldotanddens/L/4_Ratio_500_L_18_R_9.png","xmouse":[791,791,791,791,791,791,791,791,791,791,791,791,791,791,791,791,791,791,791,791,791,791,791,791,791,791,791,791,791,791,791,791,792,791,784,769,745,657,630,600,574,535,522],"ymouse":[516,516,516,516,516,516,516,516,516,516,516,516,516,516,516,516,516,516,516,516,516,516,516,516,516,516,516,516,516,516,516,516,509,496,458,399,335,168,125,100,85,68,62],"timestamp_mouse":[9,24,46,63,83,103,123,144,164,183,203,223,243,263,282,302,323,342,363,383,403,423,443,464,483,503,523,544,563,584,603,623,642,663,682,704,723,743,762,783,803,824,843],"xSR":741.5,"ySR":469.95,"xT1":424.9,"yT1":0,"xT2":1058.1,"yT2":0,"toosoon":0,"cond_shown":"equaldotanddens","ratio_trial":500,"smaller_num":"9","larger_num":"18","correct_side":1,"subjID":"mariapuentesobando9","gender":"1","age":"9","school":"4"},{"start_time":1552073970153,"click_time":1552073971273,"finger_time":1552073970593,"fix_duration":816.0735176449668,"trial":70,"RT":440,"MT":680,"sideResp":2,"stimulus":"img/900/randomdotsizeEA/R/6_Ratio_900_L_9_R_10.png","xmouse":[806,806,806,806,806,805,805,805,804,804,802,800,799,798,798,798,797,795,792,790,788,778,772,766,761,754,752,752,751,751,750,750,750,753,759,767,780,787,794,805,827,841,859,878,901,920,976,996,1018,1032,1042,1053,1056,1058,1061,1064,1070],"ymouse":[526,526,526,526,526,526,526,526,525,525,524,523,522,522,522,522,521,520,518,516,508,482,469,457,448,436,434,433,432,432,431,430,427,424,420,414,402,394,385,376,363,355,343,329,312,297,253,233,206,186,170,146,135,125,116,109,95],"timestamp_mouse":[15,25,41,61,80,101,120,140,161,181,200,220,240,260,279,301,320,341,359,381,400,420,440,460,480,502,519,540,559,580,600,621,640,660,680,701,719,741,760,781,801,819,840,861,880,900,919,939,961,980,1000,1020,1040,1061,1081,1100,1120],"xSR":741.5,"ySR":469.95,"xT1":424.9,"yT1":0,"xT2":1058.1,"yT2":0,"toosoon":0,"cond_shown":"randomdotsizeEA","ratio_trial":900,"smaller_num":"9","larger_num":"10","correct_side":2,"subjID":"mariapuentesobando9","gender":"1","age":"9","school":"4"},{"start_time":1552073972520,"click_time":1552073974413,"finger_time":1552073973253,"fix_duration":486.98514130117866,"trial":71,"RT":733,"MT":1160,"sideResp":1,"stimulus":"img/500/randomdotsizeEA/L/11_Ratio_500_L_12_R_6.png","xmouse":[801,801,801,801,801,801,801,801,801,801,801,801,801,801,801,801,801,801,801,801,801,801,801,801,801,801,801,801,801,801,801,801,802,808,824,836,850,874,887,891,896,900,903,903,903,903,904,905,911,916,920,924,926,926,926,926,926,921,912,903,893,883,864,857,853,851,848,846,846,846,846,846,846,846,845,842,832,818,767,744,718,686,645,630,619,610,602,585,573,564,554,544,536,524,516],"ymouse":[539,539,539,539,539,539,539,539,539,539,539,539,539,539,539,539,539,539,539,539,539,539,539,539,539,539,539,539,539,539,539,539,538,534,527,520,513,499,491,488,484,481,477,477,477,476,474,472,459,452,446,441,437,436,436,435,433,427,423,420,417,414,409,407,406,405,405,403,403,403,403,403,403,403,403,403,397,389,363,349,335,317,287,274,261,251,240,219,201,187,168,151,135,109,96],"timestamp_mouse":[14,47,53,74,93,113,133,154,172,192,214,234,253,273,293,313,334,352,374,393,413,434,452,472,494,513,534,552,573,594,613,633,654,673,693,714,733,752,774,792,814,833,853,874,893,912,933,953,973,992,1014,1033,1053,1073,1093,1113,1132,1153,1174,1193,1214,1233,1253,1273,1292,1312,1332,1353,1373,1394,1413,1433,1454,1474,1494,1513,1533,1553,1572,1592,1614,1633,1653,1673,1692,1713,1734,1753,1774,1793,1813,1833,1853,1873,1893],"xSR":741.5,"ySR":469.95,"xT1":424.9,"yT1":0,"xT2":1058.1,"yT2":0,"toosoon":0,"cond_shown":"randomdotsizeEA","ratio_trial":500,"smaller_num":"6","larger_num":"12","correct_side":1,"subjID":"mariapuentesobando9","gender":"1","age":"9","school":"4"},{"start_time":1552073976649,"click_time":1552073977613,"finger_time":1552073977254,"fix_duration":1273.1512792455185,"trial":72,"RT":605,"MT":359,"sideResp":2,"stimulus":"img/250/equaldotanddens/R/12_Ratio_250_L_5_R_20.png","xmouse":[801,801,801,801,801,801,801,801,801,801,801,801,801,801,801,801,801,801,801,801,801,801,801,801,801,801,801,801,805,814,891,1029,1095,1152,1195,1222,1246,1249,1250,1250,1250,1250,1250,1250,1250,1250,1250,1166,1151],"ymouse":[528,528,528,528,528,528,528,528,528,528,528,528,528,528,528,528,528,528,528,528,528,528,528,528,528,528,528,528,523,511,421,