[{"start_time":1552069654335,"click_time":1552069661123,"finger_time":1552069654347,"fix_duration":667.7380966821967,"trial":0,"RT":12,"MT":6776,"sideResp":2,"stimulus":"img/750/equaldotanddens/R/5_Ratio_750_L_15_R_20.png","xmouse":[786,786,786,786,786,786,786,786,786,786,786,786,786,786,786,786,786,786,786,786,786,786,786,786,786,786,786,786,786,786,786,786,786,786,786,786,786,786,786,786,786,786,786,786,786,786,786,786,786,786,785,785,783,781,780,780,779,779,779,779,778,777,777,777,777,777,777,776,776,776,776,776,776,775,775,775,775,775,775,775,775,775,775,775,774,774,774,774,775,775,775,775,775,775,775,775,775,775,775,775,775,775,777,777,777,777,777,777,777,777,777,777,777,777,777,777,777,777,777,777,777,777,777,777,777,777,777,777,777,777,777,777,777,777,777,777,777,777,777,777,777,777,777,777,777,777,777,777,777,777,777,777,777,777,777,777,777,777,777,777,777,777,777,777,777,777,778,778,779,779,779,779,779,779,779,779,781,784,786,788,789,789,789,789,789,789,792,796,800,803,805,805,810,816,824,833,842,868,883,904,911,931,946,947,947,947,951,965,977,992,1006,1028,1048,1052,1052,1052,1052,1053,1053,1054,1054,1054,1054,1054,1052,1052,1051,1047,1043,1039,1033,1023,1004,995,987,981,976,963,957,954,954,954,956,957,958,958,958,958,958,951,941,919,844,816,799,792,789,788,787,785,783,779,772,771,771,771,772,772,773,773,773,771,768,766,765,765,765,765,765,765,765,765,767,773,780,790,802,841,879,950,1005,1064,1187,1242,1279,1305,1305,1329,1330,1331,1331,1331,1331,1327,1319,1302,1285,1268,1235,1218,1212,1210,1209,1208,1208,1208,1208,1208,1208,1208,1208,1208,1208,1208,1208,1209,1209,1209,1209,1209,1209,1209,1207,1199,1191,1188,1182,1175,1163,1154],"ymouse":[570,570,570,570,570,570,570,570,570,570,570,570,570,570,570,570,570,570,570,570,570,570,570,570,570,570,570,570,570,570,570,570,570,570,570,570,570,570,570,570,570,570,570,570,570,570,570,570,570,570,570,570,570,573,574,575,576,577,578,579,581,582,586,586,588,589,590,594,595,596,597,598,598,599,599,599,600,600,600,600,600,600,600,602,603,605,609,614,615,615,615,615,615,615,615,615,615,615,615,615,615,616,616,615,615,615,615,615,615,615,615,615,615,615,615,615,615,615,615,615,615,615,615,615,615,615,615,615,615,615,615,615,615,615,615,615,615,615,615,615,615,615,615,615,615,615,615,615,615,615,615,615,615,615,615,615,615,615,615,615,615,615,615,615,615,615,613,613,612,612,612,612,612,612,612,612,610,607,603,598,594,592,592,592,592,592,588,581,573,569,565,565,561,556,551,546,538,514,494,462,450,423,409,409,409,409,407,392,374,353,328,291,258,253,253,253,253,252,252,252,254,257,263,265,268,269,274,282,287,292,297,305,319,328,340,355,371,398,406,410,412,413,420,421,425,427,427,430,436,450,461,475,507,515,518,521,522,523,525,527,531,540,561,567,571,573,574,576,579,587,596,607,616,625,629,630,630,630,630,630,630,630,624,616,605,590,569,516,468,379,317,255,135,82,43,5,5,0,0,0,0,0,0,0,2,11,22,28,39,41,42,42,43,43,43,43,43,43,43,43,43,43,43,43,43,43,43,43,43,43,43,43,45,46,48,50,50,51,53,53],"timestamp_mouse":[12,30,50,68,88,109,129,148,169,189,208,229,248,269,288,309,329,349,369,388,410,429,448,468,490,509,529,549,569,589,609,629,649,669,688,709,729,748,768,788,808,829,850,868,888,908,928,949,968,989,1008,1029,1050,1068,1089,1109,1128,1149,1168,1188,1209,1228,1248,1269,1289,1309,1329,1349,1368,1388,1409,1428,1448,1469,1488,1509,1529,1548,1569,1589,1609,1629,1648,1669,1689,1709,1729,1748,1769,1789,1809,1828,1848,1869,1889,1909,1929,1948,1969,1989,2010,2028,2048,2068,2088,2108,2128,2148,2168,2188,2210,2229,2249,2268,2289,2309,2329,2348,2368,2388,2409,2429,2448,2468,2488,2509,2529,2548,2569,2589,2610,2628,2648,2668,2689,2708,2728,2748,2768,2788,2808,2828,2849,2869,2889,2908,2928,2948,2970,2988,3009,3030,3048,3069,3089,3108,3128,3148,3169,3188,3208,3228,3249,3268,3289,3308,3329,3349,3369,3389,3409,3428,3448,3469,3488,3508,3529,3548,3568,3588,3609,3629,3649,3668,3689,3708,3729,3748,3769,3789,3808,3829,3848,3868,3890,3909,3928,3949,3968,3988,4008,4029,4049,4068,4089,4109,4128,4148,4168,4188,4208,4229,4249,4269,4289,4308,4328,4348,4369,4388,4409,4429,4449,4469,4489,4509,4529,4548,4568,4589,4608,4629,4648,4669,4688,4709,4729,4748,4769,4788,4808,4829,4848,4869,4889,4909,4929,4948,4969,4989,5009,5029,5048,5068,5088,5108,5128,5148,5168,5188,5209,5228,5248,5268,5289,5308,5328,5348,5369,5388,5408,5428,5448,5468,5489,5508,5529,5549,5569,5589,5609,5628,5648,5669,5688,5709,5729,5748,5768,5788,5809,5828,5849,5868,5889,5909,5929,5949,5968,5989,6008,6029,6049,6068,6089,6109,6128,6149,6169,6188,6209,6228,6248,6268,6288,6308,6329,6349,6368,6389,6409,6429,6449,6469,6489,6509,6528,6549,6568,6589,6609,6628,6648,6668,6689,6709,6730,6748,6768,6788],"xSR":741.5,"ySR":500.5,"xT1":424.9,"yT1":0,"xT2":1058.1,"yT2":0,"toosoon":0,"cond_shown":"equaldotanddens","ratio_trial":750,"smaller_num":"15","larger_num":"20","correct_side":2,"subjID":"AnaLuciaRincon29","gender":"1","age":"8","school":"4","test":{"fix_dur":[250,1500],"timestim":300,"targets_dim":[100,100],"targets_relative_coord":[0.3,0.7],"size_stim":[880,420],"start_dim":[100,100],"size_start":[300,300],"size_fix":60,"samplingrate":20,"img_types":["equaldotsize","equaldotanddens","randomdotsizeEA"],"ratios":[250,500,750,900],"rep_conds":9,"nTrials":120,"trials_to_rest":500,"Trials_order":[67,76,78,84,55,101,110,30,74,86,14,13,73,54,27,115,108,18,0,79,81,119,69,50,28,95,72,38,111,8,70,1,65,105,29,34,51,39,32,109,26,12,7,52,112,44,64,58,35,16,59,22,75,117,89,46,21,25,118,97,106,82,83,53,6,15,62,107,40,41,77,20,68,98,93,96,66,71,17,24,85,90,33,9,4,102,94,80,37,60,61,48,45,100,43,3,57,88,10,2,31,23,36,5,113,103,92,19,42,63,91,104,87,114,99,47,11,56,116,49],"cond_shown":["equaldotanddens","equaldotanddens","equaldotsize","equaldotsize","equaldotanddens","randomdotsizeEA","randomdotsizeEA","equaldotsize","randomdotsizeEA","randomdotsizeEA","randomdotsizeEA","equaldotanddens","equaldotanddens","equaldotsize","equaldotsize","equaldotanddens","equaldotsize","equaldotsize","equaldotsize","equaldotanddens","equaldotsize","randomdotsizeEA","equaldotsize","randomdotsizeEA","equaldotanddens","randomdotsizeEA","equaldotsize","randomdotsizeEA","equaldotsize","randomdotsizeEA","equaldotanddens","equaldotanddens","randomdotsizeEA","equaldotsize","randomdotsizeEA","equaldotanddens","equaldotsize","equaldotsize","randomdotsizeEA","equaldotanddens","randomdotsizeEA","equaldotsize","equaldotanddens","equaldotanddens","equaldotanddens","randomdotsizeEA","equaldotanddens","equaldotanddens","randomdotsizeEA","equaldotanddens","randomdotsizeEA","equaldotanddens","equaldotsize","equaldotsize","randomdotsizeEA","equaldotanddens","equaldotsize","equaldotanddens","equaldotanddens","equaldotanddens","equaldotanddens","equaldotanddens","randomdotsizeEA","randomdotsizeEA","equaldotsize","equaldotsize","randomdotsizeEA","randomdotsizeEA","equaldotanddens","randomdotsizeEA","randomdotsizeEA","randomdotsizeEA","randomdotsizeEA","randomdotsizeEA","equaldotsize","equaldotsize","equaldotsize","randomdotsizeEA","randomdotsizeEA","equaldotsize","equaldotanddens","equaldotsize","equaldotsize","equaldotsize","equaldotanddens","equaldotsize","equaldotanddens","randomdotsizeEA","equaldotanddens","equaldotsize","equaldotanddens","equaldotsize","equaldotsize","equaldotanddens","equaldotanddens","equaldotsize","equaldotsize","equaldotanddens","equaldotanddens","randomdotsizeEA","equaldotanddens","randomdotsizeEA","equaldotsize","randomdotsizeEA","randomdotsizeEA","equaldotanddens","randomdotsizeEA","equaldotanddens","equaldotsize","equaldotsize","equaldotanddens","randomdotsizeEA","equaldotsize","equaldotsize","equaldotsize","randomdotsizeEA","randomdotsizeEA","randomdotsizeEA","randomdotsizeEA","equaldotanddens"],"ratio_trial":[750,500,750,250,750,500,250,750,250,250,250,250,250,750,500,750,250,750,250,750,900,900,900,250,500,900,250,250,500,750,900,250,500,900,500,900,500,500,750,250,250,250,750,500,500,750,500,900,900,500,900,900,500,900,500,900,900,250,900,250,900,900,900,500,750,500,250,900,500,500,500,750,750,250,900,250,750,900,500,250,250,750,900,900,500,750,900,750,250,250,250,250,900,500,750,500,900,500,900,250,750,900,250,500,500,750,750,750,750,500,750,750,500,750,500,900,900,750,750,250],"smaller_num":["15","9","15","3","3","4","1","9","3","4","1","2","5","3","3","18","2","6","1","15","9","18","18","3","5","18","3","3","1","15","18","3","5","18","5","18","5","5","6","6","3","4","15","3","4","6","10","18","18","9","18","18","6","9","2","9","18","3","18","2","9","18","9","10","9","6","6","18","9","2","5","6","15","3","18","3","6","9","5","6","3","3","18","18","2","3","18","6","2","3","4","2","9","1","3","9","9","2","18","6","3","18","2","2","9","9","3","15","9","9","12","3","9","6","10","18","18","15","9","3"],"larger_num":["20","18","20","12","4","8","4","12","12","16","4","8","20","4","6","24","8","8","4","20","10","20","20","12","10","20","12","12","2","20","20","12","10","20","10","20","10","10","8","24","12","16","20","6","8","8","20","20","20","18","20","20","12","10","4","10","20","12","20","8","10","20","10","20","12","12","24","20","18","4","10","8","20","12","20","12","8","10","10","24","12","4","20","20","4","4","20","8","8","12","16","8","10","2","4","18","10","4","20","24","4","20","8","4","18","12","4","20","12","18","16","4","18","8","20","20","20","20","12","12"],"correct_side":[2,2,2,2,1,1,2,2,1,1,2,2,2,1,2,1,1,1,2,2,1,1,2,2,1,2,1,2,2,2,2,2,1,1,2,1,1,2,1,2,2,1,1,2,1,1,2,1,1,1,1,2,1,2,1,2,1,2,1,1,2,1,1,2,2,1,1,1,2,1,2,2,2,1,2,2,2,2,1,1,2,1,1,2,1,1,1,2,1,2,1,2,2,2,1,2,2,2,2,2,1,1,1,1,2,2,1,2,2,1,2,1,1,2,2,1,2,1,2,2],"img_shown":["img/750/equaldotanddens/R/5_Ratio_750_L_15_R_20.png","img/500/equaldotanddens/R/1_Ratio_500_L_9_R_18.png","img/750/equaldotsize/R/4_Ratio_750_L_15_R_20.png","img/250/equaldotsize/R/11_Ratio_250_L_3_R_12.png","img/750/equaldotanddens/L/10_Ratio_750_L_4_R_3.png","img/500/randomdotsizeEA/L/8_Ratio_500_L_8_R_4.png","img/250/randomdotsizeEA/R/8_Ratio_250_L_1_R_4.png","img/750/equaldotsize/R/15_Ratio_750_L_9_R_12.png","img/250/randomdotsizeEA/L/15_Ratio_250_L_12_R_3.png","img/250/randomdotsizeEA/L/2_Ratio_250_L_16_R_4.png","img/250/randomdotsizeEA/R/8_Ratio_250_L_1_R_4.png","img/250/equaldotanddens/R/13_Ratio_250_L_2_R_8.png","img/250/equaldotanddens/R/12_Ratio_250_L_5_R_20.png","img/750/equaldotsize/L/9_Ratio_750_L_4_R_3.png","img/500/equaldotsize/R/2_Ratio_500_L_3_R_6.png","img/750/equaldotanddens/L/6_Ratio_750_L_24_R_18.png","img/250/equaldotsize/L/1_Ratio_250_L_8_R_2.png","img/750/equaldotsize/L/14_Ratio_750_L_8_R_6.png","img/250/equaldotsize/R/8_Ratio_250_L_1_R_4.png","img/750/equaldotanddens/R/4_Ratio_750_L_15_R_20.png","img/900/equaldotsize/L/1_Ratio_900_L_10_R_9.png","img/900/randomdotsizeEA/L/2_Ratio_900_L_20_R_18.png","img/900/equaldotsize/R/11_Ratio_900_L_18_R_20.png","img/250/randomdotsizeEA/R/9_Ratio_250_L_3_R_12.png","img/500/equaldotanddens/L/7_Ratio_500_L_10_R_5.png","img/900/randomdotsizeEA/R/13_Ratio_900_L_18_R_20.png","img/250/equaldotsize/L/14_Ratio_250_L_12_R_3.png","img/250/randomdotsizeEA/R/9_Ratio_250_L_3_R_12.png","img/500/equaldotsize/R/12_Ratio_500_L_1_R_2.png","img/750/randomdotsizeEA/R/5_Ratio_750_L_15_R_20.png","img/900/equaldotanddens/R/12_Ratio_900_L_18_R_20.png","img/250/equaldotanddens/R/4_Ratio_250_L_3_R_12.png","img/500/randomdotsizeEA/L/7_Ratio_500_L_10_R_5.png","img/900/equaldotsize/L/2_Ratio_900_L_20_R_18.png","img/500/randomdotsizeEA/R/14_Ratio_500_L_5_R_10.png","img/900/equaldotanddens/L/4_Ratio_900_L_20_R_18.png","img/500/equaldotsize/L/7_Ratio_500_L_10_R_5.png","img/500/equaldotsize/R/14_Ratio_500_L_5_R_10.png","img/750/randomdotsizeEA/L/13_Ratio_750_L_8_R_6.png","img/250/equaldotanddens/R/6_Ratio_250_L_6_R_24.png","img/250/randomdotsizeEA/R/11_Ratio_250_L_3_R_12.png","img/250/equaldotsize/L/2_Ratio_250_L_16_R_4.png","img/750/equaldotanddens/L/1_Ratio_750_L_20_R_15.png","img/500/equaldotanddens/R/2_Ratio_500_L_3_R_6.png","img/500/equaldotanddens/L/8_Ratio_500_L_8_R_4.png","img/750/randomdotsizeEA/L/14_Ratio_750_L_8_R_6.png","img/500/equaldotanddens/R/3_Ratio_500_L_10_R_20.png","img/900/equaldotanddens/L/2_Ratio_900_L_20_R_18.png","img/900/randomdotsizeEA/L/2_Ratio_900_L_20_R_18.png","img/500/equaldotanddens/L/4_Ratio_500_L_18_R_9.png","img/900/randomdotsizeEA/L/4_Ratio_900_L_20_R_18.png","img/900/equaldotanddens/R/13_Ratio_900_L_18_R_20.png","img/500/equaldotsize/L/13_Ratio_500_L_12_R_6.png","img/900/equaldotsize/R/15_Ratio_900_L_9_R_10.png","img/500/randomdotsizeEA/L/5_Ratio_500_L_4_R_2.png","img/900/equaldotanddens/R/15_Ratio_900_L_9_R_10.png","img/900/equaldotsize/L/4_Ratio_900_L_20_R_18.png","img/250/equaldotanddens/R/9_Ratio_250_L_3_R_12.png","img/900/equaldotanddens/L/10_Ratio_900_L_20_R_18.png","img/250/equaldotanddens/L/3_Ratio_250_L_8_R_2.png","img/900/equaldotanddens/R/6_Ratio_900_L_9_R_10.png","img/900/equaldotanddens/L/10_Ratio_900_L_20_R_18.png","img/900/randomdotsizeEA/L/1_Ratio_900_L_10_R_9.png","img/500/randomdotsizeEA/R/3_Ratio_500_L_10_R_20.png","img/750/equaldotsize/R/15_Ratio_750_L_9_R_12.png","img/500/equaldotsize/L/11_Ratio_500_L_12_R_6.png","img/250/randomdotsizeEA/L/5_Ratio_250_L_24_R_6.png","img/900/randomdotsizeEA/L/8_Ratio_900_L_20_R_18.png","img/500/equaldotanddens/R/6_Ratio_500_L_9_R_18.png","img/500/randomdotsizeEA/L/10_Ratio_500_L_4_R_2.png","img/500/randomdotsizeEA/R/14_Ratio_500_L_5_R_10.png","img/750/randomdotsizeEA/R/2_Ratio_750_L_6_R_8.png","img/750/randomdotsizeEA/R/5_Ratio_750_L_15_R_20.png","img/250/randomdotsizeEA/L/15_Ratio_250_L_12_R_3.png","img/900/equaldotsize/R/11_Ratio_900_L_18_R_20.png","img/250/equaldotsize/R/11_Ratio_250_L_3_R_12.png","img/750/equaldotsize/R/2_Ratio_750_L_6_R_8.png","img/900/randomdotsizeEA/R/3_Ratio_900_L_9_R_10.png","img/500/randomdotsizeEA/L/7_Ratio_500_L_10_R_5.png","img/250/equaldotsize/L/5_Ratio_250_L_24_R_6.png","img/250/equaldotanddens/R/4_Ratio_250_L_3_R_12.png","img/750/equaldotsize/L/8_Ratio_750_L_4_R_3.png","img/900/equaldotsize/L/10_Ratio_900_L_20_R_18.png","img/900/equaldotsize/R/13_Ratio_900_L_18_R_20.png","img/500/equaldotanddens/L/10_Ratio_500_L_4_R_2.png","img/750/equaldotsize/L/8_Ratio_750_L_4_R_3.png","img/900/equaldotanddens/L/8_Ratio_900_L_20_R_18.png","img/750/randomdotsizeEA/R/2_Ratio_750_L_6_R_8.png","img/250/equaldotanddens/L/3_Ratio_250_L_8_R_2.png","img/250/equaldotsize/R/9_Ratio_250_L_3_R_12.png","img/250/equaldotanddens/L/2_Ratio_250_L_16_R_4.png","img/250/equaldotsize/R/13_Ratio_250_L_2_R_8.png","img/900/equaldotsize/R/7_Ratio_900_L_9_R_10.png","img/500/equaldotanddens/R/15_Ratio_500_L_1_R_2.png","img/750/equaldotanddens/L/8_Ratio_750_L_4_R_3.png","img/500/equaldotsize/R/6_Ratio_500_L_9_R_18.png","img/900/equaldotsize/R/3_Ratio_900_L_9_R_10.png","img/500/equaldotanddens/R/9_Ratio_500_L_2_R_4.png","img/900/equaldotanddens/R/9_Ratio_900_L_18_R_20.png","img/250/randomdotsizeEA/R/6_Ratio_250_L_6_R_24.png","img/750/equaldotanddens/L/8_Ratio_750_L_4_R_3.png","img/900/randomdotsizeEA/L/2_Ratio_900_L_20_R_18.png","img/250/equaldotsize/L/3_Ratio_250_L_8_R_2.png","img/500/randomdotsizeEA/L/10_Ratio_500_L_4_R_2.png","img/500/randomdotsizeEA/R/6_Ratio_500_L_9_R_18.png","img/750/equaldotanddens/R/15_Ratio_750_L_9_R_12.png","img/750/randomdotsizeEA/L/9_Ratio_750_L_4_R_3.png","img/750/equaldotanddens/R/5_Ratio_750_L_15_R_20.png","img/750/equaldotsize/R/15_Ratio_750_L_9_R_12.png","img/500/equaldotsize/L/4_Ratio_500_L_18_R_9.png","img/750/equaldotanddens/R/11_Ratio_750_L_12_R_16.png","img/750/randomdotsizeEA/L/9_Ratio_750_L_4_R_3.png","img/500/equaldotsize/L/4_Ratio_500_L_18_R_9.png","img/750/equaldotsize/R/2_Ratio_750_L_6_R_8.png","img/500/equaldotsize/R/3_Ratio_500_L_10_R_20.png","img/900/randomdotsizeEA/L/2_Ratio_900_L_20_R_18.png","img/900/randomdotsizeEA/R/12_Ratio_900_L_18_R_20.png","img/750/randomdotsizeEA/L/1_Ratio_750_L_20_R_15.png","img/750/randomdotsizeEA/R/15_Ratio_750_L_9_R_12.png","img/250/equaldotanddens/R/4_Ratio_250_L_3_R_12.png"],"Rat0":[["12_Ratio_0_L_9_R_0.png","13_Ratio_0_L_6_R_0.png","5_Ratio_0_L_2_R_0.png","6_Ratio_0_L_4_R_0.png","8_Ratio_0_L_6_R_0.png"],["1_Ratio_0_L_0_R_17.png","10_Ratio_0_L_0_R_22.png","11_Ratio_0_L_0_R_1.png","14_Ratio_0_L_0_R_24.png","15_Ratio_0_L_0_R_4.png","2_Ratio_0_L_0_R_5.png","3_Ratio_0_L_0_R_17.png","4_Ratio_0_L_0_R_7.png","7_Ratio_0_L_0_R_19.png","9_Ratio_0_L_0_R_15.png"]],"Rat250":[["1_Ratio_250_L_8_R_2.png","14_Ratio_250_L_12_R_3.png","15_Ratio_250_L_12_R_3.png","2_Ratio_250_L_16_R_4.png","3_Ratio_250_L_8_R_2.png","5_Ratio_250_L_24_R_6.png","7_Ratio_250_L_8_R_2.png"],["10_Ratio_250_L_4_R_16.png","11_Ratio_250_L_3_R_12.png","12_Ratio_250_L_5_R_20.png","13_Ratio_250_L_2_R_8.png","4_Ratio_250_L_3_R_12.png","6_Ratio_250_L_6_R_24.png","8_Ratio_250_L_1_R_4.png","9_Ratio_250_L_3_R_12.png"]],"Rat500":[["10_Ratio_500_L_4_R_2.png","11_Ratio_500_L_12_R_6.png","13_Ratio_500_L_12_R_6.png","4_Ratio_500_L_18_R_9.png","5_Ratio_500_L_4_R_2.png","7_Ratio_500_L_10_R_5.png","8_Ratio_500_L_8_R_4.png"],["1_Ratio_500_L_9_R_18.png","12_Ratio_500_L_1_R_2.png","14_Ratio_500_L_5_R_10.png","15_Ratio_500_L_1_R_2.png","2_Ratio_500_L_3_R_6.png","3_Ratio_500_L_10_R_20.png","6_Ratio_500_L_9_R_18.png","9_Ratio_500_L_2_R_4.png"]],"Rat750":[["1_Ratio_750_L_20_R_15.png","10_Ratio_750_L_4_R_3.png","13_Ratio_750_L_8_R_6.png","14_Ratio_750_L_8_R_6.png","6_Ratio_750_L_24_R_18.png","8_Ratio_750_L_4_R_3.png","9_Ratio_750_L_4_R_3.png"],["11_Ratio_750_L_12_R_16.png","12_Ratio_750_L_3_R_4.png","15_Ratio_750_L_9_R_12.png","2_Ratio_750_L_6_R_8.png","3_Ratio_750_L_15_R_20.png","4_Ratio_750_L_15_R_20.png","5_Ratio_750_L_15_R_20.png","7_Ratio_750_L_3_R_4.png"]],"Rat900":[["1_Ratio_900_L_10_R_9.png","10_Ratio_900_L_20_R_18.png","2_Ratio_900_L_20_R_18.png","4_Ratio_900_L_20_R_18.png","8_Ratio_900_L_20_R_18.png"],["11_Ratio_900_L_18_R_20.png","12_Ratio_900_L_18_R_20.png","13_Ratio_900_L_18_R_20.png","14_Ratio_900_L_18_R_20.png","15_Ratio_900_L_9_R_10.png","3_Ratio_900_L_9_R_10.png","5_Ratio_900_L_9_R_10.png","6_Ratio_900_L_9_R_10.png","7_Ratio_900_L_9_R_10.png","9_Ratio_900_L_18_R_20.png"]],"Rat1000":[["10_Ratio_1000_L_16_R_16.png","11_Ratio_1000_L_6_R_6.png","12_Ratio_1000_L_14_R_14.png","13_Ratio_1000_L_20_R_20.png","15_Ratio_1000_L_15_R_15.png","2_Ratio_1000_L_17_R_17.png","4_Ratio_1000_L_9_R_9.png","5_Ratio_1000_L_6_R_6.png","6_Ratio_1000_L_19_R_19.png","8_Ratio_1000_L_14_R_14.png","9_Ratio_1000_L_25_R_25.png"],["1_Ratio_1000_L_1_R_1.png","14_Ratio_1000_L_17_R_17.png","3_Ratio_1000_L_17_R_17.png","7_Ratio_1000_L_6_R_6.png"]]}},{"start_time":1552069664495,"click_time":1552069666203,"finger_time":1552069665843,"fix_duration":1308.937342497166,"trial":1,"RT":1348,"MT":360,"sideResp":2,"stimulus":"img/500/equaldotanddens/R/1_Ratio_500_L_9_R_18.png","xmouse":[793,793,793,793,793,793,793,793,793,793,793,793,793,793,793,793,793,793,793,793,793,793,793,793,793,793,793,793,793,793,793,793,793,793,793,793,793,793,793,793,793,793,792,792,792,792,792,792,792,792,792,792,792,793,793,793,794,795,798,800,805,806,808,810,812,816,817,818,820,823,833,841,851,862,872,903,916,931,955,966,1019,1039,1056,1075,1091,1115],"ymouse":[645,645,645,645,645,645,645,645,645,645,645,645,645,645,645,645,645,645,645,645,645,645,645,645,645,645,645,645,645,645,645,645,645,645,645,645,645,645,645,645,645,645,645,645,644,644,644,644,644,644,644,644,644,643,643,642,642,640,637,633,622,616,610,603,596,582,576,571,565,557,540,529,514,500,481,440,419,396,356,339,258,225,194,162,133,90],"timestamp_mouse":[10,42,50,69,88,108,130,149,169,190,208,228,250,268,289,309,329,348,369,390,408,429,449,470,489,508,528,548,570,589,609,628,649,668,689,708,728,749,768,789,809,829,849,869,889,908,929,948,969,988,1008,1029,1048,1068,1089,1110,1129,1148,1168,1188,1208,1228,1248,1268,1288,1308,1329,1348,1370,1389,1410,1428,1448,1469,1490,1508,1529,1548,1569,1589,1608,1628,1649,1668,1688,1708],"xSR":741.5,"ySR":573.95,"xT1":424.9,"yT1":0,"xT2":1058.1,"yT2":0,"toosoon":0,"cond_shown":"equaldotanddens","ratio_trial":500,"smaller_num":"9","larger_num":"18","correct_side":2,"subjID":"AnaLuciaRincon29","gender":"1","age":"8","school":"4"},{"start_time":1552069669067,"click_time":1552069670423,"finger_time":1552069669844,"fix_duration":982.4967448841778,"trial":2,"RT":777,"MT":579,"sideResp":2,"stimulus":"img/750/equaldotsize/R/4_Ratio_750_L_15_R_20.png","xmouse":[771,771,771,771,771,771,771,771,771,771,771,771,771,771,771,771,771,771,771,771,771,771,771,771,771,771,771,771,771,771,771,771,771,771,771,776,784,793,804,825,839,872,888,902,916,927,950,964,972,979,986,999,1005,1012,1018,1025,1036,1042,1048,1052,1056,1065,1067,1071,1074,1077,1082,1090],"ymouse":[606,606,606,606,606,606,606,606,606,606,606,606,606,606,606,606,606,606,606,606,606,606,606,606,606,606,606,606,606,606,606,606,606,606,606,602,594,583,571,545,525,481,458,437,416,396,356,332,314,297,280,250,238,227,216,204,182,171,157,151,143,129,125,121,117,111,103,91],"timestamp_mouse":[18,39,56,76,98,117,137,157,177,197,217,236,257,277,296,316,336,357,377,398,416,437,458,477,496,516,536,557,577,596,616,637,656,678,697,717,737,756,777,796,817,837,856,878,896,918,936,957,976,996,1016,1037,1056,1076,1097,1117,1136,1156,1176,1197,1216,1236,1256,1277,1296,1318,1336,1356],"xSR":741.5,"ySR":573.95,"xT1":424.9,"yT1":0,"xT2":1058.1,"yT2":0,"toosoon":0,"cond_shown":"equaldotsize","ratio_trial":750,"smaller_num":"15","larger_num":"20","correct_side":2,"subjID":"AnaLuciaRincon29","gender":"1","age":"8","school":"4"},{"start_time":1552069673838,"click_time":1552069675123,"finger_time":1552069674623,"fix_duration":1292.2701790967744,"trial":3,"RT":785,"MT":500,"sideResp":2,"stimulus":"img/250/equaldotsize/R/11_Ratio_250_L_3_R_12.png","xmouse":[774,774,774,774,774,774,774,774,774,774,774,774,774,774,774,774,774,774,774,774,774,774,774,774,774,774,774,774,774,774,774,774,774,774,775,777,779,781,787,795,798,803,809,819,840,853,869,884,901,938,950,960,969,980,1002,1012,1020,1031,1033,1044,1047,1050,1053,1056,1061],"ymouse":[602,602,602,602,602,602,602,602,602,602,602,602,602,602,602,602,602,602,602,602,602,602,602,602,602,602,602,602,602,602,602,602,602,602,602,602,601,597,585,572,564,552,540,524,490,473,452,429,408,356,337,320,304,284,246,228,207,182,175,141,130,122,113,105,92],"timestamp_mouse":[9,25,45,66,85,105,125,145,165,187,205,225,246,266,286,306,326,345,365,385,406,425,446,465,489,505,526,547,566,585,606,626,646,666,686,706,726,745,767,785,806,826,845,866,885,905,926,945,966,986,1006,1026,1045,1067,1085,1105,1126,1145,1165,1186,1205,1225,1245,1265,1285],"xSR":741.5,"ySR":573.95,"xT1":424.9,"yT1":0,"xT2":1058.1,"yT2":0,"toosoon":0,"cond_shown":"equaldotsize","ratio_trial":250,"smaller_num":"3","larger_num":"12","correct_side":2,"subjID":"AnaLuciaRincon29","gender":"1","age":"8","school":"4"},{"start_time":1552069677953,"click_time":1552069679364,"finger_time":1552069678863,"fix_duration":1307.4976159385196,"trial":4,"RT":910,"MT":501,"sideResp":1,"stimulus":"img/750/equaldotanddens/L/10_Ratio_750_L_4_R_3.png","xmouse":[775,775,775,775,775,775,775,775,775,775,775,775,775,775,775,775,775,775,775,775,775,775,775,775,775,775,775,775,775,775,775,775,775,775,775,775,775,775,775,775,775,775,775,775,775,772,769,764,749,740,728,707,693,662,646,631,614,600,579,572,566,563,562,561,561,561,560,559,546,535,515],"ymouse":[622,622,622,622,622,622,622,622,622,622,622,622,622,622,622,622,622,622,622,622,622,622,622,622,622,622,622,622,622,622,622,622,622,622,622,622,622,622,622,622,619,614,607,587,574,561,546,530,494,472,445,401,371,307,279,250,219,186,137,118,98,90,87,85,85,84,84,83,77,73,64],"timestamp_mouse":[10,30,51,70,90,110,130,151,170,191,211,232,251,271,291,310,331,351,372,390,410,431,450,470,491,510,532,550,570,591,610,630,651,672,691,711,731,750,771,791,810,831,850,870,891,910,931,950,970,990,1012,1030,1051,1070,1091,1111,1130,1151,1170,1190,1211,1231,1250,1271,1291,1311,1330,1350,1371,1390,1410],"xSR":741.5,"ySR":573.95,"xT1":424.9,"yT1":0,"xT2":1058.1,"yT2":0,"toosoon":0,"cond_shown":"equaldotanddens","ratio_trial":750,"smaller_num":"3","larger_num":"4","correct_side":1,"subjID":"AnaLuciaRincon29","gender":"1","age":"8","school":"4"},{"start_time":1552069682341,"click_time":1552069683643,"finger_time":1552069683403,"fix_duration":1355.018716009889,"trial":5,"RT":1062,"MT":240,"sideResp":2,"stimulus":"img/500/randomdotsizeEA/L/8_Ratio_500_L_8_R_4.png","xmouse":[757,757,757,757,757,757,757,757,757,757,757,757,757,757,757,757,757,757,757,757,757,757,757,757,757,757,757,757,757,757,757,757,757,757,757,757,757,757,757,757,759,761,762,763,764,767,768,769,770,771,774,777,781,791,801,830,848,870,898,940,995,1021,1043,1069,1094,1141],"ymouse":[613,613,613,613,613,613,613,613,613,613,613,613,613,613,613,613,613,613,613,613,613,613,613,613,613,613,613,613,613,613,613,613,613,613,613,613,613,613,613,613,613,613,612,610,608,605,603,602,600,598,593,590,584,571,556,517,497,471,439,385,308,267,228,183,140,53],"timestamp_mouse":[15,25,43,63,82,103,122,142,163,183,204,223,243,263,282,302,322,344,364,383,402,423,443,464,483,503,523,543,562,583,603,622,643,663,682,703,723,742,764,783,802,823,842,862,883,903,922,942,963,983,1002,1023,1043,1062,1082,1102,1122,1143,1164,1183,1204,1223,1243,1262,1283,1302],"xSR":741.5,"ySR":573.95,"xT1":424.9,"yT1":0,"xT2":1058.1,"yT2":0,"toosoon":0,"cond_shown":"randomdotsizeEA","ratio_trial":500,"smaller_num":"4","larger_num":"8","correct_side":1,"subjID":"AnaLuciaRincon29","gender":"1","age":"8","school":"4"},{"start_time":1552069685821,"click_time":1552069687324,"finger_time":1552069686684,"fix_duration":394.013550612106,"trial":6,"RT":863,"MT":640,"sideResp":2,"stimulus":"img/250/randomdotsizeEA/R/8_Ratio_250_L_1_R_4.png","xmouse":[773,773,773,773,773,773,773,773,773,773,773,773,773,773,773,773,773,773,773,773,773,773,773,773,773,773,773,773,773,773,773,773,773,773,773,773,773,773,773,773,773,771,764,756,752,751,750,750,750,750,750,750,750,750,750,750,750,750,750,753,758,773,783,805,825,845,887,904,920,936,950,964,994,1021,1041,1062],"ymouse":[611,611,611,611,611,611,611,611,611,611,611,611,611,611,611,611,611,611,611,611,611,611,611,611,611,611,611,611,611,611,611,611,611,611,611,611,611,611,611,611,605,592,577,562,556,553,550,550,548,548,548,548,548,548,548,548,548,547,545,540,533,513,498,467,440,413,359,334,312,287,265,241,193,150,117,83],"timestamp_mouse":[9,22,42,62,83,102,123,144,162,182,202,224,242,262,282,302,323,342,363,382,402,422,442,462,482,503,523,543,563,583,602,623,643,663,684,704,723,743,762,782,803,822,843,863,882,903,922,943,962,982,1002,1023,1043,1062,1082,1102,1124,1144,1162,1182,1203,1222,1242,1264,1282,1303,1322,1343,1363,1382,1402,1423,1443,1463,1482,1503],"xSR":741.5,"ySR":573.95,"xT1":424.9,"yT1":0,"xT2":1058.1,"yT2":0,"toosoon":0,"cond_shown":"randomdotsizeEA","ratio_trial":250,"smaller_num":"1","larger_num":"4","correct_side":2,"subjID":"AnaLuciaRincon29","gender":"1","age":"8","school":"4"},{"start_time":1552069690225,"click_time":1552069691563,"finger_time":1552069691065,"fix_duration":619.676435650112,"trial":7,"RT":840,"MT":498,"sideResp":1,"stimulus":"img/750/equaldotsize/R/15_Ratio_750_L_9_R_12.png","xmouse":[792,792,792,792,792,792,792,792,792,792,792,792,792,792,792,792,792,792,792,792,792,792,792,792,792,792,792,792,792,792,792,792,792,792,792,792,792,792,791,791,789,777,772,765,759,751,746,743,737,730,714,687,671,651,625,604,569,558,552,545,540,532,531,528,526,522,517],"ymouse":[597,597,597,597,597,597,597,597,597,600,602,603,603,603,603,603,603,603,603,603,603,603,603,603,603,603,603,603,603,603,603,603,603,603,603,603,603,603,602,592,584,540,523,507,493,474,463,455,446,436,417,386,368,350,329,310,263,242,224,206,192,162,151,137,126,113,96],"timestamp_mouse":[19,43,58,80,98,118,140,159,178,199,219,238,258,279,299,320,339,358,380,399,419,438,459,480,500,520,539,558,580,600,619,639,658,678,698,720,739,759,779,798,819,840,859,878,900,920,939,959,979,999,1018,1038,1059,1080,1099,1118,1138,1159,1178,1198,1220,1240,1258,1278,1299,1319,1338],"xSR":741.5,"ySR":573.95,"xT1":424.9,"yT1":0,"xT2":1058.1,"yT2":0,"toosoon":0,"cond_shown":"equaldotsize","ratio_trial":750,"smaller_num":"9","larger_num":"12","correct_side":2,"subjID":"AnaLuciaRincon29","gender":"1","age":"8","school":"4"},{"start_time":1552069693659,"click_time":1552069697264,"finger_time":1552069694624,"fix_duration":472.94112641523225,"trial":8,"RT":965,"MT":2640,"sideResp":2,"stimulus":"img/250/randomdotsizeEA/L/15_Ratio_250_L_12_R_3.png","xmouse":[794,794,794,794,794,794,794,794,794,794,794,794,794,794,794,794,794,794,794,794,794,794,794,794,794,794,794,794,794,794,794,794,794,794,794,794,794,794,795,798,808,810,811,812,812,812,812,812,813,815,833,847,865,887,905,925,932,934,936,937,938,940,942,945,949,958,964,970,974,977,981,983,985,986,988,994,1004,1008,1022,1031,1045,1048,1050,1050,1051,1051,1052,1053,1053,1053,1053,1053,1053,1053,1053,1053,1053,1053,1053,1053,1053,1053,1053,1053,1053,1053,1053,1053,1053,1053,1053,1053,1053,1053,1053,1053,1053,1053,1053,1053,1053,1053,1053,1053,1053,1053,1053,1053,1053,1053,1053,1053,1053,1053,1053,1053,1053,1053,1053,1053,1053,1053,1053,1053,1053,1053,1053,1053,1053,1053,1053,1053,1053,1053,1053,1053,1053,1053,1054,1054,1054,1054,1054,1054,1054,1055,1055,1055,1055,1055,1055,1055,1055,1055,1055,1055,1055,1055,1057,1057,1059],"ymouse":[601,601,601,601,601,601,601,601,601,601,601,601,601,601,601,601,601,601,601,601,601,601,601,601,601,601,601,601,601,601,601,601,601,601,601,601,601,601,600,596,581,577,575,574,574,574,574,574,572,570,547,527,503,470,440,401,385,377,366,361,347,337,321,298,274,222,201,179,165,157,148,145,143,141,139,133,125,121,109,102,90,87,86,86,85,85,84,84,84,84,84,84,84,84,84,84,84,84,84,84,84,84,84,84,84,84,84,84,84,84,84,84,84,84,84,84,84,84,84,84,84,84,84,84,84,84,84,84,84,84,84,84,84,84,84,84,84,84,84,84,84,84,84,84,84,84,84,84,84,84,84,84,84,84,84,84,84,84,83,83,83,83,83,83,83,83,83,83,83,83,83,83,83,83,83,83,83,83,83,83,83],"timestamp_mouse":[11,25,44,66,84,104,124,145,165,185,205,224,246,266,285,305,325,344,364,384,406,426,445,465,486,505,526,545,565,586,606,626,645,665,685,705,725,746,766,785,804,825,846,865,885,906,925,946,965,986,1005,1025,1045,1065,1086,1105,1124,1145,1164,1184,1206,1225,1246,1265,1284,1305,1326,1344,1365,1384,1404,1424,1444,1465,1484,1504,1524,1545,1565,1585,1604,1625,1645,1665,1684,1705,1726,1745,1764,1786,1805,1826,1845,1865,1885,1905,1926,1945,1964,1984,2005,2026,2046,2065,2084,2105,2125,2145,2164,2185,2205,2226,2246,2265,2284,2305,2326,2345,2364,2385,2404,2426,2445,2465,2485,2504,2525,2545,2565,2584,2605,2626,2645,2665,2684,2704,2726,2745,2765,2784,2805,2824,2845,2865,2884,2904,2924,2945,2965,2984,3005,3024,3046,3065,3085,3105,3125,3144,3165,3186,3205,3224,3245,3265,3286,3305,3324,3344,3365,3386,3405,3425,3445,3466,3485,3506,3525,3544,3564,3585,3604],"xSR":741.5,"ySR":573.95,"xT1":424.9,"yT1":0,"xT2":1058.1,"yT2":0,"toosoon":0,"cond_shown":"randomdotsizeEA","ratio_trial":250,"smaller_num":"3","larger_num":"12","correct_side":1,"subjID":"AnaLuciaRincon29","gender":"1","age":"8","school":"4"},{"start_time":1552069701094,"click_time":1552069702145,"finger_time":1552069701865,"fix_duration":307.5434046854779,"trial":9,"RT":771,"MT":280,"sideResp":1,"stimulus":"img/250/randomdotsizeEA/L/2_Ratio_250_L_16_R_4.png","xmouse":[805,805,805,805,805,805,805,805,805,805,805,805,805,805,805,805,805,805,805,805,805,805,805,805,805,805,805,805,805,805,805,805,805,805,805,805,803,799,791,749,716,680,646,604,570,556,546,536,527,509,499,495,494],"ymouse":[608,608,608,608,608,608,608,608,608,608,608,608,608,608,608,608,608,608,608,608,608,608,608,608,608,608,608,608,608,608,608,608,608,608,608,608,604,594,573,494,442,391,339,283,229,208,187,170,154,123,109,102,99],"timestamp_mouse":[11,44,51,71,89,110,129,149,169,190,211,230,250,271,290,310,330,351,371,391,409,430,450,470,489,509,530,549,571,590,609,631,651,670,690,710,730,749,771,790,810,830,851,869,889,909,929,951,969,989,1010,1029,1051],"xSR":741.5,"ySR":573.95,"xT1":424.9,"yT1":0,"xT2":1058.1,"yT2":0,"toosoon":0,"cond_shown":"randomdotsizeEA","ratio_trial":250,"smaller_num":"4","larger_num":"16","correct_side":1,"subjID":"AnaLuciaRincon29","gender":"1","age":"8","school":"4"},{"start_time":1552069705448,"click_time":1552069708364,"finger_time":1552069706564,"fix_duration":1463.2218694784167,"trial":10,"RT":1116,"MT":1800,"sideResp":2,"stimulus":"img/250/randomdotsizeEA/R/8_Ratio_250_L_1_R_4.png","xmouse":[790,791,791,791,791,791,791,791,791,793,793,794,794,794,794,794,794,794,794,794,794,794,794,794,794,794,794,794,794,794,794,794,794,794,794,794,794,794,794,794,794,794,794,794,794,794,794,794,794,794,794,796,801,819,835,852,879,889,895,898,903,916,928,944,966,977,985,999,1006,1015,1024,1045,1055,1071,1079,1086,1096,1101,1104,1109,1110,1116,1120,1121,1122,1123,1124,1124,1124,1124,1124,1124,1124,1124,1124,1124,1124,1124,1124,1124,1125,1125,1125,1125,1125,1125,1125,1125,1125,1125,1125,1125,1125,1125,1125,1125,1125,1125,1123,1115,1103,1077,1054,1037,1022,1012,1008,1008,1008,1008,1008,1008,1008,1009,1012,1018,1025,1027,1028,1028,1028,1034,1040,1048,1064,1080],"ymouse":[613,613,613,613,613,613,613,613,613,612,611,611,611,610,610,610,610,610,610,610,610,610,610,610,610,610,610,610,610,610,610,610,610,610,610,610,610,610,610,610,610,610,610,610,610,610,610,610,610,610,610,610,608,597,588,578,554,542,532,527,519,490,469,443,412,394,379,353,341,326,313,284,268,246,234,220,203,195,190,181,179,166,156,151,146,143,141,139,139,139,139,139,139,139,139,139,139,139,139,138,137,136,134,134,134,134,134,134,134,134,134,134,134,134,134,134,134,134,133,128,124,122,126,131,135,138,139,139,139,139,139,139,139,139,136,132,126,124,123,123,123,122,120,116,108,95],"timestamp_mouse":[15,36,57,77,95,115,137,157,175,196,215,236,257,275,295,316,336,355,377,396,417,436,455,476,496,515,537,556,577,597,617,635,655,675,695,715,736,757,777,796,817,837,856,876,895,915,936,955,975,996,1015,1036,1055,1076,1097,1116,1135,1155,1175,1196,1216,1236,1255,1276,1296,1316,1336,1356,1376,1397,1415,1436,1457,1476,1495,1515,1536,1556,1575,1595,1615,1636,1655,1676,1696,1715,1736,1756,1776,1795,1815,1836,1856,1877,1895,1915,1935,1956,1975,1995,2016,2036,2056,2076,2095,2115,2135,2155,2175,2195,2216,2236,2255,2275,2295,2316,2337,2356,2376,2396,2415,2435,2456,2475,2496,2515,2535,2556,2575,2596,2617,2637,2656,2675,2695,2716,2735,2756,2775,2796,2816,2835,2856,2875,2896,2916],"xSR":741.5,"ySR":573.95,"xT1":424.9,"yT1":0,"xT2":1058.1,"yT2":0,"toosoon":0,"cond_shown":"randomdotsizeEA","ratio_trial":250,"smaller_num":"1","larger_num":"4","correct_side":2,"subjID":"AnaLuciaRincon29","gender":"1","age":"8","school":"4"},{"start_time":1552069710640,"click_time":1552069711824,"finger_time":1552069711524,"fix_duration":574.5571887545127,"trial":11,"RT":884,"MT":300,"sideResp":2,"stimulus":"img/250/equaldotanddens/R/13_Ratio_250_L_2_R_8.png","xmouse":[794,794,794,794,794,794,794,794,794,794,794,794,794,794,794,794,794,794,794,794,794,794,794,794,794,794,794,794,794,794,794,794,794,794,794,794,794,794,794,794,793,794,801,820,834,852,869,899,912,923,935,950,968,1026,1045,1064,1079,1088,1100,1105],"ymouse":[609,609,609,609,609,609,609,609,609,609,609,609,609,609,609,609,609,609,609,609,609,609,609,609,609,609,609,609,609,609,609,609,609,609,609,609,609,609,609,609,610,607,600,574,557,537,518,476,455,435,414,392,365,286,254,220,188,159,116,99],"timestamp_mouse":[9,23,44,65,84,104,123,144,164,185,205,225,243,264,285,304,324,343,365,384,405,423,444,465,485,504,524,544,564,585,603,623,643,664,685,704,723,745,765,784,804,824,844,864,884,904,924,945,963,983,1004,1024,1044,1064,1083,1103,1125,1145,1164,1184],"xSR":741.5,"ySR":573.95,"xT1":424.9,"yT1":0,"xT2":1058.1,"yT2":0,"toosoon":0,"cond_shown":"equaldotanddens","ratio_trial":250,"smaller_num":"2","larger_num":"8","correct_side":2,"subjID":"AnaLuciaRincon29","gender":"1","age":"8","school":"4"},{"start_time":1552069714383,"click_time":1552069715443,"finger_time":1552069715143,"fix_duration":779.7255134058487,"trial":12,"RT":760,"MT":300,"sideResp":2,"stimulus":"img/250/equaldotanddens/R/12_Ratio_250_L_5_R_20.png","xmouse":[746,746,746,746,746,746,746,746,746,746,746,746,746,746,746,746,746,746,746,746,746,746,746,746,746,746,746,746,746,746,746,746,747,749,758,766,787,804,824,844,869,924,966,994,1023,1055,1093,1107,1115,1122,1126,1132,1134,1136],"ymouse":[613,613,613,613,613,613,613,613,613,613,613,613,613,613,613,613,613,613,613,613,613,613,613,613,613,613,613,613,613,613,613,613,613,613,611,607,596,585,570,554,530,472,420,381,340,294,221,191,170,152,137,115,102,95],"timestamp_mouse":[14,28,41,61,80,101,121,140,161,182,200,221,240,261,281,302,321,342,361,382,401,421,441,460,481,502,522,542,562,581,600,621,641,662,681,701,720,741,760,780,800,820,840,860,881,900,920,941,961,980,1000,1020,1041,1060],"xSR":741.5,"ySR":573.95,"xT1":424.9,"yT1":0,"xT2":1058.1,"yT2":0,"toosoon":0,"cond_shown":"equaldotanddens","ratio_trial":250,"smaller_num":"5","larger_num":"20","correct_side":2,"subjID":"AnaLuciaRincon29","gender":"1","age":"8","school":"4"},{"start_time":1552069717589,"click_time":1552069718944,"finger_time":1552069718424,"fix_duration":563.8320793974403,"trial":13,"RT":835,"MT":520,"sideResp":1,"stimulus":"img/750/equaldotsize/L/9_Ratio_750_L_4_R_3.png","xmouse":[818,818,818,818,818,818,818,818,818,818,818,818,818,818,818,818,818,818,818,818,818,818,818,818,818,818,818,818,818,818,818,818,818,818,818,818,818,818,818,818,817,811,804,798,789,769,757,746,732,718,702,666,642,629,617,600,590,580,569,560,549,546,544,543,540,531,527,523],"ymouse":[584,584,584,584,584,584,584,584,584,584,584,584,584,584,584,584,584,584,584,584,584,584,584,584,584,584,584,584,584,584,584,584,584,584,584,584,584,584,584,583,578,557,531,508,482,436,414,394,371,348,314,230,173,141,114,74,57,42,32,27,25,25,25,25,25,26,27,28],"timestamp_mouse":[15,36,55,75,96,115,135,155,175,195,216,235,254,275,295,316,334,355,375,396,414,435,455,475,496,515,535,555,575,595,616,635,655,676,694,714,734,756,775,796,815,835,855,875,895,915,934,955,976,994,1015,1034,1054,1075,1096,1115,1135,1155,1175,1195,1215,1234,1254,1274,1295,1315,1334,1355],"xSR":741.5,"ySR":573.95,"xT1":424.9,"yT1":0,"xT2":1058.1,"yT2":0,"toosoon":0,"cond_shown":"equaldotsize","ratio_trial":750,"smaller_num":"3","larger_num":"4","correct_side":1,"subjID":"AnaLuciaRincon29","gender":"1","age":"8","school":"4"},{"start_time":1552069723967,"click_time":1552069725323,"finger_time":1552069724723,"fix_duration":841.5599672797648,"trial":14,"RT":756,"MT":600,"sideResp":2,"stimulus":"img/500/equaldotsize/R/2_Ratio_500_L_3_R_6.png","xmouse":[782,782,782,782,782,782,782,782,782,782,782,782,782,782,782,782,782,782,782,782,782,782,782,782,782,782,782,782,782,782,782,784,791,794,797,800,804,816,825,832,848,860,889,903,915,923,929,936,938,941,943,945,948,950,952,954,957,961,965,968,977,980,995,1004,1013,1025,1043,1082],"ymouse":[641,641,641,641,641,641,641,641,641,641,641,641,641,641,641,641,641,641,641,641,641,641,641,641,641,641,641,641,641,641,638,636,626,619,615,607,597,569,550,533,499,470,395,363,336,312,290,253,238,218,204,189,164,154,145,140,135,127,123,121,114,111,98,92,85,77,70,55],"timestamp_mouse":[17,43,57,77,97,116,138,156,176,196,217,237,258,278,296,317,338,356,376,398,418,436,458,477,497,517,537,557,578,597,616,637,656,677,697,717,738,756,776,796,818,838,857,877,898,916,937,956,976,997,1016,1037,1057,1077,1097,1117,1137,1156,1177,1197,1217,1237,1256,1277,1297,1317,1336,1356],"xSR":741.5,"ySR":573.95,"xT1":424.9,"yT1":0,"xT2":1058.1,"yT2":0,"toosoon":0,"cond_shown":"equaldotsize","ratio_trial":500,"smaller_num":"3","larger_num":"6","correct_side":2,"subjID":"AnaLuciaRincon29","gender":"1","age":"8","school":"4"},{"start_time":1552069728549,"click_time":1552069731925,"finger_time":1552069729303,"fix_duration":1262.5096619286267,"trial":15,"RT":754,"MT":2622,"sideResp":2,"stimulus":"img/750/equaldotanddens/L/6_Ratio_750_L_24_R_18.png","xmouse":[775,775,775,775,775,775,775,775,775,775,775,775,775,775,775,775,775,775,775,775,775,775,775,775,775,775,775,775,775,775,775,775,775,775,776,778,779,779,774,772,771,770,770,770,770,770,771,775,793,818,837,862,889,916,951,959,965,968,971,975,979,986,989,992,997,999,1001,1003,1011,1021,1026,1030,1034,1038,1042,1047,1051,1055,1058,1058,1058,1058,1058,1058,1058,1058,1058,1058,1058,1058,1058,1058,1058,1058,1058,1058,1058,1058,1058,1058,1058,1058,1058,1058,1058,1058,1058,1058,1058,1058,1058,1058,1058,1046,1039,1036,1032,1026,975,944,917,896,876,860,834,826,819,812,794,784,768,746,721,663,635,610,590,575,561,561,561,561,559,554,553,552,552,552,576,600,626,659,696,782,829,870,908,936,967,990,998,1003,1009,1015,1031,1039,1046,1055,1061],"ymouse":[606,606,606,606,606,606,606,606,606,606,606,606,606,606,606,606,606,606,606,606,606,606,606,606,606,606,606,606,606,606,606,606,606,606,601,595,584,572,550,543,541,539,539,538,531,525,514,500,456,402,361,313,266,216,157,142,133,128,121,113,107,100,96,92,86,83,81,78,72,67,65,63,63,61,61,60,60,58,58,58,58,58,58,58,58,58,58,58,58,58,58,58,58,58,58,58,58,58,58,58,58,58,58,58,58,58,58,58,58,58,58,58,58,54,54,53,53,53,52,51,51,47,44,42,40,40,40,41,41,41,41,41,41,41,41,41,41,41,42,42,42,42,43,44,45,45,45,45,56,63,71,81,89,104,112,117,121,123,123,121,118,117,114,111,102,98,95,91,90],"timestamp_mouse":[14,44,55,75,94,115,135,155,174,195,216,235,255,275,294,314,335,354,376,395,415,435,454,475,496,515,535,555,575,595,614,635,654,677,695,715,734,754,776,794,815,836,855,875,895,915,935,956,975,995,1016,1035,1056,1074,1094,1114,1135,1155,1175,1195,1215,1235,1254,1275,1295,1315,1335,1354,1375,1394,1415,1435,1455,1476,1494,1514,1534,1556,1575,1594,1615,1635,1656,1674,1695,1715,1735,1755,1776,1794,1814,1834,1856,1876,1896,1915,1936,1954,1975,1995,2016,2035,2055,2074,2094,2116,2136,2154,2174,2195,2216,2235,2254,2276,2294,2315,2335,2355,2376,2395,2415,2434,2454,2475,2495,2516,2535,2555,2576,2594,2614,2635,2656,2676,2695,2715,2734,2755,2776,2794,2814,2836,2855,2876,2894,2915,2935,2954,2976,2995,3015,3036,3055,3076,3094,3115,3134,3155,3175,3195,3215,3234,3256,3276,3294,3316,3335,3355,3376],"xSR":741.5,"ySR":573.95,"xT1":424.9,"yT1":0,"xT2":1058.1,"yT2":0,"toosoon":0,"cond_shown":"equaldotanddens","ratio_trial":750,"smaller_num":"18","larger_num":"24","correct_side":1,"subjID":"AnaLuciaRincon29","gender":"1","age":"8","school":"4"},{"start_time":1552069733867,"click_time":1552069735244,"finger_time":1552069734544,"fix_duration":461.0831893985693,"trial":16,"RT":677,"MT":700,"sideResp":1,"stimulus":"img/250/equaldotsize/L/1_Ratio_250_L_8_R_2.png","xmouse":[778,778,778,778,778,778,778,778,778,778,778,778,778,778,778,778,778,778,778,778,778,778,778,778,778,778,778,778,778,777,777,770,757,719,698,672,640,596,500,461,434,402,385,366,361,358,357,355,353,353,353,353,356,358,369,376,379,381,384,386,393,396,401,406,414,417,418,420,426],"ymouse":[641,641,641,641,641,641,641,641,641,641,641,641,641,641,641,641,641,641,641,641,641,641,641,641,641,641,641,641,641,639,636,616,595,540,512,476,429,369,251,201,165,120,97,57,43,29,15,3,0,0,0,0,0,0,4,9,11,13,16,16,17,17,17,17,17,17,17,17,19],"timestamp_mouse":[17,46,56,76,96,118,137,156,178,197,218,237,256,277,296,316,338,357,376,397,417,438,457,476,498,518,537,558,577,597,617,637,657,677,697,717,737,756,776,798,818,838,857,876,897,916,937,957,977,998,1016,1037,1056,1078,1097,1118,1138,1158,1179,1197,1216,1238,1257,1277,1297,1317,1337,1357,1377],"xSR":741.5,"ySR":573.95,"xT1":424.9,"yT1":0,"xT2":1058.1,"yT2":0,"toosoon":0,"cond_shown":"equaldotsize","ratio_trial":250,"smaller_num":"2","larger_num":"8","correct_side":1,"subjID":"AnaLuciaRincon29","gender":"1","age":"8","school":"4"},{"start_time":1552069738806,"click_time":1552069740684,"finger_time":1552069739585,"fix_duration":1100.6414532204728,"trial":17,"RT":779,"MT":1099,"sideResp":1,"stimulus":"img/750/equaldotsize/L/14_Ratio_750_L_8_R_6.png","xmouse":[802,802,802,802,802,802,802,802,802,802,802,802,802,802,802,802,802,802,802,802,802,802,802,802,802,802,802,802,802,802,802,802,802,802,802,802,806,827,843,853,860,867,881,889,895,901,908,922,931,937,944,950,961,967,971,980,987,1010,1014,1031,1044,1056,1070,1073,1074,1074,1074,1072,1063,1050,1033,1008,921,862,807,750,700,652,554,520,504,494,478,470,463,451,440,430,430,429,429,432,435,444],"ymouse":[629,629,629,629,629,629,629,629,629,629,629,629,629,629,629,629,629,629,629,629,629,629,629,629,629,629,629,629,629,629,629,629,629,629,629,626,621,597,583,574,565,556,531,517,501,487,473,444,422,408,393,378,351,336,320,302,286,249,240,211,188,167,136,128,126,126,126,125,126,132,141,153,182,197,204,206,206,203,173,162,158,155,145,139,134,126,119,114,114,113,112,108,104,96],"timestamp_mouse":[26,39,59,78,98,119,138,157,178,198,217,237,257,279,298,318,338,358,377,398,418,438,458,479,498,518,537,558,578,597,618,639,658,679,699,718,738,758,779,798,817,837,857,877,898,919,937,958,977,998,1018,1038,1058,1078,1098,1118,1137,1158,1177,1198,1219,1237,1257,1279,1297,1319,1337,1358,1378,1398,1418,1439,1458,1477,1498,1518,1539,1558,1577,1598,1618,1638,1658,1677,1698,1719,1739,1758,1777,1798,1817,1838,1858,1878],"xSR":741.5,"ySR":573.95,"xT1":424.9,"yT1":0,"xT2":1058.1,"yT2":0,"toosoon":0,"cond_shown":"equaldotsize","ratio_trial":750,"smaller_num":"6","larger_num":"8","correct_side":1,"subjID":"AnaLuciaRincon29","gender":"1","age":"8","school":"4"},{"start_time":1552069742376,"click_time":1552069744904,"finger_time":1552069744305,"fix_duration":250,"trial":18,"RT":1929,"MT":599,"sideResp":2,"stimulus":"img/250/equaldotsize/R/8_Ratio_250_L_1_R_4.png","xmouse":[775,775,775,775,775,775,775,775,775,775,775,775,775,775,775,775,775,775,775,775,775,775,775,775,775,775,775,775,775,775,775,775,775,775,775,775,775,775,775,775,775,775,775,775,775,775,775,775,775,775,775,775,775,775,775,775,775,775,775,775,775,775,775,775,775,775,775,775,771,771,768,767,767,767,767,767,767,767,767,767,769,773,776,779,781,782,782,782,784,788,798,805,809,814,819,841,861,892,903,938,994,1022,1050,1075,1099,1127,1133,1133,1133,1133,1134,1132,1122,1110,1096,1053,1033,1026,1026,1026,1039,1047,1054,1059,1064,1067,1067],"ymouse":[596,596,596,596,596,596,596,596,596,596,596,596,596,596,596,596,596,596,596,596,596,596,596,596,596,596,596,596,596,596,596,596,596,596,596,596,596,596,596,596,596,596,596,596,596,596,596,596,596,596,596,596,596,596,596,596,596,596,596,596,596,596,596,596,596,596,597,600,612,615,626,626,626,626,626,626,626,626,626,626,622,614,606,598,593,592,592,592,594,603,618,621,621,621,620,619,619,623,625,632,632,632,632,632,632,632,631,631,631,631,630,629,628,626,617,564,522,499,478,427,321,263,211,179,152,109,95],"timestamp_mouse":[10,29,47,68,88,108,127,148,167,187,209,228,248,268,288,308,327,348,367,387,408,428,449,469,488,508,528,548,568,588,607,627,648,668,688,707,727,748,769,787,808,828,848,867,889,907,928,947,968,989,1007,1027,1047,1067,1089,1108,1128,1148,1167,1189,1208,1227,1247,1268,1288,1308,1328,1348,1367,1388,1407,1428,1449,1468,1487,1507,1528,1549,1568,1588,1608,1628,1648,1669,1688,1708,1727,1748,1769,1788,1807,1828,1847,1868,1888,1908,1929,1948,1968,1989,2008,2028,2049,2068,2088,2107,2127,2148,2167,2189,2209,2228,2249,2268,2288,2307,2329,2349,2368,2388,2407,2427,2447,2467,2488,2508,2527],"xSR":741.5,"ySR":573.95,"xT1":424.9,"yT1":0,"xT2":1058.1,"yT2":0,"toosoon":0,"cond_shown":"equaldotsize","ratio_trial":250,"smaller_num":"1","larger_num":"4","correct_side":2,"subjID":"AnaLuciaRincon29","gender":"1","age":"8","school":"4"},{"start_time":1552069747556,"click_time":1552069748884,"finger_time":1552069748204,"fix_duration":1364.3394717853018,"trial":19,"RT":648,"MT":680,"sideResp":2,"stimulus":"img/750/equaldotanddens/R/4_Ratio_750_L_15_R_20.png","xmouse":[804,804,804,804,804,804,804,804,804,804,804,804,804,804,804,804,804,804,804,804,804,804,804,804,804,804,804,804,804,804,803,807,813,822,838,862,910,927,941,952,959,960,960,960,960,960,960,960,960,960,960,961,963,965,969,974,982,1011,1033,1043,1049,1049,1049,1049,1050,1052,1061],"ymouse":[618,618,618,618,618,618,618,618,618,618,618,618,618,618,618,618,618,618,618,618,618,618,618,618,618,618,618,618,618,618,617,592,573,545,497,436,299,239,182,122,88,43,30,23,18,17,16,16,16,16,16,15,15,15,15,13,12,8,7,7,7,7,7,7,7,7,14],"timestamp_mouse":[11,27,48,69,87,109,127,147,167,188,207,227,247,269,288,308,328,348,368,388,408,427,449,469,488,507,528,549,568,589,608,628,648,668,688,709,728,747,768,789,808,827,848,868,888,908,928,948,968,988,1008,1028,1048,1068,1089,1109,1128,1148,1168,1189,1207,1228,1248,1269,1288,1308,1328],"xSR":741.5,"ySR":573.95,"xT1":424.9,"yT1":0,"xT2":1058.1,"yT2":0,"toosoon":0,"cond_shown":"equaldotanddens","ratio_trial":750,"smaller_num":"15","larger_num":"20","correct_side":2,"subjID":"AnaLuciaRincon29","gender":"1","age":"8","school":"4"},{"start_time":1552069750678,"click_time":1552069751584,"finger_time":1552069751383,"fix_duration":250,"trial":20,"RT":705,"MT":201,"sideResp":1,"stimulus":"img/900/equaldotsize/L/1_Ratio_900_L_10_R_9.png","xmouse":[772,772,772,772,772,772,772,772,772,772,772,772,772,772,772,772,772,772,772,772,772,772,772,772,772,772,772,772,772,772,772,772,772,771,765,755,735,717,686,641,589,480,462,451,442,436],"ymouse":[618,618,618,618,618,618,618,618,618,618,618,618,618,618,618,618,618,618,618,618,618,618,618,618,618,618,618,618,618,618,618,618,618,608,589,568,529,496,447,384,318,190,158,137,119,95],"timestamp_mouse":[9,37,45,67,86,105,125,147,167,185,206,225,247,267,286,306,325,345,367,387,406,426,447,465,485,507,527,546,566,587,606,627,645,666,687,705,726,746,766,785,805,826,847,867,886,906],"xSR":741.5,"ySR":573.95,"xT1":424.9,"yT1":0,"xT2":1058.1,"yT2":0,"toosoon":0,"cond_shown":"equaldotsize","ratio_trial":900,"smaller_num":"9","larger_num":"10","correct_side":1,"subjID":"AnaLuciaRincon29","gender":"1","age":"8","school":"4"},{"start_time":1552069752976,"click_time":1552069754063,"finger_time":1552069753644,"fix_duration":250,"trial":21,"RT":668,"MT":419,"sideResp":1,"stimulus":"img/900/randomdotsizeEA/L/2_Ratio_900_L_20_R_18.png","xmouse":[765,765,765,765,765,765,765,765,765,765,765,765,765,765,765,765,765,765,765,765,765,765,765,765,765,765,765,765,765,765,765,765,763,754,733,673,639,605,581,566,559,557,557,557,559,560,557,549,543,539,538,534,530,526,523],"ymouse":[591,591,591,591,591,591,591,591,591,591,591,591,591,591,591,591,591,591,591,591,591,591,591,591,591,591,591,591,591,591,591,589,578,562,532,464,424,384,345,317,293,245,226,210,196,177,148,130,116,106,98,85,79,71,67],"timestamp_mouse":[9,28,47,68,87,109,129,147,168,189,209,227,247,268,289,308,328,348,369,389,408,428,448,469,488,508,528,547,568,588,609,628,647,668,688,709,727,748,767,788,808,827,848,869,888,908,927,948,968,988,1008,1028,1049,1067,1087],"xSR":741.5,"ySR":573.95,"xT1":424.9,"yT1":0,"xT2":1058.1,"yT2":0,"toosoon":0,"cond_shown":"randomdotsizeEA","ratio_trial":900,"smaller_num":"18","larger_num":"20","correct_side":1,"subjID":"AnaLuciaRincon29","gender":"1","age":"8","school":"4"},{"start_time":1552069756301,"click_time":1552069757484,"finger_time":1552069757003,"fix_duration":1215.6614895714913,"trial":22,"RT":702,"MT":481,"sideResp":2,"stimulus":"img/900/equaldotsize/R/11_Ratio_900_L_18_R_20.png","xmouse":[814,811,808,808,803,802,802,802,802,802,802,802,802,802,802,802,802,802,802,802,802,802,802,802,802,802,802,802,802,802,802,803,806,814,825,860,882,904,926,926,941,942,944,945,948,954,958,963,972,979,994,1000,1006,1011,1018,1032,1043,1047,1056,1062],"ymouse":[619,621,623,623,628,628,628,628,628,628,628,628,628,628,628,628,628,628,628,628,628,628,628,628,628,628,628,628,628,628,628,626,617,604,588,538,508,472,424,424,335,314,296,284,273,252,240,224,199,183,155,144,133,124,113,94,82,79,69,63],"timestamp_mouse":[10,22,50,63,84,102,124,143,163,183,203,224,242,264,283,302,322,343,364,384,403,423,443,462,484,502,524,542,562,583,603,623,642,664,684,702,723,743,763,783,803,822,843,863,883,903,924,943,964,983,1002,1023,1044,1063,1082,1103,1122,1143,1163,1182],"xSR":741.5,"ySR":573.95,"xT1":424.9,"yT1":0,"xT2":1058.1,"yT2":0,"toosoon":0,"cond_shown":"equaldotsize","ratio_trial":900,"smaller_num":"18","larger_num":"20","correct_side":2,"subjID":"AnaLuciaRincon29","gender":"1","age":"8","school":"4"},{"start_time":1552069759153,"click_time":1552069760724,"finger_time":1552069759945,"fix_duration":486.10777964676856,"trial":23,"RT":792,"MT":779,"sideResp":2,"stimulus":"img/250/randomdotsizeEA/R/9_Ratio_250_L_3_R_12.png","xmouse":[799,799,799,799,799,799,799,799,799,799,799,799,799,799,799,799,799,799,799,799,799,799,799,799,799,799,799,799,799,799,799,799,799,799,799,799,799,798,806,823,845,873,929,960,977,989,996,1007,1011,1014,1015,1018,1023,1025,1033,1040,1045,1050,1052,1053,1055,1055,1055,1055,1055,1055,1055,1055,1055,1055,1056,1056,1057,1057,1057,1057,1057,1058,1059],"ymouse":[606,606,606,606,606,606,606,606,606,606,606,606,606,606,606,606,606,606,606,606,606,606,606,606,606,606,606,606,606,606,606,606,606,606,606,606,606,606,594,572,539,503,438,389,351,310,266,197,174,156,142,126,94,76,50,34,21,6,2,0,0,0,0,0,0,0,1,11,19,26,33,33,35,35,35,35,35,36,37],"timestamp_mouse":[10,45,51,71,91,111,132,151,170,191,212,232,251,271,290,311,331,351,370,392,412,430,452,471,491,510,532,552,572,591,610,631,652,671,691,710,732,752,771,792,811,830,851,870,890,910,930,952,971,991,1012,1031,1051,1070,1090,1110,1130,1151,1172,1191,1211,1231,1251,1271,1291,1311,1331,1354,1371,1391,1411,1430,1452,1471,1491,1510,1531,1551,1571],"xSR":741.5,"ySR":573.95,"xT1":424.9,"yT1":0,"xT2":1058.1,"yT2":0,"toosoon":0,"cond_shown":"randomdotsizeEA","ratio_trial":250,"smaller_num":"3","larger_num":"12","correct_side":2,"subjID":"AnaLuciaRincon29","gender":"1","age":"8","school":"4"},{"start_time":1552069762741,"click_time":1552069764104,"finger_time":1552069763404,"fix_duration":435.5445819805396,"trial":24,"RT":663,"MT":700,"sideResp":1,"stimulus":"img/500/equaldotanddens/L/7_Ratio_500_L_10_R_5.png","xmouse":[787,787,787,787,787,787,787,787,787,787,787,787,787,787,787,787,787,787,787,787,787,787,787,787,787,787,787,787,787,787,796,799,809,814,816,817,817,817,817,817,817,817,817,817,812,788,760,735,713,683,675,662,653,642,626,621,614,610,605,590,579,562,553,548,543,541,539,529,512],"ymouse":[591,591,591,591,591,591,591,591,591,591,591,591,591,591,591,591,591,591,591,591,591,591,591,591,591,591,591,591,591,591,584,581,574,571,569,568,568,568,568,568,568,568,568,568,566,555,545,534,520,485,459,410,365,325,270,248,228,210,194,154,135,108,98,93,88,86,84,78,63],"timestamp_mouse":[10,35,43,63,83,103,124,144,163,183,204,224,244,263,283,302,323,342,364,383,403,423,443,463,484,503,523,543,564,583,603,623,643,663,682,703,723,744,763,783,803,823,843,862,882,903,922,943,962,982,1002,1023,1042,1063,1082,1103,1124,1143,1163,1183,1202,1222,1242,1263,1283,1303,1322,1344,1363],"xSR":741.5,"ySR":573.95,"xT1":424.9,"yT1":0,"xT2":1058.1,"yT2":0,"toosoon":0,"cond_shown":"equaldotanddens","ratio_trial":500,"smaller_num":"5","larger_num":"10","correct_side":1,"subjID":"AnaLuciaRincon29","gender":"1","age":"8","school":"4"},{"start_time":1552069765503,"click_time":1552069766764,"finger_time":1552069766145,"fix_duration":318.74516893007274,"trial":25,"RT":642,"MT":619,"sideResp":2,"stimulus":"img/900/randomdotsizeEA/R/13_Ratio_900_L_18_R_20.png","xmouse":[771,771,771,771,771,771,771,771,771,771,771,771,771,771,771,771,771,771,771,771,771,771,771,771,771,771,771,771,771,771,775,788,808,826,842,857,878,882,885,887,890,900,907,912,914,918,927,934,939,946,951,967,985,997,1009,1019,1035,1041,1046,1049,1052,1056,1057,1062],"ymouse":[609,609,609,609,609,609,609,609,609,609,609,609,609,609,609,609,609,609,609,609,609,609,609,609,609,609,609,609,609,609,606,588,558,534,513,493,458,443,429,413,395,359,333,318,303,290,268,256,248,237,228,204,183,167,153,138,117,107,97,90,85,73,70,61],"timestamp_mouse":[11,21,40,61,81,100,121,141,162,181,201,221,242,261,281,302,321,340,360,382,402,421,441,461,481,502,521,541,562,581,601,621,642,661,681,701,721,741,761,781,801,821,840,861,880,901,921,941,961,981,1002,1021,1041,1061,1081,1100,1121,1140,1161,1182,1200,1222,1240,1261],"xSR":741.5,"ySR":573.95,"xT1":424.9,"yT1":0,"xT2":1058.1,"yT2":0,"toosoon":0,"cond_shown":"randomdotsizeEA","ratio_trial":900,"smaller_num":"18","larger_num":"20","correct_side":2,"subjID":"AnaLuciaRincon29","gender":"1","age":"8","school":"4"},{"start_time":1552069769304,"click_time":1552069770444,"finger_time":1552069769984,"fix_duration":1357.646156704307,"trial":26,"RT":680,"MT":460,"sideResp":1,"stimulus":"img/250/equaldotsize/L/14_Ratio_250_L_12_R_3.png","xmouse":[779,779,779,779,779,779,779,779,779,779,779,779,779,779,779,779,779,779,779,779,779,779,779,779,779,779,779,779,779,779,779,779,779,759,728,695,667,639,630,623,617,613,603,597,592,586,578,557,544,531,520,510,490,482,474,467,463,456],"ymouse":[603,603,603,603,603,603,603,603,603,603,603,603,603,603,603,603,603,603,603,603,603,603,603,603,603,603,603,603,603,603,603,603,602,578,548,516,490,449,431,410,393,378,345,331,321,309,296,264,246,229,216,203,176,165,153,141,127,90],"timestamp_mouse":[2,20,44,59,79,100,120,139,159,181,201,220,239,259,281,299,319,339,360,380,399,420,439,461,481,500,520,540,559,579,599,620,640,660,680,700,720,739,760,780,799,820,840,860,880,900,921,939,960,979,999,1021,1041,1059,1079,1099,1119,1139],"xSR":741.5,"ySR":573.95,"xT1":424.9,"yT1":0,"xT2":1058.1,"yT2":0,"toosoon":0,"cond_shown":"equaldotsize","ratio_trial":250,"smaller_num":"3","larger_num":"12","correct_side":1,"subjID":"AnaLuciaRincon29","gender":"1","age":"8","school":"4"},{"start_time":1552069771542,"click_time":1552069772643,"finger_time":1552069772205,"fix_duration":357.984589034626,"trial":27,"RT":663,"MT":438,"sideResp":2,"stimulus":"img/250/randomdotsizeEA/R/9_Ratio_250_L_3_R_12.png","xmouse":[789,789,789,789,789,789,789,789,789,789,789,789,789,789,789,789,789,789,789,789,789,790,792,793,794,794,794,794,794,794,801,811,825,845,876,943,966,988,999,1005,1018,1022,1025,1026,1027,1029,1031,1036,1040,1046,1056,1061,1067,1072,1078,1083],"ymouse":[611,611,611,611,611,611,611,611,611,611,611,611,611,611,611,611,611,611,611,611,611,611,611,609,609,609,609,609,609,608,600,589,574,551,513,431,389,323,284,257,211,196,186,181,180,178,174,165,157,146,130,122,114,108,101,90],"timestamp_mouse":[10,37,42,61,83,103,122,142,162,183,201,221,242,262,283,301,321,341,363,381,401,422,442,462,483,501,522,541,563,581,602,622,642,663,682,702,722,742,762,783,802,822,841,862,882,901,923,942,962,982,1001,1022,1041,1062,1082,1101],"xSR":741.5,"ySR":573.95,"xT1":424.9,"yT1":0,"xT2":1058.1,"yT2":0,"toosoon":0,"cond_shown":"randomdotsizeEA","ratio_trial":250,"smaller_num":"3","larger_num":"12","correct_side":2,"subjID":"AnaLuciaRincon29","gender":"1","age":"8","school":"4"},{"start_time":1552069775392,"click_time":1552069776644,"finger_time":1552069776244,"fix_duration":1446.2879014730267,"trial":28,"RT":852,"MT":400,"sideResp":2,"stimulus":"img/500/equaldotsize/R/12_Ratio_500_L_1_R_2.png","xmouse":[780,780,780,780,780,780,780,780,780,780,780,780,780,780,780,780,780,780,780,780,780,780,780,780,780,780,780,780,780,780,780,780,780,780,780,780,780,780,780,780,780,780,788,802,813,825,837,864,877,888,902,917,943,960,983,998,1015,1044,1060,1073,1079,1083,1083],"ymouse":[592,592,592,592,592,592,592,592,592,592,592,592,592,592,592,592,592,592,592,592,592,592,592,592,592,592,592,592,592,592,592,592,592,592,592,592,592,592,592,591,588,581,555,530,507,486,464,424,406,390,370,350,321,305,279,259,236,192,168,144,123,101,75],"timestamp_mouse":[11,44,51,71,91,111,132,153,172,191,211,231,252,273,291,312,333,352,372,392,412,432,452,472,491,512,532,551,573,593,611,631,651,673,692,713,731,753,773,792,812,831,852,872,892,912,931,952,972,992,1012,1032,1052,1071,1091,1111,1132,1152,1172,1192,1212,1232,1251],"xSR":741.5,"ySR":573.95,"xT1":424.9,"yT1":0,"xT2":1058.1,"yT2":0,"toosoon":0,"cond_shown":"equaldotsize","ratio_trial":500,"smaller_num":"1","larger_num":"2","correct_side":2,"subjID":"AnaLuciaRincon29","gender":"1","age":"8","school":"4"},{"start_time":1552069778987,"click_time":1552069779964,"finger_time":1552069779705,"fix_duration":1341.5446015240136,"trial":29,"RT":718,"MT":259,"sideResp":1,"stimulus":"img/750/randomdotsizeEA/R/5_Ratio_750_L_15_R_20.png","xmouse":[772,772,772,772,772,772,772,772,772,772,772,772,772,772,772,772,772,772,772,772,772,772,772,772,772,772,772,772,772,772,772,772,759,753,748,740,730,722,691,667,641,620,599,556,545,536,528,518,502],"ymouse":[620,620,620,620,620,620,620,619,616,616,616,616,616,616,616,616,616,616,616,616,616,616,616,616,616,616,616,616,616,616,616,614,601,596,591,583,573,561,519,483,433,387,338,230,196,164,136,107,54],"timestamp_mouse":[18,43,56,76,97,116,137,156,177,198,216,236,258,276,296,317,336,358,377,396,416,438,456,477,498,517,538,556,577,597,617,636,658,678,696,718,737,757,777,796,817,837,857,876,898,916,936,957,977],"xSR":741.5,"ySR":573.95,"xT1":424.9,"yT1":0,"xT2":1058.1,"yT2":0,"toosoon":0,"cond_shown":"randomdotsizeEA","ratio_trial":750,"smaller_num":"15","larger_num":"20","correct_side":2,"subjID":"AnaLuciaRincon29","gender":"1","age":"8","school":"4"},{"start_time":1552069781183,"click_time":1552069782605,"finger_time":1552069782084,"fix_duration":338.57151953039164,"trial":30,"RT":901,"MT":521,"sideResp":2,"stimulus":"img/900/equaldotanddens/R/12_Ratio_900_L_18_R_20.png","xmouse":[803,802,800,800,800,800,800,800,800,800,800,800,800,800,800,800,800,800,800,800,800,800,800,800,800,800,800,800,800,800,800,800,800,800,800,800,800,800,800,800,800,800,800,799,803,811,822,836,848,868,917,925,943,950,962,968,974,980,987,1004,1015,1019,1023,1025,1030,1033,1037,1042,1047,1055,1058,1059],"ymouse":[607,607,606,606,606,606,606,606,606,606,606,606,606,606,606,606,606,606,606,606,606,606,606,606,606,606,606,606,606,606,606,606,606,606,606,606,606,606,606,606,606,606,606,605,588,569,542,510,471,425,301,281,242,222,191,179,169,157,145,117,102,98,96,95,94,92,90,86,83,80,79,78],"timestamp_mouse":[2,20,41,60,81,101,121,140,161,181,201,220,241,260,282,300,320,342,361,380,400,422,441,460,481,502,522,541,562,582,600,621,641,661,681,701,720,742,760,782,801,821,840,861,881,901,920,941,960,981,1001,1022,1041,1062,1081,1100,1121,1142,1161,1181,1202,1220,1242,1260,1280,1301,1322,1341,1360,1380,1402,1421],"xSR":741.5,"ySR":573.95,"xT1":424.9,"yT1":0,"xT2":1058.1,"yT2":0,"toosoon":0,"cond_shown":"equaldotanddens","ratio_trial":900,"smaller_num":"18","larger_num":"20","correct_side":2,"subjID":"AnaLuciaRincon29","gender":"1","age":"8","school":"4"},{"start_time":1552069784688,"click_time":1552069786005,"finger_time":1552069785465,"fix_duration":1122.0308632547678,"trial":31,"RT":777,"MT":540,"sideResp":2,"stimulus":"img/250/equaldotanddens/R/4_Ratio_250_L_3_R_12.png","xmouse":[777,777,777,777,777,777,777,777,777,777,777,777,777,777,777,777,777,777,777,777,777,777,777,777,777,777,777,777,777,777,777,777,778,779,783,786,792,803,835,857,886,908,927,941,960,965,972,983,1006,1017,1028,1037,1042,1049,1053,1054,1056,1056,1056,1057,1057,1058,1059,1064,1065,1068],"ymouse":[625,625,625,625,625,625,625,625,625,625,625,625,625,625,625,625,625,625,625,625,625,625,625,625,625,625,625,625,625,625,625,625,624,622,616,613,607,598,564,533,492,459,427,401,357,337,316,292,245,226,203,185,169,152,140,136,133,131,130,128,126,125,122,111,105,97],"timestamp_mouse":[15,42,55,77,95,117,136,155,176,197,215,236,255,277,296,315,335,355,376,397,415,436,456,476,497,517,536,556,575,597,615,635,655,675,697,716,736,756,777,796,816,836,856,876,896,917,935,956,976,996,1015,1035,1056,1077,1096,1115,1135,1156,1176,1196,1216,1237,1256,1277,1296,1316],"xSR":741.5,"ySR":573.95,"xT1":424.9,"yT1":0,"xT2":1058.1,"yT2":0,"toosoon":0,"cond_shown":"equaldotanddens","ratio_trial":250,"smaller_num":"3","larger_num":"12","correct_side":2,"subjID":"AnaLuciaRincon29","gender":"1","age":"8","school":"4"},{"start_time":1552069787953,"click_time":1552069789265,"finger_time":1552069788384,"fix_duration":727.9121837689509,"trial":32,"RT":431,"MT":881,"sideResp":1,"stimulus":"img/500/randomdotsizeEA/L/7_Ratio_500_L_10_R_5.png","xmouse":[815,815,815,815,815,815,815,815,815,815,815,815,815,815,815,815,814,814,815,815,816,818,818,819,819,819,819,819,819,819,819,819,819,819,819,819,819,819,819,807,799,786,779,768,757,744,716,698,678,648,636,585,567,552,542,536,528,526,523,521,518,514,510,507,502,498],"ymouse":[601,601,601,601,601,601,601,601,601,601,601,601,601,601,601,601,598,593,587,585,577,565,562,557,555,554,554,554,554,554,554,554,554,554,554,554,554,554,552,541,537,532,530,526,521,515,502,491,479,454,443,383,358,332,311,291,259,241,226,203,189,162,145,129,111,95],"timestamp_mouse":[11,42,51,71,91,112,131,152,171,190,211,230,252,272,290,310,330,351,371,392,412,431,451,470,491,510,530,551,570,592,611,630,651,671,691,712,730,751,770,791,810,831,851,871,891,910,931,952,971,991,1010,1030,1051,1070,1091,1112,1131,1151,1171,1191,1212,1231,1251,1271,1291,1312],"xSR":741.5,"ySR":573.95,"xT1":424.9,"yT1":0,"xT2":1058.1,"yT2":0,"toosoon":0,"cond_shown":"randomdotsizeEA","ratio_trial":500,"smaller_num":"5","larger_num":"10","correct_side":1,"subjID":"AnaLuciaRincon29","gender":"1","age":"8","school":"4"},{"start_time":1552069790840,"click_time":1552069792004,"finger_time":1552069791565,"fix_duration":392.39618303563117,"trial":33,"RT":725,"MT":439,"sideResp":2,"stimulus":"img/900/equaldotsize/L/2_Ratio_900_L_20_R_18.png","xmouse":[770,770,770,770,770,770,770,770,770,770,770,770,770,770,770,770,770,770,770,770,770,770,770,770,770,770,770,770,770,770,771,773,787,797,818,830,840,862,873,887,903,925,973,988,1004,1012,1017,1028,1035,1042,1051,1060,1074,1079,1086,1091,1096,1105,1107],"ymouse":[633,633,633,633,633,633,633,633,633,633,633,633,633,633,633,633,633,633,633,633,633,633,633,633,633,633,633,633,633,633,633,632,619,611,595,582,570,539,521,500,469,429,349,321,288,268,255,226,211,202,188,178,158,150,139,131,120,100,87],"timestamp_mouse":[9,23,43,64,84,103,123,145,163,184,203,225,244,265,284,304,324,343,364,385,403,424,444,465,483,504,525,543,564,585,604,624,644,664,684,704,725,743,764,784,805,823,843,863,884,903,923,943,964,984,1004,1024,1044,1064,1084,1105,1124,1144,1164],"xSR":741.5,"ySR":573.95,"xT1":424.9,"yT1":0,"xT2":1058.1,"yT2":0,"toosoon":0,"cond_shown":"equaldotsize","ratio_trial":900,"smaller_num":"18","larger_num":"20","correct_side":1,"subjID":"AnaLuciaRincon29","gender":"1","age":"8","school":"4"},{"start_time":1552069793237,"click_time":1552069795444,"finger_time":1552069794105,"fix_duration":250,"trial":34,"RT":868,"MT":1339,"sideResp":2,"stimulus":"img/500/randomdotsizeEA/R/14_Ratio_500_L_5_R_10.png","xmouse":[776,776,776,776,776,776,776,776,776,776,776,776,776,776,776,776,776,776,776,776,776,776,776,776,776,776,776,776,776,776,776,776,776,776,776,776,776,776,776,776,775,775,765,743,723,701,683,651,639,631,627,624,620,614,608,599,587,547,533,522,515,511,510,510,510,510,510,510,510,510,510,510,510,510,510,510,510,510,510,510,510,510,509,509,509,509,509,509,509,509,510,514,538,566,589,628,673,721,823,863,901,932,971,998,1011,1022,1031,1046,1053,1061,1067],"ymouse":[611,611,611,611,611,611,611,611,611,611,611,611,611,611,611,611,611,611,611,611,611,611,611,611,611,611,611,611,611,611,611,611,611,611,611,611,611,611,611,611,611,610,593,568,544,522,498,441,409,384,365,350,331,313,297,275,253,189,169,155,146,141,140,140,140,140,140,140,140,140,140,140,140,140,140,140,140,140,140,140,140,140,136,132,130,128,125,124,124,124,123,123,141,162,179,200,218,230,238,233,218,202,178,164,156,150,144,127,117,108,97],"timestamp_mouse":[10,26,60,67,88,106,127,147,167,187,207,228,247,268,286,308,327,346,368,388,407,427,448,466,487,507,526,546,566,586,608,628,648,666,687,708,726,746,766,786,807,827,847,868,887,907,927,946,967,987,1007,1027,1047,1066,1086,1107,1126,1147,1167,1187,1206,1227,1247,1267,1286,1306,1326,1348,1366,1386,1406,1428,1447,1466,1486,1506,1527,1546,1567,1586,1607,1627,1647,1666,1687,1706,1727,1747,1766,1787,1806,1827,1847,1867,1887,1906,1927,1947,1967,1987,2006,2027,2047,2066,2088,2106,2126,2147,2167,2187,2207],"xSR":741.5,"ySR":573.95,"xT1":424.9,"yT1":0,"xT2":1058.1,"yT2":0,"toosoon":0,"cond_shown":"randomdotsizeEA","ratio_trial":500,"smaller_num":"5","larger_num":"10","correct_side":2,"subjID":"AnaLuciaRincon29","gender":"1","age":"8","school":"4"},{"start_time":1552069796756,"click_time":1552069797924,"finger_time":1552069797445,"fix_duration":250,"trial":35,"RT":689,"MT":479,"sideResp":1,"stimulus":"img/900/equaldotanddens/L/4_Ratio_900_L_20_R_18.png","xmouse":[821,821,821,821,821,821,821,821,821,821,821,821,821,821,821,821,821,821,821,821,821,821,821,821,821,821,821,821,821,821,821,817,789,774,761,753,744,728,716,702,681,638,623,609,596,584,567,550,549,548,548,548,548,548,545,541,539,528,524],"ymouse":[624,624,624,624,624,624,624,624,624,624,624,624,624,624,624,624,624,624,624,624,624,624,624,624,624,624,624,624,624,624,625,625,600,587,573,561,539,503,478,445,404,318,283,246,205,171,128,99,96,95,95,95,95,93,87,76,72,52,47],"timestamp_mouse":[10,29,48,68,87,109,129,149,167,188,209,227,247,268,287,309,328,348,368,388,407,429,447,467,487,507,527,548,568,588,608,627,648,667,689,708,728,748,769,789,807,829,848,867,888,907,927,948,968,988,1008,1027,1048,1068,1088,1108,1127,1148,1167],"xSR":741.5,"ySR":573.95,"xT1":424.9,"yT1":0,"xT2":1058.1,"yT2":0,"toosoon":0,"cond_shown":"equaldotanddens","ratio_trial":900,"smaller_num":"18","larger_num":"20","correct_side":1,"subjID":"AnaLuciaRincon29","gender":"1","age":"8","school":"4"},{"start_time":1552069800616,"click_time":1552069801824,"finger_time":1552069801344,"fix_duration":1089.7946985795702,"trial":36,"RT":728,"MT":480,"sideResp":1,"stimulus":"img/500/equaldotsize/L/7_Ratio_500_L_10_R_5.png","xmouse":[795,795,795,795,795,795,795,795,795,795,795,795,795,795,797,798,799,799,799,799,799,799,799,799,799,799,799,799,799,799,799,799,799,799,799,799,798,794,789,777,719,698,679,663,645,599,581,564,549,535,513,507,506,505,502,501,500,500,500,500,494],"ymouse":[615,615,615,615,615,615,615,615,615,615,615,615,615,613,609,606,605,604,604,604,604,604,604,604,604,604,604,604,604,604,604,604,604,600,591,581,573,564,556,542,498,482,470,455,435,371,342,313,287,263,226,213,207,201,179,167,156,145,134,125,93],"timestamp_mouse":[9,28,50,68,89,108,128,149,168,188,207,229,248,268,287,308,328,348,368,388,409,428,448,467,487,509,529,548,567,587,608,629,647,667,688,708,728,748,767,787,808,828,848,868,887,907,928,948,968,987,1007,1028,1049,1068,1088,1107,1128,1147,1168,1189,1208],"xSR":741.5,"ySR":573.95,"xT1":424.9,"yT1":0,"xT2":1058.1,"yT2":0,"toosoon":0,"cond_shown":"equaldotsize","ratio_trial":500,"smaller_num":"5","larger_num":"10","correct_side":1,"subjID":"AnaLuciaRincon29","gender":"1","age":"8","school":"4"},{"start_time":1552069805080,"click_time":1552069806424,"finger_time":1552069805983,"fix_duration":335.83045425955714,"trial":37,"RT":903,"MT":441,"sideResp":2,"stimulus":"img/500/equaldotsize/R/14_Ratio_500_L_5_R_10.png","xmouse":[790,790,790,790,790,790,790,790,790,790,790,790,790,790,790,790,790,790,790,790,790,790,790,790,790,790,790,790,790,790,790,790,790,790,790,790,790,790,790,790,790,790,792,803,817,841,883,941,960,977,990,996,1004,1010,1017,1020,1026,1036,1041,1046,1051,1054,1064,1070,1080,1089,1102,1109],"ymouse":[607,607,607,607,607,607,607,607,607,607,607,607,607,607,607,607,607,607,607,607,607,607,607,607,607,607,607,607,607,607,607,607,607,607,607,607,607,607,607,607,607,607,603,596,587,573,543,497,477,448,414,375,331,319,307,293,269,236,222,210,203,196,182,171,154,138,114,75],"timestamp_mouse":[10,24,48,65,83,103,124,143,165,184,203,224,244,264,284,304,324,343,365,383,403,424,445,464,485,504,524,544,564,585,604,625,644,664,684,705,725,743,764,784,803,825,843,864,885,903,923,943,963,983,1004,1024,1044,1064,1084,1104,1124,1143,1164,1183,1204,1225,1244,1263,1283,1304,1323,1343],"xSR":741.5,"ySR":573.95,"xT1":424.9,"yT1":0,"xT2":1058.1,"yT2":0,"toosoon":0,"cond_shown":"equaldotsize","ratio_trial":500,"smaller_num":"5","larger_num":"10","correct_side":2,"subjID":"AnaLuciaRincon29","gender":"1","age":"8","school":"4"},{"start_time":1552069808274,"click_time":1552069809525,"finger_time":1552069808944,"fix_duration":709.1613609639328,"trial":38,"RT":670,"MT":581,"sideResp":1,"stimulus":"img/750/randomdotsizeEA/L/13_Ratio_750_L_8_R_6.png","xmouse":[815,815,815,815,815,815,815,815,815,815,815,815,815,815,815,815,815,815,815,815,815,815,815,815,815,815,815,815,815,812,806,796,776,767,751,742,733,703,681,647,614,575,509,473,452,435,421,402,399,399,399,399,399,402,406,409,412,417,419,421,422,424,431],"ymouse":[593,593,593,593,593,593,593,593,593,593,593,593,593,593,593,593,593,593,593,593,593,593,593,593,593,593,593,593,593,591,588,584,576,571,562,557,549,520,496,456,411,361,279,235,211,189,169,140,133,130,127,126,124,124,122,119,114,105,101,95,87,78,64],"timestamp_mouse":[16,29,49,71,90,110,130,149,171,189,209,229,251,269,289,310,329,349,370,391,409,429,449,469,489,509,529,550,571,589,610,630,650,670,690,709,730,749,769,790,810,830,849,869,890,911,931,950,969,990,1010,1029,1050,1069,1090,1110,1129,1150,1169,1189,1210,1230,1250],"xSR":741.5,"ySR":573.95,"xT1":424.9,"yT1":0,"xT2":1058.1,"yT2":0,"toosoon":0,"cond_shown":"randomdotsizeEA","ratio_trial":750,"smaller_num":"6","larger_num":"8","correct_side":1,"subjID":"AnaLuciaRincon29","gender":"1","age":"8","school":"4"},{"start_time":1552069812664,"click_time":1552069814063,"finger_time":1552069813443,"fix_duration":1418.5646825714587,"trial":39,"RT":779,"MT":620,"sideResp":2,"stimulus":"img/250/equaldotanddens/R/6_Ratio_250_L_6_R_24.png","xmouse":[773,773,773,773,773,773,773,773,773,773,773,773,773,773,773,773,774,774,774,774,774,775,775,775,775,775,775,775,775,775,775,775,775,775,781,788,798,813,829,860,874,886,902,907,933,946,955,964,971,980,981,981,981,985,988,994,1002,1010,1032,1042,1049,1059,1066,1072,1073,1073,1073,1073,1074,1076,1078],"ymouse":[620,620,620,620,620,620,620,620,620,620,620,620,620,620,620,620,625,626,626,626,626,625,624,624,624,624,624,624,624,624,624,624,624,624,620,615,607,593,574,537,519,500,465,454,401,380,361,342,324,303,299,296,295,286,276,262,248,231,193,173,155,138,126,117,116,116,116,116,113,103,91],"timestamp_mouse":[1,20,50,59,80,100,118,140,160,178,199,220,239,260,278,299,318,338,360,379,400,419,440,460,480,499,519,539,558,579,599,618,640,659,679,699,718,739,759,779,799,819,839,859,879,899,919,939,959,979,999,1019,1039,1060,1078,1099,1119,1140,1160,1179,1200,1220,1239,1259,1280,1300,1318,1339,1360,1379,1399],"xSR":741.5,"ySR":573.95,"xT1":424.9,"yT1":0,"xT2":1058.1,"yT2":0,"toosoon":0,"cond_shown":"equaldotanddens","ratio_trial":250,"smaller_num":"6","larger_num":"24","correct_side":2,"subjID":"AnaLuciaRincon29","gender":"1","age":"8","school":"4"},{"start_time":1552069816515,"click_time":1552069818003,"finger_time":1552069817243,"fix_duration":1110.4973339997584,"trial":40,"RT":728,"MT":760,"sideResp":2,"stimulus":"img/250/randomdotsizeEA/R/11_Ratio_250_L_3_R_12.png","xmouse":[797,797,797,797,797,797,797,797,797,797,797,797,797,797,797,797,797,797,797,797,797,797,797,797,797,797,797,797,797,797,797,797,797,797,797,797,803,809,813,821,832,858,871,884,900,913,933,947,955,962,969,988,998,1008,1016,1023,1030,1044,1054,1059,1063,1068,1072,1074,1077,1080,1083,1083,1084,1085,1085,1087,1088,1088,1090],"ymouse":[583,583,583,583,583,583,583,583,583,583,583,583,583,583,583,583,583,583,583,583,583,583,583,583,583,583,583,583,583,583,583,583,583,583,581,579,565,551,543,531,518,485,465,447,426,407,369,343,329,318,305,278,264,249,235,220,206,182,164,156,148,139,135,131,127,124,118,116,115,113,111,108,104,102,98],"timestamp_mouse":[10,28,50,69,89,109,128,147,169,188,208,228,248,269,289,308,328,348,368,388,408,427,449,469,487,509,528,547,567,588,608,629,647,669,688,708,728,748,769,788,809,828,848,868,888,907,928,948,968,988,1008,1028,1047,1068,1088,1109,1128,1148,1168,1189,1207,1228,1248,1268,1288,1309,1328,1347,1368,1388,1408,1428,1448,1468,1488],"xSR":741.5,"ySR":573.95,"xT1":424.9,"yT1":0,"xT2":1058.1,"yT2":0,"toosoon":0,"cond_shown":"randomdotsizeEA","ratio_trial":250,"smaller_num":"3","larger_num":"12","correct_side":2,"subjID":"AnaLuciaRincon29","gender":"1","age":"8","school":"4"},{"start_time":1552069819770,"click_time":1552069821083,"finger_time":1552069820443,"fix_duration":286.53886878068914,"trial":41,"RT":673,"MT":640,"sideResp":1,"stimulus":"img/250/equaldotsize/L/2_Ratio_250_L_16_R_4.png","xmouse":[798,798,798,798,798,798,798,798,798,798,798,798,798,798,798,798,798,798,798,798,798,798,798,798,798,798,798,798,797,790,782,775,766,757,730,708,684,660,642,619,611,603,593,583,566,566,564,564,561,558,555,550,542,525,504,494,484,477,471,468,467,467,467,465,465,465],"ymouse":[600,600,600,600,600,600,600,600,600,600,600,600,600,600,600,600,600,600,600,600,600,600,600,600,600,600,600,600,600,599,594,589,581,572,530,495,459,426,401,359,341,321,298,277,244,239,235,232,224,219,215,208,201,190,174,167,160,152,145,135,130,126,122,116,104,97],"timestamp_mouse":[14,36,52,73,94,112,134,154,173,193,214,234,253,274,293,313,333,352,374,393,413,434,454,473,494,513,534,552,573,593,613,633,652,673,693,714,734,754,773,793,813,833,854,873,893,912,932,953,974,993,1013,1033,1053,1073,1093,1113,1134,1153,1174,1193,1213,1233,1253,1273,1294,1313],"xSR":741.5,"ySR":573.95,"xT1":424.9,"yT1":0,"xT2":1058.1,"yT2":0,"toosoon":0,"cond_shown":"equaldotsize","ratio_trial":250,"smaller_num":"4","larger_num":"16","correct_side":1,"subjID":"AnaLuciaRincon29","gender":"1","age":"8","school":"4"},{"start_time":1552069824271,"click_time":1552069825742,"finger_time":1552069825184,"fix_duration":1186.7216135696306,"trial":42,"RT":913,"MT":558,"sideResp":1,"stimulus":"img/750/equaldotanddens/L/1_Ratio_750_L_20_R_15.png","xmouse":[793,793,793,793,793,793,793,793,793,793,793,793,793,793,793,793,793,793,793,793,793,793,793,793,793,793,793,793,793,793,793,793,793,793,793,793,793,793,793,793,793,793,793,793,787,775,757,712,680,628,609,593,580,569,552,541,528,517,515,515,515,515,514,510,503,498,493,491,490,489,489,488,487,487],"ymouse":[623,623,623,623,623,623,623,623,623,623,623,623,623,623,623,623,623,623,623,623,623,623,623,623,623,623,623,623,623,623,623,623,623,623,623,623,623,623,623,623,623,618,614,608,583,562,538,492,462,422,410,398,385,370,335,312,289,268,260,246,234,221,204,187,156,141,127,122,121,114,110,104,101,98],"timestamp_mouse":[14,38,52,72,92,111,133,152,172,192,213,232,253,273,293,312,333,352,373,393,412,433,453,472,491,513,533,552,573,593,612,631,652,673,692,713,732,752,772,792,812,832,852,872,892,913,933,952,973,992,1012,1032,1052,1072,1092,1112,1132,1152,1172,1191,1212,1232,1252,1272,1292,1311,1332,1353,1372,1392,1412,1432,1452,1471],"xSR":741.5,"ySR":573.95,"xT1":424.9,"yT1":0,"xT2":1058.1,"yT2":0,"toosoon":0,"cond_shown":"equaldotanddens","ratio_trial":750,"smaller_num":"15","larger_num":"20","correct_side":1,"subjID":"AnaLuciaRincon29","gender":"1","age":"8","school":"4"},{"start_time":1552069827715,"click_time":1552069828763,"finger_time":1552069828283,"fix_duration":250,"trial":43,"RT":568,"MT":480,"sideResp":2,"stimulus":"img/500/equaldotanddens/R/2_Ratio_500_L_3_R_6.png","xmouse":[762,762,762,762,762,762,762,762,762,762,762,762,762,762,762,762,762,762,762,762,762,763,767,771,773,776,781,788,805,816,825,835,856,874,886,900,914,938,950,961,973,984,1010,1016,1022,1027,1031,1040,1045,1050,1054,1058,1060],"ymouse":[602,602,602,602,602,602,602,602,602,602,602,602,602,602,602,602,602,602,602,602,603,603,600,598,596,593,589,583,567,556,545,533,505,479,459,437,411,362,333,305,275,248,184,166,154,139,129,109,101,93,86,80,77],"timestamp_mouse":[8,28,48,69,88,109,129,148,167,188,209,229,247,268,288,308,327,348,367,388,408,429,448,469,488,508,528,548,568,587,607,628,648,667,688,708,729,748,767,788,808,827,849,867,888,908,928,948,967,988,1008,1028,1048],"xSR":741.5,"ySR":573.95,"xT1":424.9,"yT1":0,"xT2":1058.1,"yT2":0,"toosoon":0,"cond_shown":"equaldotanddens","ratio_trial":500,"smaller_num":"3","larger_num":"6","correct_side":2,"subjID":"AnaLuciaRincon29","gender":"1","age":"8","school":"4"},{"start_time":1552069830533,"click_time":1552069831384,"finger_time":1552069830923,"fix_duration":749.4751210900529,"trial":44,"RT":390,"MT":461,"sideResp":1,"stimulus":"img/500/equaldotanddens/L/8_Ratio_500_L_8_R_4.png","xmouse":[764,764,764,764,764,764,764,764,764,764,764,764,764,764,764,764,764,765,765,761,746,723,716,706,698,686,640,612,588,573,564,554,539,537,536,536,536,535,534,534,531,526,513],"ymouse":[592,592,592,592,592,592,592,592,592,592,592,592,592,592,592,592,592,589,579,563,527,486,473,459,443,422,341,283,243,213,191,170,133,128,126,124,121,119,115,109,96,85,58],"timestamp_mouse":[14,31,50,71,89,110,131,150,170,191,209,231,251,269,290,310,329,350,370,390,411,431,449,471,491,510,531,550,571,591,610,630,650,671,689,710,731,750,771,790,809,830,851],"xSR":741.5,"ySR":573.95,"xT1":424.9,"yT1":0,"xT2":1058.1,"yT2":0,"toosoon":0,"cond_shown":"equaldotanddens","ratio_trial":500,"smaller_num":"4","larger_num":"8","correct_side":1,"subjID":"AnaLuciaRincon29","gender":"1","age":"8","school":"4"},{"start_time":1552069833910,"click_time":1552069836144,"finger_time":1552069834383,"fix_duration":1285.1696729995338,"trial":45,"RT":473,"MT":1761,"sideResp":1,"stimulus":"img/750/randomdotsizeEA/L/14_Ratio_750_L_8_R_6.png","xmouse":[785,785,785,785,785,785,785,785,785,785,785,785,785,785,785,785,785,785,786,787,788,789,792,798,801,805,809,811,814,816,819,833,851,907,931,960,980,996,1023,1031,1039,1041,1044,1046,1047,1048,1048,1048,1048,1048,1048,1048,1048,1050,1050,1050,1051,1051,1051,1051,1051,1051,1051,1051,1051,1051,1051,1051,1051,1051,1051,1051,1051,1051,1051,1051,1051,1051,1051,1051,1051,1051,1050,1046,1041,1032,1015,990,960,877,839,839,752,688,668,654,647,644,643,641,637,625,606,565,551,541,537,536,536,535,531,523],"ymouse":[605,605,605,605,605,605,605,605,605,605,605,605,605,605,605,605,605,605,606,605,601,597,585,566,556,545,538,530,523,520,514,489,462,375,309,242,176,121,62,43,23,19,9,1,0,0,0,0,0,0,0,0,5,27,36,41,43,44,44,44,44,44,44,44,44,44,44,44,44,44,44,44,46,48,49,49,49,49,49,49,49,49,49,49,49,51,51,51,53,68,72,72,78,80,83,84,85,85,85,85,84,77,66,45,39,35,34,34,34,34,34,34],"timestamp_mouse":[13,41,54,72,93,112,133,153,174,192,212,234,253,274,292,313,334,352,373,394,413,434,453,473,492,512,533,553,573,594,614,634,654,673,694,713,733,753,773,793,813,832,854,872,894,914,933,953,974,993,1012,1033,1052,1073,1092,1114,1133,1152,1173,1193,1213,1232,1252,1273,1293,1313,1332,1354,1374,1394,1414,1434,1453,1473,1493,1513,1533,1553,1573,1593,1613,1633,1653,1673,1693,1713,1733,1752,1774,1793,1813,1833,1853,1874,1892,1914,1933,1953,1973,1993,2013,2033,2053,2074,2093,2113,2133,2153,2173,2194,2213,2234],"xSR":741.5,"ySR":573.95,"xT1":424.9,"yT1":0,"xT2":1058.1,"yT2":0,"toosoon":0,"cond_shown":"randomdotsizeEA","ratio_trial":750,"smaller_num":"6","larger_num":"8","correct_side":1,"subjID":"AnaLuciaRincon29","gender":"1","age":"8","school":"4"},{"start_time":1552069839045,"click_time":1552069840083,"finger_time":1552069839563,"fix_duration":1461.8996440657554,"trial":46,"RT":518,"MT":520,"sideResp":2,"stimulus":"img/500/equaldotanddens/R/3_Ratio_500_L_10_R_20.png","xmouse":[817,817,817,817,817,817,817,817,817,817,816,816,816,816,815,815,814,814,814,814,814,814,814,817,823,828,835,848,855,861,865,874,892,902,914,927,942,966,975,984,993,1000,1013,1022,1030,1036,1040,1043,1044,1044,1058,1064],"ymouse":[623,623,623,623,623,623,623,623,623,623,622,622,622,622,622,622,622,622,622,622,622,620,606,594,576,556,530,463,433,391,361,322,277,256,231,206,181,146,132,123,112,108,102,96,91,86,81,78,78,77,67,60],"timestamp_mouse":[19,48,58,78,99,118,138,159,178,198,217,243,258,278,298,319,338,359,378,399,417,437,459,478,498,517,538,558,579,598,618,638,658,678,698,718,739,758,779,798,818,837,858,878,898,918,938,958,978,998,1017,1038],"xSR":741.5,"ySR":573.95,"xT1":424.9,"yT1":0,"xT2":1058.1,"yT2":0,"toosoon":0,"cond_shown":"equaldotanddens","ratio_trial":500,"smaller_num":"10","larger_num":"20","correct_side":2,"subjID":"AnaLuciaRincon29","gender":"1","age":"8","school":"4"},{"start_time":1552069843088,"click_time":1552069843903,"finger_time":1552069843523,"fix_duration":1484.0989481123331,"trial":47,"RT":435,"MT":380,"sideResp":1,"stimulus":"img/900/equaldotanddens/L/2_Ratio_900_L_20_R_18.png","xmouse":[775,775,775,775,775,775,775,775,775,775,775,775,775,775,775,775,775,775,775,774,768,762,757,751,747,740,727,718,703,676,620,594,577,561,551,527,516,510,506,503,500],"ymouse":[592,592,592,591,591,591,591,591,591,591,591,591,591,591,591,591,591,591,591,588,576,564,555,545,538,527,504,486,462,417,318,275,244,218,196,156,134,123,111,100,90],"timestamp_mouse":[20,35,55,74,96,115,135,155,175,195,215,235,255,275,295,316,335,355,375,396,415,435,456,476,496,515,534,555,575,595,615,635,655,675,695,714,735,755,775,796,815],"xSR":741.5,"ySR":573.95,"xT1":424.9,"yT1":0,"xT2":1058.1,"yT2":0,"toosoon":0,"cond_shown":"equaldotanddens","ratio_trial":900,"smaller_num":"18","larger_num":"20","correct_side":1,"subjID":"AnaLuciaRincon29","gender":"1","age":"8","school":"4"},{"start_time":1552069845015,"click_time":1552069846383,"finger_time":1552069845723,"fix_duration":329.41661499662456,"trial":48,"RT":708,"MT":660,"sideResp":2,"stimulus":"img/900/randomdotsizeEA/L/2_Ratio_900_L_20_R_18.png","xmouse":[795,795,795,795,795,795,795,795,795,795,795,795,795,795,795,795,795,795,795,795,795,795,795,795,795,795,795,795,796,799,804,807,811,817,834,847,859,874,888,926,939,950,959,964,975,981,985,988,991,998,1001,1004,1006,1007,1011,1014,1018,1022,1028,1041,1048,1055,1062,1068,1073,1078,1080,1081,1084],"ymouse":[627,627,627,627,627,627,627,627,627,627,627,627,627,627,627,627,627,627,627,627,627,627,627,627,627,627,627,627,628,628,625,623,618,613,596,583,569,551,531,474,453,434,417,404,378,361,348,331,313,284,269,262,255,252,242,238,232,224,215,197,184,175,166,158,149,128,115,106,98],"timestamp_mouse":[18,33,48,69,88,107,127,149,169,187,208,227,248,267,289,309,328,348,368,388,409,427,447,469,489,509,528,549,569,588,608,628,648,669,688,708,727,747,768,789,807,828,848,868,888,908,928,948,967,989,1007,1028,1048,1068,1088,1108,1128,1148,1168,1188,1207,1228,1247,1268,1287,1308,1328,1348,1367],"xSR":741.5,"ySR":573.95,"xT1":424.9,"yT1":0,"xT2":1058.1,"yT2":0,"toosoon":0,"cond_shown":"randomdotsizeEA","ratio_trial":900,"smaller_num":"18","larger_num":"20","correct_side":1,"subjID":"AnaLuciaRincon29","gender":"1","age":"8","school":"4"},{"start_time":1552069848196,"click_time":1552069849484,"finger_time":1552069848763,"fix_duration":870.6277584907107,"trial":49,"RT":567,"MT":721,"sideResp":1,"stimulus":"img/500/equaldotanddens/L/4_Ratio_500_L_18_R_9.png","xmouse":[761,761,761,761,761,761,761,761,761,761,761,761,761,761,761,761,761,761,761,761,761,761,761,761,761,760,754,745,736,723,700,672,657,644,635,627,615,610,605,601,595,579,569,561,550,539,520,512,508,504,502,501,501,501,501,501,500,500,500,499,498,495,494,493,493],"ymouse":[662,662,662,662,662,662,662,662,662,662,662,662,662,662,662,662,662,662,662,662,662,662,662,662,662,660,652,640,628,614,584,539,515,490,469,448,417,399,383,365,349,312,293,274,256,240,213,204,197,188,184,178,177,176,173,171,161,155,149,142,130,113,107,102,99],"timestamp_mouse":[9,43,48,67,87,108,128,148,168,187,207,228,247,266,286,308,327,347,367,388,407,428,448,467,487,507,527,548,567,587,608,626,646,667,688,707,727,748,767,787,807,826,847,867,888,907,927,948,967,987,1007,1027,1047,1066,1087,1106,1126,1148,1167,1187,1207,1226,1247,1268,1288],"xSR":741.5,"ySR":573.95,"xT1":424.9,"yT1":0,"xT2":1058.1,"yT2":0,"toosoon":0,"cond_shown":"equaldotanddens","ratio_trial":500,"smaller_num":"9","larger_num":"18","correct_side":1,"subjID":"AnaLuciaRincon29","gender":"1","age":"8","school":"4"},{"start_time":1552069851194,"click_time":1552069852643,"finger_time":1552069852063,"fix_duration":648.5285921976124,"trial":50,"RT":869,"MT":580,"sideResp":2,"stimulus":"img/900/randomdotsizeEA/L/4_Ratio_900_L_20_R_18.png","xmouse":[776,776,776,776,776,776,776,776,776,776,776,776,776,776,776,776,776,776,776,776,776,776,776,776,776,776,776,776,776,778,779,785,788,790,791,792,793,793,793,793,795,814,832,849,871,887,917,930,937,938,943,951,953,954,956,959,969,975,981,994,1003,1021,1027,1033,1038,1043,1046,1051,1054,1056,1057,1058,1059],"ymouse":[642,642,642,642,642,642,642,642,642,642,641,640,640,640,640,640,640,640,640,640,640,640,640,640,640,640,640,640,640,637,636,630,627,626,623,622,620,620,620,619,617,602,590,576,556,534,476,435,388,337,317,298,293,288,283,277,259,246,232,205,188,159,145,133,120,110,102,89,85,79,76,72,72],"timestamp_mouse":[14,29,49,69,90,110,130,150,170,190,208,230,250,268,289,310,329,349,369,390,410,429,450,470,490,508,528,549,568,588,610,629,650,670,690,709,729,750,768,789,810,829,849,869,888,909,929,949,969,989,1008,1028,1049,1069,1089,1109,1129,1149,1168,1189,1209,1228,1250,1269,1289,1310,1328,1350,1370,1389,1410,1429,1449],"xSR":741.5,"ySR":573.95,"xT1":424.9,"yT1":0,"xT2":1058.1,"yT2":0,"toosoon":0,"cond_shown":"randomdotsizeEA","ratio_trial":900,"smaller_num":"18","larger_num":"20","correct_side":1,"subjID":"AnaLuciaRincon29","gender":"1","age":"8","school":"4"},{"start_time":1552069854801,"click_time":1552069856143,"finger_time":1552069855723,"fix_duration":1175.9975905639265,"trial":51,"RT":922,"MT":420,"sideResp":2,"stimulus":"img/900/equaldotanddens/R/13_Ratio_900_L_18_R_20.png","xmouse":[778,778,778,778,778,778,778,778,778,778,778,778,778,778,778,778,778,778,778,778,778,778,778,778,778,778,778,778,778,778,778,778,778,778,778,778,778,778,778,778,778,778,787,800,810,821,840,853,864,874,888,921,943,965,984,1002,1031,1046,1053,1059,1067,1074,1091,1099,1106,1115,1133,1139],"ymouse":[620,620,620,620,620,620,620,620,620,620,620,620,620,620,620,620,620,620,620,620,620,620,620,620,620,620,620,620,620,620,620,620,620,620,620,620,620,620,620,620,620,620,613,604,595,585,563,547,534,525,514,482,458,430,402,377,334,302,284,267,251,234,196,176,158,141,102,86],"timestamp_mouse":[10,22,44,62,82,101,123,143,162,182,203,223,242,261,283,301,322,343,361,383,402,422,443,463,481,502,523,541,561,583,603,623,642,663,683,703,723,742,763,781,802,823,842,862,882,902,922,941,962,981,1001,1022,1042,1062,1083,1103,1122,1143,1163,1181,1202,1221,1242,1262,1282,1302,1322,1342],"xSR":741.5,"ySR":573.95,"xT1":424.9,"yT1":0,"xT2":1058.1,"yT2":0,"toosoon":0,"cond_shown":"equaldotanddens","ratio_trial":900,"smaller_num":"18","larger_num":"20","correct_side":2,"subjID":"AnaLuciaRincon29","gender":"1","age":"8","school":"4"},{"start_time":1552069858012,"click_time":1552069858943,"finger_time":1552069858542,"fix_duration":487.3702450770934,"trial":52,"RT":530,"MT":401,"sideResp":1,"stimulus":"img/500/equaldotsize/L/13_Ratio_500_L_12_R_6.png","xmouse":[800,800,800,800,800,800,800,800,800,800,800,800,800,800,800,800,800,800,800,800,800,797,792,783,772,759,732,724,714,705,693,666,650,632,618,602,585,580,575,569,564,554,547,542,530,520,499],"ymouse":[640,640,640,640,640,640,640,640,640,640,640,640,640,640,640,640,640,640,640,640,638,633,629,626,622,616,600,591,579,563,544,496,463,427,396,359,316,298,281,265,249,209,188,166,135,116,86],"timestamp_mouse":[14,42,51,71,92,110,130,151,171,191,211,230,251,271,291,312,332,352,372,391,412,431,451,471,491,512,530,551,572,591,611,630,652,671,692,711,732,751,771,790,811,830,851,871,891,911,930],"xSR":741.5,"ySR":573.95,"xT1":424.9,"yT1":0,"xT2":1058.1,"yT2":0,"toosoon":0,"cond_shown":"equaldotsize","ratio_trial":500,"smaller_num":"6","larger_num":"12","correct_side":1,"subjID":"AnaLuciaRincon29","gender":"1","age":"8","school":"4"},{"start_time":1552069860924,"click_time":1552069862883,"finger_time":1552069861624,"fix_duration":918.647830829766,"trial":53,"RT":700,"MT":1259,"sideResp":1,"stimulus":"img/900/equaldotsize/R/15_Ratio_900_L_9_R_10.png","xmouse":[790,790,790,790,790,790,790,790,790,790,790,790,790,790,790,790,790,790,790,790,790,790,790,791,792,794,798,804,808,812,815,822,825,829,833,837,851,854,865,874,881,888,899,904,906,910,918,920,923,927,931,943,947,952,955,957,962,963,966,968,971,975,986,993,998,1003,1007,1009,1011,1013,1016,1027,1032,1038,1043,1048,1052,1053,1053,1053,1053,1040,1032,1023,1012,997,980,937,925,915,908,891,874,846,797,726,559,533,521],"ymouse":[599,599,599,599,599,599,599,599,599,599,599,599,599,599,599,599,599,599,599,599,599,600,600,600,600,600,599,596,593,590,588,583,580,578,574,571,556,551,538,526,517,507,488,479,472,465,445,433,422,408,393,362,346,331,318,311,301,297,292,287,279,270,247,235,227,219,208,202,198,193,187,164,152,138,126,111,97,74,73,73,72,87,99,112,126,141,155,183,187,188,188,183,172,156,132,98,30,19,12],"timestamp_mouse":[1,19,39,58,78,100,120,140,158,178,200,220,238,258,280,300,319,338,360,380,400,420,439,460,479,500,519,539,559,580,600,619,639,660,679,700,719,739,759,780,800,819,838,859,879,898,920,938,960,980,999,1019,1038,1059,1079,1100,1119,1138,1159,1179,1198,1218,1239,1259,1279,1299,1319,1339,1359,1379,1398,1420,1438,1459,1480,1500,1519,1539,1558,1579,1599,1619,1639,1659,1678,1699,1719,1739,1759,1780,1800,1819,1839,1860,1879,1899,1920,1939,1959],"xSR":741.5,"ySR":573.95,"xT1":424.9,"yT1":0,"xT2":1058.1,"yT2":0,"toosoon":0,"cond_shown":"equaldotsize","ratio_trial":900,"smaller_num":"9","larger_num":"10","correct_side":2,"subjID":"AnaLuciaRincon29","gender":"1","age":"8","school":"4"},{"start_time":1552069864576,"click_time":1552069865784,"finger_time":1552069865363,"fix_duration":250,"trial":54,"RT":787,"MT":421,"sideResp":1,"stimulus":"img/500/randomdotsizeEA/L/5_Ratio_500_L_4_R_2.png","xmouse":[806,806,806,806,806,806,806,806,806,806,806,806,806,806,806,806,806,806,806,806,806,806,806,806,806,806,806,806,806,806,806,806,806,806,806,806,805,798,782,722,675,630,598,574,529,513,494,483,476,472,472,472,472,472,472,473,474,475,477,479,479],"ymouse":[621,621,621,621,621,621,621,621,621,621,621,621,621,621,621,621,621,621,621,621,621,621,621,621,620,619,619,619,619,619,616,614,614,614,614,614,612,606,593,534,487,440,400,367,274,239,207,187,174,162,162,162,162,160,152,148,143,138,131,109,90],"timestamp_mouse":[13,29,48,67,87,107,128,146,167,186,207,226,248,268,288,307,328,348,368,387,407,428,448,468,488,507,528,547,566,587,607,628,647,667,686,707,727,747,766,787,807,827,847,866,887,907,926,947,967,987,1006,1026,1047,1067,1086,1107,1128,1147,1168,1187,1208],"xSR":741.5,"ySR":573.95,"xT1":424.9,"yT1":0,"xT2":1058.1,"yT2":0,"toosoon":0,"cond_shown":"randomdotsizeEA","ratio_trial":500,"smaller_num":"2","larger_num":"4","correct_side":1,"subjID":"AnaLuciaRincon29","gender":"1","age":"8","school":"4"},{"start_time":1552069867117,"click_time":1552069868523,"finger_time":1552069867843,"fix_duration":414.88605732487883,"trial":55,"RT":726,"MT":680,"sideResp":2,"stimulus":"img/900/equaldotanddens/R/15_Ratio_900_L_9_R_10.png","xmouse":[768,769,771,773,773,773,773,773,773,773,773,773,773,773,773,773,773,774,775,776,776,776,776,776,776,776,776,776,776,776,776,777,783,794,820,839,861,893,910,925,938,951,976,990,1001,1018,1024,1027,1027,1027,1027,1027,1027,1029,1031,1032,1033,1038,1039,1041,1043,1045,1053,1058,1061,1065,1068,1071,1072,1073,1073],"ymouse":[614,618,632,644,644,644,644,644,644,644,644,644,644,644,644,644,644,643,641,639,639,639,639,639,639,639,639,639,639,639,639,639,638,636,632,628,619,594,579,563,546,526,478,453,429,386,362,316,300,288,279,273,262,251,240,230,222,209,201,197,192,187,173,158,153,136,128,117,112,103,94],"timestamp_mouse":[6,26,46,66,86,105,125,147,167,187,206,227,247,266,285,305,327,346,366,387,407,426,446,467,486,507,525,547,567,587,607,627,645,667,686,705,725,746,766,786,805,826,846,867,885,906,927,946,966,987,1006,1026,1046,1066,1086,1106,1127,1146,1167,1186,1205,1226,1246,1265,1286,1306,1326,1346,1365,1385,1405],"xSR":741.5,"ySR":573.95,"xT1":424.9,"yT1":0,"xT2":1058.1,"yT2":0,"toosoon":0,"cond_shown":"equaldotanddens","ratio_trial":900,"smaller_num":"9","larger_num":"10","correct_side":2,"subjID":"AnaLuciaRincon29","gender":"1","age":"8","school":"4"},{"start_time":1552069869980,"click_time":1552069871264,"finger_time":1552069870723,"fix_duration":416.00832007153923,"trial":56,"RT":743,"MT":541,"sideResp":1,"stimulus":"img/900/equaldotsize/L/4_Ratio_900_L_20_R_18.png","xmouse":[813,813,812,805,796,795,795,795,795,795,795,795,795,795,795,795,795,795,795,795,795,795,795,795,795,795,795,795,795,795,795,791,782,771,758,752,747,739,721,664,629,616,607,601,587,581,569,556,541,510,502,499,498,495,488,484,483,483,482,478,476,475,475,475,475],"ymouse":[636,636,636,635,633,633,633,633,633,633,633,633,633,633,633,633,633,633,633,633,633,633,633,633,633,633,633,633,633,633,633,632,628,621,612,607,597,582,553,473,431,410,392,376,341,324,305,289,272,239,225,219,213,204,184,175,170,165,160,144,126,115,107,101,95],"timestamp_mouse":[12,30,44,62,82,103,123,143,163,183,203,224,242,263,284,303,323,342,363,383,404,423,442,463,483,504,524,544,563,582,602,622,644,664,683,703,723,743,764,783,802,823,843,863,883,903,924,943,964,983,1003,1022,1044,1064,1083,1104,1124,1143,1164,1183,1204,1224,1245,1265,1284],"xSR":741.5,"ySR":573.95,"xT1":424.9,"yT1":0,"xT2":1058.1,"yT2":0,"toosoon":0,"cond_shown":"equaldotsize","ratio_trial":900,"smaller_num":"18","larger_num":"20","correct_side":1,"subjID":"AnaLuciaRincon29","gender":"1","age":"8","school":"4"},{"start_time":1552069872759,"click_time":1552069873804,"finger_time":1552069873244,"fix_duration":373.78160654355685,"trial":57,"RT":485,"MT":560,"sideResp":2,"stimulus":"img/250/equaldotanddens/R/9_Ratio_250_L_3_R_12.png","xmouse":[785,785,785,785,785,785,785,785,785,785,785,785,785,785,785,785,788,793,796,800,802,811,815,819,823,828,836,839,843,846,859,874,888,905,922,938,963,977,986,993,999,1006,1010,1014,1017,1022,1030,1033,1037,1042,1049,1055,1061],"ymouse":[615,615,615,615,615,615,615,615,615,615,615,615,615,615,615,615,613,608,604,600,597,586,580,575,569,563,552,547,542,536,517,490,465,431,389,351,290,257,230,204,176,152,144,135,126,116,94,84,73,64,49,38,30],"timestamp_mouse":[10,25,49,66,84,104,125,144,166,185,205,224,244,265,284,305,324,345,365,384,405,425,444,465,485,504,524,544,565,585,605,625,644,665,684,704,724,744,764,785,804,825,845,865,884,904,924,945,964,985,1005,1024,1044],"xSR":741.5,"ySR":573.95,"xT1":424.9,"yT1":0,"xT2":1058.1,"yT2":0,"toosoon":0,"cond_shown":"equaldotanddens","ratio_trial":250,"smaller_num":"3","larger_num":"12","correct_side":2,"subjID":"AnaLuciaRincon29","gender":"1","age":"8","school":"4"},{"start_time":1552069875355,"click_time":1552069876163,"finger_time":1552069875644,"fix_duration":549.7468371675421,"trial":58,"RT":289,"MT":519,"sideResp":1,"stimulus":"img/900/equaldotanddens/L/10_Ratio_900_L_20_R_18.png","xmouse":[771,771,771,771,771,771,771,771,771,771,771,771,766,755,737,674,654,640,633,628,622,620,616,611,610,608,604,602,595,577,570,528,517,509,503,499,491,487,483,481,481],"ymouse":[605,604,603,603,603,603,603,603,603,603,603,603,598,584,565,503,486,472,460,449,431,416,405,395,388,380,353,335,311,269,256,200,186,174,164,153,129,117,108,103,97],"timestamp_mouse":[9,41,49,68,88,109,129,148,169,189,209,228,248,268,289,311,328,349,369,388,408,429,448,468,488,509,528,550,569,588,608,628,649,669,689,709,728,748,769,788,808],"xSR":741.5,"ySR":573.95,"xT1":424.9,"yT1":0,"xT2":1058.1,"yT2":0,"toosoon":0,"cond_shown":"equaldotanddens","ratio_trial":900,"smaller_num":"18","larger_num":"20","correct_side":1,"subjID":"AnaLuciaRincon29","gender":"1","age":"8","school":"4"},{"start_time":1552069877562,"click_time":1552069878644,"finger_time":1552069877984,"fix_duration":276.3060274876958,"trial":59,"RT":422,"MT":660,"sideResp":1,"stimulus":"img/250/equaldotanddens/L/3_Ratio_250_L_8_R_2.png","xmouse":[764,764,764,764,764,765,766,766,766,766,767,772,777,781,791,797,815,823,830,833,836,844,849,856,862,869,879,881,885,887,888,890,891,891,891,891,881,859,852,843,825,786,757,712,671,644,605,590,573,567,562,540,518,490,463],"ymouse":[624,624,624,624,624,624,624,624,624,624,624,622,619,616,611,606,595,590,586,584,582,571,563,554,546,537,523,518,514,511,509,507,506,506,506,505,485,470,466,465,462,457,448,432,415,401,375,360,339,324,302,232,176,121,73],"timestamp_mouse":[6,21,43,61,82,101,123,141,162,182,201,221,241,261,281,301,322,341,361,382,401,422,442,462,481,501,521,543,562,582,603,621,642,662,681,701,721,741,762,783,802,821,841,861,882,901,921,942,961,981,1002,1022,1042,1061,1082],"xSR":741.5,"ySR":573.95,"xT1":424.9,"yT1"