[{"start_time":1552068729281,"click_time":1552068732025,"finger_time":1552068731384,"fix_duration":953.2820299872075,"trial":0,"RT":2103,"MT":641,"sideResp":1,"stimulus":[],"xmouse":[802,802,802,802,802,802,802,802,802,802,802,802,802,802,802,802,802,802,802,802,802,802,802,802,802,802,802,802,802,802,802,802,802,802,802,802,802,802,802,802,802,802,802,802,802,802,802,802,802,802,802,802,802,802,802,802,802,802,802,802,802,802,802,802,802,802,802,802,802,802,802,802,802,802,802,802,802,802,802,802,802,801,801,803,803,803,803,804,804,804,804,804,804,804,804,804,804,804,804,804,805,805,805,805,805,805,803,795,762,736,703,681,681,681,681,681,681,681,681,681,681,681,681,681,681,681,681,681,681,681,681,681,681,681,681,681,681,490],"ymouse":[518,518,518,518,518,518,518,518,518,518,518,518,518,518,518,518,518,518,518,518,518,518,518,518,518,518,518,518,518,518,518,518,518,518,518,518,518,518,518,518,518,518,518,518,518,518,518,518,518,518,518,518,518,518,518,518,518,518,518,518,518,518,518,518,518,518,518,518,518,518,518,518,518,518,518,518,518,518,518,518,518,518,516,513,512,511,509,507,505,505,504,503,502,501,500,500,500,500,500,500,499,497,496,492,475,454,423,377,237,153,62,15,15,15,15,15,15,15,15,15,15,15,15,15,15,15,15,15,15,15,15,15,15,15,15,15,15,6],"timestamp_mouse":[10,38,44,64,83,103,124,144,163,183,204,224,244,263,283,304,324,343,363,383,404,423,444,464,484,503,524,543,563,584,604,624,644,664,684,704,723,743,763,784,804,823,843,863,885,904,924,943,964,983,1005,1024,1043,1063,1083,1103,1124,1144,1164,1183,1203,1224,1244,1263,1283,1303,1324,1344,1364,1383,1404,1423,1443,1464,1484,1503,1523,1544,1564,1583,1604,1623,1644,1664,1683,1703,1723,1744,1764,1783,1803,1824,1843,1863,1883,1903,1923,1943,1963,1985,2004,2023,2043,2063,2083,2103,2124,2144,2165,2183,2203,2224,2244,2264,2284,2303,2323,2343,2364,2383,2403,2423,2443,2463,2484,2503,2523,2543,2563,2584,2603,2624,2644,2664,2683,2703,2724,2743],"xSR":741.5,"ySR":469.95,"xT1":424.9,"yT1":0,"xT2":1058.1,"yT2":0,"toosoon":0,"cond_shown":"Congruent","ratio_trial":100,"L_num":15,"L_den":25,"R_num":13,"R_den":26,"correct_side":1,"subjID":"AnaLuciaRinconRomero29","gender":"1","age":"8","school":"4","test":{"fix_dur":[250,1500],"timestim":1000,"targets_dim":[100,100],"targets_relative_coord":[0.3,0.7],"size_stim":[880,420],"start_dim":[100,100],"size_start":[300,300],"size_fix":60,"samplingrate":20,"img_types":["Congruent","Incongruent"],"ratios":[100,200,300],"rep_conds":19,"nTrials":120,"trials_to_rest":500,"Trials_order":[0,17,5,65,58,53,68,115,100,96,2,30,36,98,46,60,90,119,97,77,32,27,42,67,109,56,108,18,51,80,14,45,15,66,71,86,93,31,4,81,25,116,110,113,23,107,11,91,73,44,70,82,101,55,74,33,89,12,1,29,50,21,72,26,105,37,39,62,52,38,76,78,79,40,85,118,22,59,3,20,69,41,6,35,49,84,106,61,57,95,8,88,87,117,63,94,114,112,75,16,28,104,34,64,99,10,92,24,54,103,83,9,102,48,13,43,7,19,111,47],"cond_shown":["Congruent","Incongruent","Incongruent","Incongruent","Congruent","Incongruent","Congruent","Incongruent","Congruent","Congruent","Congruent","Congruent","Congruent","Congruent","Congruent","Congruent","Congruent","Incongruent","Incongruent","Incongruent","Congruent","Incongruent","Congruent","Incongruent","Incongruent","Congruent","Congruent","Congruent","Incongruent","Congruent","Congruent","Incongruent","Incongruent","Congruent","Incongruent","Congruent","Incongruent","Incongruent","Congruent","Incongruent","Incongruent","Congruent","Congruent","Incongruent","Incongruent","Incongruent","Incongruent","Incongruent","Incongruent","Congruent","Congruent","Congruent","Incongruent","Incongruent","Congruent","Incongruent","Incongruent","Congruent","Incongruent","Incongruent","Congruent","Incongruent","Congruent","Congruent","Incongruent","Incongruent","Incongruent","Congruent","Congruent","Congruent","Congruent","Congruent","Incongruent","Congruent","Incongruent","Congruent","Congruent","Incongruent","Incongruent","Congruent","Incongruent","Incongruent","Congruent","Incongruent","Incongruent","Congruent","Congruent","Incongruent","Incongruent","Incongruent","Congruent","Congruent","Incongruent","Incongruent","Incongruent","Congruent","Congruent","Congruent","Incongruent","Congruent","Congruent","Congruent","Congruent","Congruent","Incongruent","Congruent","Congruent","Congruent","Congruent","Incongruent","Incongruent","Incongruent","Congruent","Congruent","Incongruent","Incongruent","Incongruent","Incongruent","Incongruent","Incongruent"],"ratio_trial":[100,300,300,300,300,300,200,100,300,100,200,100,100,200,300,100,100,300,100,300,200,200,100,100,100,200,100,100,200,200,200,200,200,100,300,200,200,100,300,200,100,200,200,300,300,300,300,100,100,200,300,300,300,100,200,200,300,100,100,300,200,200,100,200,200,100,200,200,300,200,300,100,100,300,100,300,300,300,200,200,200,300,100,300,100,100,300,100,200,300,200,300,200,200,200,300,100,300,200,300,300,200,300,300,200,300,200,100,100,100,300,200,100,100,100,100,100,100,200,300],"left_num":[15,13,8,4,2,13,21,9,2,7,14,8,7,7,4,7,7,7,8,2,4,4,4,9,9,20,4,10,7,5,6,1,7,2,4,3,7,3,5,4,1,4,20,13,13,13,7,1,3,3,9,2,3,6,6,1,13,11,4,4,7,4,2,21,7,10,1,8,7,3,1,9,3,1,17,4,5,4,7,3,7,13,7,13,12,4,1,9,14,13,3,11,7,9,1,5,1,20,1,7,11,1,5,4,7,1,14,9,6,4,13,7,4,3,3,12,6,10,7,8],"right_num":[13,12,9,8,10,12,2,14,10,9,6,2,9,18,1,9,9,8,6,6,3,14,15,14,6,9,6,3,8,14,11,2,6,11,8,9,6,8,6,6,8,3,9,12,12,12,8,8,7,14,3,12,4,13,11,3,12,6,8,2,2,1,6,2,12,9,3,2,20,7,11,8,8,3,10,1,6,8,14,9,14,12,15,12,2,6,8,13,6,12,11,1,6,8,3,6,3,14,2,20,4,21,6,13,4,11,6,8,5,8,12,8,15,2,7,9,13,8,8,14],"left_den":[25,26,10,5,20,26,30,15,20,14,28,16,14,15,10,14,14,10,16,4,8,6,10,15,18,25,8,25,10,10,20,3,15,5,5,12,15,5,25,5,2,10,25,26,26,26,10,2,9,10,10,10,6,10,20,2,26,22,8,20,21,30,5,30,10,25,2,15,14,10,5,15,5,5,30,10,25,5,10,12,10,26,14,26,30,8,30,15,30,26,10,22,15,15,2,25,2,25,3,14,22,2,25,20,15,5,28,15,20,8,26,10,10,6,9,24,10,25,10,10],"right_den":[26,15,18,16,25,15,4,28,25,15,20,5,15,27,10,15,15,20,10,30,10,30,30,28,10,15,10,10,16,20,22,15,9,22,16,20,9,16,12,10,20,15,15,15,15,15,20,20,30,28,5,24,20,26,22,10,15,15,20,4,15,3,12,4,24,18,10,6,25,14,22,16,16,6,15,10,12,16,28,20,28,15,25,15,4,10,24,26,9,15,22,5,9,10,10,12,5,28,15,25,20,30,12,26,6,22,20,16,25,20,15,16,30,5,30,15,26,16,16,28],"correct_side":[1,2,1,1,2,2,1,1,2,2,1,1,2,2,1,2,2,1,2,1,1,1,2,1,2,1,2,1,1,2,2,1,2,2,1,2,2,1,2,1,1,1,1,2,2,2,1,1,1,2,1,2,1,1,2,1,2,1,1,2,1,2,2,1,1,2,1,1,2,2,2,1,1,2,2,1,2,1,1,2,1,2,2,2,2,2,2,1,2,2,2,1,2,2,1,2,2,1,1,2,1,2,2,2,2,2,1,1,1,1,2,1,2,1,1,2,1,2,1,1],"img_shown":["img2/100/Congruent/L/C_Dist_100_LN_15_LD_25_RN_13_RD_26_0.png","img2/300/Incongruent/R/I_Dist_300_LN_13_LD_26_RN_12_RD_15_1.png","img2/300/Incongruent/L/I_Dist_300_LN_8_LD_10_RN_9_RD_18_0.png","img2/300/Incongruent/L/I_Dist_300_LN_4_LD_5_RN_8_RD_16_0.png","img2/300/Congruent/R/C_Dist_300_LN_2_LD_20_RN_10_RD_25_1.png","img2/300/Incongruent/R/I_Dist_300_LN_13_LD_26_RN_12_RD_15_1.png","img2/200/Congruent/L/C_Dist_200_LN_21_LD_30_RN_2_RD_4_0.png","img2/100/Incongruent/L/I_Dist_100_LN_9_LD_15_RN_14_RD_28_0.png","img2/300/Congruent/R/C_Dist_300_LN_2_LD_20_RN_10_RD_25_1.png","img2/100/Congruent/R/C_Dist_100_LN_7_LD_14_RN_9_RD_15_1.png","img2/200/Congruent/L/C_Dist_200_LN_14_LD_28_RN_6_RD_20_0.png","img2/100/Congruent/L/C_Dist_100_LN_8_LD_16_RN_2_RD_5_0.png","img2/100/Congruent/R/C_Dist_100_LN_7_LD_14_RN_9_RD_15_1.png","img2/200/Congruent/R/C_Dist_200_LN_7_LD_15_RN_18_RD_27_1.png","img2/300/Congruent/L/C_Dist_300_LN_4_LD_10_RN_1_RD_10_0.png","img2/100/Congruent/R/C_Dist_100_LN_7_LD_14_RN_9_RD_15_1.png","img2/100/Congruent/R/C_Dist_100_LN_7_LD_14_RN_9_RD_15_1.png","img2/300/Incongruent/L/I_Dist_300_LN_7_LD_10_RN_8_RD_20_0.png","img2/100/Incongruent/R/I_Dist_100_LN_8_LD_16_RN_6_RD_10_1.png","img2/300/Incongruent/L/I_Dist_300_LN_2_LD_4_RN_6_RD_30_0.png","img2/200/Congruent/L/C_Dist_200_LN_4_LD_8_RN_3_RD_10_0.png","img2/200/Incongruent/L/I_Dist_200_LN_4_LD_6_RN_14_RD_30_0.png","img2/100/Congruent/R/C_Dist_100_LN_4_LD_10_RN_15_RD_30_1.png","img2/100/Incongruent/L/I_Dist_100_LN_9_LD_15_RN_14_RD_28_0.png","img2/100/Incongruent/R/I_Dist_100_LN_9_LD_18_RN_6_RD_10_1.png","img2/200/Congruent/L/C_Dist_200_LN_20_LD_25_RN_9_RD_15_0.png","img2/100/Congruent/R/C_Dist_100_LN_4_LD_8_RN_6_RD_10_1.png","img2/100/Congruent/L/C_Dist_100_LN_10_LD_25_RN_3_RD_10_0.png","img2/200/Incongruent/L/I_Dist_200_LN_7_LD_10_RN_8_RD_16_0.png","img2/200/Congruent/R/C_Dist_200_LN_5_LD_10_RN_14_RD_20_1.png","img2/200/Congruent/R/C_Dist_200_LN_6_LD_20_RN_11_RD_22_1.png","img2/200/Incongruent/L/I_Dist_200_LN_1_LD_3_RN_2_RD_15_0.png","img2/200/Incongruent/R/I_Dist_200_LN_7_LD_15_RN_6_RD_9_1.png","img2/100/Congruent/R/C_Dist_100_LN_2_LD_5_RN_11_RD_22_1.png","img2/300/Incongruent/L/I_Dist_300_LN_4_LD_5_RN_8_RD_16_0.png","img2/200/Congruent/R/C_Dist_200_LN_3_LD_12_RN_9_RD_20_1.png","img2/200/Incongruent/R/I_Dist_200_LN_7_LD_15_RN_6_RD_9_1.png","img2/100/Incongruent/L/I_Dist_100_LN_3_LD_5_RN_8_RD_16_0.png","img2/300/Congruent/R/C_Dist_300_LN_5_LD_25_RN_6_RD_12_1.png","img2/200/Incongruent/L/I_Dist_200_LN_4_LD_5_RN_6_RD_10_0.png","img2/100/Incongruent/L/I_Dist_100_LN_1_LD_2_RN_8_RD_20_0.png","img2/200/Congruent/L/C_Dist_200_LN_4_LD_10_RN_3_RD_15_0.png","img2/200/Congruent/L/C_Dist_200_LN_20_LD_25_RN_9_RD_15_0.png","img2/300/Incongruent/R/I_Dist_300_LN_13_LD_26_RN_12_RD_15_1.png","img2/300/Incongruent/R/I_Dist_300_LN_13_LD_26_RN_12_RD_15_1.png","img2/300/Incongruent/R/I_Dist_300_LN_13_LD_26_RN_12_RD_15_1.png","img2/300/Incongruent/L/I_Dist_300_LN_7_LD_10_RN_8_RD_20_0.png","img2/100/Incongruent/L/I_Dist_100_LN_1_LD_2_RN_8_RD_20_0.png","img2/100/Incongruent/L/I_Dist_100_LN_3_LD_9_RN_7_RD_30_0.png","img2/200/Congruent/R/C_Dist_200_LN_3_LD_10_RN_14_RD_28_1.png","img2/300/Congruent/L/C_Dist_300_LN_9_LD_10_RN_3_RD_5_0.png","img2/300/Congruent/R/C_Dist_300_LN_2_LD_10_RN_12_RD_24_1.png","img2/300/Incongruent/L/I_Dist_300_LN_3_LD_6_RN_4_RD_20_0.png","img2/100/Incongruent/L/I_Dist_100_LN_6_LD_10_RN_13_RD_26_0.png","img2/200/Congruent/R/C_Dist_200_LN_6_LD_20_RN_11_RD_22_1.png","img2/200/Incongruent/L/I_Dist_200_LN_1_LD_2_RN_3_RD_10_0.png","img2/300/Incongruent/R/I_Dist_300_LN_13_LD_26_RN_12_RD_15_1.png","img2/100/Congruent/L/C_Dist_100_LN_11_LD_22_RN_6_RD_15_0.png","img2/100/Incongruent/L/I_Dist_100_LN_4_LD_8_RN_8_RD_20_0.png","img2/300/Incongruent/R/I_Dist_300_LN_4_LD_20_RN_2_RD_4_1.png","img2/200/Congruent/L/C_Dist_200_LN_7_LD_21_RN_2_RD_15_0.png","img2/200/Incongruent/R/I_Dist_200_LN_4_LD_30_RN_1_RD_3_1.png","img2/100/Congruent/R/C_Dist_100_LN_2_LD_5_RN_6_RD_12_1.png","img2/200/Congruent/L/C_Dist_200_LN_21_LD_30_RN_2_RD_4_0.png","img2/200/Incongruent/L/I_Dist_200_LN_7_LD_10_RN_12_RD_24_0.png","img2/100/Incongruent/R/I_Dist_100_LN_10_LD_25_RN_9_RD_18_1.png","img2/200/Incongruent/L/I_Dist_200_LN_1_LD_2_RN_3_RD_10_0.png","img2/200/Congruent/L/C_Dist_200_LN_8_LD_15_RN_2_RD_6_0.png","img2/300/Congruent/R/C_Dist_300_LN_7_LD_14_RN_20_RD_25_1.png","img2/200/Congruent/R/C_Dist_200_LN_3_LD_10_RN_7_RD_14_1.png","img2/300/Congruent/R/C_Dist_300_LN_1_LD_5_RN_11_RD_22_1.png","img2/100/Congruent/L/C_Dist_100_LN_9_LD_15_RN_8_RD_16_0.png","img2/100/Incongruent/L/I_Dist_100_LN_3_LD_5_RN_8_RD_16_0.png","img2/300/Congruent/R/C_Dist_300_LN_1_LD_5_RN_3_RD_6_1.png","img2/100/Incongruent/R/I_Dist_100_LN_17_LD_30_RN_10_RD_15_1.png","img2/300/Congruent/L/C_Dist_300_LN_4_LD_10_RN_1_RD_10_0.png","img2/300/Congruent/R/C_Dist_300_LN_5_LD_25_RN_6_RD_12_1.png","img2/300/Incongruent/L/I_Dist_300_LN_4_LD_5_RN_8_RD_16_0.png","img2/200/Incongruent/L/I_Dist_200_LN_7_LD_10_RN_14_RD_28_0.png","img2/200/Congruent/R/C_Dist_200_LN_3_LD_12_RN_9_RD_20_1.png","img2/200/Incongruent/L/I_Dist_200_LN_7_LD_10_RN_14_RD_28_0.png","img2/300/Incongruent/R/I_Dist_300_LN_13_LD_26_RN_12_RD_15_1.png","img2/100/Congruent/R/C_Dist_100_LN_7_LD_14_RN_15_RD_25_1.png","img2/300/Incongruent/R/I_Dist_300_LN_13_LD_26_RN_12_RD_15_1.png","img2/100/Incongruent/R/I_Dist_100_LN_12_LD_30_RN_2_RD_4_1.png","img2/100/Congruent/R/C_Dist_100_LN_4_LD_8_RN_6_RD_10_1.png","img2/300/Congruent/R/C_Dist_300_LN_1_LD_30_RN_8_RD_24_1.png","img2/100/Incongruent/L/I_Dist_100_LN_9_LD_15_RN_13_RD_26_0.png","img2/200/Incongruent/R/I_Dist_200_LN_14_LD_30_RN_6_RD_9_1.png","img2/300/Incongruent/R/I_Dist_300_LN_13_LD_26_RN_12_RD_15_1.png","img2/200/Congruent/R/C_Dist_200_LN_3_LD_10_RN_11_RD_22_1.png","img2/300/Congruent/L/C_Dist_300_LN_11_LD_22_RN_1_RD_5_0.png","img2/200/Incongruent/R/I_Dist_200_LN_7_LD_15_RN_6_RD_9_1.png","img2/200/Incongruent/R/I_Dist_200_LN_9_LD_15_RN_8_RD_10_1.png","img2/200/Incongruent/L/I_Dist_200_LN_1_LD_2_RN_3_RD_10_0.png","img2/300/Congruent/R/C_Dist_300_LN_5_LD_25_RN_6_RD_12_1.png","img2/100/Congruent/R/C_Dist_100_LN_1_LD_2_RN_3_RD_5_1.png","img2/300/Congruent/L/C_Dist_300_LN_20_LD_25_RN_14_RD_28_0.png","img2/200/Incongruent/L/I_Dist_200_LN_1_LD_3_RN_2_RD_15_0.png","img2/300/Congruent/R/C_Dist_300_LN_7_LD_14_RN_20_RD_25_1.png","img2/300/Congruent/L/C_Dist_300_LN_11_LD_22_RN_4_RD_20_0.png","img2/200/Congruent/R/C_Dist_200_LN_1_LD_2_RN_21_RD_30_1.png","img2/300/Congruent/R/C_Dist_300_LN_5_LD_25_RN_6_RD_12_1.png","img2/300/Congruent/R/C_Dist_300_LN_4_LD_20_RN_13_RD_26_1.png","img2/200/Incongruent/R/I_Dist_200_LN_7_LD_15_RN_4_RD_6_1.png","img2/300/Congruent/R/C_Dist_300_LN_1_LD_5_RN_11_RD_22_1.png","img2/200/Congruent/L/C_Dist_200_LN_14_LD_28_RN_6_RD_20_0.png","img2/100/Congruent/L/C_Dist_100_LN_9_LD_15_RN_8_RD_16_0.png","img2/100/Congruent/L/C_Dist_100_LN_6_LD_20_RN_5_RD_25_0.png","img2/100/Incongruent/L/I_Dist_100_LN_4_LD_8_RN_8_RD_20_0.png","img2/300/Incongruent/R/I_Dist_300_LN_13_LD_26_RN_12_RD_15_1.png","img2/200/Incongruent/L/I_Dist_200_LN_7_LD_10_RN_8_RD_16_0.png","img2/100/Congruent/R/C_Dist_100_LN_4_LD_10_RN_15_RD_30_1.png","img2/100/Congruent/L/C_Dist_100_LN_3_LD_6_RN_2_RD_5_0.png","img2/100/Incongruent/L/I_Dist_100_LN_3_LD_9_RN_7_RD_30_0.png","img2/100/Incongruent/R/I_Dist_100_LN_12_LD_24_RN_9_RD_15_1.png","img2/100/Incongruent/L/I_Dist_100_LN_6_LD_10_RN_13_RD_26_0.png","img2/100/Incongruent/R/I_Dist_100_LN_10_LD_25_RN_8_RD_16_1.png","img2/200/Incongruent/L/I_Dist_200_LN_7_LD_10_RN_8_RD_16_0.png","img2/300/Incongruent/L/I_Dist_300_LN_8_LD_10_RN_14_RD_28_0.png"],"dist100_C":[["C_Dist_100_LN_10_LD_25_RN_3_RD_10_0.png","C_Dist_100_LN_11_LD_22_RN_4_RD_10_0.png","C_Dist_100_LN_11_LD_22_RN_6_RD_15_0.png","C_Dist_100_LN_15_LD_25_RN_13_RD_26_0.png","C_Dist_100_LN_3_LD_6_RN_2_RD_5_0.png","C_Dist_100_LN_6_LD_20_RN_5_RD_25_0.png","C_Dist_100_LN_8_LD_16_RN_2_RD_5_0.png","C_Dist_100_LN_9_LD_15_RN_8_RD_16_0.png"],["C_Dist_100_LN_1_LD_2_RN_18_RD_30_1.png","C_Dist_100_LN_1_LD_2_RN_3_RD_5_1.png","C_Dist_100_LN_12_LD_30_RN_13_RD_26_1.png","C_Dist_100_LN_2_LD_5_RN_11_RD_22_1.png","C_Dist_100_LN_2_LD_5_RN_6_RD_12_1.png","C_Dist_100_LN_3_LD_20_RN_4_RD_16_1.png","C_Dist_100_LN_4_LD_10_RN_15_RD_30_1.png","C_Dist_100_LN_4_LD_8_RN_6_RD_10_1.png","C_Dist_100_LN_6_LD_12_RN_15_RD_25_1.png","C_Dist_100_LN_7_LD_14_RN_15_RD_25_1.png","C_Dist_100_LN_7_LD_14_RN_9_RD_15_1.png"]],"dist100_I":[["I_Dist_100_LN_1_LD_2_RN_8_RD_20_0.png","I_Dist_100_LN_2_LD_4_RN_6_RD_15_0.png","I_Dist_100_LN_2_LD_4_RN_8_RD_20_0.png","I_Dist_100_LN_3_LD_5_RN_11_RD_22_0.png","I_Dist_100_LN_3_LD_5_RN_8_RD_16_0.png","I_Dist_100_LN_3_LD_6_RN_4_RD_10_0.png","I_Dist_100_LN_3_LD_9_RN_7_RD_30_0.png","I_Dist_100_LN_4_LD_8_RN_8_RD_20_0.png","I_Dist_100_LN_6_LD_10_RN_11_RD_22_0.png","I_Dist_100_LN_6_LD_10_RN_13_RD_26_0.png","I_Dist_100_LN_6_LD_10_RN_7_RD_14_0.png","I_Dist_100_LN_9_LD_10_RN_20_RD_25_0.png","I_Dist_100_LN_9_LD_15_RN_13_RD_26_0.png","I_Dist_100_LN_9_LD_15_RN_14_RD_28_0.png"],["I_Dist_100_LN_10_LD_25_RN_8_RD_16_1.png","I_Dist_100_LN_10_LD_25_RN_9_RD_18_1.png","I_Dist_100_LN_11_LD_22_RN_9_RD_15_1.png","I_Dist_100_LN_12_LD_24_RN_9_RD_15_1.png","I_Dist_100_LN_12_LD_30_RN_2_RD_4_1.png","I_Dist_100_LN_13_LD_26_RN_12_RD_20_1.png","I_Dist_100_LN_13_LD_26_RN_6_RD_10_1.png","I_Dist_100_LN_17_LD_30_RN_10_RD_15_1.png","I_Dist_100_LN_6_LD_12_RN_3_RD_5_1.png","I_Dist_100_LN_8_LD_16_RN_6_RD_10_1.png","I_Dist_100_LN_8_LD_20_RN_1_RD_2_1.png","I_Dist_100_LN_9_LD_18_RN_6_RD_10_1.png"]],"dist100_S":[["E_Dist_100_LN_2_LD_12_RN_2_RD_30_0.png","E_Dist_100_LN_6_LD_10_RN_6_RD_12_0.png"],["E_Dist_100_LN_6_LD_12_RN_6_RD_10_1.png"]],"dist200_C":[["C_Dist_200_LN_11_LD_22_RN_3_RD_10_0.png","C_Dist_200_LN_12_LD_15_RN_6_RD_10_0.png","C_Dist_200_LN_12_LD_20_RN_6_RD_15_0.png","C_Dist_200_LN_14_LD_28_RN_6_RD_20_0.png","C_Dist_200_LN_15_LD_25_RN_4_RD_10_0.png","C_Dist_200_LN_16_LD_20_RN_12_RD_20_0.png","C_Dist_200_LN_16_LD_30_RN_9_RD_27_0.png","C_Dist_200_LN_20_LD_25_RN_9_RD_15_0.png","C_Dist_200_LN_21_LD_30_RN_2_RD_4_0.png","C_Dist_200_LN_4_LD_10_RN_3_RD_15_0.png","C_Dist_200_LN_4_LD_8_RN_3_RD_10_0.png","C_Dist_200_LN_6_LD_15_RN_3_RD_15_0.png","C_Dist_200_LN_7_LD_21_RN_2_RD_15_0.png","C_Dist_200_LN_8_LD_15_RN_2_RD_6_0.png","C_Dist_200_LN_8_LD_15_RN_3_RD_9_0.png","C_Dist_200_LN_8_LD_15_RN_7_RD_21_0.png","C_Dist_200_LN_9_LD_20_RN_4_RD_16_0.png"],["C_Dist_200_LN_1_LD_2_RN_21_RD_30_1.png","C_Dist_200_LN_13_LD_26_RN_14_RD_20_1.png","C_Dist_200_LN_3_LD_10_RN_11_RD_22_1.png","C_Dist_200_LN_3_LD_10_RN_14_RD_28_1.png","C_Dist_200_LN_3_LD_10_RN_7_RD_14_1.png","C_Dist_200_LN_3_LD_12_RN_9_RD_20_1.png","C_Dist_200_LN_3_LD_6_RN_14_RD_20_1.png","C_Dist_200_LN_5_LD_10_RN_14_RD_20_1.png","C_Dist_200_LN_6_LD_12_RN_7_RD_10_1.png","C_Dist_200_LN_6_LD_20_RN_11_RD_22_1.png","C_Dist_200_LN_7_LD_15_RN_18_RD_27_1.png","C_Dist_200_LN_9_LD_30_RN_13_RD_26_1.png"]],"dist200_I":[["I_Dist_200_LN_1_LD_2_RN_3_RD_10_0.png","I_Dist_200_LN_1_LD_3_RN_2_RD_15_0.png","I_Dist_200_LN_3_LD_4_RN_11_RD_20_0.png","I_Dist_200_LN_4_LD_5_RN_6_RD_10_0.png","I_Dist_200_LN_4_LD_6_RN_14_RD_30_0.png","I_Dist_200_LN_7_LD_10_RN_12_RD_24_0.png","I_Dist_200_LN_7_LD_10_RN_14_RD_28_0.png","I_Dist_200_LN_7_LD_10_RN_8_RD_16_0.png"],["I_Dist_200_LN_11_LD_20_RN_3_RD_4_1.png","I_Dist_200_LN_14_LD_30_RN_12_RD_18_1.png","I_Dist_200_LN_14_LD_30_RN_6_RD_9_1.png","I_Dist_200_LN_3_LD_10_RN_1_RD_2_1.png","I_Dist_200_LN_4_LD_30_RN_1_RD_3_1.png","I_Dist_200_LN_6_LD_20_RN_3_RD_6_1.png","I_Dist_200_LN_7_LD_15_RN_4_RD_6_1.png","I_Dist_200_LN_7_LD_15_RN_6_RD_9_1.png","I_Dist_200_LN_9_LD_15_RN_8_RD_10_1.png"]],"dist200_S":[["E_Dist_200_LN_3_LD_6_RN_3_RD_10_0.png"],["E_Dist_200_LN_3_LD_10_RN_3_RD_6_1.png"]],"dist300_C":[["C_Dist_300_LN_11_LD_22_RN_1_RD_5_0.png","C_Dist_300_LN_11_LD_22_RN_2_RD_10_0.png","C_Dist_300_LN_11_LD_22_RN_4_RD_20_0.png","C_Dist_300_LN_12_LD_24_RN_2_RD_10_0.png","C_Dist_300_LN_18_LD_20_RN_9_RD_15_0.png","C_Dist_300_LN_20_LD_25_RN_13_RD_26_0.png","C_Dist_300_LN_20_LD_25_RN_14_RD_28_0.png","C_Dist_300_LN_20_LD_25_RN_5_RD_10_0.png","C_Dist_300_LN_20_LD_25_RN_8_RD_16_0.png","C_Dist_300_LN_20_LD_25_RN_9_RD_18_0.png","C_Dist_300_LN_24_LD_30_RN_2_RD_4_0.png","C_Dist_300_LN_24_LD_30_RN_8_RD_16_0.png","C_Dist_300_LN_3_LD_6_RN_2_RD_10_0.png","C_Dist_300_LN_4_LD_10_RN_1_RD_10_0.png","C_Dist_300_LN_4_LD_5_RN_2_RD_4_0.png","C_Dist_300_LN_8_LD_16_RN_1_RD_5_0.png","C_Dist_300_LN_9_LD_10_RN_3_RD_5_0.png"],["C_Dist_300_LN_1_LD_20_RN_7_RD_20_1.png","C_Dist_300_LN_1_LD_3_RN_19_RD_30_1.png","C_Dist_300_LN_1_LD_30_RN_8_RD_24_1.png","C_Dist_300_LN_1_LD_5_RN_11_RD_22_1.png","C_Dist_300_LN_1_LD_5_RN_3_RD_6_1.png","C_Dist_300_LN_1_LD_5_RN_6_RD_12_1.png","C_Dist_300_LN_2_LD_10_RN_12_RD_24_1.png","C_Dist_300_LN_2_LD_20_RN_10_RD_25_1.png","C_Dist_300_LN_3_LD_12_RN_11_RD_20_1.png","C_Dist_300_LN_3_LD_6_RN_4_RD_5_1.png","C_Dist_300_LN_4_LD_20_RN_13_RD_26_1.png","C_Dist_300_LN_5_LD_25_RN_6_RD_12_1.png","C_Dist_300_LN_5_LD_25_RN_7_RD_14_1.png","C_Dist_300_LN_7_LD_14_RN_20_RD_25_1.png","C_Dist_300_LN_8_LD_15_RN_10_RD_12_1.png"]],"dist300_I":[["I_Dist_300_LN_1_LD_2_RN_2_RD_10_0.png","I_Dist_300_LN_1_LD_2_RN_3_RD_15_0.png","I_Dist_300_LN_2_LD_4_RN_6_RD_30_0.png","I_Dist_300_LN_3_LD_6_RN_4_RD_20_0.png","I_Dist_300_LN_4_LD_5_RN_6_RD_12_0.png","I_Dist_300_LN_4_LD_5_RN_8_RD_16_0.png","I_Dist_300_LN_7_LD_10_RN_8_RD_20_0.png","I_Dist_300_LN_8_LD_10_RN_14_RD_28_0.png","I_Dist_300_LN_8_LD_10_RN_9_RD_18_0.png"],["I_Dist_300_LN_13_LD_26_RN_12_RD_15_1.png","I_Dist_300_LN_4_LD_20_RN_2_RD_4_1.png"]],"dist300_S":[["E_Dist_300_LN_9_LD_12_RN_9_RD_20_0.png"],["E_Dist_300_LN_18_LD_30_RN_18_RD_20_1.png","E_Dist_300_LN_3_LD_10_RN_3_RD_5_1.png","E_Dist_300_LN_9_LD_20_RN_9_RD_12_1.png"]],"dist500_C":[["C_Dist_500_LN_10_LD_13_RN_7_RD_26_0.png","C_Dist_500_LN_10_LD_15_RN_4_RD_24_0.png","C_Dist_500_LN_12_LD_16_RN_3_RD_12_0.png","C_Dist_500_LN_12_LD_18_RN_4_RD_24_0.png","C_Dist_500_LN_15_LD_18_RN_5_RD_15_0.png","C_Dist_500_LN_15_LD_20_RN_1_RD_4_0.png","C_Dist_500_LN_18_LD_27_RN_1_RD_6_0.png","C_Dist_500_LN_20_LD_24_RN_1_RD_3_0.png","C_Dist_500_LN_20_LD_24_RN_3_RD_9_0.png","C_Dist_500_LN_20_LD_24_RN_7_RD_21_0.png","C_Dist_500_LN_20_LD_28_RN_3_RD_14_0.png","C_Dist_500_LN_21_LD_28_RN_6_RD_24_0.png","C_Dist_500_LN_22_LD_28_RN_2_RD_7_0.png","C_Dist_500_LN_25_LD_30_RN_9_RD_27_0.png","C_Dist_500_LN_4_LD_6_RN_1_RD_6_0.png","C_Dist_500_LN_5_LD_6_RN_2_RD_6_0.png","C_Dist_500_LN_6_LD_9_RN_1_RD_6_0.png","C_Dist_500_LN_7_LD_10_RN_1_RD_5_0.png","C_Dist_500_LN_8_LD_12_RN_1_RD_6_0.png","C_Dist_500_LN_8_LD_12_RN_4_RD_24_0.png"],["C_Dist_500_LN_1_LD_4_RN_12_RD_16_1.png","C_Dist_500_LN_1_LD_4_RN_9_RD_12_1.png","C_Dist_500_LN_1_LD_9_RN_11_RD_18_1.png","C_Dist_500_LN_10_LD_24_RN_22_RD_24_1.png","C_Dist_500_LN_2_LD_12_RN_10_RD_15_1.png","C_Dist_500_LN_2_LD_12_RN_12_RD_18_1.png","C_Dist_500_LN_2_LD_12_RN_4_RD_6_1.png","C_Dist_500_LN_2_LD_24_RN_7_RD_12_1.png","C_Dist_500_LN_2_LD_5_RN_18_RD_20_1.png","C_Dist_500_LN_2_LD_5_RN_9_RD_10_1.png","C_Dist_500_LN_2_LD_8_RN_12_RD_16_1.png","C_Dist_500_LN_2_LD_8_RN_21_RD_28_1.png","C_Dist_500_LN_3_LD_10_RN_4_RD_5_1.png","C_Dist_500_LN_3_LD_12_RN_15_RD_20_1.png","C_Dist_500_LN_3_LD_30_RN_6_RD_10_1.png","C_Dist_500_LN_3_LD_8_RN_14_RD_16_1.png","C_Dist_500_LN_4_LD_16_RN_15_RD_20_1.png","C_Dist_500_LN_4_LD_24_RN_12_RD_18_1.png","C_Dist_500_LN_5_LD_14_RN_6_RD_7_1.png","C_Dist_500_LN_7_LD_21_RN_20_RD_24_1.png","C_Dist_500_LN_7_LD_28_RN_12_RD_16_1.png","C_Dist_500_LN_7_LD_28_RN_9_RD_12_1.png","C_Dist_500_LN_9_LD_27_RN_20_RD_24_1.png"]],"dist500_I":[["I_Dist_500_LN_2_LD_3_RN_4_RD_24_0.png","I_Dist_500_LN_5_LD_6_RN_6_RD_18_0.png","I_Dist_500_LN_7_LD_8_RN_9_RD_24_0.png"],["I_Dist_500_LN_7_LD_21_RN_5_RD_6_1.png"]],"dist500_S":[["E_Dist_500_LN_6_LD_8_RN_6_RD_24_0.png"],["E_Dist_500_LN_2_LD_12_RN_2_RD_3_1.png","E_Dist_500_LN_6_LD_24_RN_6_RD_8_1.png"]]}},{"start_time":1552068742823,"click_time":1552068744706,"finger_time":1552068744445,"fix_duration":1057.6504961887588,"trial":1,"RT":1622,"MT":261,"sideResp":2,"stimulus":[],"xmouse":[765,765,765,765,765,765,765,765,765,765,765,765,765,765,765,765,765,765,765,765,765,765,765,765,765,765,765,765,765,765,765,765,765,765,765,765,765,765,765,765,766,766,766,766,766,766,766,766,766,766,766,766,766,766,766,766,766,766,766,766,766,766,767,769,771,773,776,777,778,778,778,778,778,778,778,778,778,778,778,781,784,792,800,828,842,861,879,899,933,954,986,1007,1026,1056,1068],"ymouse":[491,491,491,491,491,491,491,491,491,491,491,491,491,491,491,491,491,491,491,491,491,491,491,491,491,491,491,491,491,491,491,491,491,491,491,491,491,491,491,490,490,489,489,489,489,489,489,489,489,489,489,489,489,489,489,489,489,489,489,489,489,489,488,486,484,482,480,479,478,478,478,478,478,478,478,478,478,478,478,475,471,464,455,428,407,383,353,321,258,221,166,131,94,41,16],"timestamp_mouse":[10,21,42,61,81,102,122,142,162,182,201,221,241,262,282,301,321,343,363,382,401,421,443,462,482,502,522,541,563,582,602,622,642,661,681,701,721,742,762,781,801,821,841,861,882,902,922,941,961,981,1001,1021,1042,1061,1081,1102,1121,1142,1161,1181,1202,1222,1242,1262,1281,1302,1321,1342,1362,1381,1401,1421,1442,1461,1481,1503,1522,1542,1561,1582,1601,1622,1641,1661,1681,1701,1721,1741,1762,1781,1801,1822,1841,1861,1882],"xSR":741.5,"ySR":469.95,"xT1":424.9,"yT1":0,"xT2":1058.1,"yT2":0,"toosoon":0,"cond_shown":"Incongruent","ratio_trial":300,"L_num":13,"L_den":26,"R_num":12,"R_den":15,"correct_side":2,"subjID":"AnaLuciaRinconRomero29","gender":"1","school":"4","age":"8"},{"start_time":1552068750403,"click_time":1552068751804,"finger_time":1552068750945,"fix_duration":818.8570327249857,"trial":2,"RT":542,"MT":859,"sideResp":1,"stimulus":[],"xmouse":[793,793,793,793,793,793,793,793,793,793,793,793,793,793,793,793,794,794,794,794,794,794,794,794,794,794,793,791,786,783,775,769,764,758,752,742,734,723,720,713,706,703,699,693,686,667,659,654,646,637,619,609,601,594,590,584,581,576,570,565,553,549,545,541,538,534,533,531,530,526,519],"ymouse":[494,494,494,494,494,494,494,494,494,494,494,494,494,494,494,494,494,494,494,494,494,494,494,494,492,484,471,466,449,437,416,407,399,391,383,369,359,346,344,335,316,304,289,269,247,204,185,170,142,124,91,77,69,63,61,61,63,64,67,67,68,68,68,68,67,66,66,66,66,66,64],"timestamp_mouse":[10,23,47,62,82,102,122,142,162,182,201,221,242,262,282,302,322,341,361,381,402,422,442,461,482,501,522,542,561,581,601,621,642,661,681,701,721,741,763,782,802,821,841,862,881,901,922,942,962,981,1001,1021,1041,1062,1081,1101,1121,1141,1161,1181,1201,1221,1242,1261,1282,1301,1321,1341,1362,1381,1401],"xSR":741.5,"ySR":469.95,"xT1":424.9,"yT1":0,"xT2":1058.1,"yT2":0,"toosoon":0,"cond_shown":"Incongruent","ratio_trial":300,"L_num":8,"L_den":10,"R_num":9,"R_den":18,"correct_side":1,"subjID":"AnaLuciaRinconRomero29","gender":"1","school":"4","age":"8"},{"start_time":1552068754582,"click_time":1552068755624,"finger_time":1552068755164,"fix_duration":315.38469337747176,"trial":3,"RT":582,"MT":460,"sideResp":2,"stimulus":[],"xmouse":[753,753,753,753,753,753,753,753,753,753,753,753,753,753,753,753,753,753,753,753,753,753,753,755,756,763,778,795,807,822,830,849,858,867,876,883,896,911,918,924,934,947,955,961,968,976,994,1012,1021,1032,1043,1052,1064],"ymouse":[555,555,555,555,555,555,555,555,555,555,555,555,555,555,555,555,555,555,555,555,555,555,555,554,553,546,528,504,486,466,451,417,401,386,370,357,338,317,306,297,287,269,260,251,242,229,202,176,158,139,120,103,74],"timestamp_mouse":[9,23,42,63,83,102,122,143,163,183,202,222,242,263,282,302,323,342,363,384,403,423,443,463,482,503,523,542,562,582,602,623,643,662,683,702,722,743,762,783,802,823,842,863,882,902,923,944,962,983,1002,1023,1042],"xSR":741.5,"ySR":469.95,"xT1":424.9,"yT1":0,"xT2":1058.1,"yT2":0,"toosoon":0,"cond_shown":"Incongruent","ratio_trial":300,"L_num":4,"L_den":5,"R_num":8,"R_den":16,"correct_side":1,"subjID":"AnaLuciaRinconRomero29","gender":"1","school":"4","age":"8"},{"start_time":1552068759462,"click_time":1552068761686,"finger_time":1552068761224,"fix_duration":1495.5368497278266,"trial":4,"RT":1762,"MT":462,"sideResp":2,"stimulus":[],"xmouse":[780,780,780,780,780,780,780,780,780,780,780,780,780,780,780,780,780,780,780,780,780,780,780,780,780,780,780,780,780,780,780,780,780,780,780,780,780,780,780,780,780,780,780,780,780,780,780,780,780,780,780,780,780,780,780,780,780,780,780,780,780,780,780,780,780,780,780,780,780,780,780,780,780,780,780,780,780,780,780,780,780,780,782,785,786,789,792,794,801,804,810,814,819,834,848,861,876,893,924,942,948,965,977,997,1008,1017,1028,1038,1061,1070,1074,1079],"ymouse":[484,484,484,484,484,484,484,484,484,484,484,484,484,484,484,484,484,484,484,484,484,484,484,484,484,484,484,484,484,484,484,484,484,484,484,484,484,484,484,484,484,484,484,484,484,484,484,484,484,484,484,484,484,484,484,484,484,484,484,484,484,484,484,484,484,484,484,484,484,484,484,484,484,484,484,484,484,484,484,484,484,485,485,483,483,480,478,475,467,464,458,455,451,434,420,405,389,369,331,307,298,277,262,236,222,206,189,174,137,123,109,94],"timestamp_mouse":[9,22,44,63,82,102,124,143,162,184,203,222,244,263,282,302,323,344,363,382,403,422,444,462,483,503,522,542,563,584,603,622,642,662,682,703,722,744,763,783,803,822,843,862,884,904,923,942,962,983,1003,1022,1043,1063,1082,1103,1123,1143,1164,1182,1204,1223,1242,1263,1282,1302,1323,1343,1363,1383,1402,1422,1443,1463,1482,1503,1523,1542,1563,1582,1602,1622,1642,1662,1682,1702,1723,1742,1762,1783,1802,1822,1842,1862,1882,1902,1923,1942,1962,1982,2002,2024,2043,2063,2082,2102,2123,2142,2163,2183,2204,2224],"xSR":741.5,"ySR":469.95,"xT1":424.9,"yT1":0,"xT2":1058.1,"yT2":0,"toosoon":0,"cond_shown":"Congruent","ratio_trial":300,"L_num":2,"L_den":20,"R_num":10,"R_den":25,"correct_side":2,"subjID":"AnaLuciaRinconRomero29","gender":"1","school":"4","age":"8"},{"start_time":1552068764163,"click_time":1552068766044,"finger_time":1552068765664,"fix_duration":917.8012020203507,"trial":5,"RT":1501,"MT":380,"sideResp":2,"stimulus":[],"xmouse":[804,804,804,804,804,804,804,804,804,804,804,804,804,804,804,804,804,804,804,804,804,804,804,804,804,804,804,804,804,804,804,804,804,804,804,804,804,804,804,804,804,804,804,804,804,804,804,804,804,804,804,804,804,804,804,804,804,804,804,804,804,804,804,804,805,805,805,806,806,806,806,806,806,807,811,820,836,861,897,973,1006,1030,1050,1072,1074,1075,1076,1077,1078,1081,1082,1083,1086,1090,1100],"ymouse":[493,493,493,493,493,493,493,493,493,493,493,493,493,493,493,493,493,493,493,493,493,493,493,493,493,493,493,493,493,493,493,493,493,493,493,493,493,493,493,493,493,493,493,493,493,493,493,493,493,493,493,493,493,493,493,493,493,493,493,493,493,493,494,494,491,489,489,488,488,488,488,488,488,487,481,469,450,420,377,290,246,213,185,148,145,142,140,138,136,132,129,125,118,109,85],"timestamp_mouse":[9,23,44,63,81,102,121,142,161,181,203,222,242,261,282,301,321,341,363,382,401,421,442,461,481,503,523,541,562,583,603,622,642,662,682,702,722,742,762,782,802,821,842,862,882,902,921,942,962,983,1002,1022,1041,1062,1082,1101,1121,1141,1161,1181,1201,1221,1242,1261,1281,1302,1321,1341,1361,1381,1402,1422,1442,1461,1482,1501,1521,1541,1561,1581,1601,1621,1642,1663,1681,1701,1721,1741,1761,1781,1801,1821,1843,1862,1881],"xSR":741.5,"ySR":469.95,"xT1":424.9,"yT1":0,"xT2":1058.1,"yT2":0,"toosoon":0,"cond_shown":"Incongruent","ratio_trial":300,"L_num":13,"L_den":26,"R_num":12,"R_den":15,"correct_side":2,"subjID":"AnaLuciaRinconRomero29","gender":"1","school":"4","age":"8"},{"start_time":1552068768657,"click_time":1552068770384,"finger_time":1552068770164,"fix_duration":1211.9916695705292,"trial":6,"RT":1507,"MT":220,"sideResp":2,"stimulus":[],"xmouse":[818,818,818,818,816,816,816,816,816,816,816,816,816,816,816,816,816,816,816,816,816,816,816,816,815,815,815,815,815,815,815,815,815,815,815,815,815,815,815,815,815,815,815,815,815,815,815,815,815,815,815,815,815,815,815,815,815,815,815,815,815,816,817,818,818,818,818,818,818,818,818,818,818,820,823,845,879,908,941,1001,1027,1047,1059,1070,1075,1083,1090],"ymouse":[489,490,490,491,493,494,494,495,495,495,495,495,495,495,495,495,495,495,495,495,495,495,495,495,495,495,495,495,495,495,495,495,495,495,495,495,495,495,495,495,495,495,495,495,495,495,495,495,495,495,495,495,495,495,495,495,495,495,495,495,495,493,492,492,492,492,492,492,492,492,492,492,491,490,485,459,421,384,342,254,209,172,150,132,121,108,99],"timestamp_mouse":[13,38,48,67,87,109,127,148,168,188,208,228,247,268,287,307,328,348,367,388,408,427,447,467,487,508,527,548,567,588,607,627,649,669,688,707,728,747,767,789,807,828,848,867,888,907,929,948,967,987,1008,1027,1048,1069,1087,1107,1129,1148,1167,1187,1207,1227,1247,1268,1287,1309,1328,1347,1369,1387,1407,1428,1447,1468,1487,1507,1527,1547,1567,1587,1607,1628,1648,1668,1687,1707,1727],"xSR":741.5,"ySR":469.95,"xT1":424.9,"yT1":0,"xT2":1058.1,"yT2":0,"toosoon":0,"cond_shown":"Congruent","ratio_trial":200,"L_num":21,"L_den":30,"R_num":2,"R_den":4,"correct_side":1,"subjID":"AnaLuciaRinconRomero29","gender":"1","school":"4","age":"8"},{"start_time":1552068771988,"click_time":1552068774265,"finger_time":1552068773705,"fix_duration":403.67479712341645,"trial":7,"RT":1717,"MT":560,"sideResp":1,"stimulus":[],"xmouse":[783,783,783,783,783,783,783,783,783,783,783,783,783,783,783,783,783,783,783,783,783,783,783,783,783,783,783,783,783,783,783,783,783,783,783,783,783,783,783,783,783,783,783,783,783,783,783,783,783,783,783,783,783,783,783,783,783,783,783,783,783,783,783,783,783,783,783,783,783,783,783,783,783,783,783,783,783,783,783,783,783,783,783,774,755,726,668,643,507,492,485,479,468,462,457,455,455,463,475,489,507,522,541,545,545,543,537,526,525,525,525,525,525,524],"ymouse":[532,532,532,532,532,532,532,532,532,532,532,532,532,532,532,532,532,532,532,532,532,532,532,532,532,532,532,532,532,532,532,532,532,532,532,532,532,532,532,532,532,532,532,532,532,532,532,532,532,532,532,532,532,532,532,532,532,532,532,532,532,532,532,532,532,532,532,532,532,532,532,532,532,532,532,532,532,532,532,532,532,532,532,516,478,436,401,393,367,352,336,312,274,256,241,225,211,178,166,155,142,129,104,91,83,75,67,55,53,53,53,53,53,53],"timestamp_mouse":[16,37,57,77,96,117,136,156,178,197,217,236,257,276,297,317,337,357,377,397,417,438,457,477,496,517,537,556,578,597,616,637,656,676,696,716,738,756,777,797,817,836,857,877,897,917,936,957,977,998,1018,1037,1057,1076,1097,1117,1136,1157,1176,1198,1216,1237,1256,1276,1297,1317,1337,1357,1377,1397,1416,1437,1457,1476,1496,1516,1536,1557,1577,1597,1616,1637,1656,1676,1697,1717,1736,1756,1776,1796,1816,1837,1857,1876,1896,1917,1936,1958,1976,1996,2016,2036,2057,2076,2097,2116,2136,2158,2176,2196,2216,2236,2258,2277],"xSR":741.5,"ySR":469.95,"xT1":424.9,"yT1":0,"xT2":1058.1,"yT2":0,"toosoon":0,"cond_shown":"Incongruent","ratio_trial":100,"L_num":9,"L_den":15,"R_num":14,"R_den":28,"correct_side":1,"subjID":"AnaLuciaRinconRomero29","gender":"1","school":"4","age":"8"},{"start_time":1552068779045,"click_time":1552068780445,"finger_time":1552068779845,"fix_duration":958.119421537427,"trial":8,"RT":800,"MT":600,"sideResp":2,"stimulus":[],"xmouse":[762,762,762,762,762,762,762,762,762,762,762,762,762,762,762,762,762,762,762,762,762,762,762,762,764,765,765,765,765,766,767,769,773,775,779,783,796,806,818,830,847,882,916,935,954,973,1000,1007,1016,1023,1029,1037,1038,1039,1039,1039,1042,1042,1044,1047,1050,1052,1053,1053,1053,1053,1053,1054,1056,1057,1059],"ymouse":[546,546,546,546,546,546,546,546,546,546,546,546,546,546,546,546,546,546,546,546,546,546,546,546,544,544,544,544,544,543,543,541,539,537,535,532,522,513,503,492,478,438,395,369,342,315,268,253,233,216,200,170,161,155,150,147,135,128,118,108,99,90,87,87,87,87,87,85,83,82,82],"timestamp_mouse":[1,34,40,61,79,100,119,140,159,180,199,219,239,259,279,299,319,339,359,379,401,420,439,459,480,499,520,539,561,579,600,619,639,659,679,699,719,739,760,779,800,820,839,860,880,899,920,939,959,979,1000,1019,1041,1059,1079,1099,1120,1139,1160,1179,1201,1219,1239,1259,1280,1300,1319,1339,1361,1379,1400],"xSR":741.5,"ySR":469.95,"xT1":424.9,"yT1":0,"xT2":1058.1,"yT2":0,"toosoon":0,"cond_shown":"Congruent","ratio_trial":300,"L_num":2,"L_den":20,"R_num":10,"R_den":25,"correct_side":2,"subjID":"AnaLuciaRinconRomero29","gender":"1","school":"4","age":"8"},{"start_time":1552068783908,"click_time":1552068785484,"finger_time":1552068784784,"fix_duration":1122.6125384926745,"trial":9,"RT":876,"MT":700,"sideResp":1,"stimulus":[],"xmouse":[804,804,804,804,804,804,804,804,804,804,804,804,804,804,804,804,804,804,804,804,804,804,804,804,804,804,804,804,804,804,804,804,804,804,804,804,804,804,804,804,803,802,801,791,785,776,763,754,734,721,710,698,678,669,657,649,637,629,621,619,617,615,614,608,605,604,603,598,590,588,586,584,578,562,550,543,538,532,520],"ymouse":[501,501,501,501,501,501,501,501,501,501,501,501,501,501,501,501,501,501,501,501,501,501,501,501,501,501,501,501,501,501,501,501,501,501,501,501,501,501,500,498,496,492,486,463,451,435,412,396,368,356,343,327,286,264,239,217,189,172,144,130,116,101,88,70,66,65,65,66,68,69,69,69,69,69,69,69,69,69,69],"timestamp_mouse":[16,46,57,76,97,118,137,158,176,196,216,237,257,277,297,316,337,358,378,397,416,436,456,477,497,517,537,556,576,597,616,636,657,677,696,717,737,756,777,796,816,837,856,876,897,917,937,956,976,996,1016,1036,1058,1077,1097,1116,1138,1157,1177,1196,1217,1236,1256,1276,1297,1316,1337,1357,1377,1396,1416,1437,1456,1477,1497,1516,1537,1557,1576],"xSR":741.5,"ySR":469.95,"xT1":424.9,"yT1":0,"xT2":1058.1,"yT2":0,"toosoon":0,"cond_shown":"Congruent","ratio_trial":100,"L_num":7,"L_den":14,"R_num":9,"R_den":15,"correct_side":2,"subjID":"AnaLuciaRinconRomero29","gender":"1","school":"4","age":"8"},{"start_time":1552068792313,"click_time":1552068793405,"finger_time":1552068793104,"fix_duration":1146.750064766786,"trial":10,"RT":791,"MT":301,"sideResp":2,"stimulus":[],"xmouse":[812,812,812,812,812,812,812,812,812,812,812,812,812,812,812,812,812,812,812,812,812,812,812,812,814,814,815,815,816,817,817,818,818,818,819,819,821,824,832,837,844,851,861,870,890,902,916,931,949,988,1010,1032,1042,1051,1062],"ymouse":[528,528,528,528,528,528,528,528,528,528,528,528,528,528,528,528,528,528,528,528,528,528,526,525,521,519,515,513,508,506,505,503,502,501,498,496,492,487,471,461,448,434,410,390,354,331,309,283,249,183,145,106,86,69,49],"timestamp_mouse":[11,49,51,72,91,112,133,151,171,191,213,231,251,272,293,312,332,352,372,392,413,431,452,471,491,511,532,551,572,592,612,631,652,671,692,711,732,751,772,791,812,832,851,871,891,911,931,952,971,991,1012,1031,1051,1071,1092],"xSR":741.5,"ySR":469.95,"xT1":424.9,"yT1":0,"xT2":1058.1,"yT2":0,"toosoon":0,"cond_shown":"Congruent","ratio_trial":200,"L_num":14,"L_den":28,"R_num":6,"R_den":20,"correct_side":1,"subjID":"AnaLuciaRinconRomero29","gender":"1","school":"4","age":"8"},{"start_time":1552068799737,"click_time":1552068801065,"finger_time":1552068800124,"fix_duration":250,"trial":11,"RT":387,"MT":941,"sideResp":1,"stimulus":[],"xmouse":[761,761,761,761,761,761,761,761,761,761,761,761,761,761,761,761,761,762,762,760,754,748,741,736,725,720,715,712,712,712,712,712,712,710,706,695,683,668,640,629,617,606,590,557,542,535,533,532,530,530,529,527,523,522,521,521,521,521,521,521,521,520,520,508,498,489,484],"ymouse":[502,502,502,502,502,502,502,502,502,502,502,502,502,502,502,500,498,487,473,434,411,389,369,350,324,317,315,314,314,314,314,314,314,313,309,301,292,284,269,262,253,244,231,206,194,185,179,173,165,151,143,134,124,118,114,114,114,114,114,114,114,113,113,108,104,100,97],"timestamp_mouse":[10,39,47,67,88,107,127,149,167,188,208,227,248,267,287,308,327,347,367,387,407,428,448,468,487,508,527,548,568,588,607,628,648,669,687,707,728,748,769,787,807,827,848,868,887,908,927,948,967,987,1007,1027,1048,1068,1088,1107,1128,1148,1168,1187,1208,1227,1248,1269,1287,1308,1328],"xSR":741.5,"ySR":469.95,"xT1":424.9,"yT1":0,"xT2":1058.1,"yT2":0,"toosoon":0,"cond_shown":"Congruent","ratio_trial":100,"L_num":8,"L_den":16,"R_num":2,"R_den":5,"correct_side":1,"subjID":"AnaLuciaRinconRomero29","gender":"1","school":"4","age":"8"},{"start_time":1552068805997,"click_time":1552068808004,"finger_time":1552068807485,"fix_duration":250,"trial":12,"RT":1488,"MT":519,"sideResp":2,"stimulus":[],"xmouse":[816,816,816,816,816,816,816,816,816,816,816,816,816,816,816,816,816,816,816,816,816,816,816,816,816,816,817,818,820,822,823,824,824,824,824,825,827,829,831,832,832,832,832,832,832,832,832,832,832,832,832,832,832,832,832,832,832,832,832,832,832,832,832,832,832,832,832,832,832,832,832,832,835,838,846,858,885,899,912,925,934,954,959,964,970,975,986,992,1000,1007,1016,1039,1045,1050,1054,1058,1066,1069,1072,1076,1079],"ymouse":[521,521,521,521,521,521,521,521,521,521,521,521,521,521,521,521,521,521,521,521,521,521,521,521,521,521,520,519,516,514,512,511,511,511,511,511,509,507,506,505,504,504,504,504,504,504,504,504,504,504,504,504,504,504,504,504,504,504,504,504,504,504,504,504,504,504,504,504,504,504,504,504,503,497,486,469,429,406,382,359,337,293,280,269,259,249,231,222,211,198,185,152,142,137,131,125,115,110,107,101,97],"timestamp_mouse":[12,44,48,67,89,108,127,147,168,187,207,227,247,268,288,308,329,348,368,388,407,427,449,468,487,507,528,547,567,588,607,627,647,667,688,707,727,747,767,788,809,828,848,868,887,907,928,947,967,988,1008,1028,1048,1068,1088,1108,1127,1147,1168,1187,1207,1227,1248,1268,1289,1309,1328,1348,1368,1388,1408,1427,1447,1467,1488,1508,1528,1547,1568,1587,1608,1629,1647,1667,1688,1707,1729,1747,1768,1788,1808,1829,1848,1867,1888,1907,1928,1947,1969,1987,2007],"xSR":741.5,"ySR":469.95,"xT1":424.9,"yT1":0,"xT2":1058.1,"yT2":0,"toosoon":0,"cond_shown":"Congruent","ratio_trial":100,"L_num":7,"L_den":14,"R_num":9,"R_den":15,"correct_side":2,"subjID":"AnaLuciaRinconRomero29","gender":"1","school":"4","age":"8"},{"start_time":1552068812034,"click_time":1552068813325,"finger_time":1552068812726,"fix_duration":1426.800173814348,"trial":13,"RT":692,"MT":599,"sideResp":1,"stimulus":[],"xmouse":[802,802,802,802,802,802,802,802,802,802,802,802,802,802,802,802,802,802,802,802,802,802,802,802,800,798,791,790,784,783,780,779,775,770,762,738,725,708,696,686,672,665,660,653,647,633,627,624,617,612,603,596,590,584,578,569,564,562,560,558,545,538,533,526,521],"ymouse":[507,507,507,507,507,507,507,507,507,507,507,507,507,507,507,507,507,507,507,507,507,507,507,507,507,502,493,491,483,481,478,477,474,470,464,444,431,402,378,353,306,283,260,236,218,188,178,169,153,142,123,114,108,104,102,100,100,100,98,96,88,83,79,74,71],"timestamp_mouse":[10,41,51,71,91,112,131,150,170,190,210,232,251,272,291,311,330,351,370,390,412,431,450,471,490,510,530,550,570,591,611,630,650,670,692,710,731,750,770,790,810,830,852,871,891,911,930,951,971,991,1012,1030,1052,1071,1092,1110,1130,1150,1170,1190,1210,1230,1252,1271,1291],"xSR":741.5,"ySR":469.95,"xT1":424.9,"yT1":0,"xT2":1058.1,"yT2":0,"toosoon":0,"cond_shown":"Congruent","ratio_trial":200,"L_num":7,"L_den":15,"R_num":18,"R_den":27,"correct_side":2,"subjID":"AnaLuciaRinconRomero29","gender":"1","school":"4","age":"8"},{"start_time":1552068815997,"click_time":1552068817045,"finger_time":1552068816584,"fix_duration":250,"trial":14,"RT":587,"MT":461,"sideResp":2,"stimulus":[],"xmouse":[820,820,820,821,821,821,821,821,821,821,821,821,821,821,821,821,821,821,821,821,821,821,821,821,821,821,822,823,837,849,862,874,907,923,938,948,956,965,972,979,985,991,1002,1007,1012,1018,1024,1037,1042,1047,1052,1055,1059],"ymouse":[498,498,498,499,500,500,500,500,500,500,500,500,500,500,500,500,500,500,500,500,500,500,500,500,500,500,499,496,475,459,439,418,360,333,305,283,265,237,218,206,196,185,166,156,148,139,131,113,107,101,97,93,89],"timestamp_mouse":[14,30,47,69,88,107,127,147,167,187,207,227,248,268,287,307,329,347,367,387,409,427,448,467,488,509,528,548,567,587,607,627,648,667,688,707,728,748,767,787,809,828,848,867,887,908,927,949,967,987,1008,1027,1048],"xSR":741.5,"ySR":469.95,"xT1":424.9,"yT1":0,"xT2":1058.1,"yT2":0,"toosoon":0,"cond_shown":"Congruent","ratio_trial":300,"L_num":4,"L_den":10,"R_num":1,"R_den":10,"correct_side":1,"subjID":"AnaLuciaRinconRomero29","gender":"1","school":"4","age":"8"},{"start_time":1552068819831,"click_time":1552068822524,"finger_time":1552068822084,"fix_duration":644.8977656145096,"trial":15,"RT":2253,"MT":440,"sideResp":1,"stimulus":[],"xmouse":[775,775,776,776,776,776,776,776,776,776,777,777,777,777,777,777,777,777,777,777,777,777,777,777,777,777,778,778,778,778,778,778,778,778,778,778,778,778,778,778,778,778,778,778,778,778,778,778,778,778,778,778,778,778,778,778,778,778,778,778,778,778,778,778,778,778,778,778,778,778,778,778,778,778,778,778,778,778,778,778,778,778,778,778,778,778,778,778,778,778,778,778,778,778,778,778,778,778,778,778,778,778,778,778,778,778,778,778,778,778,778,775,766,763,752,745,731,727,723,718,713,707,686,666,648,629,593,578,561,547,535,518,516,516,516],"ymouse":[486,486,487,487,487,487,487,487,487,487,487,487,487,487,487,487,487,487,487,487,487,487,487,487,487,487,488,488,489,489,489,489,489,489,489,489,489,489,489,489,489,489,489,489,489,489,489,489,489,489,489,489,489,489,489,489,489,489,489,489,489,489,489,489,489,489,489,489,489,489,489,489,489,489,489,489,489,489,489,489,489,489,489,489,489,489,489,489,489,489,489,489,489,489,489,489,489,489,489,489,489,489,489,489,489,489,489,489,489,489,486,476,456,447,423,406,380,372,365,359,352,347,328,313,300,286,258,241,224,204,184,143,117,102,89],"timestamp_mouse":[14,35,53,73,93,113,134,154,175,193,214,234,255,274,293,313,334,354,374,393,413,435,455,474,494,513,534,553,574,593,614,633,653,674,694,713,734,753,773,793,814,833,854,873,893,913,934,953,974,994,1014,1035,1054,1074,1094,1115,1134,1153,1174,1193,1215,1234,1254,1273,1294,1314,1334,1354,1375,1394,1414,1433,1454,1474,1494,1515,1535,1554,1574,1594,1613,1635,1654,1675,1694,1714,1734,1755,1775,1793,1814,1834,1855,1873,1893,1914,1934,1954,1974,1994,2013,2035,2053,2073,2093,2114,2133,2154,2174,2194,2214,2233,2253,2273,2294,2313,2334,2353,2375,2394,2414,2433,2454,2473,2493,2514,2533,2553,2574,2593,2614,2633,2654,2673,2693],"xSR":741.5,"ySR":469.95,"xT1":424.9,"yT1":0,"xT2":1058.1,"yT2":0,"toosoon":0,"cond_shown":"Congruent","ratio_trial":100,"L_num":7,"L_den":14,"R_num":9,"R_den":15,"correct_side":2,"subjID":"AnaLuciaRinconRomero29","gender":"1","school":"4","age":"8"},{"start_time":1552068825416,"click_time":1552068826245,"finger_time":1552068825865,"fix_duration":250,"trial":16,"RT":449,"MT":380,"sideResp":2,"stimulus":[],"xmouse":[775,775,775,775,775,775,775,778,782,785,787,791,795,798,799,800,802,809,813,814,817,820,833,840,848,857,870,909,934,957,977,998,1030,1045,1052,1059,1064,1074,1078,1082,1086,1088],"ymouse":[523,523,523,523,523,523,523,523,522,519,519,516,512,510,509,506,504,494,488,484,478,471,440,424,406,384,357,296,266,243,224,208,183,168,159,149,140,123,114,106,100,96],"timestamp_mouse":[9,28,49,68,90,110,128,148,168,189,208,229,249,268,288,309,328,349,368,389,408,428,448,469,488,508,528,549,568,588,608,628,650,668,688,710,729,749,768,788,808,829],"xSR":741.5,"ySR":469.95,"xT1":424.9,"yT1":0,"xT2":1058.1,"yT2":0,"toosoon":0,"cond_shown":"Congruent","ratio_trial":100,"L_num":7,"L_den":14,"R_num":9,"R_den":15,"correct_side":2,"subjID":"AnaLuciaRinconRomero29","gender":"1","school":"4","age":"8"},{"start_time":1552068830282,"click_time":1552068832266,"finger_time":1552068831805,"fix_duration":1396.4407330174517,"trial":17,"RT":1523,"MT":461,"sideResp":1,"stimulus":[],"xmouse":[790,790,790,790,790,790,790,790,790,790,790,790,790,790,790,790,790,790,790,790,790,790,790,790,790,790,790,790,790,790,790,790,790,790,790,790,790,790,790,790,790,790,790,790,790,790,790,790,790,790,790,790,790,790,790,790,790,790,790,790,790,790,790,790,790,790,790,790,790,790,790,790,790,787,781,758,690,651,634,624,610,607,603,600,595,587,581,577,575,572,568,565,560,556,552,542,539,532,526,523],"ymouse":[519,519,519,519,519,519,519,519,519,519,519,519,519,519,519,519,519,519,519,519,519,519,519,519,519,519,519,519,519,519,519,519,519,519,519,519,519,519,519,519,519,519,519,519,519,519,519,519,519,519,519,519,519,519,519,519,519,519,519,519,519,519,519,519,519,519,519,519,519,519,519,519,519,519,516,503,456,421,399,381,344,327,313,298,283,253,232,216,202,187,153,135,118,103,90,69,63,52,48,46],"timestamp_mouse":[10,23,44,63,84,102,123,143,164,183,204,222,243,263,283,302,323,342,362,383,402,423,443,463,483,502,523,543,564,583,603,622,642,662,683,703,723,743,762,782,803,823,842,863,884,903,924,942,963,982,1002,1023,1042,1062,1082,1102,1122,1142,1162,1182,1202,1223,1243,1263,1283,1302,1323,1342,1362,1382,1404,1422,1442,1462,1483,1502,1523,1542,1563,1582,1603,1624,1643,1662,1683,1703,1722,1742,1763,1783,1802,1822,1842,1862,1882,1903,1922,1942,1962,1984],"xSR":741.5,"ySR":469.95,"xT1":424.9,"yT1":0,"xT2":1058.1,"yT2":0,"toosoon":0,"cond_shown":"Incongruent","ratio_trial":300,"L_num":7,"L_den":10,"R_num":8,"R_den":20,"correct_side":1,"subjID":"AnaLuciaRinconRomero29","gender":"1","school":"4","age":"8"},{"start_time":1552068834778,"click_time":1552068835786,"finger_time":1552068835625,"fix_duration":250,"trial":18,"RT":847,"MT":161,"sideResp":2,"stimulus":[],"xmouse":[795,795,795,795,795,795,795,795,795,795,795,795,795,795,795,795,795,795,795,795,795,795,795,795,795,795,795,795,795,795,795,795,795,797,798,800,806,810,813,819,824,841,851,866,883,932,964,991,1014,1031,1059],"ymouse":[511,511,511,511,511,511,511,511,511,511,511,511,511,511,511,511,511,511,511,512,512,512,512,512,512,512,512,512,512,512,512,512,512,512,512,512,509,507,504,498,491,471,455,433,402,312,259,211,164,126,62],"timestamp_mouse":[14,27,47,66,88,107,126,147,167,187,207,227,246,267,287,308,327,347,366,386,406,427,448,468,487,507,528,547,567,587,607,628,646,666,686,707,726,747,778,786,806,826,847,866,887,907,926,946,967,988,1008],"xSR":741.5,"ySR":469.95,"xT1":424.9,"yT1":0,"xT2":1058.1,"yT2":0,"toosoon":0,"cond_shown":"Incongruent","ratio_trial":100,"L_num":8,"L_den":16,"R_num":6,"R_den":10,"correct_side":2,"subjID":"AnaLuciaRinconRomero29","gender":"1","school":"4","age":"8"},{"start_time":1552068841911,"click_time":1552068843444,"finger_time":1552068842906,"fix_duration":406.0449007548388,"trial":19,"RT":995,"MT":538,"sideResp":1,"stimulus":[],"xmouse":[806,806,806,806,806,806,806,806,806,806,806,806,806,806,806,806,806,806,806,806,806,806,806,806,806,806,806,806,806,806,806,806,806,806,806,806,806,806,806,806,806,806,806,806,806,806,804,804,802,793,788,780,772,762,743,733,723,711,689,662,648,636,628,621,614,610,607,604,599,585,579,574,568,559,538,528,516],"ymouse":[513,513,513,513,513,513,513,513,513,513,513,513,513,513,513,513,513,513,513,513,513,513,513,513,513,513,513,513,513,513,513,513,513,513,513,513,513,513,513,513,513,513,513,513,513,510,503,495,485,451,437,420,404,387,351,330,308,285,252,212,193,177,165,155,141,136,130,125,116,103,99,96,93,88,79,74,69],"timestamp_mouse":[13,43,53,73,95,114,134,154,174,193,213,235,253,274,293,314,334,355,375,394,414,433,453,474,494,515,534,553,574,593,614,633,653,673,693,714,733,753,775,793,814,833,853,874,894,913,934,953,974,995,1013,1033,1054,1074,1094,1113,1134,1153,1173,1194,1213,1233,1253,1273,1294,1313,1334,1353,1374,1394,1413,1433,1453,1474,1495,1514,1533],"xSR":741.5,"ySR":469.95,"xT1":424.9,"yT1":0,"xT2":1058.1,"yT2":0,"toosoon":0,"cond_shown":"Incongruent","ratio_trial":300,"L_num":2,"L_den":4,"R_num":6,"R_den":30,"correct_side":1,"subjID":"AnaLuciaRinconRomero29","gender":"1","school":"4","age":"8"},{"start_time":1552068849196,"click_time":1552068851286,"finger_time":1552068850944,"fix_duration":1270.970396638269,"trial":20,"RT":1748,"MT":342,"sideResp":1,"stimulus":[],"xmouse":[786,786,786,786,786,786,786,786,786,786,786,786,786,786,786,786,786,786,786,786,786,786,786,786,786,786,786,786,786,786,786,786,786,786,786,786,786,786,786,786,786,786,786,786,786,786,786,786,786,786,786,786,786,786,786,786,786,786,786,786,787,788,789,789,789,789,789,789,789,789,789,789,789,789,789,789,789,789,789,789,789,789,789,789,789,789,779,771,759,743,725,687,651,625,602,585,555,543,534,523,516,506,502,501,501],"ymouse":[512,512,512,512,512,512,512,512,512,512,512,512,512,512,512,512,512,512,512,512,512,512,512,512,512,512,512,512,512,512,512,512,512,512,512,512,512,512,512,512,512,512,512,512,512,512,512,512,512,512,512,512,512,512,512,512,512,512,512,511,511,509,508,508,508,508,508,508,508,508,508,508,508,508,508,508,508,508,508,508,508,508,508,508,507,504,479,462,437,405,375,309,259,229,203,182,152,142,135,128,121,112,105,102,97],"timestamp_mouse":[9,41,49,70,88,108,128,148,169,188,208,229,250,269,289,308,329,348,370,389,408,429,449,470,490,509,529,548,569,588,610,629,649,669,690,710,729,748,769,789,809,828,848,868,889,909,928,949,968,988,1008,1028,1049,1068,1088,1109,1128,1148,1168,1188,1209,1228,1249,1269,1288,1309,1329,1349,1369,1389,1408,1428,1449,1469,1490,1508,1529,1548,1569,1589,1609,1628,1649,1669,1688,1709,1729,1748,1768,1788,1808,1829,1848,1868,1888,1909,1929,1948,1969,1989,2008,2029,2048,2068,2090],"xSR":741.5,"ySR":469.95,"xT1":424.9,"yT1":0,"xT2":1058.1,"yT2":0,"toosoon":0,"cond_shown":"Congruent","ratio_trial":200,"L_num":4,"L_den":8,"R_num":3,"R_den":10,"correct_side":1,"subjID":"AnaLuciaRinconRomero29","gender":"1","school":"4","age":"8"},{"start_time":1552068857699,"click_time":1552068859145,"finger_time":1552068858324,"fix_duration":393.4104804696601,"trial":21,"RT":625,"MT":821,"sideResp":1,"stimulus":[],"xmouse":[792,792,792,792,792,792,792,792,792,792,792,792,792,792,792,792,792,792,792,792,792,792,792,792,792,792,790,783,778,768,756,745,717,702,674,654,633,596,579,568,560,555,553,552,549,547,540,520,510,507,507,507,506,506,506,506,506,503,499,495,491,491,490,490,490,490,490,490,490,490,490,490,486],"ymouse":[525,525,525,525,525,525,525,525,525,525,525,525,525,525,525,525,525,525,525,525,525,525,525,525,525,525,524,513,506,495,482,468,430,404,357,320,283,219,197,181,172,168,167,167,164,161,156,143,138,135,135,135,135,135,135,135,133,129,124,120,116,115,110,109,107,106,106,106,106,106,106,104,98],"timestamp_mouse":[10,26,46,66,85,106,125,145,167,187,206,226,245,265,285,307,326,345,365,385,406,426,445,466,486,506,525,545,565,586,605,625,645,666,685,705,726,746,765,786,805,827,846,865,885,906,925,946,965,986,1006,1026,1046,1066,1087,1106,1125,1146,1165,1187,1206,1225,1246,1266,1285,1306,1326,1345,1365,1386,1405,1426,1446],"xSR":741.5,"ySR":469.95,"xT1":424.9,"yT1":0,"xT2":1058.1,"yT2":0,"toosoon":0,"cond_shown":"Incongruent","ratio_trial":200,"L_num":4,"L_den":6,"R_num":14,"R_den":30,"correct_side":1,"subjID":"AnaLuciaRinconRomero29","gender":"1","school":"4","age":"8"},{"start_time":1552068862238,"click_time":1552068863405,"finger_time":1552068862903,"fix_duration":1012.8309515462607,"trial":22,"RT":665,"MT":502,"sideResp":1,"stimulus":[],"xmouse":[772,772,772,773,773,773,773,773,773,773,773,773,773,773,773,773,773,773,773,773,773,773,773,773,773,773,773,773,773,773,773,773,770,761,751,740,716,704,692,679,657,647,636,622,611,595,561,539,515,490,472,441,434,431,429,429,429,429,429],"ymouse":[517,519,520,521,523,524,524,524,524,524,524,524,524,524,524,524,524,524,524,524,524,524,524,524,524,524,524,524,524,524,523,508,495,469,449,431,391,373,354,334,306,295,283,267,255,242,216,200,182,165,152,130,122,118,114,112,106,103,98],"timestamp_mouse":[5,27,49,67,85,107,127,146,167,185,207,225,246,265,286,307,326,346,366,387,406,426,447,466,486,506,527,545,565,587,606,625,647,665,686,706,725,745,765,785,807,826,846,865,886,906,925,946,966,987,1007,1025,1046,1065,1085,1106,1125,1146,1167],"xSR":741.5,"ySR":469.95,"xT1":424.9,"yT1":0,"xT2":1058.1,"yT2":0,"toosoon":0,"cond_shown":"Congruent","ratio_trial":100,"L_num":4,"L_den":10,"R_num":15,"R_den":30,"correct_side":2,"subjID":"AnaLuciaRinconRomero29","gender":"1","school":"4","age":"8"},{"start_time":1552068865516,"click_time":1552068867104,"finger_time":1552068866783,"fix_duration":250,"trial":23,"RT":1267,"MT":321,"sideResp":2,"stimulus":[],"xmouse":[798,798,798,798,798,798,798,798,798,798,798,798,798,798,798,798,798,798,798,798,798,798,798,798,798,798,798,798,798,798,798,798,798,798,798,798,798,798,798,798,798,798,798,798,798,798,798,798,798,798,798,798,798,798,798,798,798,798,798,798,801,806,813,815,816,816,816,816,816,818,825,842,915,952,989,1013,1031,1049,1058,1063],"ymouse":[509,509,509,509,509,509,509,509,509,509,509,509,509,509,509,509,509,509,509,509,509,509,509,509,509,509,509,509,509,509,509,509,509,509,509,509,509,509,509,509,509,509,509,509,509,509,509,509,509,509,509,509,509,509,509,509,509,509,509,509,504,492,472,464,461,460,460,460,460,456,442,416,314,265,212,172,134,78,49,33],"timestamp_mouse":[13,38,47,69,89,109,128,148,168,189,209,228,248,269,287,307,328,347,369,389,407,427,449,469,489,507,528,547,568,587,609,629,649,668,688,707,728,747,769,789,809,829,848,867,888,908,928,947,968,988,1008,1028,1049,1067,1088,1108,1128,1147,1167,1187,1209,1228,1247,1267,1289,1308,1329,1348,1367,1387,1408,1428,1448,1467,1487,1508,1528,1548,1569,1587],"xSR":741.5,"ySR":469.95,"xT1":424.9,"yT1":0,"xT2":1058.1,"yT2":0,"toosoon":0,"cond_shown":"Incongruent","ratio_trial":100,"L_num":9,"L_den":15,"R_num":14,"R_den":28,"correct_side":1,"subjID":"AnaLuciaRinconRomero29","gender":"1","school":"4","age":"8"},{"start_time":1552068872733,"click_time":1552068873584,"finger_time":1552068873003,"fix_duration":1326.837672392099,"trial":24,"RT":270,"MT":581,"sideResp":1,"stimulus":[],"xmouse":[779,779,779,779,783,789,794,800,801,801,802,803,804,804,804,804,802,798,798,797,796,795,791,785,774,765,757,734,725,715,709,701,690,683,680,677,670,652,637,617,593,565,500],"ymouse":[498,498,498,498,497,497,496,493,492,491,490,483,476,468,453,441,433,421,418,414,411,405,378,362,335,318,301,274,264,254,246,238,223,215,212,208,204,188,175,158,138,116,68],"timestamp_mouse":[10,36,51,70,90,111,131,150,171,191,211,232,250,270,291,310,330,350,371,391,411,432,450,471,490,512,531,552,570,592,612,631,652,672,692,711,730,751,771,791,810,831,851],"xSR":741.5,"ySR":469.95,"xT1":424.9,"yT1":0,"xT2":1058.1,"yT2":0,"toosoon":0,"cond_shown":"Incongruent","ratio_trial":100,"L_num":9,"L_den":18,"R_num":6,"R_den":10,"correct_side":2,"subjID":"AnaLuciaRinconRomero29","gender":"1","school":"4","age":"8"},{"start_time":1552068875636,"click_time":1552068877484,"finger_time":1552068876484,"fix_duration":250,"trial":25,"RT":848,"MT":1000,"sideResp":2,"stimulus":[],"xmouse":[771,771,771,771,771,771,773,773,773,773,773,773,773,773,773,773,773,773,773,773,773,773,773,773,773,773,773,773,773,774,775,775,775,775,775,775,775,775,775,778,780,783,793,799,805,811,818,825,848,858,868,880,896,901,906,910,914,930,935,941,951,959,979,988,997,1007,1016,1025,1044,1055,1062,1066,1071,1079,1082,1085,1089,1092,1094,1095,1097,1098,1099,1101,1101,1101,1101,1102,1102,1102,1103,1103,1104],"ymouse":[485,485,485,485,485,485,486,486,486,486,486,486,486,486,486,486,486,486,486,486,486,486,486,486,486,486,486,486,486,485,484,484,484,484,484,484,484,484,484,482,480,477,465,457,447,437,425,413,378,363,346,331,309,302,297,293,288,275,270,264,257,251,235,229,222,216,209,202,188,181,176,172,167,157,152,148,140,134,131,128,123,122,119,114,112,111,111,109,108,106,104,102,97],"timestamp_mouse":[9,43,47,67,88,109,128,148,167,189,207,229,248,267,289,307,327,348,369,388,408,427,448,467,488,509,529,549,569,588,608,629,649,667,687,708,729,748,767,787,808,828,848,867,888,907,928,948,968,987,1007,1027,1048,1067,1087,1108,1129,1148,1169,1188,1208,1229,1248,1267,1288,1308,1328,1347,1368,1387,1408,1429,1447,1467,1488,1508,1529,1548,1567,1587,1608,1627,1648,1667,1688,1709,1728,1749,1767,1787,1809,1827,1848],"xSR":741.5,"ySR":469.95,"xT1":424.9,"yT1":0,"xT2":1058.1,"yT2":0,"toosoon":0,"cond_shown":"Congruent","ratio_trial":200,"L_num":20,"L_den":25,"R_num":9,"R_den":15,"correct_side":1,"subjID":"AnaLuciaRinconRomero29","gender":"1","school":"4","age":"8"},{"start_time":1552068879979,"click_time":1552068881083,"finger_time":1552068880884,"fix_duration":733.7602274409466,"trial":26,"RT":905,"MT":199,"sideResp":1,"stimulus":[],"xmouse":[817,817,817,817,817,817,817,817,817,817,817,817,817,817,817,817,817,817,817,817,817,817,817,817,817,817,817,817,817,817,817,817,817,817,817,817,817,817,817,817,817,817,812,802,768,709,579,531,505,488,484,483,483,483,483,483],"ymouse":[516,516,516,516,516,516,516,516,516,516,516,516,516,516,516,516,516,516,516,516,516,516,516,516,516,516,516,516,516,516,516,516,516,516,516,516,516,516,516,516,516,516,516,507,477,427,314,263,226,185,165,132,120,111,105,99],"timestamp_mouse":[15,25,46,65,85,105,124,144,166,185,205,226,245,265,285,305,324,345,365,386,405,425,445,466,485,504,524,545,565,585,606,626,645,666,685,704,725,745,764,786,805,825,845,864,885,905,925,945,964,984,1004,1026,1045,1065,1084,1104],"xSR":741.5,"ySR":469.95,"xT1":424.9,"yT1":0,"xT2":1058.1,"yT2":0,"toosoon":0,"cond_shown":"Congruent","ratio_trial":100,"L_num":4,"L_den":8,"R_num":6,"R_den":10,"correct_side":2,"subjID":"AnaLuciaRinconRomero29","gender":"1","school":"4","age":"8"},{"start_time":1552068883766,"click_time":1552068886004,"finger_time":1552068885423,"fix_duration":920.1466249260656,"trial":27,"RT":1657,"MT":581,"sideResp":1,"stimulus":[],"xmouse":[769,769,769,769,769,770,773,773,775,776,776,776,776,776,776,776,776,776,776,776,776,776,776,776,776,776,776,776,776,776,776,776,776,776,776,776,776,776,776,776,776,776,776,776,776,776,776,776,776,776,776,776,776,776,776,776,776,776,776,776,776,776,776,776,776,776,776,777,782,785,790,795,797,797,797,797,797,797,797,797,797,788,779,770,762,755,742,739,737,735,734,731,725,716,704,688,654,644,636,628,623,614,611,607,604,599,583,561,545,530,515,497],"ymouse":[503,503,503,503,505,506,516,517,520,521,521,521,521,521,521,521,521,521,521,521,521,521,521,521,521,521,521,521,521,521,521,521,521,521,521,521,521,521,521,521,521,521,521,521,521,521,521,521,521,521,521,521,521,521,521,521,521,521,521,521,521,521,521,521,521,521,521,520,517,515,512,509,508,508,508,508,508,508,508,508,502,478,456,430,405,380,335,326,322,320,318,315,310,302,290,278,244,234,225,217,208,195,191,186,180,174,152,131,120,112,105,96],"timestamp_mouse":[18,43,59,77,98,118,138,158,178,198,219,238,258,277,298,317,337,358,379,398,419,439,458,477,497,517,539,558,577,598,617,639,659,678,698,717,737,759,778,799,818,837,858,879,899,918,937,959,979,999,1018,1037,1058,1079,1099,1119,1138,1158,1177,1199,1219,1239,1258,1278,1298,1319,1338,1359,1378,1398,1417,1437,1458,1479,1498,1518,1538,1558,1577,1598,1617,1637,1657,1679,1699,1718,1737,1757,1777,1798,1818,1838,1857,1877,1898,1918,1938,1957,1977,1999,2017,2038,2057,2078,2098,2117,2138,2157,2177,2198,2218,2238],"xSR":741.5,"ySR":469.95,"xT1":424.9,"yT1":0,"xT2":1058.1,"yT2":0,"toosoon":0,"cond_shown":"Congruent","ratio_trial":100,"L_num":10,"L_den":25,"R_num":3,"R_den":10,"correct_side":1,"subjID":"AnaLuciaRinconRomero29","gender":"1","school":"4","age":"8"},{"start_time":1552068888477,"click_time":1552068889784,"finger_time":1552068889084,"fix_duration":1109.044140291791,"trial":28,"RT":607,"MT":700,"sideResp":2,"stimulus":[],"xmouse":[766,766,766,766,766,766,766,766,766,766,766,766,766,766,766,766,766,769,771,774,779,783,791,795,800,807,811,820,827,839,848,860,881,892,902,911,934,947,960,980,993,1002,1016,1020,1023,1027,1030,1038,1040,1045,1053,1060,1064,1067,1068,1070,1070,1071,1073,1075,1077,1085,1087,1088,1088,1089],"ymouse":[539,539,539,539,539,539,539,539,539,539,539,539,539,539,539,539,539,539,539,538,536,535,530,527,524,520,516,508,501,487,475,462,435,419,404,387,354,334,315,287,271,256,234,226,218,211,205,190,182,173,159,142,134,128,126,124,123,121,119,117,114,107,104,102,100,98],"timestamp_mouse":[13,28,47,67,87,106,128,147,168,186,207,228,250,266,287,306,326,346,367,386,408,426,447,467,487,508,527,548,568,586,607,627,647,667,686,706,728,746,766,786,807,826,847,866,887,908,927,946,966,987,1007,1028,1046,1066,1087,1107,1127,1147,1166,1186,1208,1228,1246,1266,1287,1307],"xSR":741.5,"ySR":469.95,"xT1":424.9,"yT1":0,"xT2":1058.1,"yT2":0,"toosoon":0,"cond_shown":"Incongruent","ratio_trial":200,"L_num":7,"L_den":10,"R_num":8,"R_den":16,"correct_side":1,"subjID":"AnaLuciaRinconRomero29","gender":"1","school":"4","age":"8"},{"start_time":1552068892603,"click_time":1552068893904,"finger_time":1552068893524,"fix_duration":1318.7341252619153,"trial":29,"RT":921,"MT":380,"sideResp":1,"stimulus":[],"xmouse":[826,826,826,826,826,826,826,826,826,826,826,826,826,825,825,825,825,825,825,825,825,824,823,823,823,823,823,823,823,823,823,823,823,823,823,823,823,823,823,823,823,822,821,819,812,803,774,755,737,713,687,629,616,606,597,591,584,578,576,574,571,562,554,545,530,514],"ymouse":[543,543,543,543,543,543,543,543,543,543,543,542,540,539,539,539,539,539,536,534,532,522,521,519,519,519,519,519,519,519,519,519,519,519,519,519,519,519,519,519,519,516,512,505,494,480,444,424,402,374,338,244,221,206,192,183,173,162,157,152,146,129,119,110,100,87],"timestamp_mouse":[9,20,43,62,81,101,122,140,161,180,201,220,242,261,280,302,320,342,361,381,402,420,441,461,481,500,521,540,560,581,602,620,640,661,680,702,720,741,760,781,801,821,841,861,882,900,921,940,960,981,1001,1021,1042,1061,1081,1100,1120,1142,1161,1182,1201,1220,1241,1260,1281,1301],"xSR":741.5,"ySR":469.95,"xT1":424.9,"yT1":0,"xT2":1058.1,"yT2":0,"toosoon":0,"cond_shown":"Congruent","ratio_trial":200,"L_num":5,"L_den":10,"R_num":14,"R_den":20,"correct_side":2,"subjID":"AnaLuciaRinconRomero29","gender":"1","school":"4","age":"8"},{"start_time":1552068898121,"click_time":1552068900364,"finger_time":1552068899923,"fix_duration":275.1409704550646,"trial":30,"RT":1802,"MT":441,"sideResp":2,"stimulus":[],"xmouse":[760,760,760,760,760,760,760,760,760,760,760,760,760,760,760,760,760,760,760,760,760,760,760,760,760,760,760,760,760,760,760,760,760,760,760,760,760,760,760,760,760,760,760,760,760,760,760,760,760,760,760,760,760,760,760,760,760,760,760,760,760,760,760,760,760,760,760,760,760,760,760,760,760,760,760,760,760,763,768,773,777,781,782,782,782,782,782,786,789,797,810,835,850,874,890,907,934,947,961,974,987,1012,1021,1031,1036,1039,1045,1046,1049,1050,1052,1058,1061],"ymouse":[496,496,496,496,496,496,496,496,496,496,496,496,496,496,496,496,496,496,496,496,496,496,496,496,496,496,496,496,496,496,496,496,496,496,496,496,496,496,496,496,496,496,496,496,496,496,496,496,496,496,496,496,496,496,496,496,496,496,496,496,496,496,496,496,496,496,496,496,496,496,496,496,496,496,496,496,496,494,492,490,487,486,485,485,485,485,485,483,482,476,468,448,434,405,383,363,324,308,291,276,258,221,202,176,158,146,128,122,117,112,106,94,86],"timestamp_mouse":[15,29,47,64,82,102,124,142,162,184,203,224,244,263,284,302,323,342,363,382,404,422,443,464,482,503,524,542,562,583,602,624,642,662,682,702,724,742,764,784,802,824,844,863,883,902,923,943,962,983,1003,1023,1044,1062,1082,1102,1123,1142,1163,1183,1203,1223,1243,1262,1284,1304,1323,1343,1362,1384,1403,1424,1443,1463,1483,1504,1522,1542,1562,1583,1603,1622,1643,1664,1683,1702,1722,1742,1763,1783,1802,1822,1842,1862,1884,1904,1923,1942,1963,1983,2002,2022,2043,2063,2082,2103,2122,2143,2162,2182,2203,2222,2243],"xSR":741.5,"ySR":469.95,"xT1":424.9,"yT1":0,"xT2":1058.1,"yT2":0,"toosoon":0,"cond_shown":"Congruent","ratio_trial":200,"L_num":6,"L_den":20,"R_num":11,"R_den":22,"correct_side":2,"subjID":"AnaLuciaRinconRomero29","gender":"1","school":"4","age":"8"},{"start_time":1552068903055,"click_time":1552068904865,"finger_time":1552068904605,"fix_duration":250,"trial":31,"RT":1550,"MT":260,"sideResp":1,"stimulus":[],"xmouse":[800,800,800,800,800,800,800,800,800,800,800,800,800,800,800,800,800,800,800,800,800,800,800,800,800,800,800,800,800,800,800,800,800,800,800,800,800,800,800,800,800,800,800,800,800,800,800,800,800,800,800,800,800,800,800,800,800,800,800,800,800,800,800,800,800,800,800,800,800,800,800,800,800,800,800,792,787,780,770,744,728,709,686,664,626,588,572,557,542,530,514],"ymouse":[505,505,505,505,505,505,505,505,505,505,505,505,505,505,505,505,505,505,505,505,505,505,505,505,505,505,505,505,505,505,505,505,505,505,505,505,505,505,505,505,505,505,505,505,505,505,505,505,505,505,505,505,505,505,505,505,505,505,505,505,505,505,505,505,505,505,505,505,505,505,505,505,505,505,506,485,472,455,436,392,363,329,293,265,214,168,153,141,129,117,89],"timestamp_mouse":[10,29,49,70,88,108,128,148,168,188,208,228,248,268,288,308,328,348,369,389,409,430,448,469,488,509,529,548,568,590,608,628,648,668,688,708,729,748,768,788,809,828,849,869,889,908,929,948,968,988,1008,1028,1048,1068,1088,1108,1128,1148,1169,1189,1209,1228,1248,1269,1288,1308,1328,1348,1368,1388,1409,1428,1448,1468,1488,1508,1528,1550,1569,1589,1608,1628,1649,1669,1689,1709,1728,1748,1768,1789,1810],"xSR":741.5,"ySR":469.95,"xT1":424.9,"yT1":0,"xT2":1058.1,"yT2":0,"toosoon":0,"cond_shown":"Incongruent","ratio_trial":200,"L_num":1,"L_den":3,"R_num":2,"R_den":15,"correct_side":1,"subjID":"AnaLuciaRinconRomero29","gender":"1","school":"4","age":"8"},{"start_time":1552068913013,"click_time":1552068915125,"finger_time":1552068914643,"fix_duration":1248.6142175101745,"trial":32,"RT":1630,"MT":482,"sideResp":2,"stimulus":[],"xmouse":[810,810,810,810,810,810,810,810,810,810,810,810,810,810,810,810,810,810,810,810,810,810,810,810,810,810,810,810,810,810,810,810,810,810,810,810,810,810,810,810,810,810,810,810,810,810,810,810,810,810,810,810,810,810,810,810,810,810,810,810,810,810,810,810,810,810,810,810,810,810,810,810,810,810,810,810,810,813,821,828,839,847,853,867,874,884,894,917,929,939,950,962,972,991,1001,1009,1014,1020,1027,1030,1032,1037,1045,1054,1057,1060],"ymouse":[550,550,550,550,550,550,550,550,550,550,550,550,550,550,550,550,550,550,550,550,550,550,550,550,550,550,550,550,550,550,550,550,550,550,550,550,550,550,550,550,550,550,550,550,550,550,550,550,550,550,550,550,550,550,550,550,550,550,550,550,550,550,550,550,550,550,550,550,550,550,550,550,550,550,550,550,550,548,543,539,532,525,519,508,499,489,477,451,438,423,407,382,366,329,308,286,263,240,192,168,147,132,116,99,94,89],"timestamp_mouse":[11,43,51,70,91,111,132,150,171,190,211,231,250,272,290,310,332,350,372,392,411,430,450,470,492,511,531,551,570,590,610,631,651,671,690,711,731,752,770,791,812,832,850,871,891,910,931,952,970,991,1010,1031,1050,1071,1091,1111,1131,1152,1172,1190,1211,1231,1252,1271,1292,1310,1330,1351,1370,1392,1411,1430,1451,1470,1492,1510,1530,1551,1571,1591,1611,1630,1650,1670,1690,1711,1731,1752,1771,1790,1811,1831,1851,1871,1891,1910,1931,1950,1970,1991,2011,2030,2050,2070,2091,2112],"xSR":741.5,"ySR":469.95,"xT1":424.9,"yT1":0,"xT2":1058.1,"yT2":0,"toosoon":0,"cond_shown":"Incongruent","ratio_trial":200,"L_num":7,"L_den":15,"R_num":6,"R_den":9,"correct_side":2,"subjID":"AnaLuciaRinconRomero29","gender":"1","school":"4","age":"8"},{"start_time":1552068918134,"click_time":1552068919144,"finger_time":1552068919044,"fix_duration":848.0314302588597,"trial":33,"RT":910,"MT":100,"sideResp":1,"stimulus":[],"xmouse":[792,790,790,790,790,790,790,790,790,790,790,790,790,790,790,790,790,790,790,789,789,789,789,789,789,789,789,789,789,789,789,789,789,789,789,789,789,789,789,789,789,787,782,770,755,732,705,625,579,531,461],"ymouse":[534,533,532,532,532,532,532,532,532,532,532,532,532,532,532,532,532,532,532,532,532,532,532,532,532,532,532,532,532,532,532,532,532,532,532,532,532,532,532,532,532,532,526,505,480,443,395,261,191,123,17],"timestamp_mouse":[10,30,50,71,89,109,129,149,171,189,209,230,251,271,290,309,329,350,369,391,410,429,450,470,491,509,530,551,569,589,610,631,649,670,691,710,730,750,769,790,810,831,849,870,889,910,929,950,969,989,1010],"xSR":741.5,"ySR":469.95,"xT1":424.9,"yT1":0,"xT2":1058.1,"yT2":0,"toosoon":0,"cond_shown":"Congruent","ratio_trial":100,"L_num":2,"L_den":5,"R_num":11,"R_den":22,"correct_side":2,"subjID":"AnaLuciaRinconRomero29","gender":"1","school":"4","age":"8"},{"start_time":1552068922021,"click_time":1552068924165,"finger_time":1552068923505,"fix_duration":1156.8822568453415,"trial":34,"RT":1484,"MT":660,"sideResp":1,"stimulus":[],"xmouse":[788,788,788,788,788,788,788,788,788,788,788,788,788,788,788,788,788,788,788,788,788,788,788,788,788,790,791,792,793,793,793,793,793,793,793,793,793,793,793,793,793,793,793,793,793,793,793,793,793,793,793,793,793,793,793,793,793,793,793,793,793,793,793,793,793,793,793,793,793,793,793,793,789,775,766,760,754,745,732,726,718,709,701,694,676,668,657,642,631,611,602,594,587,574,567,559,550,539,529,528,528,528,528,526,526,525,525,524],"ymouse":[507,507,507,507,507,507,507,507,507,507,507,507,507,507,507,507,507,507,507,507,507,507,507,507,507,502,501,498,496,496,496,496,496,496,496,496,496,496,496,496,496,496,496,496,496,496,496,496,496,496,496,496,496,496,496,496,496,496,496,496,496,496,496,496,496,496,496,496,496,496,495,493,485,470,460,452,442,425,397,382,366,350,336,321,292,276,258,231,211,180,166,155,146,126,115,104,92,77,65,64,64,64,64,64,64,64,64,64],"timestamp_mouse":[16,22,43,63,83,102,122,143,163,182,204,223,243,265,283,304,325,344,364,384,403,423,443,463,483,503,523,544,565,583,603,625,643,664,685,703,724,744,764,784,804,824,844,863,883,904,924,943,964,984,1003,1023,1043,1064,1083,1103,1123,1143,1165,1185,1204,1224,1244,1263,1284,1303,1324,1344,1365,1384,1404,1424,1443,1464,1484,1503,1523,1543,1565,1583,1604,1623,1643,1665,1683,1703,1723,1743,1764,1783,1803,1824,1843,1865,1883,1904,1923,1944,1965,1983,2004,2023,2043,2065,2083,2104,2124,2144],"xSR":741.5,"ySR":469.95,"xT1":424.9,"yT1":0,"xT2":1058.1,"yT2":0,"toosoon":0,"cond_shown":"Incongruent","ratio_trial":300,"L_num":4,"L_den":5,"R_num":8,"R_den":16,"correct_side":1,"subjID":"AnaLuciaRinconRomero29","gender":"1","school":"4","age":"8"},{"start_time":1552068927588,"click_time":1552068931984,"finger_time":1552068928744,"fix_duration":1182.2481053356319,"trial":35,"RT":1156,"MT":3240,"sideResp":2,"stimulus":[],"xmouse":[796,796,796,796,796,796,796,796,796,796,796,796,796,796,796,796,796,796,796,796,796,796,796,796,796,796,796,796,796,796,796,796,796,796,796,796,796,796,796,796,797,798,798,798,798,798,798,798,798,798,798,798,798,798,798,797,794,793,791,791,790,789,789,788,785,780,774,767,758,749,724,711,694,678,659,641,602,593,585,578,570,568,566,564,563,560,558,557,556,555,554,554,554,554,554,554,554,554,554,554,554,554,554,554,554,554,553,553,553,553,553,552,552,552,552,549,547,545,543,543,543,543,543,543,543,543,543,543,543,543,542,540,537,535,533,533,533,533,533,533,533,533,533,533,533,533,533,533,533,533,533,533,535,541,549,562,566,571,580,594,636,656,676,694,709,736,747,761,782,801,838,857,874,889,897,930,947,969,991,1009,1024,1038,1039,1040,1042,1043,1047,1047,1048,1048,1048,1048,1048,1049,1050,1052,1054,1054,1056,1056,1056,1056,1056,1056,1056,1056,1056,1056,1056,1056,1056,1056,1056,1056,1056,1056,1056,1056,1057,1059],"ymouse":[510,510,510,510,510,510,510,510,510,510,510,510,510,510,510,510,510,510,510,510,510,510,510,510,510,510,510,510,510,510,510,510,510,509,509,509,509,509,507,504,500,497,496,495,495,495,494,493,491,490,487,486,485,484,480,476,470,467,463,461,451,445,437,429,420,403,393,382,370,358,330,314,298,282,267,253,217,205,193,182,167,162,156,151,146,135,130,125,121,118,117,117,116,116,116,116,116,116,116,116,116,116,116,116,116,114,113,113,113,113,113,112,112,112,112,111,111,110,109,109,108,108,108,108,108,108,108,108,108,108,108,108,108,107,106,106,106,106,106,106,106,106,106,106,106,106,106,106,106,106,106,106,106,105,103,102,101,100,100,100,106,108,111,113,114,114,114,114,116,120,120,120,120,120,120,114,110,104,96,90,82,74,73,72,71,71,68,67,67,66,66,66,66,66,65,64,64,64,64,63,63,63,63,63,63,63,63,63,63,63,63,63,63,63,63,63,63,63,63,63],"timestamp_mouse":[17,43,57,76,96,118,138,157,177,198,217,237,257,278,297,317,337,357,376,396,417,438,456,477,496,516,538,557,576,596,616,636,658,676,698,716,736,757,777,796,816,837,857,877,897,916,937,956,978,996,1017,1036,1056,1076,1096,1116,1137,1156,1176,1196,1217,1236,1256,1276,1298,1317,1336,1356,1377,1396,1417,1436,1457,1476,1496,1516,1537,1556,1576,1597,1617,1636,1656,1676,1698,1717,1736,1756,1776,1796,1817,1838,1856,1876,1897,1917,1936,1958,1977,1996,2016,2036,2057,2076,2096,2117,2136,2157,2176,2196,2217,2236,2257,2277,2297,2317,2336,2356,2377,2397,2418,2438,2457,2477,2496,2516,2536,2556,2584,2596,2617,2637,2656,2677,2696,2717,2737,2756,2776,2797,2816,2836,2856,2878,2897,2917,2936,2956,2976,2996,3017,3036,3056,3076,3097,3116,3136,3156,3176,3196,3217,3236,3256,3276,3296,3318,3336,3356,3376,3396,3418,3436,3456,3476,3497,3517,3538,3557,3577,3596,3616,3636,3656,3677,3696,3716,3736,3756,3778,3796,3816,3837,3857,3876,3896,3917,3936,3956,3976,3998,4017,4036,4056,4077,4096,4117,4137,4156,4178,4197,4216,4236,4257,4276,4296,4317,4336,4356,4376,4396],"xSR":741.5,"ySR":469.95,"xT1":424.9,"yT1":0,"xT2":1058.1,"yT2":0,"toosoon":0,"cond_shown":"Congruent","ratio_trial":200,"L_num":3,"L_den":12,"R_num":9,"R_den":20,"correct_side":2,"subjID":"AnaLuciaRinconRomero29","gender":"1","school":"4","age":"8"},{"start_time":1552068933658,"click_time":1552068937144,"finger_time":1552068935104,"fix_duration":250,"trial":36,"RT":1446,"MT":2040,"sideResp":2,"stimulus":[],"xmouse":[801,801,801,801,801,801,801,801,801,801,799,798,798,797,797,797,797,797,797,797,797,797,797,797,797,797,797,797,797,797,797,797,797,797,797,797,797,797,797,797,797,797,797,797,797,797,798,799,802,805,808,808,809,809,809,809,809,809,809,809,809,809,809,809,809,809,809,810,812,812,813,814,815,817,819,820,823,826,831,833,834,834,834,834,834,834,834,834,833,833,833,832,831,825,818,811,804,795,778,763,753,743,731,706,694,685,680,676,673,671,670,668,668,664,662,660,659,655,645,636,629,624,620,615,608,606,605,604,602,598,595,591,589,584,584,584,584,584,581,578,576,574,573,572,571,571,571,571,571,571,571,571,571,571,573,577,580,584,609,623,640,660,684,745,779,814,845,878,936,954,972,990,1010,1048,1062],"ymouse":[540,542,542,543,543,543,543,543,545,545,547,548,550,550,550,550,550,550,550,550,550,550,550,550,550,550,550,550,550,550,547,546,544,542,542,542,542,542,542,542,542,542,542,542,542,542,540,538,528,519,513,509,508,508,507,507,507,507,506,506,506,506,506,506,506,506,505,503,494,486,480,474,466,455,449,441,434,423,397,381,359,346,333,321,319,316,315,314,314,314,313,311,306,287,273,258,240,221,183,157,141,128,113,96,91,87,87,85,83,83,82,81,81,80,80,80,79,78,75,71,69,67,66,64,63,62,62,62,62,61,61,62,62,62,62,62,62,62,62,63,64,64,64,65,65,65,65,65,65,65,65,65,65,65,65,65,65,65,68,72,77,82,89,104,110,116,120,125,130,130,129,124,118,104,96],"timestamp_mouse":[13,35,47,68,88,106,127,146,166,187,206,226,247,267,286,307,326,347,366,386,406,428,446,467,487,506,526,547,566,586,606,627,646,666,686,706,727,746,767,787,806,827,846,866,887,906,926,946,967,986,1006,1026,1046,1066,1087,1106,1127,1147,1168,1186,1207,1228,1248,1267,1286,1306,1326,1347,1367,1387,1406,1427,1446,1467,1487,1508,1526,1546,1566,1587,1606,1627,1646,1667,1687,1706,1727,1746,1767,1787,1806,1826,1846,1866,1886,1906,1926,1946,1967,1986,2006,2026,2046,2066,2086,2107,2126,2146,2167,2187,2206,2226,2247,2266,2286,2306,2326,2347,2366,2388,2406,2427,2446,2466,2486,2506,2526,2547,2566,2586,2606,2628,2648,2666,2687,2707,2726,2746,2766,2787,2806,2826,2847,2866,2886,2907,2926,2948,2967,2987,3007,3027,3046,3067,3086,3107,3126,3147,3167,3187,3206,3227,3246,3266,3287,3307,3326,3347,3367,3387,3407,3427,3446,3467,3486],"xSR":741.5,"ySR":469.95,"xT1":424.9,"yT1":0,"xT2":1058.1,"yT2":0,"toosoon":0,"cond_shown":"Incongruent","ratio_trial":200,"L_num":7,"L_den":15,"R_num":6,"R_den":9,"correct_side":2,"subjID":"AnaLuciaRinconRomero29","gender":"1","school":"4","age":"8"},{"start_time":1552068941012,"click_time":1552068943444,"finger_time":1552068942264,"fix_duration":885.7157192574757,"trial":37,"RT":1252,"MT":1180,"sideResp":1,"stimulus":[],"xmouse":[766,766,766,766,766,766,766,766,766,766,766,766,766,766,766,766,766,766,766,766,766,766,766,766,766,766,766,766,766,766,766,766,766,766,766,766,766,766,766,766,766,766,766,766,766,766,766,766,766,766,766,766,766,766,766,766,766,764,760,756,754,752,752,751,750,748,745,743,734,726,718,692,668,642,610,580,532,517,504,501,499,498,498,498,498,498,498,498,498,498,498,498,498,498,498,498,498,498,498,498,498,497,497,497,497,497,497,497,497,497,497,497,497,497,497,497,497,497,497,497,497,497],"ymouse":[544,544,544,544,544,544,544,544,544,544,544,544,544,544,544,544,544,544,544,544,544,544,544,544,544,544,544,544,544,544,544,544,544,544,544,544,544,544,544,544,544,544,544,544,544,544,544,544,544,544,544,544,544,544,544,542,531,521,504,492,484,472,469,466,463,452,445,435,414,399,379,337,308,276,243,216,175,162,148,142,138,135,134,134,134,134,134,134,134,134,134,134,134,134,134,134,134,134,134,133,130,125,123,121,120,118,118,118,118,118,118,118,117,115,114,112,108,105,103,102,101,96],"timestamp_mouse":[12,35,53,72,94,112,132,153,173,192,213,233,252,272,292,312,333,353,373,393,413,433,454,474,492,512,533,553,574,592,613,632,652,673,692,713,732,754,772,792,812,833,853,872,892,913,932,952,973,992,1013,1034,1054,1072,1092,1112,1133,1152,1172,1193,1212,1233,1252,1273,1292,1315,1333,1353,1372,1392,1412,1432,1452,1472,1492,1513,1532,1553,1572,1594,1614,1632,1652,1672,1693,1715,1732,1753,1773,1794,1813,1833,1852,1873,1893,1913,1932,1953,1973,1993,2014,2032,2052,2072,2092,2112,2132,2152,2172,2192,2212,2233,2252,2273,2294,2313,2332,2352,2373,2392,2412,2432],"xSR":741.5,"ySR":469.95,"xT1":424.9,"yT1":0,"xT2":1058.1,"yT2":0,"toosoon":0,"cond_shown":"Incongruent","ratio_trial":100,"L_num":3,"L_den":5,"R_num":8,"R_den":16,"correct_side":1,"subjID":"AnaLuciaRinconRomero29","gender":"1","school":"4","age":"8"},{"start_time":1552068947030,"click_time":1552068951765,"finger_time":1552068948264,"fix_duration":644.7724533325951,"trial":38,"RT":1234,"MT":3501,"sideResp":2,"stimulus":[],"xmouse":[788,788,788,788,788,788,788,788,788,788,788,788,788,788,788,788,788,788,788,788,788,788,788,788,788,788,788,788,788,788,788,788,788,788,788,788,788,788,788,788,788,788,788,788,788,788,788,788,788,788,788,788,790,794,798,801,807,811,815,820,831,836,839,841,842,843,845,846,849,853,863,869,874,878,882,887,894,897,902,906,912,914,917,920,921,927,929,932,935,939,943,951,954,957,960,963,966,967,968,969,970,970,970,970,972,972,974,975,976,978,981,982,984,985,986,987,988,988,988,989,990,992,993,994,996,996,999,1001,1002,1004,1007,1007,1008,1008,1008,1008,1009,1010,1010,1011,1014,1015,1018,1021,1024,1025,1025,1025,1026,1027,1028,1033,1035,1039,1043,1048,1054,1056,1057,1057,1057,1057,1057,1057,1057,1057,1057,1057,1057,1057,1057,1057,1057,1057,1057,1057,1057,1057,1057,1057,1057,1057,1057,1057,1057,1057,1057,1057,1057,1057,1057,1057,1057,1057,1057,1057,1057,1057,1057,1057,1059,1062,1063,1063,1063,1064,1064,1064,1064,1064,1064,1064,1064,1064,1064,1064,1064,1064,1064,1064,1064,1064,1064,1064,1064,1064,1064,1064,1065,1065,1065,1066,1067,1069,1070,1073,1077],"ymouse":[540,540,540,540,540,540,540,540,540,540,540,540,540,540,540,540,540,540,540,540,540,540,540,540,540,540,540,540,540,540,540,540,540,540,540,540,540,540,540,540,540,540,540,540,540,540,540,540,540,540,540,540,538,534,527,523,512,506,497,489,471,461,457,453,451,448,444,441,434,425,399,384,371,357,344,326,302,291,281,272,259,253,249,244,242,234,232,228,225,220,216,206,202,198,194,189,186,185,183,181,180,179,177,177,175,174,171,169,167,164,160,158,156,155,154,153,151,151,151,151,150,150,148,147,146,145,143,142,140,138,136,136,136,136,136,136,136,135,135,135,135,135,134,134,133,133,133,133,133,132,131,129,128,126,124,121,116,115,114,114,114,114,114,114,114,114,114,114,114,114,114,114,114,114,114,114,114,114,114,114,114,114,114,114,114,114,114,114,114,114,114,114,114,114,114,114,114,114,114,114,112,111,111,111,111,110,110,110,110,110,110,110,110,110,110,110,110,110,110,110,110,110,110,110,110,110,110,110,110,110,110,110,109,107,105,102,95],"timestamp_mouse":[14,45,56,75,95,114,135,154,175,194,214,235,255,274,295,314,335,354,374,395,415,434,454,475,494,515,534,555,575,594,614,635,654,674,696,714,735,755,774,795,814,834,856,874,895,914,934,954,975,994,1015,1034,1054,1075,1095,1114,1134,1154,1175,1195,1215,1234,1254,1274,1295,1314,1334,1355,1375,1394,1415,1434,1454,1474,1494,1515,1535,1555,1575,1595,1616,1634,1654,1674,1695,1716,1734,1755,1775,1794,1814,1834,1855,1875,1894,1914,1934,1954,1975,1994,2016,2034,2055,2075,2096,2114,2134,2155,2174,2194,2216,2234,2254,2274,2294,2314,2335,2355,2375,2394,2414,2434,2454,2474,2494,2516,2534,2554,2574,2594,2616,2634,2654,2676,2694,2714,2734,2755,2775,2794,2816,2834,2855,2875,2894,2914,2934,2954,2975,2995,3015,3034,3054,3075,3095,3114,3134,3154,3175,3195,3214,3235,3255,3275,3296,3315,3334,3355,3375,3394,3416,3434,3455,3475,3495,3515,3534,3555,3575,3595,3614,3635,3655,3675,3695,3715,3734,3754,3775,3796,3815,3834,3854,3875,3895,3915,3934,3955,3975,3995,4015,4034,4054,4075,4095,4115,4135,4154,4175,4194,4215,4235,4254,4274,4294,4316,4334,4354,4374,4395,4415,4435,4455,4475,4495,4516,4540,4555,4574,4594,4614,4634,4654,4674,4694,4715,4735],"xSR":741.5,"ySR":469.95,"xT1":424.9,"yT1":0,"xT2":1058.1,"yT2":0,"toosoon":0,"cond_shown":"Congruent","ratio_trial":300,"L_num":5,"L_den":25,"R_num":6,"R_den":12,"correct_side":2,"subjID":"AnaLuciaRinconRomero29","gender":"1","school":"4","age":"8"},{"start_time":1552068957000,"click_time":1552068963406,"finger_time":1552068958864,"fix_duration":1394.1940214632343,"trial":39,"RT":1864,"MT":4542,"sideResp":1,"stimulus":[],"xmouse":[799,799,799,799,799,799,799,799,799,799,799,799,799,799,799,799,799,799,799,799,799,799,799,799,799,799,799,799,799,799,799,799,799,799,799,799,799,799,799,799,799,799,799,799,799,799,799,799,799,799,799,799,799,799,799,799,799,799,799,799,799,799,799,799,799,799,799,799,799,799,799,799,799,799,799,799,799,799,799,799,799,799,799,799,799,799,799,799,796,793,788,782,773,767,753,744,733,720,688,669,652,639,625,618,613,611,610,610,609,608,606,605,601,597,586,580,577,575,574,572,571,571,570,566,563,560,557,554,553,553,553,553,553,553,553,553,553,553,553,553,553,553,553,553,553,553,553,553,553,553,553,553,553,553,553,553,553,553,553,553,553,553,553,553,553,553,553,555,555,555,555,555,555,555,555,555,555,555,555,555,555,555,555,555,555,555,555,555,555,555,555,556,559,563,575,580,584,589,591,595,600,605,612,620,638,646,651,655,659,662,663,669,675,682,700,710,719,729,741,764,780,791,801,809,815,816,816,816,816,820,822,826,829,832,839,844,847,852,858,878,894,900,905,908,912,913,915,917,920,924,926,926,927,927,927,929,929,930,934,957,966,973,976,976,976,976,976,976,976,976,976,976,977,977,979,980,982,983,986,991,993,993,994,995,996,998,999,999,999,999,999,999,999,999,999,999,998,988,973,903,862,823,791,762,709,709,709,709,709,709,603,596,588,581,574,559,552,545,538,527,524],"ymouse":[505,505,505,505,505,505,505,505,505,505,505,505,505,505,505,505,505,505,505,505,505,505,505,505,505,505,505,505,505,505,505,505,505,505,505,505,505,505,505,505,505,505,505,505,505,505,505,505,505,505,505,505,505,505,505,505,505,505,505,505,505,505,505,505,505,505,505,505,505,505,505,505,505,505,505,505,505,505,505,505,505,505,505,505,505,505,505,505,500,494,487,480,470,464,448,435,421,404,359,336,310,289,260,239,198,186,177,172,169,162,157,156,149,145,137,134,131,130,130,129,127,127,124,119,114,111,108,106,105,104,104,104,104,104,104,104,104,104,104,104,104,104,104,104,104,104,104,104,104,104,104,104,104,104,104,104,104,104,104,104,104,104,104,104,104,103,103,102,102,102,102,102,102,102,102,102,102,102,102,102,102,102,102,102,102,102,102,102,102,102,102,102,101,100,98,98,97,97,96,96,96,96,96,96,96,96,96,96,96,96,96,94,93,93,90,89,86,84,81,76,73,70,68,65,64,64,64,64,64,63,62,62,62,61,61,60,60,59,58,53,49,47,46,44,42,42,42,42,42,41,41,41,41,41,41,41,41,41,41,46,51,54,56,56,56,56,56,56,56,56,56,56,56,56,57,57,58,59,60,62,64,65,67,68,71,73,73,73,73,73,73,73,73,73,73,73,74,75,75,72,61,49,36,24,1,1,1,1,1,1,5,10,14,20,25,35,40,46,52,56,56],"timestamp_mouse":[9,37,44,65,85,105,124,145,164,185,206,225,245,266,285,304,324,344,365,384,405,424,444,465,484,505,526,544,564,586,606,624,644,664,685,706,725,744,765,785,804,824,844,865,886,905,925,944,965,984,1005,1024,1045,1065,1085,1104,1125,1144,1165,1184,1204,1226,1245,1265,1285,1305,1325,1345,1364,1384,1404,1425,1444,1465,1485,1504,1524,1545,1564,1584,1605,1626,1645,1664,1684,1705,1724,1744,1765,1784,1804,1824,1845,1864,1884,1905,1924,1944,1966,1984,2005,2025,2044,2064,2084,2104,2124,2144,2165,2184,2204,2224,2245,2265,2285,2304,2324,2345,2365,2385,2405,2424,2444,2466,2484,2504,2525,2544,2565,2585,2604,2626,2645,2665,2684,2704,2724,2746,2764,2785,2804,2826,2845,2866,2885,2904,2925,2945,2965,2984,3005,3024,3045,3065,3084,3104,3124,3145,3165,3184,3205,3224,3244,3264,3284,3305,3325,3345,3365,3384,3404,3424,3444,3464,3484,3504,3525,3545,3565,3585,3604,3624,3644,3666,3684,3705,3724,3744,3765,3785,3806,3824,3844,3864,3884,3905,3924,3944,3964,3984,4005,4025,4045,4064,4084,4104,4125,4145,4165,4184,4206,4224,4244,4264,4284,4304,4324,4345,4365,4385,4404,4425,4445,4464,4484,4505,4525,4545,4565,4584,4605,4624,4645,4664,4685,4705,4725,4744,4764,4784,4805,4824,4844,4864,4884,4905,4924,4944,4964,4984,5005,5025,5045,5065,5084,5104,5125,5144,5165,5185,5204,5224,5245,5265,5284,5305,5325,5345,5366,5385,5405,5425,5444,5464,5485,5504,5525,5545,5566,5585,5604,5624,5645,5664,5684,5704,5724,5745,5764,5785,5805,5824,5844,5866,5885,5905,5925,5944,5965,5985,6004,6025,6045,6065,6084,6104,6124,6144,6165,6184,6205,6224,6244,6264,6284,6305,6324,6344,6364,6384,6406],"xSR":741.5,"ySR":469.95,"xT1":424.9,"yT1":0,"xT2":1058.1,"yT2":0,"toosoon":0,"cond_shown":"Incongruent","ratio_trial":200,"L_num":4,"L_den":5,"R_num":6,"R_den":10,"correct_side":1,"subjID":"AnaLuciaRinconRomero29","gender":"1","school":"4","age":"8"},{"start_time":1552068967687,"click_time":1552068972085,"finger_time":1552068969104,"fix_duration":1319.5625041674607,"trial":40,"RT":1417,"MT":2981,"sideResp":1,"stimulus":[],"xmouse":[767,767,767,767,767,767,767,767,767,767,767,767,767,767,767,767,767,767,767,767,767,767,767,767,767,767,767,767,767,767,767,767,767,767,767,767,767,767,767,767,767,767,767,767,767,767,767,767,767,767,767,767,767,767,767,767,767,767,766,766,766,766,766,766,766,766,765,765,763,760,751,748,739,731,723,703,692,677,661,645,611,584,567,554,545,537,536,536,536,536,536,536,536,536,537,537,537,537,537,537,539,539,540,540,541,541,541,541,542,543,546,549,550,551,551,552,552,552,552,552,553,555,556,557,557,557,557,557,557,559,559,559,560,561,565,572,577,584,594,603,611,613,614,617,624,646,658,666,678,691,724,755,775,796,817,848,854,858,860,860,860,861,863,864,866,874,879,883,887,888,888,889,890,892,896,904,908,910,911,912,912,912,912,912,912,912,912,912,913,913,913,913,913,913,908,887,877,869,865,863,860,856,849,840,828,787,760,732,700,671,601,582,567,557,550,540,535,530,525,523],"ymouse":[496,496,496,496,496,498,499,499,500,501,501,501,501,501,501,501,501,501,501,501,501,501,501,501,501,501,501,501,501,501,501,501,501,501,501,501,501,501,501,501,501,501,501,501,501,501,501,501,501,501,501,501,501,501,501,501,501,501,503,504,504,504,504,504,504,504,498,495,488,478,452,445,421,406,390,363,352,341,331,319,295,276,261,249,238,224,220,217,213,209,197,192,186,182,180,179,179,179,177,177,171,167,163,161,159,158,158,157,156,155,153,150,150,149,149,149,148,148,148,148,147,145,143,142,140,140,140,140,140,139,139,139,139,138,138,138,138,138,139,140,143,143,143,143,143,139,138,137,136,133,129,126,122,120,116,112,112,110,110,110,110,110,109,109,108,107,106,106,105,105,105,105,105,105,103,101,100,100,100,100,100,100,100,100,100,100,100,100,100,100,99,99,99,99,100,101,101,101,101,101,101,100,100,100,100,100,100,100,100,98,88,85,84,84,84,87,89,91,94,94],"timestamp_mouse":[18,37,59,77,98,117,137,158,177,199,218,238,257,279,298,318,338,358,379,399,418,438,457,477,497,517,537,557,577,599,617,637,658,679,697,717,737,758,777,799,818,837,858,878,899,918,937,957,978,998,1018,1037,1058,1079,1098,1118,1138,1157,1177,1197,1219,1239,1258,1278,1298,1317,1337,1358,1377,1397,1417,1437,1458,1478,1497,1517,1538,1557,1577,1598,1617,1638,1657,1678,1697,1717,1738,1757,1778,1798,1817,1838,1857,1877,1897,1918,1937,1958,1977,1998,2017,2038,2057,2077,2099,2119,2138,2157,2178,2198,2217,2238,2257,2277,2299,2317,2338,2358,2378,2398,2417,2437,2457,2478,2499,2517,2538,2558,2577,2598,2618,2637,2657,2678,2697,2717,2739,2758,2777,2798,2817,2838,2857,2879,2899,2918,2938,2958,2977,2998,3017,3037,3057,3078,3099,3118,3138,3157,3177,3198,3217,3237,3258,3278,3297,3317,3337,3357,3377,3397,3417,3437,3457,3478,3497,3517,3537,3558,3578,3597,3618,3638,3658,3678,3698,3717,3738,3757,3777,3799,3818,3837,3858,3878,3897,3918,3938,3957,3978,3997,4017,4038,4057,4077,4097,4118,4138,4157,4177,4198,4218,4238,4257,4277,4298,4318,4338,4357,4377,4397],"xSR":741.5,"ySR":469.95,"xT1":424.9,"yT1":0,"xT2":1058.1,"yT2":0,"toosoon":0,"cond_shown":"Incongruent","ratio_trial":100,"L_num":1,"L_den":2,"R_num":8,"R_den":20,"correct_side":1,"subjID":"AnaLuciaRinconRomero29","gender":"1","school":"4","age":"8"},{"start_time":1552068975636,"click_time":1552068977645,"finger_time":1552068977225,"fix_duration":250,"trial":41,"RT":1589,"MT":420,"sideResp":2,"stimulus":[],"xmouse":[779,779,779,779,779,779,779,779,779,779,779,779,779,779,779,779,779,779,779,779,779,779,779,780,782,783,783,783,783,783,783,783,783,783,783,783,783,783,783,783,783,783,783,783,783,783,783,783,783,783,783,783,783,783,783,783,783,783,783,783,783,783,783,783,783,783,783,783,783,783,783,783,783,783,787,791,799,806,816,841,855,876,888,900,918,925,932,937,946,957,963,971,974,980,993,1003,1011,1020,1028,1046,1062],"ymouse":[544,544,544,544,544,544,544,544,544,544,544,544,544,544,544,544,544,544,544,544,544,544,544,543,538,537,537,537,537,537,537,537,537,537,537,537,537,537,537,537,537,537,537,537,537,537,537,537,537,537,537,537,537,537,537,537,537,537,537,537,537,537,537,537,537,537,537,537,537,537,537,537,537,536,531,527,518,507,494,457,433,390,360,334,291,272,256,243,230,210,198,180,170,158,137,124,113,100,89,64,47],"timestamp_mouse":[15,29,49,69,88,109,129,149,168,189,209,228,248,269,288,310,328,348,369,388,408,429,449,469,489,509,529,548,569,590,608,629,649,668,688,708,728,748,769,789,810,828,848,868,890,908,929,949,968,989,1009,1028,1048,1068,1090,1110,1130,1149,1169,1190,1209,1229,1250,1269,1288,1309,1330,1349,1369,1388,1408,1430,1448,1468,1488,1508,1529,1548,1569,1589,1609,1628,1649,1670,1688,1709,1728,1748,1768,1788,1809,1829,1848,1868,1888,1908,1929,1948,1969,1988,2009],"xSR":741.5,"ySR":469.95,"xT1":424.9,"yT1":0,"xT2":1058.1,"yT2":0,"toosoon":0,"cond_shown":"Congruent","ratio_trial":200,"L_num":4,"L_den":10,"R_num":3,"R_den":15,"correct_side":1,"subjID":"AnaLuciaRinconRomero29","gender":"1","school":"4","age":"8"},{"start_time":1552068984256,"click_time":1552068988645,"finger_time":1552068985904,"fix_duration":829.2227479989049,"trial":42,"RT":1648,"MT":2741,"sideResp":1,"stimulus":[],"xmouse":[792,792,792,792,792,792,792,792,792,792,792,792,792,792,792,792,792,792,792,792,792,792,792,792,792,792,792,792,792,792,792,792,792,792,792,792,792,792,792,792,792,792,792,792,792,792,792,792,792,792,792,792,792,792,792,792,792,792,792,792,792,792,792,792,792,792,793,794,794,794,795,796,796,796,797,798,799,800,801,804,808,813,822,830,849,862,868,880,891,893,894,894,894,894,894,894,894,894,894,893,892,892,892,892,891,887,878,866,833,815,794,773,753,733,704,698,693,691,691,691,691,691,691,691,691,689,684,678,669,659,656,656,656,658,665,668,669,670,673,683,691,702,715,726,744,747,748,748,749,755,759,764,768,773,778,779,781,783,787,796,800,803,804,809,819,832,845,860,876,909,926,941,951,958,963,963,963,963,964,966,967,967,969,969,969,969,969,969,969,967,958,946,933,921,900,894,888,881,870,844,827,812,798,787,772,761,754,748,741,725,715,706,693,682,654,625,601,573,544,489],"ymouse":[538,538,538,538,538,538,538,538,538,538,538,538,538,537,536,536,536,536,536,536,535,534,534,534,534,534,534,534,534,534,534,534,534,534,534,534,534,534,534,534,534,534,534,534,534,534,534,534,534,534,534,534,534,534,534,534,534,534,534,534,533,533,533,533,533,532,530,529,526,524,521,519,515,512,506,502,500,498,496,492,486,477,461,443,399,366,355,328,303,298,295,295,295,295,295,295,295,294,287,282,281,281,281,281,279,274,268,261,241,230,218,206,195,184,170,167,166,165,165,165,165,165,165,165,165,165,163,160,153,140,134,129,123,115,104,101,99,99,98,97,96,94,92,90,88,88,88,88,87,87,87,87,87,89,90,90,90,90,90,90,89,88,88,88,88,88,89,89,88,79,77,75,72,70,68,68,68,68,68,66,65,65,64,64,64,64,64,64,64,63,59,55,51,48,41,40,39,38,36,33,28,26,24,23,23,23,23,23,23,23,23,23,23,26,33,36,40,43,44,44],"timestamp_mouse":[14,38,49,68,89,109,131,148,169,189,209,228,248,269,288,309,328,348,368,389,409,429,450,468,489,508,528,548,568,589,609,628,648,669,689,708,729,748,769,789,808,829,849,868,890,909,928,949,969,990,1010,1028,1049,1069,1089,1109,1129,1148,1168,1190,1208,1229,1249,1268,1288,1309,1328,1349,1369,1388,1408,1428,1448,1468,1488,1509,1529,1549,1568,1588,1608,1628,1648,1668,1688,1708,1728,1749,1770,1788,1809,1828,1849,1868,1888,1909,1928,1949,1968,1988,2009,2028,2049,2069,2088,2108,2128,2150,2170,2188,2208,2229,2249,2269,2288,2308,2328,2349,2369,2388,2409,2428,2448,2469,2488,2508,2529,2548,2569,2588,2608,2629,2648,2669,2688,2708,2728,2749,2769,2788,2810,2829,2848,2869,2888,2908,2929,2950,2969,2989,3009,3029,3048,3069,3088,3109,3128,3148,3169,3188,3209,3229,3249,3269,3288,3309,3328,3348,3368,3388,3408,3429,3448,3470,3488,3509,3529,3549,3568,3589,3609,3629,3649,3668,3688,3709,3728,3749,3768,3788,3808,3829,3848,3868,3888,3909,3928,3949,3969,3988,4009,4028,4048,4069,4088,4108,4128,4149,4168,4188,4209,4229,4249,4268,4288,4308,4328,4348,4368,4388],"xSR":741.5,"ySR":469.95,"xT1":424.9,"yT1":0,"xT2":1058.1,"yT2":0,"toosoon":0,"cond_shown":"Congruent","ratio_trial":200,"L_num":20,"L_den":25,"R_num":9,"R_den":15,"correct_side":1,"subjID":"AnaLuciaRinconRomero29","gender":"1","school":"4","age":"8"},{"start_time":1552068997912,"click_time":1552069002984,"finger_time":1552068999344,"fix_duration":986.0727408345964,"trial":43,"RT":1432,"MT":3640,"sideResp":2,"stimulus":[],"xmouse":[771,771,771,771,771,771,771,771,771,771,771,771,771,771,771,771,771,771,771,771,771,771,771,771,771,771,771,771,771,771,771,771,771,771,771,771,771,771,771,771,771,771,771,771,771,771,771,771,771,771,771,771,771,771,771,771,771,771,771,774,775,778,783,786,789,791,794,801,806,815,822,832,853,862,872,881,890,909,916,921,925,929,933,934,935,936,937,938,939,940,941,941,945,948,951,955,958,963,966,968,971,973,980,982,983,984,986,988,990,992,993,994,998,1002,1005,1008,1010,1013,1015,1016,1016,1016,1016,1016,1016,1016,1016,1016,1007,993,978,959,920,898,880,857,850,811,795,781,768,754,743,723,716,711,707,705,701,697,694,690,686,678,668,664,650,632,623,616,610,606,601,598,594,591,590,590,590,589,588,587,586,580,577,572,565,564,564,564,564,564,564,564,563,563,561,558,554,548,540,533,527,527,527,527,527,527,527,527,527,527,527,527,527,529,529,532,538,541,546,552,559,575,586,595,613,635,646,658,670,678,685,703,714,725,743,768,778,785,790,794,796,800,802,813,825,850,863,869,872,873,873,873,874,879,885,904,918,935,958,981,1008,1063],"ymouse":[539,539,539,539,539,539,539,539,539,539,539,539,539,539,539,539,539,539,539,539,539,539,539,539,539,539,539,539,539,539,539,539,539,539,539,539,539,539,539,539,539,539,539,539,539,539,539,539,539,539,539,539,539,539,539,539,539,539,539,538,536,533,524,519,515,511,507,497,490,479,470,456,428,416,400,383,365,316,297,279,263,249,232,226,222,219,214,213,208,207,205,203,197,194,191,187,184,179,176,174,171,167,161,160,158,157,156,155,152,150,148,146,141,137,134,131,128,125,125,123,122,121,121,121,121,121,121,121,121,121,124,126,132,134,134,133,132,119,115,111,107,102,99,91,88,87,86,86,86,86,86,86,86,84,82,81,79,78,78,77,76,75,74,74,72,72,71,71,71,71,70,69,69,68,67,67,65,65,65,65,65,65,65,65,64,64,63,63,62,60,58,54,53,52,52,52,52,52,52,52,52,52,52,52,52,52,52,51,50,50,49,49,49,48,47,46,44,42,42,42,42,42,42,45,46,48,50,53,55,56,56,56,56,56,56,56,56,58,60,60,61,61,61,61,61,61,59,54,51,47,42,36,30,17],"timestamp_mouse":[15,40,52,73,94,112,132,153,173,193,212,232,252,273,294,313,333,352,373,392,412,432,453,473,493,513,533,553,574,593,613,632,653,673,694,713,732,753,773,792,812,833,852,873,892,913,933,952,974,992,1013,1032,1052,1073,1094,1112,1132,1153,1172,1192,1213,1232,1252,1272,1292,1312,1333,1352,1373,1392,1413,1432,1452,1472,1492,1512,1533,1553,1572,1592,1612,1632,1653,1672,1692,1712,1732,1752,1772,1793,1812,1833,1853,1872,1892,1912,1933,1952,1973,1992,2012,2032,2053,2072,2092,2112,2133,2153,2174,2192,2212,2232,2253,2272,2292,2312,2332,2353,2372,2393,2412,2432,2452,2472,2492,2513,2533,2552,2572,2592,2612,2632,2654,2672,2692,2712,2732,2753,2772,2793,2813,2832,2853,2872,2892,2913,2932,2952,2973,2992,3013,3033,3053,3073,3093,3112,3133,3154,3172,3192,3212,3232,3254,3272,3292,3313,3332,3352,3373,3393,3413,3433,3453,3472,3493,3512,3533,3552,3573,3592,3613,3633,3653,3673,3693,3713,3733,3754,3772,3792,3812,3834,3852,3872,3893,3913,3932,3953,3972,3992,4013,4032,4052,4072,4093,4112,4132,4152,4172,4192,4212,4233,4252,4272,4292,4312,4333,4354,4372,4393,4412,4433,4452,4472,4492,4512,4533,4554,4572,4593,4612,4632,4654,4672,4693,4713,4733,4755,4772,4792,4813,4832,4853,4873,4892,4913,4934,4954,4973,4992,5013,5033,5052,5072],"xSR":741.5,"ySR":469.95,"xT1":424.9,"yT1":0,"xT2":1058.1,"yT2":0,"toosoon":0,"cond_shown":"Incongruent","ratio_trial":300,"L_num":13,"L_den":26,"R_num":12,"R_den":15,"correct_side":2,"subjID":"AnaLuciaRinconRomero29","gender":"1","school":"4","age":"8"},{"start_time":1552069010614,"click_time":1552069022344,"finger_time":1552069010764,"fix_duration":1027.3381465153682,"trial":44,"RT":150,"MT":11580,"sideResp":2,"stimulus":[],"xmouse":[772,772,772,772,772,772,774,776,780,782,784,788,794,800,812,817,821,821,821,821,821,821,821,821,821,821,821,821,821,821,821,821,821,821,821,821,821,821,821,821,821,821,821,821,821,821,821,821,821,821,821,821,821,821,821,821,8