[{"start_time":1552327855497,"click_time":1552327857066,"finger_time":1552327855507,"fix_duration":588.4314019694435,"trial":0,"RT":10,"MT":1559,"sideResp":2,"stimulus":[],"xmouse":[378,378,378,378,378,378,378,378,378,378,378,378,378,378,378,378,378,378,378,378,378,378,378,378,378,409,486,578,683,832,834,834,834,834,831,828,826,825,824,823,822,822,819,816,816,816,816,816,814,811,811,811,811,811,812,812,812,812,812,813,815,816,816,816,816,819,832,859,965,1030,1041,1046,1047,1052,1052,1054,1056,1058,1061],"ymouse":[507,507,507,507,507,507,507,507,507,507,507,507,507,507,507,507,507,507,507,507,507,507,507,507,507,513,538,565,595,619,619,619,618,615,613,609,607,606,599,588,580,569,553,540,540,540,540,539,529,523,522,521,519,519,519,518,518,518,518,518,516,515,515,515,514,512,494,441,265,172,145,125,112,97,89,76,67,63,59],"timestamp_mouse":[10,29,49,69,88,108,129,149,169,189,208,228,248,269,288,308,329,347,369,388,408,429,448,469,488,509,528,548,568,588,608,629,648,668,688,709,729,748,768,788,808,828,849,869,888,908,928,949,968,989,1009,1028,1048,1068,1088,1109,1128,1148,1169,1188,1208,1228,1249,1268,1288,1309,1329,1349,1368,1388,1408,1427,1448,1469,1487,1508,1528,1548,1568],"xSR":335.5,"ySR":451.75,"xT1":181.29999999999998,"yT1":0,"xT2":489.69999999999993,"yT2":0,"toosoon":0,"cond_shown":"Incongruent","ratio_trial":300,"L_num":8,"L_den":10,"R_num":14,"R_den":28,"correct_side":1,"subjID":"martinjuanjimenez12","gender":"0","age":"9","school":"4","test":{"fix_dur":[250,1500],"timestim":1000,"targets_dim":[100,100],"targets_relative_coord":[0.3,0.7],"size_stim":[880,420],"start_dim":[100,100],"size_start":[300,300],"size_fix":60,"samplingrate":20,"img_types":["Congruent","Incongruent"],"ratios":[100,200,300],"rep_conds":19,"nTrials":120,"trials_to_rest":500,"Trials_order":[41,74,62,26,116,37,34,66,29,49,84,36,53,82,3,65,2,42,18,0,61,104,38,40,56,35,106,81,30,69,71,83,9,48,11,1,13,33,68,86,99,92,59,94,76,73,111,67,43,80,28,4,112,101,79,117,8,39,114,10,109,60,75,55,88,23,119,85,54,91,25,5,64,16,78,31,118,15,63,20,57,24,98,32,97,27,90,96,51,108,14,89,110,93,19,115,103,107,95,12,7,70,87,17,47,46,22,58,44,45,77,102,50,21,105,6,113,52,100,72],"cond_shown":["Incongruent","Congruent","Congruent","Congruent","Congruent","Incongruent","Congruent","Congruent","Incongruent","Incongruent","Congruent","Congruent","Incongruent","Congruent","Incongruent","Incongruent","Congruent","Congruent","Congruent","Congruent","Incongruent","Congruent","Congruent","Congruent","Congruent","Incongruent","Congruent","Incongruent","Congruent","Incongruent","Incongruent","Incongruent","Incongruent","Congruent","Incongruent","Incongruent","Incongruent","Incongruent","Congruent","Congruent","Incongruent","Congruent","Incongruent","Congruent","Congruent","Incongruent","Incongruent","Incongruent","Incongruent","Congruent","Congruent","Congruent","Congruent","Incongruent","Incongruent","Incongruent","Congruent","Incongruent","Congruent","Congruent","Incongruent","Congruent","Incongruent","Incongruent","Congruent","Incongruent","Incongruent","Incongruent","Congruent","Incongruent","Incongruent","Incongruent","Congruent","Congruent","Congruent","Incongruent","Congruent","Incongruent","Incongruent","Congruent","Incongruent","Congruent","Congruent","Congruent","Incongruent","Incongruent","Congruent","Congruent","Incongruent","Congruent","Congruent","Incongruent","Congruent","Incongruent","Incongruent","Incongruent","Incongruent","Incongruent","Incongruent","Congruent","Incongruent","Congruent","Incongruent","Incongruent","Incongruent","Congruent","Congruent","Congruent","Congruent","Incongruent","Incongruent","Congruent","Congruent","Incongruent","Incongruent","Congruent","Incongruent","Congruent","Congruent","Congruent"],"ratio_trial":[300,200,200,200,200,100,300,100,300,100,100,100,300,300,200,300,200,100,100,100,100,200,200,300,200,300,300,200,100,200,300,300,200,100,300,100,100,200,200,200,200,200,300,300,300,100,200,100,100,200,300,300,300,300,100,200,200,200,100,300,100,100,200,100,300,300,300,100,100,100,100,300,300,300,100,100,300,200,200,200,200,100,200,200,100,200,100,100,200,100,200,300,200,200,100,100,100,300,300,100,100,300,200,300,300,300,300,300,200,200,300,100,200,200,200,100,300,300,300,100],"left_num":[8,16,3,3,12,10,1,6,4,8,4,8,13,18,7,1,5,9,11,2,6,8,8,11,6,4,20,3,6,3,4,4,3,6,8,6,3,4,16,11,4,7,1,1,24,6,3,10,10,16,8,2,1,13,2,7,15,4,12,1,12,4,14,9,11,13,7,2,2,11,10,3,5,20,3,11,5,14,7,20,7,9,4,6,6,7,15,8,7,3,3,2,6,9,2,8,17,4,8,10,2,20,14,1,13,8,1,4,7,11,2,10,7,7,14,12,2,4,20,6],"right_num":[14,9,14,11,6,8,7,15,8,1,6,2,12,9,8,3,14,8,4,11,3,7,7,4,7,2,13,11,5,11,2,8,1,5,9,7,11,6,9,3,14,18,3,11,2,3,11,9,8,9,10,12,6,12,6,6,4,1,13,3,2,15,6,14,2,12,8,8,11,9,8,4,7,14,4,9,7,12,6,9,12,8,3,11,13,12,13,2,14,2,14,6,3,8,8,1,10,2,9,3,6,13,6,2,12,10,19,13,2,3,6,3,2,4,6,13,6,2,13,15],"left_den":[10,30,6,10,20,25,20,12,5,20,8,16,26,20,10,2,10,15,22,5,12,15,15,22,12,20,25,4,20,4,20,5,10,20,10,10,5,5,30,22,6,15,2,5,30,12,4,25,25,30,15,10,5,26,4,15,25,30,30,5,30,10,30,15,22,26,10,4,5,22,25,6,25,25,20,22,25,30,15,25,10,15,10,20,10,10,25,16,10,6,10,4,15,15,4,20,30,20,10,25,4,25,30,2,26,15,3,20,21,20,4,25,21,15,30,30,4,5,25,12],"right_den":[28,27,20,22,15,16,20,25,16,2,10,5,15,15,16,15,20,16,10,22,5,21,21,20,10,4,26,20,25,20,4,16,2,25,18,14,22,10,27,10,30,27,15,22,4,5,20,18,16,27,12,24,12,15,15,9,10,3,26,6,4,30,9,28,10,15,20,20,22,15,16,20,14,28,16,15,14,18,9,15,24,16,15,22,26,24,26,5,28,5,28,30,15,10,20,2,15,4,18,10,15,26,9,10,15,12,30,26,15,4,30,10,15,6,9,26,30,4,26,25],"correct_side":[1,1,2,2,1,2,2,2,1,2,2,1,2,1,1,1,2,1,1,2,2,1,1,1,2,2,1,1,1,1,2,1,2,1,1,1,1,1,1,1,1,2,1,2,1,2,1,2,2,1,2,2,2,2,1,2,1,2,2,2,2,2,2,1,1,2,1,1,2,2,2,1,2,1,2,2,2,2,2,1,1,1,1,2,1,1,1,1,1,1,2,1,1,2,1,2,2,2,1,1,1,1,2,1,2,2,2,2,1,2,1,1,1,2,2,2,1,1,1,2],"img_shown":["img2/300/Incongruent/L/I_Dist_300_LN_8_LD_10_RN_14_RD_28_0.png","img2/200/Congruent/L/C_Dist_200_LN_16_LD_30_RN_9_RD_27_0.png","img2/200/Congruent/R/C_Dist_200_LN_3_LD_6_RN_14_RD_20_1.png","img2/200/Congruent/R/C_Dist_200_LN_3_LD_10_RN_11_RD_22_1.png","img2/200/Congruent/L/C_Dist_200_LN_12_LD_20_RN_6_RD_15_0.png","img2/100/Incongruent/R/I_Dist_100_LN_10_LD_25_RN_8_RD_16_1.png","img2/300/Congruent/R/C_Dist_300_LN_1_LD_20_RN_7_RD_20_1.png","img2/100/Congruent/R/C_Dist_100_LN_6_LD_12_RN_15_RD_25_1.png","img2/300/Incongruent/L/I_Dist_300_LN_4_LD_5_RN_8_RD_16_0.png","img2/100/Incongruent/R/I_Dist_100_LN_8_LD_20_RN_1_RD_2_1.png","img2/100/Congruent/R/C_Dist_100_LN_4_LD_8_RN_6_RD_10_1.png","img2/100/Congruent/L/C_Dist_100_LN_8_LD_16_RN_2_RD_5_0.png","img2/300/Incongruent/R/I_Dist_300_LN_13_LD_26_RN_12_RD_15_1.png","img2/300/Congruent/L/C_Dist_300_LN_18_LD_20_RN_9_RD_15_0.png","img2/200/Incongruent/L/I_Dist_200_LN_7_LD_10_RN_8_RD_16_0.png","img2/300/Incongruent/L/I_Dist_300_LN_1_LD_2_RN_3_RD_15_0.png","img2/200/Congruent/R/C_Dist_200_LN_5_LD_10_RN_14_RD_20_1.png","img2/100/Congruent/L/C_Dist_100_LN_9_LD_15_RN_8_RD_16_0.png","img2/100/Congruent/L/C_Dist_100_LN_11_LD_22_RN_4_RD_10_0.png","img2/100/Congruent/R/C_Dist_100_LN_2_LD_5_RN_11_RD_22_1.png","img2/100/Incongruent/R/I_Dist_100_LN_6_LD_12_RN_3_RD_5_1.png","img2/200/Congruent/L/C_Dist_200_LN_8_LD_15_RN_7_RD_21_0.png","img2/200/Congruent/L/C_Dist_200_LN_8_LD_15_RN_7_RD_21_0.png","img2/300/Congruent/L/C_Dist_300_LN_11_LD_22_RN_4_RD_20_0.png","img2/200/Congruent/R/C_Dist_200_LN_6_LD_12_RN_7_RD_10_1.png","img2/300/Incongruent/R/I_Dist_300_LN_4_LD_20_RN_2_RD_4_1.png","img2/300/Congruent/L/C_Dist_300_LN_20_LD_25_RN_13_RD_26_0.png","img2/200/Incongruent/L/I_Dist_200_LN_3_LD_4_RN_11_RD_20_0.png","img2/100/Congruent/L/C_Dist_100_LN_6_LD_20_RN_5_RD_25_0.png","img2/200/Incongruent/L/I_Dist_200_LN_3_LD_4_RN_11_RD_20_0.png","img2/300/Incongruent/R/I_Dist_300_LN_4_LD_20_RN_2_RD_4_1.png","img2/300/Incongruent/L/I_Dist_300_LN_4_LD_5_RN_8_RD_16_0.png","img2/200/Incongruent/R/I_Dist_200_LN_3_LD_10_RN_1_RD_2_1.png","img2/100/Congruent/L/C_Dist_100_LN_6_LD_20_RN_5_RD_25_0.png","img2/300/Incongruent/L/I_Dist_300_LN_8_LD_10_RN_9_RD_18_0.png","img2/100/Incongruent/L/I_Dist_100_LN_6_LD_10_RN_7_RD_14_0.png","img2/100/Incongruent/L/I_Dist_100_LN_3_LD_5_RN_11_RD_22_0.png","img2/200/Incongruent/L/I_Dist_200_LN_4_LD_5_RN_6_RD_10_0.png","img2/200/Congruent/L/C_Dist_200_LN_16_LD_30_RN_9_RD_27_0.png","img2/200/Congruent/L/C_Dist_200_LN_11_LD_22_RN_3_RD_10_0.png","img2/200/Incongruent/L/I_Dist_200_LN_4_LD_6_RN_14_RD_30_0.png","img2/200/Congruent/R/C_Dist_200_LN_7_LD_15_RN_18_RD_27_1.png","img2/300/Incongruent/L/I_Dist_300_LN_1_LD_2_RN_3_RD_15_0.png","img2/300/Congruent/R/C_Dist_300_LN_1_LD_5_RN_11_RD_22_1.png","img2/300/Congruent/L/C_Dist_300_LN_24_LD_30_RN_2_RD_4_0.png","img2/100/Incongruent/R/I_Dist_100_LN_6_LD_12_RN_3_RD_5_1.png","img2/200/Incongruent/L/I_Dist_200_LN_3_LD_4_RN_11_RD_20_0.png","img2/100/Incongruent/R/I_Dist_100_LN_10_LD_25_RN_9_RD_18_1.png","img2/100/Incongruent/R/I_Dist_100_LN_10_LD_25_RN_8_RD_16_1.png","img2/200/Congruent/L/C_Dist_200_LN_16_LD_30_RN_9_RD_27_0.png","img2/300/Congruent/R/C_Dist_300_LN_8_LD_15_RN_10_RD_12_1.png","img2/300/Congruent/R/C_Dist_300_LN_2_LD_10_RN_12_RD_24_1.png","img2/300/Congruent/R/C_Dist_300_LN_1_LD_5_RN_6_RD_12_1.png","img2/300/Incongruent/R/I_Dist_300_LN_13_LD_26_RN_12_RD_15_1.png","img2/100/Incongruent/L/I_Dist_100_LN_2_LD_4_RN_6_RD_15_0.png","img2/200/Incongruent/R/I_Dist_200_LN_7_LD_15_RN_6_RD_9_1.png","img2/200/Congruent/L/C_Dist_200_LN_15_LD_25_RN_4_RD_10_0.png","img2/200/Incongruent/R/I_Dist_200_LN_4_LD_30_RN_1_RD_3_1.png","img2/100/Congruent/R/C_Dist_100_LN_12_LD_30_RN_13_RD_26_1.png","img2/300/Congruent/R/C_Dist_300_LN_1_LD_5_RN_3_RD_6_1.png","img2/100/Incongruent/R/I_Dist_100_LN_12_LD_30_RN_2_RD_4_1.png","img2/100/Congruent/R/C_Dist_100_LN_4_LD_10_RN_15_RD_30_1.png","img2/200/Incongruent/R/I_Dist_200_LN_14_LD_30_RN_6_RD_9_1.png","img2/100/Incongruent/L/I_Dist_100_LN_9_LD_15_RN_14_RD_28_0.png","img2/300/Congruent/L/C_Dist_300_LN_11_LD_22_RN_2_RD_10_0.png","img2/300/Incongruent/R/I_Dist_300_LN_13_LD_26_RN_12_RD_15_1.png","img2/300/Incongruent/L/I_Dist_300_LN_7_LD_10_RN_8_RD_20_0.png","img2/100/Incongruent/L/I_Dist_100_LN_2_LD_4_RN_8_RD_20_0.png","img2/100/Congruent/R/C_Dist_100_LN_2_LD_5_RN_11_RD_22_1.png","img2/100/Incongruent/R/I_Dist_100_LN_11_LD_22_RN_9_RD_15_1.png","img2/100/Incongruent/R/I_Dist_100_LN_10_LD_25_RN_8_RD_16_1.png","img2/300/Incongruent/L/I_Dist_300_LN_3_LD_6_RN_4_RD_20_0.png","img2/300/Congruent/R/C_Dist_300_LN_5_LD_25_RN_7_RD_14_1.png","img2/300/Congruent/L/C_Dist_300_LN_20_LD_25_RN_14_RD_28_0.png","img2/100/Congruent/R/C_Dist_100_LN_3_LD_20_RN_4_RD_16_1.png","img2/100/Incongruent/R/I_Dist_100_LN_11_LD_22_RN_9_RD_15_1.png","img2/300/Congruent/R/C_Dist_300_LN_5_LD_25_RN_7_RD_14_1.png","img2/200/Incongruent/R/I_Dist_200_LN_14_LD_30_RN_12_RD_18_1.png","img2/200/Incongruent/R/I_Dist_200_LN_7_LD_15_RN_6_RD_9_1.png","img2/200/Congruent/L/C_Dist_200_LN_20_LD_25_RN_9_RD_15_0.png","img2/200/Incongruent/L/I_Dist_200_LN_7_LD_10_RN_12_RD_24_0.png","img2/100/Congruent/L/C_Dist_100_LN_9_LD_15_RN_8_RD_16_0.png","img2/200/Congruent/L/C_Dist_200_LN_4_LD_10_RN_3_RD_15_0.png","img2/200/Congruent/R/C_Dist_200_LN_6_LD_20_RN_11_RD_22_1.png","img2/100/Incongruent/L/I_Dist_100_LN_6_LD_10_RN_13_RD_26_0.png","img2/200/Incongruent/L/I_Dist_200_LN_7_LD_10_RN_12_RD_24_0.png","img2/100/Congruent/L/C_Dist_100_LN_15_LD_25_RN_13_RD_26_0.png","img2/100/Congruent/L/C_Dist_100_LN_8_LD_16_RN_2_RD_5_0.png","img2/200/Incongruent/L/I_Dist_200_LN_7_LD_10_RN_14_RD_28_0.png","img2/100/Congruent/L/C_Dist_100_LN_3_LD_6_RN_2_RD_5_0.png","img2/200/Congruent/R/C_Dist_200_LN_3_LD_10_RN_14_RD_28_1.png","img2/300/Incongruent/L/I_Dist_300_LN_2_LD_4_RN_6_RD_30_0.png","img2/200/Congruent/L/C_Dist_200_LN_6_LD_15_RN_3_RD_15_0.png","img2/200/Incongruent/R/I_Dist_200_LN_9_LD_15_RN_8_RD_10_1.png","img2/100/Incongruent/L/I_Dist_100_LN_2_LD_4_RN_8_RD_20_0.png","img2/100/Incongruent/R/I_Dist_100_LN_8_LD_20_RN_1_RD_2_1.png","img2/100/Incongruent/R/I_Dist_100_LN_17_LD_30_RN_10_RD_15_1.png","img2/300/Incongruent/R/I_Dist_300_LN_4_LD_20_RN_2_RD_4_1.png","img2/300/Incongruent/L/I_Dist_300_LN_8_LD_10_RN_9_RD_18_0.png","img2/100/Congruent/L/C_Dist_100_LN_10_LD_25_RN_3_RD_10_0.png","img2/100/Incongruent/L/I_Dist_100_LN_2_LD_4_RN_6_RD_15_0.png","img2/300/Congruent/L/C_Dist_300_LN_20_LD_25_RN_13_RD_26_0.png","img2/200/Incongruent/R/I_Dist_200_LN_14_LD_30_RN_6_RD_9_1.png","img2/300/Incongruent/L/I_Dist_300_LN_1_LD_2_RN_2_RD_10_0.png","img2/300/Incongruent/R/I_Dist_300_LN_13_LD_26_RN_12_RD_15_1.png","img2/300/Congruent/R/C_Dist_300_LN_8_LD_15_RN_10_RD_12_1.png","img2/300/Congruent/R/C_Dist_300_LN_1_LD_3_RN_19_RD_30_1.png","img2/300/Congruent/R/C_Dist_300_LN_4_LD_20_RN_13_RD_26_1.png","img2/200/Congruent/L/C_Dist_200_LN_7_LD_21_RN_2_RD_15_0.png","img2/200/Incongruent/R/I_Dist_200_LN_11_LD_20_RN_3_RD_4_1.png","img2/300/Incongruent/L/I_Dist_300_LN_2_LD_4_RN_6_RD_30_0.png","img2/100/Congruent/L/C_Dist_100_LN_10_LD_25_RN_3_RD_10_0.png","img2/200/Congruent/L/C_Dist_200_LN_7_LD_21_RN_2_RD_15_0.png","img2/200/Incongruent/R/I_Dist_200_LN_7_LD_15_RN_4_RD_6_1.png","img2/200/Incongruent/R/I_Dist_200_LN_14_LD_30_RN_6_RD_9_1.png","img2/100/Congruent/R/C_Dist_100_LN_12_LD_30_RN_13_RD_26_1.png","img2/300/Incongruent/L/I_Dist_300_LN_2_LD_4_RN_6_RD_30_0.png","img2/300/Congruent/L/C_Dist_300_LN_4_LD_5_RN_2_RD_4_0.png","img2/300/Congruent/L/C_Dist_300_LN_20_LD_25_RN_13_RD_26_0.png","img2/100/Congruent/R/C_Dist_100_LN_6_LD_12_RN_15_RD_25_1.png"],"dist100_C":[["C_Dist_100_LN_10_LD_25_RN_3_RD_10_0.png","C_Dist_100_LN_11_LD_22_RN_4_RD_10_0.png","C_Dist_100_LN_11_LD_22_RN_6_RD_15_0.png","C_Dist_100_LN_15_LD_25_RN_13_RD_26_0.png","C_Dist_100_LN_3_LD_6_RN_2_RD_5_0.png","C_Dist_100_LN_6_LD_20_RN_5_RD_25_0.png","C_Dist_100_LN_8_LD_16_RN_2_RD_5_0.png","C_Dist_100_LN_9_LD_15_RN_8_RD_16_0.png"],["C_Dist_100_LN_1_LD_2_RN_18_RD_30_1.png","C_Dist_100_LN_1_LD_2_RN_3_RD_5_1.png","C_Dist_100_LN_12_LD_30_RN_13_RD_26_1.png","C_Dist_100_LN_2_LD_5_RN_11_RD_22_1.png","C_Dist_100_LN_2_LD_5_RN_6_RD_12_1.png","C_Dist_100_LN_3_LD_20_RN_4_RD_16_1.png","C_Dist_100_LN_4_LD_10_RN_15_RD_30_1.png","C_Dist_100_LN_4_LD_8_RN_6_RD_10_1.png","C_Dist_100_LN_6_LD_12_RN_15_RD_25_1.png","C_Dist_100_LN_7_LD_14_RN_15_RD_25_1.png","C_Dist_100_LN_7_LD_14_RN_9_RD_15_1.png"]],"dist100_I":[["I_Dist_100_LN_1_LD_2_RN_8_RD_20_0.png","I_Dist_100_LN_2_LD_4_RN_6_RD_15_0.png","I_Dist_100_LN_2_LD_4_RN_8_RD_20_0.png","I_Dist_100_LN_3_LD_5_RN_11_RD_22_0.png","I_Dist_100_LN_3_LD_5_RN_8_RD_16_0.png","I_Dist_100_LN_3_LD_6_RN_4_RD_10_0.png","I_Dist_100_LN_3_LD_9_RN_7_RD_30_0.png","I_Dist_100_LN_4_LD_8_RN_8_RD_20_0.png","I_Dist_100_LN_6_LD_10_RN_11_RD_22_0.png","I_Dist_100_LN_6_LD_10_RN_13_RD_26_0.png","I_Dist_100_LN_6_LD_10_RN_7_RD_14_0.png","I_Dist_100_LN_9_LD_10_RN_20_RD_25_0.png","I_Dist_100_LN_9_LD_15_RN_13_RD_26_0.png","I_Dist_100_LN_9_LD_15_RN_14_RD_28_0.png"],["I_Dist_100_LN_10_LD_25_RN_8_RD_16_1.png","I_Dist_100_LN_10_LD_25_RN_9_RD_18_1.png","I_Dist_100_LN_11_LD_22_RN_9_RD_15_1.png","I_Dist_100_LN_12_LD_24_RN_9_RD_15_1.png","I_Dist_100_LN_12_LD_30_RN_2_RD_4_1.png","I_Dist_100_LN_13_LD_26_RN_12_RD_20_1.png","I_Dist_100_LN_13_LD_26_RN_6_RD_10_1.png","I_Dist_100_LN_17_LD_30_RN_10_RD_15_1.png","I_Dist_100_LN_6_LD_12_RN_3_RD_5_1.png","I_Dist_100_LN_8_LD_16_RN_6_RD_10_1.png","I_Dist_100_LN_8_LD_20_RN_1_RD_2_1.png","I_Dist_100_LN_9_LD_18_RN_6_RD_10_1.png"]],"dist100_S":[["E_Dist_100_LN_2_LD_12_RN_2_RD_30_0.png","E_Dist_100_LN_6_LD_10_RN_6_RD_12_0.png"],["E_Dist_100_LN_6_LD_12_RN_6_RD_10_1.png"]],"dist200_C":[["C_Dist_200_LN_11_LD_22_RN_3_RD_10_0.png","C_Dist_200_LN_12_LD_15_RN_6_RD_10_0.png","C_Dist_200_LN_12_LD_20_RN_6_RD_15_0.png","C_Dist_200_LN_14_LD_28_RN_6_RD_20_0.png","C_Dist_200_LN_15_LD_25_RN_4_RD_10_0.png","C_Dist_200_LN_16_LD_20_RN_12_RD_20_0.png","C_Dist_200_LN_16_LD_30_RN_9_RD_27_0.png","C_Dist_200_LN_20_LD_25_RN_9_RD_15_0.png","C_Dist_200_LN_21_LD_30_RN_2_RD_4_0.png","C_Dist_200_LN_4_LD_10_RN_3_RD_15_0.png","C_Dist_200_LN_4_LD_8_RN_3_RD_10_0.png","C_Dist_200_LN_6_LD_15_RN_3_RD_15_0.png","C_Dist_200_LN_7_LD_21_RN_2_RD_15_0.png","C_Dist_200_LN_8_LD_15_RN_2_RD_6_0.png","C_Dist_200_LN_8_LD_15_RN_3_RD_9_0.png","C_Dist_200_LN_8_LD_15_RN_7_RD_21_0.png","C_Dist_200_LN_9_LD_20_RN_4_RD_16_0.png"],["C_Dist_200_LN_1_LD_2_RN_21_RD_30_1.png","C_Dist_200_LN_13_LD_26_RN_14_RD_20_1.png","C_Dist_200_LN_3_LD_10_RN_11_RD_22_1.png","C_Dist_200_LN_3_LD_10_RN_14_RD_28_1.png","C_Dist_200_LN_3_LD_10_RN_7_RD_14_1.png","C_Dist_200_LN_3_LD_12_RN_9_RD_20_1.png","C_Dist_200_LN_3_LD_6_RN_14_RD_20_1.png","C_Dist_200_LN_5_LD_10_RN_14_RD_20_1.png","C_Dist_200_LN_6_LD_12_RN_7_RD_10_1.png","C_Dist_200_LN_6_LD_20_RN_11_RD_22_1.png","C_Dist_200_LN_7_LD_15_RN_18_RD_27_1.png","C_Dist_200_LN_9_LD_30_RN_13_RD_26_1.png"]],"dist200_I":[["I_Dist_200_LN_1_LD_2_RN_3_RD_10_0.png","I_Dist_200_LN_1_LD_3_RN_2_RD_15_0.png","I_Dist_200_LN_3_LD_4_RN_11_RD_20_0.png","I_Dist_200_LN_4_LD_5_RN_6_RD_10_0.png","I_Dist_200_LN_4_LD_6_RN_14_RD_30_0.png","I_Dist_200_LN_7_LD_10_RN_12_RD_24_0.png","I_Dist_200_LN_7_LD_10_RN_14_RD_28_0.png","I_Dist_200_LN_7_LD_10_RN_8_RD_16_0.png"],["I_Dist_200_LN_11_LD_20_RN_3_RD_4_1.png","I_Dist_200_LN_14_LD_30_RN_12_RD_18_1.png","I_Dist_200_LN_14_LD_30_RN_6_RD_9_1.png","I_Dist_200_LN_3_LD_10_RN_1_RD_2_1.png","I_Dist_200_LN_4_LD_30_RN_1_RD_3_1.png","I_Dist_200_LN_6_LD_20_RN_3_RD_6_1.png","I_Dist_200_LN_7_LD_15_RN_4_RD_6_1.png","I_Dist_200_LN_7_LD_15_RN_6_RD_9_1.png","I_Dist_200_LN_9_LD_15_RN_8_RD_10_1.png"]],"dist200_S":[["E_Dist_200_LN_3_LD_6_RN_3_RD_10_0.png"],["E_Dist_200_LN_3_LD_10_RN_3_RD_6_1.png"]],"dist300_C":[["C_Dist_300_LN_11_LD_22_RN_1_RD_5_0.png","C_Dist_300_LN_11_LD_22_RN_2_RD_10_0.png","C_Dist_300_LN_11_LD_22_RN_4_RD_20_0.png","C_Dist_300_LN_12_LD_24_RN_2_RD_10_0.png","C_Dist_300_LN_18_LD_20_RN_9_RD_15_0.png","C_Dist_300_LN_20_LD_25_RN_13_RD_26_0.png","C_Dist_300_LN_20_LD_25_RN_14_RD_28_0.png","C_Dist_300_LN_20_LD_25_RN_5_RD_10_0.png","C_Dist_300_LN_20_LD_25_RN_8_RD_16_0.png","C_Dist_300_LN_20_LD_25_RN_9_RD_18_0.png","C_Dist_300_LN_24_LD_30_RN_2_RD_4_0.png","C_Dist_300_LN_24_LD_30_RN_8_RD_16_0.png","C_Dist_300_LN_3_LD_6_RN_2_RD_10_0.png","C_Dist_300_LN_4_LD_10_RN_1_RD_10_0.png","C_Dist_300_LN_4_LD_5_RN_2_RD_4_0.png","C_Dist_300_LN_8_LD_16_RN_1_RD_5_0.png","C_Dist_300_LN_9_LD_10_RN_3_RD_5_0.png"],["C_Dist_300_LN_1_LD_20_RN_7_RD_20_1.png","C_Dist_300_LN_1_LD_3_RN_19_RD_30_1.png","C_Dist_300_LN_1_LD_30_RN_8_RD_24_1.png","C_Dist_300_LN_1_LD_5_RN_11_RD_22_1.png","C_Dist_300_LN_1_LD_5_RN_3_RD_6_1.png","C_Dist_300_LN_1_LD_5_RN_6_RD_12_1.png","C_Dist_300_LN_2_LD_10_RN_12_RD_24_1.png","C_Dist_300_LN_2_LD_20_RN_10_RD_25_1.png","C_Dist_300_LN_3_LD_12_RN_11_RD_20_1.png","C_Dist_300_LN_3_LD_6_RN_4_RD_5_1.png","C_Dist_300_LN_4_LD_20_RN_13_RD_26_1.png","C_Dist_300_LN_5_LD_25_RN_6_RD_12_1.png","C_Dist_300_LN_5_LD_25_RN_7_RD_14_1.png","C_Dist_300_LN_7_LD_14_RN_20_RD_25_1.png","C_Dist_300_LN_8_LD_15_RN_10_RD_12_1.png"]],"dist300_I":[["I_Dist_300_LN_1_LD_2_RN_2_RD_10_0.png","I_Dist_300_LN_1_LD_2_RN_3_RD_15_0.png","I_Dist_300_LN_2_LD_4_RN_6_RD_30_0.png","I_Dist_300_LN_3_LD_6_RN_4_RD_20_0.png","I_Dist_300_LN_4_LD_5_RN_6_RD_12_0.png","I_Dist_300_LN_4_LD_5_RN_8_RD_16_0.png","I_Dist_300_LN_7_LD_10_RN_8_RD_20_0.png","I_Dist_300_LN_8_LD_10_RN_14_RD_28_0.png","I_Dist_300_LN_8_LD_10_RN_9_RD_18_0.png"],["I_Dist_300_LN_13_LD_26_RN_12_RD_15_1.png","I_Dist_300_LN_4_LD_20_RN_2_RD_4_1.png"]],"dist300_S":[["E_Dist_300_LN_9_LD_12_RN_9_RD_20_0.png"],["E_Dist_300_LN_18_LD_30_RN_18_RD_20_1.png","E_Dist_300_LN_3_LD_10_RN_3_RD_5_1.png","E_Dist_300_LN_9_LD_20_RN_9_RD_12_1.png"]],"dist500_C":[["C_Dist_500_LN_10_LD_13_RN_7_RD_26_0.png","C_Dist_500_LN_10_LD_15_RN_4_RD_24_0.png","C_Dist_500_LN_12_LD_16_RN_3_RD_12_0.png","C_Dist_500_LN_12_LD_18_RN_4_RD_24_0.png","C_Dist_500_LN_15_LD_18_RN_5_RD_15_0.png","C_Dist_500_LN_15_LD_20_RN_1_RD_4_0.png","C_Dist_500_LN_18_LD_27_RN_1_RD_6_0.png","C_Dist_500_LN_20_LD_24_RN_1_RD_3_0.png","C_Dist_500_LN_20_LD_24_RN_3_RD_9_0.png","C_Dist_500_LN_20_LD_24_RN_7_RD_21_0.png","C_Dist_500_LN_20_LD_28_RN_3_RD_14_0.png","C_Dist_500_LN_21_LD_28_RN_6_RD_24_0.png","C_Dist_500_LN_22_LD_28_RN_2_RD_7_0.png","C_Dist_500_LN_25_LD_30_RN_9_RD_27_0.png","C_Dist_500_LN_4_LD_6_RN_1_RD_6_0.png","C_Dist_500_LN_5_LD_6_RN_2_RD_6_0.png","C_Dist_500_LN_6_LD_9_RN_1_RD_6_0.png","C_Dist_500_LN_7_LD_10_RN_1_RD_5_0.png","C_Dist_500_LN_8_LD_12_RN_1_RD_6_0.png","C_Dist_500_LN_8_LD_12_RN_4_RD_24_0.png"],["C_Dist_500_LN_1_LD_4_RN_12_RD_16_1.png","C_Dist_500_LN_1_LD_4_RN_9_RD_12_1.png","C_Dist_500_LN_1_LD_9_RN_11_RD_18_1.png","C_Dist_500_LN_10_LD_24_RN_22_RD_24_1.png","C_Dist_500_LN_2_LD_12_RN_10_RD_15_1.png","C_Dist_500_LN_2_LD_12_RN_12_RD_18_1.png","C_Dist_500_LN_2_LD_12_RN_4_RD_6_1.png","C_Dist_500_LN_2_LD_24_RN_7_RD_12_1.png","C_Dist_500_LN_2_LD_5_RN_18_RD_20_1.png","C_Dist_500_LN_2_LD_5_RN_9_RD_10_1.png","C_Dist_500_LN_2_LD_8_RN_12_RD_16_1.png","C_Dist_500_LN_2_LD_8_RN_21_RD_28_1.png","C_Dist_500_LN_3_LD_10_RN_4_RD_5_1.png","C_Dist_500_LN_3_LD_12_RN_15_RD_20_1.png","C_Dist_500_LN_3_LD_30_RN_6_RD_10_1.png","C_Dist_500_LN_3_LD_8_RN_14_RD_16_1.png","C_Dist_500_LN_4_LD_16_RN_15_RD_20_1.png","C_Dist_500_LN_4_LD_24_RN_12_RD_18_1.png","C_Dist_500_LN_5_LD_14_RN_6_RD_7_1.png","C_Dist_500_LN_7_LD_21_RN_20_RD_24_1.png","C_Dist_500_LN_7_LD_28_RN_12_RD_16_1.png","C_Dist_500_LN_7_LD_28_RN_9_RD_12_1.png","C_Dist_500_LN_9_LD_27_RN_20_RD_24_1.png"]],"dist500_I":[["I_Dist_500_LN_2_LD_3_RN_4_RD_24_0.png","I_Dist_500_LN_5_LD_6_RN_6_RD_18_0.png","I_Dist_500_LN_7_LD_8_RN_9_RD_24_0.png"],["I_Dist_500_LN_7_LD_21_RN_5_RD_6_1.png"]],"dist500_S":[["E_Dist_500_LN_6_LD_8_RN_6_RD_24_0.png"],["E_Dist_500_LN_2_LD_12_RN_2_RD_3_1.png","E_Dist_500_LN_6_LD_24_RN_6_RD_8_1.png"]]}},{"start_time":1552327858557,"click_time":1552327859945,"finger_time":1552327859206,"fix_duration":709.9115597751122,"trial":1,"RT":649,"MT":739,"sideResp":1,"stimulus":[],"xmouse":[797,797,797,797,797,797,797,797,797,797,797,797,797,797,797,797,797,797,797,797,797,797,797,797,797,797,797,797,797,797,797,797,817,834,845,851,820,800,783,772,756,751,749,745,744,731,716,697,677,657,608,586,572,562,559,560,567,574,576,576,574,569,565,561,558,558,551,538,514,490],"ymouse":[530,530,530,530,530,530,530,530,530,530,530,530,530,530,530,530,530,530,530,530,530,530,530,530,530,530,530,530,530,530,530,520,445,360,273,140,85,61,51,47,44,44,44,44,45,61,69,78,83,86,86,86,86,86,87,89,89,91,92,92,93,95,96,98,99,100,100,100,100,99],"timestamp_mouse":[10,28,52,69,88,109,129,148,168,189,208,229,248,269,289,309,328,349,368,389,408,429,448,469,489,509,528,548,569,588,609,628,649,669,688,709,728,748,768,788,810,828,849,868,888,908,927,949,968,988,1011,1028,1048,1068,1089,1110,1128,1149,1169,1189,1210,1228,1248,1268,1288,1307,1328,1348,1368,1388],"xSR":741.5,"ySR":458.25,"xT1":424.9,"yT1":0,"xT2":1058.1,"yT2":0,"toosoon":0,"cond_shown":"Congruent","ratio_trial":200,"L_num":16,"L_den":30,"R_num":9,"R_den":27,"correct_side":1,"subjID":"martinjuanjimenez12","gender":"0","school":"4","age":"9"},{"start_time":1552327866614,"click_time":1552327886245,"finger_time":1552327867066,"fix_duration":1487.4844204265723,"trial":2,"RT":452,"MT":19179,"sideResp":1,"stimulus":[],"xmouse":[788,788,788,788,788,788,788,788,788,788,788,788,788,788,788,788,788,788,788,788,788,785,752,707,681,666,660,660,659,653,647,641,637,634,633,630,584,397,397,397,397,397,397,397,397,397,397,397,397,397,397,397,397,397,397,397,397,397,397,397,397,397,397,397,397,397,397,397,397,397,397,397,397,397,397,397,397,397,397,397,397,397,397,397,397,397,397,397,397,397,397,397,397,397,397,397,397,397,397,397,397,397,397,397,397,397,397,397,397,397,397,397,397,397,397,397,397,412,429],"ymouse":[501,501,501,501,501,501,501,501,501,501,501,501,501,501,501,501,501,501,501,500,493,469,363,269,227,204,198,198,197,195,193,188,178,164,157,149,125,21,21,21,21,21,21,21,21,21,21,21,21,21,21,21,21,21,21,21,21,21,21,21,21,21,21,21,21,21,21,21,21,21,21,21,21,21,21,21,21,21,21,21,21,21,21,21,21,21,21,21,21,21,21,21,21,21,21,21,21,21,21,21,21,21,21,21,21,21,21,21,21,21,21,21,21,21,21,21,21,5,18],"timestamp_mouse":[14,37,52,72,91,111,132,151,171,192,212,232,251,271,291,312,331,352,372,391,411,432,452,470,491,512,531,551,571,592,611,631,652,671,691,711,732,751,773,792,811,831,852,958,1958,2961,3956,4967,5967,6967,7971,8962,9957,10956,11957,12964,13963,14958,15956,16956,17958,18507,18511,18531,18552,18572,18592,18612,18631,18651,18671,18691,18711,18732,18752,18772,18791,18810,18830,18850,18871,18891,18912,18931,18952,18970,18992,19011,19031,19050,19071,19092,19112,19132,19153,19172,19191,19212,19231,19251,19272,19291,19312,19331,19351,19371,19392,19411,19431,19451,19472,19491,19511,19531,19552,19572,19591,19611,19631],"xSR":741.5,"ySR":458.25,"xT1":424.9,"yT1":0,"xT2":1058.1,"yT2":0,"toosoon":0,"cond_shown":"Congruent","ratio_trial":200,"L_num":3,"L_den":6,"R_num":14,"R_den":20,"correct_side":2,"subjID":"martinjuanjimenez12","gender":"0","school":"4","age":"9"},{"start_time":1552327887291,"click_time":1552327888346,"finger_time":1552327887885,"fix_duration":323.8867735647439,"trial":3,"RT":594,"MT":461,"sideResp":2,"stimulus":[],"xmouse":[771,771,771,771,772,772,772,772,773,774,775,777,780,790,793,797,798,798,798,798,798,798,798,798,798,798,800,808,828,907,961,1021,1067,1112,1119,1119,1112,1098,1084,1075,1075,1075,1075,1073,1072,1071,1071,1071,1071,1071,1071,1071,1074],"ymouse":[523,523,523,523,523,523,523,523,523,523,523,524,525,528,529,530,530,530,530,530,530,530,529,529,529,528,526,519,495,399,341,285,244,203,189,181,165,146,132,121,120,118,115,109,103,102,102,102,102,102,102,101,99],"timestamp_mouse":[14,48,54,75,95,115,134,154,174,195,214,234,255,275,294,314,334,354,374,394,413,434,455,475,494,515,534,555,574,594,614,634,654,675,694,714,734,754,774,794,814,834,854,875,894,914,934,954,975,994,1014,1035,1055],"xSR":741.5,"ySR":458.25,"xT1":424.9,"yT1":0,"xT2":1058.1,"yT2":0,"toosoon":0,"cond_shown":"Congruent","ratio_trial":200,"L_num":3,"L_den":10,"R_num":11,"R_den":22,"correct_side":2,"subjID":"martinjuanjimenez12","gender":"0","school":"4","age":"9"},{"start_time":1552327890559,"click_time":1552327891746,"finger_time":1552327890966,"fix_duration":1112.7479314686898,"trial":4,"RT":407,"MT":780,"sideResp":1,"stimulus":[],"xmouse":[794,793,793,793,793,793,793,793,793,793,793,793,793,793,793,793,793,794,798,801,802,769,732,693,670,669,669,666,661,651,641,641,641,640,634,599,584,575,571,567,559,541,537,536,536,536,536,536,536,536,536,536,536,536,536,536,536,532,525,519],"ymouse":[503,503,503,503,503,503,503,503,503,503,501,500,499,499,498,498,498,496,487,466,427,281,207,147,113,112,112,112,112,112,111,111,111,111,111,96,88,80,77,74,67,52,46,42,40,40,40,40,40,40,40,40,40,40,40,40,40,39,40,41],"timestamp_mouse":[6,41,46,66,86,107,127,145,166,186,206,226,246,267,287,307,326,346,366,386,407,426,446,466,487,507,526,546,567,586,607,626,646,667,687,706,726,746,767,787,806,826,847,867,887,906,927,946,967,986,1006,1027,1046,1067,1085,1107,1127,1147,1166,1187],"xSR":741.5,"ySR":458.25,"xT1":424.9,"yT1":0,"xT2":1058.1,"yT2":0,"toosoon":0,"cond_shown":"Congruent","ratio_trial":200,"L_num":12,"L_den":20,"R_num":6,"R_den":15,"correct_side":1,"subjID":"martinjuanjimenez12","gender":"0","school":"4","age":"9"},{"start_time":1552327895613,"click_time":1552327896267,"finger_time":1552327896005,"fix_duration":1226.3709824587322,"trial":5,"RT":392,"MT":262,"sideResp":2,"stimulus":[],"xmouse":[812,812,812,812,812,812,812,812,812,812,812,812,812,812,812,812,812,813,833,911,936,1013,1076,1130,1131,1145,1181,1240,1246,1246,1246,1232,1130],"ymouse":[505,505,505,505,505,505,505,505,505,505,505,505,505,505,505,505,505,505,490,394,352,248,173,116,116,119,137,168,170,170,170,166,91],"timestamp_mouse":[14,40,52,73,92,112,132,152,172,192,213,233,253,273,292,313,333,353,372,392,412,433,452,472,492,513,532,553,572,592,612,633,653],"xSR":741.5,"ySR":458.25,"xT1":424.9,"yT1":0,"xT2":1058.1,"yT2":0,"toosoon":0,"cond_shown":"Incongruent","ratio_trial":100,"L_num":10,"L_den":25,"R_num":8,"R_den":16,"correct_side":2,"subjID":"martinjuanjimenez12","gender":"0","school":"4","age":"9"},{"start_time":1552327900700,"click_time":1552327901409,"finger_time":1552327901045,"fix_duration":1153.895731850641,"trial":6,"RT":345,"MT":364,"sideResp":1,"stimulus":[],"xmouse":[770,770,770,770,770,770,770,770,770,770,770,770,770,770,772,772,772,768,719,702,693,693,693,683,669,649,611,558,526,526,526,526,526,526,526,522],"ymouse":[489,489,489,489,489,489,489,489,489,489,489,489,489,489,487,480,462,432,300,238,200,172,149,111,95,78,57,26,8,8,8,8,8,8,8,22],"timestamp_mouse":[12,26,45,66,90,105,126,146,166,185,205,225,246,265,284,305,325,345,366,385,405,426,445,467,484,505,525,545,566,585,605,626,646,665,685,708],"xSR":741.5,"ySR":458.25,"xT1":424.9,"yT1":0,"xT2":1058.1,"yT2":0,"toosoon":0,"cond_shown":"Congruent","ratio_trial":300,"L_num":1,"L_den":20,"R_num":7,"R_den":20,"correct_side":2,"subjID":"martinjuanjimenez12","gender":"0","school":"4","age":"9"},{"start_time":1552327903395,"click_time":1552327904405,"finger_time":1552327903945,"fix_duration":708.7694494764393,"trial":7,"RT":550,"MT":460,"sideResp":2,"stimulus":[],"xmouse":[809,809,810,811,811,811,812,812,812,812,812,812,812,812,812,812,812,812,812,812,812,812,812,812,817,823,834,847,860,884,893,904,913,946,969,997,1026,1051,1076,1079,1078,1070,1059,1055,1054,1054,1054,1053,1053,1055,1067],"ymouse":[527,527,526,524,524,524,523,523,523,523,523,523,523,523,523,523,523,523,523,523,523,523,523,523,518,512,503,492,477,446,433,410,390,332,297,258,217,181,138,127,123,117,111,110,108,108,106,103,103,92,79],"timestamp_mouse":[13,30,56,71,91,110,131,151,171,190,210,231,251,271,290,311,331,350,371,390,411,431,450,470,491,509,531,549,571,589,610,630,650,671,690,710,731,751,771,789,811,830,851,870,890,910,931,951,970,990,1010],"xSR":741.5,"ySR":458.25,"xT1":424.9,"yT1":0,"xT2":1058.1,"yT2":0,"toosoon":0,"cond_shown":"Congruent","ratio_trial":100,"L_num":6,"L_den":12,"R_num":15,"R_den":25,"correct_side":2,"subjID":"martinjuanjimenez12","gender":"0","school":"4","age":"9"},{"start_time":1552327906317,"click_time":1552327907126,"finger_time":1552327906725,"fix_duration":250,"trial":8,"RT":408,"MT":401,"sideResp":2,"stimulus":[],"xmouse":[789,789,789,789,789,789,789,789,789,789,789,789,789,789,789,789,789,791,798,805,821,853,955,997,1027,1031,1033,1033,1034,1034,1034,1035,1037,1039,1041,1042,1045,1049,1054,1065,1081],"ymouse":[497,497,497,497,497,497,497,497,497,497,497,497,497,497,497,497,497,496,487,475,453,406,281,233,200,191,183,180,178,178,178,175,167,155,150,148,143,131,122,108,93],"timestamp_mouse":[11,37,47,68,88,109,129,148,169,188,208,228,248,269,289,308,328,348,368,387,408,428,448,468,488,508,528,547,568,588,609,629,648,668,688,708,728,749,768,788,808],"xSR":741.5,"ySR":458.25,"xT1":424.9,"yT1":0,"xT2":1058.1,"yT2":0,"toosoon":0,"cond_shown":"Incongruent","ratio_trial":300,"L_num":4,"L_den":5,"R_num":8,"R_den":16,"correct_side":1,"subjID":"martinjuanjimenez12","gender":"0","school":"4","age":"9"},{"start_time":1552327909542,"click_time":1552327910446,"finger_time":1552327909905,"fix_duration":1035.251097435872,"trial":9,"RT":363,"MT":541,"sideResp":1,"stimulus":[],"xmouse":[824,824,824,824,824,824,825,825,825,825,825,825,824,823,820,812,805,787,731,705,603,581,575,574,574,574,563,556,552,551,549,548,547,546,543,539,528,526,526,526,526,526,525,525,524],"ymouse":[530,530,530,530,530,530,528,526,524,523,523,523,520,518,510,487,462,414,299,253,77,28,11,8,6,6,5,3,2,2,1,1,1,1,0,4,21,23,23,23,23,23,24,24,24],"timestamp_mouse":[21,46,64,83,103,123,144,163,183,204,224,243,263,284,304,323,344,363,384,402,425,443,463,484,503,523,543,563,583,603,624,643,663,683,703,723,743,763,783,804,824,843,864,883,904],"xSR":741.5,"ySR":458.25,"xT1":424.9,"yT1":0,"xT2":1058.1,"yT2":0,"toosoon":0,"cond_shown":"Incongruent","ratio_trial":100,"L_num":8,"L_den":20,"R_num":1,"R_den":2,"correct_side":2,"subjID":"martinjuanjimenez12","gender":"0","school":"4","age":"9"},{"start_time":1552327913991,"click_time":1552327915265,"finger_time":1552327914405,"fix_duration":985.80423246269,"trial":10,"RT":414,"MT":860,"sideResp":2,"stimulus":[],"xmouse":[779,779,779,779,779,779,779,779,779,779,779,779,779,779,779,779,780,785,802,811,820,823,832,852,860,869,879,888,895,914,927,936,942,942,942,943,945,952,957,963,965,969,974,982,986,987,987,990,991,1000,1009,1021,1030,1033,1033,1033,1033,1033,1033,1034,1035,1040,1050,1070],"ymouse":[518,518,518,518,518,518,518,518,518,518,518,518,518,518,518,518,516,510,482,465,441,433,416,376,359,341,321,299,278,239,223,217,213,213,213,211,207,199,191,165,154,143,137,130,127,127,127,125,125,119,114,107,101,99,99,99,99,99,99,99,97,95,90,79],"timestamp_mouse":[15,39,55,75,94,114,135,154,175,195,215,234,256,275,295,314,335,354,375,394,414,434,454,475,494,515,534,555,575,594,614,634,654,675,694,714,734,754,774,794,814,834,854,874,894,914,934,954,974,994,1015,1035,1055,1076,1096,1116,1135,1155,1174,1194,1214,1234,1255,1274],"xSR":741.5,"ySR":458.25,"xT1":424.9,"yT1":0,"xT2":1058.1,"yT2":0,"toosoon":0,"cond_shown":"Congruent","ratio_trial":100,"L_num":4,"L_den":8,"R_num":6,"R_den":10,"correct_side":2,"subjID":"martinjuanjimenez12","gender":"0","school":"4","age":"9"},{"start_time":1552327918304,"click_time":1552327918767,"finger_time":1552327918665,"fix_duration":536.1898903181109,"trial":11,"RT":361,"MT":102,"sideResp":1,"stimulus":[],"xmouse":[799,799,799,799,799,799,799,799,799,799,799,799,800,801,801,801,801,801,796,766,711,631,541,455],"ymouse":[497,497,497,497,497,497,497,497,497,497,497,497,495,493,493,493,493,493,368,322,262,198,130,85],"timestamp_mouse":[10,21,43,62,81,103,121,142,162,182,201,221,241,262,281,302,321,341,361,381,401,421,441,463],"xSR":741.5,"ySR":458.25,"xT1":424.9,"yT1":0,"xT2":1058.1,"yT2":0,"toosoon":0,"cond_shown":"Congruent","ratio_trial":100,"L_num":8,"L_den":16,"R_num":2,"R_den":5,"correct_side":1,"subjID":"martinjuanjimenez12","gender":"0","school":"4","age":"9"},{"start_time":1552327920758,"click_time":1552327921346,"finger_time":1552327921127,"fix_duration":250,"trial":12,"RT":369,"MT":219,"sideResp":1,"stimulus":[],"xmouse":[765,765,765,765,765,765,765,765,765,765,765,765,765,765,765,766,763,751,724,679,593,580,577,577,576,547,534,525,517,508],"ymouse":[501,501,501,501,501,501,501,501,501,501,501,501,501,501,501,501,487,463,403,325,181,158,154,153,153,133,122,112,101,86],"timestamp_mouse":[14,40,48,68,87,108,128,147,167,188,208,229,249,269,288,307,328,347,369,388,408,427,447,467,488,508,527,547,568,588],"xSR":741.5,"ySR":458.25,"xT1":424.9,"yT1":0,"xT2":1058.1,"yT2":0,"toosoon":0,"cond_shown":"Incongruent","ratio_trial":300,"L_num":13,"L_den":26,"R_num":12,"R_den":15,"correct_side":2,"subjID":"martinjuanjimenez12","gender":"0","school":"4","age":"9"},{"start_time":1552327927182,"click_time":1552327928405,"finger_time":1552327927666,"fix_duration":875.4534033349487,"trial":13,"RT":484,"MT":739,"sideResp":1,"stimulus":[],"xmouse":[795,795,796,796,796,796,796,796,796,796,796,796,796,796,796,796,796,796,796,796,796,793,785,768,669,558,496,467,458,458,465,469,478,484,497,498,498,498,498,498,498,499,499,491,401,351,344,350,360,374,378,378,378,378,378,380,386,396,406,421,424,430],"ymouse":[510,512,513,513,514,514,514,514,514,514,514,515,515,515,515,515,515,515,515,515,515,507,494,478,417,357,330,313,306,301,292,285,271,260,238,237,237,237,237,237,236,233,227,216,149,112,105,101,95,86,85,85,85,85,85,85,85,87,90,94,95,95],"timestamp_mouse":[11,24,50,63,84,104,123,143,163,183,204,223,243,264,283,305,323,343,364,383,403,423,444,463,484,503,524,544,563,584,603,624,643,664,684,703,724,743,764,784,803,823,843,863,883,903,923,944,963,985,1003,1023,1044,1084,1084,1104,1123,1143,1163,1185,1204,1223],"xSR":741.5,"ySR":458.25,"xT1":424.9,"yT1":0,"xT2":1058.1,"yT2":0,"toosoon":0,"cond_shown":"Congruent","ratio_trial":300,"L_num":18,"L_den":20,"R_num":9,"R_den":15,"correct_side":1,"subjID":"martinjuanjimenez12","gender":"0","school":"4","age":"9"},{"start_time":1552327931557,"click_time":1552327932285,"finger_time":1552327931925,"fix_duration":250,"trial":14,"RT":368,"MT":360,"sideResp":1,"stimulus":[],"xmouse":[814,814,814,814,814,814,814,814,814,814,814,814,814,814,814,814,814,814,813,783,697,613,542,514,510,510,510,509,508,508,508,508,508,508,508,508,499],"ymouse":[501,501,501,501,501,501,501,501,501,501,501,501,501,501,501,499,488,473,450,395,297,219,162,141,138,138,135,129,125,124,123,122,122,121,118,100,86],"timestamp_mouse":[13,39,48,68,90,109,129,148,169,189,208,229,248,269,288,308,329,348,368,388,408,428,449,469,489,509,528,548,569,589,609,628,649,669,688,709,728],"xSR":741.5,"ySR":458.25,"xT1":424.9,"yT1":0,"xT2":1058.1,"yT2":0,"toosoon":0,"cond_shown":"Incongruent","ratio_trial":200,"L_num":7,"L_den":10,"R_num":8,"R_den":16,"correct_side":1,"subjID":"martinjuanjimenez12","gender":"0","school":"4","age":"9"},{"start_time":1552327936989,"click_time":1552327937546,"finger_time":1552327937385,"fix_duration":522.4633372927034,"trial":15,"RT":396,"MT":161,"sideResp":2,"stimulus":[],"xmouse":[808,808,808,808,808,808,808,808,807,807,807,807,807,807,807,807,807,807,814,852,904,920,948,1006,1035,1068,1107,1139],"ymouse":[521,521,521,521,520,520,519,519,518,518,518,517,517,516,516,514,511,504,488,436,373,349,310,229,186,150,122,95],"timestamp_mouse":[22,46,57,76,96,116,136,156,176,196,216,236,257,276,296,316,337,356,377,396,417,436,458,477,496,516,538,557],"xSR":741.5,"ySR":458.25,"xT1":424.9,"yT1":0,"xT2":1058.1,"yT2":0,"toosoon":0,"cond_shown":"Incongruent","ratio_trial":300,"L_num":1,"L_den":2,"R_num":3,"R_den":15,"correct_side":1,"subjID":"martinjuanjimenez12","gender":"0","school":"4","age":"9"},{"start_time":1552327943663,"click_time":1552327944525,"finger_time":1552327944006,"fix_duration":936.982473265132,"trial":16,"RT":343,"MT":519,"sideResp":1,"stimulus":[],"xmouse":[784,784,784,784,784,784,784,784,784,784,784,784,784,784,784,784,777,770,758,724,676,576,495,427,398,394,396,399,402,405,409,424,439,450,453,453,453,454,454,455,455,455,456,461],"ymouse":[499,499,499,499,499,499,499,499,499,499,499,499,499,499,496,494,476,457,430,369,301,211,153,118,106,104,104,104,104,103,103,106,110,113,113,113,113,113,109,104,102,101,100,97],"timestamp_mouse":[11,22,42,62,83,102,122,142,162,182,203,222,243,263,282,303,322,342,362,383,403,423,443,462,482,503,522,542,562,583,603,622,642,664,683,703,723,742,762,783,802,823,842,862],"xSR":741.5,"ySR":458.25,"xT1":424.9,"yT1":0,"xT2":1058.1,"yT2":0,"toosoon":0,"cond_shown":"Congruent","ratio_trial":200,"L_num":5,"L_den":10,"R_num":14,"R_den":20,"correct_side":2,"subjID":"martinjuanjimenez12","gender":"0","school":"4","age":"9"},{"start_time":1552327947091,"click_time":1552327947805,"finger_time":1552327947465,"fix_duration":803.1625736306964,"trial":17,"RT":374,"MT":340,"sideResp":2,"stimulus":[],"xmouse":[801,801,801,801,801,801,801,801,801,801,801,801,801,801,801,801,801,801,799,796,796,802,814,840,853,859,867,876,918,937,946,959,981,1048,1066,1070],"ymouse":[499,499,499,499,499,499,499,499,499,499,499,499,499,499,499,493,489,481,450,424,407,390,374,346,336,330,321,311,277,264,255,237,211,135,109,96],"timestamp_mouse":[14,42,55,75,95,114,134,155,176,195,214,235,255,275,294,315,334,355,374,394,414,434,455,474,494,514,534,556,576,594,615,634,654,676,694,714],"xSR":741.5,"ySR":458.25,"xT1":424.9,"yT1":0,"xT2":1058.1,"yT2":0,"toosoon":0,"cond_shown":"Congruent","ratio_trial":100,"L_num":9,"L_den":15,"R_num":8,"R_den":16,"correct_side":1,"subjID":"martinjuanjimenez12","gender":"0","school":"4","age":"9"},{"start_time":1552327952807,"click_time":1552327953285,"finger_time":1552327953165,"fix_duration":498.60709278029714,"trial":18,"RT":358,"MT":120,"sideResp":1,"stimulus":[],"xmouse":[787,787,787,786,786,786,786,786,786,786,786,786,786,786,786,782,776,726,676,614,559,515,492,475],"ymouse":[518,517,516,514,514,514,514,514,514,514,514,514,514,514,509,499,481,408,347,279,219,168,133,98],"timestamp_mouse":[19,39,58,79,100,119,139,159,179,198,218,239,258,278,298,318,339,358,378,398,418,439,458,478],"xSR":741.5,"ySR":458.25,"xT1":424.9,"yT1":0,"xT2":1058.1,"yT2":0,"toosoon":0,"cond_shown":"Congruent","ratio_trial":100,"L_num":11,"L_den":22,"R_num":4,"R_den":10,"correct_side":1,"subjID":"martinjuanjimenez12","gender":"0","school":"4","age":"9"},{"start_time":1552327957149,"click_time":1552327957686,"finger_time":1552327957546,"fix_duration":1441.8724187012006,"trial":19,"RT":397,"MT":140,"sideResp":2,"stimulus":[],"xmouse":[815,815,815,815,815,815,815,815,815,815,815,815,815,815,815,815,808,800,792,788,791,890,976,1063,1132,1163,1134],"ymouse":[510,510,510,510,510,510,510,510,510,510,510,510,510,510,510,508,493,477,463,451,430,308,234,166,114,85,50],"timestamp_mouse":[16,37,56,77,98,117,137,156,176,196,217,237,257,277,296,316,337,356,378,397,417,436,456,477,496,516,536],"xSR":741.5,"ySR":458.25,"xT1":424.9,"yT1":0,"xT2":1058.1,"yT2":0,"toosoon":0,"cond_shown":"Congruent","ratio_trial":100,"L_num":2,"L_den":5,"R_num":11,"R_den":22,"correct_side":2,"subjID":"martinjuanjimenez12","gender":"0","school":"4","age":"9"},{"start_time":1552327964237,"click_time":1552327964986,"finger_time":1552327964385,"fix_duration":250,"trial":20,"RT":148,"MT":601,"sideResp":1,"stimulus":[],"xmouse":[772,772,772,772,772,774,788,795,801,805,808,809,811,813,813,817,818,808,770,694,586,366,338,328,328,328,328,328,328,328,328,328,329,339,353,375,420,429],"ymouse":[501,501,501,501,502,500,475,458,446,440,437,436,433,428,417,398,342,289,222,152,86,10,5,2,2,2,2,2,2,2,2,2,11,24,37,47,59,60],"timestamp_mouse":[13,42,49,69,89,109,129,148,168,189,209,228,248,268,289,309,329,348,369,389,409,429,448,468,488,508,529,549,569,589,608,629,648,668,688,709,730,749],"xSR":741.5,"ySR":458.25,"xT1":424.9,"yT1":0,"xT2":1058.1,"yT2":0,"toosoon":0,"cond_shown":"Incongruent","ratio_trial":100,"L_num":6,"L_den":12,"R_num":3,"R_den":5,"correct_side":2,"subjID":"martinjuanjimenez12","gender":"0","school":"4","age":"9"},{"start_time":1552327968210,"click_time":1552327968567,"finger_time":1552327968485,"fix_duration":1442.4520160788998,"trial":21,"RT":275,"MT":82,"sideResp":2,"stimulus":[],"xmouse":[772,772,773,775,778,781,784,786,786,786,786,787,789,800,816,845,915,1072],"ymouse":[481,481,478,477,475,473,472,470,470,470,470,469,468,458,442,402,302,22],"timestamp_mouse":[17,44,56,75,95,115,136,156,177,195,217,235,255,275,296,315,335,356],"xSR":741.5,"ySR":458.25,"xT1":424.9,"yT1":0,"xT2":1058.1,"yT2":0,"toosoon":0,"cond_shown":"Congruent","ratio_trial":200,"L_num":8,"L_den":15,"R_num":7,"R_den":21,"correct_side":1,"subjID":"martinjuanjimenez12","gender":"0","school":"4","age":"9"},{"start_time":1552327972024,"click_time":1552327972506,"finger_time":1552327972366,"fix_duration":797.7476991350002,"trial":22,"RT":342,"MT":140,"sideResp":1,"stimulus":[],"xmouse":[761,761,761,761,761,761,761,761,761,761,761,761,761,761,761,761,760,752,742,725,703,670,635,536,514],"ymouse":[473,472,471,471,471,471,471,471,471,471,471,471,471,471,471,471,466,435,400,362,313,262,208,56,7],"timestamp_mouse":[3,22,43,61,82,102,121,141,161,183,202,221,242,262,281,302,321,342,361,381,402,421,441,461,482],"xSR":741.5,"ySR":458.25,"xT1":424.9,"yT1":0,"xT2":1058.1,"yT2":0,"toosoon":0,"cond_shown":"Congruent","ratio_trial":200,"L_num":8,"L_den":15,"R_num":7,"R_den":21,"correct_side":1,"subjID":"martinjuanjimenez12","gender":"0","school":"4","age":"9"},{"start_time":1552327973779,"click_time":1552327974545,"finger_time":1552327974146,"fix_duration":250,"trial":23,"RT":367,"MT":399,"sideResp":1,"stimulus":[],"xmouse":[804,806,806,806,806,806,806,806,806,806,806,804,800,792,781,778,774,763,745,662,613,582,573,570,566,565,563,556,545,518,500,478,462,458,458,458,460,463,467],"ymouse":[528,528,528,528,528,528,528,528,528,528,525,523,518,510,500,496,491,476,451,343,287,249,236,225,212,207,202,193,181,153,140,126,117,115,115,112,108,104,97],"timestamp_mouse":[6,42,46,66,86,107,126,147,167,186,206,226,247,266,287,307,326,346,367,387,406,426,446,467,487,506,526,547,566,586,606,626,646,666,686,706,726,747,766],"xSR":741.5,"ySR":458.25,"xT1":424.9,"yT1":0,"xT2":1058.1,"yT2":0,"toosoon":0,"cond_shown":"Congruent","ratio_trial":300,"L_num":11,"L_den":22,"R_num":4,"R_den":20,"correct_side":1,"subjID":"martinjuanjimenez12","gender":"0","school":"4","age":"9"},{"start_time":1552327978312,"click_time":1552327979065,"finger_time":1552327978686,"fix_duration":1126.2940676313726,"trial":24,"RT":374,"MT":379,"sideResp":1,"stimulus":[],"xmouse":[820,820,820,820,820,820,820,820,819,819,818,817,812,809,805,800,793,780,712,675,645,623,602,597,594,591,588,588,588,588,588,588,556,551,544,539,533,523],"ymouse":[543,543,543,543,542,541,537,533,531,530,529,527,518,513,507,500,488,469,367,321,268,208,114,79,47,21,0,0,0,0,0,0,3,13,24,31,41,55],"timestamp_mouse":[14,38,54,73,94,114,133,153,173,193,213,233,254,273,293,313,334,353,374,393,415,433,454,473,493,513,534,554,573,593,614,633,655,673,693,713,733,753],"xSR":741.5,"ySR":458.25,"xT1":424.9,"yT1":0,"xT2":1058.1,"yT2":0,"toosoon":0,"cond_shown":"Congruent","ratio_trial":200,"L_num":6,"L_den":12,"R_num":7,"R_den":10,"correct_side":2,"subjID":"martinjuanjimenez12","gender":"0","school":"4","age":"9"},{"start_time":1552327980936,"click_time":1552327981906,"finger_time":1552327981286,"fix_duration":269.47456303153973,"trial":25,"RT":350,"MT":620,"sideResp":1,"stimulus":[],"xmouse":[840,840,840,840,840,840,840,840,840,840,840,840,840,840,836,818,799,794,788,780,769,755,751,747,742,734,731,720,717,710,693,675,645,632,615,588,569,543,538,538,538,537,537,536,536,536,530,525,522],"ymouse":[484,484,484,484,484,484,484,484,484,484,484,485,485,485,483,477,465,456,440,421,398,350,333,322,314,300,296,279,274,264,250,238,215,202,185,158,141,115,108,107,106,103,101,99,98,96,88,82,79],"timestamp_mouse":[10,30,50,69,89,110,129,150,170,189,210,229,249,269,289,309,330,350,369,389,409,431,449,470,489,509,529,549,569,589,609,629,649,669,689,710,729,749,769,789,809,831,849,869,889,909,930,949,969],"xSR":741.5,"ySR":458.25,"xT1":424.9,"yT1":0,"xT2":1058.1,"yT2":0,"toosoon":0,"cond_shown":"Incongruent","ratio_trial":300,"L_num":4,"L_den":20,"R_num":2,"R_den":4,"correct_side":2,"subjID":"martinjuanjimenez12","gender":"0","school":"4","age":"9"},{"start_time":1552327983407,"click_time":1552327983926,"finger_time":1552327983666,"fix_duration":361.3464500032536,"trial":26,"RT":259,"MT":260,"sideResp":2,"stimulus":[],"xmouse":[781,781,781,781,781,781,782,792,798,807,813,822,840,853,866,882,898,934,959,981,1001,1020,1070,1093,1116,1131],"ymouse":[513,513,513,513,513,513,512,501,493,486,480,472,455,437,419,398,377,325,297,273,251,229,171,140,113,97],"timestamp_mouse":[36,38,59,79,99,118,138,159,179,198,218,239,259,278,298,318,338,359,378,398,418,438,459,478,498,518],"xSR":741.5,"ySR":458.25,"xT1":424.9,"yT1":0,"xT2":1058.1,"yT2":0,"toosoon":0,"cond_shown":"Congruent","ratio_trial":300,"L_num":20,"L_den":25,"R_num":13,"R_den":26,"correct_side":1,"subjID":"martinjuanjimenez12","gender":"0","school":"4","age":"9"},{"start_time":1552327986812,"click_time":1552327987626,"finger_time":1552327987225,"fix_duration":626.3932399712592,"trial":27,"RT":413,"MT":401,"sideResp":1,"stimulus":[],"xmouse":[807,807,807,807,807,807,807,807,807,807,807,807,807,807,807,807,807,807,807,800,783,761,706,696,691,691,691,691,691,691,691,691,691,691,691,629,620,594,572,543,493],"ymouse":[506,506,506,506,506,506,506,506,506,506,506,506,506,506,506,506,506,506,506,489,449,368,111,43,13,13,13,13,13,13,13,13,13,13,13,5,23,59,71,78,80],"timestamp_mouse":[13,33,54,73,93,114,134,154,174,194,214,233,253,274,294,313,333,353,373,394,413,433,454,473,493,514,534,555,573,594,613,633,654,674,693,713,733,755,773,793,813],"xSR":741.5,"ySR":458.25,"xT1":424.9,"yT1":0,"xT2":1058.1,"yT2":0,"toosoon":0,"cond_shown":"Incongruent","ratio_trial":200,"L_num":3,"L_den":4,"R_num":11,"R_den":20,"correct_side":1,"subjID":"martinjuanjimenez12","gender":"0","school":"4","age":"9"},{"start_time":1552327989377,"click_time":1552327990085,"finger_time":1552327989706,"fix_duration":250,"trial":28,"RT":329,"MT":379,"sideResp":1,"stimulus":[],"xmouse":[754,754,754,754,754,754,754,754,754,754,754,754,754,754,754,755,748,729,692,544,544,544,544,544,544,544,544,544,544,544,544,544,544,544,544,452],"ymouse":[477,477,477,477,477,477,477,477,477,477,477,477,477,477,477,463,429,366,275,21,21,21,21,21,21,21,21,21,21,21,21,21,21,21,21,24],"timestamp_mouse":[23,46,48,68,88,108,128,148,168,188,209,228,249,268,288,309,329,349,368,390,408,429,448,469,488,509,528,548,568,589,608,630,648,669,690,708],"xSR":741.5,"ySR":458.25,"xT1":424.9,"yT1":0,"xT2":1058.1,"yT2":0,"toosoon":0,"cond_shown":"Congruent","ratio_trial":100,"L_num":6,"L_den":20,"R_num":5,"R_den":25,"correct_side":1,"subjID":"martinjuanjimenez12","gender":"0","school":"4","age":"9"},{"start_time":1552327994715,"click_time":1552327995245,"finger_time":1552327995125,"fix_duration":1188.3019986800607,"trial":29,"RT":410,"MT":120,"sideResp":1,"stimulus":[],"xmouse":[798,798,798,798,798,798,798,798,798,798,798,798,798,798,798,798,798,798,798,795,789,771,750,685,628,539,451],"ymouse":[492,492,492,492,492,492,492,492,492,492,492,492,492,492,492,492,492,492,484,462,430,385,331,229,164,85,13],"timestamp_mouse":[12,36,51,71,91,110,131,151,170,191,211,231,250,270,290,311,330,350,370,390,410,430,450,470,490,510,530],"xSR":741.5,"ySR":458.25,"xT1":424.9,"yT1":0,"xT2":1058.1,"yT2":0,"toosoon":0,"cond_shown":"Incongruent","ratio_trial":200,"L_num":3,"L_den":4,"R_num":11,"R_den":20,"correct_side":1,"subjID":"martinjuanjimenez12","gender":"0","school":"4","age":"9"},{"start_time":1552327997676,"click_time":1552327998185,"finger_time":1552327998066,"fix_duration":509.2367299886967,"trial":30,"RT":390,"MT":119,"sideResp":1,"stimulus":[],"xmouse":[785,785,785,785,785,785,785,785,785,786,786,786,786,786,786,786,786,786,786,760,732,685,609,513,457,442],"ymouse":[548,547,547,546,546,544,542,538,536,531,530,530,530,529,529,529,528,521,505,425,382,328,260,173,114,90],"timestamp_mouse":[15,42,50,70,90,109,130,149,170,190,209,229,249,269,289,309,330,349,370,390,409,429,449,469,490,509],"xSR":741.5,"ySR":458.25,"xT1":424.9,"yT1":0,"xT2":1058.1,"yT2":0,"toosoon":0,"cond_shown":"Incongruent","ratio_trial":300,"L_num":4,"L_den":20,"R_num":2,"R_den":4,"correct_side":2,"subjID":"martinjuanjimenez12","gender":"0","school":"4","age":"9"},{"start_time":1552328006366,"click_time":1552328006885,"finger_time":1552328006686,"fix_duration":878.6442685310194,"trial":31,"RT":320,"MT":199,"sideResp":2,"stimulus":[],"xmouse":[799,799,799,799,799,799,799,799,799,799,799,799,799,799,801,805,815,820,831,858,964,1004,1031,1047,1062,1068,1080],"ymouse":[511,511,511,511,511,511,511,511,511,511,511,509,505,502,495,478,435,410,387,357,289,257,227,202,164,139,96],"timestamp_mouse":[1,19,40,60,80,99,119,140,160,179,200,220,240,260,279,299,320,339,359,379,399,419,439,459,480,500,519],"xSR":741.5,"ySR":458.25,"xT1":424.9,"yT1":0,"xT2":1058.1,"yT2":0,"toosoon":0,"cond_shown":"Incongruent","ratio_trial":300,"L_num":4,"L_den":5,"R_num":8,"R_den":16,"correct_side":1,"subjID":"martinjuanjimenez12","gender":"0","school":"4","age":"9"},{"start_time":1552328013982,"click_time":1552328014885,"finger_time":1552328014306,"fix_duration":1216.2364882266513,"trial":32,"RT":324,"MT":579,"sideResp":1,"stimulus":[],"xmouse":[802,802,802,802,804,805,806,807,808,809,809,809,809,809,810,805,788,754,713,687,669,668,668,668,668,665,665,665,665,664,660,650,633,613,585,559,557,556,556,556,555,555,552,542,530,496],"ymouse":[488,488,488,488,486,486,485,485,485,484,484,484,484,484,482,468,436,368,291,217,99,75,71,71,71,78,79,80,80,81,81,81,79,74,68,65,65,65,65,65,65,65,62,56,51,44],"timestamp_mouse":[14,38,44,63,84,103,124,144,163,184,204,223,244,264,284,304,324,344,363,384,403,423,444,463,483,504,523,543,563,585,603,624,643,664,683,703,724,743,763,783,803,824,843,863,883,903],"xSR":741.5,"ySR":458.25,"xT1":424.9,"yT1":0,"xT2":1058.1,"yT2":0,"toosoon":0,"cond_shown":"Incongruent","ratio_trial":200,"L_num":3,"L_den":10,"R_num":1,"R_den":2,"correct_side":2,"subjID":"martinjuanjimenez12","gender":"0","school":"4","age":"9"},{"start_time":1552328017351,"click_time":1552328018067,"finger_time":1552328017705,"fix_duration":1364.898602655141,"trial":33,"RT":354,"MT":362,"sideResp":2,"stimulus":[],"xmouse":[830,830,830,830,830,830,830,830,830,830,830,830,830,830,830,831,831,833,838,864,895,971,1005,1031,1031,1031,1031,1031,1031,1031,1031,1031,1031,1031,1202,1140],"ymouse":[493,493,493,493,493,493,493,493,493,493,493,493,493,493,493,487,473,452,404,332,255,104,48,18,18,18,18,18,18,18,18,18,18,18,15,81],"timestamp_mouse":[15,39,55,74,95,115,135,154,174,195,214,234,254,274,294,315,334,354,374,394,414,434,454,474,495,515,534,554,576,595,614,634,654,674,695,716],"xSR":741.5,"ySR":458.25,"xT1":424.9,"yT1":0,"xT2":1058.1,"yT2":0,"toosoon":0,"cond_shown":"Congruent","ratio_trial":100,"L_num":6,"L_den":20,"R_num":5,"R_den":25,"correct_side":1,"subjID":"martinjuanjimenez12","gender":"0","school":"4","age":"9"},{"start_time":1552328021017,"click_time":1552328021546,"finger_time":1552328021366,"fix_duration":250,"trial":34,"RT":349,"MT":180,"sideResp":1,"stimulus":[],"xmouse":[806,807,808,809,809,809,809,809,809,809,809,809,809,809,809,807,801,762,734,691,636,591,529,527,527,526,521],"ymouse":[495,494,494,494,494,494,494,494,494,494,494,494,494,494,493,486,470,401,346,281,207,144,64,62,62,62,62],"timestamp_mouse":[8,29,53,69,89,108,129,149,169,189,208,228,248,269,288,309,329,349,368,389,408,429,449,468,489,508,528],"xSR":741.5,"ySR":458.25,"xT1":424.9,"yT1":0,"xT2":1058.1,"yT2":0,"toosoon":0,"cond_shown":"Incongruent","ratio_trial":300,"L_num":8,"L_den":10,"R_num":9,"R_den":18,"correct_side":1,"subjID":"martinjuanjimenez12","gender":"0","school":"4","age":"9"},{"start_time":1552328026028,"click_time":1552328026767,"finger_time":1552328026345,"fix_duration":1160.9201379225922,"trial":35,"RT":317,"MT":422,"sideResp":1,"stimulus":[],"xmouse":[777,777,777,778,778,778,779,779,779,779,780,780,783,784,784,776,718,679,642,599,550,550,550,550,550,550,550,550,550,550,550,550,550,550,550,550,450],"ymouse":[484,484,484,484,484,484,484,484,484,484,484,483,482,480,472,454,367,308,244,169,79,79,79,79,79,79,79,79,79,79,79,79,79,79,79,79,14],"timestamp_mouse":[17,37,58,78,98,118,138,158,178,197,217,238,257,277,297,317,338,357,378,397,417,437,458,477,498,517,538,558,577,598,618,637,657,677,697,719,739],"xSR":741.5,"ySR":458.25,"xT1":424.9,"yT1":0,"xT2":1058.1,"yT2":0,"toosoon":0,"cond_shown":"Incongruent","ratio_trial":100,"L_num":6,"L_den":10,"R_num":7,"R_den":14,"correct_side":1,"subjID":"martinjuanjimenez12","gender":"0","school":"4","age":"9"},{"start_time":1552328028720,"click_time":1552328029225,"finger_time":1552328028866,"fix_duration":853.1020372234929,"trial":36,"RT":146,"MT":359,"sideResp":2,"stimulus":[],"xmouse":[780,780,780,780,780,780,780,800,815,833,851,869,896,908,919,931,943,958,997,1015,1037,1054,1088,1097,1103,1107],"ymouse":[469,469,469,469,469,469,469,448,427,402,377,352,313,297,284,269,258,244,210,190,170,155,123,110,102,96],"timestamp_mouse":[6,27,63,65,85,106,125,146,165,185,206,225,246,265,286,305,326,345,365,387,405,425,447,465,485,505],"xSR":741.5,"ySR":458.25,"xT1":424.9,"yT1":0,"xT2":1058.1,"yT2":0,"toosoon":0,"cond_shown":"Incongruent","ratio_trial":100,"L_num":3,"L_den":5,"R_num":11,"R_den":22,"correct_side":1,"subjID":"martinjuanjimenez12","gender":"0","school":"4","age":"9"},{"start_time":1552328033532,"click_time":1552328067365,"finger_time":1552328036806,"fix_duration":1346.3972812695758,"trial":37,"RT":3274,"MT":30559,"sideResp":1,"stimulus":[],"xmouse":[792,792,792,792,792,792,792,792,792,792,792,792,792,792,792,792,792,792,792,792,792,792,792,792,792,792,792,792,792,792,792,792,792,792,792,792,792,792,792,792,792,792,792,792,792,792,792,792,792,792,792,792,792,792,792,792,792,792,792,792,792,792,792,792,792,792,792,792,792,792,792,792,792,792,792,792,792,792,792,792,792,792,792,792,792,792,792,792,792,792,792,792,792,792,792,792,792,792,792,792,792,792,792,792,792,792,792,792,792,792,792,792,792,792,792,792,792,792,792,792,792,792,792,792,792,792,792,792,792,792,792,792,792,792,792,792,792,792,792,795,796,798,798,798,798,798,798,798,798,798,798,798,798,798,798,798,798,798,798,798,798,791,765,740,723,704,704,704,704,704,704,704,704,704,704,704,704,985,987,987,986,986,986,980,973,967,950,935,917,885,827,705,682,674,673,673,673,675,682,693,709,724,725,728,730,733,740,777,792,805,807,807,807,807,809,809,809,809,807,805,803,800,799,799,799,799,799,799,799,799,799,799,799,799,799,801,801,802,804,805,805,805,805,805,805,805,805,805,805,805,805,805,805,805,805,805,805,805,805,805,805,805,805,805,805,805,805,805,805,805,805,805,805,805,805,805,805,805,805,805,805,805,805,805,805,805,805,805,805,805,805,805,804,803,803,803,803,803,802,802,802,801,801,801,800,800,799,799,798,798,796,796,796,796,796,796,796,796,796,796,796,796,796,796,796,796,796,796,796,796,796,796,796,796,796,796,796,796,794,792,791,791,791,791,791,791,791,791,791,791,791,791,791,791,791,791,791,791,791,791,791,785,780,778,778,778,778,778,778,778,778,778,778,778,778,778,778,778,778,778,778,778,778,778,778,778,777,777,776,776,776,776,776,776,776,776,776,776,776,776,776,776,776,776,776,776,776,776,776,776,776,776,776,776,776,776,776,775,775,775,775,775,784,798,803,805,805,805,805,805,805,805,805,805,805,805,811,816,820,824,826,829,829,829,829,829,831,832,833,833,833,829,772,707,629,550,358,326,326,326,326,326,326,326,326,326,326,326,326,326,326,326,326,326,326,326,326,326,326,326,326,326,326,326,326,326,326,326,326,326,326,326,326,326,326,326,326,326,326,326,326,326,326,41,41,49,55,63,70,85,89,90,90,91,98,98,98,98,103,124,131,133,133,133,139,159,178,201,229,270,280,286,294,311,357,399,446,503,573,713,766,799,813,819,806,799,793,792,792,792,794,798,798,798,798,798,799,803,805,806,808,812,814,814,814,814,815,816,817,820,820,820,820,823,823,823,823,823,823,823,798,757,723,721,721,721,722,723,723,723,724,727,727,727,727,727,727,727,727,727,727,727,727,727,727,727,727,727,727,727,727,727,727,727,727,727,727,727,727,727,727,727,727,727,727,727,727,727,727,727,727,727,727,727,727,727,727,727,727,727,727,727,727,727,727,727,727,727,727,727,727,727,727,727,727,727,727,727,727,727,727,727,727,727,727,727,727,727,727,727,727,727,727,727,727,727,727,727,727,727,727,727,727,727,727,727,727,727,727,727,727,727,727,727,727,727,727,727,727,727,727,727,727,727,727,727,727,727,727,727,727,727,727,727,727,727,727,727,727,727,727,727,727,727,618,663,740,822,873,895,896,895,889,881,871,871,871,873,875,879,881,884,886,888,894,896,896,896,896,896,896,896,896,896,896,896,896,897,897,897,897,897,897,897,897,897,897,897,897,897,897,897,897,897,897,897,897,897,897,897,897,897,897,897,897,897,897,897,897,897,897,897,897,897,775,775,775,775,775,775,775,775,775,775,775,775,775,775,775,775,775,775,775,775,796,796,796,796,796,796,796,796,796,796,796,796,1114,1114,1114,1114,1112,1106,1106,1106,1106,1106,1106,1106,1106,1106,1106,127,110,105,112,123,141,167,262,262,262,262,262,262,262,262,262,262,262,262,262,262,1463,1482,1495,1496,1496,1482,1466,1430,1417,1406,1397,1389,1351,1328,1303,1266,1200,990,923,923,923,923,923,923,923,923,923,923,923,923,923,923,923,923,923,923,569,573,574,576,600,622,1051,1369,1369,1369,1369,1369,1369,1369,1369,1369,1369,1369,1369,1369,606,258,132,91,90,101,180,240,302,368,420,420,420,420,420,420,420,895,924,944,960,982,982,982,982,982,987,987,987,987,987,987,987,987,987,987,987,987,987,987,987,987,987,987,987,987,987,987,987,987,987,987,987,987,987,987,987,1262,1250,1249,1249,1249,1249,1248,1234,1211,1096,872,744,624,555,543,551,564,582,582,582,582,582,657,657,645,642,642,641,641,641,641,659,659,659,659,659,659,659,659,659,659,659,659,659,659,659,659,659,659,659,659,659,659,659,659,659,659,659,659,659,659,659,659,659,659,659,659,659,659,659,659,659,659,659,659,659,659,659,846,847,849,849,849,849,849,849,849,849,849,849,849,849,849,465,90,0,0,0,0,0,0,0,0,0,0,0,0,881,1037,1186,1186,1186,1186,1186,1186,1186,1186,1186,1186,1186,1186,1186,1186,1186,1394,1372,1305,1117,1033,1033,1033,1033,1033,1033,1033,1033,1033,1033,1033,1033,1033,1033,1033,1033,1033,509,477,450,423,382,377,376,376,376,422,422,422,422,422,422,422,422,422,422,422,422,422,422,422,422,422,422,422,422,422,422,422,422,422,422,422,422,422,422,422,422,422,422,422,422,422,422,422,20,154,298,434,522,540,532,527,523,520,514,514,514,514,514,514,514,514,513,506,497,477,458,416,329,200,0,0,0,0,0,0,635,858,1066,1348,1531,1531,1531,1531,1531,1531,1531,1574,1574,1574,1574,1574,1574,1574,1574,1574,1574,1574,1574,1574,1574,1574,1574,1574,1574,1574,1574,1574,1574,372,372,372,372,372,379,415,415,415,415,415,415,415,415,446,446,446,446,446,446,446,446,446,446,446,446,450,450,450,450,450,450,450,455,455,455,455,455,450,449,447,434,434,434,435,435,435,435,435,435,435,435,435,435,435,435,509,501,499,504,528,564,855,1052,1322,1322,1322,1322,1322,1322,1322,1322,1322,1322,1322,1322,1322,1322,1322,1322,1322,1322,1322,1322,1322,1322,1322,536,532,528,527,549,568,599,631,665,744,762,762,762,762,762,762,762,762,762,762,762,762,762,762,762,762,762,762,762,762,762,762,762,762,92,0,0,0,0,0,0,0,0,418,1043,1406,1406,1406,1406,1406,1406,1406,1481,1481,1481,1481,1481,1481,1481,92,187,283,334,334,336,335,335,338,338,338,338,338,338,338,338,943,655,402,258,222,222,234,236,236,236,236,236,683,658,220,0,0,0,0,0,0,0,0,0,0,0,0,0,0,0,0,0,0,0,0,1461,1449,1426,1393,1393,1393,1393,1393,1393,1393,1393,1393,1393,1393,968,1057,1066,1067,1067,1037,1019,1024,1024,1024,1024,1024,1024,1024,1024,1024,1024,1024,1024,1024,1024,1024,1024,1024,1024,1024,1024,1236,1259,1277,1304,1453,1532,1532,1532,1532,1532,1532,1532,1532,1532,1532,1532,1532,1532,1532,1532,1532,1532,1532,1532,1532,1532,1532,1532,1578,1571,1563,1551,1538,1516,1508,1503,1500,1500,1498,1497,1496,1495,1495,1495,1494,1494,1494,1494,1499,1502,1507,1513,1518,1523,1523,1523,1519,1511,1507,1503,1503,1503,1503,1503,1504,1504,1495,1452,1452,1452,1452,1452,1452,1452,801,773,771,775,818,896,997,1118,1279,1279,1279,1279,1279,1279,513],"ymouse":[500,500,500,500,500,500,500,500,500,500,500,500,500,500,500,500,500,500,500,500,500,500,500,500,500,500,500,500,500,500,500,500,500,500,500,500,500,500,500,500,500,500,500,500,500,500,500,500,500,500,500,500,500,500,500,500,500,500,500,500,500,500,500,500,500,500,500,500,500,500,500,500,500,500,500,500,500,500,500,500,500,500,500,500,500,500,500,500,500,500,500,500,500,500,500,500,500,500,500,500,500,500,500,500,500,500,500,500,500,500,500,500,500,500,500,500,500,500,500,500,500,500,500,500,500,500,500,500,500,500,500,500,500,500,500,500,500,500,500,487,477,462,462,462,462,462,462,462,462,462,462,462,462,462,462,462,462,462,462,462,462,473,523,567,620,685,685,685,685,685,685,685,685,685,685,685,685,690,687,679,675,675,676,684,691,691,651,604,549,484,405,282,260,250,248,248,248,260,303,364,416,461,463,467,471,478,487,505,509,511,511,493,477,467,464,464,464,464,468,473,476,482,484,485,485,485,485,485,485,485,485,485,485,485,485,485,484,484,483,483,483,483,483,483,483,483,483,483,483,483,483,483,483,483,483,483,483,483,483,483,483,483,483,483,483,483,483,483,483,483,483,483,483,483,483,483,483,483,483,483,483,483,483,483,483,483,483,483,483,483,483,483,483,484,484,485,486,487,489,490,491,491,493,493,494,494,494,495,495,495,496,496,496,496,496,496,496,496,496,496,496,496,496,496,496,496,496,496,496,496,496,496,496,496,496,496,496,496,496,496,496,496,496,496,496,496,496,496,496,496,496,496,496,496,496,496,496,496,496,496,496,496,496,496,496,496,496,496,496,496,496,496,496,496,496,496,496,496,496,496,496,496,496,496,496,496,496,491,489,489,489,489,489,489,489,489,489,489,489,489,489,489,489,489,489,490,491,491,491,491,491,491,491,491,491,491,491,489,489,489,489,507,532,554,563,566,568,568,568,568,568,568,568,568,568,568,554,541,530,518,512,504,502,502,501,501,499,496,493,487,477,460,388,333,267,205,40,10,10,10,10,10,10,10,10,10,10,10,10,10,10,10,10,10,10,10,10,10,10,10,10,10,10,10,10,10,10,10,10,10,10,10,10,10,10,10,10,10,10,10,10,10,10,10,51,96,110,130,153,189,196,197,197,197,180,180,180,191,229,325,339,342,342,342,325,304,295,290,288,291,293,298,313,354,433,477,522,562,589,607,605,595,581,563,512,495,486,484,484,483,482,480,480,480,480,480,661,687,695,697,693,677,654,629,580,570,560,552,543,536,536,536,542,549,549,549,549,549,549,549,516,480,451,449,449,449,449,449,449,449,450,455,455,455,455,455,455,455,455,455,455,455,455,455,455,455,455,455,455,455,455,455,455,455,455,455,455,455,455,455,455,455,455,455,455,455,455,455,455,455,455,455,455,455,455,455,455,455,455,455,455,455,455,455,455,455,455,455,455,455,455,455,455,455,455,455,455,455,455,455,455,455,455,455,455,455,455,455,455,455,455,455,455,455,455,455,455,455,455,455,455,455,455,455,455,455,455,455,455,455,455,455,455,455,455,455,455,455,455,455,455,455,455,455,455,455,455,455,455,455,455,455,455,455,455,455,455,455,455,455,455,455,455,455,647,612,533,470,437,414,400,383,365,345,316,314,311,308,306,297,294,291,287,284,271,269,269,269,269,269,269,269,269,269,269,269,268,269,272,272,272,272,272,272,272,272,272,272,272,272,272,272,272,272,272,272,272,272,272,272,272,272,272,272,272,272,272,272,272,272,272,272,272,272,315,315,315,315,315,315,315,315,315,315,315,315,315,315,315,315,315,315,315,315,315,315,315,315,315,315,315,315,315,315,315,315,222,224,225,229,232,236,236,236,236,236,236,236,236,236,236,259,265,272,305,312,317,323,336,336,336,336,336,336,336,336,336,336,336,336,336,336,702,622,519,470,414,368,330,293,289,288,288,289,304,310,313,316,315,278,261,261,261,261,261,261,261,261,261,261,261,261,261,261,261,261,261,261,114,115,117,121,169,197,314,369,369,369,369,369,369,369,369,369,369,369,369,369,399,399,410,417,417,418,385,354,315,269,232,232,232,232,232,232,232,290,315,337,355,374,375,375,375,375,375,375,375,375,375,375,375,375,375,375,375,375,375,375,375,375,375,375,375,375,375,375,375,375,375,375,375,375,375,375,375,178,173,171,171,171,171,171,193,218,304,401,445,471,477,476,464,430,390,390,390,390,390,288,288,345,359,363,365,365,365,366,344,344,344,344,344,344,344,344,344,344,344,344,344,344,344,344,344,344,344,344,344,344,344,344,344,344,344,344,344,344,344,344,344,344,344,344,344,344,344,344,344,344,344,344,344,344,344,179,179,181,181,181,181,181,181,181,181,181,181,181,181,181,262,267,249,194,142,93,88,88,88,88,88,88,88,88,193,333,620,696,696,696,696,696,696,696,696,696,696,696,696,696,696,506,500,480,458,459,459,459,459,459,459,459,459,459,459,459,459,459,459,459,459,459,313,350,381,404,435,441,443,443,445,430,430,430,430,430,430,430,430,430,430,430,430,430,430,430,430,430,430,430,430,430,430,430,430,430,430,430,430,430,430,430,430,430,430,430,430,430,430,430,24,81,135,182,212,223,230,232,234,235,235,235,235,235,235,235,235,235,226,236,245,263,267,275,275,257,107,81,81,81,81,81,156,211,273,370,447,447,447,447,447,447,447,682,682,682,682,682,682,682,682,682,682,682,682,682,682,682,682,682,682,682,682,682,682,328,328,328,328,325,321,307,307,307,307,307,307,307,307,282,282,282,282,282,282,282,282,282,282,282,282,280,280,280,280,280,280,280,277,277,277,277,277,282,283,283,276,276,276,276,276,276,276,276,276,276,276,276,276,276,276,282,299,313,328,350,363,400,400,400,400,400,400,400,400,400,400,400,400,400,400,400,400,400,400,400,400,400,400,400,400,400,199,198,198,204,231,250,273,293,312,348,356,356,356,356,356,356,356,356,356,356,356,356,356,356,356,356,356,356,356,356,356,356,356,356,195,117,54,3,3,3,3,3,3,6,140,223,223,223,223,223,223,223,331,331,331,331,331,331,331,236,303,357,381,382,383,386,389,401,401,401,401,401,401,401,401,499,430,355,307,296,296,296,296,296,296,296,296,375,381,405,405,365,356,356,357,357,357,357,357,356,350,336,336,336,336,336,336,336,336,336,580,611,642,678,678,678,678,678,678,678,678,678,678,678,680,690,687,671,650,595,575,567,567,567,567,567,567,567,567,567,567,567,567,567,567,567,567,567,567,567,567,484,472,459,442,407,395,395,395,395,395,395,395,395,395,395,395,395,395,395,395,395,395,395,395,395,395,395,395,332,334,339,352,365,392,398,403,405,406,407,409,411,412,413,413,413,413,413,413,408,403,397,390,383,376,376,376,386,400,414,425,425,425,425,399,380,365,354,339,339,339,339,339,339,339,241,256,263,272,277,277,277,277,272,272,272,272,272,272,33],"timestamp_mouse":[13,36,53,74,94,113,133,153,173,193,213,233,254,273,294,313,333,354,373,394,414,433,454,473,492,514,533,554,573,594,612,634,654,674,694,712,734,754,773,793,813,833,854,874,894,914,932,952,973,992,1013,1034,1053,1073,1093,1112,1133,1152,1174,1193,1213,1234,1254,1273,1294,1313,1334,1354,1374,1394,1413,1434,1454,1472,1494,1513,1534,1554,1573,1593,1613,1632,1653,1674,1693,1714,1732,1754,1773,1794,1813,1833,1852,1874,1894,1913,1932,1952,1973,1994,2013,2034,2053,2073,2092,2113,2134,2153,2173,2194,2214,2233,2252,2274,2294,2312,2333,2353,2373,2394,2414,2432,2453,2474,2494,2513,2534,2554,2574,2593,2612,2634,2654,2674,2692,2713,2734,2754,2773,2794,2813,2834,2854,2874,2893,2913,2933,2954,2974,2992,3013,3033,3052,3073,3094,3114,3134,3154,3172,3194,3214,3233,3252,3274,3293,3313,3334,3352,3373,3394,3414,3433,3452,3474,3493,3514,3534,3553,3573,3594,3614,3633,3653,3672,3693,3713,3734,3753,3773,3793,3813,3834,3852,3874,3893,3914,3933,3953,3973,3993,4013,4034,4053,4073,4093,4113,4133,4153,4172,4194,4213,4233,4252,4274,4293,4313,4334,4354,4372,4393,4413,4433,4452,4474,4494,4513,4533,4553,4574,4593,4613,4633,4652,4674,4694,4712,4732,4754,4774,4793,4812,4834,4853,4873,4893,4913,4933,4954,4974,4993,5013,5033,5052,5072,5092,5112,5134,5153,5173,5192,5214,5233,5253,5274,5293,5313,5333,5353,5374,5394,5413,5433,5454,5473,5494,5514,5533,5554,5573,5593,5614,5633,5654,5674,5694,5714,5734,5753,5774,5793,5812,5834,5853,5874,5894,5913,5934,5954,5972,5994,6013,6033,6053,6073,6094,6114,6133,6154,6173,6193,6214,6233,6254,6273,6293,6313,6333,6354,6372,6392,6413,6434,6453,6474,6494,6513,6534,6552,6574,6592,6614,6633,6654,6673,6693,6714,6734,6753,6772,6794,6812,6834,6853,6874,6894,6913,6933,6954,6973,6994,7014,7032,7054,7074,7094,7113,7134,7154,7173,7192,7214,7233,7252,7273,7294,7314,7334,7354,7374,7393,7413,7434,7454,7472,7493,7514,7534,7553,7575,7594,7613,7634,7652,7674,7694,7714,7732,7754,7773,7793,7813,7834,7854,7873,7893,7912,7933,7953,7972,7994,8012,8034,8053,8072,8092,8114,8133,8154,8173,8194,8214,8233,8253,8272,8292,8314,8333,8352,8372,8394,8413,8434,8452,8473,8493,8513,8534,8553,8573,8593,8613,8634,8652,8673,8693,8713,8735,8754,8773,8793,8812,8834,8852,8874,8893,8913,8933,8953,8973,8992,9013,9032,9052,9073,9093,9114,9133,9153,9173,9193,9214,9233,9253,9273,9293,9313,9333,9353,9373,9394,9414,9433,9454,9473,9492,9513,9534,9554,10039,11038,12040,12291,12293,12313,12333,12353,12372,12393,12413,12433,12453,12473,12494,12513,12533,12554,12573,12593,12613,12634,12654,12673,12693,12713,12734,12753,12774,12793,12814,12834,12853,12873,12893,12913,12933,12953,12973,12993,13013,13034,13052,13073,13093,13113,13132,13154,13173,13193,13213,13234,13253,13274,13293,13313,13333,13353,13373,13394,13413,13434,13453,13474,13493,13513,13534,13554,13574,13593,13613,13634,13654,13672,13692,13713,13732,13754,13772,13793,13813,13834,13853,13872,13893,13914,13933,13953,13973,13994,14013,14034,14053,14074,14093,14114,14133,14154,14174,14193,14214,14234,14254,14273,14293,14313,14334,14354,14372,14393,14413,14433,14453,14472,14493,14514,14533,14553,14573,14593,14613,14633,14653,14674,14692,14714,14733,14754,14772,14793,14813,14834,14852,14874,14894,14914,14933,14953,14972,14993,15013,15034,15052,15073,15093,15114,15133,15153,15173,15194,15212,15233,15253,15273,15294,15313,15333,15352,15372,15394,15412,15433,15452,15474,15494,15514,15532,15553,15573,15593,15613,15634,15653,15674,15693,15713,15734,15753,15773,15793,15812,15833,15852,15873,15892,15914,15933,15952,15973,15994,16013,16033,16053,16074,16092,16113,16132,16154,16172,16192,16213,16235,16253,16274,16294,16314,16332,16353,16373,16393,16413,16432,16452,16474,16494,16513,16533,16553,16573,16593,16612,16632,16653,16674,16693,16713,16733,16753,16773,16793,16813,16834,16852,16873,16894,16913,16934,16953,16974,16993,17012,17033,17052,17073,17093,17112,17132,17153,17173,17193,17214,17234,17252,17273,17293,17314,17334,17353,17373,17393,17413,17434,17452,17473,17494,17513,17534,17553,17574,17593,17614,17633,17654,17673,17694,17713,17734,17752,17774,17793,17814,17833,17854,17873,17892,17914,17932,17953,17974,17994,18013,18034,18052,18073,18093,18113,18134,18154,18173,18194,18213,18233,18253,18273,18292,18313,18332,18352,18373,18394,18414,18433,18453,18473,18493,18513,18534,18553,18574,18594,18614,18633,18653,18673,18694,18713,18733,18753,18772,18794,18813,18832,18854,18873,18893,18914,18933,18953,18973,18994,19014,19034,19054,19073,19093,19114,19133,19153,19174,19193,19214,19234,19253,19273,19292,19312,19334,19354,19373,19393,19412,19433,19454,19474,19492,19512,19533,19553,19573,19593,19614,19634,19654,19672,19693,19714,19732,19754,19774,19794,19814,19833,19853,19873,19894,19913,19933,19954,19973,19993,20012,20034,20052,20073,20093,20113,20133,20154,20173,20194,20214,20233,20253,20273,20294,20314,20333,20353,20372,20392,20412,20434,20453,20474,20494,20513,20533,20553,20572,20593,20614,20633,20652,20673,20693,20714,20733,20753,20773,20794,20814,20833,20853,20874,20893,20913,20933,20953,20974,20992,21012,21034,21053,21073,21094,21113,21133,21152,21174,21194,21213,21233,21253,21273,21293,21314,21332,21353,21372,21393,21414,21433,21453,21472,21494,21513,21533,21553,21574,21594,21614,21633,21654,21673,21692,21714,21734,21754,21773,21794,21814,21833,21852,21873,21894,21913,21933,21954,21973,21994,22013,22032,22053,22072,22092,22114,22134,22154,22173,22194,22213,22233,22253,22273,22294,22313,22333,22354,22372,22393,22412,22435,22452,22474,22493,22514,22533,22554,22573,22593,22614,22634,22652,22672,22693,22714,22733,22753,22773,22794,22812,22833,22852,22874,22894,22914,22934,22953,22973,22993,23014,23033,23053,23073,23094,23113,23133,23154,23174,23194,23214,23233,23253,23273,23293,23314,23333,23354,23374,23393,23413,23433,23453,23472,23492,23513,23534,23554,23573,23593,23614,23634,23654,23673,23693,23713,23732,23753,23773,23793,23814,23833,23852,23873,23893,23914,23933,23954,23973,23994,24014,24033,24053,24073,24092,24113,24133,24153,24174,24193,24212,24233,24252,24273,24294,24313,24335,24353,24373,24393,24412,24434,24453,24473,24492,24513,24533,24552,24573,24594,24614,24633,24654,24674,24694,24712,24734,24753,24773,24793,24813,24834,24852,24873,24894,24914,24933,24954,24973,24992,25014,25033,25053,25074,25093,25114,25133,25152,25173,25192,25212,25234,25253,25273,25293,25313,25333,25354,25374,25393,25414,25433,25454,25474,25494,25513,25533,25553,25573,25594,25613,25633,25654,25674,25693,25713,25733,25753,25773,25793,25814,25833,25853,25874,25892,25914,25933,25954,25974,25994,26014,26033,26053,26073,26093,26114,26134,26153,26172,26193,26214,26233,26254,26274,26293,26313,26334,26352,26374,26394,26413,26434,26452,26473,26493,26514,26534,26554,26574,26593,26613,26633,26652,26673,26693,26713,26733,26753,26773,26793,26814,26833,26854,26873,26893,26914,26933,26953,26973,26994,27013,27034,27053,27074,27093,27113,27133,27153,27174,27193,27213,27234,27252,27273,27292,27313,27334,27354,27374,27393,27413,27434,27453,27473,27493,27513,27534,27553,27574,27593,27613,27633,27654,27673,27693,27714,27733,27754,27773,27793,27814,27833,27853,27872,27892,27914,27933,27954,27973,27993,28013,28033,28053,28072,28094,28114,28133,28153,28174,28193,28213,28232,28252,28274,28294,28314,28334,28353,28373,28393,28413,28433,28453,28473,28493,28513,28532,28553,28573,28593,28614,28633,28654,28674,28693,28713,28732,28752,28773,28793,28814,28832,28853,28874,28894,28913,28933,28953,28973,28994,29013,29034,29053,29073,29092,29113,29134,29153,29173,29193,29214,29233,29252,29273,29292,29312,29334,29353,29373,29394,29413,29433,29453,29473,29494,29514,29533,29554,29573,29594,29613,29633,29652,29674,29694,29713,29733,29752,29772,29793,29813,29833,29853,29873,29894,29913,29934,29953,29974,29994,30014,30034,30053,30073,30092,30114,30133,30153,30173,30194,30213,30233,30254,30272,30292,30313,30333,30352,30373,30393,30413,30433,30454,30474,30493,30514,30533,30554,30573,30593,30614,30633,30653,30673,30693,30712,30733,30754,30774,30794,30813,30833,30852,30873,30892,30913,30934,30953,30973,30993,31013,31033,31054,31074,31092,31113,31132,31154,31173,31194,31213,31234,31253,31273,31293,31313,31333,31353,31374,31394,31412,31433,31454,31473,31494,31513,31533,31553,31573,31593,31614,31633,31652,31674,31693,31713,31734,31754,31774,31794,31814,31833,31854,31873,31893,31913,31933,31953,31973,31994,32014,32034,32052,32073,32093,32113,32132,32153,32172,32194,32213,32233,32252,32273,32294,32314,32334,32354,32372,32394,32413,32433,32452,32473,32493,32512,32534,32552,32573,32594,32613,32635,32653,32673,32694,32713,32734,32753,32773,32793,32814,32834,32852,32874,32893,32914,32932,32953,32974,32993,33012,33034,33053,33074,33093,33114,33134,33152,33172,33192,33213,33234,33253,33273,33294,33314,33333,33353,33373,33394,33413,33434,33452,33474,33493,33513,33533,33553,33573,33593,33614,33632,33653,33674,33694,33714,33733,33753,33773,33792,33814,33833],"xSR":741.5,"ySR":458.25,"xT1":424.9,"yT1":0,"xT2":1058.1,"yT2":0,"toosoon":0,"cond_shown":"Incongruent","ratio_trial":200,"L_num":4,"L_den":5,"R_num":6,"R_den":10,"correct_side":1,"subjID":"martinjuanjimenez12","gender":"0","school":"4","age":"9"},{"start_time":1552328073656,"click_time":1552328074367,"finger_time":1552328074025,"fix_duration":250,"trial":38,"RT":369,"MT":342,"sideResp":1,"stimulus":[],"xmouse":[807,807,807,807,807,807,807,807,807,806,806,803,803,801,800,798,796,795,795,786,775,720,698,678,663,650,647,645,643,642,642,636,617,578,546,520],"ymouse":[518,518,518,518,518,518,518,518,518,518,518,517,517,514,512,504,493,477,454,423,382,252,198,152,117,82,73,68,65,63,63,61,55,38,24,13],"timestamp_mouse":[12,45,49,68,89,110,128,149,169,189,208,230,248,270,289,309,329,348,369,388,408,429,449,468,488,510,529,548,569,590,610,629,649,669,688,711],"xSR":741.5,"ySR":458.25,"xT1":424.9,"yT1":0,"xT2":1058.1,"yT2":0,"toosoon":0,"cond_shown":"Congruent","ratio_trial":200,"L_num":16,"L_den":30,"R_num":9,"R_den":27,"correct_side":1,"subjID":"martinjuanjimenez12","gender":"0","school":"4","age":"9"},{"start_time":1552328076873,"click_time":1552328077867,"finger_time":1552328077265,"fix_duration":766.1115134345976,"trial":39,"RT":392,"MT":602,"sideResp":1,"stimulus":[],"xmouse":[767,767,767,767,767,767,767,767,767,767,767,767,767,767,767,767,769,770,770,757,653,587,587,587,587,587,587,587,587,587,587,587,587,587,587,587,587,587,587,587,587,587,587,587,587,587,433],"ymouse":[492,492,492,492,492,492,492,492,492,492,492,492,492,492,492,492,493,489,473,420,157,32,32,32,32,32,32,32,32,32,32,32,32,32,32,32,32,32,32,32,32,32,32,32,32,32,30],"timestamp_mouse":[12,35,52,71,93,112,132,152,172,193,212,231,252,272,292,313,333,352,372,391,412,431,451,472,492,512,532,552,573,669,673,693,713,733,752,772,792,812,833,852,872,892,912,933,953,971,994],"xSR":741.5,"ySR":458.25,"xT1":424.9,"yT1":0,"xT2":1058.1,"yT2":0,"toosoon":0,"cond_shown":"Congruent","ratio_trial":200,"L_num":11,"L_den":22,"R_num":3,"R_den":10,"correct_side":1,"subjID":"martinjuanjimenez12","gender":"0","school":"4","age":"9"},{"start_time":1552328088858,"click_time":1552328089286,"finger_time":1552328089165,"fix_duration":1452.525652370922,"trial":40,"RT":307,"MT":121,"sideResp":1,"stimulus":[],"xmouse":[799,799,799,799,799,800,800,801,802,802,805,807,811,815,820,825,822,796,750,683,597,505],"ymouse":[504,504,504,504,504,503,503,502,501,500,498,494,489,478,463,424,398,348,278,197,105,13],"timestamp_mouse":[13,42,47,68,87,107,127,147,166,188,207,227,246,268,287,307,326,347,366,387,407,428],"xSR":741.5,"ySR":458.25,"xT1":424.9,"yT1":0,"xT2":1058.1,"yT2":0,"toosoon":0,"cond_shown":"Incongruent","ratio_trial":200,"L_num":4,"L_den":6,"R_num":14,"R_den":30,"correct_side":1,"subjID":"martinjuanjimenez12","gender":"0","school":"4","age":"9"},{"start_time":1552328096118,"click_time":1552328096665,"finger_time":1552328096565,"fix_duration":711.5663318274733,"trial":41,"RT":447,"MT":100,"sideResp":1,"stimulus":[],"xmouse":[761,761,762,769,773,778,780,782,782,782,782,782,782,782,782,782,782,782,782,784,784,781,707,647,593,544,533,515],"ymouse":[539,539,539,531,528,525,523,522,521,521,521,521,521,521,521,521,521,521,521,516,501,474,344,264,193,126,112,82],"timestamp_mouse":[25,27,47,67,87,107,128,146,166,188,206,226,248,266,288,307,326,347,368,387,407,427,447,466,487,506,528,546],"xSR":741.5,"ySR":458.25,"xT1":424.9,"yT1":0,"xT2":1058.1,"yT2":0,"toosoon":0,"cond_shown":"Congruent","ratio_trial":200,"L_num":7,"L_den":15,"R_num":18,"R_den":27,"correct_side":2,"subjID":"martinjuanjimenez12","gender":"0","school":"4","age":"9"},{"start_time":1552328099171,"click_time":1552328099766,"finger_time":1552328099664,"fix_duration":1044.9403409265747,"trial":42,"RT":493,"MT":102,"sideResp":2,"stimulus":[],"xmouse":[785,785,785,785,785,785,785,785,785,785,785,785,785,785,785,785,785,785,785,785,785,785,786,796,813,870,905,941,981,1095],"ymouse":[496,496,496,496,496,496,496,496,496,496,496,496,496,496,496,496,496,496,496,496,496,496,490,475,452,379,329,280,222,95],"timestamp_mouse":[13,44,53,74,94,113,133,154,174,195,215,235,254,275,294,313,333,354,375,394,414,433,454,475,493,513,534,554,574,594],"xSR":741.5,"ySR":458.25,"xT1":424.9,"yT1":0,"xT2":1058.1,"yT2":0,"toosoon":0,"cond_shown":"Incongruent","ratio_trial":300,"L_num":1,"L_den":2,"R_num":3,"R_den":15,"correct_side":1,"subjID":"martinjuanjimenez12","gender":"0","school":"4","age":"9"},{"start_time":1552328110671,"click_time":1552328111126,"finger_time":1552328110985,"fix_duration":1005.6395141079208,"trial":43,"RT":314,"MT":141,"sideResp":2,"stimulus":[],"xmouse":[771,771,771,771,771,771,771,771,771,771,771,771,771,771,774,775,778,781,791,814,987,1052,1093],"ymouse":[481,481,481,481,481,481,481,481,481,481,481,481,481,480,469,457,439,415,384,340,166,93,33],"timestamp_mouse":[13,49,53,74,94,115,134,154,175,194,214,235,255,273,294,314,334,354,374,393,413,434,455],"xSR":741.5,"ySR":458.25,"xT1":424.9,"yT1":0,"xT2":1058.1,"yT2":0,"toosoon":0,"cond_shown":"Congruent","ratio_trial":300,"L_num":1,"L_den":5,"R_num":11,"R_den":22,"correct_side":2,"subjID":"martinjuanjimenez12","gender":"0","school":"4","age":"9"},{"start_time":1552328113843,"click_time":1552328114744,"finger_time":1552328114265,"fix_duration":876.5170073338196,"trial":44,"RT":422,"MT":479,"sideResp":1,"stimulus":[],"xmouse":[828,828,828,828,828,828,828,828,828,828,828,828,828,828,828,829,832,836,838,838,838,827,816,803,785,757,701,674,634,550,395,366,371,389,418,446,461,462,462,462,462,462,464,468,472,476],"ymouse":[526,526,526,526,526,526,526,526,526,526,526,526,526,526,525,523,516,508,501,491,478,435,417,399,379,354,313,295,271,229,146,128,128,130,134,139,140,140,140,140,140,140,136,124,108,89],"timestamp_mouse":[9,22,47,62,83,101,121,143,162,182,202,222,243,261,282,301,322,342,363,381,402,422,442,462,481,502,522,541,562,582,602,622,642,662,683,702,721,741,763,783,802,822,842,863,882,901],"xSR":741.5,"ySR":458.25,"xT1":424.9,"yT1":0,"xT2":1058.1,"yT2":0,"toosoon":0,"cond_shown":"Congruent","ratio_trial":300,"L_num":24,"L_den":30,"R_num":2,"R_den":4,"correct_side":1,"subjID":"martinjuanjimenez12","gender":"0","school":"4","age":"9"},{"start_time":1552328117016,"click_time":1552328118846,"finger_time":1552328117425,"fix_duration":250,"trial":45,"RT":409,"MT":1421,"sideResp":1,"stimulus":[],"xmouse":[762,762,761,761,760,760,760,760,760,760,760,758,758,758,758,758,758,758,758,756,747,712,555,210,210,210,210,210,210,210,210,210,210,210,210,210,210,210,210,210,210,210,210,210,210,210,210,210,210,210,210,210,210,210,210,210,210,210,210,210,210,210,210,210,210,210,210,210,210,210,210,210,210,210,210,210,210,210,210,210,210,210,210,210,210,210,210,210,210,210,210,510],"ymouse":[512,512,512,512,513,513,513,513,513,513,513,513,513,513,513,513,513,507,490,469,445,398,267,33,33,33,33,33,33,33,33,33,33,33,33,33,33,33,33,33,33,33,33,33,33,33,33,33,33,33,33,33,33,33,33,33,33,33,33,33,33,33,33,33,33,33,33,33,33,33,33,33,33,33,33,33,33,33,33,33,33,33,33,33,33,33,33,33,33,33,33,66],"timestamp_mouse":[14,36,49,69,89,109,129,149,168,190,209,229,248,270,289,310,330,349,369,389,409,430,449,470,488,508,528,550,568,589,608,628,648,668,688,710,728,749,770,789,810,829,849,868,888,908,928,950,969,989,1008,1028,1048,1070,1089,1110,1128,1149,1168,1189,1208,1228,1250,1269,1289,1308,1329,1350,1368,1389,1409,1430,1449,1469,1488,1509,1530,1549,1569,1589,1609,1628,1649,1668,1689,1708,1728,1749,1769,1789,1809,1830],"xSR":741.5,"ySR":458.25,"xT1":424.9,"yT1":0,"xT2":1058.1,"yT2":0,"toosoon":0,"cond_shown":"Incongruent","ratio_trial":100,"L_num":6,"L_den":12,"R_num":3,"R_den":5,"correct_side":2,"subjID":"martinjuanjimenez12","gender":"0","school":"4","age":"9"},{"start_time":1552328121591,"click_time":1552328124805,"finger_time":1552328123505,"fix_duration":1344.560873243593,"trial":46,"RT":1914,"MT":1300,"sideResp":2,"stimulus":[],"xmouse":[775,775,775,775,775,775,775,775,775,775,775,775,775,775,775,775,775,775,775,775,775,775,775,775,775,775,775,775,775,775,775,775,775,775,775,775,775,775,775,775,775,775,775,775,775,775,775,775,775,775,775,775,775,775,775,775,775,775,775,775,775,775,775,775,775,775,775,775,775,775,775,775,775,775,775,775,775,775,775,775,775,775,775,775,775,775,775,775,775,775,775,775,775,775,775,1003,1003,1003,1019,1029,1039,1045,1046,1042,1023,996,940,859,636,547,510,503,503,505,526,530,535,544,556,570,587,605,607,614,623,643,659,672,686,691,691,691,691,709,744,786,837,894,981,1008,1021,1027,1031,1043,1044,1044,1044,1044,1044,1044,1044,1044,1044,1047,1052,1054,1055,1056,1056,1056,1059],"ymouse":[503,503,503,503,503,503,503,503,503,503,503,503,503,503,503,503,503,503,503,503,503,503,503,503,503,503,503,503,503,503,503,503,503,503,503,503,503,503,503,503,503,503,503,503,503,503,503,503,503,503,503,503,503,503,503,503,503,503,503,503,503,503,503,503,503,503,503,503,503,503,503,503,503,503,503,503,503,503,503,503,503,503,503,503,503,503,503,503,503,503,503,503,503,503,503,214,274,363,523,535,536,515,482,447,438,438,443,465,517,528,529,526,521,507,479,478,478,479,488,503,523,544,549,559,563,565,557,540,500,482,469,462,457,416,373,322,261,199,127,105,95,88,84,77,75,73,69,66,60,60,60,60,60,60,62,63,64,65,65,65,62],"timestamp_mouse":[14,41,53,74,93,113,134,155,173,193,214,234,253,273,295,313,334,353,374,393,414,433,453,473,495,514,535,554,574,595,614,633,653,674,693,713,734,755,774,794,814,834,853,874,894,914,935,953,974,993,1013,1035,1054,1074,1094,1113,1134,1154,1174,1194,1215,1235,1253,1275,1295,1314,1333,1354,1373,1395,1414,1435,1453,1475,1493,1515,1534,1553,1574,1593,1614,1633,1654,1673,1694,1713,1733,1753,1774,1793,1815,1833,1854,1873,1893,1914,1934,1953,1973,1993,2014,2034,2053,2074,2094,2114,2134,2154,2174,2193,2214,2234,2253,2273,2294,2314,2334,2354,2374,2393,2413,2433,2454,2474,2493,2514,2534,2554,2574,2593,2614,2634,2654,2674,2694,2713,2734,2753,2774,2794,2815,2834,2855,2874,2893,2914,2935,2954,2974,2993,3015,3034,3053,3074,3094,3114,3135,3154,3175,3195,3214],"xSR":741.5,"ySR":458.25,"xT1":424.9,"yT1":0,"xT2":1058.1,"yT2":0,"toosoon":0,"cond_shown":"Incongruent","ratio_trial":200,"L_num":3,"L_den":4,"R_num":11,"R_den":20,"correct_side":1,"subjID":"martinjuanjimenez12","gender":"0","school":"4","age":"9"},{"start_time":1552328127673,"click_time":1552328128465,"finger_time":1552328127719,"fix_duration":327.22445131998734,"trial":47,"RT":46,"MT":746,"sideResp":1,"stimulus":[],"xmouse":[785,784,784,780,776,774,770,769,768,767,767,767,767,767,767,767,762,754,732,696,682,670,664,657,650,648,646,635,617,608,607,603,598,592,576,569,563,559,547,511],"ymouse":[464,456,456,431,404,389,379,372,367,366,366,366,366,365,363,358,348,335,307,268,254,244,238,231,223,222,222,218,214,208,203,193,179,161,125,114,105,102,96,87],"timestamp_mouse":[17,46,51,72,92,112,133,152,171,193,212,232,253,272,292,311,332,351,371,392,411,431,453,472,492,511,532,552,571,593,613,631,652,672,691,712,733,752,772,792],"xSR":741.5,"ySR":458.25,"xT1":424.9,"yT1":0,"xT2":1058.1,"yT2":0,"toosoon":0,"cond_shown":"Incongruent","ratio_trial":100,"L_num":10,"L_den":25,"R_num":9,"R_den":18,"correct_side":2,"subjID":"martinjuanjimenez12","gender":"0","school":"4","age":"9"},{"start_time":1552328134785,"click_time":1552328135884,"finger_time":1552328135145,"fix_duration":778.0122782443694,"trial":48,"RT":360,"MT":739,"sideResp":1,"stimulus":[],"xmouse":[797,797,797,797,797,797,797,797,797,797,797,797,797,797,797,797,797,796,792,756,717,674,648,643,643,643,643,643,643,643,643,636,622,605,572,560,555,551,544,537,534,534,534,534,534,534,534,534,534,534,534,534,534,534,531,508],"ymouse":[494,494,494,494,494,494,494,494,494,494,494,494,494,494,494,494,494,476,452,379,333,295,276,270,270,270,270,270,270,270,264,251,234,214,173,150,139,126,115,102,98,98,98,98,98,98,98,98,98,98,98,98,98,98,95,75],"timestamp_mouse":[9,38,40,60,80,100,121,140,160,180,199,220,241,260,280,299,319,340,360,380,399,420,440,459,481,501,520,539,559,581,599,621,640,660,680,700,720,739,760,780,799,820,840,859,881,900,920,940,960,980,1000,1020,1041,1060,1079,1099],"xSR":741.5,"ySR":458.25,"xT1":424.9,"yT1":0,"xT2":1058.1,"yT2":0,"toosoon":0,"cond_shown":"Incongruent","ratio_trial":100,"L_num":10,"L_den":25,"R_num":8,"R_den":16,"correct_side":2,"subjID":"martinjuanjimenez12","gender":"0","school":"4","age":"9"},{"start_time":1552328142635,"click_time":1552328143765,"finger_time":1552328143125,"fix_duration":649.5882105593487,"trial":49,"RT":490,"MT":640,"sideResp":1,"stimulus":[],"xmouse":[790,790,790,790,790,790,790,790,790,790,790,790,790,790,790,790,790,790,790,790,790,789,786,782,776,771,742,726,712,698,688,683,681,681,681,681,681,680,679,674,667,645,637,630,623,620,612,605,596,583,573,565,565,565,565,563,523],"ymouse":[499,499,499,499,499,499,499,499,499,499,499,499,499,499,499,499,499,499,499,499,499,494,476,463,450,436,393,371,351,332,311,292,284,278,274,270,263,259,251,239,224,172,154,135,114,100,86,79,71,64,58,52,52,52,52,52,55],"timestamp_mouse":[10,33,49,70,91,109,129,150,170,191,211,230,249,271,291,309,329,351,369,390,410,429,450,469,490,510,530,549,570,590,611,630,649,670,690,710,730,749,769,790,810,831,850,870,890,910,930,949,970,990,1011,1030,1049,1070,1091,1110,1130],"xSR":741.5,"ySR":458.25,"xT1":424.9,"yT1":0,"xT2":1058.1,"yT2":0,"toosoon":0,"cond_shown":"Congruent","ratio_trial":200,"L_num":16,"L_den":30,"R_num":9,"R_den":27,"correct_side":1,"subjID":"martinjuanjimenez12","gender":"0","school":"4","age":"9"},{"start_time":1552328164785,"click_time":1552328165404,"finger_time":1552328165244,"fix_duration":640.7341699644237,"trial":50,"RT":459,"MT":160,"sideResp":1,"stimulus":[],"xmouse":[807,807,807,806,806,806,806,806,806,806,806,806,806,806,806,806,806,806,806,802,800,788,757,733,711,703,697,687,624,570,520],"ymouse":[526,526,526,526,526,526,526,526,526,526,526,526,526,527,527,527,527,527,527,518,508,481,419,386,341,319,296,263,152,93,34],"timestamp_mouse":[24,47,58,79,100,120,140,159,179,200,219,240,260,279,300,318,339,360,379,399,420,439,459,479,499,518,539,559,579,599,619],"xSR":741.5,"ySR":458.25,"xT1":424.9,"yT1":0,"xT2":1058.1,"yT2":0,"toosoon":0,"cond_shown":"Congruent","ratio_trial":300,"L_num":8,"L_den":15,"R_num":10,"R_den":12,"correct_side":2,"subjID":"martinjuanjimenez12","gender":"0","school":"4","age":"9"},{"start_time":1552328174662,"click_time":1552328175384,"finger_time":1552328175024,"fix_duration":477.3941023720477,"trial":51,"RT":362,"MT":360,"sideResp":1,"stimulus":[],"xmouse":[783,783,783,783,783,783,783,783,783,783,783,783,783,783,783,783,778,766,738,688,536,502,490,488,488,494,495,495,495,495,496,497,497,497,497,487,459],"ymouse":[519,522,523,523,523,523,523,523,523,523,523,523,523,523,523,524,511,483,440,378,212,174,155,148,144,137,136,136,136,135,135,135,135,135,135,115,84],"timestamp_mouse":[9,22,51,63,83,102,121,143,163,183,202,222,243,263,283,302,322,342,362,383,403,422,442,461,481,502,522,543,562,583,602,622,642,662,682,703,721],"xSR":741.5,"ySR":458.25,"xT1":424.9,"yT1":0,"xT2":1058.1,"yT2":0,"toosoon":0,"cond_shown":"Congruent","ratio_trial":300,"L_num":2,"L_den":10,"R_num":12,"R_den":24,"correct_side":2,"subjID":"martinjuanjimenez12","gender":"0","school":"4","age":"9"},{"start_time":1552328177243,"click_time":1552328177965,"finger_time":1552328177484,"fix_duration":596.801582239164,"trial":52,"RT":241,"MT":481,"sideResp":2,"stimulus":[],"xmouse":[791,791,791,791,791,791,792,794,796,799,800,814,821,834,849,864,908,931,957,982,1000,1028,1029,1030,1031,1033,1038,1038,1039,1039,1039,1042,1049,1054,1058,1059,1066],"ymouse":[506,506,506,506,506,506,506,504,501,496,492,462,445,420,389,354,266,228,192,161,142,116,114,112,108,103,91,89,88,88,88,90,97,99,101,101,95],"timestamp_mouse":[9,37,42,61,81,101,122,141,161,180,202,221,241,260,282,301,322,340,362,381,400,422,441,461,482,501,521,540,561,581,601,621,641,661,681,701,722],"xSR":741.5,"ySR":458.25,"xT1":424.9,"yT1":0,"xT2":1058.1,"yT2":0,"toosoon":0,"cond_shown":"Congruent","ratio_trial":300,"L_num":1,"L_den":5,"R_num":6,"R_den":12,"correct_side":2,"subjID":"martinjuanjimenez12","gender":"0","school":"4","age":"9"},{"start_time":1552328181296,"click_time":1552328182865,"finger_time":1552328182125,"fix_duration":250,"trial":53,"RT":829,"MT":740,"sideResp":2,"stimulus":[],"xmouse":[829,829,829,829,829,829,829,829,829,829,829,829,829,829,829,829,829,829,829,829,829,829,829,829,829,829,829,829,829,829,829,829,829,829,829,829,829,829,830,837,840,842,847,859,867,877,884,893,899,923,932,942,947,948,948,949,952,960,986,994,997,1000,1002,1009,1013,1018,1022,1027,1032,1034,1034,1034,1037,1048,1052,1055,1056,1058,1069],"ymouse":[528,528,528,528,528,528,528,528,528,528,528,528,528,528,528,528,528,528,528,528,528,528,528,528,528,528,528,528,528,528,528,528,528,528,528,528,528,528,528,526,522,517,506,479,464,447,430,400,379,336,319,299,281,264,232,219,212,202,185,180,178,176,175,175,173,171,168,163,155,143,136,130,125,119,117,114,111,108,97],"timestamp_mouse":[21,39,48,68,88,109,129,149,167,189,209,228,248,268,289,309,328,347,369,388,409,428,449,469,489,507,528,548,568,589,609,628,647,668,688,708,728,748,767,788,808,829,848,868,888,909,928,948,967,988,1007,1028,1049,1068,1089,1108,1129,1149,1168,1188,1208,1229,1248,1269,1288,1308,1328,1348,1369,1388,1408,1429,1447,1469,1488,1508,1528,1549,1569],"xSR":741.5,"ySR":458.25,"xT1":424.9,"yT1":0,"xT2":1058.1,"yT2":0,"toosoon":0,"cond_shown":"Incongruent","ratio_trial":300,"L_num":13,"L_den":26,"R_num":12,"R_den":15,"correct_side":2,"subjID":"martinjuanjimenez12","gender":"0","school":"4","age":"9"},{"start_time":1552328194825,"click_time":1552328195325,"finger_time":1552328195223,"fix_duration":559.9798641462296,"trial":54,"RT":398,"MT":102,"sideResp":1,"stimulus":[],"xmouse":[810,810,810,810,810,809,808,807,806,806,806,806,806,806,805,804,803,802,799,793,768,698,566,495,446],"ymouse":[520,520,520,519,517,514,509,507,505,503,502,500,498,497,494,492,483,476,464,443,402,309,185,130,99],"timestamp_mouse":[19,39,66,79,100,118,139,159,178,200,220,239,260,279,299,319,339,359,379,398,419,439,459,479,499],"xSR":741.5,"ySR":458.25,"xT1":424.9,"yT1":0,"xT2":1058.1,"yT2":0,"toosoon":0,"cond_shown":"Incongruent","ratio_trial":100,"L_num":2,"L_den":4,"R_num":6,"R_den":15,"correct_side":1,"subjID":"martinjuanjimenez12","gender":"0","school":"4","age":"9"},{"start_time":1552328197336,"click_time":1552328198444,"finger_time":1552328197345,"fix_duration":250,"trial":55,"RT":9,"MT":1099,"sideResp":1,"stimulus":[],"xmouse":[793,792,791,791,791,791,791,790,790,790,790,790,790,790,790,790,788,788,788,788,788,786,781,774,772,772,772,774,775,775,775,775,775,775,775,777,786,788,789,791,791,791,791,791,791,789,785,771,762,749,736,728,696,640,587,510],"ymouse":[457,456,456,456,456,456,456,456,456,456,456,456,441,422,409,402,393,393,393,393,393,408,421,433,440,448,450,451,451,453,456,461,463,463,464,464,464,464,464,464,461,457,456,455,454,452,446,411,384,340,299,271,231,197,156,89],"timestamp_mouse":[9,29,48,68,88,109,127,148,167,188,209,228,248,269,289,308,329,348,368,389,409,428,447,469,488,509,529,549,568,588,609,629,648,668,689,709,728,749,768,787,807,829,848,868,888,907,929,948,968,989,1008,1028,1048,1068,1089,1108],"xSR":741.5,"ySR":458.25,"xT1":424.9,"yT1":0,"xT2":1058.1,"yT2":0,"toosoon":0,"cond_shown":"Incongruent","ratio_trial":200,"L_num":7,"L_den":15,"R_num":6,"R_den":9,"correct_side":2,"subjID":"martinjuanjimenez12","gender":"0","school":"4","age":"9"},{"start_time":1552328201163,"click_time":1552328204344,"finger_time":1552328201465,"fix_duration":837.1164966491848,"trial":56,"RT":302,"MT":2879,"sideResp":1,"stimulus":[],"xmouse":[774,774,774,774,774,774,774,774,774,774,774,774,774,774,774,722,590,369,44,0,0,0,0,0,0,397,0,0,0,0,0,0,0,0,0,568,0,0,0,0,0,0,0,0,1353,63,0,0,0,321,962,962,962,962,962,0,135,782,782,782,782,782,782,782,782,782,782,782,782,782,782,155,724,1369,1369,1369,1369,1369,1369,1369,1369,363,859,859,859,859,859,859,859,859,859,859,859,859,1424,541,0,0,0,0,0,0,0,0,0,0,0,0,0,0,93,369,369,369,369,369,369,369,369,369,369,369,369,369,369,764,743,727,717,711,709,709,709,709,708,681,659,628,599,568,547,525,520,518,516,516,516,516,516,518,554,576,593,603,609,601,584,557,519,479],"ymouse":[502,502,502,502,502,502,502,502,502,502,502,502,502,502,502,482,453,419,341,202,202,202,202,202,202,23,8,8,8,8,8,8,8,8,8,84,87,87,87,87,87,87,87,87,31,340,452,445,405,279,256,256,256,256,256,552,339,67,67,67,67,67,67,67,67,67,67,67,67,67,67,15,225,382,382,382,382,382,382,382,382,381,114,114,114,114,114,114,114,114,114,114,114,114,17,325,414,397,281,146,25,25,25,25,25,25,25,25,25,25,251,16,16,16,16,16,16,16,16,16,16,16,16,16,16,59,127,197,262,319,348,373,375,375,377,384,391,399,408,416,422,426,426,426,425,425,425,425,425,425,419,414,408,404,396,331,290,236,169,97],"timestamp_mouse":[11,32,42,61,82,101,121,141,160,181,201,222,241,261,281,302,321,342,360,381,402,421,442,462,481,503,520,541,561,580,601,620,641,662,681,702,721,741,762,781,802,821,842,862,882,902,921,941,961,982,1004,1021,1041,1062,1081,1103,1121,1142,1161,1181,1202,1221,1241,1262,1282,1301,1321,1340,1362,1381,1401,1420,1441,1460,1481,1501,1521,1542,1561,1581,1601,1621,1641,1661,1682,1703,1721,1741,1762,1781,1804,1821,1841,1862,1882,1902,1921,1940,1961,1982,2003,2021,2041,2061,2081,2104,2121,2141,2161,2181,2203,2221,2241,2262,2282,2301,2321,2340,2361,2382,2402,2421,2442,2462,2482,2501,2522,2541,2561,2581,2601,2622,2641,2662,2681,2702,2721,2741,2761,2781,2802,2821,2842,2862,2882,2901,2921,2941,2960,2982,3001,3021,3042,3062,3081,3101,3121,3140,3161,3181],"xSR":741.5,"ySR":458.25,"xT1":424.9,"yT1":0,"xT2":1058.1,"yT2":0,"toosoon":0,"cond_shown":"Congruent","ratio_trial":200,"L_num":15,"L_den":25,"R_num":4,"R_den":10,"correct_side":1,"subjID":"martinjuanjimenez12","gender":"0","school":"4","age":"9"},{"start_time":1552328206747,"click_time":1552328207210,"finger_time":1552328207064,"fix_duration":441.2857599802553,"trial":57,"RT":317,"MT":146,"sideResp":1,"stimulus":[],"xmouse":[782,782,782,782,782,782,782,782,782,782,782,782,782,782,782,732,691,642,591,546,530,530,515],"ymouse":[464,464,464,464,464,464,464,464,464,464,464,464,464,464,464,386,319,246,170,107,81,80,74],"timestamp_mouse":[16,39,56,77,98,117,137,158,177,197,218,237,256,277,297,317,337,357,378,397,418,436,463],"xSR":741.5,"ySR":458.25,"xT1":424.9,"yT1":0,"xT2":1058.1,"yT2":0,"toosoon":0,"cond_shown":"Incongruent","ratio_trial":200,"L_num":4,"L_den":30,"R_num":1,"R_den":3,"correct_side":2,"subjID":"martinjuanjimenez12","gender":"0","school":"4","age":"9"},{"start_time":1552328210315,"click_time":1552328210944,"finger_time":1552328210405,"fix_duration":250,"trial":58,"RT":90,"MT":539,"sideResp":2,"stimulus":[],"xmouse":[801,801,801,801,884,889,890,890,890,890,890,890,890,890,890,890,890,892,900,914,941,977,1054,1078,1091,1100,1103,1111,1117,1125,1133,1139],"ymouse":[500,500,500,500,408,403,402,401,401,401,401,401,401,401,401,401,401,398,388,370,334,287,191,168,156,149,146,138,131,121,109,95],"timestamp_mouse":[12,41,49,69,90,109,129,149,170,189,210,229,249,268,289,310,330,349,369,388,408,429,450,469,489,509,529,549,569,588,609,628],"xSR":741.5,"ySR":458.25,"xT1":424.9,"yT1":0,"xT2":1058.1,"yT2":0,"toosoon":0,"cond_shown":"Congruent","ratio_trial":100,"L_num":12,"L_den":30,"R_num":13,"R_de