[{"start_time":1552329031580,"click_time":1552329040463,"finger_time":1552329033084,"fix_duration":250,"trial":0,"RT":1504,"MT":7379,"sideResp":1,"stimulus":"img/750/equaldotanddens/R/3_Ratio_750_L_15_R_20.png","xmouse":[797,797,797,797,797,797,797,797,797,797,797,797,797,797,797,797,797,797,797,797,797,797,797,797,797,797,797,797,797,797,797,797,797,797,797,797,797,797,797,797,797,797,797,797,797,797,797,797,797,797,797,797,797,797,797,797,797,797,797,797,797,797,797,797,797,797,797,797,797,797,797,797,798,836,842,850,853,856,853,850,848,843,842,831,823,821,821,821,821,821,820,816,815,815,815,815,816,820,821,817,808,804,804,804,804,804,804,804,804,804,804,804,804,804,804,804,804,804,804,804,804,804,804,804,804,804,804,804,804,804,804,804,804,804,804,804,804,803,801,800,799,798,796,795,795,794,794,794,794,794,794,794,794,794,794,794,794,794,794,794,794,793,793,794,794,795,795,795,795,795,795,795,795,795,795,795,795,795,795,795,795,795,795,795,795,795,795,795,795,795,795,795,795,795,795,795,794,793,793,793,793,793,794,795,796,796,796,796,796,796,796,796,796,796,796,796,796,796,796,796,796,796,796,796,796,796,796,796,796,796,796,796,797,797,796,795,794,793,790,790,790,790,790,790,790,790,790,790,790,790,790,790,790,790,790,790,790,790,790,790,790,790,790,790,790,790,790,790,790,790,790,790,790,790,790,790,790,790,790,790,790,790,790,790,790,790,790,790,790,790,790,790,790,790,790,790,790,790,790,790,790,790,790,790,790,790,790,790,790,790,790,790,790,790,790,790,790,790,790,790,790,790,790,790,790,790,790,790,790,790,790,790,790,790,790,790,790,790,790,790,790,790,790,790,790,790,790,790,790,790,790,790,790,790,790,790,790,790,790,790,790,790,790,790,790,790,790,790,790,790,790,790,790,790,790,790,790,790,790,790,790,790,790,790,790,790,790,790,790,790,790,790,790,790,790,790,790,790,790,790,790,790,790,788,786,774,738,665,454,380,348,338,337,339,342,344,347,352,366,379,394,410,431,432,434,438,443,452,455,458,460,463,464,464,465,467,470,472,474,477,477,478,479,479],"ymouse":[543,543,543,543,543,543,543,543,543,543,543,543,543,543,543,543,543,543,543,543,543,543,543,543,543,543,543,543,543,543,543,543,543,543,543,543,543,543,543,543,543,543,543,543,543,543,543,543,543,543,543,543,543,543,543,543,543,543,543,543,543,543,543,543,543,543,543,543,543,543,543,543,543,498,485,476,475,475,482,486,486,498,503,542,557,558,558,558,558,558,558,549,547,547,547,546,545,543,542,535,528,527,527,527,527,527,527,527,527,527,527,527,527,527,527,527,527,527,527,527,527,527,527,527,527,527,527,527,527,527,527,527,527,527,527,527,527,527,527,527,527,527,527,526,526,526,526,526,526,526,526,526,526,526,526,526,526,526,526,526,526,525,525,523,523,523,523,523,523,523,523,523,523,523,523,523,523,523,523,523,523,523,523,523,523,523,523,523,523,523,523,523,523,523,523,523,523,523,523,524,525,526,527,528,529,529,529,529,529,529,529,529,529,529,529,529,529,529,529,529,529,529,529,529,529,529,529,529,529,529,529,529,530,531,531,532,532,532,533,533,533,533,533,533,533,533,533,533,533,533,533,533,533,533,533,533,533,533,533,533,533,533,533,533,533,533,533,533,533,533,533,533,533,533,533,533,533,533,533,533,533,533,533,533,533,533,533,533,533,533,533,533,533,533,533,533,533,533,533,533,533,533,533,533,533,533,533,533,533,533,533,533,533,533,533,533,533,533,533,533,533,533,533,533,533,533,533,533,533,533,533,533,533,533,533,533,533,533,533,533,533,533,533,533,533,533,533,533,533,533,533,533,533,533,533,533,533,533,533,533,533,533,533,533,533,533,533,533,533,533,533,533,533,533,533,533,533,533,533,533,533,533,533,533,533,533,533,533,533,533,533,533,533,533,533,533,533,533,533,533,533,533,533,534,536,536,516,472,353,310,290,280,272,267,265,263,260,256,246,237,226,214,189,182,177,169,163,149,142,137,132,128,126,126,125,124,121,112,109,104,103,102,101,98],"timestamp_mouse":[10,47,65,85,104,125,143,164,184,204,224,245,263,284,305,324,343,363,383,404,423,443,464,484,505,525,544,564,583,605,624,644,663,683,704,725,744,765,783,803,824,845,863,883,903,925,944,963,985,1004,1023,1043,1065,1085,1103,1123,1144,1164,1185,1204,1223,1243,1265,1283,1304,1323,1344,1364,1383,1404,1424,1444,1464,1484,1504,1524,1543,1565,1584,1603,1623,1644,1664,1684,1703,1724,1745,1763,1783,1805,1823,1844,1863,1884,1905,1924,1943,1965,1984,2004,2024,2044,2064,2083,2104,2125,2145,2163,2183,2204,2225,2245,2264,2285,2303,2324,2345,2363,2384,2405,2424,2443,2465,2483,2503,2524,2543,2564,2585,2605,2624,2644,2664,2683,2705,2723,2743,2763,2783,2805,2823,2844,2863,2883,2903,2924,2944,2964,2985,3005,3025,3043,3064,3083,3104,3123,3143,3164,3183,3203,3224,3243,3264,3283,3304,3323,3345,3363,3383,3404,3424,3443,3464,3485,3504,3525,3545,3564,3583,3603,3624,3643,3663,3683,3704,3725,3745,3764,3783,3803,3825,3843,3864,3885,3903,3925,3944,3963,3985,4005,4023,4043,4063,4084,4103,4125,4143,4164,4184,4203,4225,4245,4264,4284,4304,4323,4344,4365,4383,4405,4424,4444,4465,4483,4504,4523,4544,4564,4583,4603,4624,4645,4664,4683,4704,4723,4745,4764,4785,4803,4823,4843,4864,4883,4904,4923,4944,4964,4985,5005,5024,5045,5064,5083,5103,5123,5144,5165,5183,5204,5224,5244,5264,5283,5304,5323,5344,5365,5383,5405,5424,5444,5465,5483,5503,5524,5543,5565,5583,5604,5623,5645,5665,5683,5703,5724,5744,5764,5783,5803,5823,5843,5864,5885,5904,5923,5944,5965,5984,6005,6025,6044,6064,6083,6104,6125,6145,6165,6183,6203,6224,6244,6263,6283,6304,6324,6344,6365,6385,6403,6423,6443,6464,6483,6503,6525,6545,6565,6583,6604,6624,6643,6665,6683,6704,6724,6743,6763,6783,6804,6824,6843,6864,6884,6904,6924,6945,6963,6984,7004,7023,7043,7065,7085,7105,7124,7144,7163,7183,7204,7224,7243,7264,7285,7303,7324,7343,7364,7384,7403,7424,7444,7464,7483,7504,7525,7545,7563,7583,7604,7624,7645,7665,7683,7704,7724,7743,7764,7783,7804,7824,7843,7864,7884,7905,7925,7944,7963,7983,8004,8024,8044,8063,8083,8103,8125,8144,8165,8184,8203,8224,8244,8265,8283,8304,8324,8344,8363,8383,8403,8424,8443,8465,8483,8504,8524,8544,8564,8584,8605,8624,8644,8664,8684,8703,8724,8745,8766,8785,8804,8825,8845,8863,8883],"xSR":741.5,"ySR":488.8,"xT1":424.9,"yT1":0,"xT2":1058.1,"yT2":0,"toosoon":0,"cond_shown":"equaldotanddens","ratio_trial":750,"smaller_num":"15","larger_num":"20","correct_side":2,"subjID":"martinjuanjimenez12","gender":"0","age":"9","school":"4","test":{"fix_dur":[250,1500],"timestim":300,"targets_dim":[100,100],"targets_relative_coord":[0.3,0.7],"size_stim":[880,420],"start_dim":[100,100],"size_start":[300,300],"size_fix":60,"samplingrate":20,"img_types":["equaldotsize","equaldotanddens","randomdotsizeEA"],"ratios":[250,500,750,900],"rep_conds":9,"nTrials":120,"trials_to_rest":500,"Trials_order":[19,0,99,23,27,8,62,35,43,115,118,68,24,61,22,47,64,66,33,2,78,56,4,113,25,97,98,107,41,112,38,86,9,7,108,65,21,3,74,75,72,11,82,59,5,13,69,28,114,79,40,50,83,10,117,29,30,45,55,67,39,105,63,12,111,103,44,116,91,102,88,49,18,20,36,80,60,73,57,90,34,48,119,81,31,95,87,53,6,84,96,77,37,14,76,42,101,106,100,71,92,32,52,16,85,104,58,51,17,110,26,109,54,93,94,89,15,46,1,70],"cond_shown":["equaldotanddens","equaldotsize","equaldotsize","randomdotsizeEA","equaldotsize","randomdotsizeEA","randomdotsizeEA","randomdotsizeEA","equaldotanddens","equaldotanddens","equaldotanddens","randomdotsizeEA","equaldotsize","equaldotanddens","equaldotanddens","randomdotsizeEA","equaldotanddens","equaldotsize","equaldotsize","randomdotsizeEA","equaldotsize","randomdotsizeEA","equaldotanddens","randomdotsizeEA","equaldotanddens","equaldotanddens","randomdotsizeEA","randomdotsizeEA","randomdotsizeEA","equaldotanddens","randomdotsizeEA","randomdotsizeEA","equaldotsize","equaldotanddens","equaldotsize","randomdotsizeEA","equaldotsize","equaldotsize","randomdotsizeEA","equaldotsize","equaldotsize","randomdotsizeEA","equaldotanddens","randomdotsizeEA","randomdotsizeEA","equaldotanddens","equaldotsize","equaldotanddens","equaldotsize","equaldotanddens","equaldotanddens","randomdotsizeEA","randomdotsizeEA","equaldotanddens","equaldotsize","randomdotsizeEA","equaldotsize","equaldotsize","equaldotanddens","equaldotanddens","equaldotsize","equaldotsize","equaldotsize","equaldotsize","equaldotsize","equaldotanddens","randomdotsizeEA","randomdotsizeEA","equaldotanddens","equaldotsize","equaldotanddens","equaldotanddens","equaldotsize","randomdotsizeEA","equaldotsize","randomdotsizeEA","equaldotsize","equaldotanddens","equaldotsize","equaldotsize","equaldotanddens","equaldotsize","randomdotsizeEA","equaldotsize","equaldotanddens","randomdotsizeEA","equaldotsize","randomdotsizeEA","equaldotsize","equaldotsize","equaldotsize","randomdotsizeEA","equaldotanddens","randomdotsizeEA","equaldotanddens","equaldotsize","randomdotsizeEA","equaldotanddens","equaldotanddens","randomdotsizeEA","randomdotsizeEA","randomdotsizeEA","equaldotanddens","equaldotanddens","equaldotanddens","randomdotsizeEA","equaldotanddens","equaldotsize","randomdotsizeEA","randomdotsizeEA","randomdotsizeEA","equaldotanddens","equaldotsize","equaldotsize","equaldotanddens","randomdotsizeEA","equaldotsize","equaldotanddens","equaldotanddens","equaldotanddens"],"ratio_trial":[750,250,500,900,500,750,250,900,750,750,900,750,250,250,900,900,500,750,900,250,750,750,500,500,250,250,250,900,500,500,250,250,900,750,250,500,900,500,250,500,250,900,900,900,500,250,900,500,750,750,500,250,900,900,900,500,750,900,750,750,500,900,500,250,500,750,750,750,750,750,500,250,750,750,250,750,250,250,900,750,900,250,900,900,750,900,500,500,750,250,250,500,250,250,500,750,500,900,500,900,750,750,500,500,250,750,900,500,500,250,250,250,750,900,900,500,500,900,250,900],"smaller_num":["15","3","5","18","3","12","2","18","3","6","18","3","3","2","9","18","6","18","18","3","3","15","2","9","4","2","2","18","2","5","2","2","18","3","2","9","9","2","3","1","2","18","18","18","2","4","18","2","6","15","6","4","18","18","18","2","6","18","6","6","1","18","1","6","5","6","18","12","9","3","9","2","3","3","3","15","3","2","18","12","18","3","18","9","3","18","1","9","3","5","2","2","3","2","2","3","6","9","6","18","3","12","2","9","5","15","18","1","9","3","6","6","6","9","9","9","2","9","4","9"],"larger_num":["20","12","10","20","6","16","8","20","4","8","20","4","12","8","10","20","12","24","20","12","4","20","4","18","16","8","8","20","4","10","8","8","20","4","8","18","10","4","12","2","8","20","20","20","4","16","20","4","8","20","12","16","20","20","20","4","8","20","8","8","2","20","2","24","10","8","24","16","12","4","18","8","4","4","12","20","12","8","20","16","20","12","20","10","4","20","2","18","4","20","8","4","12","8","4","4","12","10","12","20","4","16","4","18","20","20","20","2","18","12","24","24","8","10","10","18","4","10","16","10"],"correct_side":[2,2,2,1,2,2,1,2,1,1,1,1,2,1,2,2,1,1,1,2,2,2,1,2,2,2,1,2,1,1,1,1,2,1,2,2,2,1,2,2,2,2,1,1,1,2,2,1,1,2,1,2,1,2,2,2,1,1,2,1,2,1,2,1,2,1,1,2,2,2,2,1,2,1,2,1,2,1,2,2,1,2,1,2,2,2,2,2,1,2,2,1,2,1,1,2,1,2,1,1,1,2,1,1,2,2,2,2,2,2,2,2,1,1,2,1,2,1,1,2],"img_shown":["img/750/equaldotanddens/R/3_Ratio_750_L_15_R_20.png","img/250/equaldotsize/R/11_Ratio_250_L_3_R_12.png","img/500/equaldotsize/R/14_Ratio_500_L_5_R_10.png","img/900/randomdotsizeEA/L/8_Ratio_900_L_20_R_18.png","img/500/equaldotsize/R/2_Ratio_500_L_3_R_6.png","img/750/randomdotsizeEA/R/11_Ratio_750_L_12_R_16.png","img/250/randomdotsizeEA/L/7_Ratio_250_L_8_R_2.png","img/900/randomdotsizeEA/R/9_Ratio_900_L_18_R_20.png","img/750/equaldotanddens/L/10_Ratio_750_L_4_R_3.png","img/750/equaldotanddens/L/13_Ratio_750_L_8_R_6.png","img/900/equaldotanddens/L/8_Ratio_900_L_20_R_18.png","img/750/randomdotsizeEA/L/9_Ratio_750_L_4_R_3.png","img/250/equaldotsize/R/9_Ratio_250_L_3_R_12.png","img/250/equaldotanddens/L/3_Ratio_250_L_8_R_2.png","img/900/equaldotanddens/R/7_Ratio_900_L_9_R_10.png","img/900/randomdotsizeEA/R/14_Ratio_900_L_18_R_20.png","img/500/equaldotanddens/L/13_Ratio_500_L_12_R_6.png","img/750/equaldotsize/L/6_Ratio_750_L_24_R_18.png","img/900/equaldotsize/L/10_Ratio_900_L_20_R_18.png","img/250/randomdotsizeEA/R/9_Ratio_250_L_3_R_12.png","img/750/equaldotsize/R/12_Ratio_750_L_3_R_4.png","img/750/randomdotsizeEA/R/4_Ratio_750_L_15_R_20.png","img/500/equaldotanddens/L/5_Ratio_500_L_4_R_2.png","img/500/randomdotsizeEA/R/1_Ratio_500_L_9_R_18.png","img/250/equaldotanddens/R/10_Ratio_250_L_4_R_16.png","img/250/equaldotanddens/R/13_Ratio_250_L_2_R_8.png","img/250/randomdotsizeEA/L/7_Ratio_250_L_8_R_2.png","img/900/randomdotsizeEA/R/13_Ratio_900_L_18_R_20.png","img/500/randomdotsizeEA/L/10_Ratio_500_L_4_R_2.png","img/500/equaldotanddens/L/7_Ratio_500_L_10_R_5.png","img/250/randomdotsizeEA/L/3_Ratio_250_L_8_R_2.png","img/250/randomdotsizeEA/L/1_Ratio_250_L_8_R_2.png","img/900/equaldotsize/R/13_Ratio_900_L_18_R_20.png","img/750/equaldotanddens/L/9_Ratio_750_L_4_R_3.png","img/250/equaldotsize/R/13_Ratio_250_L_2_R_8.png","img/500/randomdotsizeEA/R/1_Ratio_500_L_9_R_18.png","img/900/equaldotsize/R/5_Ratio_900_L_9_R_10.png","img/500/equaldotsize/L/10_Ratio_500_L_4_R_2.png","img/250/randomdotsizeEA/R/9_Ratio_250_L_3_R_12.png","img/500/equaldotsize/R/12_Ratio_500_L_1_R_2.png","img/250/equaldotsize/R/13_Ratio_250_L_2_R_8.png","img/900/randomdotsizeEA/R/11_Ratio_900_L_18_R_20.png","img/900/equaldotanddens/L/4_Ratio_900_L_20_R_18.png","img/900/randomdotsizeEA/L/2_Ratio_900_L_20_R_18.png","img/500/randomdotsizeEA/L/10_Ratio_500_L_4_R_2.png","img/250/equaldotanddens/R/10_Ratio_250_L_4_R_16.png","img/900/equaldotsize/R/12_Ratio_900_L_18_R_20.png","img/500/equaldotanddens/L/10_Ratio_500_L_4_R_2.png","img/750/equaldotsize/L/13_Ratio_750_L_8_R_6.png","img/750/equaldotanddens/R/4_Ratio_750_L_15_R_20.png","img/500/equaldotanddens/L/11_Ratio_500_L_12_R_6.png","img/250/randomdotsizeEA/R/10_Ratio_250_L_4_R_16.png","img/900/randomdotsizeEA/L/2_Ratio_900_L_20_R_18.png","img/900/equaldotanddens/R/9_Ratio_900_L_18_R_20.png","img/900/equaldotsize/R/11_Ratio_900_L_18_R_20.png","img/500/randomdotsizeEA/R/9_Ratio_500_L_2_R_4.png","img/750/equaldotsize/L/13_Ratio_750_L_8_R_6.png","img/900/equaldotsize/L/8_Ratio_900_L_20_R_18.png","img/750/equaldotanddens/R/2_Ratio_750_L_6_R_8.png","img/750/equaldotanddens/L/13_Ratio_750_L_8_R_6.png","img/500/equaldotsize/R/15_Ratio_500_L_1_R_2.png","img/900/equaldotsize/L/2_Ratio_900_L_20_R_18.png","img/500/equaldotsize/R/15_Ratio_500_L_1_R_2.png","img/250/equaldotsize/L/5_Ratio_250_L_24_R_6.png","img/500/equaldotsize/R/14_Ratio_500_L_5_R_10.png","img/750/equaldotanddens/L/14_Ratio_750_L_8_R_6.png","img/750/randomdotsizeEA/L/6_Ratio_750_L_24_R_18.png","img/750/randomdotsizeEA/R/11_Ratio_750_L_12_R_16.png","img/750/equaldotanddens/R/15_Ratio_750_L_9_R_12.png","img/750/equaldotsize/R/12_Ratio_750_L_3_R_4.png","img/500/equaldotanddens/R/6_Ratio_500_L_9_R_18.png","img/250/equaldotanddens/L/7_Ratio_250_L_8_R_2.png","img/750/equaldotsize/R/12_Ratio_750_L_3_R_4.png","img/750/randomdotsizeEA/L/8_Ratio_750_L_4_R_3.png","img/250/equaldotsize/R/4_Ratio_250_L_3_R_12.png","img/750/randomdotsizeEA/L/1_Ratio_750_L_20_R_15.png","img/250/equaldotsize/R/11_Ratio_250_L_3_R_12.png","img/250/equaldotanddens/L/3_Ratio_250_L_8_R_2.png","img/900/equaldotsize/R/14_Ratio_900_L_18_R_20.png","img/750/equaldotsize/R/11_Ratio_750_L_12_R_16.png","img/900/equaldotanddens/L/2_Ratio_900_L_20_R_18.png","img/250/equaldotsize/R/11_Ratio_250_L_3_R_12.png","img/900/randomdotsizeEA/L/10_Ratio_900_L_20_R_18.png","img/900/equaldotsize/R/7_Ratio_900_L_9_R_10.png","img/750/equaldotanddens/R/7_Ratio_750_L_3_R_4.png","img/900/randomdotsizeEA/R/14_Ratio_900_L_18_R_20.png","img/500/equaldotsize/R/15_Ratio_500_L_1_R_2.png","img/500/randomdotsizeEA/R/1_Ratio_500_L_9_R_18.png","img/750/equaldotsize/L/10_Ratio_750_L_4_R_3.png","img/250/equaldotsize/R/12_Ratio_250_L_5_R_20.png","img/250/equaldotsize/R/13_Ratio_250_L_2_R_8.png","img/500/randomdotsizeEA/L/5_Ratio_500_L_4_R_2.png","img/250/equaldotanddens/R/4_Ratio_250_L_3_R_12.png","img/250/randomdotsizeEA/L/1_Ratio_250_L_8_R_2.png","img/500/equaldotanddens/L/5_Ratio_500_L_4_R_2.png","img/750/equaldotsize/R/7_Ratio_750_L_3_R_4.png","img/500/randomdotsizeEA/L/13_Ratio_500_L_12_R_6.png","img/900/equaldotanddens/R/7_Ratio_900_L_9_R_10.png","img/500/equaldotanddens/L/11_Ratio_500_L_12_R_6.png","img/900/randomdotsizeEA/L/10_Ratio_900_L_20_R_18.png","img/750/randomdotsizeEA/L/9_Ratio_750_L_4_R_3.png","img/750/randomdotsizeEA/R/11_Ratio_750_L_12_R_16.png","img/500/equaldotanddens/L/10_Ratio_500_L_4_R_2.png","img/500/equaldotanddens/L/4_Ratio_500_L_18_R_9.png","img/250/equaldotanddens/R/12_Ratio_250_L_5_R_20.png","img/750/randomdotsizeEA/R/5_Ratio_750_L_15_R_20.png","img/900/equaldotanddens/R/9_Ratio_900_L_18_R_20.png","img/500/equaldotsize/R/15_Ratio_500_L_1_R_2.png","img/500/randomdotsizeEA/R/6_Ratio_500_L_9_R_18.png","img/250/randomdotsizeEA/R/11_Ratio_250_L_3_R_12.png","img/250/randomdotsizeEA/R/6_Ratio_250_L_6_R_24.png","img/250/equaldotanddens/R/6_Ratio_250_L_6_R_24.png","img/750/equaldotsize/L/14_Ratio_750_L_8_R_6.png","img/900/equaldotsize/L/1_Ratio_900_L_10_R_9.png","img/900/equaldotanddens/R/15_Ratio_900_L_9_R_10.png","img/500/randomdotsizeEA/L/4_Ratio_500_L_18_R_9.png","img/500/equaldotsize/R/9_Ratio_500_L_2_R_4.png","img/900/equaldotanddens/L/1_Ratio_900_L_10_R_9.png","img/250/equaldotanddens/L/2_Ratio_250_L_16_R_4.png","img/900/equaldotanddens/R/7_Ratio_900_L_9_R_10.png"],"Rat0":[["12_Ratio_0_L_9_R_0.png","13_Ratio_0_L_6_R_0.png","5_Ratio_0_L_2_R_0.png","6_Ratio_0_L_4_R_0.png","8_Ratio_0_L_6_R_0.png"],["1_Ratio_0_L_0_R_17.png","10_Ratio_0_L_0_R_22.png","11_Ratio_0_L_0_R_1.png","14_Ratio_0_L_0_R_24.png","15_Ratio_0_L_0_R_4.png","2_Ratio_0_L_0_R_5.png","3_Ratio_0_L_0_R_17.png","4_Ratio_0_L_0_R_7.png","7_Ratio_0_L_0_R_19.png","9_Ratio_0_L_0_R_15.png"]],"Rat250":[["1_Ratio_250_L_8_R_2.png","14_Ratio_250_L_12_R_3.png","15_Ratio_250_L_12_R_3.png","2_Ratio_250_L_16_R_4.png","3_Ratio_250_L_8_R_2.png","5_Ratio_250_L_24_R_6.png","7_Ratio_250_L_8_R_2.png"],["10_Ratio_250_L_4_R_16.png","11_Ratio_250_L_3_R_12.png","12_Ratio_250_L_5_R_20.png","13_Ratio_250_L_2_R_8.png","4_Ratio_250_L_3_R_12.png","6_Ratio_250_L_6_R_24.png","8_Ratio_250_L_1_R_4.png","9_Ratio_250_L_3_R_12.png"]],"Rat500":[["10_Ratio_500_L_4_R_2.png","11_Ratio_500_L_12_R_6.png","13_Ratio_500_L_12_R_6.png","4_Ratio_500_L_18_R_9.png","5_Ratio_500_L_4_R_2.png","7_Ratio_500_L_10_R_5.png","8_Ratio_500_L_8_R_4.png"],["1_Ratio_500_L_9_R_18.png","12_Ratio_500_L_1_R_2.png","14_Ratio_500_L_5_R_10.png","15_Ratio_500_L_1_R_2.png","2_Ratio_500_L_3_R_6.png","3_Ratio_500_L_10_R_20.png","6_Ratio_500_L_9_R_18.png","9_Ratio_500_L_2_R_4.png"]],"Rat750":[["1_Ratio_750_L_20_R_15.png","10_Ratio_750_L_4_R_3.png","13_Ratio_750_L_8_R_6.png","14_Ratio_750_L_8_R_6.png","6_Ratio_750_L_24_R_18.png","8_Ratio_750_L_4_R_3.png","9_Ratio_750_L_4_R_3.png"],["11_Ratio_750_L_12_R_16.png","12_Ratio_750_L_3_R_4.png","15_Ratio_750_L_9_R_12.png","2_Ratio_750_L_6_R_8.png","3_Ratio_750_L_15_R_20.png","4_Ratio_750_L_15_R_20.png","5_Ratio_750_L_15_R_20.png","7_Ratio_750_L_3_R_4.png"]],"Rat900":[["1_Ratio_900_L_10_R_9.png","10_Ratio_900_L_20_R_18.png","2_Ratio_900_L_20_R_18.png","4_Ratio_900_L_20_R_18.png","8_Ratio_900_L_20_R_18.png"],["11_Ratio_900_L_18_R_20.png","12_Ratio_900_L_18_R_20.png","13_Ratio_900_L_18_R_20.png","14_Ratio_900_L_18_R_20.png","15_Ratio_900_L_9_R_10.png","3_Ratio_900_L_9_R_10.png","5_Ratio_900_L_9_R_10.png","6_Ratio_900_L_9_R_10.png","7_Ratio_900_L_9_R_10.png","9_Ratio_900_L_18_R_20.png"]],"Rat1000":[["10_Ratio_1000_L_16_R_16.png","11_Ratio_1000_L_6_R_6.png","12_Ratio_1000_L_14_R_14.png","13_Ratio_1000_L_20_R_20.png","15_Ratio_1000_L_15_R_15.png","2_Ratio_1000_L_17_R_17.png","4_Ratio_1000_L_9_R_9.png","5_Ratio_1000_L_6_R_6.png","6_Ratio_1000_L_19_R_19.png","8_Ratio_1000_L_14_R_14.png","9_Ratio_1000_L_25_R_25.png"],["1_Ratio_1000_L_1_R_1.png","14_Ratio_1000_L_17_R_17.png","3_Ratio_1000_L_17_R_17.png","7_Ratio_1000_L_6_R_6.png"]]}},{"start_time":1552329042203,"click_time":1552329044264,"finger_time":1552329042643,"fix_duration":597.2139774553067,"trial":1,"RT":440,"MT":1621,"sideResp":2,"stimulus":"img/250/equaldotsize/R/11_Ratio_250_L_3_R_12.png","xmouse":[817,817,817,817,817,817,817,817,817,817,817,817,817,817,817,817,817,817,817,817,817,809,790,773,768,760,754,752,743,734,696,644,581,516,503,493,489,487,485,484,484,484,484,495,503,508,511,511,514,522,545,612,671,671,672,676,680,722,775,805,819,821,822,826,847,890,974,1120,1482,1482,1482,1482,1482,1482,1580,1556,1501,1441,1322,1287,1266,1253,1250,1247,1245,1242,1240,1237,1231,1230,1229,1228,1223,1206,1194,1187,1185,1184,1178,1174,1171,1167,1160,1158],"ymouse":[519,519,519,519,519,519,519,519,519,519,519,519,519,519,519,519,519,519,519,515,505,491,465,444,435,423,415,409,387,370,325,277,232,178,164,153,148,141,137,136,136,136,135,128,126,123,121,121,118,116,113,111,109,109,109,110,113,125,134,134,130,125,121,119,119,119,119,119,117,117,117,117,117,117,104,100,86,67,34,25,19,17,17,17,17,17,18,22,30,33,34,36,44,57,60,62,62,62,62,61,61,61,62,64],"timestamp_mouse":[11,20,40,60,81,100,121,140,162,180,201,222,240,260,282,301,321,342,360,381,401,420,440,460,481,500,520,540,560,580,600,622,641,660,680,700,720,742,761,780,801,821,841,860,880,900,921,941,960,981,1001,1021,1042,1060,1080,1101,1120,1142,1161,1181,1201,1221,1243,1260,1281,1300,1321,1340,1360,1381,1400,1420,1440,1461,1481,1500,1521,1540,1560,1581,1601,1621,1640,1660,1680,1700,1721,1740,1760,1780,1800,1820,1842,1860,1880,1900,1920,1940,1961,1981,2001,2020,2042,2060],"xSR":741.5,"ySR":490.1,"xT1":424.9,"yT1":0,"xT2":1058.1,"yT2":0,"toosoon":0,"cond_shown":"equaldotsize","ratio_trial":250,"smaller_num":"3","larger_num":"12","correct_side":2,"subjID":"martinjuanjimenez12","gender":"0","age":"9","school":"4"},{"start_time":1552329048924,"click_time":1552329049763,"finger_time":1552329049304,"fix_duration":959.2785531497119,"trial":2,"RT":380,"MT":459,"sideResp":2,"stimulus":"img/500/equaldotsize/R/14_Ratio_500_L_5_R_10.png","xmouse":[804,804,804,804,804,804,804,804,804,804,804,804,804,804,804,804,804,804,803,799,795,793,789,783,776,775,775,816,856,875,888,896,899,899,900,902,907,914,925,945,977,1023,1094],"ymouse":[556,556,556,556,556,556,556,556,556,556,556,556,556,556,556,556,556,539,514,484,447,375,345,320,303,301,299,287,277,269,262,255,245,238,236,231,218,209,194,174,148,116,69],"timestamp_mouse":[10,21,39,60,80,101,120,140,161,180,200,220,241,260,279,299,319,340,359,380,400,421,440,460,480,500,520,539,559,579,599,619,639,661,679,699,721,739,759,781,800,819,839],"xSR":741.5,"ySR":490.1,"xT1":424.9,"yT1":0,"xT2":1058.1,"yT2":0,"toosoon":0,"cond_shown":"equaldotsize","ratio_trial":500,"smaller_num":"5","larger_num":"10","correct_side":2,"subjID":"martinjuanjimenez12","gender":"0","age":"9","school":"4"},{"start_time":1552329065477,"click_time":1552329066465,"finger_time":1552329066004,"fix_duration":871.0253938609347,"trial":3,"RT":527,"MT":461,"sideResp":2,"stimulus":"img/900/randomdotsizeEA/L/8_Ratio_900_L_20_R_18.png","xmouse":[805,805,805,805,805,805,805,805,805,805,805,805,805,805,805,805,805,804,804,799,798,797,796,793,791,788,782,769,696,608,594,593,594,598,604,606,606,607,611,623,631,642,657,675,730,786,838,899,991,1090],"ymouse":[528,528,528,528,528,528,528,527,527,527,527,527,527,527,527,527,526,523,522,515,511,511,509,507,504,499,489,471,418,350,333,324,315,310,300,296,292,288,284,278,272,267,257,246,214,192,177,157,130,81],"timestamp_mouse":[10,26,47,67,86,108,127,146,167,186,206,226,248,266,286,307,327,347,367,387,407,427,446,467,486,507,527,547,566,586,608,627,646,666,687,707,727,746,766,787,807,827,847,867,886,907,926,947,967,988],"xSR":741.5,"ySR":490.1,"xT1":424.9,"yT1":0,"xT2":1058.1,"yT2":0,"toosoon":0,"cond_shown":"randomdotsizeEA","ratio_trial":900,"smaller_num":"18","larger_num":"20","correct_side":1,"subjID":"martinjuanjimenez12","gender":"0","age":"9","school":"4"},{"start_time":1552329069596,"click_time":1552329070325,"finger_time":1552329069963,"fix_duration":511.7513450650093,"trial":4,"RT":367,"MT":362,"sideResp":1,"stimulus":"img/500/equaldotsize/R/2_Ratio_500_L_3_R_6.png","xmouse":[805,806,806,808,808,808,808,807,805,805,805,805,805,805,805,805,803,800,763,728,686,661,644,643,647,650,655,658,661,659,649,628,558,468,450,446,446],"ymouse":[529,529,529,530,531,533,535,537,540,541,542,542,542,542,542,542,541,535,481,436,388,350,320,300,290,284,277,272,266,259,245,223,171,118,105,100,97],"timestamp_mouse":[10,27,50,67,89,108,127,148,167,188,208,229,248,267,287,308,327,347,367,387,407,427,447,469,488,508,527,547,567,588,608,628,647,667,688,707,728],"xSR":741.5,"ySR":490.1,"xT1":424.9,"yT1":0,"xT2":1058.1,"yT2":0,"toosoon":0,"cond_shown":"equaldotsize","ratio_trial":500,"smaller_num":"3","larger_num":"6","correct_side":2,"subjID":"martinjuanjimenez12","gender":"0","age":"9","school":"4"},{"start_time":1552329074016,"click_time":1552329075063,"finger_time":1552329074503,"fix_duration":250,"trial":5,"RT":487,"MT":560,"sideResp":2,"stimulus":"img/750/randomdotsizeEA/R/11_Ratio_750_L_12_R_16.png","xmouse":[771,778,787,793,796,796,796,796,796,796,796,796,796,796,796,796,796,797,799,802,807,811,814,819,827,834,842,865,879,892,911,941,956,969,981,990,1002,1006,1010,1013,1015,1016,1020,1024,1027,1029,1032,1042,1046,1050,1055,1057,1064],"ymouse":[537,535,531,529,527,527,527,527,527,527,527,527,527,527,527,527,527,527,526,524,519,511,502,492,475,459,445,413,393,373,345,300,281,262,246,234,220,215,210,206,204,203,187,179,172,163,153,132,124,116,105,102,95],"timestamp_mouse":[7,27,48,68,87,107,127,147,167,188,208,228,247,267,288,308,327,347,367,387,407,428,447,467,487,508,528,547,568,588,608,630,647,668,689,708,727,747,768,787,809,828,848,867,888,907,927,947,967,987,1008,1027,1047],"xSR":741.5,"ySR":490.1,"xT1":424.9,"yT1":0,"xT2":1058.1,"yT2":0,"toosoon":0,"cond_shown":"randomdotsizeEA","ratio_trial":750,"smaller_num":"12","larger_num":"16","correct_side":2,"subjID":"martinjuanjimenez12","gender":"0","age":"9","school":"4"},{"start_time":1552329080259,"click_time":1552329081084,"finger_time":1552329080624,"fix_duration":955.6165160419714,"trial":6,"RT":365,"MT":460,"sideResp":2,"stimulus":"img/250/randomdotsizeEA/L/7_Ratio_250_L_8_R_2.png","xmouse":[789,789,789,789,789,789,789,789,789,789,789,789,789,789,789,789,789,789,789,789,778,764,754,753,760,876,994,1107,1186,1230,1235,1229,1224,1221,1221,1235,1242,1245,1246,1240,1187,1136],"ymouse":[535,535,535,535,535,535,535,535,535,535,535,535,535,535,535,535,521,514,490,474,424,391,364,350,342,340,349,361,361,354,330,311,285,254,221,165,139,116,100,86,72,59],"timestamp_mouse":[14,39,44,64,83,104,125,144,164,185,204,225,245,265,284,304,325,344,365,384,405,424,445,464,484,504,525,545,565,584,604,624,645,665,685,704,725,744,764,784,804,824],"xSR":741.5,"ySR":490.1,"xT1":424.9,"yT1":0,"xT2":1058.1,"yT2":0,"toosoon":0,"cond_shown":"randomdotsizeEA","ratio_trial":250,"smaller_num":"2","larger_num":"8","correct_side":1,"subjID":"martinjuanjimenez12","gender":"0","age":"9","school":"4"},{"start_time":1552329084450,"click_time":1552329085223,"finger_time":1552329084784,"fix_duration":885.7364653320526,"trial":7,"RT":334,"MT":439,"sideResp":2,"stimulus":"img/900/randomdotsizeEA/R/9_Ratio_900_L_18_R_20.png","xmouse":[780,780,780,780,780,780,780,780,780,780,780,780,780,780,780,780,780,780,780,780,762,746,736,736,736,738,751,765,777,817,835,860,895,947,1049,1083,1097,1104,1105],"ymouse":[529,529,529,529,529,529,529,529,529,529,529,529,529,529,515,495,469,436,395,330,247,220,203,201,200,200,198,197,191,169,159,152,150,150,146,138,128,115,96],"timestamp_mouse":[13,38,53,74,93,113,133,153,173,194,213,233,254,273,294,313,334,354,373,393,413,433,453,473,493,512,533,554,573,594,613,634,654,674,694,714,734,754,773],"xSR":741.5,"ySR":490.1,"xT1":424.9,"yT1":0,"xT2":1058.1,"yT2":0,"toosoon":0,"cond_shown":"randomdotsizeEA","ratio_trial":900,"smaller_num":"18","larger_num":"20","correct_side":2,"subjID":"martinjuanjimenez12","gender":"0","age":"9","school":"4"},{"start_time":1552329086995,"click_time":1552329088423,"finger_time":1552329087384,"fix_duration":250,"trial":8,"RT":389,"MT":1039,"sideResp":2,"stimulus":"img/750/equaldotanddens/L/10_Ratio_750_L_4_R_3.png","xmouse":[840,840,840,840,840,840,840,840,840,841,841,840,834,832,832,831,831,826,816,802,789,771,754,746,734,714,686,653,623,618,617,617,620,625,627,630,633,634,640,646,658,681,772,805,836,860,878,894,914,921,929,942,945,946,946,947,947,953,962,971,978,984,987,989,989,989,989,989,991,1002,1023,1073],"ymouse":[507,507,507,507,507,507,507,507,507,508,511,512,517,517,517,517,517,515,500,483,466,445,419,401,372,329,274,215,152,140,129,126,115,104,101,94,89,87,83,82,80,80,103,109,114,115,115,115,114,112,110,106,105,105,105,103,93,83,78,75,72,69,68,67,67,67,67,67,67,67,67,82],"timestamp_mouse":[10,39,49,68,88,108,128,149,168,188,208,228,249,269,288,309,328,349,367,389,409,428,450,468,488,509,528,548,568,588,608,629,648,668,688,708,729,750,768,788,808,828,849,868,888,908,928,948,968,988,1009,1027,1049,1069,1088,1108,1128,1150,1168,1188,1209,1229,1248,1268,1288,1308,1329,1349,1368,1389,1408,1428],"xSR":741.5,"ySR":490.1,"xT1":424.9,"yT1":0,"xT2":1058.1,"yT2":0,"toosoon":0,"cond_shown":"equaldotanddens","ratio_trial":750,"smaller_num":"3","larger_num":"4","correct_side":1,"subjID":"martinjuanjimenez12","gender":"0","age":"9","school":"4"},{"start_time":1552329089843,"click_time":1552329090663,"finger_time":1552329090264,"fix_duration":278.91696130444956,"trial":9,"RT":421,"MT":399,"sideResp":1,"stimulus":"img/750/equaldotanddens/L/13_Ratio_750_L_8_R_6.png","xmouse":[775,775,775,775,775,775,775,775,775,775,775,775,775,775,775,775,774,773,771,769,766,756,744,731,706,689,664,659,657,653,630,617,617,617,617,617,617,617,617,617,617,428],"ymouse":[537,537,537,537,537,537,537,537,537,537,537,537,537,537,537,537,536,534,528,517,505,467,436,392,335,270,171,140,116,90,39,10,10,10,10,10,10,10,10,10,10,33],"timestamp_mouse":[14,23,41,61,80,101,120,140,160,181,200,221,241,261,280,300,320,340,360,381,400,421,440,461,481,502,520,540,560,581,600,619,640,660,680,701,720,740,760,781,801,820],"xSR":741.5,"ySR":490.1,"xT1":424.9,"yT1":0,"xT2":1058.1,"yT2":0,"toosoon":0,"cond_shown":"equaldotanddens","ratio_trial":750,"smaller_num":"6","larger_num":"8","correct_side":1,"subjID":"martinjuanjimenez12","gender":"0","age":"9","school":"4"},{"start_time":1552329093055,"click_time":1552329093963,"finger_time":1552329093523,"fix_duration":250,"trial":10,"RT":468,"MT":440,"sideResp":1,"stimulus":"img/900/equaldotanddens/L/8_Ratio_900_L_20_R_18.png","xmouse":[791,791,791,791,791,791,791,791,791,791,791,791,791,791,791,791,791,791,791,791,791,791,791,660,647,642,650,665,682,712,723,706,694,694,694,694,694,572,568,563,563,563,562,559,534,516],"ymouse":[570,570,570,570,570,570,570,570,570,570,570,570,570,570,570,570,570,570,570,570,570,570,570,259,228,196,183,168,152,120,55,19,2,2,2,2,2,41,49,57,57,57,57,57,53,42],"timestamp_mouse":[14,36,48,69,88,108,128,148,169,188,208,228,249,269,288,308,328,348,369,388,408,428,448,468,488,508,529,549,568,588,608,628,649,668,688,709,728,748,769,788,808,828,849,868,890,908],"xSR":741.5,"ySR":490.1,"xT1":424.9,"yT1":0,"xT2":1058.1,"yT2":0,"toosoon":0,"cond_shown":"equaldotanddens","ratio_trial":900,"smaller_num":"18","larger_num":"20","correct_side":1,"subjID":"martinjuanjimenez12","gender":"0","age":"9","school":"4"},{"start_time":1552329096531,"click_time":1552329097003,"finger_time":1552329096943,"fix_duration":1326.5281047954898,"trial":11,"RT":412,"MT":60,"sideResp":1,"stimulus":"img/750/randomdotsizeEA/L/9_Ratio_750_L_4_R_3.png","xmouse":[780,780,780,780,780,780,780,780,780,780,780,780,780,780,780,780,780,780,780,780,776,698,601,495],"ymouse":[500,500,500,500,500,500,500,500,500,500,500,500,500,500,500,500,500,500,500,500,487,361,213,48],"timestamp_mouse":[12,37,52,73,92,113,133,152,172,192,212,233,253,272,293,313,333,352,372,392,412,432,452,472],"xSR":741.5,"ySR":490.1,"xT1":424.9,"yT1":0,"xT2":1058.1,"yT2":0,"toosoon":0,"cond_shown":"randomdotsizeEA","ratio_trial":750,"smaller_num":"3","larger_num":"4","correct_side":1,"subjID":"martinjuanjimenez12","gender":"0","age":"9","school":"4"},{"start_time":1552329099966,"click_time":1552329100683,"finger_time":1552329100344,"fix_duration":1098.2684441434164,"trial":12,"RT":378,"MT":339,"sideResp":2,"stimulus":"img/250/equaldotsize/R/9_Ratio_250_L_3_R_12.png","xmouse":[746,746,746,746,746,746,748,749,751,753,754,754,754,754,755,757,762,767,780,789,802,839,863,889,961,1001,1031,1046,1051,1051,1051,1051,1051,1053,1058,1060],"ymouse":[557,557,557,557,557,557,556,556,554,554,553,553,553,553,553,551,542,527,469,419,368,300,273,253,193,160,135,121,102,99,99,99,99,98,95,94],"timestamp_mouse":[18,39,57,77,98,117,137,157,177,197,218,237,257,278,297,317,338,357,378,397,417,437,458,477,497,517,537,557,578,597,617,638,657,678,697,717],"xSR":741.5,"ySR":490.1,"xT1":424.9,"yT1":0,"xT2":1058.1,"yT2":0,"toosoon":0,"cond_shown":"equaldotsize","ratio_trial":250,"smaller_num":"3","larger_num":"12","correct_side":2,"subjID":"martinjuanjimenez12","gender":"0","age":"9","school":"4"},{"start_time":1552329103432,"click_time":1552329104383,"finger_time":1552329103923,"fix_duration":1347.281409181764,"trial":13,"RT":491,"MT":460,"sideResp":1,"stimulus":"img/250/equaldotanddens/L/3_Ratio_250_L_8_R_2.png","xmouse":[807,807,807,807,807,807,807,807,807,807,807,807,807,807,807,807,807,807,807,807,807,807,808,808,804,770,722,644,551,442,349,305,300,299,299,304,307,316,328,337,347,351,356,363,375,393,424,436],"ymouse":[534,534,534,534,534,534,534,534,534,534,534,534,534,534,534,534,534,534,534,534,534,524,515,500,486,438,400,355,303,244,192,159,151,145,140,132,129,123,117,112,105,102,97,88,78,66,48,40],"timestamp_mouse":[14,39,52,71,91,111,132,151,172,192,212,231,252,272,291,310,332,351,372,392,411,431,451,472,491,513,531,552,571,592,611,631,651,672,691,713,731,750,771,792,813,831,851,870,891,910,931,951],"xSR":741.5,"ySR":490.1,"xT1":424.9,"yT1":0,"xT2":1058.1,"yT2":0,"toosoon":0,"cond_shown":"equaldotanddens","ratio_trial":250,"smaller_num":"2","larger_num":"8","correct_side":1,"subjID":"martinjuanjimenez12","gender":"0","age":"9","school":"4"},{"start_time":1552329106551,"click_time":1552329107603,"finger_time":1552329106943,"fix_duration":885.0243725159916,"trial":14,"RT":392,"MT":660,"sideResp":1,"stimulus":"img/900/equaldotanddens/R/7_Ratio_900_L_9_R_10.png","xmouse":[764,764,764,764,764,764,764,764,764,764,764,764,764,765,765,765,765,765,765,612,606,605,605,604,604,604,604,604,604,604,604,602,599,595,592,584,580,579,579,579,579,579,579,579,577,573,573,573,543,536,531,525,520],"ymouse":[564,564,564,564,564,564,564,564,564,564,564,564,564,558,558,558,558,558,558,272,258,249,243,238,238,238,238,238,238,238,222,207,187,165,152,128,118,111,104,96,92,90,87,85,84,83,83,83,54,51,48,46,44],"timestamp_mouse":[12,39,53,72,92,112,133,152,172,192,212,232,253,272,292,312,332,352,372,392,412,433,452,472,494,512,532,552,571,593,612,632,652,673,693,712,732,752,772,794,812,832,852,873,892,912,931,953,972,993,1011,1032,1052],"xSR":741.5,"ySR":490.1,"xT1":424.9,"yT1":0,"xT2":1058.1,"yT2":0,"toosoon":0,"cond_shown":"equaldotanddens","ratio_trial":900,"smaller_num":"9","larger_num":"10","correct_side":2,"subjID":"martinjuanjimenez12","gender":"0","age":"9","school":"4"},{"start_time":1552329112319,"click_time":1552329113183,"finger_time":1552329112803,"fix_duration":1154.75629965297,"trial":15,"RT":484,"MT":380,"sideResp":2,"stimulus":"img/900/randomdotsizeEA/R/14_Ratio_900_L_18_R_20.png","xmouse":[808,808,808,808,808,808,808,808,806,800,792,786,786,786,786,786,786,786,786,786,786,786,782,773,759,753,753,776,794,816,838,858,886,901,920,942,981,1044,1068,1083,1092,1095,1087,1076],"ymouse":[559,559,559,559,559,559,559,559,559,552,546,542,542,542,542,542,542,542,542,542,542,542,533,509,477,452,417,380,360,338,320,308,293,285,277,268,252,219,199,179,158,139,102,86],"timestamp_mouse":[14,24,44,64,84,104,125,145,164,184,204,225,245,265,284,304,324,345,365,385,405,425,444,465,484,504,525,544,565,584,605,624,644,665,684,705,724,744,764,784,804,824,844,864],"xSR":741.5,"ySR":490.1,"xT1":424.9,"yT1":0,"xT2":1058.1,"yT2":0,"toosoon":0,"cond_shown":"randomdotsizeEA","ratio_trial":900,"smaller_num":"18","larger_num":"20","correct_side":2,"subjID":"martinjuanjimenez12","gender":"0","age":"9","school":"4"},{"start_time":1552329117613,"click_time":1552329118683,"finger_time":1552329118263,"fix_duration":1368.365463319797,"trial":16,"RT":650,"MT":420,"sideResp":1,"stimulus":"img/500/equaldotanddens/L/13_Ratio_500_L_12_R_6.png","xmouse":[783,783,783,783,783,783,783,783,783,783,783,783,783,783,783,783,783,783,783,783,783,783,783,783,783,783,783,783,783,783,781,765,723,710,699,682,651,635,621,608,587,581,547,542,541,539,527,439,399,384,383,383,405,433],"ymouse":[525,525,525,525,525,525,525,525,525,525,525,525,525,525,525,525,525,525,525,525,525,525,525,525,525,525,525,525,525,525,522,492,398,356,329,303,260,242,223,204,177,171,147,145,145,145,143,107,89,84,83,83,84,88],"timestamp_mouse":[10,30,66,70,90,110,130,150,171,190,210,230,250,270,290,310,330,350,371,391,411,431,451,471,491,511,531,550,570,591,610,630,650,670,691,710,731,750,770,790,810,830,850,870,890,911,930,950,970,991,1010,1030,1051,1070],"xSR":741.5,"ySR":490.1,"xT1":424.9,"yT1":0,"xT2":1058.1,"yT2":0,"toosoon":0,"cond_shown":"equaldotanddens","ratio_trial":500,"smaller_num":"6","larger_num":"12","correct_side":1,"subjID":"martinjuanjimenez12","gender":"0","age":"9","school":"4"},{"start_time":1552329122854,"click_time":1552329123684,"finger_time":1552329123244,"fix_duration":1408.885967283593,"trial":17,"RT":390,"MT":440,"sideResp":1,"stimulus":"img/750/equaldotsize/L/6_Ratio_750_L_24_R_18.png","xmouse":[779,779,779,779,779,779,779,779,779,779,779,779,779,779,779,779,779,779,778,778,770,753,739,728,715,689,682,682,681,675,660,660,660,660,660,658,652,647,640,624,542,517],"ymouse":[524,524,524,524,524,524,524,524,524,524,524,524,524,524,524,524,524,524,521,468,413,351,292,256,222,177,159,156,149,139,109,102,99,98,98,92,90,87,86,82,71,69],"timestamp_mouse":[14,39,49,69,89,109,128,150,170,189,210,230,249,270,290,309,329,349,369,390,409,429,449,470,489,509,529,549,569,589,609,629,649,669,689,709,729,749,769,790,809,829],"xSR":741.5,"ySR":490.1,"xT1":424.9,"yT1":0,"xT2":1058.1,"yT2":0,"toosoon":0,"cond_shown":"equaldotsize","ratio_trial":750,"smaller_num":"18","larger_num":"24","correct_side":1,"subjID":"martinjuanjimenez12","gender":"0","age":"9","school":"4"},{"start_time":1552329127449,"click_time":1552329128043,"finger_time":1552329127804,"fix_duration":923.4476418111117,"trial":18,"RT":355,"MT":239,"sideResp":1,"stimulus":"img/900/equaldotsize/L/10_Ratio_900_L_20_R_18.png","xmouse":[789,789,789,789,789,789,789,789,789,789,789,789,789,789,789,785,743,700,674,652,632,628,628,627,613,561,530,482,455,437],"ymouse":[537,537,537,537,537,537,537,537,537,537,537,537,537,537,537,537,496,427,357,284,211,202,202,201,202,200,192,163,131,83],"timestamp_mouse":[15,46,55,75,95,115,134,154,174,195,214,234,255,274,295,314,334,355,375,394,415,435,455,474,494,514,535,554,574,594],"xSR":741.5,"ySR":490.1,"xT1":424.9,"yT1":0,"xT2":1058.1,"yT2":0,"toosoon":0,"cond_shown":"equaldotsize","ratio_trial":900,"smaller_num":"18","larger_num":"20","correct_side":1,"subjID":"martinjuanjimenez12","gender":"0","age":"9","school":"4"},{"start_time":1552329140164,"click_time":1552329140603,"finger_time":1552329140504,"fix_duration":698.7544484366643,"trial":19,"RT":340,"MT":99,"sideResp":1,"stimulus":"img/250/randomdotsizeEA/R/9_Ratio_250_L_3_R_12.png","xmouse":[792,792,792,792,792,792,792,792,792,792,792,792,792,792,792,793,793,793,793,729,651,558,511],"ymouse":[546,546,546,546,546,546,546,546,546,546,546,546,546,546,546,532,508,467,412,262,178,103,69],"timestamp_mouse":[1,19,40,58,79,99,120,138,159,179,200,219,239,260,280,300,318,340,359,380,399,419,439],"xSR":741.5,"ySR":490.1,"xT1":424.9,"yT1":0,"xT2":1058.1,"yT2":0,"toosoon":0,"cond_shown":"randomdotsizeEA","ratio_trial":250,"smaller_num":"3","larger_num":"12","correct_side":2,"subjID":"martinjuanjimenez12","gender":"0","age":"9","school":"4"},{"start_time":1552329143571,"click_time":1552329144224,"finger_time":1552329143963,"fix_duration":1424.8919072261735,"trial":20,"RT":392,"MT":261,"sideResp":1,"stimulus":"img/750/equaldotsize/R/12_Ratio_750_L_3_R_4.png","xmouse":[817,819,819,820,820,820,820,820,821,821,821,821,821,821,823,825,830,834,838,840,832,815,782,707,603,584,575,568,560,548,539,515,484],"ymouse":[560,559,559,558,558,558,558,558,558,558,558,558,557,557,556,553,545,536,522,480,454,423,378,300,219,200,188,176,162,133,117,100,78],"timestamp_mouse":[14,41,52,72,93,112,132,152,171,192,213,231,251,272,292,313,333,352,371,392,411,432,451,472,491,512,532,552,572,592,612,633,653],"xSR":741.5,"ySR":490.1,"xT1":424.9,"yT1":0,"xT2":1058.1,"yT2":0,"toosoon":0,"cond_shown":"equaldotsize","ratio_trial":750,"smaller_num":"3","larger_num":"4","correct_side":2,"subjID":"martinjuanjimenez12","gender":"0","age":"9","school":"4"},{"start_time":1552329146332,"click_time":1552329147082,"finger_time":1552329146743,"fix_duration":287.9944517888977,"trial":21,"RT":411,"MT":339,"sideResp":2,"stimulus":"img/750/randomdotsizeEA/R/4_Ratio_750_L_15_R_20.png","xmouse":[808,808,808,808,808,808,808,808,808,808,808,808,808,808,808,808,808,808,808,808,816,917,958,972,973,973,973,973,974,975,981,1009,1026,1046,1057,1067,1084,1096],"ymouse":[513,513,513,513,513,513,513,513,513,513,513,513,513,513,513,513,513,513,513,499,482,362,316,294,285,284,284,284,280,277,263,214,187,155,137,123,103,93],"timestamp_mouse":[22,52,52,71,91,111,131,151,170,191,211,232,250,271,291,310,330,352,372,390,411,431,452,471,491,511,531,550,572,592,612,631,651,670,690,711,732,750],"xSR":741.5,"ySR":490.1,"xT1":424.9,"yT1":0,"xT2":1058.1,"yT2":0,"toosoon":0,"cond_shown":"randomdotsizeEA","ratio_trial":750,"smaller_num":"15","larger_num":"20","correct_side":2,"subjID":"martinjuanjimenez12","gender":"0","age":"9","school":"4"},{"start_time":1552329149490,"click_time":1552329150262,"finger_time":1552329149862,"fix_duration":1486.550912077755,"trial":22,"RT":372,"MT":400,"sideResp":1,"stimulus":"img/500/equaldotanddens/L/5_Ratio_500_L_4_R_2.png","xmouse":[780,780,780,780,780,780,780,780,780,780,780,779,779,779,779,779,779,779,734,659,576,496,443,380,363,352,345,342,342,342,342,345,345,345,345,345,345,345,426],"ymouse":[541,541,541,541,541,541,541,541,541,541,541,541,540,540,540,540,534,531,469,407,336,276,233,173,146,126,105,58,42,27,11,4,4,4,4,4,4,4,7],"timestamp_mouse":[13,33,53,74,93,113,133,154,173,193,213,234,254,273,294,313,333,353,372,393,413,433,453,472,493,513,533,555,572,593,612,634,652,673,692,712,732,752,772],"xSR":741.5,"ySR":490.1,"xT1":424.9,"yT1":0,"xT2":1058.1,"yT2":0,"toosoon":0,"cond_shown":"equaldotanddens","ratio_trial":500,"smaller_num":"2","larger_num":"4","correct_side":1,"subjID":"martinjuanjimenez12","gender":"0","age":"9","school":"4"},{"start_time":1552329155081,"click_time":1552329156145,"finger_time":1552329155523,"fix_duration":1316.5998189747124,"trial":23,"RT":442,"MT":622,"sideResp":1,"stimulus":"img/500/randomdotsizeEA/R/1_Ratio_500_L_9_R_18.png","xmouse":[800,800,800,800,800,800,800,800,800,800,800,800,800,800,800,800,800,800,800,800,800,800,793,775,605,462,334,334,334,334,334,334,334,334,334,334,334,334,334,334,334,334,334,334,391,398,402,402,402,402,402,406,412,428],"ymouse":[529,529,529,529,529,529,529,529,529,529,529,529,529,529,529,529,529,529,529,528,518,502,480,442,239,110,3,3,3,3,3,3,3,3,3,3,3,3,3,3,3,3,3,3,36,53,57,57,57,57,57,54,53,43],"timestamp_mouse":[10,22,43,63,83,102,122,141,162,183,203,223,243,262,282,302,322,342,361,382,402,423,442,461,482,502,522,542,562,582,602,623,642,662,682,703,722,742,761,782,801,822,842,862,882,902,922,942,963,983,1001,1022,1042,1064],"xSR":741.5,"ySR":490.1,"xT1":424.9,"yT1":0,"xT2":1058.1,"yT2":0,"toosoon":0,"cond_shown":"randomdotsizeEA","ratio_trial":500,"smaller_num":"9","larger_num":"18","correct_side":2,"subjID":"martinjuanjimenez12","gender":"0","age":"9","school":"4"},{"start_time":1552329159855,"click_time":1552329160963,"finger_time":1552329160283,"fix_duration":250,"trial":24,"RT":428,"MT":680,"sideResp":2,"stimulus":"img/250/equaldotanddens/R/10_Ratio_250_L_4_R_16.png","xmouse":[795,795,795,795,795,796,796,796,796,796,796,796,796,796,796,796,796,796,796,796,796,794,784,770,762,778,844,965,1202,1202,1202,1202,1202,1202,1202,1202,1202,1202,1202,1202,1202,1202,1202,1202,1202,1202,1202,1202,1208,1190,1180,1178,1175,1172,1167,1148],"ymouse":[539,539,539,539,539,539,539,539,539,539,539,539,539,539,539,539,539,539,539,536,514,489,452,403,348,251,191,117,23,23,23,23,23,23,23,23,23,23,23,23,23,23,23,23,23,23,23,23,1,11,14,14,14,14,16,31],"timestamp_mouse":[12,42,48,69,88,108,128,149,168,188,209,228,248,268,289,308,329,348,368,388,408,428,448,468,488,507,528,548,568,587,607,627,648,667,687,707,728,749,769,787,808,827,848,868,887,908,929,948,968,988,1009,1027,1048,1068,1088,1107],"xSR":741.5,"ySR":490.1,"xT1":424.9,"yT1":0,"xT2":1058.1,"yT2":0,"toosoon":0,"cond_shown":"equaldotanddens","ratio_trial":250,"smaller_num":"4","larger_num":"16","correct_side":2,"subjID":"martinjuanjimenez12","gender":"0","age":"9","school":"4"},{"start_time":1552329165934,"click_time":1552329166683,"finger_time":1552329166283,"fix_duration":1428.3269537991782,"trial":25,"RT":349,"MT":400,"sideResp":2,"stimulus":"img/250/equaldotanddens/R/13_Ratio_250_L_2_R_8.png","xmouse":[768,768,769,770,770,771,771,771,771,771,771,771,771,771,771,771,787,813,858,906,945,945,945,945,945,945,945,945,945,945,945,945,945,945,945,945,945,1075],"ymouse":[526,526,526,526,526,526,526,526,526,526,526,526,526,526,526,526,501,436,333,205,60,60,60,60,60,60,60,60,60,60,60,60,60,60,60,60,60,20],"timestamp_mouse":[12,29,49,70,89,109,130,150,168,188,210,228,249,269,289,309,329,349,370,389,409,429,449,468,488,509,528,549,569,589,609,629,649,669,689,710,730,749],"xSR":741.5,"ySR":490.1,"xT1":424.9,"yT1":0,"xT2":1058.1,"yT2":0,"toosoon":0,"cond_shown":"equaldotanddens","ratio_trial":250,"smaller_num":"2","larger_num":"8","correct_side":2,"subjID":"martinjuanjimenez12","gender":"0","age":"9","school":"4"},{"start_time":1552329172042,"click_time":1552329172882,"finger_time":1552329172065,"fix_duration":1099.104039557718,"trial":26,"RT":23,"MT":817,"sideResp":2,"stimulus":"img/250/randomdotsizeEA/L/7_Ratio_250_L_8_R_2.png","xmouse":[798,845,867,875,877,877,877,877,877,877,877,877,875,867,859,840,766,732,711,711,749,850,877,892,902,909,928,940,959,983,1028,1051,1053,1053,1053,1053,1054,1054,1054,1055,1056,1057,1061],"ymouse":[538,420,365,331,318,312,311,311,311,311,311,311,311,314,316,318,311,298,284,281,250,180,166,155,147,142,131,122,109,94,60,44,42,42,42,42,42,42,42,42,42,42,42],"timestamp_mouse":[1,23,41,62,81,102,121,142,162,181,202,222,241,261,281,301,321,341,361,381,401,421,441,461,481,501,521,541,560,580,601,621,642,662,682,702,721,741,762,781,801,821,840],"xSR":741.5,"ySR":490.1,"xT1":424.9,"yT1":0,"xT2":1058.1,"yT2":0,"toosoon":0,"cond_shown":"randomdotsizeEA","ratio_trial":250,"smaller_num":"2","larger_num":"8","correct_side":1,"subjID":"martinjuanjimenez12","gender":"0","age":"9","school":"4"},{"start_time":1552329174714,"click_time":1552329175063,"finger_time":1552329175022,"fix_duration":250,"trial":27,"RT":308,"MT":41,"sideResp":1,"stimulus":"img/900/randomdotsizeEA/R/13_Ratio_900_L_18_R_20.png","xmouse":[796,796,796,796,796,796,796,796,796,796,796,794,790,784,772,746,590,471],"ymouse":[555,555,555,555,555,555,555,555,555,555,555,553,549,543,527,481,225,92],"timestamp_mouse":[15,29,48,70,90,110,130,148,169,189,210,229,249,269,289,308,329,348],"xSR":741.5,"ySR":490.1,"xT1":424.9,"yT1":0,"xT2":1058.1,"yT2":0,"toosoon":0,"cond_shown":"randomdotsizeEA","ratio_trial":900,"smaller_num":"18","larger_num":"20","correct_side":2,"subjID":"martinjuanjimenez12","gender":"0","age":"9","school":"4"},{"start_time":1552329182117,"click_time":1552329189403,"finger_time":1552329182443,"fix_duration":1072.0965487730987,"trial":28,"RT":326,"MT":6960,"sideResp":1,"stimulus":"img/500/randomdotsizeEA/L/10_Ratio_500_L_4_R_2.png","xmouse":[789,789,789,789,789,789,789,789,789,789,789,789,789,789,789,810,1007,1302,1302,1252,983,0,0,0,0,6,6,4,18,128,99,0,0,0,0,0,27,27,27,231,214,214,214,214,214,214,214,214,214,214,214,214,214,214,214,214,214,214,214,214,214,214,214,214,214,214,214,214,214,214,214,214,214,214,214,214,214,214,214,214,214,214,214,214,214,214,214,214,214,214,214,214,214,214,214,214,214,214,214,445,450,464,494,546,569,583,592,604,631,649,665,680,702,708,714,718,723,729,761,761,761,761,761,761,761,761,761,761,761,761,761,761,761,761,761,761,761,761,761,761,761,761,761,761,761,761,761,761,761,761,761,761,761,761,761,761,761,761,761,761,761,761,761,761,761,761,761,761,761,761,761,761,761,761,761,761,761,761,761,761,761,761,761,761,761,761,761,761,761,761,761,761,761,761,761,761,761,761,761,761,761,761,761,761,761,761,761,761,761,761,761,761,761,761,761,761,761,761,761,761,761,761,761,761,761,761,761,761,761,761,761,761,761,761,761,761,761,761,761,761,761,761,761,761,761,761,761,761,761,761,761,761,761,761,761,761,761,761,761,761,761,761,761,761,761,761,761,761,761,657,617,592,592,592,592,592,592,593,593,594,598,609,626,631,637,643,650,667,677,688,705,736,782,805,827,848,911,955,984,1000,1002,994,977,970,964,954,923,909,899,892,881,866,858,858,857,855,855,851,849,847,845,836,830,823,817,812,808,801,799,798,797,795,772,723,637,543,458,379,368,364,363,363,363,363,363,363,373,382,389,392,396,401,401,402,404,409,414,415,419,427],"ymouse":[559,559,559,559,559,559,559,559,559,559,559,559,559,559,559,545,415,243,243,274,341,360,322,320,329,279,279,283,270,319,361,437,431,319,185,81,37,37,37,37,16,16,16,16,16,16,16,16,16,16,16,16,16,16,16,16,16,16,16,16,16,16,16,16,16,16,16,16,16,16,16,16,16,16,16,16,16,16,16,16,16,16,16,16,16,16,16,16,16,16,16,16,16,16,16,16,16,16,16,289,278,252,215,190,181,173,167,159,132,111,88,62,20,10,4,2,1,1,15,15,15,15,15,15,15,15,15,15,15,15,15,15,15,15,15,15,15,15,15,15,15,15,15,15,15,15,15,15,15,15,15,15,15,15,15,15,15,15,15,15,15,15,15,15,15,15,15,15,15,15,15,15,15,15,15,15,15,15,15,15,15,15,15,15,15,15,15,15,15,15,15,15,15,15,15,15,15,15,15,15,15,15,15,15,15,15,15,15,15,15,15,15,15,15,15,15,15,15,15,15,15,15,15,15,15,15,15,15,15,15,15,15,15,15,15,15,15,15,15,15,15,15,15,15,15,15,15,15,15,15,15,15,15,15,15,15,15,15,15,15,15,15,15,15,15,15,15,15,15,160,155,149,149,149,149,150,151,154,155,155,156,162,176,182,189,196,205,218,225,234,241,254,264,268,271,274,308,340,374,402,418,436,449,450,450,449,443,443,443,445,447,452,457,458,460,463,464,468,470,472,473,480,484,489,494,502,507,515,518,519,519,520,515,491,442,386,334,255,226,202,181,151,117,102,87,78,62,58,54,52,50,48,48,48,47,45,45,44,44,44],"timestamp_mouse":[15,29,46,66,86,106,125,146,166,185,205,226,246,266,285,305,326,346,366,387,405,427,445,466,486,505,525,546,566,587,606,628,645,665,685,706,727,746,765,787,805,825,845,866,885,905,927,946,967,986,1007,1027,1046,1066,1086,1107,1126,1146,1165,1187,1205,1226,1247,1266,1333,1390,1406,1428,1447,1467,1486,1506,1527,1546,1567,1587,1606,1627,1646,1666,1686,1706,1726,1746,1768,1786,1807,1826,1846,1866,1886,1906,1927,1947,1966,1986,2006,2027,2046,2065,2085,2105,2126,2146,2167,2186,2207,2226,2245,2266,2285,2305,2327,2345,2366,2387,2405,2426,2445,2465,2486,2507,2526,2547,2566,2587,2607,2626,2645,2666,2685,2705,2726,2747,2766,2787,2807,2827,2845,2866,2886,2906,2927,2945,2965,2985,3006,3027,3045,3067,3085,3106,3126,3146,3166,3185,3205,3227,3246,3266,3287,3307,3326,3346,3366,3385,3406,3425,3445,3466,3486,3507,3526,3546,3567,3586,3605,3627,3646,3667,3687,3705,3727,3747,3766,3787,3806,3825,3845,3865,3885,3906,3926,3947,3967,3987,4006,4025,4047,4065,4085,4105,4126,4145,4167,4187,4207,4226,4247,4266,4286,4305,4330,4345,4366,4386,4407,4426,4447,4467,4486,4506,4526,4548,4568,4586,4606,4627,4646,4666,4686,4707,4725,4748,4765,4786,4805,4826,4846,4867,4886,4906,4925,4946,4965,4986,5005,5026,5047,5066,5087,5106,5127,5146,5166,5186,5206,5226,5245,5265,5286,5305,5327,5371,5387,5407,5426,5447,5467,5490,5505,5527,5546,5566,5587,5606,5625,5646,5665,5686,5705,5726,5745,5765,5785,5807,5826,5846,5866,5886,5906,5925,5945,5966,5986,6005,6027,6046,6067,6086,6106,6125,6146,6165,6186,6206,6228,6245,6267,6286,6306,6325,6345,6366,6386,6406,6427,6446,6466,6485,6506,6526,6546,6566,6586,6606,6625,6645,6665,6686,6707,6726,6747,6765,6786,6806,6826,6845,6865,6887,6906,6925,6946,6966,6986,7006,7026,7046,7067,7086,7106,7128,7146,7166,7185,7205,7227,7246,7267,7286],"xSR":741.5,"ySR":490.1,"xT1":424.9,"yT1":0,"xT2":1058.1,"yT2":0,"toosoon":0,"cond_shown":"randomdotsizeEA","ratio_trial":500,"smaller_num":"2","larger_num":"4","correct_side":1,"subjID":"martinjuanjimenez12","gender":"0","age":"9","school":"4"},{"start_time":1552329190775,"click_time":1552329192163,"finger_time":1552329190868,"fix_duration":250,"trial":29,"RT":93,"MT":1295,"sideResp":1,"stimulus":"img/500/equaldotanddens/L/7_Ratio_500_L_10_R_5.png","xmouse":[805,797,797,744,688,688,688,687,687,687,687,687,687,687,687,687,687,687,695,699,700,701,701,701,697,696,695,694,694,687,663,602,491,309,309,309,309,309,309,309,309,309,309,309,299,343,375,398,410,413,413,413,425,437,446,447,447,448,448,445,444,444,444,444,446,450,455,461,465,481],"ymouse":[538,538,538,530,515,515,515,514,514,514,514,514,514,514,514,514,514,514,510,507,506,501,498,493,482,479,478,477,476,465,433,354,227,14,14,14,14,14,14,14,14,14,14,14,68,126,173,204,217,221,221,221,212,200,183,176,171,168,163,145,139,135,134,133,129,124,121,117,111,88],"timestamp_mouse":[15,41,48,67,93,109,129,149,169,188,207,228,248,268,288,308,327,347,369,387,408,429,447,467,488,508,528,547,568,587,608,628,649,667,689,707,727,748,769,788,808,827,848,868,888,907,928,947,967,988,1008,1027,1048,1068,1088,1108,1128,1147,1168,1187,1208,1228,1249,1268,1288,1307,1327,1347,1368,1388],"xSR":741.5,"ySR":490.1,"xT1":424.9,"yT1":0,"xT2":1058.1,"yT2":0,"toosoon":0,"cond_shown":"equaldotanddens","ratio_trial":500,"smaller_num":"5","larger_num":"10","correct_side":1,"subjID":"martinjuanjimenez12","gender":"0","age":"9","school":"4"},{"start_time":1552329194275,"click_time":1552329195762,"finger_time":1552329195003,"fix_duration":250,"trial":30,"RT":728,"MT":759,"sideResp":1,"stimulus":"img/250/randomdotsizeEA/L/3_Ratio_250_L_8_R_2.png","xmouse":[805,805,805,804,800,799,799,799,798,789,777,764,753,746,745,745,744,744,744,744,744,744,744,744,744,744,744,745,746,746,746,746,746,746,746,746,746,747,747,738,731,723,701,649,639,633,631,631,630,630,630,630,630,629,614,598,580,564,558,558,558,558,558,558,557,554,552,550,547,544,544,544,544,535,523],"ymouse":[528,530,530,531,533,533,533,533,533,536,539,543,548,551,551,551,551,551,551,551,551,551,551,551,551,551,551,551,551,551,551,551,534,523,496,491,485,459,430,381,355,328,279,172,150,135,129,124,121,120,120,120,120,119,117,115,108,102,100,100,100,100,100,100,99,96,91,85,78,74,74,73,73,73,73],"timestamp_mouse":[16,38,49,68,88,107,129,148,168,188,207,227,248,269,287,309,327,348,369,388,408,428,449,468,489,508,528,548,568,589,609,628,647,668,687,708,728,748,769,788,807,827,847,869,887,909,929,949,968,989,1008,1029,1048,1069,1088,1108,1128,1147,1167,1187,1207,1227,1247,1267,1287,1307,1327,1347,1367,1387,1407,1427,1447,1469,1487],"xSR":741.5,"ySR":490.1,"xT1":424.9,"yT1":0,"xT2":1058.1,"yT2":0,"toosoon":0,"cond_shown":"randomdotsizeEA","ratio_trial":250,"smaller_num":"2","larger_num":"8","correct_side":1,"subjID":"martinjuanjimenez12","gender":"0","age":"9","school":"4"},{"start_time":1552329203077,"click_time":1552329203562,"finger_time":1552329203482,"fix_duration":1072.8662006597008,"trial":31,"RT":405,"MT":80,"sideResp":1,"stimulus":"img/250/randomdotsizeEA/L/1_Ratio_250_L_8_R_2.png","xmouse":[779,779,779,779,779,779,780,780,781,782,782,782,782,782,782,782,783,783,783,777,757,725,683,629,498],"ymouse":[565,565,565,565,565,565,565,564,564,563,563,563,563,563,563,561,559,551,527,502,451,373,284,193,35],"timestamp_mouse":[15,28,49,65,86,105,125,146,166,185,206,225,246,265,286,306,325,345,366,385,405,426,446,465,485],"xSR":741.5,"ySR":490.1,"xT1":424.9,"yT1":0,"xT2":1058.1,"yT2":0,"toosoon":0,"cond_shown":"randomdotsizeEA","ratio_trial":250,"smaller_num":"2","larger_num":"8","correct_side":1,"subjID":"martinjuanjimenez12","gender":"0","age":"9","school":"4"},{"start_time":1552329214170,"click_time":1552329215042,"finger_time":1552329214663,"fix_duration":985.0266585331284,"trial":32,"RT":493,"MT":379,"sideResp":1,"stimulus":"img/900/equaldotsize/R/13_Ratio_900_L_18_R_20.png","xmouse":[801,801,801,801,801,801,801,801,801,801,801,801,801,801,801,801,801,801,801,801,801,800,799,788,735,659,605,591,584,570,556,550,549,549,549,549,549,549,549,549,547,532,509,484],"ymouse":[534,534,534,534,534,534,534,534,534,534,534,534,534,534,534,534,534,534,534,534,534,533,532,520,479,442,409,372,341,243,189,143,123,115,115,115,115,115,115,115,114,110,103,96],"timestamp_mouse":[12,36,53,73,92,112,132,152,173,192,214,233,254,274,293,313,332,352,374,393,413,434,452,473,493,513,533,553,572,593,612,633,654,673,692,712,733,752,773,792,813,832,852,872],"xSR":741.5,"ySR":490.1,"xT1":424.9,"yT1":0,"xT2":1058.1,"yT2":0,"toosoon":0,"cond_shown":"equaldotsize","ratio_trial":900,"smaller_num":"18","larger_num":"20","correct_side":2,"subjID":"martinjuanjimenez12","gender":"0","age":"9","school":"4"},{"start_time":1552329220857,"click_time":1552329221562,"finger_time":1552329221243,"fix_duration":911.0935877888795,"trial":33,"RT":386,"MT":319,"sideResp":1,"stimulus":"img/750/equaldotanddens/L/9_Ratio_750_L_4_R_3.png","xmouse":[808,808,808,808,808,808,808,808,808,808,808,808,808,808,808,808,808,808,810,815,805,779,739,682,627,568,566,566,566,566,566,566,562,547,488,468],"ymouse":[546,546,546,546,546,546,546,546,546,546,546,546,546,546,546,546,538,521,499,437,412,382,357,332,312,298,298,298,298,298,298,294,273,241,128,73],"timestamp_mouse":[11,40,46,67,86,105,125,145,166,185,205,225,245,265,286,305,326,346,365,386,406,425,446,466,485,505,525,546,565,586,605,625,646,665,686,705],"xSR":741.5,"ySR":490.1,"xT1":424.9,"yT1":0,"xT2":1058.1,"yT2":0,"toosoon":0,"cond_shown":"equaldotanddens","ratio_trial":750,"smaller_num":"3","larger_num":"4","correct_side":1,"subjID":"martinjuanjimenez12","gender":"0","age":"9","school":"4"},{"start_time":1552329228030,"click_time":1552329228562,"finger_time":1552329228402,"fix_duration":845.4239920746162,"trial":34,"RT":372,"MT":160,"sideResp":2,"stimulus":"img/250/equaldotsize/R/13_Ratio_250_L_2_R_8.png","xmouse":[782,782,782,782,782,782,782,782,782,782,782,782,782,783,786,791,791,791,784,777,747,707,698,700,739,833,1142],"ymouse":[555,555,555,555,555,555,555,555,555,555,555,555,555,551,540,522,512,499,470,457,407,329,296,256,204,146,47],"timestamp_mouse":[14,39,53,72,92,112,132,153,172,193,214,232,252,272,292,314,333,352,372,392,412,432,452,473,493,513,532],"xSR":741.5,"ySR":490.1,"xT1":424.9,"yT1":0,"xT2":1058.1,"yT2":0,"toosoon":0,"cond_shown":"equaldotsize","ratio_trial":250,"smaller_num":"2","larger_num":"8","correct_side":2,"subjID":"martinjuanjimenez12","gender":"0","age":"9","school":"4"},{"start_time":1552329235330,"click_time":1552329236482,"finger_time":1552329235682,"fix_duration":945.5875073123028,"trial":35,"RT":352,"MT":800,"sideResp":2,"stimulus":"img/500/randomdotsizeEA/R/1_Ratio_500_L_9_R_18.png","xmouse":[789,789,789,789,789,789,789,789,789,789,789,789,789,789,789,789,789,804,803,803,803,802,802,801,801,801,801,801,801,801,801,801,816,899,927,969,969,967,967,969,976,980,987,991,990,978,974,974,979,985,993,1000,1000,1000,1015,1028,1053,1061],"ymouse":[501,501,501,501,501,501,501,501,501,501,501,501,501,501,501,501,501,429,429,429,429,431,435,438,438,438,438,438,438,438,438,438,434,397,385,357,329,319,312,304,292,245,211,185,161,141,137,137,133,130,130,126,126,126,115,99,56,35],"timestamp_mouse":[15,38,52,72,94,112,133,152,172,192,212,232,252,272,294,312,334,352,372,392,413,432,453,472,493,512,532,553,573,592,614,632,654,672,693,713,732,752,772,793,812,832,852,872,892,912,932,952,972,993,1012,1032,1052,1072,1093,1112,1132,1152],"xSR":741.5,"ySR":490.1,"xT1":424.9,"yT1":0,"xT2":1058.1,"yT2":0,"toosoon":0,"cond_shown":"randomdotsizeEA","ratio_trial":500,"smaller_num":"9","larger_num":"18","correct_side":2,"subjID":"martinjuanjimenez12","gender":"0","age":"9","school":"4"},{"start_time":1552329240255,"click_time":1552329241083,"finger_time":1552329240643,"fix_duration":250,"trial":36,"RT":388,"MT":440,"sideResp":1,"stimulus":"img/900/equaldotsize/R/5_Ratio_900_L_9_R_10.png","xmouse":[818,818,818,818,818,818,818,818,818,818,818,818,818,818,818,818,818,815,811,742,673,597,515,461,438,432,437,445,451,456,458,458,460,462,465,479,488,493,498,497,468,444],"ymouse":[556,556,556,556,556,556,556,556,556,556,556,556,556,556,555,552,549,538,532,462,408,353,297,259,241,234,229,224,220,211,206,201,198,194,191,184,176,168,152,141,106,85],"timestamp_mouse":[11,41,48,68,88,108,127,147,168,187,207,227,247,267,288,308,328,347,368,388,407,427,447,468,487,507,527,547,568,589,608,627,647,668,687,707,727,748,767,787,808,827],"xSR":741.5,"ySR":490.1,"xT1":424.9,"yT1":0,"xT2":1058.1,"yT2":0,"toosoon":0,"cond_shown":"equaldotsize","ratio_trial":900,"smaller_num":"9","larger_num":"10","correct_side":2,"subjID":"martinjuanjimenez12","gender":"0","age":"9","school":"4"},{"start_time":1552329244935,"click_time":1552329245762,"finger_time":1552329245323,"fix_duration":390.723550864677,"trial":37,"RT":388,"MT":439,"sideResp":1,"stimulus":"img/500/equaldotsize/L/10_Ratio_500_L_4_R_2.png","xmouse":[796,796,796,796,796,796,796,796,796,796,796,796,796,796,796,796,796,793,787,779,751,720,676,617,565,500,477,477,477,477,463,446,434,428,428,428,441,449,454,458,460,464],"ymouse":[549,549,549,549,549,549,549,549,549,549,549,549,549,549,549,549,549,539,518,490,398,337,283,235,211,178,168,168,168,168,159,149,139,135,135,135,135,135,132,129,120,91],"timestamp_mouse":[11,38,47,68,87,108,127,147,168,188,209,228,248,267,287,308,327,347,367,388,408,427,448,467,487,509,529,547,568,587,609,627,648,667,688,707,727,747,768,788,807,827],"xSR":741.5,"ySR":490.1,"xT1":424.9,"yT1":0,"xT2":1058.1,"yT2":0,"toosoon":0,"cond_shown":"equaldotsize","ratio_trial":500,"smaller_num":"2","larger_num":"4","correct_side":1,"subjID":"martinjuanjimenez12","gender":"0","age":"9","school":"4"},{"start_time":1552329251420,"click_time":1552329252343,"finger_time":1552329251762,"fix_duration":1015.5547736512457,"trial":38,"RT":342,"MT":581,"sideResp":2,"stimulus":"img/250/randomdotsizeEA/R/9_Ratio_250_L_3_R_12.png","xmouse":[786,786,786,785,784,784,784,784,783,782,782,782,782,782,782,781,779,762,746,727,705,670,637,626,617,609,601,602,620,649,705,853,868,873,876,878,880,886,890,894,909,971,990,1006,1021,1045,1089],"ymouse":[555,555,555,554,553,553,553,553,553,551,551,551,551,551,549,545,532,462,408,360,311,252,219,204,186,168,147,146,146,150,171,220,220,218,214,212,211,211,210,210,206,173,158,140,120,99,67],"timestamp_mouse":[14,22,42,62,82,104,123,142,162,183,202,223,244,262,283,303,324,342,362,382,402,422,442,462,483,502,525,542,563,583,603,624,642,662,682,703,724,742,763,783,803,824,842,862,883,902,923],"xSR":741.5,"ySR":490.1,"xT1":424.9,"yT1":0,"xT2":1058.1,"yT2":0,"toosoon":0,"cond_shown":"randomdotsizeEA","ratio_trial":250,"smaller_num":"3","larger_num":"12","correct_side":2,"subjID":"martinjuanjimenez12","gender":"0","age":"9","school":"4"},{"start_time":1552329257274,"click_time":1552329258384,"finger_time":1552329257762,"fix_duration":250,"trial":39,"RT":488,"MT":622,"sideResp":2,"stimulus":"img/500/equaldotsize/R/12_Ratio_500_L_1_R_2.png","xmouse":[787,787,787,787,787,787,787,787,787,787,787,787,787,787,787,787,788,789,791,794,798,802,806,811,834,873,977,1129,1406,1563,1563,1563,1563,1563,1563,1563,1563,1563,1563,1563,1563,1563,1563,1563,1563,1563,1563,1563,1563,1563,1563,1040,1040,1043,1058,1071],"ymouse":[564,564,564,564,564,564,564,564,564,564,564,564,564,564,564,564,564,562,557,548,542,531,520,506,468,433,374,297,156,72,72,72,72,72,72,72,72,72,72,72,72,72,72,72,72,72,72,72,72,72,72,3,9,17,31,35],"timestamp_mouse":[17,29,49,69,88,108,128,150,169,188,209,229,250,268,289,309,329,349,369,389,408,428,448,469,488,508,529,549,569,588,609,629,648,669,689,709,728,749,770,789,809,830,849,870,889,909,929,948,969,989,1008,1028,1048,1070,1088,1109],"xSR":741.5,"ySR":490.1,"xT1":424.9,"yT1":0,"xT2":1058.1,"yT2":0,"toosoon":0,"cond_shown":"equaldotsize","ratio_trial":500,"smaller_num":"1","larger_num":"2","correct_side":2,"subjID":"martinjuanjimenez12","gender":"0","age":"9","school":"4"},{"start_time":1552329268586,"click_time":1552329269363,"finger_time":1552329269044,"fix_duration":461.8243219315602,"trial":40,"RT":458,"MT":319,"sideResp":2,"stimulus":"img/250/equaldotsize/R/13_Ratio_250_L_2_R_8.png","xmouse":[800,800,800,800,800,800,800,800,800,800,800,800,800,800,800,800,800,800,800,804,828,840,897,915,928,936,939,940,940,943,948,954,986,999,1011,1021,1033,1042,1062],"ymouse":[534,534,534,534,534,534,534,534,534,534,534,534,534,534,534,534,534,534,534,528,502,491,437,412,388,370,357,350,339,326,312,295,218,181,154,133,119,110,97],"timestamp_mouse":[17,41,57,77,97,116,137,156,176,197,218,237,256,276,296,317,336,357,376,397,416,436,458,477,496,516,537,557,576,596,616,636,658,677,696,717,737,756,777],"xSR":741.5,"ySR":490.1,"xT1":424.9,"yT1":0,"xT2":1058.1,"yT2":0,"toosoon":0,"cond_shown":"equaldotsize","ratio_trial":250,"smaller_num":"2","larger_num":"8","correct_side":2,"subjID":"martinjuanjimenez12","gender":"0","age":"9","school":"4"},{"start_time":1552329271611,"click_time":1552329272422,"finger_time":1552329271962,"fix_duration":648.5234557674365,"trial":41,"RT":351,"MT":460,"sideResp":2,"stimulus":"img/900/randomdotsizeEA/R/11_Ratio_900_L_18_R_20.png","xmouse":[796,796,796,796,796,796,796,796,796,796,796,796,796,796,796,797,799,813,836,870,910,1048,1087,1105,1108,1104,1095,1060,1052,1051,1051,1050,1051,1052,1052,1052,1053,1060,1072,1091,1124],"ymouse":[552,552,552,552,552,552,552,552,552,552,552,552,552,552,550,544,530,481,444,404,368,257,218,187,167,154,149,138,136,135,135,134,131,131,131,131,130,128,120,112,92],"timestamp_mouse":[11,42,51,72,91,111,132,151,171,192,213,232,251,271,291,311,332,351,371,392,412,434,451,472,491,511,532,552,572,591,612,631,651,671,692,711,731,751,772,791,811],"xSR":741.5,"ySR":490.1,"xT1":424.9,"yT1":0,"xT2":1058.1,"yT2":0,"toosoon":0,"cond_shown":"randomdotsizeEA","ratio_trial":900,"smaller_num":"18","larger_num":"20","correct_side":2,"subjID":"martinjuanjimenez12","gender":"0","age":"9","school":"4"},{"start_time":1552329282647,"click_time":1552329283262,"finger_time":1552329283042,"fix_duration":1162.9094390198281,"trial":42,"RT":395,"MT":220,"sideResp":1,"stimulus":"img/900/equaldotanddens/L/4_Ratio_900_L_20_R_18.png","xmouse":[765,765,765,765,765,765,765,765,765,765,765,765,765,765,765,767,773,779,785,789,787,801,820,847,870,880,874,823,795,688,509],"ymouse":[548,548,548,548,548,548,548,548,548,548,548,548,548,548,541,535,526,512,501,476,396,365,345,331,321,304,288,244,224,159,73],"timestamp_mouse":[15,35,55,76,95,116,136,156,176,195,216,236,255,276,297,315,335,356,375,395,416,436,456,476,495,515,535,555,577,595,615],"xSR":741.5,"ySR":490.1,"xT1":424.9,"yT1":0,"xT2":1058.1,"yT2":0,"toosoon":0,"cond_shown":"equaldotanddens","ratio_trial":900,"smaller_num":"18","larger_num":"20","correct_side":1,"subjID":"martinjuanjimenez12","gender":"0","age":"9","school":"4"},{"start_time":1552329293271,"click_time":1552329293702,"finger_time":1552329293622,"fix_duration":1345.5948186650455,"trial":43,"RT":351,"MT":80,"sideResp":1,"stimulus":"img/900/randomdotsizeEA/L/2_Ratio_900_L_20_R_18.png","xmouse":[777,777,777,777,777,777,777,777,777,777,777,778,778,778,778,778,773,743,642,500,480,477],"ymouse":[541,541,541,541,541,541,541,541,541,541,541,541,540,540,538,529,508,458,334,158,117,99],"timestamp_mouse":[14,36,53,73,91,111,131,152,171,191,211,231,253,273,291,312,332,351,372,391,411,431],"xSR":741.5,"ySR":490.1,"xT1":424.9,"yT1":0,"xT2":1058.1,"yT2":0,"toosoon":0,"cond_shown":"randomdotsizeEA","ratio_trial":900,"smaller_num":"18","larger_num":"20","correct_side":1,"subjID":"martinjuanjimenez12","gender":"0","age":"9","school":"4"},{"start_time":1552329295955,"click_time":1552329298762,"finger_time":1552329298482,"fix_duration":490.24083125351825,"trial":44,"RT":2527,"MT":280,"sideResp":1,"stimulus":"img/500/randomdotsizeEA/L/10_Ratio_500_L_4_R_2.png","xmouse":[768,768,768,768,768,768,768,768,768,768,768,768,768,768,768,768,768,768,768,768,768,768,768,768,768,768,768,768,768,768,768,768,768,768,768,768,768,768,768,768,768,768,768,768,768,768,768,768,768,768,768,768,768,768,768,768,768,768,768,768,768,768,768,768,768,768,768,768,768,768,768,768,768,768,768,768,768,768,768,768,768,768,768,768,768,768,768,768,768,768,768,768,768,768,768,768,768,768,768,768,768,768,768,768,768,768,768,768,768,768,768,768,769,769,771,771,772,773,774,776,777,778,779,779,781,775,753,707,631,476,433,427,429,433,436,438,439,440,440,441,447],"ymouse":[534,534,534,534,534,534,534,534,534,534,534,534,534,534,534,534,534,534,534,534,534,534,534,534,534,534,534,534,534,534,534,534,534,534,534,534,534,534,534,534,534,534,534,534,534,534,534,534,534,534,534,534,534,534,534,534,534,534,534,534,534,534,534,534,534,534,534,534,534,534,534,534,534,534,534,534,534,534,534,534,534,534,534,534,534,534,534,534,534,534,534,534,534,534,534,534,534,534,534,534,534,534,534,534,534,534,534,534,534,534,534,534,534,534,533,533,532,532,532,530,530,529,529,526,509,491,461,412,346,199,144,124,116,111,106,104,103,102,102,101,97],"timestamp_mouse":[13,40,47,67,87,108,129,149,169,188,209,229,247,268,288,308,327,347,369,388,408,428,447,468,487,509,528,549,569,587,608,628,647,667,689,709,728,748,768,789,807,828,849,867,888,908,928,948,967,989,1007,1028,1048,1068,1087,1107,1127,1149,1168,1188,1207,1229,1247,1268,1287,1307,1329,1349,1367,1387,1407,1428,1448,1467,1487,1509,1528,1547,1569,1589,1609,1628,1648,1667,1689,1708,1729,1747,1768,1787,1808,1828,1848,1868,1887,1907,1929,1949,1968,1988,2007,2028,2048,2067,2087,2108,2129,2147,2167,2188,2209,2228,2248,2268,2288,2308,2328,2348,2367,2389,2408,2428,2447,2468,2489,2507,2527,2548,2568,2589,2607,2628,2647,2668,2689,2708,2729,2748,2767,2789,2807],"xSR":741.5,"ySR":490.1,"xT1":424.9,"yT1":0,"xT2":1058.1,"yT2":0,"toosoon":0,"cond_shown":"randomdotsizeEA","ratio_trial":500,"smaller_num":"2","larger_num":"4","correct_side":1,"subjID":"martinjuanjimenez12","gender":"0","age":"9","school":"4"},{"start_time":1552329299856,"click_time":1552329300602,"finger_time":1552329300182,"fix_duration":250,"trial":45,"RT":326,"MT":420,"sideResp":2,"stimulus":"img/250/equaldotanddens/R/10_Ratio_250_L_4_R_16.png","xmouse":[800,800,800,800,800,800,800,800,800,800,800,800,800,800,800,801,807,813,818,839,891,956,1052,1149,1211,1230,1218,1201,1188,1173,1166,1166,1164,1162,1161,1160,1160,1158],"ymouse":[507,507,507,507,507,507,507,507,507,507,507,507,507,507,507,501,483,427,396,310,217,177,144,116,98,85,82,79,77,76,75,75,74,74,74,74,74,73],"timestamp_mouse":[21,43,47,67,87,107,128,147,168,186,206,227,246,267,288,306,326,346,367,387,407,426,447,467,487,506,527,546,567,586,606,627,647,668,687,707,726,746],"xSR":741.5,"ySR":490.1,"xT1":424.9,"yT1":0,"xT2":1058.1,"yT2":0,"toosoon":0,"cond_shown":"equaldotanddens","ratio_trial":250,"smaller_num":"4","larger_num":"16","correct_side":2,"subjID":"martinjuanjimenez12","gender":"0","age":"9","school":"4"},{"start_time":1552329304934,"click_time":1552329305663,"finger_time":1552329305322,"fix_duration":250,"trial":46,"RT":388,"MT":341,"sideResp":2,"stimulus":"img/900/equaldotsize/R/12_Ratio_900_L_18_R_20.png","xmouse":[811,811,811,811,811,811,811,811,810,810,810,810,810,810,810,810,810,810,810,810,811,815,821,835,855,905,972,994,1011,1028,1044,1079,1091,1099,1101,1095,1067],"ymouse":[503,503,503,503,503,503,502,501,501,501,501,500,500,500,499,498,497,496,492,487,476,468,460,445,427,386,329,308,289,268,249,205,180,154,122,108,78],"timestamp_mouse":[11,44,49,69,88,108,130,148,168,189,210,230,250,269,288,310,329,348,369,388,410,428,449,469,489,508,528,548,569,589,609,629,648,670,689,709,729],"xSR":741.5,"ySR":490.1,"xT1":424.9,"yT1":0,"xT2":1058.1,"yT2":0,"toosoon":0,"cond_shown":"equaldotsize","ratio_trial":900,"smaller_num":"18","larger_num":"20","correct_side":2,"subjID":"martinjuanjimenez12","gender":"0","age":"9","school":"4"},{"start_time":1552329307271,"click_time":1552329308082,"finger_time":1552329307622,"fix_duration":825.9455892735975,"trial":47,"RT":351,"MT":460,"sideResp":1,"stimulus":"img/500/equaldotanddens/L/10_Ratio_500_L_4_R_2.png","xmouse":[792,792,792,792,792,792,792,792,792,792,792,792,792,792,792,787,768,715,578,359,270,228,223,223,223,226,236,255,280,303,310,320,334,346,368,379,385,387,406,418,471],"ymouse":[550,550,550,550,550,550,550,550,550,550,550,550,550,550,550,542,522,480,371,194,119,87,83,83,83,83,83,83,83,83,83,84,86,88,90,90,90,90,90,90,90],"timestamp_mouse":[13,37,51,72,92,113,131,151,171,192,212,233,251,273,291,312,332,351,371,392,412,431,453,471,491,512,531,553,573,592,611,631,652,673,691,712,731,752,772,791,811],"xSR":741.5,"ySR":490.1,"xT1":424.9,"yT1":0,"xT2":1058.1,"yT2":0,"toosoon":0,"cond_shown":"equaldotanddens","ratio_trial":500,"smaller_num":"2","larger_num":"4","correct_side":1,"subjID":"martinjuanjimenez12","gender":"0","age":"9","school":"4"},{"start_time":1552329311435,"click_time":1552329312223,"finger_time":1552329311802,"fix_duration":250,"trial":48,"RT":367,"MT":421,"sideResp":1,"stimulus":"img/750/equaldotsize/L/13_Ratio_750_L_8_R_6.png","xmouse":[810,810,810,810,810,810,810,810,810,811,811,812,813,813,813,813,813,814,807,787,736,422,350,344,346,352,354,358,360,362,364,370,378,391,405,422,423,423,423,425],"ymouse":[510,510,510,510,510,510,510,510,510,510,510,510,510,510,510,510,510,508,487,453,401,145,76,64,62,62,62,62,62,62,62,62,62,62,62,62,62,62,62,62],"timestamp_mouse":[13,41,48,68,88,108,129,147,167,188,207,229,248,267,288,308,329,347,367,389,408,428,447,467,487,509,527,548,567,588,607,628,648,668,687,709,728,748,768,788],"xSR":741.5,"ySR":490.1,"xT1":424.9,"yT1":0,"xT2":1058.1,"yT2":0,"toosoon":0,"cond_shown":"equaldotsize","ratio_trial":750,"smaller_num":"6","larger_num":"8","correct_side":1,"subjID":"martinjuanjimenez12","gender":"0","age":"9","school":"4"},{"start_time":1552329316410,"click_time":1552329317202,"finger_time":1552329316762,"fix_duration":1225.1130299678023,"trial":49,"RT":352,"MT":440,"sideResp":2,"stimulus":"img/750/equaldotanddens/R/4_Ratio_750_L_15_R_20.png","xmouse":[804,804,804,804,804,804,804,804,804,804,804,804,804,804,804,803,800,787,758,750,754,835,859,870,874,878,882,900,911,922,931,940,958,965,978,992,1013,1064,1093,1111],"ymouse":[514,514,514,514,514,514,514,514,514,514,514,514,514,514,514,514,509,468,420,399,385,338,325,319,316,314,313,308,305,302,298,291,272,262,247,233,213,155,118,89],"timestamp_mouse":[15,33,53,72,93,112,132,153,172,194,212,234,254,273,293,313,333,352,372,392,412,434,452,472,494,513,532,552,573,593,613,632,653,673,693,713,733,752,772,792],"xSR":741.5,"ySR":490.1,"xT1":424.9,"yT1":0,"xT2":1058.1,"yT2":0,"toosoon":0,"cond_shown":"equaldotanddens","ratio_trial":750,"smaller_num":"15","larger_num":"20","correct_side":2,"subjID":"martinjuanjimenez12","gender":"0","age":"9","school":"4"},{"start_time":1552329320762,"click_time":1552329322063,"finger_time":1552329321143,"fix_duration":337.878539825886,"trial":50,"RT":381,"MT":920,"sideResp":1,"stimulus":"img/500/equaldotanddens/L/11_Ratio_500_L_12_R_6.png","xmouse":[744,744,744,745,747,748,748,748,748,748,748,748,748,748,748,748,752,758,768,778,786,837,837,837,837,837,837,837,837,837,837,577,401,314,119,70,71,88,111,135,184,191,193,194,200,217,233,249,266,282,304,317,334,340,350,352,352,354,356,358,366,374,377,386,398,440],"ymouse":[564,564,564,563,559,556,556,556,556,556,556,556,556,556,556,555,544,528,500,321,182,54,54,54,54,54,54,54,54,54,54,23,90,124,206,235,235,235,231,223,216,212,211,211,200,161,135,111,90,72,58,54,53,53,53,53,53,53,54,57,66,69,69,69,63,43],"timestamp_mouse":[9,21,41,61,82,101,120,141,162,181,201,221,241,262,282,301,321,340,360,381,400,421,441,461,481,500,520,540,560,580,601,621,640,661,681,700,720,742,761,782,801,821,840,861,881,902,920,940,960,982,1000,1021,1040,1061,1081,1102,1121,1141,1161,1180,1200,1220,1240,1261,1280,1301],"xSR":741.5,"ySR":490.1,"xT1":424.9,"yT1":0,"xT2":1058.1,"yT2":0,"toosoon":0,"cond_shown":"equaldotanddens","ratio_trial":500,"smaller_num":"6","larger_num":"12","correct_side":1,"subjID":"martinjuanjimenez12","gender":"0","age":"9","school":"4"},{"start_time":1552329328496,"click_time":1552329329102,"finger_time":1552329328782,"fix_duration":1091.1373369387834,"trial":51,"RT":286,"MT":320,"sideResp":1,"stimulus":"img/250/randomdotsizeEA/R/10_Ratio_250_L_4_R_16.png","xmouse":[764,764,764,764,764,764,764,764,766,767,768,768,768,769,772,774,777,779,772,757,739,720,705,673,664,655,653,648,621,572,520],"ymouse":[541,541,541,541,541,541,541,541,541,538,535,532,524,502,486,468,446,413,360,325,289,257,234,187,170,147,140,127,95,62,27],"timestamp_mouse":[10,35,48,67,86,106,126,147,167,186,206,227,246,266,286,307,327,347,367,387,406,426,448,466,487,506,528,546,566,586,606],"xSR":741.5,"ySR":490.1,"xT1":424.9,"yT1":0,"xT2":1058.1,"yT2":0,"toosoon":0,"cond_shown":"randomdotsizeEA","ratio_trial":250,"smaller_num":"4","larger_num":"16","correct_side":2,"subjID":"martinjuanjimenez12","gender":"0","age":"9","school":"4"},{"start_time":1552329331549,"click_time":1552329332682,"finger_time":1552329332043,"fix_duration":1403.256938255317,"trial":52,"RT":494,"MT":639,"sideResp":2,"stimulus":"img/900/randomdotsizeEA/L/2_Ratio_900_L_20_R_18.png","xmouse":[801,801,800,800,799,799,799,799,799,799,799,799,799,799,799,799,799,799,799,799,799,799,806,814,887,918,941,951,959,979,994,1009,1029,1053,1068,1092,1097,1097,1097,1097,1099,1103,1106,1106,1107,1107,1107,1107,1107,1107,1107,1107,1107,1107,1107,1107,1107],"ymouse":[526,525,519,517,515,515,515,515,515,515,515,515,515,515,515,515,515,515,515,515,515,515,515,510,449,405,367,337,312,264,242,217,191,164,146,120,118,117,117,117,116,112,109,103,101,101,101,101,101,101,101,101,101,101,101,101,99],"timestamp_mouse":[14,42,53,73,94,113,134,155,174,194,213,233,254,273,294,313,333,353,374,394,414,434,453,474,494,513,533,553,573,595,613,634,653,673,694,713,733,753,774,793,813,835,854,873,894,913,934,954,974,995,1013,1033,1054,1073,1094,1113,1133],"xSR":741.5,"ySR":490.1,"xT1":424.9,"yT1":0,"xT2":1058.1,"yT2":0,"toosoon":0,"cond_shown":"randomdotsizeEA","ratio_trial":900,"smaller_num":"18","larger_num":"20","correct_side":1,"subjID":"martinjuanjimenez12","gender":"0","age":"9","school":"4"},{"start_time":1552329333916,"click_time":1552329334642,"finger_time":1552329334263,"fix_duration":253.45006446773988,"trial":53,"RT":347,"MT":379,"sideResp":1,"stimulus":"img/900/equaldotanddens/R/9_Ratio_900_L_18_R_20.png","xmouse":[808,808,808,808,808,808,808,808,808,808,808,808,808,808,808,808,803,753,703,660,625,598,543,516,505,503,505,510,515,520,528,539,552,552,544,534,513],"ymouse":[511,511,511,511,511,511,511,511,511,511,511,511,511,511,511,511,508,460,425,396,367,333,255,215,192,178,173,169,167,163,158,146,112,93,76,67,60],"timestamp_mouse":[12,42,47,68,87,106,128,147,167,186,206,227,246,266,288,307,327,347,366,386,407,428,446,467,486,507,526,546,566,587,606,628,646,668,686,707,726],"xSR":741.5,"ySR":490.1,"xT1":424.9,"yT1":0,"xT2":1058.1,"yT2":0,"toosoon":0,"cond_shown":"equaldotanddens","ratio_trial":900,"smaller_num":"18","larger_num":"20","correct_side":2,"subjID":"martinjuanjimenez12","gender":"0","age":"9","school":"4"},{"start_time":1552329336173,"click_time":1552329336582,"finger_time":1552329336463,"fix_duration":750.9699343382787,"trial":54,"RT":290,"MT":119,"sideResp":2,"stimulus":"img/900/equaldotsize/R/11_Ratio_900_L_18_R_20.png","xmouse":[761,761,761,761,761,765,770,776,779,779,779,779,779,785,801,836,896,964,1046,1055,1064],"ymouse":[524,524,524,524,524,524,520,516,513,512,512,512,512,504,477,413,321,231,116,98,89],"timestamp_mouse":[10,38,49,69,89,109,130,150,170,190,210,230,249,271,290,309,329,349,372,389,409],"xSR":741.5,"ySR":490.1,"xT1":424.9,"yT1":0,"xT2":1058.1,"yT2":0,"toosoon":0,"cond_shown":"equaldotsize","ratio_trial":900,"smaller_num":"18","larger_num":"20","correct_side":2,"subjID":"martinjuanjimenez12","gender":"0","age":"9","school":"4"},{"start_time":1552329339254,"click_time":1552329339783,"finger_time":1552329339623,"fix_duration":289.5291881173245,"trial":55,"RT":369,"MT":160,"sideResp":1,"stimulus":"img/500/randomdotsizeEA/R/9_Ratio_500_L_2_R_4.png","xmouse":[780,780,780,780,780,780,780,780,780,780,780,780,780,780,780,780,779,770,704,601,388,379,387,402,413,424,426],"ymouse":[553,553,553,553,553,553,553,553,553,553,553,553,553,553,553,553,548,526,442,341,156,135,120,105,97,87,85],"timestamp_mouse":[15,36,48,68,89,109,128,148,169,190,208,229,249,268,288,308,328,348,369,388,409,428,449,469,488,508,528],"xSR":741.5,"ySR":490.1,"xT1":424.9,"yT1":0,"xT2":1058.1,"yT2":0,"toosoon":0,"cond_shown":"randomdotsizeEA","ratio_trial":500,"smaller_num":"2","larger_num":"4","correct_side":2,"subjID":"martinjuanjimenez12","gender":"0","age":"9","school":"4"},{"start_time":1552329341195,"click_time":1552329342044,"finger_time":1552329341543,"fix_duration":250,"trial":56,"RT":348,"MT":501,"sideResp":2,"stimulus":"img/750/equaldotsize/L/13_Ratio_750_L_8_R_6.png","xmouse":[798,798,798,798,798,798,798,798,798,798,798,798,798,798,798,798,800,857,910,968,1011,1055,1055,1055,1055,1055,1055,1055,1055,1055,1055,1055,1055,1055,1055,1055,1055,1055,1055,1055,1055,1055,1149],"ymouse":[568,568,568,568,568,568,568,568,568,568,568,568,568,568,568,568,562,463,357,248,141,38,38,38,38,38,38,38,38,38,38,38,38,38,38,38,38,38,38,38,38,38,4],"timestamp_mouse":[7,33,47,68,89,107,127,148,168,188,208,228,248,267,287,307,328,348,367,388,408,428,447,468,488,507,527,548,568,588,608,628,648,668,689,709,728,748,767,788,808,829,848],"xSR":741.5,"ySR":490.1,"xT1":424.9,"yT1":0,"xT2":1058.1,"yT2":0,"toosoon":0,"cond_shown":"equaldotsize","ratio_trial":750,"smaller_num":"6","larger_num":"8","correct_side":1,"subjID":"martinjuanjimenez12","gender":"0","age":"9","school":"4"},{"start_time":1552329345068,"click_time":1552329345902,"finger_time":1552329345343,"fix_duration":405.5995471659167,"trial":57,"RT":275,"MT":559,"sideResp":1,"stimulus":"img/900/equaldotsize/L/8_Ratio_900_L_20_R_18.png","xmouse":[764,764,764,764,764,764,764,764,764,764,764,765,766,759,748,721,672,613,544,533,533,533,534,540,552,555,555,556,557,557,557,557,557,557,557,552,546,537,534,528,526,522],"ymouse":[519,519,519,519,519,519,519,519,519,519,519,518,513,460,415,340,252,166,84,69,69,69,69,69,69,69,69,69,69,69,69,69,69,69,69,69,68,67,67,66,65,63],"timestamp_mouse":[15,40,56,74,95,115,136,154,175,194,214,234,255,275,294,315,335,354,374,395,415,435,455,475,495,514,534,555,574,594,615,635,654,674,694,715,734,755,774,795,814,834],"xSR":741.5,"ySR":490.1,"xT1":424.9,"yT1":0,"xT2":1058.1,"yT2":0,"toosoon":0,"cond_shown":"equaldotsize","ratio_trial":900,"smaller_num":"18","larger_num":"20","correct_side":1,"subjID":"martinjuanjimenez12","gender":"0","age":"9","school":"4"},{"start_time":1552329347510,"click_time":1552329348383,"finger_time":1552329347943,"fix_duration":525.1540545562266,"trial":58,"RT":433,"MT":440,"sideResp":1,"stimulus":"img/750/equaldotanddens/R/2_Ratio_750_L_6_R_8.png","xmouse":[803,803,803,803,803,803,803,803,803,803,803,803,803,803,803,803,803,803,803,799,794,720,650,570,501,448,420,423,432,441,444,447,452,455,457,466,500,502,502,502,502,503,502,494],"ymouse":[511,511,511,511,511,511,511,511,511,511,511,511,511,511,511,511,511,511,511,512,511,469,422,364,306,253,212,170,163,157,154,152,147,145,144,142,132,131,130,130,130,127,117,97],"timestamp_mouse":[12,39,54,73,92,113,133,154,173,192,212,233,252,272,292,313,332,353,373,394,413,433,452,472,492,513,532,552,572,593,613,634,652,672,692,712,734,752,772,793,812,834,852,872],"xSR":741.5,"ySR":490.1,"xT1":424.9,"yT1":0,"xT2":1058.1,"yT2":0,"toosoon":0,"cond_shown":"equaldotanddens","ratio_trial":750,"smaller_num":"6","larger_num":"8","correct_side":2,"subjID":"martinjuanjimenez12","gender":"0","age":"9","school":"4"},{"start_time":1552329350727,"click_time":1552329351224,"finger_time":1552329351103,"fix_duration":1141.9046883078545,"trial":59,"RT":376,"MT":121,"sideResp":2,"stimulus":"img/750/equaldotanddens/L/13_Ratio_750_L_8_R_6.png","xmouse":[782,782,782,782,782,782,782,782,782,782,782,782,782,782,784,791,800,811,825,838,866,908,982,1065,1137],"ymouse":[542,542,542,542,542,542,542,542,542,542,542,542,542,542,541,526,511,491,467,443,375,314,228,141,67],"timestamp_mouse":[22,40,55,75,95,115,135,155,175,196,216,235,255,275,295,317,336,355,375,396,416,435,456,475,497],"xSR":741.5,"ySR":490.1,"xT1":424.9,"yT1":0,"xT2":1058.1,"yT2":0,"toosoon":0,"cond_shown":"equaldotanddens","ratio_trial":750,"smaller_num":"6","larger_num":"8","correct_side":1,"subjID":"martinjuanjimenez12","gender":"0","age":"9","school":"4"},{"start_time":1552329355275,"click_time":1552329355944,"finger_time":1552329355782,"fix_duration":250,"trial":60,"RT":507,"MT":162,"sideResp":1,"stimulus":"img/500/equaldotsize/R/15_Ratio_500_L_1_R_2.png","xmouse":[795,795,795,795,794,793,792,792,792,792,792,792,792,792,791,791,791,791,791,789,789,787,783,763,745,728,712,699,669,650,624,590,551,522],"ymouse":[581,577,576,576,565,561,556,555,552,552,552,551,550,550,549,549,548,547,547,544,543,540,535,512,491,471,448,424,353,302,243,172,98,48],"timestamp_mouse":[11,28,53,67,88,108,127,148,168,187,207,228,247,269,288,307,329,348,367,388,407,427,448,468,487,507,527,547,568,587,608,627,647,669],"xSR":741.5,"ySR":490.1,"xT1":424.9,"yT1":0,"xT2":1058.1,"yT2":0,"toosoon":0,"cond_shown":"equaldotsize","ratio_trial":500,"smaller_num":"1","larger_num":"2","correct_side":2,"subjID":"martinjuanjimenez12","gender":"0","age":"9","school":"4"},{"start_time":1552329357540,"click_time":1552329358263,"finger_time":1552329358002,"fix_duration":395.02492957095103,"trial":61,"RT":462,"MT":261,"sideResp":2,"stimulus":"img/900/equaldotsize/L/2_Ratio_900_L_20_R_18.png","xmouse":[800,800,800,800,800,800,800,800,800,800,800,800,800,800,800,800,800,800,800,800,801,806,813,858,892,1039,1204,1219,1221,1221,1221,1221,1221,1220,1212,1196,1156],"ymouse":[541,541,541,541,541,541,541,541,541,541,541,541,541,541,541,541,541,541,541,541,538,526,510,434,392,246,98,72,60,57,56,56,56,55,53,49,37],"timestamp_mouse":[19,35,43,62,82,102,122,143,163,183,204,223,243,264,284,302,322,343,362,382,402,422,442,462,483,503,522,542,562,583,604,623,643,662,682,702,722],"xSR":741.5,"ySR":490.1,"xT1":424.9,"yT1":0,"xT2":1058.1,"yT2":0,"toosoon":0,"cond_shown":"equaldotsize","ratio_trial":900,"smaller_num":"18","larger_num":"20","correct_side":1,"subjID":"martinjuanjimenez12","gender":"0","age":"9","school":"4"},{"start_time":1552329360507,"click_time":1552329361282,"finger_time":1552329360923,"fix_duration":662.7252241207797,"trial":62,"RT":416,"MT":359,"sideResp":1,"stimulus":"img/500/equaldotsize/R/15_Ratio_500_L_1_R_2.png","xmouse":[783,783,783,783,783,783,783,783,783,783,783,783,783,783,783,783,783,779,768,759,742,651,580,502,432,390,376,381,384,386,386,386,386,387,388,390,397,423,440],"ymouse":[540,540,539,539,539,539,539,539,539,539,539,539,539,539,539,539,539,530,515,500,482,376,300,230,167,129,87,80,77,75,74,74,69,67,65,64,61,59,57],"timestamp_mouse":[16,35,55,76,95,115,136,156,176,196,216,235,256,276,297,315,336,355,375,396,416,436,455,477,496,515,537,555,575,595,615,635,655,676,695,716,735,756,775],"xSR":741.5,"ySR":490.1,"xT1":424.9,"yT1":0,"xT2":1058.1,"yT2":0,"toosoon":0,"cond_shown":"equaldotsize","ratio_trial":500,"smaller_num":"1","larger_num":"2","correct_side":2,"subjID":"martinjuanjimenez12","gender":"0","age":"9","school":"4"},{"start_time":1552329364425,"click_time":1552329365346,"finger_time":1552329364762,"fix_duration":340.6728273300034,"trial":63,"RT":337,"MT":584,"sideResp":1,"stimulus":"img/250/equaldotsize/L/5_Ratio_250_L_24_R_6.png","xmouse":[782,782,782,782,782,782,782,782,782,782,782,784,786,786,787,787,758,696,598,395,395,395,395,395,395,395,395,395,395,395,395,395,395,395,395,395,395,368,401,418,422,422,422,422,423,435],"ymouse":[574,574,574,574,574,574,574,573,572,571,568,560,554,548,538,520,409,305,192,13,13,13,13,13,13,13,13,13,13,13,13,13,13,13,13,13,13,25,53,69,72,72,72,72,72,70],"timestamp_mouse":[21,43,57,77,98,119,138,158,177,198,218,237,257,279,298,317,337,358,377,397,417,437,457,477,498,517,537,558,577,598,618,637,658,678,698,718,737,758,777,798,817,837,857,878,898,920],"xSR":741.5,"ySR":490.1,"xT1":424.9,"yT1":0,"xT2":1058.1,"yT2":0,"toosoon":0,"cond_shown":"equaldotsize","ratio_trial":250,"smaller_num":"6","larger_num":"24","correct_side":1,"subjID":"martinjuanjimenez12","gender":"0","age":"9","school":"4"},{"start_time":1552329367255,"click_time":1552329368284,"finger_time":1552329367743,"fix_duration":250,"trial":64,"RT":488,"MT":541,"sideResp":2,"stimulus":"img/500/equaldotsize/R/14_Ratio_500_L_5_R_10.png","xmouse":[762,762,762,762,763,768,770,770,770,775,779,780,780,780,780,780,780,780,780,780,775,771,769,769,771,774,779,785,796,834,943,991,1022,1037,1042,1043,1042,1042,1042,1042,1045,1047,1048,1052,1057,1060,1064,1067,1071,1077,1084,1084],"ymouse":[537,537,537,537,535,526,525,525,525,527,544,551,555,555,555,555,555,555,554,550,534,521,508,499,484,475,460,443,422,383,312,281,259,245,238,229,227,225,222,220,207,193,182,171,148,136,127,122,116,109,100,97],"timestamp_mouse":[15,35,48,67,87,107,128,147,167,187,207,227,248,268,287,308,328,347,368,388,407,427,448,468,488,507,527,547,568,587,608,627,647,668,687,707,727,747,767,787,807,828,848,867,888,907,928,947,968,988,1007,1028],"xSR":741.5,"ySR":490.1,"xT1":424.9,"yT1":0,"xT2":1058.1,"yT2":0,"toosoon":0,"cond_shown":"equaldotsize","ratio_trial":500,"smaller_num":"5","larger_num":"10","correct_side":2,"subjID":"martinjuanjimenez12","gender":"0","age":"9","school":"4"},{"start_time":1552329369983,"click_time":1552329370762,"finger_time":1552329370362,"fix_duration":859.8210300073412,"trial":65,"RT":379,"MT":400,"sideResp":1,"stimulus":"img/750/equaldotanddens/L/14_Ratio_750_L_8_R_6.png","xmouse":[826,826,826,826,826,826,826,826,826,826,826,826,826,826,826,826,825,826,827,827,825,821,819,811,755,678,579,500,441,441,441,441,441,432,424,423,426,432,460,476],"ymouse":[551,551,551,551,551,551,551,551,551,551,551,551,551,551,551,551,550,543,507,482,459,439,423,394,320,262,206,162,132,132,132,132,132,126,119,118,116,114,101,91],"timestamp_mouse":[2,20,39,60,80,100,120,139,160,181,200,219,241,260,279,300,320,340,360,379,399,420,439,460,480,500,519,539,561,579,600,620,639,660,679,699,720,740,760,779],"xSR":741.5,"ySR":490.1,"xT1":424.9,"yT1":0,"xT2":1058.1,"yT2":0,"toosoon":0,"cond_shown":"equaldotanddens","ratio_trial":750,"smaller_num":"6","larger_num":"8","correct_side":1,"subjID":"martinjuanjimenez12","gender":"0","age":"9","school":"4"},{"start_time":1552329373616,"click_time":1552329374082,"finger_time":1552329373963,"fix_duration":250,"trial":66,"RT":347,"MT":119,"sideResp":1,"stimulus":"img/750/randomdotsizeEA/L/6_Ratio_750_L_24_R_18.png","xmouse":[747,754,760,761,761,761,761,761,761,761,761,761,761,761,761,761,761,762,762,753,727,652,520,465],"ymouse":[509,503,497,496,496,496,496,496,496,496,496,496,496,496,496,496,495,477,448,395,331,225,111,83],"timestamp_mouse":[6,35,46,66,87,108,127,146,167,186,207,226,246,266,286,306,327,347,366,388,406,426,446,466],"xSR":741.5,"ySR":490.1,"xT1":424.9,"yT1":0,"xT2":1058.1,"yT2":0,"toosoon":0,"cond_shown":"randomdotsizeEA","ratio_trial":750,"smaller_num":"18","larger_num":"24","correct_side":1,"subjID":"martinjuanjimenez12","gender":"0","age":"9","school":"4"},{"start_time":1552329375954,"click_time":1552329376703,"finger_time":1552329376344,"fix_duration":250,"trial":67,"RT":390,"MT":359,"sideResp":1,"stimulus":"img/750/randomdotsizeEA/R/11_Ratio_750_L_12_R_16.png","xmouse":[802,802,802,802,802,802,802,802,802,802,802,802,802,802,802,802,802,800,792,690,613,533,476,445,433,441,448,451,455,466,469,477,484,491,498,500,501,502],"ymouse":[530,530,530,530,530,530,530,530,530,530,530,530,530,530,530,530,530,523,512,416,355,297,257,235,220,205,200,196,193,183,178,167,157,148,120,111,101,90],"timestamp_mouse":[13,36,49,69,89,110,129,148,168,190,208,228,249,268,288,308,328,349,369,390,408,429,449,468,488,508,528,548,569,590,608,628,649,668,690,708,728,749],"xSR":741.5,"ySR":490.1,"xT1":424.9,"yT1":0,"xT2":1058.1,"yT2":0,"toosoon":0,"cond_shown":"randomdotsizeEA","ratio_trial":750,"smaller_num":"12","larger_num":"16","correct_side":2,"subjID":"martinjuanjimenez12","gender":"0","age":"9","school":"4"},{"start_time":1552329378599,"click_time":1552329379023,"finger_time":1552329378944,"fix_duration":834.6659969226891,"trial":68,"RT":345,"MT":79,"sideResp":1,"stimulus":"img/750/equaldotanddens/R/15_Ratio_750_L_9_R_12.png","xmouse":[787,787,787,787,787,787,787,787,788,788,788,789,789,790,792,794,796,797,758,692,600,501],"ymouse":[542,542,542,542,542,542,542,542,542,542,542,541,541,537,533,528,513,490,354,249,144,65],"timestamp_mouse":[16,29,44,63,83,104,125,144,164,183,203,223,243,264,283,303,323,345,363,383,404,424],"xSR":741.5,"ySR":490.1,"xT1":424.9,"yT1":0,"xT2":1058.1,"yT2":0,"toosoon":0,"cond_shown":"equaldotanddens","ratio_trial":750,"smaller_num":"9","larger_num":"12","correct_side":2,"subjID":"martinjuanjimenez12","gender":"0","age":"9","school":"4"},{"start_time":1552329382346,"click_time":1552329382783,"finger_time":1552329382682,"fix_duration":961.633468642179,"trial":69,"RT":336,"MT":101,"sideResp":1,"stimulus":"img/750/equaldotsize/R/12_Ratio_750_L_3_R_4.png","xmouse":[774,774,774,774,774,774,774,774,774,774,774,774,774,774,774,776,766,737,692,560,509,491],"ymouse":[523,523,523,523,523,523,523,523,523,523,523,523,523,523,523,505,472,410,335,169,108,87],"timestamp_mouse":[16,36,57,76,96,116,136,156,177,197,217,236,257,277,296,316,336,356,377,398,416,437],"xSR":741.5,"ySR":490.1,"xT1":424.9,"yT1":0,"xT2":1058.1,"yT2":0,"toosoon":0,"cond_shown":"equaldotsize","ratio_trial":750,"smaller_num":"3","larger_num":"4","correct_side":2,"subjID":"martinjuanjimenez12","gender":"0","age":"9","school":"4"},{"start_time":1552329384878,"click_time":1552329385863,"finger_time":1552329385303,"fix_duration":514.9366540478209,"trial":70,"RT":425,"MT":560,"sideResp":2,"stimulus":"img/500/equaldotanddens/R/6_Ratio_500_L_9_R_18.png","xmouse":[797,797,797,797,797,797,797,797,797,797,797,797,797,797,797,797,797,797,797,797,778,729,656,581,556,559,565,572,577,586,591,599,609,616,619,616,606,596,560,555,554,554,554,562,624,717,799,878,958,1063],"ymouse":[520,520,520,520,520,520,520,520,520,520,520,520,520,520,520,520,520,520,520,520,498,437,356,277,249,245,240,230,219,200,185,173,161,148,117,100,83,71,63,63,63,63,63,63,65,78,82,82,74,15],"timestamp_mouse":[4,26,51,64,85,104,125,145,164,186,205,225,244,264,286,304,325,345,366,385,404,425,444,465,484,504,524,544,566,584,604,624,644,664,684,704,725,744,766,784,805,825,844,866,884,906,925,945,965,984],"xSR":741.5,"ySR":490.1,"xT1":424.9,"yT1":0,"xT2":1058.1,"yT2":0,"toosoon":0,"cond_shown":"equaldotanddens","ratio_trial":500,"smaller_num":"9","larger_num":"18","correct_side":2,"subjID":"martinjuanjimenez12","gender":"0","age":"9","school":"4"},{"start_time":1552329389170,"click_time":1552329390382,"finger_time":1552329390001,"fix_duration":1306.2107877852295,"trial":71,"RT":831,"MT":381,"sideResp":1,"stimulus":"img/250/equaldotanddens/L/7_Ratio_250_L_8_R_2.png","xmouse":[765,765,765,765,765,765,765,765,765,765,765,765,765,765,765,765,765,765,765,765,765,765,765,765,765,765,765,765,765,765,765,765,765,765,765,765,765,765,765,765,755,738,727,712,706,699,691,680,653,642,634,630,629,628,627,625,619,611,574,536,477],"ymouse":[555,555,555,555,555,555,555,555,555,555,555,555,555,555,555,555,555,555,555,555,555,555,555,555,555,555,555,555,555,555,555,555,555,555,555,555,555,555,555,549,528,492,473,445,434,421,406,387,336,314,295,280,269,264,260,255,246,229,168,109,34],"timestamp_mouse":[14,36,51,73,92,113,133,153,172,193,213,232,252,272,292,312,332,353,373,393,412,433,452,473,491,512,533,552,573,592,611,633,651,672,693,712,732,753,772,792,812,831,852,873,892,912,931,951,974,992,1012,1032,1053,1072,1092,1112,1131,1153,1174,1191,1212],"xSR":741.5,"ySR":490.1,"xT1":424.9,"yT1":0,"xT2":1058.1,"yT2":0,"toosoon":0,"cond_shown":"equaldotanddens","ratio_trial":250,"smaller_num":"2","larger_num":"8","correct_side":1,"subjID":"martinjuanjimenez12","gender":"0","age":"9","school":"4"},{"start_time":1552329396011,"click_time":1552329396702,"finger_time":1552329396382,"fix_duration":1267.982003336556,"trial":72,"RT":371,"MT":320,"sideResp":1,"stimulus":"img/750/equaldotsize/R/12_Ratio_750_L_3_R_4.png","xmouse":[802,802,802,802,802,802,802,802,802,802,802,802,802,802,802,801,786,774,762,746,726,683,597,554,536,530,529,529,529,529,529,529,523,507,490],"ymouse":[541,541,541,541,541,541,541,541,541,541,541,541,541,541,541,539,517,500,480,459,431,375,275,222,195,184,182,182,182,182,182,174,156,129,98],"timestamp_mouse":[12,37,51,71,92,111,131,152,172,191,212,232,251,271,292,311,332,351,371,391,412,432,451,471,491,512,532,552,571,592,611,632,651,671,691],"xSR":741.5,"ySR":490.1,"xT1":424.9,"yT1":0,"xT2":1058.1,"yT2":0,"toosoon":0,"cond_shown":"equaldotsize","ratio_trial":750,"smaller_num":"3","larger_num":"4","correct_side":2,"subjID":"martinjuanjimenez12","gender":"0","age":"9","school":"4"},{"start_time":1552329399244,"click_time":1552329399662,"finger_time":1552329399562,"fix_duration":1260.9175120421357,"trial":73,"RT":318,"MT":100,"sideResp":1,"stimulus":"img/750/randomdotsizeEA/L/8_Ratio_750_L_4_R_3.png","xmouse":[798,798,798,798,798,798,798,798,798,798,798,798,798,797,797,797,787,753,687,460,433],"ymouse":[503,503,503,503,503,503,503,503,503,503,503,503,503,503,500,487,455,389,311,101,74],"timestamp_mouse":[18,38,58,78,98,118,137,159,178,199,218,239,259,277,299,318,337,358,379,399,418],"xSR":741.5,"ySR":490.1,"xT1":424.9,"yT1":0,"xT2":1058.1,"yT2":0,"toosoon":0,"cond_shown":"randomdotsizeEA","ratio_trial":750,"smaller_num":"3","larger_num":"4","correct_side":1,"subjID":"martinjuanjimenez12","gender":"0","age":"9","school":"4"},{"start_time":1552329403454,"click_time":1552329404202,"finger_time":1552329403882,"fix_duration":1410.8501670025366,"trial":74,"RT":428,"MT":320,"sideResp":1,"stimulus":"img/250/equaldotsize/R/4_Ratio_250_L_3_R_12.png","xmouse":[800,800,800,800,800,800,800,800,800,800,800,800,800,800,800,800,800,800,800,797,772,749,718,686,569,489,449,443,443,447,451,456,462,465,470,475,481,488],"ymouse":[539,539,539,539,539,539,539,539,539,539,539,539,539,539,539,539,539,539,535,531,507,488,457,424,305,241,206,198,197,193,191,187,181,171,138,120,103,84],"timestamp_mouse":[22,45,49,68,88,108,129,148,169,189,209,228,249,268,288,308,328,348,368,388,409,428,448,468,490,508,529,548,568,589,608,628,647,668,690,708,728,748],"xSR":741.5,"ySR":490.1,"xT1":424.9,"yT1":0,"xT2":1058.1,"yT2":0,"toosoon":0,"cond_shown":"equaldotsize","ratio_trial":250,"smaller_num":"3","larger_num":"12","correct_side":2,"subjID":"martinjuanjimenez12","gender":"0","age":"9","school":"4"},{"start_time":1552329406070,"click_time":1552329406663,"finger_time":1552329406422,"fix_duration":507.820566175036,"trial":75,"RT":352,"MT":241,"sideResp":2,"stimulus":"img/750/randomdotsizeEA/L/1_Ratio_750_L_20_R_15.png","xmouse":[805,815,815,820,820,820,820,821,821,821,821,821,822,823,825,830,840,856,935,961,979,994,1010,1047,1062,1071,1075,1075,1075,1072],"ymouse":[540,540,540,540,540,540,540,540,539,539,539,538,538,535,530,522,505,480,370,334,305,280,256,208,186,163,143,123,108,91],"timestamp_mouse":[14,39,53,73,93,113,132,152,173,192,212,233,251,273,292,312,332,352,373,392,412,432,452,474,491,512,532,552,572,592],"xSR":741.5,"ySR":490.1,"xT1":424.9,"yT1":0,"xT2":1058.1,"yT2":0,"toosoon":0,"cond_shown":"randomdotsizeEA","ratio_trial":750,"smaller_num":"15","larger_num":"20","correct_side":1,"subjID":"martinjuanjimenez12","gender":"0","age":"9","school":"4"},{"start_time":1552329409229,"click_time":1552329410803,"finger_time":1552329410402,"fix_duration":1166.6315282744183,"trial":76,"RT":1173,"MT":401,"sideResp":1,"stimulus":"img/250/equaldotsize/R/11_Ratio_250_L_3_R_12.png","xmous