[{"start_time":1552308294626,"click_time":1552308300881,"finger_time":1552308295099,"fix_duration":1443.667922408358,"trial":0,"RT":473,"MT":5782,"sideResp":1,"stimulus":[],"xmouse":[781,781,781,781,781,781,781,781,781,781,781,781,781,781,781,781,781,781,781,781,781,781,783,805,809,804,787,786,786,786,786,786,786,786,786,786,786,786,786,786,786,786,786,785,783,778,767,759,751,742,729,715,705,697,691,690,689,689,689,689,689,697,702,706,710,712,718,718,719,720,721,725,727,728,730,732,736,739,741,744,747,748,748,752,756,757,760,762,766,768,769,769,769,770,770,770,770,770,770,770,770,770,770,770,770,770,770,770,770,770,770,770,770,770,770,770,770,770,770,770,770,770,770,770,770,770,770,770,770,770,770,770,770,770,770,770,770,770,770,770,770,770,770,770,770,770,770,770,770,770,770,770,770,770,770,770,770,770,770,770,770,770,770,770,770,770,770,770,770,770,770,770,770,770,770,770,770,770,770,770,770,770,770,770,770,770,770,770,770,770,770,770,770,770,770,770,770,770,770,770,770,770,770,770,770,770,770,770,770,770,770,770,770,770,770,770,770,770,770,770,770,770,770,770,770,770,770,770,770,770,770,770,770,770,770,770,770,770,770,770,770,770,770,770,770,770,770,770,770,770,770,770,770,774,780,782,783,784,784,791,797,814,814,814,814,814,814,814,814,814,814,814,814,814,814,812,811,811,811,811,811,807,802,775,762,758,758,757,756,754,747,742,735,731,725,716,680,656,632,613,601,585,579,575,575,573,572,571,570,568,563,530,494],"ymouse":[517,517,517,517,517,517,517,517,517,517,517,517,517,517,517,517,517,517,517,517,517,517,480,350,252,192,143,142,142,142,142,142,142,142,142,142,142,142,142,142,142,142,142,142,145,162,198,225,265,303,344,390,411,431,447,460,473,474,474,474,474,474,474,474,474,474,474,474,474,474,474,478,481,483,485,486,490,491,492,494,495,495,495,495,495,496,496,496,496,495,495,494,494,494,494,494,494,494,494,494,494,494,494,494,494,494,494,494,494,494,494,494,494,494,494,494,494,494,494,494,494,494,494,494,494,494,494,494,494,494,494,494,494,494,494,494,494,494,494,494,494,494,494,494,494,494,494,494,494,494,494,494,494,494,494,494,494,494,494,494,494,494,494,494,494,494,494,494,494,494,494,494,494,494,494,494,494,494,494,494,494,494,494,494,494,494,494,494,494,494,494,494,494,494,494,494,494,494,494,494,494,494,494,494,494,494,494,494,494,494,494,494,494,494,494,494,494,494,494,494,494,494,494,494,494,494,494,494,494,494,494,494,494,494,494,494,494,494,494,494,494,494,494,494,494,494,494,494,494,494,494,494,494,494,494,494,491,490,490,485,479,461,461,461,461,461,461,461,461,461,461,461,461,461,460,458,458,458,458,458,458,459,466,511,541,557,561,562,562,560,539,526,507,489,466,432,317,251,192,151,117,79,68,63,63,62,60,59,58,56,53,42,35],"timestamp_mouse":[13,41,53,73,93,113,133,155,174,193,213,233,253,273,293,313,333,353,375,393,413,433,453,473,493,514,533,554,573,593,613,633,654,673,694,714,733,753,773,794,813,833,853,873,893,913,933,953,974,993,1013,1033,1054,1073,1094,1114,1134,1154,1173,1193,1214,1233,1253,1274,1293,1313,1334,1353,1373,1393,1413,1433,1454,1473,1493,1513,1533,1553,1573,1593,1613,1633,1653,1674,1694,1713,1733,1753,1773,1793,1813,1833,1854,1873,1893,1913,1933,1953,1974,1993,2013,2034,2054,2073,2093,2113,2133,2153,2174,2193,2213,2233,2253,2274,2293,2313,2333,2354,2373,2393,2413,2434,2454,2473,2493,2513,2533,2553,2573,2594,2613,2633,2653,2673,2693,2714,2733,2753,2773,2794,2813,2833,2853,2875,2893,2913,2933,2953,2974,2994,3013,3033,3053,3073,3093,3114,3134,3153,3173,3193,3213,3233,3253,3274,3294,3313,3333,3353,3374,3393,3413,3433,3453,3473,3494,3513,3534,3554,3573,3594,3613,3633,3653,3673,3693,3713,3733,3753,3774,3793,3813,3833,3853,3873,3893,3913,3933,3953,3973,3993,4013,4034,4053,4074,4094,4113,4134,4153,4174,4193,4213,4233,4253,4273,4293,4313,4334,4354,4373,4393,4413,4433,4453,4473,4493,4514,4534,4553,4573,4594,4613,4633,4653,4674,4693,4713,4733,4753,4773,4793,4813,4833,4853,4873,4893,4913,4933,4953,4973,4993,5013,5033,5055,5073,5093,5113,5133,5153,5174,5193,5213,5233,5253,5273,5293,5314,5333,5353,5374,5394,5413,5433,5453,5473,5493,5513,5533,5553,5573,5593,5613,5633,5653,5673,5693,5713,5733,5754,5773,5794,5815,5833,5854,5873,5893,5913,5933,5953,5973,5993,6013,6033,6053,6073,6093,6113,6133,6154,6173,6193,6213,6233,6254],"xSR":741.5,"ySR":479.7,"xT1":424.9,"yT1":0,"xT2":1058.1,"yT2":0,"toosoon":0,"cond_shown":"Congruent","ratio_trial":300,"L_num":5,"L_den":25,"R_num":7,"R_den":14,"correct_side":2,"subjID":"Martinmarulanda17","gender":"0","age":"9","school":"4","test":{"fix_dur":[250,1500],"timestim":1000,"targets_dim":[100,100],"targets_relative_coord":[0.3,0.7],"size_stim":[880,420],"start_dim":[100,100],"size_start":[300,300],"size_fix":60,"samplingrate":20,"img_types":["Congruent","Incongruent"],"ratios":[100,200,300],"rep_conds":19,"nTrials":120,"trials_to_rest":500,"Trials_order":[4,89,51,19,75,7,105,62,64,90,96,35,116,33,109,95,110,63,18,6,44,46,39,73,98,25,41,0,3,42,79,59,29,10,36,65,60,97,22,11,15,9,80,16,101,84,57,74,67,27,37,53,93,61,40,119,68,38,88,108,43,118,45,100,85,69,87,50,2,81,77,70,103,14,49,26,23,20,13,114,8,66,24,106,34,112,48,28,107,17,12,86,113,30,72,32,52,104,21,54,115,92,58,76,5,1,82,83,111,91,47,56,71,94,31,55,117,99,102,78],"cond_shown":["Congruent","Incongruent","Incongruent","Incongruent","Incongruent","Incongruent","Incongruent","Congruent","Congruent","Congruent","Congruent","Incongruent","Congruent","Incongruent","Incongruent","Incongruent","Congruent","Incongruent","Congruent","Congruent","Congruent","Congruent","Incongruent","Incongruent","Congruent","Incongruent","Incongruent","Congruent","Incongruent","Congruent","Incongruent","Incongruent","Incongruent","Congruent","Congruent","Incongruent","Congruent","Incongruent","Congruent","Incongruent","Incongruent","Incongruent","Congruent","Congruent","Incongruent","Congruent","Incongruent","Congruent","Incongruent","Incongruent","Incongruent","Incongruent","Incongruent","Incongruent","Congruent","Incongruent","Congruent","Congruent","Congruent","Congruent","Incongruent","Congruent","Incongruent","Congruent","Incongruent","Incongruent","Incongruent","Congruent","Congruent","Incongruent","Incongruent","Congruent","Incongruent","Congruent","Incongruent","Congruent","Incongruent","Congruent","Incongruent","Congruent","Congruent","Congruent","Congruent","Congruent","Congruent","Congruent","Congruent","Congruent","Incongruent","Incongruent","Congruent","Congruent","Incongruent","Congruent","Congruent","Congruent","Congruent","Congruent","Incongruent","Congruent","Incongruent","Congruent","Congruent","Congruent","Incongruent","Incongruent","Congruent","Incongruent","Incongruent","Incongruent","Incongruent","Congruent","Incongruent","Congruent","Incongruent","Incongruent","Incongruent","Incongruent","Congruent","Congruent"],"ratio_trial":[300,300,200,100,200,100,200,200,300,100,100,300,200,200,100,300,200,200,100,100,200,300,200,100,200,100,300,100,200,100,100,300,300,300,100,300,100,100,300,300,200,200,200,300,300,100,200,200,100,200,100,300,200,100,300,300,200,200,300,100,100,300,200,300,100,200,200,200,200,200,300,300,100,200,100,200,300,200,100,100,200,100,100,300,300,300,100,300,300,300,100,200,300,100,100,200,300,200,200,100,100,200,300,300,300,100,300,300,200,100,300,200,300,300,100,100,200,200,100,100],"left_num":[5,13,7,12,7,8,7,8,3,3,10,1,8,3,8,13,20,7,3,3,4,20,14,12,6,11,4,7,6,11,8,13,13,12,12,7,6,6,1,1,7,14,6,20,13,12,1,5,6,3,13,3,4,10,1,4,8,5,5,2,17,1,7,11,6,4,4,7,6,9,4,9,3,11,17,14,8,5,10,7,6,1,11,2,1,20,1,3,4,4,4,8,13,4,12,11,1,13,1,1,9,9,12,20,1,2,1,4,3,10,1,4,4,5,10,9,9,7,7,2],"right_num":[7,12,4,9,14,1,6,2,11,2,3,2,2,11,6,12,9,6,4,2,3,5,12,9,11,9,6,9,3,6,1,12,12,2,13,8,5,7,7,2,14,6,7,13,12,13,2,14,3,1,12,4,14,8,3,6,2,14,6,11,10,7,12,1,3,14,1,2,11,8,2,3,11,3,10,6,9,14,8,15,3,3,6,10,8,9,18,11,2,6,6,2,12,15,13,3,7,14,3,18,6,13,2,13,3,6,6,2,11,8,3,3,2,7,8,20,8,6,15,11],"left_den":[25,26,15,24,10,20,15,15,12,6,25,2,15,4,16,26,25,15,20,6,10,25,30,24,20,22,5,14,20,22,20,26,26,24,30,10,20,10,20,2,10,30,12,25,26,30,3,10,12,10,26,6,6,25,5,5,15,10,25,5,30,20,10,22,12,6,30,21,20,15,20,10,5,22,30,28,10,10,25,14,15,2,22,20,30,25,2,12,20,5,8,15,26,10,30,22,20,26,2,2,18,30,24,25,2,4,5,20,4,25,2,8,20,25,25,10,15,15,14,5],"right_den":[14,15,6,15,28,2,9,6,20,5,10,10,6,20,10,15,15,9,16,5,15,10,18,15,22,15,12,15,6,15,2,15,15,10,26,20,25,14,20,10,28,9,10,26,15,26,15,20,5,2,20,20,30,16,6,12,6,20,12,22,15,20,24,5,5,30,3,15,22,10,4,5,22,10,15,20,18,20,16,25,15,5,15,25,24,18,30,20,4,12,10,6,15,30,26,10,20,20,10,30,10,26,10,26,15,15,12,4,20,16,15,10,4,14,16,25,10,9,25,22],"correct_side":[2,2,2,2,1,2,2,1,2,1,1,1,1,1,2,2,1,2,2,1,1,1,2,2,2,2,1,2,2,1,2,2,2,1,2,1,1,1,2,1,1,2,2,1,2,2,1,2,2,2,2,1,1,2,2,1,1,2,2,2,2,2,1,1,2,1,2,1,2,2,2,1,1,1,2,1,1,2,2,2,1,2,1,2,2,1,2,2,2,1,2,1,2,2,2,1,2,2,1,2,2,2,1,1,1,1,2,2,1,2,1,1,2,2,2,1,2,2,2,2],"img_shown":["img2/300/Congruent/R/C_Dist_300_LN_5_LD_25_RN_7_RD_14_1.png","img2/300/Incongruent/R/I_Dist_300_LN_13_LD_26_RN_12_RD_15_1.png","img2/200/Incongruent/R/I_Dist_200_LN_7_LD_15_RN_4_RD_6_1.png","img2/100/Incongruent/R/I_Dist_100_LN_12_LD_24_RN_9_RD_15_1.png","img2/200/Incongruent/L/I_Dist_200_LN_7_LD_10_RN_14_RD_28_0.png","img2/100/Incongruent/R/I_Dist_100_LN_8_LD_20_RN_1_RD_2_1.png","img2/200/Incongruent/R/I_Dist_200_LN_7_LD_15_RN_6_RD_9_1.png","img2/200/Congruent/L/C_Dist_200_LN_8_LD_15_RN_2_RD_6_0.png","img2/300/Congruent/R/C_Dist_300_LN_3_LD_12_RN_11_RD_20_1.png","img2/100/Congruent/L/C_Dist_100_LN_3_LD_6_RN_2_RD_5_0.png","img2/100/Congruent/L/C_Dist_100_LN_10_LD_25_RN_3_RD_10_0.png","img2/300/Incongruent/L/I_Dist_300_LN_1_LD_2_RN_2_RD_10_0.png","img2/200/Congruent/L/C_Dist_200_LN_8_LD_15_RN_2_RD_6_0.png","img2/200/Incongruent/L/I_Dist_200_LN_3_LD_4_RN_11_RD_20_0.png","img2/100/Incongruent/R/I_Dist_100_LN_8_LD_16_RN_6_RD_10_1.png","img2/300/Incongruent/R/I_Dist_300_LN_13_LD_26_RN_12_RD_15_1.png","img2/200/Congruent/L/C_Dist_200_LN_20_LD_25_RN_9_RD_15_0.png","img2/200/Incongruent/R/I_Dist_200_LN_7_LD_15_RN_6_RD_9_1.png","img2/100/Congruent/R/C_Dist_100_LN_3_LD_20_RN_4_RD_16_1.png","img2/100/Congruent/L/C_Dist_100_LN_3_LD_6_RN_2_RD_5_0.png","img2/200/Congruent/L/C_Dist_200_LN_4_LD_10_RN_3_RD_15_0.png","img2/300/Congruent/L/C_Dist_300_LN_20_LD_25_RN_5_RD_10_0.png","img2/200/Incongruent/R/I_Dist_200_LN_14_LD_30_RN_12_RD_18_1.png","img2/100/Incongruent/R/I_Dist_100_LN_12_LD_24_RN_9_RD_15_1.png","img2/200/Congruent/R/C_Dist_200_LN_6_LD_20_RN_11_RD_22_1.png","img2/100/Incongruent/R/I_Dist_100_LN_11_LD_22_RN_9_RD_15_1.png","img2/300/Incongruent/L/I_Dist_300_LN_4_LD_5_RN_6_RD_12_0.png","img2/100/Congruent/R/C_Dist_100_LN_7_LD_14_RN_9_RD_15_1.png","img2/200/Incongruent/R/I_Dist_200_LN_6_LD_20_RN_3_RD_6_1.png","img2/100/Congruent/L/C_Dist_100_LN_11_LD_22_RN_6_RD_15_0.png","img2/100/Incongruent/R/I_Dist_100_LN_8_LD_20_RN_1_RD_2_1.png","img2/300/Incongruent/R/I_Dist_300_LN_13_LD_26_RN_12_RD_15_1.png","img2/300/Incongruent/R/I_Dist_300_LN_13_LD_26_RN_12_RD_15_1.png","img2/300/Congruent/L/C_Dist_300_LN_12_LD_24_RN_2_RD_10_0.png","img2/100/Congruent/R/C_Dist_100_LN_12_LD_30_RN_13_RD_26_1.png","img2/300/Incongruent/L/I_Dist_300_LN_7_LD_10_RN_8_RD_20_0.png","img2/100/Congruent/L/C_Dist_100_LN_6_LD_20_RN_5_RD_25_0.png","img2/100/Incongruent/L/I_Dist_100_LN_6_LD_10_RN_7_RD_14_0.png","img2/300/Congruent/R/C_Dist_300_LN_1_LD_20_RN_7_RD_20_1.png","img2/300/Incongruent/L/I_Dist_300_LN_1_LD_2_RN_2_RD_10_0.png","img2/200/Incongruent/L/I_Dist_200_LN_7_LD_10_RN_14_RD_28_0.png","img2/200/Incongruent/R/I_Dist_200_LN_14_LD_30_RN_6_RD_9_1.png","img2/200/Congruent/R/C_Dist_200_LN_6_LD_12_RN_7_RD_10_1.png","img2/300/Congruent/L/C_Dist_300_LN_20_LD_25_RN_13_RD_26_0.png","img2/300/Incongruent/R/I_Dist_300_LN_13_LD_26_RN_12_RD_15_1.png","img2/100/Congruent/R/C_Dist_100_LN_12_LD_30_RN_13_RD_26_1.png","img2/200/Incongruent/L/I_Dist_200_LN_1_LD_3_RN_2_RD_15_0.png","img2/200/Congruent/R/C_Dist_200_LN_5_LD_10_RN_14_RD_20_1.png","img2/100/Incongruent/R/I_Dist_100_LN_6_LD_12_RN_3_RD_5_1.png","img2/200/Incongruent/R/I_Dist_200_LN_3_LD_10_RN_1_RD_2_1.png","img2/100/Incongruent/R/I_Dist_100_LN_13_LD_26_RN_12_RD_20_1.png","img2/300/Incongruent/L/I_Dist_300_LN_3_LD_6_RN_4_RD_20_0.png","img2/200/Incongruent/L/I_Dist_200_LN_4_LD_6_RN_14_RD_30_0.png","img2/100/Incongruent/R/I_Dist_100_LN_10_LD_25_RN_8_RD_16_1.png","img2/300/Congruent/R/C_Dist_300_LN_1_LD_5_RN_3_RD_6_1.png","img2/300/Incongruent/L/I_Dist_300_LN_4_LD_5_RN_6_RD_12_0.png","img2/200/Congruent/L/C_Dist_200_LN_8_LD_15_RN_2_RD_6_0.png","img2/200/Congruent/R/C_Dist_200_LN_5_LD_10_RN_14_RD_20_1.png","img2/300/Congruent/R/C_Dist_300_LN_5_LD_25_RN_6_RD_12_1.png","img2/100/Congruent/R/C_Dist_100_LN_2_LD_5_RN_11_RD_22_1.png","img2/100/Incongruent/R/I_Dist_100_LN_17_LD_30_RN_10_RD_15_1.png","img2/300/Congruent/R/C_Dist_300_LN_1_LD_20_RN_7_RD_20_1.png","img2/200/Incongruent/L/I_Dist_200_LN_7_LD_10_RN_12_RD_24_0.png","img2/300/Congruent/L/C_Dist_300_LN_11_LD_22_RN_1_RD_5_0.png","img2/100/Incongruent/R/I_Dist_100_LN_6_LD_12_RN_3_RD_5_1.png","img2/200/Incongruent/L/I_Dist_200_LN_4_LD_6_RN_14_RD_30_0.png","img2/200/Incongruent/R/I_Dist_200_LN_4_LD_30_RN_1_RD_3_1.png","img2/200/Congruent/L/C_Dist_200_LN_7_LD_21_RN_2_RD_15_0.png","img2/200/Congruent/R/C_Dist_200_LN_6_LD_20_RN_11_RD_22_1.png","img2/200/Incongruent/R/I_Dist_200_LN_9_LD_15_RN_8_RD_10_1.png","img2/300/Incongruent/R/I_Dist_300_LN_4_LD_20_RN_2_RD_4_1.png","img2/300/Congruent/L/C_Dist_300_LN_9_LD_10_RN_3_RD_5_0.png","img2/100/Incongruent/L/I_Dist_100_LN_3_LD_5_RN_11_RD_22_0.png","img2/200/Congruent/L/C_Dist_200_LN_11_LD_22_RN_3_RD_10_0.png","img2/100/Incongruent/R/I_Dist_100_LN_17_LD_30_RN_10_RD_15_1.png","img2/200/Congruent/L/C_Dist_200_LN_14_LD_28_RN_6_RD_20_0.png","img2/300/Incongruent/L/I_Dist_300_LN_8_LD_10_RN_9_RD_18_0.png","img2/200/Congruent/R/C_Dist_200_LN_5_LD_10_RN_14_RD_20_1.png","img2/100/Incongruent/R/I_Dist_100_LN_10_LD_25_RN_8_RD_16_1.png","img2/100/Congruent/R/C_Dist_100_LN_7_LD_14_RN_15_RD_25_1.png","img2/200/Congruent/L/C_Dist_200_LN_6_LD_15_RN_3_RD_15_0.png","img2/100/Congruent/R/C_Dist_100_LN_1_LD_2_RN_3_RD_5_1.png","img2/100/Congruent/L/C_Dist_100_LN_11_LD_22_RN_6_RD_15_0.png","img2/300/Congruent/R/C_Dist_300_LN_2_LD_20_RN_10_RD_25_1.png","img2/300/Congruent/R/C_Dist_300_LN_1_LD_30_RN_8_RD_24_1.png","img2/300/Congruent/L/C_Dist_300_LN_20_LD_25_RN_9_RD_18_0.png","img2/100/Congruent/R/C_Dist_100_LN_1_LD_2_RN_18_RD_30_1.png","img2/300/Congruent/R/C_Dist_300_LN_3_LD_12_RN_11_RD_20_1.png","img2/300/Incongruent/R/I_Dist_300_LN_4_LD_20_RN_2_RD_4_1.png","img2/300/Incongruent/L/I_Dist_300_LN_4_LD_5_RN_6_RD_12_0.png","img2/100/Congruent/R/C_Dist_100_LN_4_LD_8_RN_6_RD_10_1.png","img2/200/Congruent/L/C_Dist_200_LN_8_LD_15_RN_2_RD_6_0.png","img2/300/Incongruent/R/I_Dist_300_LN_13_LD_26_RN_12_RD_15_1.png","img2/100/Congruent/R/C_Dist_100_LN_4_LD_10_RN_15_RD_30_1.png","img2/100/Congruent/R/C_Dist_100_LN_12_LD_30_RN_13_RD_26_1.png","img2/200/Congruent/L/C_Dist_200_LN_11_LD_22_RN_3_RD_10_0.png","img2/300/Congruent/R/C_Dist_300_LN_1_LD_20_RN_7_RD_20_1.png","img2/200/Congruent/R/C_Dist_200_LN_13_LD_26_RN_14_RD_20_1.png","img2/200/Incongruent/L/I_Dist_200_LN_1_LD_2_RN_3_RD_10_0.png","img2/100/Congruent/R/C_Dist_100_LN_1_LD_2_RN_18_RD_30_1.png","img2/100/Incongruent/R/I_Dist_100_LN_9_LD_18_RN_6_RD_10_1.png","img2/200/Congruent/R/C_Dist_200_LN_9_LD_30_RN_13_RD_26_1.png","img2/300/Congruent/L/C_Dist_300_LN_12_LD_24_RN_2_RD_10_0.png","img2/300/Congruent/L/C_Dist_300_LN_20_LD_25_RN_13_RD_26_0.png","img2/300/Incongruent/L/I_Dist_300_LN_1_LD_2_RN_3_RD_15_0.png","img2/100/Incongruent/L/I_Dist_100_LN_2_LD_4_RN_6_RD_15_0.png","img2/300/Congruent/R/C_Dist_300_LN_1_LD_5_RN_6_RD_12_1.png","img2/300/Incongruent/R/I_Dist_300_LN_4_LD_20_RN_2_RD_4_1.png","img2/200/Incongruent/L/I_Dist_200_LN_3_LD_4_RN_11_RD_20_0.png","img2/100/Incongruent/R/I_Dist_100_LN_10_LD_25_RN_8_RD_16_1.png","img2/300/Incongruent/L/I_Dist_300_LN_1_LD_2_RN_3_RD_15_0.png","img2/200/Congruent/L/C_Dist_200_LN_4_LD_8_RN_3_RD_10_0.png","img2/300/Incongruent/R/I_Dist_300_LN_4_LD_20_RN_2_RD_4_1.png","img2/300/Congruent/R/C_Dist_300_LN_5_LD_25_RN_7_RD_14_1.png","img2/100/Incongruent/R/I_Dist_100_LN_10_LD_25_RN_8_RD_16_1.png","img2/100/Incongruent/L/I_Dist_100_LN_9_LD_10_RN_20_RD_25_0.png","img2/200/Incongruent/R/I_Dist_200_LN_9_LD_15_RN_8_RD_10_1.png","img2/200/Incongruent/R/I_Dist_200_LN_7_LD_15_RN_6_RD_9_1.png","img2/100/Congruent/R/C_Dist_100_LN_7_LD_14_RN_15_RD_25_1.png","img2/100/Congruent/R/C_Dist_100_LN_2_LD_5_RN_11_RD_22_1.png"],"dist100_C":[["C_Dist_100_LN_10_LD_25_RN_3_RD_10_0.png","C_Dist_100_LN_11_LD_22_RN_4_RD_10_0.png","C_Dist_100_LN_11_LD_22_RN_6_RD_15_0.png","C_Dist_100_LN_15_LD_25_RN_13_RD_26_0.png","C_Dist_100_LN_3_LD_6_RN_2_RD_5_0.png","C_Dist_100_LN_6_LD_20_RN_5_RD_25_0.png","C_Dist_100_LN_8_LD_16_RN_2_RD_5_0.png","C_Dist_100_LN_9_LD_15_RN_8_RD_16_0.png"],["C_Dist_100_LN_1_LD_2_RN_18_RD_30_1.png","C_Dist_100_LN_1_LD_2_RN_3_RD_5_1.png","C_Dist_100_LN_12_LD_30_RN_13_RD_26_1.png","C_Dist_100_LN_2_LD_5_RN_11_RD_22_1.png","C_Dist_100_LN_2_LD_5_RN_6_RD_12_1.png","C_Dist_100_LN_3_LD_20_RN_4_RD_16_1.png","C_Dist_100_LN_4_LD_10_RN_15_RD_30_1.png","C_Dist_100_LN_4_LD_8_RN_6_RD_10_1.png","C_Dist_100_LN_6_LD_12_RN_15_RD_25_1.png","C_Dist_100_LN_7_LD_14_RN_15_RD_25_1.png","C_Dist_100_LN_7_LD_14_RN_9_RD_15_1.png"]],"dist100_I":[["I_Dist_100_LN_1_LD_2_RN_8_RD_20_0.png","I_Dist_100_LN_2_LD_4_RN_6_RD_15_0.png","I_Dist_100_LN_2_LD_4_RN_8_RD_20_0.png","I_Dist_100_LN_3_LD_5_RN_11_RD_22_0.png","I_Dist_100_LN_3_LD_5_RN_8_RD_16_0.png","I_Dist_100_LN_3_LD_6_RN_4_RD_10_0.png","I_Dist_100_LN_3_LD_9_RN_7_RD_30_0.png","I_Dist_100_LN_4_LD_8_RN_8_RD_20_0.png","I_Dist_100_LN_6_LD_10_RN_11_RD_22_0.png","I_Dist_100_LN_6_LD_10_RN_13_RD_26_0.png","I_Dist_100_LN_6_LD_10_RN_7_RD_14_0.png","I_Dist_100_LN_9_LD_10_RN_20_RD_25_0.png","I_Dist_100_LN_9_LD_15_RN_13_RD_26_0.png","I_Dist_100_LN_9_LD_15_RN_14_RD_28_0.png"],["I_Dist_100_LN_10_LD_25_RN_8_RD_16_1.png","I_Dist_100_LN_10_LD_25_RN_9_RD_18_1.png","I_Dist_100_LN_11_LD_22_RN_9_RD_15_1.png","I_Dist_100_LN_12_LD_24_RN_9_RD_15_1.png","I_Dist_100_LN_12_LD_30_RN_2_RD_4_1.png","I_Dist_100_LN_13_LD_26_RN_12_RD_20_1.png","I_Dist_100_LN_13_LD_26_RN_6_RD_10_1.png","I_Dist_100_LN_17_LD_30_RN_10_RD_15_1.png","I_Dist_100_LN_6_LD_12_RN_3_RD_5_1.png","I_Dist_100_LN_8_LD_16_RN_6_RD_10_1.png","I_Dist_100_LN_8_LD_20_RN_1_RD_2_1.png","I_Dist_100_LN_9_LD_18_RN_6_RD_10_1.png"]],"dist100_S":[["E_Dist_100_LN_2_LD_12_RN_2_RD_30_0.png","E_Dist_100_LN_6_LD_10_RN_6_RD_12_0.png"],["E_Dist_100_LN_6_LD_12_RN_6_RD_10_1.png"]],"dist200_C":[["C_Dist_200_LN_11_LD_22_RN_3_RD_10_0.png","C_Dist_200_LN_12_LD_15_RN_6_RD_10_0.png","C_Dist_200_LN_12_LD_20_RN_6_RD_15_0.png","C_Dist_200_LN_14_LD_28_RN_6_RD_20_0.png","C_Dist_200_LN_15_LD_25_RN_4_RD_10_0.png","C_Dist_200_LN_16_LD_20_RN_12_RD_20_0.png","C_Dist_200_LN_16_LD_30_RN_9_RD_27_0.png","C_Dist_200_LN_20_LD_25_RN_9_RD_15_0.png","C_Dist_200_LN_21_LD_30_RN_2_RD_4_0.png","C_Dist_200_LN_4_LD_10_RN_3_RD_15_0.png","C_Dist_200_LN_4_LD_8_RN_3_RD_10_0.png","C_Dist_200_LN_6_LD_15_RN_3_RD_15_0.png","C_Dist_200_LN_7_LD_21_RN_2_RD_15_0.png","C_Dist_200_LN_8_LD_15_RN_2_RD_6_0.png","C_Dist_200_LN_8_LD_15_RN_3_RD_9_0.png","C_Dist_200_LN_8_LD_15_RN_7_RD_21_0.png","C_Dist_200_LN_9_LD_20_RN_4_RD_16_0.png"],["C_Dist_200_LN_1_LD_2_RN_21_RD_30_1.png","C_Dist_200_LN_13_LD_26_RN_14_RD_20_1.png","C_Dist_200_LN_3_LD_10_RN_11_RD_22_1.png","C_Dist_200_LN_3_LD_10_RN_14_RD_28_1.png","C_Dist_200_LN_3_LD_10_RN_7_RD_14_1.png","C_Dist_200_LN_3_LD_12_RN_9_RD_20_1.png","C_Dist_200_LN_3_LD_6_RN_14_RD_20_1.png","C_Dist_200_LN_5_LD_10_RN_14_RD_20_1.png","C_Dist_200_LN_6_LD_12_RN_7_RD_10_1.png","C_Dist_200_LN_6_LD_20_RN_11_RD_22_1.png","C_Dist_200_LN_7_LD_15_RN_18_RD_27_1.png","C_Dist_200_LN_9_LD_30_RN_13_RD_26_1.png"]],"dist200_I":[["I_Dist_200_LN_1_LD_2_RN_3_RD_10_0.png","I_Dist_200_LN_1_LD_3_RN_2_RD_15_0.png","I_Dist_200_LN_3_LD_4_RN_11_RD_20_0.png","I_Dist_200_LN_4_LD_5_RN_6_RD_10_0.png","I_Dist_200_LN_4_LD_6_RN_14_RD_30_0.png","I_Dist_200_LN_7_LD_10_RN_12_RD_24_0.png","I_Dist_200_LN_7_LD_10_RN_14_RD_28_0.png","I_Dist_200_LN_7_LD_10_RN_8_RD_16_0.png"],["I_Dist_200_LN_11_LD_20_RN_3_RD_4_1.png","I_Dist_200_LN_14_LD_30_RN_12_RD_18_1.png","I_Dist_200_LN_14_LD_30_RN_6_RD_9_1.png","I_Dist_200_LN_3_LD_10_RN_1_RD_2_1.png","I_Dist_200_LN_4_LD_30_RN_1_RD_3_1.png","I_Dist_200_LN_6_LD_20_RN_3_RD_6_1.png","I_Dist_200_LN_7_LD_15_RN_4_RD_6_1.png","I_Dist_200_LN_7_LD_15_RN_6_RD_9_1.png","I_Dist_200_LN_9_LD_15_RN_8_RD_10_1.png"]],"dist200_S":[["E_Dist_200_LN_3_LD_6_RN_3_RD_10_0.png"],["E_Dist_200_LN_3_LD_10_RN_3_RD_6_1.png"]],"dist300_C":[["C_Dist_300_LN_11_LD_22_RN_1_RD_5_0.png","C_Dist_300_LN_11_LD_22_RN_2_RD_10_0.png","C_Dist_300_LN_11_LD_22_RN_4_RD_20_0.png","C_Dist_300_LN_12_LD_24_RN_2_RD_10_0.png","C_Dist_300_LN_18_LD_20_RN_9_RD_15_0.png","C_Dist_300_LN_20_LD_25_RN_13_RD_26_0.png","C_Dist_300_LN_20_LD_25_RN_14_RD_28_0.png","C_Dist_300_LN_20_LD_25_RN_5_RD_10_0.png","C_Dist_300_LN_20_LD_25_RN_8_RD_16_0.png","C_Dist_300_LN_20_LD_25_RN_9_RD_18_0.png","C_Dist_300_LN_24_LD_30_RN_2_RD_4_0.png","C_Dist_300_LN_24_LD_30_RN_8_RD_16_0.png","C_Dist_300_LN_3_LD_6_RN_2_RD_10_0.png","C_Dist_300_LN_4_LD_10_RN_1_RD_10_0.png","C_Dist_300_LN_4_LD_5_RN_2_RD_4_0.png","C_Dist_300_LN_8_LD_16_RN_1_RD_5_0.png","C_Dist_300_LN_9_LD_10_RN_3_RD_5_0.png"],["C_Dist_300_LN_1_LD_20_RN_7_RD_20_1.png","C_Dist_300_LN_1_LD_3_RN_19_RD_30_1.png","C_Dist_300_LN_1_LD_30_RN_8_RD_24_1.png","C_Dist_300_LN_1_LD_5_RN_11_RD_22_1.png","C_Dist_300_LN_1_LD_5_RN_3_RD_6_1.png","C_Dist_300_LN_1_LD_5_RN_6_RD_12_1.png","C_Dist_300_LN_2_LD_10_RN_12_RD_24_1.png","C_Dist_300_LN_2_LD_20_RN_10_RD_25_1.png","C_Dist_300_LN_3_LD_12_RN_11_RD_20_1.png","C_Dist_300_LN_3_LD_6_RN_4_RD_5_1.png","C_Dist_300_LN_4_LD_20_RN_13_RD_26_1.png","C_Dist_300_LN_5_LD_25_RN_6_RD_12_1.png","C_Dist_300_LN_5_LD_25_RN_7_RD_14_1.png","C_Dist_300_LN_7_LD_14_RN_20_RD_25_1.png","C_Dist_300_LN_8_LD_15_RN_10_RD_12_1.png"]],"dist300_I":[["I_Dist_300_LN_1_LD_2_RN_2_RD_10_0.png","I_Dist_300_LN_1_LD_2_RN_3_RD_15_0.png","I_Dist_300_LN_2_LD_4_RN_6_RD_30_0.png","I_Dist_300_LN_3_LD_6_RN_4_RD_20_0.png","I_Dist_300_LN_4_LD_5_RN_6_RD_12_0.png","I_Dist_300_LN_4_LD_5_RN_8_RD_16_0.png","I_Dist_300_LN_7_LD_10_RN_8_RD_20_0.png","I_Dist_300_LN_8_LD_10_RN_14_RD_28_0.png","I_Dist_300_LN_8_LD_10_RN_9_RD_18_0.png"],["I_Dist_300_LN_13_LD_26_RN_12_RD_15_1.png","I_Dist_300_LN_4_LD_20_RN_2_RD_4_1.png"]],"dist300_S":[["E_Dist_300_LN_9_LD_12_RN_9_RD_20_0.png"],["E_Dist_300_LN_18_LD_30_RN_18_RD_20_1.png","E_Dist_300_LN_3_LD_10_RN_3_RD_5_1.png","E_Dist_300_LN_9_LD_20_RN_9_RD_12_1.png"]],"dist500_C":[["C_Dist_500_LN_10_LD_13_RN_7_RD_26_0.png","C_Dist_500_LN_10_LD_15_RN_4_RD_24_0.png","C_Dist_500_LN_12_LD_16_RN_3_RD_12_0.png","C_Dist_500_LN_12_LD_18_RN_4_RD_24_0.png","C_Dist_500_LN_15_LD_18_RN_5_RD_15_0.png","C_Dist_500_LN_15_LD_20_RN_1_RD_4_0.png","C_Dist_500_LN_18_LD_27_RN_1_RD_6_0.png","C_Dist_500_LN_20_LD_24_RN_1_RD_3_0.png","C_Dist_500_LN_20_LD_24_RN_3_RD_9_0.png","C_Dist_500_LN_20_LD_24_RN_7_RD_21_0.png","C_Dist_500_LN_20_LD_28_RN_3_RD_14_0.png","C_Dist_500_LN_21_LD_28_RN_6_RD_24_0.png","C_Dist_500_LN_22_LD_28_RN_2_RD_7_0.png","C_Dist_500_LN_25_LD_30_RN_9_RD_27_0.png","C_Dist_500_LN_4_LD_6_RN_1_RD_6_0.png","C_Dist_500_LN_5_LD_6_RN_2_RD_6_0.png","C_Dist_500_LN_6_LD_9_RN_1_RD_6_0.png","C_Dist_500_LN_7_LD_10_RN_1_RD_5_0.png","C_Dist_500_LN_8_LD_12_RN_1_RD_6_0.png","C_Dist_500_LN_8_LD_12_RN_4_RD_24_0.png"],["C_Dist_500_LN_1_LD_4_RN_12_RD_16_1.png","C_Dist_500_LN_1_LD_4_RN_9_RD_12_1.png","C_Dist_500_LN_1_LD_9_RN_11_RD_18_1.png","C_Dist_500_LN_10_LD_24_RN_22_RD_24_1.png","C_Dist_500_LN_2_LD_12_RN_10_RD_15_1.png","C_Dist_500_LN_2_LD_12_RN_12_RD_18_1.png","C_Dist_500_LN_2_LD_12_RN_4_RD_6_1.png","C_Dist_500_LN_2_LD_24_RN_7_RD_12_1.png","C_Dist_500_LN_2_LD_5_RN_18_RD_20_1.png","C_Dist_500_LN_2_LD_5_RN_9_RD_10_1.png","C_Dist_500_LN_2_LD_8_RN_12_RD_16_1.png","C_Dist_500_LN_2_LD_8_RN_21_RD_28_1.png","C_Dist_500_LN_3_LD_10_RN_4_RD_5_1.png","C_Dist_500_LN_3_LD_12_RN_15_RD_20_1.png","C_Dist_500_LN_3_LD_30_RN_6_RD_10_1.png","C_Dist_500_LN_3_LD_8_RN_14_RD_16_1.png","C_Dist_500_LN_4_LD_16_RN_15_RD_20_1.png","C_Dist_500_LN_4_LD_24_RN_12_RD_18_1.png","C_Dist_500_LN_5_LD_14_RN_6_RD_7_1.png","C_Dist_500_LN_7_LD_21_RN_20_RD_24_1.png","C_Dist_500_LN_7_LD_28_RN_12_RD_16_1.png","C_Dist_500_LN_7_LD_28_RN_9_RD_12_1.png","C_Dist_500_LN_9_LD_27_RN_20_RD_24_1.png"]],"dist500_I":[["I_Dist_500_LN_2_LD_3_RN_4_RD_24_0.png","I_Dist_500_LN_5_LD_6_RN_6_RD_18_0.png","I_Dist_500_LN_7_LD_8_RN_9_RD_24_0.png"],["I_Dist_500_LN_7_LD_21_RN_5_RD_6_1.png"]],"dist500_S":[["E_Dist_500_LN_6_LD_8_RN_6_RD_24_0.png"],["E_Dist_500_LN_2_LD_12_RN_2_RD_3_1.png","E_Dist_500_LN_6_LD_24_RN_6_RD_8_1.png"]]}},{"start_time":1552308303253,"click_time":1552308305559,"finger_time":1552308304880,"fix_duration":891.5541253973635,"trial":1,"RT":1627,"MT":679,"sideResp":2,"stimulus":[],"xmouse":[815,815,815,815,815,815,815,815,815,815,815,815,815,815,815,815,815,815,815,815,815,815,815,815,815,815,815,815,815,815,815,815,815,815,815,815,815,815,815,815,815,815,815,815,815,815,815,815,815,815,815,815,815,815,815,815,815,815,815,815,815,815,815,815,815,815,815,815,815,815,815,815,815,815,815,815,816,818,819,820,837,890,953,1020,1084,1183,1217,1251,1269,1269,1269,1269,1269,1269,1269,1269,1269,1269,1269,1269,1269,1233,1217,1211,1204,1195,1195,1195,1195,1194,1186,1179,1172,1166,1161,1156],"ymouse":[511,511,511,511,511,511,511,511,511,511,511,511,511,511,511,511,511,511,511,511,511,511,511,511,511,511,511,511,511,511,511,511,511,511,511,511,511,511,511,511,511,511,511,511,511,511,511,511,511,511,511,511,511,511,511,511,511,511,511,511,511,511,511,511,511,511,511,511,511,511,511,511,511,511,511,511,513,513,513,514,515,485,426,355,265,94,45,13,3,3,3,3,3,3,3,3,3,3,3,3,3,2,11,14,18,34,36,36,36,37,44,46,48,50,51,53],"timestamp_mouse":[14,36,46,67,87,106,127,147,166,187,206,227,247,266,286,306,327,347,367,386,406,426,447,466,486,506,527,547,567,586,606,627,647,667,686,707,726,746,766,786,807,826,847,866,886,906,926,947,967,986,1006,1026,1048,1066,1086,1107,1126,1146,1166,1187,1207,1226,1246,1266,1286,1306,1327,1346,1366,1386,1406,1428,1446,1466,1487,1506,1526,1546,1566,1586,1606,1626,1646,1666,1686,1706,1726,1746,1767,1786,1807,1826,1846,1866,1886,1906,1926,1946,1966,1986,2006,2026,2046,2066,2086,2107,2126,2147,2168,2186,2206,2227,2246,2266,2286,2306],"xSR":741.5,"ySR":449.15000000000003,"xT1":424.9,"yT1":0,"xT2":1058.1,"yT2":0,"toosoon":0,"cond_shown":"Incongruent","ratio_trial":300,"L_num":13,"L_den":26,"R_num":12,"R_den":15,"correct_side":2,"subjID":"Martinmarulanda17","gender":"0","school":"4","age":"9"},{"start_time":1552308308513,"click_time":1552308310579,"finger_time":1552308310159,"fix_duration":1293.4190688797294,"trial":2,"RT":1646,"MT":420,"sideResp":2,"stimulus":[],"xmouse":[788,788,788,788,788,788,788,788,788,788,788,788,788,788,788,788,788,788,788,788,788,788,788,788,788,788,788,788,788,788,788,788,788,788,788,788,788,788,788,788,788,788,788,788,788,788,788,788,788,788,788,788,788,788,788,788,788,788,788,788,788,788,788,788,788,788,788,788,788,788,788,788,788,788,788,788,788,788,788,788,790,800,848,878,904,923,935,955,971,983,993,1000,1008,1010,1011,1012,1013,1018,1022,1027,1034,1042,1056,1062],"ymouse":[516,516,516,516,516,516,516,516,516,516,516,516,516,516,516,516,516,516,516,516,516,516,516,516,516,516,516,516,516,516,516,516,516,516,516,516,516,516,516,516,516,516,516,516,516,516,516,516,516,516,516,516,516,516,516,516,516,516,516,516,516,516,516,516,516,516,516,516,516,516,516,516,516,516,516,516,516,516,516,516,515,505,457,418,377,334,291,205,169,154,144,139,130,124,120,116,115,111,109,106,104,99,89,84],"timestamp_mouse":[10,26,47,66,86,106,127,146,166,186,207,226,246,267,286,306,326,347,366,386,406,426,446,466,486,506,526,546,566,586,606,626,646,667,686,706,728,746,767,787,806,826,846,866,886,906,926,946,966,986,1007,1027,1047,1066,1086,1106,1127,1146,1166,1186,1206,1226,1246,1267,1286,1306,1326,1346,1366,1386,1407,1426,1447,1467,1487,1506,1526,1546,1566,1587,1607,1627,1646,1666,1686,1706,1727,1747,1766,1786,1807,1826,1846,1866,1886,1906,1926,1947,1967,1986,2006,2026,2046,2066],"xSR":741.5,"ySR":449.15000000000003,"xT1":424.9,"yT1":0,"xT2":1058.1,"yT2":0,"toosoon":0,"cond_shown":"Incongruent","ratio_trial":200,"L_num":7,"L_den":15,"R_num":4,"R_den":6,"correct_side":2,"subjID":"Martinmarulanda17","gender":"0","school":"4","age":"9"},{"start_time":1552308312276,"click_time":1552308314499,"finger_time":1552308313979,"fix_duration":335.98914585714044,"trial":3,"RT":1703,"MT":520,"sideResp":2,"stimulus":[],"xmouse":[794,794,794,794,794,794,794,794,794,794,794,794,794,794,794,794,794,794,794,794,794,794,794,794,794,794,794,794,794,794,794,794,794,794,794,794,794,794,794,794,794,794,794,794,794,794,794,794,794,794,794,794,794,794,794,794,794,794,794,794,794,794,794,794,794,794,794,794,794,794,794,794,794,794,794,794,795,795,795,798,798,798,800,803,827,843,860,881,908,968,993,1026,1037,1041,1048,1052,1055,1055,1055,1055,1055,1055,1055,1055,1055,1055,1055,1055,1055,1055,1055,1134],"ymouse":[488,488,488,488,488,488,488,488,488,488,488,488,488,488,488,488,488,488,488,488,488,488,488,488,488,488,488,488,488,488,488,488,488,488,488,488,488,488,488,488,488,488,488,488,488,488,488,488,488,488,488,488,488,488,488,488,488,488,488,488,488,488,488,488,488,488,488,488,488,488,488,488,488,488,488,488,488,488,488,489,489,489,489,486,467,455,445,434,416,321,265,181,145,116,67,40,9,9,9,9,9,9,9,9,9,9,9,9,9,9,9,10],"timestamp_mouse":[9,23,43,63,83,103,124,143,163,183,205,223,243,263,284,303,324,343,364,383,404,423,443,463,484,503,524,543,563,583,603,623,643,663,683,703,724,744,763,783,803,823,844,864,884,903,923,943,963,983,1003,1023,1043,1063,1083,1104,1123,1143,1163,1183,1203,1223,1243,1263,1283,1304,1323,1343,1363,1383,1403,1423,1444,1464,1484,1503,1523,1543,1564,1583,1604,1623,1643,1663,1683,1703,1724,1744,1763,1783,1803,1823,1843,1863,1883,1903,1923,1943,1963,1984,2003,2024,2044,2063,2084,2103,2123,2143,2164,2183,2203,2223],"xSR":741.5,"ySR":449.15000000000003,"xT1":424.9,"yT1":0,"xT2":1058.1,"yT2":0,"toosoon":0,"cond_shown":"Incongruent","ratio_trial":100,"L_num":12,"L_den":24,"R_num":9,"R_den":15,"correct_side":2,"subjID":"Martinmarulanda17","gender":"0","school":"4","age":"9"},{"start_time":1552308316309,"click_time":1552308318119,"finger_time":1552308317860,"fix_duration":508.9483916835036,"trial":4,"RT":1551,"MT":259,"sideResp":1,"stimulus":[],"xmouse":[795,795,795,795,795,795,795,795,795,795,795,795,795,795,795,795,795,795,795,795,795,795,795,795,795,795,795,795,795,795,795,795,795,795,795,795,795,795,795,795,795,795,795,795,795,795,795,795,795,795,795,795,795,795,795,795,795,795,795,795,795,795,795,795,795,795,795,795,795,795,795,795,795,795,795,783,771,692,630,611,605,604,604,603,600,593,583,548,522,507,494],"ymouse":[502,502,502,502,502,502,502,502,502,502,502,502,502,502,502,502,502,502,502,502,502,502,502,502,502,502,502,502,502,502,502,502,502,502,502,502,502,502,502,502,502,502,502,502,502,502,502,502,502,502,502,502,502,502,502,502,502,502,502,502,502,502,502,502,502,502,502,502,502,502,502,502,502,502,502,485,469,359,271,237,220,215,214,210,202,189,173,137,115,102,90],"timestamp_mouse":[10,30,63,71,90,110,130,151,170,190,210,230,250,270,290,310,331,350,370,390,410,430,450,470,491,510,531,550,570,590,610,630,650,670,691,710,730,750,770,790,811,830,850,870,891,911,931,951,970,991,1011,1030,1050,1071,1090,1110,1130,1150,1171,1190,1210,1230,1250,1270,1290,1311,1330,1350,1370,1391,1412,1430,1450,1470,1491,1510,1530,1551,1572,1590,1610,1630,1650,1670,1690,1710,1731,1750,1771,1790,1810],"xSR":741.5,"ySR":449.15000000000003,"xT1":424.9,"yT1":0,"xT2":1058.1,"yT2":0,"toosoon":0,"cond_shown":"Incongruent","ratio_trial":200,"L_num":7,"L_den":10,"R_num":14,"R_den":28,"correct_side":1,"subjID":"Martinmarulanda17","gender":"0","school":"4","age":"9"},{"start_time":1552308321350,"click_time":1552308324159,"finger_time":1552308322839,"fix_duration":250,"trial":5,"RT":1489,"MT":1320,"sideResp":2,"stimulus":[],"xmouse":[834,834,834,834,833,831,829,828,827,827,827,827,827,827,827,827,827,827,827,827,827,827,827,827,827,827,827,827,827,827,827,827,827,827,827,827,827,827,827,827,827,827,827,827,827,827,827,827,827,827,827,827,827,827,827,827,827,827,827,827,827,827,827,827,827,827,827,827,827,827,827,827,832,839,845,856,859,859,859,859,859,859,859,859,859,859,859,866,873,877,878,879,879,879,879,879,879,879,880,885,887,887,887,889,899,941,985,1001,1003,1003,1003,1003,1003,1003,1003,1003,1003,1003,1002,1000,997,995,992,989,985,980,980,980,980,980,983,984,985,985,986,991,994,1018,1041,1065,1106],"ymouse":[490,490,490,490,490,490,489,489,488,488,488,488,488,488,488,488,488,488,488,488,488,488,488,488,488,488,488,488,488,488,488,488,488,488,488,488,488,488,488,488,488,488,488,488,488,488,488,488,488,488,488,488,488,488,488,488,488,488,488,488,488,488,488,488,488,488,488,488,488,488,488,488,482,475,468,454,451,450,450,450,450,450,450,450,450,450,449,432,421,415,414,413,413,413,413,413,413,413,413,410,410,410,410,410,410,411,413,416,416,416,416,416,416,416,416,416,416,416,416,415,412,412,410,409,408,405,405,405,405,405,397,392,389,387,385,367,357,300,246,180,92],"timestamp_mouse":[10,36,49,69,89,109,129,149,169,189,209,229,249,269,289,309,330,349,369,389,409,429,449,469,489,509,529,549,570,590,609,630,651,669,689,709,729,749,769,789,810,829,849,869,889,909,930,950,970,989,1010,1029,1049,1069,1089,1109,1129,1149,1170,1189,1209,1230,1250,1269,1289,1309,1329,1350,1370,1389,1409,1429,1449,1469,1489,1509,1529,1549,1569,1589,1609,1629,1650,1669,1691,1709,1729,1749,1770,1789,1809,1830,1849,1870,1889,1909,1929,1949,1969,1989,2009,2030,2050,2070,2089,2109,2129,2149,2169,2190,2210,2229,2249,2269,2290,2309,2329,2349,2369,2389,2410,2429,2450,2469,2489,2510,2529,2549,2570,2589,2609,2629,2649,2669,2689,2709,2729,2749,2769,2789,2809],"xSR":741.5,"ySR":449.15000000000003,"xT1":424.9,"yT1":0,"xT2":1058.1,"yT2":0,"toosoon":0,"cond_shown":"Incongruent","ratio_trial":100,"L_num":8,"L_den":20,"R_num":1,"R_den":2,"correct_side":2,"subjID":"Martinmarulanda17","gender":"0","school":"4","age":"9"},{"start_time":1552308327286,"click_time":1552308329539,"finger_time":1552308328659,"fix_duration":503.8085393630052,"trial":6,"RT":1373,"MT":880,"sideResp":2,"stimulus":[],"xmouse":[815,816,816,816,816,816,816,816,816,816,816,816,816,816,816,816,816,816,816,816,816,816,816,816,816,816,816,816,816,816,816,816,816,811,803,798,797,797,797,797,797,797,797,797,797,797,797,797,797,797,797,797,797,797,797,797,797,797,797,797,797,797,797,797,797,797,796,797,815,835,853,869,885,904,908,911,911,912,913,913,914,914,914,915,916,917,919,925,963,1039,1119,1202,1260,1291,1291,1292,1292,1292,1291,1289,1285,1278,1270,1260,1255,1251,1245,1240,1227,1209,1189,1159,1129],"ymouse":[478,478,478,478,478,479,479,479,479,479,479,479,479,479,479,479,479,479,479,479,479,479,479,479,479,479,479,479,479,479,479,479,479,478,474,472,471,471,471,471,471,471,471,471,471,471,471,471,471,471,471,471,471,471,471,471,471,471,471,471,471,471,471,471,471,471,471,465,447,430,416,404,393,382,378,374,372,369,368,363,357,356,356,353,350,347,343,335,319,305,275,239,207,169,161,154,150,147,143,138,132,121,113,104,101,98,94,90,84,78,71,63,55],"timestamp_mouse":[14,34,53,74,94,114,134,153,173,193,213,233,254,274,294,314,333,353,373,395,413,433,455,473,493,513,533,554,574,594,615,633,654,673,695,714,734,753,774,795,813,833,853,873,893,913,933,954,974,993,1013,1033,1053,1074,1094,1114,1134,1154,1173,1193,1213,1234,1254,1273,1294,1313,1333,1353,1373,1394,1413,1434,1454,1474,1493,1513,1533,1553,1573,1593,1613,1634,1654,1673,1695,1714,1734,1755,1774,1795,1813,1833,1853,1874,1895,1913,1933,1953,1973,1993,2013,2033,2053,2073,2094,2113,2133,2153,2173,2194,2213,2233,2253],"xSR":741.5,"ySR":449.15000000000003,"xT1":424.9,"yT1":0,"xT2":1058.1,"yT2":0,"toosoon":0,"cond_shown":"Incongruent","ratio_trial":200,"L_num":7,"L_den":15,"R_num":6,"R_den":9,"correct_side":2,"subjID":"Martinmarulanda17","gender":"0","school":"4","age":"9"},{"start_time":1552308335449,"click_time":1552308337900,"finger_time":1552308337319,"fix_duration":547.2044292892241,"trial":7,"RT":1870,"MT":581,"sideResp":1,"stimulus":[],"xmouse":[793,793,793,793,793,793,793,793,793,793,793,793,793,793,793,793,793,793,793,793,793,793,793,793,793,793,793,793,793,793,793,793,793,793,793,793,793,793,793,793,793,793,793,793,793,793,793,793,793,793,793,793,793,793,793,793,793,793,793,793,793,793,793,793,793,793,793,793,793,793,793,793,793,793,793,793,793,793,793,793,793,793,793,793,793,793,793,793,792,790,784,779,776,772,765,754,750,742,728,710,634,597,467,377,299,247,247,247,247,247,247,247,248,258,270,319,349,375,397,409,414,418,427],"ymouse":[491,491,491,491,491,491,491,491,491,491,491,491,491,491,491,491,491,491,491,491,491,491,491,491,491,491,491,491,491,491,491,491,491,491,491,491,491,491,491,491,491,491,491,491,491,491,491,491,491,491,491,491,491,491,491,491,491,491,491,491,491,491,491,491,491,491,491,491,491,491,491,491,491,491,491,491,491,491,491,491,491,491,491,491,491,491,491,491,491,489,478,463,452,439,418,397,390,379,366,353,303,278,175,106,55,25,25,25,25,25,25,25,25,25,25,36,45,51,58,61,62,63,63],"timestamp_mouse":[10,30,50,71,91,111,130,150,171,191,211,231,251,272,291,310,330,350,370,390,410,430,451,471,491,511,531,550,570,590,610,630,651,671,690,710,731,751,771,791,811,830,851,872,891,911,931,952,970,991,1011,1030,1051,1072,1092,1110,1131,1151,1171,1190,1210,1230,1251,1270,1291,1310,1330,1350,1371,1390,1410,1430,1451,1470,1491,1510,1531,1551,1570,1590,1611,1630,1650,1670,1690,1711,1730,1752,1770,1791,1811,1832,1851,1870,1890,1911,1931,1950,1970,1990,2010,2031,2050,2070,2091,2111,2131,2150,2171,2191,2211,2231,2250,2270,2291,2310,2330,2351,2371,2390,2410,2431,2451],"xSR":741.5,"ySR":449.15000000000003,"xT1":424.9,"yT1":0,"xT2":1058.1,"yT2":0,"toosoon":0,"cond_shown":"Congruent","ratio_trial":200,"L_num":8,"L_den":15,"R_num":2,"R_den":6,"correct_side":1,"subjID":"Martinmarulanda17","gender":"0","school":"4","age":"9"},{"start_time":1552308339555,"click_time":1552308341559,"finger_time":1552308341099,"fix_duration":394.7403469317311,"trial":8,"RT":1544,"MT":460,"sideResp":2,"stimulus":[],"xmouse":[805,805,805,805,805,805,805,805,805,805,805,805,805,805,805,805,805,805,805,805,805,805,805,805,805,805,805,805,805,805,805,805,805,805,805,805,805,805,805,805,805,805,805,805,805,805,805,805,805,805,805,805,805,805,805,805,805,805,805,805,805,805,805,805,805,805,805,805,805,805,805,805,805,805,805,817,832,842,857,878,947,987,1018,1030,1032,1015,1011,1011,1011,1011,1011,1011,1011,1011,1011,1011,1011,1011,1011,1011,1094],"ymouse":[507,507,507,507,507,507,507,507,507,507,507,507,507,507,507,507,507,507,507,507,507,507,507,507,507,507,507,507,507,507,507,507,507,507,507,507,507,507,507,507,507,507,507,507,507,507,507,507,507,507,507,507,507,507,507,507,507,507,507,507,507,507,507,507,507,507,507,507,507,507,507,507,507,507,506,503,496,492,483,468,381,309,234,171,113,25,12,12,12,12,12,12,12,12,12,12,12,12,12,12,20],"timestamp_mouse":[10,35,44,64,84,105,126,144,164,185,205,226,245,265,285,305,325,344,364,384,404,424,444,464,485,504,524,544,564,585,605,625,645,664,684,705,726,744,764,784,804,825,845,864,885,904,924,944,964,984,1004,1024,1044,1065,1085,1104,1124,1145,1165,1186,1204,1224,1244,1264,1285,1305,1324,1344,1364,1386,1405,1425,1444,1464,1484,1504,1524,1544,1564,1584,1604,1625,1644,1664,1684,1704,1725,1744,1764,1784,1805,1825,1845,1864,1885,1904,1924,1944,1965,1984,2004],"xSR":741.5,"ySR":449.15000000000003,"xT1":424.9,"yT1":0,"xT2":1058.1,"yT2":0,"toosoon":0,"cond_shown":"Congruent","ratio_trial":300,"L_num":3,"L_den":12,"R_num":11,"R_den":20,"correct_side":2,"subjID":"Martinmarulanda17","gender":"0","school":"4","age":"9"},{"start_time":1552308343679,"click_time":1552308345640,"finger_time":1552308345459,"fix_duration":1018.6308686827157,"trial":9,"RT":1780,"MT":181,"sideResp":1,"stimulus":[],"xmouse":[785,785,785,785,785,785,785,785,785,785,785,785,785,785,785,785,785,785,785,785,785,785,785,785,785,785,785,785,785,785,785,785,785,785,785,785,785,785,785,785,785,785,785,785,785,785,785,785,785,785,785,785,785,785,785,785,785,785,785,785,785,785,785,785,785,785,785,785,785,785,785,785,785,785,785,785,785,785,785,785,785,785,785,785,785,785,782,778,772,753,736,715,699,683,636,591,522,461,428],"ymouse":[517,517,517,517,517,517,517,517,517,517,517,517,517,517,517,517,517,517,517,517,517,517,517,517,517,517,517,517,517,517,517,517,517,517,517,517,517,517,517,517,517,517,517,517,517,517,517,517,517,517,517,517,517,517,517,517,517,517,517,517,517,517,517,517,517,517,517,517,517,517,517,517,517,517,517,517,517,517,517,517,517,517,517,517,517,517,510,500,479,430,394,354,325,298,238,199,151,112,90],"timestamp_mouse":[11,22,40,61,81,101,122,140,160,180,200,220,241,261,281,301,321,342,360,380,400,420,440,460,480,501,520,540,560,581,601,620,640,660,681,700,721,740,761,780,801,821,840,860,880,900,921,940,960,981,1000,1022,1041,1061,1081,1101,1122,1141,1160,1180,1201,1220,1240,1261,1280,1301,1321,1341,1360,1380,1400,1421,1441,1461,1480,1500,1521,1541,1561,1581,1600,1621,1641,1660,1680,1700,1721,1741,1761,1780,1800,1820,1840,1860,1880,1901,1921,1942,1961],"xSR":741.5,"ySR":449.15000000000003,"xT1":424.9,"yT1":0,"xT2":1058.1,"yT2":0,"toosoon":0,"cond_shown":"Congruent","ratio_trial":100,"L_num":3,"L_den":6,"R_num":2,"R_den":5,"correct_side":1,"subjID":"Martinmarulanda17","gender":"0","school":"4","age":"9"},{"start_time":1552308347916,"click_time":1552308351940,"finger_time":1552308350381,"fix_duration":936.647673156751,"trial":10,"RT":2465,"MT":1559,"sideResp":2,"stimulus":[],"xmouse":[820,820,820,820,820,820,820,820,820,823,824,825,827,828,828,828,828,828,828,828,828,828,828,828,828,828,828,828,828,828,828,828,828,828,828,828,828,828,828,828,828,828,828,828,828,828,828,828,828,828,828,828,828,828,828,828,828,828,828,828,828,828,828,828,828,828,828,828,828,828,828,828,828,827,827,827,827,827,827,826,826,826,826,826,826,826,826,826,826,826,826,826,826,826,826,826,826,826,826,826,826,826,826,826,826,826,826,827,828,828,828,828,828,828,828,828,828,828,828,828,828,828,836,842,848,853,857,869,880,886,900,911,924,928,929,930,931,935,941,954,966,989,994,998,1001,1005,1011,1013,1014,1017,1017,1017,1018,1018,1018,1018,1018,1018,1018,1018,1018,1018,1018,1018,1018,1019,1021,1023,1023,1023,1023,1023,1023,1023,1023,1023,1023,1024,1024,1024,1024,1024,1024,1024,1024,1024,1024,1044,1064,1091,1105,1119,1153,1167,1174,1176,1176,1172,1171,1167,1164,1158],"ymouse":[524,524,524,524,524,524,524,524,524,524,524,523,520,520,520,520,520,520,520,520,520,520,520,520,520,520,520,520,520,520,520,520,520,520,520,520,520,520,520,520,520,520,520,520,520,520,520,520,520,520,520,520,520,520,520,520,520,520,520,520,520,520,520,520,520,520,520,520,520,520,520,520,520,520,520,520,520,520,520,519,519,519,519,519,519,519,519,519,519,519,519,519,519,519,519,519,519,519,519,519,519,517,515,514,513,512,511,508,506,503,502,501,501,501,501,499,498,493,491,490,488,483,463,454,443,430,418,376,339,316,285,263,244,238,236,232,230,225,222,220,219,217,216,216,215,213,212,211,211,206,204,202,197,195,193,191,189,186,184,184,183,182,178,176,171,167,162,151,150,150,150,150,150,150,150,149,149,144,143,141,140,140,140,139,138,137,136,131,129,125,123,118,101,97,95,93,92,88,85,81,78,72],"timestamp_mouse":[10,24,44,64,83,103,124,143,163,183,203,224,244,264,284,304,324,343,363,384,404,424,443,463,485,505,523,543,564,584,603,623,644,663,685,704,724,743,763,783,804,824,843,863,884,904,923,943,964,983,1003,1023,1043,1063,1083,1103,1123,1145,1163,1183,1203,1223,1244,1263,1284,1303,1324,1343,1363,1383,1403,1424,1443,1464,1483,1504,1524,1544,1564,1583,1603,1624,1643,1663,1683,1703,1723,1744,1764,1783,1803,1823,1844,1864,1884,1903,1923,1944,1964,1985,2003,2023,2043,2065,2084,2103,2123,2143,2164,2183,2203,2223,2243,2264,2283,2303,2323,2345,2363,2383,2403,2423,2443,2465,2483,2503,2524,2544,2564,2584,2603,2623,2644,2663,2683,2703,2724,2744,2764,2784,2805,2825,2843,2864,2883,2903,2925,2944,2963,2983,3004,3023,3044,3064,3083,3103,3123,3143,3164,3183,3203,3223,3243,3264,3283,3303,3323,3343,3364,3383,3403,3423,3444,3463,3484,3503,3523,3543,3563,3583,3604,3624,3644,3664,3683,3703,3723,3743,3763,3783,3803,3823,3844,3863,3883,3903,3923,3943,3963,3983,4003,4023],"xSR":741.5,"ySR":449.15000000000003,"xT1":424.9,"yT1":0,"xT2":1058.1,"yT2":0,"toosoon":0,"cond_shown":"Congruent","ratio_trial":100,"L_num":10,"L_den":25,"R_num":3,"R_den":10,"correct_side":1,"subjID":"Martinmarulanda17","gender":"0","school":"4","age":"9"},{"start_time":1552308353930,"click_time":1552308355959,"finger_time":1552308355599,"fix_duration":750.715380148546,"trial":11,"RT":1669,"MT":360,"sideResp":1,"stimulus":[],"xmouse":[785,785,785,784,784,784,784,784,784,784,784,784,784,784,784,784,784,784,784,784,784,784,784,784,785,787,792,794,794,794,794,796,796,796,796,796,796,796,796,796,796,796,796,796,796,796,796,796,796,796,796,796,796,796,796,796,796,796,796,796,796,796,796,796,796,798,798,798,798,798,798,798,798,799,800,800,800,800,800,800,800,800,795,755,683,600,477,445,439,437,437,436,434,433,433,433,433,433,433,435,438,454],"ymouse":[473,475,479,482,483,485,492,495,500,505,510,514,514,514,514,514,514,514,514,513,512,511,511,511,508,505,483,478,478,478,476,471,471,471,471,471,471,471,471,471,471,471,471,471,471,471,471,471,471,471,471,471,471,471,471,471,471,471,471,471,471,471,471,471,471,470,470,470,469,469,469,469,469,469,469,469,469,469,469,469,469,469,462,435,392,342,257,229,223,219,215,209,202,196,190,184,173,168,166,158,147,97],"timestamp_mouse":[9,29,57,70,89,109,129,150,169,189,209,230,249,269,290,309,329,349,370,390,410,429,449,470,489,509,529,551,570,589,609,629,649,670,690,709,730,749,769,789,810,831,850,869,890,910,930,949,969,989,1012,1030,1050,1069,1090,1111,1130,1149,1169,1189,1210,1230,1250,1269,1289,1309,1329,1349,1369,1390,1410,1429,1450,1469,1489,1510,1530,1549,1569,1589,1609,1630,1651,1669,1690,1710,1730,1750,1769,1789,1811,1829,1849,1869,1889,1909,1929,1950,1970,1990,2010,2029],"xSR":741.5,"ySR":449.15000000000003,"xT1":424.9,"yT1":0,"xT2":1058.1,"yT2":0,"toosoon":0,"cond_shown":"Incongruent","ratio_trial":300,"L_num":1,"L_den":2,"R_num":2,"R_den":10,"correct_side":1,"subjID":"Martinmarulanda17","gender":"0","school":"4","age":"9"},{"start_time":1552308359149,"click_time":1552308361580,"finger_time":1552308360859,"fix_duration":488.20064257290306,"trial":12,"RT":1710,"MT":721,"sideResp":1,"stimulus":[],"xmouse":[792,792,792,792,792,793,794,795,795,795,795,795,795,795,796,796,796,796,796,797,797,797,797,797,797,797,797,797,797,797,797,797,797,797,797,797,797,797,797,797,797,797,797,797,797,797,797,797,797,797,797,797,797,797,797,797,797,797,797,797,797,797,797,797,801,804,806,808,809,810,811,811,811,811,811,811,811,811,811,811,811,811,811,811,812,813,814,815,816,817,817,817,817,817,817,816,812,803,781,733,560,476,409,368,354,334,330,312,306,305,304,304,304,304,304,304,304,304,304,312,358,436],"ymouse":[461,461,461,461,462,466,467,468,469,469,469,469,469,469,469,469,469,469,469,470,470,470,470,470,471,473,473,474,474,474,474,474,474,474,474,474,474,474,474,474,474,474,474,474,474,474,474,474,474,474,474,474,474,474,474,474,474,474,474,474,474,474,473,471,466,462,459,455,454,453,452,452,452,452,452,452,452,452,452,452,452,452,452,452,450,448,445,443,439,437,431,428,426,424,423,416,406,393,368,331,219,162,117,83,68,44,38,17,11,9,8,8,8,8,8,8,8,8,8,8,28,61],"timestamp_mouse":[12,39,50,72,92,110,130,151,170,190,210,231,250,271,291,311,330,351,370,390,410,431,451,471,490,511,531,550,570,590,610,630,650,671,691,710,730,750,771,791,811,831,850,870,891,910,930,950,970,991,1010,1031,1051,1070,1090,1111,1130,1150,1170,1190,1211,1230,1250,1271,1291,1310,1330,1350,1370,1390,1412,1432,1451,1470,1491,1511,1531,1551,1570,1592,1610,1631,1650,1670,1690,1710,1730,1750,1770,1790,1811,1830,1850,1870,1890,1910,1931,1950,1972,1991,2011,2030,2050,2070,2090,2110,2130,2150,2170,2190,2210,2230,2250,2270,2290,2311,2331,2351,2371,2390,2411,2430],"xSR":741.5,"ySR":449.15000000000003,"xT1":424.9,"yT1":0,"xT2":1058.1,"yT2":0,"toosoon":0,"cond_shown":"Congruent","ratio_trial":200,"L_num":8,"L_den":15,"R_num":2,"R_den":6,"correct_side":1,"subjID":"Martinmarulanda17","gender":"0","school":"4","age":"9"},{"start_time":1552308365427,"click_time":1552308367760,"finger_time":1552308366859,"fix_duration":1446.8908890801858,"trial":13,"RT":1432,"MT":901,"sideResp":1,"stimulus":[],"xmouse":[800,800,800,800,800,800,800,800,800,800,800,800,800,800,800,800,800,800,800,800,800,800,800,800,800,800,800,800,800,800,800,800,800,800,800,800,800,800,800,800,800,800,800,800,800,800,800,800,800,800,800,800,800,800,800,800,800,800,800,800,800,800,800,800,800,800,800,800,800,790,783,704,660,626,609,591,584,577,572,566,556,541,540,540,540,540,528,520,508,500,498,502,506,510,512,514,515,515,516,516,516,516,514,513,511,510,507,506,506,506,506,506,506,506,506,506,506],"ymouse":[499,499,499,499,499,499,499,499,499,499,499,499,499,499,499,499,499,499,499,499,499,499,499,499,499,499,499,499,499,499,499,499,499,499,499,499,499,499,499,499,499,499,499,499,499,499,499,499,499,499,499,499,499,499,499,499,499,499,499,499,499,499,499,499,499,499,499,499,499,466,451,378,347,320,303,269,259,247,239,229,219,210,210,209,207,202,185,176,166,159,155,153,152,150,149,148,147,145,144,140,137,130,126,124,121,119,113,112,112,112,110,107,107,106,104,103,97],"timestamp_mouse":[12,37,52,73,93,112,132,153,173,193,213,233,254,273,292,312,333,353,373,392,412,432,452,474,493,512,533,553,573,593,613,633,652,672,692,713,733,752,772,792,813,832,852,872,892,912,933,952,972,993,1013,1033,1054,1073,1093,1112,1132,1152,1172,1192,1213,1233,1253,1273,1293,1312,1333,1353,1373,1393,1413,1432,1454,1473,1494,1514,1532,1553,1572,1592,1613,1633,1652,1672,1692,1713,1733,1753,1772,1792,1812,1832,1853,1873,1893,1912,1932,1952,1972,1992,2014,2033,2053,2073,2092,2112,2133,2152,2172,2192,2213,2232,2252,2273,2293,2314,2333],"xSR":741.5,"ySR":449.15000000000003,"xT1":424.9,"yT1":0,"xT2":1058.1,"yT2":0,"toosoon":0,"cond_shown":"Incongruent","ratio_trial":200,"L_num":3,"L_den":4,"R_num":11,"R_den":20,"correct_side":1,"subjID":"Martinmarulanda17","gender":"0","school":"4","age":"9"},{"start_time":1552308369834,"click_time":1552308372419,"finger_time":1552308371320,"fix_duration":913.2924571073465,"trial":14,"RT":1486,"MT":1099,"sideResp":2,"stimulus":[],"xmouse":[779,779,779,779,779,779,779,779,779,779,779,779,779,779,779,779,779,779,779,779,779,779,779,779,779,779,779,779,779,779,779,779,779,779,779,779,779,779,779,779,779,779,779,779,779,779,779,779,779,779,779,779,779,779,779,779,779,779,779,779,779,779,779,779,779,779,779,779,779,779,779,784,788,796,802,825,834,837,845,859,874,922,930,945,953,957,969,976,983,989,990,990,990,991,991,991,991,991,991,991,991,991,991,991,991,991,991,991,991,993,1012,1143,1197,1223,1236,1239,1234,1234,1234,1234,1234,1234,1234,1234,1234,1234,1234,1234,1234,1100],"ymouse":[501,501,501,501,501,501,501,501,501,501,501,501,501,501,501,501,501,501,501,501,501,501,501,501,501,501,501,501,501,501,501,501,501,501,501,501,501,501,501,501,501,501,501,501,501,501,501,501,501,501,501,501,501,501,501,501,501,501,501,501,501,501,501,501,501,501,501,501,501,501,501,494,486,463,442,351,318,291,269,253,249,236,233,224,219,215,208,204,201,199,198,198,198,197,195,195,195,195,195,195,195,195,195,195,195,195,195,195,194,192,187,133,112,94,73,48,11,11,11,11,11,11,11,11,11,11,11,11,11,4],"timestamp_mouse":[10,25,45,65,85,105,125,145,165,186,207,225,245,266,287,307,326,345,365,385,405,425,445,466,486,507,526,546,565,585,605,626,645,665,686,705,726,746,765,785,805,826,846,866,885,906,925,946,966,985,1006,1025,1045,1065,1085,1105,1126,1147,1165,1185,1205,1226,1245,1266,1286,1306,1325,1345,1367,1386,1405,1425,1445,1466,1486,1507,1525,1545,1565,1585,1605,1625,1645,1666,1686,1706,1726,1745,1765,1786,1806,1826,1846,1865,1886,1905,1925,1945,1966,1985,2005,2026,2046,2065,2085,2105,2125,2145,2165,2185,2206,2226,2245,2266,2285,2305,2325,2346,2365,2385,2405,2426,2445,2465,2485,2505,2526,2545,2565,2585],"xSR":741.5,"ySR":449.15000000000003,"xT1":424.9,"yT1":0,"xT2":1058.1,"yT2":0,"toosoon":0,"cond_shown":"Incongruent","ratio_trial":100,"L_num":8,"L_den":16,"R_num":6,"R_den":10,"correct_side":2,"subjID":"Martinmarulanda17","gender":"0","school":"4","age":"9"},{"start_time":1552308373954,"click_time":1552308375460,"finger_time":1552308375079,"fix_duration":393.1381503153861,"trial":15,"RT":1125,"MT":381,"sideResp":2,"stimulus":[],"xmouse":[789,789,789,789,789,789,789,789,789,789,789,789,789,789,789,789,789,789,789,789,789,789,789,789,790,793,793,797,799,799,799,799,799,799,799,799,799,799,799,799,799,799,799,799,799,799,799,799,799,799,799,799,799,799,803,818,838,851,868,883,893,897,904,916,932,944,944,944,944,944,944,944,944,944,944,1104],"ymouse":[518,518,518,518,518,518,518,518,518,518,518,518,518,518,518,518,518,518,518,518,518,518,519,520,521,521,522,524,524,524,524,524,524,524,524,524,524,524,524,524,524,524,524,524,524,524,524,524,524,524,524,524,524,524,516,467,413,369,324,277,207,186,151,111,59,3,3,3,3,3,3,3,3,3,3,37],"timestamp_mouse":[12,33,45,65,85,105,125,146,165,185,205,225,245,266,285,305,325,346,367,386,405,425,445,465,485,505,525,546,566,586,605,627,647,665,685,705,725,745,766,785,805,825,846,866,887,905,925,946,966,985,1005,1026,1046,1065,1086,1106,1125,1145,1165,1186,1205,1225,1245,1266,1286,1305,1325,1345,1365,1385,1405,1425,1446,1466,1486,1505],"xSR":741.5,"ySR":449.15000000000003,"xT1":424.9,"yT1":0,"xT2":1058.1,"yT2":0,"toosoon":0,"cond_shown":"Incongruent","ratio_trial":300,"L_num":13,"L_den":26,"R_num":12,"R_den":15,"correct_side":2,"subjID":"Martinmarulanda17","gender":"0","school":"4","age":"9"},{"start_time":1552308376986,"click_time":1552308378920,"finger_time":1552308378520,"fix_duration":443.4756117088492,"trial":16,"RT":1534,"MT":400,"sideResp":1,"stimulus":[],"xmouse":[746,746,746,746,746,746,746,746,746,746,746,746,746,746,747,747,747,748,748,748,748,749,749,749,749,749,749,749,749,749,749,749,749,750,750,750,750,750,750,750,750,751,752,753,753,753,753,753,753,753,753,753,753,754,754,755,755,756,756,756,756,756,756,756,756,756,756,756,756,756,756,756,756,757,758,763,763,757,742,734,726,719,711,679,663,649,632,601,498,459,435,426,424,423,423,425,429],"ymouse":[534,535,535,535,535,535,535,535,535,535,535,535,535,535,535,535,535,535,535,535,535,536,536,536,536,536,536,536,536,536,536,536,536,536,536,536,536,536,536,536,536,536,537,537,537,537,537,537,537,537,537,537,537,538,538,538,538,539,539,539,539,539,539,539,539,539,539,539,539,539,539,539,539,538,524,463,435,412,367,347,330,317,304,267,250,238,225,208,162,143,130,125,123,118,113,103,87],"timestamp_mouse":[14,34,54,73,93,113,133,153,173,194,213,233,253,273,294,314,333,353,373,394,413,433,453,473,494,513,534,553,573,593,613,634,653,674,693,713,733,754,773,793,813,834,854,874,893,913,933,954,973,993,1013,1034,1054,1073,1093,1114,1133,1153,1174,1194,1214,1234,1253,1274,1294,1313,1333,1354,1374,1394,1413,1433,1453,1473,1494,1513,1534,1554,1574,1593,1614,1633,1654,1673,1695,1713,1733,1753,1773,1793,1813,1833,1853,1873,1893,1913,1933],"xSR":741.5,"ySR":449.15000000000003,"xT1":424.9,"yT1":0,"xT2":1058.1,"yT2":0,"toosoon":0,"cond_shown":"Congruent","ratio_trial":200,"L_num":20,"L_den":25,"R_num":9,"R_den":15,"correct_side":1,"subjID":"Martinmarulanda17","gender":"0","school":"4","age":"9"},{"start_time":1552308380513,"click_time":1552308382581,"finger_time":1552308381619,"fix_duration":792.8519658088467,"trial":17,"RT":1106,"MT":962,"sideResp":2,"stimulus":[],"xmouse":[812,812,812,812,812,812,812,812,812,812,812,812,812,812,812,812,812,812,812,812,812,812,812,812,812,812,812,812,812,812,812,812,812,812,812,812,812,812,812,812,812,812,812,812,812,812,812,812,812,812,812,812,812,826,838,861,883,917,935,942,947,951,957,962,964,969,973,979,983,993,1007,1021,1038,1047,1060,1076,1089,1096,1096,1096,1096,1097,1099,1100,1101,1103,1106,1182,1235,1267,1272,1274,1276,1277,1277,1277,1275,1263,1249,1231,1221,1212,1173,1140],"ymouse":[517,517,517,517,517,517,517,517,517,517,517,517,517,517,517,517,517,517,517,517,517,517,517,517,517,517,517,517,517,517,517,517,517,517,517,517,517,517,517,517,517,517,517,517,517,517,517,517,517,517,517,517,517,483,465,425,385,309,270,253,242,233,218,209,204,196,189,181,177,172,170,168,166,165,164,161,159,157,156,156,156,156,155,154,152,151,146,122,111,104,101,99,93,88,83,78,73,66,62,56,54,53,50,46],"timestamp_mouse":[18,35,46,66,86,106,127,147,167,186,207,226,247,266,286,307,326,347,367,386,407,426,446,466,487,506,526,547,566,586,607,626,646,667,686,706,726,746,766,786,807,826,846,867,888,906,926,947,967,986,1008,1027,1046,1066,1086,1106,1127,1146,1167,1187,1207,1226,1247,1266,1287,1307,1327,1347,1366,1386,1406,1426,1446,1467,1486,1506,1526,1546,1566,1586,1606,1626,1647,1666,1686,1706,1726,1746,1766,1787,1806,1826,1847,1866,1887,1906,1926,1946,1967,1986,2006,2026,2046,2067],"xSR":741.5,"ySR":449.15000000000003,"xT1":424.9,"yT1":0,"xT2":1058.1,"yT2":0,"toosoon":0,"cond_shown":"Incongruent","ratio_trial":200,"L_num":7,"L_den":15,"R_num":6,"R_den":9,"correct_side":2,"subjID":"Martinmarulanda17","gender":"0","school":"4","age":"9"},{"start_time":1552308385182,"click_time":1552308388860,"finger_time":1552308387399,"fix_duration":1281.6656983428877,"trial":18,"RT":2217,"MT":1461,"sideResp":1,"stimulus":[],"xmouse":[768,768,768,768,768,768,768,768,768,768,768,769,770,774,775,777,778,778,778,778,778,778,778,778,778,778,778,778,778,778,778,778,778,778,778,778,778,778,778,778,778,778,778,778,778,778,778,778,778,778,778,778,778,778,778,778,778,778,778,778,778,778,778,778,778,778,779,780,781,781,782,783,786,791,792,792,792,792,792,792,792,792,792,792,792,792,792,792,792,792,792,792,792,792,792,792,792,792,792,792,792,792,792,792,792,792,792,789,782,775,766,757,745,727,720,720,720,720,720,720,720,720,720,720,720,720,720,720,720,720,720,720,720,720,720,724,728,733,747,755,762,768,772,780,782,786,788,789,791,792,792,792,792,792,792,792,792,792,792,792,792,792,791,782,756,724,688,648,602,596,594,593,592,590,589,586,583,576,558,549,539,528,515,491],"ymouse":[495,495,495,495,495,495,495,495,495,495,495,497,497,499,499,500,500,501,501,501,501,501,501,501,501,501,501,501,501,501,501,501,501,501,501,501,501,501,501,501,501,501,501,501,501,501,501,501,501,501,501,501,501,501,501,501,501,501,501,501,501,501,501,501,501,501,501,501,501,501,501,502,502,504,504,504,504,504,504,504,504,504,504,504,504,504,504,504,504,504,504,504,504,504,504,504,504,504,504,504,504,504,504,504,504,504,504,502,488,469,445,424,405,374,359,357,356,355,353,352,351,351,351,351,351,351,351,351,351,351,351,351,351,351,351,358,369,380,407,421,434,446,454,468,472,479,482,484,487,490,491,492,492,492,492,492,492,492,492,492,492,494,494,487,451,404,364,316,259,244,238,235,229,221,214,207,201,190,162,149,137,125,113,84],"timestamp_mouse":[18,40,59,78,98,118,138,157,177,198,218,237,257,277,298,317,338,359,377,397,417,437,459,477,497,518,539,558,577,597,618,638,658,678,697,719,738,758,777,797,818,837,857,878,899,918,937,957,977,999,1018,1038,1058,1077,1098,1118,1138,1158,1179,1197,1218,1239,1258,1277,1297,1318,1337,1357,1378,1398,1418,1437,1457,1477,1499,1518,1538,1557,1578,1598,1617,1637,1657,1677,1697,1717,1737,1757,1777,1798,1817,1837,1857,1878,1898,1917,1937,1957,1977,1998,2017,2037,2057,2078,2098,2119,2139,2158,2178,2197,2217,2238,2259,2278,2298,2317,2337,2357,2377,2397,2418,2438,2457,2478,2498,2518,2538,2557,2577,2597,2617,2638,2658,2678,2698,2718,2738,2757,2777,2798,2817,2837,2858,2877,2897,2917,2937,2957,2978,2998,3018,3038,3058,3077,3097,3118,3137,3158,3178,3197,3217,3238,3257,3278,3298,3317,3337,3357,3377,3399,3417,3437,3460,3477,3498,3517,3537,3557,3578,3597,3617,3637,3657,3677],"xSR":741.5,"ySR":449.15000000000003,"xT1":424.9,"yT1":0,"xT2":1058.1,"yT2":0,"toosoon":0,"cond_shown":"Congruent","ratio_trial":100,"L_num":3,"L_den":20,"R_num":4,"R_den":16,"correct_side":2,"subjID":"Martinmarulanda17","gender":"0","school":"4","age":"9"},{"start_time":1552308390313,"click_time":1552308392459,"finger_time":1552308392119,"fix_duration":612.3424545587241,"trial":19,"RT":1806,"MT":340,"sideResp":1,"stimulus":[],"xmouse":[807,807,807,807,807,807,807,807,807,808,808,808,808,808,808,808,808,808,808,808,808,808,808,808,808,808,808,808,808,808,808,808,808,808,808,808,808,808,808,808,808,808,808,808,808,808,808,808,808,808,809,811,814,816,817,819,821,825,825,825,826,827,830,830,830,830,830,830,830,830,830,830,830,830,830,830,830,830,830,830,830,830,830,830,830,830,830,830,830,825,818,808,782,764,752,742,736,723,717,712,707,705,699,688,668,641,599,493],"ymouse":[503,503,503,503,503,503,503,503,503,503,503,503,503,503,503,503,503,503,503,503,503,503,503,503,503,503,503,503,503,503,503,503,503,503,503,503,503,503,503,503,503,503,503,503,503,503,503,503,503,503,503,503,503,503,504,504,504,504,504,504,504,504,504,504,504,504,504,504,504,504,504,504,504,504,504,504,504,504,504,504,504,504,504,504,504,504,504,500,482,463,444,421,357,312,271,235,213,178,165,154,147,143,137,132,127,120,113,83],"timestamp_mouse":[11,31,48,66,86,106,127,146,167,186,207,227,247,266,286,306,327,347,368,386,407,427,446,466,487,507,527,547,567,586,606,626,647,666,687,707,726,746,766,787,806,826,847,868,886,907,926,947,967,986,1007,1028,1046,1066,1086,1106,1127,1146,1167,1187,1207,1227,1247,1266,1287,1307,1327,1346,1367,1386,1407,1426,1446,1467,1488,1506,1526,1547,1567,1586,1607,1626,1647,1666,1686,1706,1726,1746,1768,1786,1806,1826,1847,1866,1886,1906,1927,1946,1966,1986,2008,2027,2047,2066,2086,2107,2127,2146],"xSR":741.5,"ySR":449.15000000000003,"xT1":424.9,"yT1":0,"xT2":1058.1,"yT2":0,"toosoon":0,"cond_shown":"Congruent","ratio_trial":100,"L_num":3,"L_den":6,"R_num":2,"R_den":5,"correct_side":1,"subjID":"Martinmarulanda17","gender":"0","school":"4","age":"9"},{"start_time":1552308393757,"click_time":1552308396460,"finger_time":1552308395299,"fix_duration":296.4676921127305,"trial":20,"RT":1542,"MT":1161,"sideResp":1,"stimulus":[],"xmouse":[772,772,772,772,772,772,772,772,772,772,772,772,772,772,772,772,772,772,772,772,772,772,772,772,772,772,772,773,773,774,774,774,774,775,775,775,775,775,775,775,775,775,775,775,775,775,775,775,775,775,775,775,775,775,774,773,772,771,771,771,771,770,770,769,767,765,763,762,761,760,759,759,757,756,755,751,749,740,724,697,653,643,635,626,613,564,552,527,521,520,520,520,520,520,520,520,522,529,537,544,546,546,546,547,547,548,548,548,548,548,548,548,548,548,548,548,548,548,548,548,548,548,548,544,537,518,501,488,478,469,460,457,455,453,452,452],"ymouse":[452,452,452,452,452,452,452,452,452,452,452,452,452,452,452,452,452,452,452,452,452,452,452,452,452,452,457,459,460,462,462,462,462,462,463,465,466,466,466,466,466,466,466,466,466,466,466,466,466,466,466,466,466,467,470,474,475,477,477,478,478,479,479,479,480,481,481,481,481,481,481,481,481,481,481,481,478,468,453,436,418,413,406,396,380,338,330,315,311,311,311,311,311,311,311,311,318,334,346,354,358,358,358,359,359,359,359,359,359,359,359,359,359,359,359,359,359,359,359,359,359,359,354,334,308,243,197,174,160,146,129,122,116,111,105,87],"timestamp_mouse":[9,23,43,65,82,102,123,144,162,183,202,222,242,262,282,302,323,343,363,384,403,423,442,462,482,502,522,542,563,584,603,622,642,662,683,703,723,742,762,782,802,822,842,863,884,902,922,943,963,983,1002,1023,1042,1062,1082,1102,1122,1143,1162,1182,1202,1223,1243,1262,1283,1303,1322,1342,1363,1383,1403,1422,1442,1462,1482,1502,1522,1542,1562,1582,1602,1623,1643,1662,1682,1702,1722,1742,1763,1783,1802,1822,1843,1863,1883,1902,1923,1942,1963,1983,2003,2022,2042,2062,2083,2102,2123,2144,2163,2183,2203,2224,2243,2262,2283,2303,2323,2342,2363,2383,2403,2423,2443,2462,2482,2503,2523,2542,2562,2583,2602,2623,2642,2662,2682,2702],"xSR":741.5,"ySR":449.15000000000003,"xT1":424.9,"yT1":0,"xT2":1058.1,"yT2":0,"toosoon":0,"cond_shown":"Congruent","ratio_trial":200,"L_num":4,"L_den":10,"R_num":3,"R_den":15,"correct_side":1,"subjID":"Martinmarulanda17","gender":"0","school":"4","age":"9"},{"start_time":1552308400325,"click_time":1552308402120,"finger_time":1552308401660,"fix_duration":1204.8772560425882,"trial":21,"RT":1335,"MT":460,"sideResp":1,"stimulus":[],"xmouse":[825,825,825,825,825,825,825,825,825,825,825,825,825,825,825,825,825,825,825,825,825,825,825,825,825,825,825,825,825,825,825,825,825,825,825,825,825,825,825,825,825,825,825,825,825,825,825,825,825,825,825,825,825,825,825,825,825,825,825,825,824,823,823,823,822,815,773,702,642,601,568,540,538,534,530,523,515,513,513,513,513,513,513,513,513,510,487,475,450,442],"ymouse":[503,503,503,503,503,503,502,500,500,500,500,500,500,500,500,500,500,500,500,500,500,500,500,500,500,500,500,500,500,500,500,500,500,500,500,500,500,500,500,500,500,500,500,500,500,500,500,500,500,500,500,500,500,500,500,500,500,500,499,499,498,498,498,498,497,483,431,380,351,332,316,298,291,282,273,261,242,236,234,233,231,225,220,216,212,205,169,150,109,96],"timestamp_mouse":[24,35,62,76,95,115,134,154,175,195,214,235,255,274,294,314,334,355,375,394,416,435,456,475,494,514,535,554,574,594,614,635,655,676,694,714,734,754,775,795,814,834,854,875,895,914,934,955,974,994,1014,1035,1054,1075,1096,1116,1134,1154,1174,1195,1215,1234,1254,1274,1294,1314,1334,1355,1374,1395,1414,1434,1455,1475,1494,1514,1535,1555,1574,1594,1614,1635,1655,1675,1694,1715,1734,1754,1774,1795],"xSR":741.5,"ySR":449.15000000000003,"xT1":424.9,"yT1":0,"xT2":1058.1,"yT2":0,"toosoon":0,"cond_shown":"Congruent","ratio_trial":300,"L_num":20,"L_den":25,"R_num":5,"R_den":10,"correct_side":1,"subjID":"Martinmarulanda17","gender":"0","school":"4","age":"9"},{"start_time":1552308403766,"click_time":1552308405300,"finger_time":1552308404859,"fix_duration":726.225563754315,"trial":22,"RT":1093,"MT":441,"sideResp":2,"stimulus":[],"xmouse":[762,762,762,762,762,762,762,762,762,762,762,762,762,762,762,762,762,762,762,762,762,762,762,762,762,762,762,762,762,762,762,762,762,762,762,762,762,762,763,763,763,763,763,763,765,765,765,765,765,765,765,765,769,774,792,799,811,814,814,814,814,814,814,814,814,814,818,834,886,919,947,967,984,1005,1074,1104,1142],"ymouse":[472,472,472,472,472,472,472,472,472,472,472,472,472,472,472,472,472,472,472,472,472,472,472,472,472,472,472,472,472,472,472,472,472,472,472,472,472,472,472,472,472,472,472,472,472,472,472,472,472,472,472,472,471,464,438,431,421,419,419,419,419,419,419,419,419,419,418,406,369,345,326,312,298,278,190,144,94],"timestamp_mouse":[13,41,54,75,94,114,134,153,174,194,215,235,254,273,294,314,334,354,374,394,414,435,453,473,493,513,533,553,573,593,613,633,654,675,693,715,734,753,773,793,813,834,854,875,893,913,935,955,973,993,1013,1033,1054,1073,1093,1113,1134,1155,1174,1193,1213,1233,1253,1273,1293,1314,1334,1354,1376,1393,1413,1433,1454,1473,1493,1514,1534],"xSR":741.5,"ySR":449.15000000000003,"xT1":424.9,"yT1":0,"xT2":1058.1,"yT2":0,"toosoon":0,"cond_shown":"Incongruent","ratio_trial":200,"L_num":14,"L_den":30,"R_num":12,"R_den":18,"correct_side":2,"subjID":"Martinmarulanda17","gender":"0","school":"4","age":"9"},{"start_time":1552308407168,"click_time":1552308409020,"finger_time":1552308408699,"fix_duration":707.2071090005446,"trial":23,"RT":1531,"MT":321,"sideResp":1,"stimulus":[],"xmouse":[778,778,779,780,780,780,780,780,780,780,780,780,780,780,780,780,780,780,780,780,780,780,780,780,780,781,781,781,782,783,783,783,783,783,783,783,783,783,783,783,783,783,783,783,783,783,783,783,783,783,783,783,783,783,783,783,783,783,783,783,783,783,783,783,783,783,784,784,784,784,784,784,784,784,779,771,769,769,769,763,754,742,730,715,662,644,578,530,488,446,440,439,438],"ymouse":[529,529,530,530,530,530,531,531,531,531,531,531,531,531,531,531,531,531,531,531,531,531,531,531,531,531,531,531,531,531,531,531,531,531,531,531,531,531,531,531,531,531,531,531,531,531,531,531,531,531,531,531,531,531,531,531,531,531,531,531,531,531,531,531,531,531,532,532,532,532,532,532,531,522,483,450,428,405,380,333,315,297,284,270,237,227,192,165,141,114,109,104,99],"timestamp_mouse":[12,36,51,72,91,111,131,151,171,191,211,232,251,271,292,313,331,352,371,391,413,432,452,473,492,511,532,552,572,592,611,633,652,672,691,712,731,751,772,791,811,833,852,872,891,911,933,951,971,992,1013,1033,1051,1071,1091,1112,1132,1151,1171,1191,1211,1232,1251,1271,1293,1311,1331,1352,1372,1392,1411,1432,1452,1472,1492,1511,1531,1551,1571,1592,1612,1631,1651,1672,1692,1711,1731,1752,1772,1791,1812,1832,1852],"xSR":741.5,"ySR":449.15000000000003,"xT1":424.9,"yT1":0,"xT2":1058.1,"yT2":0,"toosoon":0,"cond_shown":"Incongruent","ratio_trial":100,"L_num":12,"L_den":24,"R_num":9,"R_den":15,"correct_side":2,"subjID":"Martinmarulanda17","gender":"0","school":"4","age":"9"},{"start_time":1552308411730,"click_time":1552308413120,"finger_time":1552308412759,"fix_duration":910.6955399183199,"trial":24,"RT":1029,"MT":361,"sideResp":2,"stimulus":[],"xmouse":[784,785,786,786,786,787,787,788,791,794,796,797,797,797,797,797,797,797,797,797,797,797,797,797,797,797,797,797,797,797,797,797,797,797,797,797,797,797,797,797,797,797,797,797,797,797,797,797,800,806,816,862,905,940,961,971,975,976,975,975,976,986,1004,1017,1027,1034,1046,1056,1074,1097],"ymouse":[516,516,516,516,516,516,516,516,515,511,508,506,506,506,506,506,506,506,506,506,506,506,506,506,506,506,506,506,506,506,506,506,506,506,506,506,506,506,506,506,506,506,506,506,506,506,506,506,497,488,469,432,421,418,418,418,417,416,412,405,398,365,325,288,264,243,202,169,134,85],"timestamp_mouse":[10,40,49,69,89,110,130,149,169,189,210,230,250,270,290,310,330,350,371,389,409,430,450,469,489,509,529,550,569,589,611,630,650,669,690,710,730,749,769,791,810,830,849,870,890,910,929,949,969,989,1009,1029,1049,1069,1089,1109,1130,1149,1169,1189,1209,1229,1249,1270,1290,1310,1330,1350,1369,1390],"xSR":741.5,"ySR":449.15000000000003,"xT1":424.9,"yT1":0,"xT2":1058.1,"yT2":0,"toosoon":0,"cond_shown":"Congruent","ratio_trial":200,"L_num":6,"L_den":20,"R_num":11,"R_den":22,"correct_side":2,"subjID":"Martinmarulanda17","gender":"0","school":"4","age":"9"},{"start_time":1552308415025,"click_time":1552308416681,"finger_time":1552308415900,"fix_duration":964.9791024376588,"trial":25,"RT":875,"MT":781,"sideResp":1,"stimulus":[],"xmouse":[782,782,782,782,782,782,782,782,782,782,782,782,782,782,782,782,782,782,782,782,782,782,782,782,782,782,782,782,782,782,782,782,782,782,782,782,782,782,782,782,782,782,782,781,774,768,758,754,750,748,745,740,736,732,724,713,685,671,662,655,649,643,643,642,641,640,636,630,620,604,559,541,524,506,497,488,478,478,477,477,477,477,477],"ymouse":[502,502,502,502,502,502,502,502,502,502,502,502,502,502,502,502,502,502,502,502,502,502,502,502,502,502,502,502,502,502,502,502,502,502,502,502,502,502,502,502,502,477,463,425,402,378,340,327,316,306,297,277,263,248,230,210,174,158,146,135,127,115,115,114,113,112,109,109,108,108,108,108,108,108,108,106,105,105,104,104,104,103,95],"timestamp_mouse":[16,40,54,74,94,114,134,154,174,195,216,235,255,275,294,315,335,355,375,394,415,435,455,474,494,515,535,555,574,594,615,635,655,674,696,715,735,756,775,794,814,834,854,875,894,914,934,955,976,995,1014,1034,1054,1074,1095,1114,1134,1155,1175,1195,1214,1234,1254,1274,1294,1315,1335,1355,1375,1395,1417,1434,1455,1474,1494,1515,1535,1554,1574,1595,1615,1634,1655],"xSR":741.5,"ySR":449.15000000000003,"xT1":424.9,"yT1":0,"xT2":1058.1,"yT2":0,"toosoon":0,"cond_shown":"Incongruent","ratio_trial":100,"L_num":11,"L_den":22,"R_num":9,"R_den":15,"correct_side":2,"subjID":"Martinmarulanda17","gender":"0","school":"4","age":"9"},{"start_time":1552308419054,"click_time":1552308420260,"finger_time":1552308420120,"fix_duration":1053.9380097848655,"trial":26,"RT":1066,"MT":140,"sideResp":1,"stimulus":[],"xmouse":[798,798,798,798,798,798,798,798,798,798,798,798,798,798,798,798,799,799,800,800,800,800,800,800,800,800,800,800,800,800,800,800,800,800,800,800,800,800,800,800,800,800,800,800,800,800,800,800,800,800,800,800,798,772,738,655,606,556,525,506,484],"ymouse":[494,494,494,494,494,494,494,494,494,494,494,494,494,494,494,494,494,494,494,494,494,494,494,494,494,494,494,494,494,494,494,494,494,494,494,494,494,494,494,494,494,494,494,494,494,494,494,494,494,494,494,494,486,448,394,274,218,172,146,128,95],"timestamp_mouse":[9,37,45,65,85,105,126,146,166,186,207,226,246,265,285,305,325,345,365,386,405,426,446,466,485,506,527,546,565,586,606,625,645,667,685,705,726,746,765,785,805,825,845,866,885,905,925,946,967,985,1005,1025,1047,1066,1085,1105,1127,1146,1165,1186,1206],"xSR":741.5,"ySR":449.15000000000003,"xT1":424.9,"yT1":0,"xT2":1058.1,"yT2":0,"toosoon":0,"cond_shown":"Incongruent","ratio_trial":300,"L_num":4,"L_den":5,"R_num":6,"R_den":12,"correct_side":1,"subjID":"Martinmarulanda17","gender":"0","school":"4","age":"9"},{"start_time":1552308422749,"click_time":1552308424760,"finger_time":1552308424220,"fix_duration":1488.1671517492575,"trial":27,"RT":1471,"MT":540,"sideResp":2,"stimulus":[],"xmouse":[784,784,784,784,784,784,784,784,784,784,784,784,784,784,784,786,786,786,787,787,787,787,787,787,787,787,787,787,787,787,787,787,787,787,787,787,787,787,787,787,787,787,787,787,787,787,787,787,787,787,787,787,787,787,787,787,788,790,794,794,798,798,798,799,799,799,799,799,799,799,801,806,813,818,827,856,876,890,914,958,1032,1043,1045,1049,1056,1053,1045,1044,1044,1044,1046,1046,1046,1046,1046,1046,1046,1046,1047,1050,1069],"ymouse":[497,497,497,497,497,497,497,497,497,497,497,497,497,497,497,497,497,497,497,497,497,497,497,497,497,497,497,497,497,497,497,497,497,497,497,497,497,497,497,497,497,497,497,497,497,497,497,497,497,497,497,497,497,497,497,497,497,497,492,491,486,485,485,484,484,484,484,484,484,484,480,472,460,448,429,383,349,329,300,252,182,158,138,122,107,94,86,80,69,56,37,34,33,33,33,33,33,33,32,30,29],"timestamp_mouse":[10,30,50,70,91,111,130,150,170,190,211,231,252,271,292,310,330,351,371,390,410,430,451,470,490,510,530,550,571,591,611,631,651,671,691,711,731,750,770,790,810,830,850,870,890,912,930,950,970,990,1010,1031,1051,1070,1090,1111,1131,1150,1170,1190,1210,1230,1250,1271,1290,1310,1330,1350,1370,1390,1410,1431,1451,1471,1490,1510,1530,1552,1571,1590,1610,1630,1650,1670,1690,1710,1730,1750,1770,1790,1810,1830,1850,1870,1891,1911,1931,1951,1971,1990,2011],"xSR":741.5,"ySR":449.15000000000003,"xT1":424.9,"yT1":0,"xT2":1058.1,"yT2":0,"toosoon":0,"cond_shown":"Congruent","ratio_trial":100,"L_num":7,"L_den":14,"R_num":9,"R_den":15,"correct_side":2,"subjID":"Martinmarulanda17","gender":"0","school":"4","age":"9"},{"start_time":1552308427260,"click_time":1552308429019,"finger_time":1552308428479,"fix_duration":1239.4251136370276,"trial":28,"RT":1219,"MT":540,"sideResp":1,"stimulus":[],"xmouse":[752,752,752,752,752,752,752,752,752,752,752,752,752,752,752,752,752,752,752,752,752,752,752,752,752,752,752,752,752,752,752,752,752,752,752,752,752,752,752,752,752,753,753,754,755,755,756,756,756,756,756,756,756,756,756,756,756,756,756,755,750,739,716,699,673,586,529,457,389,323,268,268,268,268,268,268,268,268,268,268,268,268,268,268,268,268,268,423,434],"ymouse":[503,503,503,503,503,503,503,503,503,503,503,503,503,503,503,503,503,503,503,503,503,503,503,503,503,503,503,503,503,503,503,503,503,503,503,503,503,503,503,503,503,503,503,503,504,504,505,505,505,505,505,505,505,505,505,505,505,505,505,504,502,488,450,421,378,267,213,159,107,61,5,5,5,5,5,5,5,5,5,5,5,5,5,5,5,5,5,29,35],"timestamp_mouse":[9,35,40,59,79,100,120,139,160,181,199,220,239,259,280,300,320,340,360,379,399,420,440,461,480,499,519,539,559,579,600,619,640,660,680,700,719,741,759,780,799,819,839,859,879,900,919,940,960,980,999,1020,1040,1060,1081,1100,1123,1139,1160,1179,1199,1219,1240,1260,1281,1300,1320,1339,1360,1380,1400,1420,1439,1461,1479,1500,1519,1539,1559,1579,1601,1621,1640,1659,1680,1700,1719,1740,1759],"xSR":741.5,"ySR":449.15000000000003,"xT1":424.9,"yT1":0,"xT2":1058.1,"yT2":0,"toosoon":0,"cond_shown":"Incongruent","ratio_trial":200,"L_num":6,"L_den":20,"R_num":3,"R_den":6,"correct_side":2,"subjID":"Martinmarulanda17","gender":"0","school":"4","age":"9"},{"start_time":1552308431521,"click_time":1552308433040,"finger_time":1552308432640,"fix_duration":340.0093460097343,"trial":29,"RT":1119,"MT":400,"sideResp":1,"stimulus":[],"xmouse":[836,836,836,836,836,836,836,836,836,836,836,836,836,836,836,836,836,836,836,836,836,836,836,836,836,836,836,836,836,836,836,836,836,836,836,836,836,836,836,836,836,836,836,836,836,836,836,836,836,836,836,836,836,827,815,780,687,604,576,567,565,565,565,564,562,561,560,560,560,560,560,559,557,547,536,523],"ymouse":[523,523,523,523,523,523,523,523,523,523,523,523,523,523,523,523,523,523,523,523,523,523,523,523,523,523,523,523,523,523,523,523,523,523,523,523,523,523,523,523,523,523,523,523,523,523,523,523,523,523,523,523,523,486,450,374,222,133,109,101,96,95,93,91,87,85,84,84,84,84,84,83,83,87,88,89],"timestamp_mouse":[19,39,59,78,98,118,138,159,178,198,219,239,258,279,300,319,340,359,378,398,419,440,459,478,499,519,539,559,578,598,618,638,659,679,699,719,739,759,780,798,818,838,859,878,898,918,938,959,980,999,1019,1039,1059,1078,1098,1119,1139,1159,1179,1198,1218,1238,1258,1280,1299,1319,1338,1358,1378,1398,1419,1439,1459,1478,1498,1519],"xSR":741.5,"ySR":449.15000000000003,"xT1":424.9,"yT1":0,"xT2":1058.1,"yT2":0,"toosoon":0,"cond_shown":"Congruent","ratio_trial":100,"L_num":11,"L_den":22,"R_num":6,"R_den":15,"correct_side":1,"subjID":"Martinmarulanda17","gender":"0","school":"4","age":"9"},{"start_time":1552308436337,"click_time":1552308438139,"finger_time":1552308437681,"fix_duration":256.0184554745054,"trial":30,"RT":1344,"MT":458,"sideResp":2,"stimulus":[],"xmouse":[786,786,786,786,786,786,786,786,786,786,786,786,786,786,786,786,786,786,786,786,786,786,786,786,786,786,786,786,786,786,786,786,786,786,786,786,786,786,786,786,786,786,786,786,786,786,786,786,786,786,786,786,786,786,786,786,786,786,786,786,786,786,786,786,786,786,795,827,865,905,935,987,997,1002,1005,1006,1006,1006,1013,1015,1016,1019,1020,1022,1023,1025,1026,1030,1038,1048,1060],"ymouse":[503,503,503,503,503,503,503,503,503,503,503,503,503,503,503,503,503,503,503,503,503,503,503,503,503,503,503,503,503,503,503,503,503,503,503,503,503,503,503,503,503,503,503,503,503,503,503,503,503,503,503,503,503,503,503,503,503,503,503,503,503,503,503,503,503,503,484,437,380,323,267,168,147,133,126,124,123,122,110,106,102,89,86,81,79,78,76,74,72,70,66],"timestamp_mouse":[12,37,42,63,84,102,122,143,163,182,202,222,242,262,282,302,323,344,363,382,402,423,443,463,482,502,522,543,562,584,603,623,642,663,682,702,723,743,763,783,802,822,843,863,883,903,923,943,963,983,1002,1022,1042,1062,1082,1103,1122,1142,1162,1183,1202,1222,1243,1264,1282,1303,1323,1344,1362,1383,1402,1423,1442,1462,1482,1502,1522,1542,1562,1582,1602,1622,1643,1663,1683,1703,1723,1743,1762,1782,1802],"xSR":741.5,"ySR":449.15000000000003,"xT1":424.9,"yT1":0,"xT2":1058.1,"yT2":0,"toosoon":0,"cond_shown":"Incongruent","ratio_trial":100,"L_num":8,"L_den":20,"R_num":1,"R_den":2,"correct_side":2,"subjID":"Martinmarulanda17","gender":"0","school":"4","age":"9"},{"start_time":1552308439529,"click_time":1552308441239,"finger_time":1552308440820,"fix_duration":447.68403076017546,"trial":31,"RT":1291,"MT":419,"sideResp":2,"stimulus":[],"xmouse":[782,782,782,782,782,782,782,782,782,782,782,782,782,782,782,782,782,782,782,782,782,782,782,782,782,782,782,782,782,782,782,782,782,782,782,782,782,782,782,782,782,782,782,782,782,782,782,782,782,782,782,782,782,782,782,782,782,782,782,782,782,782,782,795,807,825,883,895,918,929,939,954,956,956,956,959,971,983,987,991,995,1010,1023,1037,1052,1064],"ymouse":[463,463,463,463,463,463,463,463,463,463,463,463,463,463,463,463,463,463,463,463,463,463,463,463,463,463,463,463,463,463,463,463,463,463,463,463,463,463,463,463,463,463,463,463,463,463,463,463,463,463,463,463,463,463,463,463,463,463,463,463,463,463,463,452,436,410,322,301,248,215,184,152,150,150,148,141,126,116,113,109,104,90,80,67,54,45],"timestamp_mouse":[13,42,50,70,91,110,130,150,171,191,210,230,250,271,290,310,330,351,370,391,410,431,450,470,490,511,530,551,571,591,610,630,651,671,692,711,730,750,770,791,811,831,851,871,890,911,932,950,970,990,1011,1032,1051,1070,1091,1112,1131,1151,1170,1191,1210,1230,1251,1270,1291,1312,1330,1350,1370,1391,1411,1431,1451,1472,1491,1512,1531,1551,1572,1592,1610,1630,1651,1670,1690,1710],"xSR":741.5,"ySR":449.15000000000003,"xT1":424.9,"yT1":0,"xT2":1058.1,"yT2":0,"toosoon":0,"cond_shown":"Incongruent","ratio_trial":300,"L_num":13,"L_den":26,"R_num":12,"R_den":15,"correct_side":2,"subjID":"Martinmarulanda17","gender":"0","school":"4","age":"9"},{"start_time":1552308443017,"click_time":1552308444920,"finger_time":1552308444281,"fix_duration":435.880812148404,"trial":32,"RT":1264,"MT":639,"sideResp":2,"stimulus":[],"xmouse":[746,746,746,746,746,746,746,746,746,746,746,746,746,746,746,746,746,746,746,746,746,746,746,746,746,746,746,746,747,747,748,748,749,750,750,751,751,751,751,751,752,752,753,753,753,754,754,756,756,756,756,756,756,756,756,758,758,758,758,758,758,759,767,779,791,811,868,900,934,957,973,982,985,985,985,985,985,985,985,985,989,996,1019,1037,1049,1054,1056,1057,1057,1057,1057,1057,1057,1057,1057,1059],"ymouse":[471,471,471,471,471,471,471,471,471,471,471,471,471,471,471,471,471,471,471,471,471,471,471,471,471,471,471,471,471,471,471,472,472,472,472,472,472,472,472,472,473,473,473,473,473,474,474,475,475,475,475,475,475,475,475,475,475,475,475,475,475,475,465,448,432,411,362,327,282,238,206,186,177,177,177,177,177,177,176,169,164,151,119,96,86,80,76,74,74,74,74,74,74,74,74,72],"timestamp_mouse":[8,23,43,63,83,102,122,144,163,183,202,222,243,263,282,302,323,342,363,382,402,422,442,464,483,503,522,542,562,583,602,622,642,663,684,703,722,742,763,783,802,822,842,863,883,903,922,943,962,983,1002,1024,1044,1063,1082,1102,1122,1142,1163,1182,1202,1223,1242,1264,1283,1302,1325,1343,1362,1382,1402,1422,1443,1463,1484,1502,1522,1542,1562,1583,1602,1622,1642,1663,1684,1702,1722,1742,1762,1782,1803,1822,1842,1862,1882,1903],"xSR":741.5,"ySR":449.15000000000003,"xT1":424.9,"yT1":0,"xT2":1058.1,"yT2":0,"toosoon":0,"cond_shown":"Incongruent","ratio_trial":300,"L_num":13,"L_den":26,"R_num":12,"R_den":15,"correct_side":2,"subjID":"Martinmarulanda17","gender":"0","school":"4","age":"9"},{"start_time":1552308446762,"click_time":1552308447979,"finger_time":1552308447480,"fix_duration":541.465643623861,"trial":33,"RT":718,"MT":499,"sideResp":1,"stimulus":[],"xmouse":[815,815,815,815,815,815,815,815,815,815,815,815,815,815,815,815,815,815,815,815,815,815,815,815,815,815,815,815,815,815,815,815,811,803,775,741,710,673,634,589,585,582,579,578,576,574,568,559,551,534,523,515,503,485,483,483,482,482,482,482,481],"ymouse":[498,498,498,498,498,498,498,498,498,498,498,498,498,498,498,498,498,498,498,498,498,498,498,498,498,498,498,498,498,498,498,498,495,489,470,441,412,381,352,318,310,301,292,285,279,272,261,249,239,223,214,206,195,183,181,177,167,156,136,100,87],"timestamp_mouse":[17,37,58,77,97,122,137,157,178,197,217,238,257,277,297,317,337,357,377,397,417,436,458,477,497,517,537,558,577,597,617,637,657,677,697,718,737,758,777,797,817,839,857,877,897,917,937,957,977,997,1017,1037,1057,1079,1096,1118,1137,1157,1177,1196,1216],"xSR":741.5,"ySR":449.15000000000003,"xT1":424.9,"yT1":0,"xT2":1058.1,"yT2":0,"toosoon":0,"cond_shown":"Congruent","ratio_trial":300,"L_num":12,"L_den":24,"R_num":2,"R_den":10,"correct_side":1,"subjID":"Martinmarulanda17","gender":"0","school":"4","age":"9"},{"start_time":1552308449522,"click_time":1552308451019,"finger_time":1552308450619,"fix_duration":660.1848723101738,"trial":34,"RT":1097,"MT":400,"sideResp":2,"stimulus":[],"xmouse":[789,789,789,789,789,789,789,789,789,789,789,789,789,789,789,789,789,789,789,789,789,789,789,789,789,789,790,790,790,790,790,790,790,790,790,790,790,790,790,790,790,790,790,790,790,790,790,790,790,790,790,790,790,799,813,829,883,903,904,904,902,896,885,875,874,874,892,926,948,961,983,1005,1032,1055,1079],"ymouse":[482,482,482,482,482,482,482,482,482,482,482,482,482,482,482,482,482,482,482,482,482,482,482,482,482,482,481,481,481,481,481,481,481,481,481,481,481,481,481,481,481,481,481,481,481,481,481,481,481,481,481,481,474,457,433,399,282,231,220,214,202,187,168,152,145,139,124,113,108,105,95,92,88,84,81],"timestamp_mouse":[18,37,57,77,97,117,137,157,178,197,217,237,258,278,298,318,337,358,377,397,418,437,457,476,497,518,537,557,577,597,617,636,657,676,698,717,737,757,777,797,817,837,857,876,897,918,937,957,977,997,1017,1037,1057,1077,1097,1117,1137,1158,1177,1197,1219,1237,1257,1277,1297,1319,1337,1357,1377,1397,1419,1438,1458,1477,1497],"xSR":741.5,"ySR":449.15000000000003,"xT1":424.9,"yT1":0,"xT2":1058.1,"yT2":0,"toosoon":0,"cond_shown":"Congruent","ratio_trial":100,"L_num":12,"L_den":30,"R_num":13,"R_den":26,"correct_side":2,"subjID":"Martinmarulanda17","gender":"0","school":"4","age":"9"},{"start_time":1552308454399,"click_time":1552308456519,"finger_time":1552308455859,"fix_duration":998.030164177629,"trial":35,"RT":1460,"MT":660,"sideResp":1,"stimulus":[],"xmouse":[790,790,790,790,790,790,790,790,790,790,790,790,790,790,790,790,790,790,790,790,790,790,790,790,790,790,790,790,788,787,786,785,785,785,785,785,785,785,785,785,785,785,785,785,785,785,785,785,785,785,785,785,785,785,785,785,785,785,785,785,785,785,785,785,785,785,785,785,785,785,785,784,770,654,498,397,335,317,322,325,325,325,325,333,340,346,349,351,353,355,357,361,365,386,399,405,408,409,411,414,417,420,421,424,424,424,426],"ymouse":[520,520,520,520,520,520,520,520,520,520,520,520,520,520,520,520,520,520,520,520,520,520,520,520,520,520,520,520,512,507,504,502,502,502,502,502,502,502,502,502,502,502,502,502,502,502,502,502,502,502,502,502,502,502,502,502,502,502,502,502,502,502,502,502,502,502,502,502,502,502,502,500,488,393,275,197,131,95,61,51,46,45,45,40,37,32,31,29,28,27,27,27,28,37,43,45,47,47,47,47,47,47,46,46,46,46,47],"timestamp_mouse":[9,20,39,61,80,100,120,140,159,180,200,220,240,261,281,300,320,339,361,380,400,420,440,460,480,500,520,540,560,581,600,620,640,660,680,701,720,740,760,781,800,820,840,860,880,900,920,939,960,980,1000,1020,1040,1060,1080,1100,1120,1140,1160,1180,1200,1220,1240,1260,1280,1300,1319,1339,1360,1381,1400,1420,1440,1460,1480,1500,1520,1540,1560,1580,1600,1619,1640,1659,1680,1700,1720,1740,1759,1780,1800,1821,1840,1859,1880,1900,1920,1940,1960,1980,2001,2021,2040,2060,2080,2100,2120],"xSR":741.5,"ySR":449.15000000000003,"xT1":424.9,"yT1":0,"xT2":1058.1,"yT2":0,"toosoon":0,"cond_shown":"Incongruent","ratio_trial":300,"L_num":7,"L_den":10,"R_num":8,"R_den":20,"correct_side":1,"subjID":"Martinmarulanda17","gender":"0","school":"4","age":"9"},{"start_time":1552308458796,"click_time":1552308461399,"finger_time":1552308460740,"fix_duration":1135.852133824825,"trial":36,"RT":1944,"MT":659,"sideResp":2,"stimulus":[],"xmouse":[798,802,804,811,814,819,822,825,825,825,825,825,825,825,825,824,823,819,814,814,814,814,814,814,814,814,814,814,814,814,814,814,814,814,814,814,814,814,814,814,814,814,814,814,814,814,814,814,814,814,814,814,814,814,814,814,814,814,814,814,814,814,814,814,814,814,814,814,814,814,814,814,814,814,814,814,814,814,812,802,788,777,774,774,774,774,774,774,774,774,774,774,775,792,803,820,837,850,862,862,862,862,862,862,862,862,862,861,853,851,846,842,840,836,834,833,832,832,832,832,832,845,856,917,971,999,1025,1051,1095,1122,1142],"ymouse":[488,490,492,494,497,499,500,502,502,502,502,502,502,502,502,503,503,504,506,506,506,506,506,506,506,506,506,506,506,506,506,506,506,506,506,506,506,506,506,506,506,506,506,506,506,506,506,506,506,506,506,506,506,506,506,506,506,506,506,506,506,506,506,506,506,506,506,506,506,506,506,506,506,506,506,506,506,506,506,503,492,483,480,480,480,480,480,480,480,480,480,479,479,480,480,474,468,460,450,449,449,449,449,449,449,449,449,449,453,456,460,463,465,470,471,472,472,472,472,472,472,449,435,358,295,259,227,197,138,106,82],"timestamp_mouse":[4,25,46,63,83,103,124,143,163,183,203,223,243,263,283,303,324,343,363,383,403,423,443,463,483,503,523,543,563,584,603,623,643,663,683,703,723,743,763,783,803,824,843,863,884,904,923,943,963,983,1003,1023,1043,1063,1084,1103,1123,1143,1163,1183,1203,1223,1243,1263,1283,1303,1323,1343,1363,1383,1403,1424,1443,1463,1483,1503,1523,1544,1563,1583,1603,1623,1643,1663,1683,1703,1723,1743,1763,1783,1804,1823,1844,1863,1884,1904,1923,1944,1963,1983,2003,2022,2043,2064,2083,2103,2123,2143,2164,2184,2203,2224,2243,2263,2283,2303,2323,2343,2363,2383,2403,2423,2445,2463,2483,2503,2523,2542,2563,2583,2602],"xSR":741.5,"ySR":449.15000000000003,"xT1":424.9,"yT1":0,"xT2":1058.1,"yT2":0,"toosoon":0,"cond_shown":"Congruent","ratio_trial":100,"L_num":6,"L_den":20,"R_num":5,"R_den":25,"correct_side":1,"subjID":"Martinmarulanda17","gender":"0","school":"4","age":"9"},{"start_time":1552308464867,"click_time":1552308466780,"finger_time":1552308466179,"fix_duration":1486.7714500447319,"trial":37,"RT":1312,"MT":601,"sideResp":1,"stimulus":[],"xmouse":[831,831,831,831,831,831,831,831,831,831,831,831,831,831,831,831,831,831,831,831,831,831,831,831,831,831,831,831,831,831,831,831,831,831,831,831,831,831,831,831,831,831,831,831,831,831,831,831,831,831,831,831,831,831,831,831,831,831,831,831,831,831,831,829,760,603,362,103,0,0,0,0,0,0,0,0,0,0,0,0,0,0,0,0,0,0,0,0,0,0,0,0,0,0,0,453],"ymouse":[513,513,513,513,513,513,513,513,513,513,513,513,513,513,513,513,513,513,513,513,513,513,513,513,513,513,513,513,513,513,513,513,513,513,513,513,513,513,513,513,513,513,513,513,513,513,513,513,513,513,513,513,513,513,513,513,513,513,513,513,513,513,513,513,480,398,273,142,18,18,18,18,18,18,18,18,18,18,18,18,18,18,18,18,18,18,18,18,18,18,18,18,18,18,18,2],"timestamp_mouse":[12,39,52,72,92,112,132,152,172,192,211,232,252,272,292,313,332,352,372,392,412,433,453,472,492,512,532,552,573,592,613,632,653,672,692,713,733,752,772,791,813,832,853,872,892,912,932,953,972,993,1012,1032,1052,1072,1092,1112,1132,1152,1172,1192,1211,1232,1252,1272,1292,1312,1332,1352,1372,1392,1412,1432,1453,1471,1493,1512,1532,1552,1571,1592,1612,1632,1652,1673,1693,1712,1732,1751,1772,1793,1813,1832,1853,1872,1892,1912],"xSR":741.5,"ySR":449.15000000000003,"xT1":424.9,"yT1":0,"xT2":1058.1,"yT2":0,"toosoon":0,"cond_shown":"Incongruent","ratio_trial":100,"L_num":6,"L_den":10,"R_num":7,"R_den":14,"correct_side":1,"subjID":"Martinmarulanda17","gender":"0","school":"4","age":"9"},{"start_time":1552308468562,"click_time":1552308470119,"finger_time":1552308469799,"fix_duration":501.63181077527565,"trial":38,"RT":1237,"MT":320,"sideResp":2,"stimulus":[],"xmouse":[775,775,775,775,775,775,775,775,775,775,775,775,775,775,775,775,775,775,775,775,775,775,775,775,775,775,775,775,775,775,775,775,775,775,775,775,775,775,775,775,775,775,775,775,775,775,775,775,775,775,775,775,780,790,803,805,805,805,807,817,833,860,892,920,954,967,980,993,1014,1078,1106,1122,1132,1138,1139,1139,1139,1139],"ymouse":[484,484,484,484,484,484,484,484,484,484,484,484,484,484,484,484,484,484,484,484,484,484,484,484,484,484,484,484,484,484,484,484,484,484,484,484,484,484,484,484,484,484,484,484,484,484,484,484,484,484,484,484,480,477,475,474,474,474,474,466,452,430,403,381,347,332,315,297,278,223,197,177,157,142,124,112,105,96],"timestamp_mouse":[17,37,58,76,97,117,137,157,177,197,217,237,257,277,297,317,337,357,377,397,417,438,457,477,497,517,537,557,578,597,617,637,657,678,697,717,737,757,777,797,818,837,857,877,897,917,938,956,977,997,1017,1038,1057,1077,1097,1117,1137,1157,1177,1197,1217,1237,1257,1277,1297,1317,1337,1358,1377,1398,1418,1437,1457,1477,1497,1518,1537,1557],"xSR":741.5,"ySR":449.15000000000003,"xT1":424.9,"yT1":0,"xT2":1058.1,"yT2":0,"toosoon":0,"cond_shown":"Congruent","ratio_trial":300,"L_num":1,"L_den":20,"R_num":7,"R_den":20,"correct_side":2,"subjID":"Martinmarulanda17","gender":"0","school":"4","age":"9"},{"start_time":1552308472119,"click_time":1552308473639,"finger_time":1552308473458,"fix_duration":818.6765561835726,"trial":39,"RT":1339,"MT":181,"sideResp":1,"stimulus":[],"xmouse":[816,815,813,810,810,810,810,810,810,810,810,810,810,810,810,810,810,810,810,810,810,810,810,810,810,810,810,810,810,810,810,810,810,810,810,810,810,810,810,810,810,810,810,810,810,810,810,810,810,810,810,810,810,810,810,810,810,810,810,810,810,810,810,810,810,810,804,734,617,536,473,453,452,451,451,451,452],"ymouse":[520,519,518,517,517,517,517,517,517,517,517,517,517,517,517,517,517,517,517,517,517,517,517,517,517,517,517,517,517,517,517,517,517,517,517,517,517,517,517,517,517,517,517,517,517,517,517,517,517,517,517,517,517,517,517,517,517,517,517,517,517,517,517,517,517,514,500,411,292,217,158,131,122,117,111,104,94],"timestamp_mouse":[1,20,41,60,80,100,120,140,160,180,200,220,240,260,280,300,320,340,360,380,400,421,440,461,480,500,520,539,561,581,600,620,640,660,680,699,720,740,760,780,800,820,840,860,880,900,920,940,961,980,1000,1021,1041,1061,1080,1100,1120,1140,1161,1180,1200,1220,1240,1261,1280,1300,1320,1339,1361,1380,1401,1422,1440,1461,1480,1500,1520],"xSR":741.5,"ySR":449.15000000000003,"xT1":424.9,"yT1":0,"xT2":1058.1,"yT2":0,"toosoon":0,"cond_shown":"Incongruent","ratio_trial":300,"L_num":1,"L_den":2,"R_num":2,"R_den":10,"correct_side":1,"subjID":"Martinmarulanda17","gender":"0","school":"4","age":"9"},{"start_time":1552308475031,"click_time":1552308476999,"finger_time":1552308476439,"fix_duration":430.24341898627796,"trial":40,"RT":1408,"MT":560,"sideResp":2,"stimulus":[],"xmouse":[761,761,761,761,761,761,761,761,761,761,761,761,761,761,761,761,761,761,761,761,761,761,761,761,761,761,761,761,761,761,761,761,761,761,761,761,761,761,761,761,761,761,761,761,761,761,761,761,761,761,761,761,761,761,761,761,761,761,761,761,761,761,761,761,761,761,761,761,761,788,807,863,897,945,966,978,995,999,1003,1005,1007,1007,1005,1002,999,996,994,996,998,998,1001,1005,1008,1008,1012,1028,1040,1052,1070],"ymouse":[482,482,482,482,482,482,482,482,482,482,482,482,482,482,482,482,482,482,482,482,482,482,482,482,482,482,482,482,482,482,482,482,482,482,482,482,482,482,482,482,482,482,482,482,482,482,482,482,482,482,482,482,482,482,482,482,482,482,482,482,482,482,482,482,482,482,482,482,482,459,446,404,380,343,323,308,273,256,241,227,211,162,145,130,117,101,75,69,64,62,54,49,46,45,45,39,38,36,35],"timestamp_mouse":[19,39,49,69,88,108,128,148,168,188,208,228,247,269,288,309,328,348,368,388,408,428,448,468,488,508,528,549,569,588,608,628,648,669,688,708,728,748,768,788,808,827,848,868,888,908,928,949,968,988,1008,1029,1049,1068,1088,1108,1128,1148,1168,1187,1208,1228,1248,1267,1288,1308,1328,1348,1368,1388,1408,1428,1448,1468,1488,1508,1528,1547,1568,1589,1608,1628,1648,1668,1688,1708,1728,1748,1768,1788,1810,1828,1848,1868,1888,1910,1928,1949,1968],"xSR":741.5,"ySR":449.15000000000003,"xT1":424.9,"yT1":0,"xT2":1058.1,"yT2":0,"toosoon":0,"cond_shown":"Incongruent","ratio_trial":200,"L_num":7,"L_den":10,"R_num":14,"R_den":28,"correct_side":1,"subjID":"Martinmarulanda17","gender":"0","school":"4","age":"9"},{"start_time":1552308479019,"click_time":1552308480880,"finger_time":1552308480559,"fix_duration":817.6147854229025,"trial":41,"RT":1540,"MT":321,"sideResp":1,"stimulus":[],"xmouse":[773,769,766,763,762,762,762,762,762,762,762,762,762,762,762,762,762,762,762,762,762,762,762,762,762,762,762,762,762,762,762,762,762,762,762,762,762,762,762,762,762,762,762,762,762,762,762,762,762,762,762,762,762,762,762,762,762,762,762,762,762,762,762,762,762,762,762,762,762,762,762,762,762,762,762,762,750,675,588,492,417,393,393,393,393,394,395,396,398,402,404,407,417,429],"ymouse":[523,523,524,525,525,525,525,525,525,525,525,525,525,525,525,525,525,525,525,525,525,525,525,525,525,525,525,525,525,525,525,525,525,525,525,525,525,525,525,525,525,525,525,525,525,525,525,525,525,525,525,525,525,525,525,526,526,526,526,526,526,526,526,526,526,526,526,526,526,526,526,526,526,526,526,526,519,459,397,328,263,234,229,226,222,216,210,198,189,176,159,138,86,43],"timestamp_mouse":[1,21,40,61,80,100,120,140,160,180,200,220,240,260,280,300,320,340,360,379,400,420,440,460,480,500,520,540,560,580,600,620,640,660,681,700,720,740,760,781,800,820,840,860,881,900,920,941,960,980,1001,1020,1041,1060,1080,1100,1119,1140,1160,1180,1200,1220,1241,1260,1280,1300,1320,1341,1360,1380,1400,1419,1440,1460,1480,1501,1520,1540,1561,1580,1600,1620,1640,1660,1680,1700,1720,1740,1760,1781,1801,1820,1840,1860],"xSR":741.5,"ySR":449.15000000000003,"xT1":424.9,"yT1":0,"xT2":1058.1,"yT2":0,"toosoon":0,"cond_shown":"Incongruent","ratio_trial":200,"L_num":14,"L_den":30,"R_num":6,"R_den":9,"correct_side":2,"subjID":"Martinmarulanda17","gender":"0","school":"4","age":"9"},{"start_time":1552308484325,"click_time":1552308486439,"finger_time":1552308485979,"fix_duration":605.8281929537078,"trial":42,"RT":1654,"MT":460,"sideResp":2,"stimulus":[],"xmouse":[776,776,776,776,776,777,778,778,778,778,778,779,779,780,780,780,780,780,781,781,781,781,782,782,783,784,784,784,784,784,785,785,785,786,786,786,786,786,786,786,786,786,786,786,786,786,786,786,786,786,786,786,786,786,786,786,786,786,786,786,787,788,788,789,789,790,790,790,791,791,791,791,791,791,791,792,794,799,802,806,813,831,850,882,920,961,1009,1040,1057,1057,1057,1057,1057,1057,1057,1057,1057,1057,1057,1057,1057,1057,1057,1057,1057,1104],"ymouse":[512,512,512,512,512,512,511,511,511,511,511,511,511,511,511,511,511,511,511,511,511,511,511,511,511,511,511,511,511,511,511,511,511,512,512,512,512,512,512,512,512,512,512,512,512,512,512,512,512,512,512,512,512,512,512,512,512,512,512,512,513,514,514,514,515,515,515,515,515,515,515,515,515,515,515,515,516,518,518,517,512,489,464,417,351,279,182,98,33,33,33,33,33,33,33,33,33,33,33,33,33,33,33,33,33,5],"timestamp_mouse":[14,45,54,74,94,114,134,155,174,194,215,234,254,274,294,314,334,356,374,394,414,434,455,474,494,514,534,555,574,594,614,634,654,674,694,714,734,754,774,794,814,834,854,874,894,914,934,954,974,994,1014,1034,1053,1075,1094,1114,1134,1154,1174,1194,1213,1234,1254,1274,1294,1314,1334,1354,1374,1395,1414,1434,1454,1474,1494,1514,1533,1554,1574,1594,1614,1634,1654,1674,1694,1714,1734,1755,1774,1794,1814,1834,1854,1874,1894,1914,1934,1954,1973,1994,2014,2034,2053,2074,2094,2114],"xSR":741.5,"ySR":449.15000000000003,"xT1":424.9,"yT1":0,"xT2":1058.1,"yT2":0,"toosoon":0,"cond_shown":"Congruent","ratio_trial":200,"L_num":6,"L_den":12,"R_num":7,"R_den":10,"correct_side":2,"subjID":"Martinmarulanda17","gender":"0","school":"4","age":"9"},{"start_time":1552308490584,"click_time":1552308491959,"finger_time":1552308491658,"fix_duration":1063.4043407052004,"trial":43,"RT":1074,"MT":301,"sideResp":1,"stimulus":[],"xmouse":[784,784,784,784,784,784,784,784,784,784,784,784,784,784,784,784,784,784,784,784,784,784,784,784,784,784,784,784,784,784,784,784,784,784,784,784,784,784,784,784,784,784,784,784,784,784,784,784,784,784,784,779,773,744,727,720,716,712,710,707,704,698,690,658,648,609,574,545,519],"ymouse":[476,476,476,476,476,476,476,476,476,476,476,476,476,476,476,476,476,476,476,476,476,476,476,476,476,476,476,476,476,476,476,476,476,476,476,476,476,476,476,476,476,476,476,476,476,476,476,476,476,476,476,473,466,418,390,375,364,336,320,306,296,283,269,229,219,177,135,100,61],"timestamp_mouse":[15,50,55,75,95,115,135,155,175,195,216,235,256,275,295,315,335,355,375,395,415,435,456,475,494,514,535,556,575,595,615,635,655,675,695,715,735,755,775,795,815,835,855,875,895,914,935,955,975,995,1015,1035,1055,1074,1095,1115,1135,1157,1175,1194,1215,1235,1254,1275,1295,1315,1335,1355,1375],"xSR":741.5,"ySR":449.15000000000003,"xT1":424.9,"yT1":0,"xT2":1058.1,"yT2":0,"toosoon":0,"cond_shown":"Congruent","ratio_trial":300,"L_num":20,"L_den":25,"R_num":13,"R_den":26,"correct_side":1,"subjID":"Martinmarulanda17","gender":"0","school":"4","age":"9"},{"start_time":1552308495284,"click_time":1552308497019,"finger_time":1552308496599,"fix_duration":642.0109916023698,"trial":44,"RT":1315,"MT":420,"sideResp":1,"stimulus":[],"xmouse":[834,834,834,834,834,834,834,834,834,834,834,834,834,834,832,828,820,817,816,816,816,816,816,816,816,816,816,816,816,816,816,816,816,816,816,816,816,816,816,816,816,816,816,816,816,816,816,816,816,816,816,816,816,816,816,816,816,816,816,816,816,815,805,786,758,726,678,567,518,451,416,399,386,372,370,366,363,362,362,364,367,372,379,389,396,411,427],"ymouse":[534,534,534,534,534,534,534,534,534,534,534,534,534,534,53