[{"start_time":1552309214653,"click_time":1552309216613,"finger_time":1552309215792,"fix_duration":396.64390239061555,"trial":0,"RT":1139,"MT":821,"sideResp":2,"stimulus":"img/900/randomdotsizeEA/R/13_Ratio_900_L_18_R_20.png","xmouse":[810,810,810,810,810,810,810,810,810,810,810,810,810,810,810,810,810,810,810,810,810,810,810,810,810,810,810,810,810,810,810,810,810,810,810,810,810,810,810,810,810,810,810,810,810,810,810,810,810,810,810,810,810,810,810,810,810,862,936,988,1026,1123,1262,1343,1373,1386,1392,1396,1396,1397,1414,1467,1532,1536,1536,1531,1522,1512,1494,1478,1464,1445,1434,1425,1405,1377,1348,1325,1325,1325,1325,1325,1325,1325,1325,1325,1325,1325,1149],"ymouse":[530,530,530,530,530,530,530,530,530,530,530,530,530,530,530,530,530,530,530,530,530,530,530,530,530,530,530,530,530,530,530,530,530,530,530,530,530,530,530,530,530,530,530,530,530,530,530,530,530,530,530,530,530,530,530,530,532,530,489,441,417,420,428,428,428,433,436,436,437,437,432,384,285,254,235,225,216,208,196,180,162,111,87,79,65,45,19,3,3,3,3,3,3,3,3,3,3,3,1],"timestamp_mouse":[9,20,40,60,80,99,119,139,160,180,200,219,240,261,280,299,319,339,359,379,399,420,440,459,481,499,519,540,559,580,600,619,639,659,680,700,720,739,760,780,800,819,839,860,881,899,919,940,959,979,1000,1019,1040,1059,1080,1100,1120,1139,1159,1179,1200,1221,1239,1260,1279,1300,1319,1340,1360,1380,1400,1420,1439,1460,1481,1500,1521,1539,1561,1580,1599,1620,1640,1660,1680,1700,1719,1739,1759,1780,1799,1821,1839,1860,1879,1899,1919,1939,1959],"xSR":741.5,"ySR":481,"xT1":424.9,"yT1":0,"xT2":1058.1,"yT2":0,"toosoon":0,"cond_shown":"randomdotsizeEA","ratio_trial":900,"smaller_num":"18","larger_num":"20","correct_side":2,"subjID":"martinmarulanda17","gender":"0","age":"9","school":"4","test":{"fix_dur":[250,1500],"timestim":300,"targets_dim":[100,100],"targets_relative_coord":[0.3,0.7],"size_stim":[880,420],"start_dim":[100,100],"size_start":[300,300],"size_fix":60,"samplingrate":20,"img_types":["equaldotsize","equaldotanddens","randomdotsizeEA"],"ratios":[250,500,750,900],"rep_conds":9,"nTrials":120,"trials_to_rest":500,"Trials_order":[83,42,108,0,64,32,49,9,114,27,100,109,15,25,118,65,21,63,14,59,41,19,96,104,88,43,33,76,87,77,75,17,80,55,2,1,54,89,39,3,35,45,82,117,61,105,78,99,4,51,52,30,112,106,110,20,81,116,79,11,47,67,18,85,107,46,70,5,37,38,44,113,48,50,13,34,36,95,97,94,66,91,62,98,56,31,24,22,74,119,92,68,72,6,8,69,12,115,60,103,90,10,40,101,111,16,57,53,93,102,28,29,73,86,26,84,58,71,7,23],"cond_shown":["randomdotsizeEA","equaldotsize","equaldotsize","equaldotsize","equaldotanddens","randomdotsizeEA","equaldotanddens","equaldotsize","equaldotsize","equaldotsize","equaldotanddens","equaldotanddens","equaldotsize","equaldotanddens","equaldotanddens","randomdotsizeEA","equaldotsize","equaldotsize","randomdotsizeEA","randomdotsizeEA","randomdotsizeEA","equaldotanddens","equaldotsize","randomdotsizeEA","equaldotanddens","equaldotanddens","equaldotsize","equaldotanddens","equaldotsize","randomdotsizeEA","equaldotsize","randomdotsizeEA","randomdotsizeEA","equaldotanddens","randomdotsizeEA","equaldotanddens","equaldotsize","randomdotsizeEA","equaldotsize","equaldotsize","randomdotsizeEA","equaldotsize","equaldotanddens","equaldotsize","equaldotanddens","equaldotsize","equaldotsize","equaldotsize","equaldotanddens","equaldotsize","equaldotanddens","equaldotsize","equaldotanddens","equaldotanddens","randomdotsizeEA","randomdotsizeEA","equaldotsize","randomdotsizeEA","equaldotanddens","randomdotsizeEA","randomdotsizeEA","equaldotanddens","equaldotsize","equaldotanddens","randomdotsizeEA","equaldotanddens","equaldotanddens","randomdotsizeEA","equaldotanddens","randomdotsizeEA","randomdotsizeEA","randomdotsizeEA","equaldotsize","randomdotsizeEA","equaldotanddens","equaldotanddens","equaldotsize","randomdotsizeEA","equaldotanddens","equaldotanddens","equaldotsize","equaldotanddens","randomdotsizeEA","randomdotsizeEA","randomdotsizeEA","equaldotanddens","equaldotsize","equaldotanddens","randomdotsizeEA","randomdotsizeEA","randomdotsizeEA","randomdotsizeEA","equaldotsize","equaldotsize","randomdotsizeEA","equaldotsize","equaldotsize","equaldotanddens","equaldotsize","equaldotanddens","equaldotsize","equaldotanddens","equaldotanddens","randomdotsizeEA","equaldotsize","equaldotanddens","equaldotsize","randomdotsizeEA","equaldotsize","equaldotsize","equaldotanddens","randomdotsizeEA","equaldotanddens","randomdotsizeEA","randomdotsizeEA","equaldotsize","equaldotanddens","randomdotsizeEA","equaldotanddens","randomdotsizeEA"],"ratio_trial":[900,750,250,250,500,750,250,900,750,500,500,250,500,250,900,500,900,500,250,900,500,750,250,750,500,750,900,500,500,500,500,500,750,750,250,250,750,500,500,500,900,900,900,900,250,900,750,500,500,500,500,750,500,900,250,750,900,750,750,900,900,750,750,250,900,900,900,500,250,250,750,500,250,250,250,900,250,900,250,900,750,750,250,250,750,750,250,900,250,900,750,750,250,750,750,900,250,750,250,750,750,900,500,500,500,500,900,500,900,750,500,500,250,250,250,250,900,900,750,900],"smaller_num":["18","9","6","1","9","18","4","9","15","2","9","1","1","6","9","2","9","5","3","9","2","18","5","6","3","12","9","9","4","10","1","9","3","15","2","2","3","9","2","1","18","9","18","9","2","18","6","5","1","2","9","12","2","9","2","18","9","3","15","18","18","3","3","4","18","9","18","6","6","2","3","1","2","6","3","9","1","18","5","18","9","6","2","3","6","3","2","18","1","18","15","3","4","3","3","9","2","6","4","3","18","18","6","1","6","6","18","5","18","6","1","6","4","3","3","3","18","9","18","18"],"larger_num":["20","12","24","4","18","24","16","10","20","4","18","4","2","24","10","4","10","10","12","10","4","24","20","8","6","16","10","18","8","20","2","18","4","20","8","8","4","18","4","2","20","10","20","10","8","20","8","10","2","4","18","16","4","10","8","24","10","4","20","20","20","4","4","16","20","10","20","12","24","8","4","2","8","24","12","10","4","20","20","20","12","8","8","12","8","4","8","20","4","20","20","4","16","4","4","10","8","8","16","4","24","20","12","2","12","12","20","10","20","8","2","12","16","12","12","12","20","10","24","20"],"correct_side":[2,2,1,2,1,1,1,2,2,1,1,2,2,2,1,2,1,1,2,2,1,1,2,1,2,2,1,2,1,2,2,1,1,2,1,1,1,1,1,2,1,1,2,2,2,2,1,2,2,1,2,2,2,2,1,1,2,2,1,2,1,2,2,2,2,1,1,1,2,1,1,2,1,1,2,1,2,1,2,1,2,2,1,1,1,2,1,2,2,2,2,2,1,1,2,2,1,1,2,1,1,2,1,2,1,1,2,1,1,2,2,1,2,2,1,2,1,1,1,1],"img_shown":["img/900/randomdotsizeEA/R/13_Ratio_900_L_18_R_20.png","img/750/equaldotsize/R/15_Ratio_750_L_9_R_12.png","img/250/equaldotsize/L/5_Ratio_250_L_24_R_6.png","img/250/equaldotsize/R/8_Ratio_250_L_1_R_4.png","img/500/equaldotanddens/L/4_Ratio_500_L_18_R_9.png","img/750/randomdotsizeEA/L/6_Ratio_750_L_24_R_18.png","img/250/equaldotanddens/L/2_Ratio_250_L_16_R_4.png","img/900/equaldotsize/R/7_Ratio_900_L_9_R_10.png","img/750/equaldotsize/R/3_Ratio_750_L_15_R_20.png","img/500/equaldotsize/L/5_Ratio_500_L_4_R_2.png","img/500/equaldotanddens/L/4_Ratio_500_L_18_R_9.png","img/250/equaldotanddens/R/8_Ratio_250_L_1_R_4.png","img/500/equaldotsize/R/15_Ratio_500_L_1_R_2.png","img/250/equaldotanddens/R/6_Ratio_250_L_6_R_24.png","img/900/equaldotanddens/L/1_Ratio_900_L_10_R_9.png","img/500/randomdotsizeEA/R/9_Ratio_500_L_2_R_4.png","img/900/equaldotsize/L/1_Ratio_900_L_10_R_9.png","img/500/equaldotsize/L/7_Ratio_500_L_10_R_5.png","img/250/randomdotsizeEA/R/4_Ratio_250_L_3_R_12.png","img/900/randomdotsizeEA/R/15_Ratio_900_L_9_R_10.png","img/500/randomdotsizeEA/L/10_Ratio_500_L_4_R_2.png","img/750/equaldotanddens/L/6_Ratio_750_L_24_R_18.png","img/250/equaldotsize/R/12_Ratio_250_L_5_R_20.png","img/750/randomdotsizeEA/L/14_Ratio_750_L_8_R_6.png","img/500/equaldotanddens/R/2_Ratio_500_L_3_R_6.png","img/750/equaldotanddens/R/11_Ratio_750_L_12_R_16.png","img/900/equaldotsize/L/1_Ratio_900_L_10_R_9.png","img/500/equaldotanddens/R/1_Ratio_500_L_9_R_18.png","img/500/equaldotsize/L/8_Ratio_500_L_8_R_4.png","img/500/randomdotsizeEA/R/3_Ratio_500_L_10_R_20.png","img/500/equaldotsize/R/12_Ratio_500_L_1_R_2.png","img/500/randomdotsizeEA/L/4_Ratio_500_L_18_R_9.png","img/750/randomdotsizeEA/L/10_Ratio_750_L_4_R_3.png","img/750/equaldotanddens/R/4_Ratio_750_L_15_R_20.png","img/250/randomdotsizeEA/L/3_Ratio_250_L_8_R_2.png","img/250/equaldotanddens/L/7_Ratio_250_L_8_R_2.png","img/750/equaldotsize/L/9_Ratio_750_L_4_R_3.png","img/500/randomdotsizeEA/L/4_Ratio_500_L_18_R_9.png","img/500/equaldotsize/L/10_Ratio_500_L_4_R_2.png","img/500/equaldotsize/R/12_Ratio_500_L_1_R_2.png","img/900/randomdotsizeEA/L/10_Ratio_900_L_20_R_18.png","img/900/equaldotsize/L/1_Ratio_900_L_10_R_9.png","img/900/equaldotanddens/R/9_Ratio_900_L_18_R_20.png","img/900/equaldotsize/R/15_Ratio_900_L_9_R_10.png","img/250/equaldotanddens/R/13_Ratio_250_L_2_R_8.png","img/900/equaldotsize/R/13_Ratio_900_L_18_R_20.png","img/750/equaldotsize/L/13_Ratio_750_L_8_R_6.png","img/500/equaldotsize/R/14_Ratio_500_L_5_R_10.png","img/500/equaldotanddens/R/15_Ratio_500_L_1_R_2.png","img/500/equaldotsize/L/5_Ratio_500_L_4_R_2.png","img/500/equaldotanddens/R/1_Ratio_500_L_9_R_18.png","img/750/equaldotsize/R/11_Ratio_750_L_12_R_16.png","img/500/equaldotanddens/R/9_Ratio_500_L_2_R_4.png","img/900/equaldotanddens/R/6_Ratio_900_L_9_R_10.png","img/250/randomdotsizeEA/L/1_Ratio_250_L_8_R_2.png","img/750/randomdotsizeEA/L/6_Ratio_750_L_24_R_18.png","img/900/equaldotsize/R/7_Ratio_900_L_9_R_10.png","img/750/randomdotsizeEA/R/7_Ratio_750_L_3_R_4.png","img/750/equaldotanddens/L/1_Ratio_750_L_20_R_15.png","img/900/randomdotsizeEA/R/13_Ratio_900_L_18_R_20.png","img/900/randomdotsizeEA/L/4_Ratio_900_L_20_R_18.png","img/750/equaldotanddens/R/12_Ratio_750_L_3_R_4.png","img/750/equaldotsize/R/7_Ratio_750_L_3_R_4.png","img/250/equaldotanddens/R/10_Ratio_250_L_4_R_16.png","img/900/randomdotsizeEA/R/13_Ratio_900_L_18_R_20.png","img/900/equaldotanddens/L/1_Ratio_900_L_10_R_9.png","img/900/equaldotanddens/L/10_Ratio_900_L_20_R_18.png","img/500/randomdotsizeEA/L/13_Ratio_500_L_12_R_6.png","img/250/equaldotanddens/R/6_Ratio_250_L_6_R_24.png","img/250/randomdotsizeEA/L/3_Ratio_250_L_8_R_2.png","img/750/randomdotsizeEA/L/10_Ratio_750_L_4_R_3.png","img/500/randomdotsizeEA/R/15_Ratio_500_L_1_R_2.png","img/250/equaldotsize/L/3_Ratio_250_L_8_R_2.png","img/250/randomdotsizeEA/L/5_Ratio_250_L_24_R_6.png","img/250/equaldotanddens/R/11_Ratio_250_L_3_R_12.png","img/900/equaldotanddens/L/1_Ratio_900_L_10_R_9.png","img/250/equaldotsize/R/8_Ratio_250_L_1_R_4.png","img/900/randomdotsizeEA/L/8_Ratio_900_L_20_R_18.png","img/250/equaldotanddens/R/12_Ratio_250_L_5_R_20.png","img/900/equaldotanddens/L/4_Ratio_900_L_20_R_18.png","img/750/equaldotsize/R/15_Ratio_750_L_9_R_12.png","img/750/equaldotanddens/R/2_Ratio_750_L_6_R_8.png","img/250/randomdotsizeEA/L/7_Ratio_250_L_8_R_2.png","img/250/randomdotsizeEA/L/15_Ratio_250_L_12_R_3.png","img/750/randomdotsizeEA/L/13_Ratio_750_L_8_R_6.png","img/750/equaldotanddens/R/7_Ratio_750_L_3_R_4.png","img/250/equaldotsize/L/1_Ratio_250_L_8_R_2.png","img/900/equaldotanddens/R/11_Ratio_900_L_18_R_20.png","img/250/randomdotsizeEA/R/8_Ratio_250_L_1_R_4.png","img/900/randomdotsizeEA/R/9_Ratio_900_L_18_R_20.png","img/750/randomdotsizeEA/R/3_Ratio_750_L_15_R_20.png","img/750/randomdotsizeEA/R/7_Ratio_750_L_3_R_4.png","img/250/equaldotsize/L/2_Ratio_250_L_16_R_4.png","img/750/equaldotsize/L/9_Ratio_750_L_4_R_3.png","img/750/randomdotsizeEA/R/12_Ratio_750_L_3_R_4.png","img/900/equaldotsize/R/5_Ratio_900_L_9_R_10.png","img/250/equaldotsize/L/7_Ratio_250_L_8_R_2.png","img/750/equaldotanddens/L/13_Ratio_750_L_8_R_6.png","img/250/equaldotsize/R/10_Ratio_250_L_4_R_16.png","img/750/equaldotanddens/L/8_Ratio_750_L_4_R_3.png","img/750/equaldotsize/L/6_Ratio_750_L_24_R_18.png","img/900/equaldotanddens/R/13_Ratio_900_L_18_R_20.png","img/500/equaldotanddens/L/11_Ratio_500_L_12_R_6.png","img/500/randomdotsizeEA/R/15_Ratio_500_L_1_R_2.png","img/500/equaldotsize/L/13_Ratio_500_L_12_R_6.png","img/500/equaldotanddens/L/11_Ratio_500_L_12_R_6.png","img/900/equaldotsize/R/13_Ratio_900_L_18_R_20.png","img/500/randomdotsizeEA/L/7_Ratio_500_L_10_R_5.png","img/900/equaldotsize/L/4_Ratio_900_L_20_R_18.png","img/750/equaldotsize/R/2_Ratio_750_L_6_R_8.png","img/500/equaldotanddens/R/15_Ratio_500_L_1_R_2.png","img/500/randomdotsizeEA/L/13_Ratio_500_L_12_R_6.png","img/250/equaldotanddens/R/10_Ratio_250_L_4_R_16.png","img/250/randomdotsizeEA/R/4_Ratio_250_L_3_R_12.png","img/250/randomdotsizeEA/L/14_Ratio_250_L_12_R_3.png","img/250/equaldotsize/R/11_Ratio_250_L_3_R_12.png","img/900/equaldotanddens/L/4_Ratio_900_L_20_R_18.png","img/900/randomdotsizeEA/L/1_Ratio_900_L_10_R_9.png","img/750/equaldotanddens/L/6_Ratio_750_L_24_R_18.png","img/900/randomdotsizeEA/L/10_Ratio_900_L_20_R_18.png"],"Rat0":[["12_Ratio_0_L_9_R_0.png","13_Ratio_0_L_6_R_0.png","5_Ratio_0_L_2_R_0.png","6_Ratio_0_L_4_R_0.png","8_Ratio_0_L_6_R_0.png"],["1_Ratio_0_L_0_R_17.png","10_Ratio_0_L_0_R_22.png","11_Ratio_0_L_0_R_1.png","14_Ratio_0_L_0_R_24.png","15_Ratio_0_L_0_R_4.png","2_Ratio_0_L_0_R_5.png","3_Ratio_0_L_0_R_17.png","4_Ratio_0_L_0_R_7.png","7_Ratio_0_L_0_R_19.png","9_Ratio_0_L_0_R_15.png"]],"Rat250":[["1_Ratio_250_L_8_R_2.png","14_Ratio_250_L_12_R_3.png","15_Ratio_250_L_12_R_3.png","2_Ratio_250_L_16_R_4.png","3_Ratio_250_L_8_R_2.png","5_Ratio_250_L_24_R_6.png","7_Ratio_250_L_8_R_2.png"],["10_Ratio_250_L_4_R_16.png","11_Ratio_250_L_3_R_12.png","12_Ratio_250_L_5_R_20.png","13_Ratio_250_L_2_R_8.png","4_Ratio_250_L_3_R_12.png","6_Ratio_250_L_6_R_24.png","8_Ratio_250_L_1_R_4.png","9_Ratio_250_L_3_R_12.png"]],"Rat500":[["10_Ratio_500_L_4_R_2.png","11_Ratio_500_L_12_R_6.png","13_Ratio_500_L_12_R_6.png","4_Ratio_500_L_18_R_9.png","5_Ratio_500_L_4_R_2.png","7_Ratio_500_L_10_R_5.png","8_Ratio_500_L_8_R_4.png"],["1_Ratio_500_L_9_R_18.png","12_Ratio_500_L_1_R_2.png","14_Ratio_500_L_5_R_10.png","15_Ratio_500_L_1_R_2.png","2_Ratio_500_L_3_R_6.png","3_Ratio_500_L_10_R_20.png","6_Ratio_500_L_9_R_18.png","9_Ratio_500_L_2_R_4.png"]],"Rat750":[["1_Ratio_750_L_20_R_15.png","10_Ratio_750_L_4_R_3.png","13_Ratio_750_L_8_R_6.png","14_Ratio_750_L_8_R_6.png","6_Ratio_750_L_24_R_18.png","8_Ratio_750_L_4_R_3.png","9_Ratio_750_L_4_R_3.png"],["11_Ratio_750_L_12_R_16.png","12_Ratio_750_L_3_R_4.png","15_Ratio_750_L_9_R_12.png","2_Ratio_750_L_6_R_8.png","3_Ratio_750_L_15_R_20.png","4_Ratio_750_L_15_R_20.png","5_Ratio_750_L_15_R_20.png","7_Ratio_750_L_3_R_4.png"]],"Rat900":[["1_Ratio_900_L_10_R_9.png","10_Ratio_900_L_20_R_18.png","2_Ratio_900_L_20_R_18.png","4_Ratio_900_L_20_R_18.png","8_Ratio_900_L_20_R_18.png"],["11_Ratio_900_L_18_R_20.png","12_Ratio_900_L_18_R_20.png","13_Ratio_900_L_18_R_20.png","14_Ratio_900_L_18_R_20.png","15_Ratio_900_L_9_R_10.png","3_Ratio_900_L_9_R_10.png","5_Ratio_900_L_9_R_10.png","6_Ratio_900_L_9_R_10.png","7_Ratio_900_L_9_R_10.png","9_Ratio_900_L_18_R_20.png"]],"Rat1000":[["10_Ratio_1000_L_16_R_16.png","11_Ratio_1000_L_6_R_6.png","12_Ratio_1000_L_14_R_14.png","13_Ratio_1000_L_20_R_20.png","15_Ratio_1000_L_15_R_15.png","2_Ratio_1000_L_17_R_17.png","4_Ratio_1000_L_9_R_9.png","5_Ratio_1000_L_6_R_6.png","6_Ratio_1000_L_19_R_19.png","8_Ratio_1000_L_14_R_14.png","9_Ratio_1000_L_25_R_25.png"],["1_Ratio_1000_L_1_R_1.png","14_Ratio_1000_L_17_R_17.png","3_Ratio_1000_L_17_R_17.png","7_Ratio_1000_L_6_R_6.png"]]}},{"start_time":1552309218544,"click_time":1552309219673,"finger_time":1552309219093,"fix_duration":250,"trial":1,"RT":549,"MT":580,"sideResp":1,"stimulus":"img/750/equaldotsize/R/15_Ratio_750_L_9_R_12.png","xmouse":[798,798,798,798,798,798,798,798,798,798,798,801,802,802,802,802,802,802,800,799,799,799,799,799,799,799,804,806,806,806,806,806,794,779,770,763,757,754,750,743,735,724,696,669,634,610,594,584,582,580,579,576,563,551,542,528,518],"ymouse":[579,579,579,579,579,579,579,579,579,579,579,576,575,573,573,573,571,559,554,551,551,551,551,551,547,541,500,451,440,431,415,399,304,260,234,219,212,208,205,201,196,188,162,138,109,97,89,76,70,67,64,62,57,55,54,53,53],"timestamp_mouse":[12,32,49,69,89,109,128,148,169,189,209,228,248,268,289,309,329,348,369,388,409,428,449,468,489,508,528,548,569,588,609,629,649,669,689,708,730,749,769,789,809,829,849,868,889,910,929,949,969,990,1008,1028,1049,1069,1089,1109,1129],"xSR":741.5,"ySR":481,"xT1":424.9,"yT1":0,"xT2":1058.1,"yT2":0,"toosoon":0,"cond_shown":"equaldotsize","ratio_trial":750,"smaller_num":"9","larger_num":"12","correct_side":2,"subjID":"martinmarulanda17","gender":"0","age":"9","school":"4"},{"start_time":1552309223558,"click_time":1552309224753,"finger_time":1552309224294,"fix_duration":1364.8230029690665,"trial":2,"RT":736,"MT":459,"sideResp":1,"stimulus":"img/250/equaldotsize/L/5_Ratio_250_L_24_R_6.png","xmouse":[789,789,789,789,789,789,789,789,789,789,789,789,789,789,789,789,789,789,789,789,789,789,789,789,789,789,789,789,789,789,789,789,789,789,789,788,765,726,672,672,672,672,672,672,672,672,672,672,672,672,672,672,672,672,672,672,672,672,406,425],"ymouse":[563,563,563,563,563,563,563,563,563,563,563,563,563,563,563,563,563,563,563,563,563,563,563,563,563,563,563,563,563,563,563,563,563,563,563,558,357,198,59,59,59,59,59,59,59,59,59,59,59,59,59,59,59,59,59,59,59,59,26,39],"timestamp_mouse":[15,35,57,74,94,115,135,154,174,194,215,234,255,275,294,315,336,354,375,394,414,434,455,475,494,514,534,554,574,594,616,635,655,675,695,715,736,755,776,796,815,835,855,875,895,915,935,955,975,995,1014,1035,1054,1075,1094,1115,1135,1155,1175,1195],"xSR":741.5,"ySR":481,"xT1":424.9,"yT1":0,"xT2":1058.1,"yT2":0,"toosoon":0,"cond_shown":"equaldotsize","ratio_trial":250,"smaller_num":"6","larger_num":"24","correct_side":1,"subjID":"martinmarulanda17","gender":"0","age":"9","school":"4"},{"start_time":1552309227364,"click_time":1552309228434,"finger_time":1552309227952,"fix_duration":250,"trial":3,"RT":588,"MT":482,"sideResp":2,"stimulus":"img/250/equaldotsize/R/8_Ratio_250_L_1_R_4.png","xmouse":[772,772,772,772,772,772,772,772,772,772,772,772,772,772,772,772,772,772,772,772,772,772,772,772,772,772,772,772,776,793,809,838,851,863,873,891,908,913,916,918,921,927,931,935,943,954,972,979,989,1000,1013,1043,1060,1073],"ymouse":[535,535,535,535,535,535,535,535,535,535,535,535,535,535,535,535,535,535,535,535,535,535,535,535,535,535,535,535,515,472,447,404,383,365,346,322,303,298,293,290,286,274,265,253,239,218,192,182,170,159,147,120,105,92],"timestamp_mouse":[13,28,49,68,89,110,129,148,168,188,209,228,249,269,289,308,328,349,368,389,410,428,448,468,488,510,529,549,569,588,608,629,649,669,689,709,729,749,769,790,809,829,848,868,890,909,929,949,969,989,1008,1028,1049,1070],"xSR":741.5,"ySR":481,"xT1":424.9,"yT1":0,"xT2":1058.1,"yT2":0,"toosoon":0,"cond_shown":"equaldotsize","ratio_trial":250,"smaller_num":"1","larger_num":"4","correct_side":2,"subjID":"martinmarulanda17","gender":"0","age":"9","school":"4"},{"start_time":1552309229405,"click_time":1552309230252,"finger_time":1552309230193,"fix_duration":250,"trial":4,"RT":788,"MT":59,"sideResp":1,"stimulus":"img/500/equaldotanddens/L/4_Ratio_500_L_18_R_9.png","xmouse":[821,821,821,821,821,821,821,821,821,821,821,821,821,821,821,821,821,821,821,821,821,821,821,821,821,821,821,821,821,821,821,821,821,821,821,821,821,821,821,771,707,620,475],"ymouse":[565,565,565,565,565,565,565,565,565,565,565,565,565,565,565,565,565,565,565,565,565,565,565,565,565,565,565,565,565,565,565,565,565,565,565,565,565,547,511,379,287,192,53],"timestamp_mouse":[8,37,47,67,87,108,128,147,167,187,207,227,247,267,287,308,328,348,367,387,408,427,447,467,488,507,527,547,567,588,608,628,648,668,687,708,727,748,768,788,808,828,847],"xSR":741.5,"ySR":481,"xT1":424.9,"yT1":0,"xT2":1058.1,"yT2":0,"toosoon":0,"cond_shown":"equaldotanddens","ratio_trial":500,"smaller_num":"9","larger_num":"18","correct_side":1,"subjID":"martinmarulanda17","gender":"0","age":"9","school":"4"},{"start_time":1552309233224,"click_time":1552309234252,"finger_time":1552309233892,"fix_duration":250,"trial":5,"RT":668,"MT":360,"sideResp":2,"stimulus":"img/750/randomdotsizeEA/L/6_Ratio_750_L_24_R_18.png","xmouse":[764,764,764,764,764,764,764,764,764,764,764,764,764,764,764,764,764,764,764,764,764,764,764,764,764,764,764,764,764,764,773,793,814,881,909,939,964,983,1020,1040,1062,1076,1078,1083,1084,1086,1086,1086,1089,1091,1093,1096],"ymouse":[554,554,554,554,554,554,554,554,554,554,554,554,554,554,554,554,554,554,554,554,554,554,554,554,554,554,554,554,554,554,537,511,488,427,398,365,337,315,283,264,245,227,224,209,200,189,177,164,139,125,111,87],"timestamp_mouse":[11,29,49,69,88,108,128,148,168,188,209,229,249,268,289,309,328,348,368,390,408,428,448,470,489,510,528,548,568,589,609,629,649,668,689,709,729,748,769,790,809,828,849,869,889,908,929,949,969,989,1009,1028],"xSR":741.5,"ySR":481,"xT1":424.9,"yT1":0,"xT2":1058.1,"yT2":0,"toosoon":0,"cond_shown":"randomdotsizeEA","ratio_trial":750,"smaller_num":"18","larger_num":"24","correct_side":1,"subjID":"martinmarulanda17","gender":"0","age":"9","school":"4"},{"start_time":1552309236302,"click_time":1552309237953,"finger_time":1552309236913,"fix_duration":1048.2651059002517,"trial":6,"RT":611,"MT":1040,"sideResp":1,"stimulus":"img/250/equaldotanddens/L/2_Ratio_250_L_16_R_4.png","xmouse":[790,787,785,785,785,785,785,785,785,785,785,785,785,785,785,785,785,787,787,787,787,787,787,787,787,787,787,787,787,786,776,762,750,742,737,737,737,737,736,733,729,715,679,624,535,518,511,510,510,508,507,507,507,507,507,507,509,510,511,512,512,512,512,513,514,514,515,516,517,518,518,518,518,518,518,518,518,518,518,518,518,519,521],"ymouse":[520,518,518,518,518,518,518,518,518,518,518,518,518,518,518,518,518,518,518,518,518,518,518,518,518,518,518,518,518,510,475,443,416,399,383,380,374,366,355,348,340,325,304,279,240,232,226,222,220,211,208,208,208,206,202,198,195,193,189,184,179,175,170,167,159,156,151,145,140,135,134,131,128,127,125,124,122,121,121,121,119,105,93],"timestamp_mouse":[13,31,53,70,90,110,131,151,172,190,210,231,250,270,290,311,331,350,372,391,412,430,450,470,492,511,531,551,570,591,611,630,651,671,691,711,730,750,772,790,811,831,850,870,891,911,931,951,970,990,1011,1030,1050,1070,1090,1110,1131,1150,1172,1191,1211,1230,1251,1270,1290,1310,1331,1351,1370,1390,1411,1431,1451,1471,1490,1511,1531,1551,1570,1591,1610,1630,1651],"xSR":741.5,"ySR":481,"xT1":424.9,"yT1":0,"xT2":1058.1,"yT2":0,"toosoon":0,"cond_shown":"equaldotanddens","ratio_trial":250,"smaller_num":"4","larger_num":"16","correct_side":1,"subjID":"martinmarulanda17","gender":"0","age":"9","school":"4"},{"start_time":1552309261771,"click_time":1552309262993,"finger_time":1552309262492,"fix_duration":876.4739209245382,"trial":7,"RT":721,"MT":501,"sideResp":2,"stimulus":"img/900/equaldotsize/R/7_Ratio_900_L_9_R_10.png","xmouse":[779,779,779,779,779,779,779,779,779,779,779,779,779,779,779,779,779,779,779,779,779,779,779,779,779,779,779,779,779,779,779,779,781,782,785,788,791,792,794,796,798,804,812,820,836,852,878,883,885,887,895,902,913,925,943,978,1019,1034,1047,1055,1058,1060],"ymouse":[516,516,516,516,516,516,516,516,516,516,516,516,516,516,516,516,516,516,516,516,516,516,516,516,516,516,516,516,516,516,516,516,513,510,501,482,465,458,452,445,438,412,392,360,310,251,157,139,131,127,125,124,120,113,102,81,68,67,65,65,65,65],"timestamp_mouse":[10,32,42,61,81,102,122,142,161,182,203,222,243,261,281,301,321,343,362,381,403,422,442,462,481,503,521,542,562,581,602,621,641,662,681,702,721,742,762,782,801,821,842,862,882,901,921,943,961,982,1003,1022,1042,1061,1081,1102,1122,1142,1161,1181,1201,1222],"xSR":741.5,"ySR":481,"xT1":424.9,"yT1":0,"xT2":1058.1,"yT2":0,"toosoon":0,"cond_shown":"equaldotsize","ratio_trial":900,"smaller_num":"9","larger_num":"10","correct_side":2,"subjID":"martinmarulanda17","gender":"0","age":"9","school":"4"},{"start_time":1552309265615,"click_time":1552309268275,"finger_time":1552309266292,"fix_duration":822.5665510536403,"trial":8,"RT":677,"MT":1983,"sideResp":2,"stimulus":"img/750/equaldotsize/R/3_Ratio_750_L_15_R_20.png","xmouse":[821,821,821,821,821,821,821,821,821,821,821,821,821,821,821,821,821,821,821,821,821,821,821,821,821,821,821,821,821,823,823,820,809,779,750,728,713,705,683,670,656,634,628,610,610,610,607,603,596,596,596,596,593,586,586,586,586,585,585,583,581,581,581,581,581,580,579,577,575,575,574,574,572,572,572,573,573,574,575,576,576,576,576,576,576,576,578,581,586,586,586,586,588,588,588,588,588,594,599,608,622,635,649,746,868,1012,1132,1152,1152,1153,1154,1156,1163,1164,1165,1165,1165,1165,1165,1160,1156,1155,1155,1155,1155,1156,1156,1156,1154,1154,1154,1154,1148],"ymouse":[552,552,552,552,552,552,552,552,552,552,552,552,552,552,552,552,552,552,552,552,552,552,552,552,552,552,552,552,552,529,512,499,482,451,427,407,393,384,354,336,318,295,288,275,275,275,274,270,266,266,266,266,262,250,250,250,250,249,249,244,242,242,242,242,241,238,237,235,231,229,227,225,218,218,218,218,218,218,217,216,215,215,215,215,215,215,215,213,211,211,211,211,210,210,210,210,210,210,208,207,205,203,202,188,182,178,176,175,175,173,173,171,159,150,147,147,146,143,140,135,132,131,125,115,112,107,107,106,103,101,101,101,91],"timestamp_mouse":[18,43,57,78,98,117,138,158,177,198,218,237,257,277,297,318,337,358,377,397,418,439,457,477,497,518,538,557,578,597,619,638,658,677,697,718,739,759,777,798,818,837,858,878,897,917,938,958,978,997,1019,1038,1058,1078,1099,1119,1138,1157,1178,1198,1217,1237,1257,1277,1298,1318,1338,1357,1377,1397,1418,1438,1459,1477,1497,1518,1538,1558,1577,1598,1618,1638,1659,1678,1698,1717,1738,1758,1778,1798,1818,1837,1859,1877,1897,1917,1937,1957,1978,1998,2017,2037,2057,2077,2098,2117,2138,2160,2177,2198,2217,2238,2259,2277,2297,2318,2337,2358,2377,2397,2418,2437,2457,2477,2498,2517,2538,2557,2577,2597,2617,2637,2660],"xSR":741.5,"ySR":481,"xT1":424.9,"yT1":0,"xT2":1058.1,"yT2":0,"toosoon":0,"cond_shown":"equaldotsize","ratio_trial":750,"smaller_num":"15","larger_num":"20","correct_side":2,"subjID":"martinmarulanda17","gender":"0","age":"9","school":"4"},{"start_time":1552309272479,"click_time":1552309273593,"finger_time":1552309273132,"fix_duration":304.8704882976715,"trial":9,"RT":653,"MT":461,"sideResp":1,"stimulus":"img/500/equaldotsize/L/5_Ratio_500_L_4_R_2.png","xmouse":[769,769,769,769,769,769,769,769,769,769,769,769,769,769,769,769,769,769,769,769,769,769,769,769,769,769,769,769,769,769,765,756,741,720,698,669,660,654,646,641,631,626,620,613,603,582,574,564,556,544,532,523,508,493,471,433],"ymouse":[535,535,535,535,535,535,535,535,535,535,535,535,535,535,535,535,535,535,535,535,535,535,535,535,535,535,535,535,535,535,534,530,523,515,505,492,488,484,480,477,466,456,443,425,404,354,330,306,283,254,220,200,177,152,124,69],"timestamp_mouse":[13,34,53,73,93,113,134,153,173,194,214,233,253,274,294,314,334,353,374,394,414,433,453,474,494,513,534,554,574,594,614,634,653,674,693,714,734,754,774,794,813,834,854,874,893,913,933,954,973,994,1014,1034,1054,1074,1094,1114],"xSR":741.5,"ySR":481,"xT1":424.9,"yT1":0,"xT2":1058.1,"yT2":0,"toosoon":0,"cond_shown":"equaldotsize","ratio_trial":500,"smaller_num":"2","larger_num":"4","correct_side":1,"subjID":"martinmarulanda17","gender":"0","age":"9","school":"4"},{"start_time":1552309275183,"click_time":1552309276312,"finger_time":1552309275833,"fix_duration":250,"trial":10,"RT":650,"MT":479,"sideResp":1,"stimulus":"img/500/equaldotanddens/L/4_Ratio_500_L_18_R_9.png","xmouse":[814,814,814,814,814,814,814,814,814,814,814,814,814,814,814,814,814,814,814,814,814,820,827,839,840,840,840,840,840,840,839,828,806,766,692,545,467,390,307,231,231,231,231,231,231,231,231,231,231,231,231,231,231,294,343,410,430],"ymouse":[495,495,495,495,495,495,495,495,495,495,495,495,495,495,495,495,495,495,495,495,495,498,501,506,507,507,507,507,507,507,507,489,445,385,298,192,147,104,53,2,2,2,2,2,2,2,2,2,2,2,2,2,2,5,24,50,59],"timestamp_mouse":[12,38,50,71,90,109,130,150,170,189,209,229,249,270,289,309,329,350,370,389,410,431,450,469,489,510,529,550,570,589,610,630,650,670,690,710,730,749,770,789,810,831,850,870,889,911,930,950,969,989,1010,1030,1049,1069,1089,1110,1129],"xSR":741.5,"ySR":481,"xT1":424.9,"yT1":0,"xT2":1058.1,"yT2":0,"toosoon":0,"cond_shown":"equaldotanddens","ratio_trial":500,"smaller_num":"9","larger_num":"18","correct_side":1,"subjID":"martinmarulanda17","gender":"0","age":"9","school":"4"},{"start_time":1552309279832,"click_time":1552309280792,"finger_time":1552309280452,"fix_duration":677.7151335901297,"trial":11,"RT":620,"MT":340,"sideResp":2,"stimulus":"img/250/equaldotanddens/R/8_Ratio_250_L_1_R_4.png","xmouse":[772,772,772,772,772,772,772,772,772,772,772,772,772,772,772,772,772,772,770,768,768,767,767,767,767,767,767,767,767,790,823,942,1032,1174,1193,1193,1193,1193,1193,1193,1193,1193,1193,1193,1193,1193,1193,1175,1116],"ymouse":[542,542,542,542,542,542,542,542,542,542,542,542,542,542,542,542,542,542,546,554,560,565,566,566,566,566,566,566,566,538,499,341,216,37,10,10,10,10,10,10,10,10,10,10,10,10,10,13,94],"timestamp_mouse":[9,20,49,61,80,101,120,140,160,180,201,221,240,261,281,301,321,340,361,381,402,420,440,460,481,500,520,541,560,581,600,620,642,661,681,700,721,741,761,781,800,820,840,861,881,901,921,940,960],"xSR":741.5,"ySR":481,"xT1":424.9,"yT1":0,"xT2":1058.1,"yT2":0,"toosoon":0,"cond_shown":"equaldotanddens","ratio_trial":250,"smaller_num":"1","larger_num":"4","correct_side":2,"subjID":"martinmarulanda17","gender":"0","age":"9","school":"4"},{"start_time":1552309282310,"click_time":1552309283393,"finger_time":1552309283092,"fix_duration":457.93762451031483,"trial":12,"RT":782,"MT":301,"sideResp":2,"stimulus":"img/500/equaldotsize/R/15_Ratio_500_L_1_R_2.png","xmouse":[810,810,810,810,810,810,810,810,810,810,810,810,810,810,810,810,810,810,810,810,810,810,810,810,810,810,810,810,810,810,810,810,810,810,810,810,810,810,810,846,885,885,885,885,885,885,885,885,885,885,885,885,885,885,1137],"ymouse":[508,508,508,508,508,508,508,508,508,508,508,508,508,508,508,508,508,508,508,508,508,508,508,508,508,508,508,508,508,508,508,508,508,508,508,508,508,508,500,244,11,11,11,11,11,11,11,11,11,11,11,11,11,11,67],"timestamp_mouse":[10,22,43,62,83,103,123,142,163,183,202,222,242,262,284,302,322,343,364,383,402,423,443,463,482,502,523,542,563,582,603,623,643,662,682,702,722,742,763,782,803,823,843,864,883,902,922,943,964,982,1003,1022,1044,1063,1082],"xSR":741.5,"ySR":481,"xT1":424.9,"yT1":0,"xT2":1058.1,"yT2":0,"toosoon":0,"cond_shown":"equaldotsize","ratio_trial":500,"smaller_num":"1","larger_num":"2","correct_side":2,"subjID":"martinmarulanda17","gender":"0","age":"9","school":"4"},{"start_time":1552309285118,"click_time":1552309285972,"finger_time":1552309285713,"fix_duration":584.3808116924057,"trial":13,"RT":595,"MT":259,"sideResp":2,"stimulus":"img/250/equaldotanddens/R/6_Ratio_250_L_6_R_24.png","xmouse":[782,782,782,782,782,782,782,782,782,782,782,782,782,782,782,782,782,782,782,782,782,782,782,782,779,774,773,770,784,817,878,942,988,1013,1013,1013,1013,1015,1027,1037,1047,1056,1059],"ymouse":[549,549,549,549,549,549,549,549,549,549,549,549,549,549,549,549,549,549,549,549,549,549,549,549,547,544,544,541,504,469,425,387,360,328,314,297,269,249,197,164,131,80,68],"timestamp_mouse":[15,38,55,74,95,114,134,154,174,195,215,234,254,274,294,314,334,355,375,395,415,436,456,474,494,515,534,555,574,595,615,635,654,674,695,715,735,755,774,795,829,835,854],"xSR":741.5,"ySR":481,"xT1":424.9,"yT1":0,"xT2":1058.1,"yT2":0,"toosoon":0,"cond_shown":"equaldotanddens","ratio_trial":250,"smaller_num":"6","larger_num":"24","correct_side":2,"subjID":"martinmarulanda17","gender":"0","age":"9","school":"4"},{"start_time":1552309287246,"click_time":1552309288633,"finger_time":1552309287913,"fix_duration":250,"trial":14,"RT":667,"MT":720,"sideResp":2,"stimulus":"img/900/equaldotanddens/L/1_Ratio_900_L_10_R_9.png","xmouse":[757,757,757,757,757,757,757,757,757,757,757,757,757,757,757,757,757,757,757,757,757,758,758,758,758,758,758,758,758,758,758,758,765,771,779,785,792,796,799,803,808,810,822,826,831,838,845,857,865,873,891,905,954,1014,1098,1194,1272,1330,1330,1330,1330,1330,1330,1330,1330,1329,1313,1249,1192,1132],"ymouse":[557,557,557,557,557,557,557,557,557,557,557,557,557,557,557,557,557,557,557,557,557,557,557,557,557,557,557,557,557,557,557,548,485,460,438,422,404,385,376,367,348,341,302,287,270,257,245,225,214,202,183,171,147,128,104,85,65,36,36,36,36,36,36,36,36,37,42,49,49,49],"timestamp_mouse":[12,26,46,66,86,107,126,146,166,187,207,226,246,267,286,306,327,347,366,386,406,428,446,466,486,506,527,546,567,586,606,628,647,667,687,707,726,746,766,787,806,827,846,866,886,906,928,946,967,987,1006,1027,1047,1067,1087,1107,1127,1147,1167,1187,1206,1227,1247,1267,1287,1306,1327,1346,1367,1387],"xSR":741.5,"ySR":481,"xT1":424.9,"yT1":0,"xT2":1058.1,"yT2":0,"toosoon":0,"cond_shown":"equaldotanddens","ratio_trial":900,"smaller_num":"9","larger_num":"10","correct_side":1,"subjID":"martinmarulanda17","gender":"0","age":"9","school":"4"},{"start_time":1552309290535,"click_time":1552309291653,"finger_time":1552309291154,"fix_duration":560.1493919940847,"trial":15,"RT":619,"MT":499,"sideResp":1,"stimulus":"img/500/randomdotsizeEA/R/9_Ratio_500_L_2_R_4.png","xmouse":[829,829,829,829,829,829,829,829,829,829,829,829,829,829,829,829,829,829,829,829,829,829,829,829,829,828,828,827,825,796,751,709,658,647,635,624,605,579,570,559,551,545,536,534,530,526,523,520,518,517,515,515,513,513,512,512],"ymouse":[576,576,576,576,576,576,576,576,576,576,576,576,576,576,576,576,576,576,576,576,576,576,576,576,576,576,576,576,575,535,472,438,390,366,337,313,277,244,231,216,204,196,178,170,161,150,144,136,132,128,124,121,112,107,102,95],"timestamp_mouse":[18,37,66,78,98,117,138,157,177,198,217,237,258,277,298,317,337,357,377,397,417,437,459,479,497,518,538,558,578,597,619,639,658,678,697,717,738,758,778,798,818,837,857,877,898,919,938,958,978,998,1018,1037,1057,1078,1098,1118],"xSR":741.5,"ySR":481,"xT1":424.9,"yT1":0,"xT2":1058.1,"yT2":0,"toosoon":0,"cond_shown":"randomdotsizeEA","ratio_trial":500,"smaller_num":"2","larger_num":"4","correct_side":2,"subjID":"martinmarulanda17","gender":"0","age":"9","school":"4"},{"start_time":1552309295762,"click_time":1552309297172,"finger_time":1552309296393,"fix_duration":1288.3622231157547,"trial":16,"RT":631,"MT":779,"sideResp":1,"stimulus":"img/900/equaldotsize/L/1_Ratio_900_L_10_R_9.png","xmouse":[801,801,801,801,801,801,801,801,801,801,801,801,801,801,801,801,801,801,801,801,801,801,801,801,801,802,804,805,807,807,809,825,844,853,856,857,857,857,858,867,888,931,939,947,948,948,946,946,945,945,944,944,947,948,949,949,949,948,934,907,853,739,699,670,666,656,637,612,569,528,507],"ymouse":[524,524,524,524,524,524,524,524,524,524,524,524,524,524,524,524,524,524,524,524,524,524,524,524,520,515,510,507,505,503,499,443,368,331,312,300,294,294,291,281,255,198,178,163,158,155,136,130,127,122,115,97,88,84,81,80,79,77,75,73,71,71,71,70,70,68,61,53,42,31,24],"timestamp_mouse":[10,31,59,71,91,110,131,150,171,191,210,231,250,271,290,311,330,350,370,390,410,431,450,471,490,511,530,550,571,591,611,631,651,670,690,710,731,751,771,791,811,830,850,871,891,911,930,950,971,992,1011,1030,1050,1071,1090,1110,1130,1150,1170,1191,1211,1230,1252,1271,1292,1311,1331,1351,1370,1391,1410],"xSR":741.5,"ySR":481,"xT1":424.9,"yT1":0,"xT2":1058.1,"yT2":0,"toosoon":0,"cond_shown":"equaldotsize","ratio_trial":900,"smaller_num":"9","larger_num":"10","correct_side":1,"subjID":"martinmarulanda17","gender":"0","age":"9","school":"4"},{"start_time":1552309299501,"click_time":1552309300393,"finger_time":1552309300073,"fix_duration":1446.7668109479432,"trial":17,"RT":572,"MT":320,"sideResp":1,"stimulus":"img/500/equaldotsize/L/7_Ratio_500_L_10_R_5.png","xmouse":[806,806,806,806,806,806,806,806,806,806,806,806,806,806,806,806,806,806,806,806,806,806,806,806,806,806,807,817,833,842,842,843,843,840,814,786,738,683,598,525,516,515,515,515,515],"ymouse":[526,526,526,526,526,526,526,526,526,526,526,526,526,526,526,526,526,526,526,526,526,526,526,526,526,526,512,482,427,394,384,372,358,343,307,287,260,239,202,168,163,158,145,126,99],"timestamp_mouse":[11,37,52,73,91,112,132,151,172,192,212,231,251,271,292,311,332,351,373,392,411,431,451,471,492,513,532,551,572,592,612,631,652,671,692,712,732,751,772,791,812,832,852,871,892],"xSR":741.5,"ySR":481,"xT1":424.9,"yT1":0,"xT2":1058.1,"yT2":0,"toosoon":0,"cond_shown":"equaldotsize","ratio_trial":500,"smaller_num":"5","larger_num":"10","correct_side":1,"subjID":"martinmarulanda17","gender":"0","age":"9","school":"4"},{"start_time":1552309324746,"click_time":1552309326072,"finger_time":1552309325492,"fix_duration":1271.1471249186345,"trial":18,"RT":746,"MT":580,"sideResp":1,"stimulus":"img/250/randomdotsizeEA/R/4_Ratio_250_L_3_R_12.png","xmouse":[793,793,793,793,793,793,793,793,793,793,793,793,793,793,793,793,793,793,793,793,793,793,793,793,793,793,793,793,793,793,793,793,795,795,795,795,792,787,779,772,768,766,753,742,716,693,668,638,636,635,633,629,614,608,602,594,581,572,570,567,564,559,546,541,535,527,523],"ymouse":[562,562,562,562,562,562,562,562,562,562,562,562,562,562,562,562,562,562,562,562,562,562,562,562,562,562,562,562,562,562,562,560,538,530,526,514,499,410,378,360,349,345,322,298,255,224,191,144,140,137,134,127,108,101,94,84,74,71,70,70,70,70,70,70,70,68,66],"timestamp_mouse":[9,27,46,67,87,107,126,147,167,186,206,227,247,267,286,306,327,346,367,387,406,426,448,467,487,507,526,546,567,586,606,626,646,667,687,707,728,746,767,787,808,828,846,867,888,906,927,947,967,986,1007,1027,1047,1067,1087,1107,1126,1147,1166,1186,1206,1226,1247,1267,1286,1306,1326],"xSR":741.5,"ySR":481,"xT1":424.9,"yT1":0,"xT2":1058.1,"yT2":0,"toosoon":0,"cond_shown":"randomdotsizeEA","ratio_trial":250,"smaller_num":"3","larger_num":"12","correct_side":2,"subjID":"martinmarulanda17","gender":"0","age":"9","school":"4"},{"start_time":1552309328085,"click_time":1552309329793,"finger_time":1552309328653,"fix_duration":689.8329301915572,"trial":19,"RT":568,"MT":1140,"sideResp":2,"stimulus":"img/900/randomdotsizeEA/R/15_Ratio_900_L_9_R_10.png","xmouse":[818,818,818,818,818,818,818,818,818,818,818,818,818,818,818,818,818,818,818,818,818,818,818,818,818,818,818,812,809,800,802,806,812,821,830,835,835,835,835,835,835,835,835,835,835,835,835,835,835,835,835,835,835,835,835,835,835,835,835,835,835,835,835,835,835,835,835,835,835,835,835,835,835,835,835,835,835,835,835,835,835,835,835,835,835,1099],"ymouse":[538,538,538,538,538,538,538,538,538,538,538,538,538,538,538,538,538,538,538,538,538,538,538,538,538,538,538,497,461,353,309,300,291,276,255,171,79,30,30,30,30,30,30,30,30,30,30,30,30,30,30,30,30,30,30,30,30,30,30,30,30,30,30,30,30,30,30,30,30,30,30,30,30,30,30,30,30,30,30,30,30,30,30,30,30,4],"timestamp_mouse":[9,27,49,68,87,107,127,147,169,189,207,227,247,267,289,308,328,348,368,387,408,429,447,468,487,509,528,547,568,588,608,627,648,668,688,707,727,748,767,787,807,828,848,868,889,908,928,948,967,987,1008,1027,1048,1068,1088,1108,1128,1147,1168,1188,1208,1228,1248,1268,1289,1308,1328,1349,1368,1389,1408,1428,1447,1467,1488,1508,1528,1548,1567,1587,1608,1627,1648,1668,1688,1708],"xSR":741.5,"ySR":481,"xT1":424.9,"yT1":0,"xT2":1058.1,"yT2":0,"toosoon":0,"cond_shown":"randomdotsizeEA","ratio_trial":900,"smaller_num":"9","larger_num":"10","correct_side":2,"subjID":"martinmarulanda17","gender":"0","age":"9","school":"4"},{"start_time":1552309335952,"click_time":1552309337693,"finger_time":1552309336934,"fix_duration":1057.9406799055328,"trial":20,"RT":982,"MT":759,"sideResp":1,"stimulus":"img/500/randomdotsizeEA/L/10_Ratio_500_L_4_R_2.png","xmouse":[837,837,837,837,837,837,837,837,837,837,837,837,837,837,837,837,837,837,837,837,837,837,837,837,837,837,837,837,837,837,837,837,837,837,835,833,833,831,830,830,829,829,824,821,818,817,816,812,806,799,790,782,763,749,735,717,710,705,704,702,697,679,667,657,644,617,604,591,585,577,570,561,556,553,550,547,545,543,541,538,537,535,532,530,528,527,519,497],"ymouse":[547,547,547,547,547,547,547,547,547,547,547,547,547,547,547,547,547,547,547,547,547,547,547,547,547,547,547,547,547,547,547,547,547,547,541,536,533,527,526,525,523,521,512,509,505,503,501,494,484,472,460,449,433,422,411,402,400,398,397,396,394,387,383,379,372,356,340,310,296,279,266,253,247,243,236,230,225,222,219,214,209,206,200,195,185,175,148,88],"timestamp_mouse":[13,24,41,61,81,101,120,142,161,181,202,220,241,261,281,301,322,341,361,381,400,420,440,460,480,500,520,541,562,580,600,620,640,661,681,700,720,741,761,780,800,821,841,860,880,901,921,941,960,982,1001,1020,1041,1061,1081,1102,1120,1141,1161,1181,1201,1222,1241,1262,1281,1301,1320,1341,1361,1381,1402,1423,1441,1461,1481,1500,1522,1541,1561,1581,1601,1621,1641,1661,1681,1702,1721,1740],"xSR":741.5,"ySR":481,"xT1":424.9,"yT1":0,"xT2":1058.1,"yT2":0,"toosoon":0,"cond_shown":"randomdotsizeEA","ratio_trial":500,"smaller_num":"2","larger_num":"4","correct_side":1,"subjID":"martinmarulanda17","gender":"0","age":"9","school":"4"},{"start_time":1552309351751,"click_time":1552309353452,"finger_time":1552309352292,"fix_duration":1457.139646249473,"trial":21,"RT":541,"MT":1160,"sideResp":1,"stimulus":"img/750/equaldotanddens/L/6_Ratio_750_L_24_R_18.png","xmouse":[829,830,830,830,830,830,830,830,830,830,830,830,830,830,830,830,830,830,830,830,830,830,830,830,830,830,832,844,851,856,861,862,864,864,864,864,864,864,864,864,864,864,858,840,806,761,689,665,664,664,664,665,665,665,665,665,665,665,665,665,664,661,645,635,623,612,608,607,607,607,607,606,605,603,601,593,583,558,548,543,539,538,533,529,526,523],"ymouse":[517,515,514,514,514,514,514,514,514,514,514,514,514,514,514,514,514,514,514,514,514,514,514,514,514,514,511,484,466,453,443,439,436,436,436,436,436,436,436,436,436,430,370,307,229,152,48,14,13,13,13,10,8,4,2,2,1,1,1,2,2,3,12,17,21,27,29,30,30,30,30,30,31,32,34,40,43,54,56,57,57,57,58,59,60,61],"timestamp_mouse":[2,22,52,62,82,101,121,141,163,182,202,221,241,262,282,301,322,342,362,381,402,423,442,463,481,501,522,541,561,581,602,622,642,662,682,703,721,742,761,781,801,821,841,862,881,901,922,941,962,981,1002,1023,1041,1062,1082,1102,1123,1141,1162,1182,1201,1221,1242,1263,1282,1301,1321,1342,1362,1382,1402,1421,1441,1462,1483,1502,1521,1542,1562,1582,1602,1622,1641,1662,1682,1701],"xSR":741.5,"ySR":481,"xT1":424.9,"yT1":0,"xT2":1058.1,"yT2":0,"toosoon":0,"cond_shown":"equaldotanddens","ratio_trial":750,"smaller_num":"18","larger_num":"24","correct_side":1,"subjID":"martinmarulanda17","gender":"0","age":"9","school":"4"},{"start_time":1552309355716,"click_time":1552309356692,"finger_time":1552309356513,"fix_duration":1141.1346318399712,"trial":22,"RT":797,"MT":179,"sideResp":2,"stimulus":"img/250/equaldotsize/R/12_Ratio_250_L_5_R_20.png","xmouse":[769,769,769,769,769,769,769,769,769,769,769,769,769,769,769,769,769,769,769,769,769,769,769,769,769,769,769,769,769,769,769,769,769,769,769,769,769,769,776,802,846,902,1007,1031,1041,1043,1043,1051,1062],"ymouse":[519,519,519,519,519,519,519,519,519,519,519,519,519,519,519,519,519,519,519,519,519,519,519,519,519,519,519,519,519,519,519,519,519,519,519,519,519,519,512,468,396,302,157,133,126,125,125,107,80],"timestamp_mouse":[16,51,57,76,96,116,137,157,177,197,217,237,256,276,297,316,336,357,377,397,417,437,456,477,496,517,537,556,577,597,617,637,656,676,696,716,737,756,776,797,817,837,858,877,898,918,938,958,976],"xSR":741.5,"ySR":481,"xT1":424.9,"yT1":0,"xT2":1058.1,"yT2":0,"toosoon":0,"cond_shown":"equaldotsize","ratio_trial":250,"smaller_num":"5","larger_num":"20","correct_side":2,"subjID":"martinmarulanda17","gender":"0","age":"9","school":"4"},{"start_time":1552309432276,"click_time":1552309436293,"finger_time":1552309433153,"fix_duration":822.5020982590512,"trial":23,"RT":877,"MT":3140,"sideResp":2,"stimulus":"img/750/randomdotsizeEA/L/14_Ratio_750_L_8_R_6.png","xmouse":[766,766,766,766,766,766,766,766,766,766,766,766,766,766,766,766,766,766,766,766,766,766,766,766,766,766,766,766,766,766,766,766,766,766,766,766,766,773,775,791,810,821,832,844,855,876,886,896,916,979,1012,1037,1065,1090,1126,1223,1291,1360,1424,1494,1541,1541,1541,1541,1541,1541,1541,1541,1541,1541,1541,1541,1541,1541,1541,1541,1541,1541,1541,1541,1541,1541,1541,1541,1541,1541,1541,1541,1541,1541,1541,799,783,783,783,783,783,782,777,776,779,779,779,779,779,779,779,779,779,1475,916,528,120,0,0,0,11,45,54,54,379,490,493,469,101,101,101,101,101,300,755,951,1033,1033,1033,1033,1033,1033,1033,1033,1033,1033,1033,1033,1033,1033,1033,1033,1409,1266,950,902,902,982,1037,1037,1230,1290,1290,1231,889,781,756,761,771,771,771,771,771,771,771,771,771,771,771,771,771,771,771,771,771,1126,1516,1557,1435,868,775,800,800,800,800,610,610,610,610,610,690,950,1519,1555,1112],"ymouse":[498,498,498,498,498,498,498,498,498,498,498,498,498,498,498,498,498,498,498,498,498,498,498,498,498,498,498,498,498,498,498,498,498,498,498,498,498,501,501,508,516,520,524,527,531,532,532,528,519,475,453,436,417,400,371,291,243,189,138,93,57,57,57,57,57,57,57,57,57,57,57,57,57,57,57,57,57,57,57,57,57,57,57,57,57,57,57,57,57,57,57,13,22,22,22,22,22,22,23,23,6,6,6,6,6,6,6,6,6,365,266,208,178,161,161,161,153,149,149,149,260,278,268,244,4,4,4,4,4,74,473,651,722,722,722,722,722,722,722,722,722,722,722,722,722,722,722,722,728,660,584,595,607,664,684,684,694,647,603,494,177,80,34,20,4,4,4,4,4,4,4,4,4,4,4,4,4,4,4,4,4,113,218,231,220,116,73,53,53,53,53,3,3,3,3,3,20,45,84,84,42],"timestamp_mouse":[17,36,61,76,98,117,136,156,176,196,216,237,257,277,297,317,338,356,376,396,416,436,456,476,496,516,537,558,576,597,616,637,657,677,697,716,737,757,777,797,816,836,856,877,897,916,938,957,977,998,1016,1037,1057,1077,1096,1117,1137,1156,1176,1198,1216,1237,1257,1277,1296,1317,1337,1358,1377,1397,1417,1436,1458,1477,1497,1517,1536,1557,1576,1596,1616,1636,1656,1676,1696,1716,1737,1757,1777,1798,1816,1836,1857,1877,1898,1916,1936,1957,1976,1996,2017,2036,2056,2076,2098,2117,2136,2156,2176,2196,2216,2236,2258,2276,2297,2317,2336,2356,2377,2396,2416,2437,2457,2477,2497,2516,2536,2556,2576,2596,2616,2636,2656,2676,2697,2717,2737,2756,2776,2796,2816,2836,2856,2876,2897,2917,2937,2957,2976,2997,3016,3037,3056,3076,3098,3117,3136,3156,3177,3197,3216,3237,3257,3277,3297,3317,3336,3356,3376,3396,3416,3436,3456,3477,3496,3517,3537,3556,3576,3598,3617,3636,3658,3677,3696,3717,3736,3756,3776,3796,3817,3837,3857,3878,3897,3917,3938,3957,3977,3996,4017],"xSR":741.5,"ySR":481,"xT1":424.9,"yT1":0,"xT2":1058.1,"yT2":0,"toosoon":0,"cond_shown":"randomdotsizeEA","ratio_trial":750,"smaller_num":"6","larger_num":"8","correct_side":1,"subjID":"martinmarulanda17","gender":"0","age":"9","school":"4"},{"start_time":1552309439904,"click_time":1552309442533,"finger_time":1552309440193,"fix_duration":689.4201032592254,"trial":24,"RT":289,"MT":2340,"sideResp":2,"stimulus":"img/500/equaldotanddens/R/2_Ratio_500_L_3_R_6.png","xmouse":[792,792,792,792,792,792,792,792,792,792,792,792,792,794,894,1045,1209,1371,1371,996,623,203,0,0,87,87,87,87,87,0,0,0,21,21,104,61,0,0,0,17,17,17,60,0,0,0,0,6,6,12,67,0,0,0,1,1,1,4,55,0,0,0,0,0,0,50,0,0,0,0,0,0,0,0,0,0,0,0,0,0,0,0,0,0,727,804,804,804,804,803,803,803,803,804,812,832,843,843,843,844,845,845,846,848,853,863,915,969,1021,1055,1055,1055,1055,1055,1055,1055,1055,1055,1055,1055,1055,1055,1055,1048,1035,1033,1033,1033,1033,1038,1045,1065],"ymouse":[504,504,504,503,503,503,503,503,503,503,503,503,503,503,482,443,425,382,357,206,185,189,271,413,739,739,739,739,739,638,633,631,630,630,627,611,499,395,383,363,363,363,356,242,224,219,217,208,208,208,182,211,342,464,583,583,583,586,577,599,599,599,599,599,599,737,737,737,737,737,737,737,737,737,737,737,737,737,737,737,737,737,737,737,669,642,641,640,640,640,640,640,640,640,641,644,646,646,646,646,647,647,642,625,558,516,417,306,154,16,16,16,16,16,16,16,16,16,16,16,16,16,16,13,66,78,83,85,87,87,86,81],"timestamp_mouse":[9,40,49,69,89,109,128,148,168,188,208,229,249,269,289,309,329,348,369,389,409,428,449,468,488,509,529,549,568,588,609,628,649,669,689,709,730,749,768,789,808,828,849,870,889,910,928,948,968,988,1008,1029,1048,1068,1089,1108,1128,1148,1168,1188,1208,1228,1248,1270,1289,1309,1328,1348,1368,1389,1409,1428,1448,1468,1488,1508,1528,1550,1570,1588,1610,1629,1649,1668,1688,1709,1728,1749,1770,1789,1809,1829,1849,1868,1888,1909,1929,1948,1968,1989,2009,2029,2048,2068,2088,2109,2129,2150,2169,2189,2209,2229,2249,2268,2288,2308,2328,2348,2368,2388,2409,2429,2448,2470,2488,2510,2528,2549,2569,2589,2609,2628],"xSR":741.5,"ySR":481,"xT1":424.9,"yT1":0,"xT2":1058.1,"yT2":0,"toosoon":0,"cond_shown":"equaldotanddens","ratio_trial":500,"smaller_num":"3","larger_num":"6","correct_side":2,"subjID":"martinmarulanda17","gender":"0","age":"9","school":"4"},{"start_time":1552309445371,"click_time":1552309446575,"finger_time":1552309446072,"fix_duration":1137.1273816818143,"trial":25,"RT":701,"MT":503,"sideResp":2,"stimulus":"img/750/equaldotanddens/R/11_Ratio_750_L_12_R_16.png","xmouse":[763,763,763,763,763,763,763,764,765,766,766,766,767,767,769,769,769,769,769,769,769,769,769,769,769,769,769,769,769,769,769,769,769,764,757,741,732,732,739,753,775,815,828,841,857,891,943,965,986,1007,1029,1094,1115,1123,1123,1123,1123,1124,1126,1126,1092],"ymouse":[558,558,558,558,558,559,559,559,560,560,560,560,560,560,561,561,561,561,561,561,561,561,561,561,561,561,561,561,561,561,561,561,561,544,527,482,447,436,426,412,393,333,305,276,245,207,185,180,177,173,170,170,170,170,170,170,170,170,169,154,60],"timestamp_mouse":[1,22,49,61,81,101,121,141,162,183,202,221,241,262,282,301,321,342,362,383,403,421,442,462,481,502,522,542,561,581,602,621,642,661,681,701,721,742,763,782,801,821,841,862,881,903,922,941,961,982,1002,1021,1041,1061,1082,1101,1121,1141,1162,1182,1203],"xSR":741.5,"ySR":481,"xT1":424.9,"yT1":0,"xT2":1058.1,"yT2":0,"toosoon":0,"cond_shown":"equaldotanddens","ratio_trial":750,"smaller_num":"12","larger_num":"16","correct_side":2,"subjID":"martinmarulanda17","gender":"0","age":"9","school":"4"},{"start_time":1552309448799,"click_time":1552309450433,"finger_time":1552309449233,"fix_duration":464.11209778460596,"trial":26,"RT":434,"MT":1200,"sideResp":1,"stimulus":"img/900/equaldotsize/L/1_Ratio_900_L_10_R_9.png","xmouse":[837,837,837,837,837,837,837,837,836,836,836,836,837,837,837,837,837,838,838,838,838,846,851,853,853,853,852,837,814,768,747,716,707,678,647,629,613,594,574,552,549,548,545,537,532,529,527,526,526,527,528,531,531,531,524,516,501,489,482,479,476,457,448,422,422,422,422,422,422,422,422,422,422,422,422,422,422,422,422,422,423,425],"ymouse":[537,537,537,537,537,537,537,537,536,536,536,536,536,536,536,536,536,536,536,536,533,511,481,476,467,466,460,446,429,403,391,369,362,344,317,301,288,275,264,256,254,253,248,236,222,213,206,200,197,186,178,167,157,148,136,134,129,126,123,121,119,106,100,87,87,87,87,87,87,87,87,87,87,87,87,87,87,87,87,87,86,86],"timestamp_mouse":[13,38,54,75,93,114,133,153,174,193,213,233,254,273,294,314,334,354,373,393,413,434,453,474,493,514,534,553,574,593,613,634,654,674,694,714,734,754,773,793,814,833,855,874,894,913,934,954,973,994,1015,1034,1053,1074,1093,1113,1133,1154,1173,1193,1213,1233,1253,1275,1293,1313,1333,1354,1375,1394,1414,1433,1453,1473,1493,1513,1534,1554,1575,1593,1614,1634],"xSR":741.5,"ySR":481,"xT1":424.9,"yT1":0,"xT2":1058.1,"yT2":0,"toosoon":0,"cond_shown":"equaldotsize","ratio_trial":900,"smaller_num":"9","larger_num":"10","correct_side":1,"subjID":"martinmarulanda17","gender":"0","age":"9","school":"4"},{"start_time":1552309460241,"click_time":1552309461614,"finger_time":1552309461112,"fix_duration":548.2288268669317,"trial":27,"RT":871,"MT":502,"sideResp":2,"stimulus":"img/500/equaldotanddens/R/1_Ratio_500_L_9_R_18.png","xmouse":[812,812,812,812,812,812,812,812,812,812,819,821,824,824,824,824,824,824,824,824,824,824,824,824,824,824,824,824,824,824,823,822,822,822,822,822,822,822,822,822,822,822,821,825,838,866,921,1083,1176,1267,1368,1392,1482,1502,1519,1526,1526,1526,1526,1526,1526,1526,1526,1526,1526,1526,1526,1045,1080],"ymouse":[494,494,494,494,494,494,494,494,494,494,488,485,482,481,481,481,481,481,481,481,481,481,481,481,481,481,481,481,481,482,482,482,482,482,482,482,482,482,482,482,482,482,482,474,464,447,410,304,250,199,143,129,61,39,16,2,2,2,2,2,2,2,2,2,2,2,2,61,70],"timestamp_mouse":[11,31,52,72,91,111,132,151,171,191,212,231,252,271,292,312,331,351,372,392,413,431,451,472,492,512,531,552,571,591,612,632,653,671,691,712,732,752,772,791,811,832,851,871,892,912,932,951,972,992,1011,1032,1052,1072,1091,1112,1132,1152,1172,1192,1212,1232,1251,1271,1291,1311,1331,1352,1372],"xSR":741.5,"ySR":481,"xT1":424.9,"yT1":0,"xT2":1058.1,"yT2":0,"toosoon":0,"cond_shown":"equaldotanddens","ratio_trial":500,"smaller_num":"9","larger_num":"18","correct_side":2,"subjID":"martinmarulanda17","gender":"0","age":"9","school":"4"},{"start_time":1552309464826,"click_time":1552309465934,"finger_time":1552309465553,"fix_duration":312.40085491300897,"trial":28,"RT":727,"MT":381,"sideResp":1,"stimulus":"img/500/equaldotsize/L/8_Ratio_500_L_8_R_4.png","xmouse":[835,835,835,835,835,835,835,835,835,835,835,835,835,835,835,835,835,835,835,835,835,835,835,835,835,835,835,835,835,835,835,835,835,834,821,801,784,762,726,712,702,692,678,654,643,636,632,620,616,609,599,584,569,538,530,522],"ymouse":[544,544,544,544,544,544,544,544,544,544,544,544,544,544,544,544,544,544,544,544,544,544,544,544,544,544,544,544,544,544,544,544,544,544,524,494,464,430,371,342,317,298,275,241,227,216,207,188,180,169,157,140,127,106,101,95],"timestamp_mouse":[11,32,47,67,87,106,127,148,166,186,208,226,246,266,287,306,327,346,367,388,407,426,446,466,487,507,527,546,566,587,607,628,647,667,686,706,727,747,766,787,807,827,848,866,886,907,926,948,967,987,1007,1027,1046,1067,1087,1108],"xSR":741.5,"ySR":481,"xT1":424.9,"yT1":0,"xT2":1058.1,"yT2":0,"toosoon":0,"cond_shown":"equaldotsize","ratio_trial":500,"smaller_num":"4","larger_num":"8","correct_side":1,"subjID":"martinmarulanda17","gender":"0","age":"9","school":"4"},{"start_time":1552309471207,"click_time":1552309472892,"finger_time":1552309471772,"fix_duration":1412.6493215294875,"trial":29,"RT":565,"MT":1120,"sideResp":2,"stimulus":"img/500/randomdotsizeEA/R/3_Ratio_500_L_10_R_20.png","xmouse":[790,790,790,790,790,790,790,790,790,790,790,790,791,791,791,791,791,791,791,791,791,791,791,791,797,799,800,801,803,811,832,893,962,1029,1079,1079,1051,986,914,904,887,879,879,880,882,882,882,884,891,902,906,931,1007,1191,1354,1371,1380,1382,1382,1382,1382,1382,1382,1382,1373,1362,1344,1328,1290,1282,1278,1273,1265,1255,1245,1243,1242,1239,1228,1215,1214,1211,1191,1168,1099],"ymouse":[500,500,500,500,500,500,500,500,500,500,500,506,508,516,523,523,523,523,523,523,523,523,523,523,509,496,488,481,477,464,452,428,407,392,359,337,291,229,171,165,147,135,133,133,132,132,132,132,134,139,140,143,154,156,108,74,42,23,18,17,17,17,17,16,14,12,9,9,9,11,13,18,26,36,45,47,48,49,49,49,49,49,44,36,17],"timestamp_mouse":[10,33,46,67,86,106,126,145,165,185,205,225,245,266,285,305,325,346,366,385,405,426,446,465,485,505,526,545,565,585,605,625,646,666,685,706,726,746,767,785,806,826,845,866,886,907,925,945,967,985,1006,1025,1045,1066,1086,1105,1125,1147,1167,1186,1205,1225,1245,1265,1286,1305,1326,1346,1367,1385,1406,1426,1445,1465,1486,1505,1525,1545,1565,1586,1606,1626,1646,1665,1685],"xSR":741.5,"ySR":481,"xT1":424.9,"yT1":0,"xT2":1058.1,"yT2":0,"toosoon":0,"cond_shown":"randomdotsizeEA","ratio_trial":500,"smaller_num":"10","larger_num":"20","correct_side":2,"subjID":"martinmarulanda17","gender":"0","age":"9","school":"4"},{"start_time":1552309486946,"click_time":1552309488073,"finger_time":1552309487552,"fix_duration":811.5582821962154,"trial":30,"RT":606,"MT":521,"sideResp":2,"stimulus":"img/500/equaldotsize/R/12_Ratio_500_L_1_R_2.png","xmouse":[771,771,771,771,771,771,771,771,771,771,771,771,771,771,771,771,771,771,771,771,771,771,771,771,771,771,771,771,779,792,807,823,873,907,945,988,1038,1068,1070,1070,1070,1070,1071,1073,1074,1074,1075,1077,1078,1079,1082,1086,1094,1100,1104,1106,1106],"ymouse":[510,510,510,510,510,510,510,510,510,510,510,510,510,510,510,510,510,510,510,510,510,510,510,510,510,510,510,511,504,489,474,457,411,383,357,318,269,221,204,191,186,185,183,182,182,182,180,178,176,175,172,168,156,142,128,109,94],"timestamp_mouse":[10,27,48,66,87,107,126,147,166,187,207,227,247,268,287,308,326,346,366,388,407,426,446,466,487,506,526,548,566,586,606,627,646,667,687,706,726,747,767,787,808,828,846,867,887,906,926,947,966,986,1007,1026,1046,1067,1087,1106,1126],"xSR":741.5,"ySR":481,"xT1":424.9,"yT1":0,"xT2":1058.1,"yT2":0,"toosoon":0,"cond_shown":"equaldotsize","ratio_trial":500,"smaller_num":"1","larger_num":"2","correct_side":2,"subjID":"martinmarulanda17","gender":"0","age":"9","school":"4"},{"start_time":1552309502620,"click_time":1552309504853,"finger_time":1552309503872,"fix_duration":966.5824717679117,"trial":31,"RT":1252,"MT":981,"sideResp":1,"stimulus":"img/500/randomdotsizeEA/L/4_Ratio_500_L_18_R_9.png","xmouse":[799,799,799,799,799,799,799,799,799,799,799,799,799,799,799,799,799,799,799,799,799,799,799,799,799,799,799,799,799,799,799,799,799,799,799,799,799,799,799,799,799,799,799,799,799,799,799,799,799,799,799,799,799,799,799,799,799,799,799,799,800,800,751,671,671,671,671,671,671,671,671,671,671,671,671,671,671,671,671,671,671,671,671,671,671,671,671,671,671,671,671,671,671,671,671,671,671,671,671,671,671,671,671,671,671,671,671,671,671,671,671,450],"ymouse":[505,505,505,505,505,505,505,505,505,505,505,505,505,505,505,505,505,505,505,505,505,505,505,505,505,505,505,505,505,505,505,505,505,505,505,505,505,505,505,505,505,505,505,505,505,505,505,505,505,505,505,505,505,505,505,505,505,505,505,505,504,490,285,94,94,94,94,94,94,94,94,94,94,94,94,94,94,94,94,94,94,94,94,94,94,94,94,94,94,94,94,94,94,94,94,94,94,94,94,94,94,94,94,94,94,94,94,94,94,94,94,22],"timestamp_mouse":[12,35,52,73,92,112,132,152,173,192,212,232,252,272,294,312,333,352,372,392,412,432,452,472,492,512,533,553,572,592,613,633,652,672,692,713,733,753,772,792,813,832,852,873,892,912,933,952,972,992,1012,1032,1052,1072,1093,1112,1132,1152,1172,1192,1212,1233,1252,1272,1293,1313,1332,1353,1372,1393,1412,1432,1452,1472,1492,1513,1533,1552,1572,1592,1612,1632,1652,1672,1693,1712,1732,1752,1772,1793,1813,1832,1852,1873,1893,1912,1932,1952,1972,1992,2012,2032,2053,2073,2092,2112,2132,2152,2172,2192,2213,2233],"xSR":741.5,"ySR":481,"xT1":424.9,"yT1":0,"xT2":1058.1,"yT2":0,"toosoon":0,"cond_shown":"randomdotsizeEA","ratio_trial":500,"smaller_num":"9","larger_num":"18","correct_side":1,"subjID":"martinmarulanda17","gender":"0","age":"9","school":"4"},{"start_time":1552309508508,"click_time":1552309570553,"finger_time":1552309538372,"fix_duration":1233.3851386463134,"trial":32,"RT":29864,"MT":32181,"sideResp":2,"stimulus":"img/750/randomdotsizeEA/L/10_Ratio_750_L_4_R_3.png","xmouse":[808,808,808,808,808,808,808,808,808,808,808,808,808,808,808,808,808,808,808,808,808,808,808,808,808,808,808,808,808,808,808,808,808,808,808,808,808,808,808,808,808,808,808,808,808,808,808,808,808,808,808,808,808,808,808,808,808,808,808,808,808,808,808,808,808,808,808,808,808,808,808,808,808,808,808,808,808,808,808,808,808,808,808,808,808,808,808,808,808,808,808,808,808,808,808,808,808,808,808,808,808,808,808,808,808,808,808,808,808,808,808,808,808,808,808,808,808,808,808,808,808,808,808,808,808,808,808,808,808,808,808,808,808,808,808,808,808,808,808,808,808,808,808,808,808,808,808,808,808,808,808,808,808,808,808,808,808,808,808,808,808,808,808,808,808,808,808,808,808,808,808,808,808,808,808,808,808,808,808,808,808,808,808,808,808,808,808,808,808,808,808,808,808,808,808,808,808,808,808,808,808,808,808,808,808,808,808,808,808,808,808,808,808,808,808,808,808,808,808,808,808,808,808,808,808,808,808,808,808,808,808,808,808,808,808,808,808,808,808,808,808,808,808,808,808,808,808,808,808,808,808,808,808,808,808,808,808,808,808,808,808,808,808,808,808,808,808,808,808,808,808,808,808,808,808,808,808,808,808,808,808,808,808,808,808,808,808,808,808,808,808,808,808,808,808,808,808,808,808,808,808,808,808,808,808,808,808,808,808,808,808,808,808,808,808,808,808,808,808,808,808,808,808,808,808,808,808,808,808,808,808,808,808,808,808,808,808,808,808,808,808,808,808,808,808,808,808,808,808,808,808,808,808,808,808,808,808,808,808,808,808,808,808,808,808,808,808,808,808,808,808,808,808,808,808,808,808,808,808,808,808,808,808,808,808,808,808,808,808,808,808,808,808,808,808,808,808,808,808,808,808,808,808,808,808,808,808,808,808,808,808,808,808,808,808,808,808,808,808,808,808,808,808,808,808,808,808,808,808,808,808,808,808,808,808,808,808,808,808,808,808,808,808,808,808,808,808,808,808,808,808,808,808,808,808,808,808,808,808,808,808,808,808,808,808,808,808,808,808,808,808,808,808,808,808,808,808,808,808,808,808,808,808,808,808,808,808,808,808,808,808,808,808,808,808,808,808,808,808,808,808,808,808,808,808,808,808,808,808,808,808,808,808,808,808,808,808,808,808,808,808,808,808,808,808,808,808,808,808,808,808,808,808,808,808,808,808,808,808,808,808,808,808,808,808,808,808,808,808,808,808,808,808,808,808,808,808,808,808,808,808,808,808,808,808,808,808,808,808,808,808,808,808,808,808,808,808,808,808,808,808,808,808,808,808,808,808,808,808,808,808,808,808,808,808,808,808,808,808,808,808,808,808,808,808,808,808,808,808,808,808,808,808,808,808,808,808,808,808,808,808,808,808,808,808,808,808,808,808,808,808,808,808,808,808,808,808,808,808,808,808,808,808,808,808,808,808,808,808,808,808,808,808,808,808,808,808,808,808,808,808,808,808,808,808,808,808,808,808,808,808,808,808,808,808,808,808,808,808,808,808,808,808,808,808,808,808,808,808,808,808,808,808,808,808,808,808,808,808,808,808,808,808,808,808,808,808,808,808,808,808,808,808,808,808,808,808,808,808,808,808,808,808,808,808,808,808,808,808,808,808,808,808,808,808,808,808,808,808,808,808,808,808,808,808,808,808,808,808,808,808,808,808,808,808,808,808,808,808,808,808,808,808,808,808,808,808,808,808,808,808,808,808,808,808,808,808,808,808,808,808,808,808,808,808,808,808,808,808,808,808,808,808,808,808,808,808,808,808,808,808,808,808,808,808,808,808,808,808,808,808,808,808,808,808,808,808,808,808,808,808,808,808,808,808,808,808,808,808,808,808,808,808,808,808,808,808,808,808,808,808,808,808,808,808,808,808,808,808,808,808,808,808,808,808,808,808,808,808,808,808,808,808,808,808,808,808,808,808,808,808,808,808,808,808,808,808,808,808,808,808,808,808,808,808,808,808,808,808,808,808,808,808,808,808,808,808,808,808,808,808,808,808,808,808,808,808,808,808,808,808,808,808,808,808,808,808,808,808,808,808,808,808,808,808,808,808,808,808,808,808,808,808,808,808,808,808,808,808,808,808,808,808,808,808,808,808,808,808,808,808,808,808,808,808,808,808,808,808,808,808,808,808,808,808,808,808,808,808,808,808,808,808,808,808,808,808,808,808,808,808,808,808,808,808,808,808,808,808,808,808,808,808,808,808,808,808,808,808,808,808,808,808,808,808,808,808,808,808,808,808,808,808,808,808,808,808,808,808,808,808,808,808,808,808,808,808,808,808,808,808,808,808,808,808,808,808,808,808,808,808,808,808,808,808,808,808,808,808,808,808,808,808,808,808,808,808,808,808,808,808,808,808,808,808,808,808,808,808,808,808,808,808,808,808,808,808,808,808,808,808,808,808,808,808,808,808,808,808,808,808,808,808,808,808,808,808,808,808,808,808,808,808,808,808,808,808,808,808,808,808,808,808,808,808,808,808,808,808,808,808,808,808,808,808,808,808,808,808,808,808,808,808,808,808,808,808,808,808,808,808,808,808,808,808,808,808,808,808,808,808,808,808,808,808,808,808,808,808,808,808,808,808,808,808,808,808,808,808,808,808,808,808,808,808,808,808,808,808,808,808,808,808,808,808,808,808,808,808,808,808,808,808,808,808,808,808,808,808,808,808,808,808,808,808,808,808,808,808,808,808,808,808,808,808,808,808,808,808,808,808,808,808,808,808,808,808,808,808,808,808,808,808,808,808,808,808,808,808,808,808,808,808,808,808,808,808,808,808,808,808,808,808,808,808,808,808,808,808,808,808,808,808,808,808,808,808,808,808,808,808,808,808,808,808,808,808,808,808,808,808,808,808,808,808,808,808,808,808,808,808,808,808,808,808,808,808,808,808,808,808,808,808,808,808,808,808,808,808,808,808,808,808,808,808,808,808,808,808,808,808,808,808,808,808,808,808,808,808,808,808,808,808,808,808,808,808,808,808,808,808,808,808,808,808,808,808,808,808,808,808,808,808,808,808,808,808,808,808,808,808,808,808,808,808,808,808,808,808,808,808,808,808,808,808,808,808,808,808,808,808,808,808,808,808,808,808,808,808,808,808,808,808,808,808,808,808,808,808,808,808,808,808,808,808,808,808,808,808,808,808,808,808,808,808,808,808,808,808,808,808,808,808,808,808,808,808,808,808,808,808,808,808,808,808,808,808,808,808,808,808,808,808,808,808,808,808,808,808,808,808,808,808,808,808,808,808,808,808,808,808,808,808,808,808,808,808,808,808,808,808,808,808,808,808,808,808,808,808,808,808,808,808,808,808,808,808,808,808,808,808,808,807,761,559,559,559,559,559,559,559,559,559,559,0,0,59,191,357,514,514,514,514,514,514,514,514,514,514,0,0,0,0,0,0,0,0,0,0,0,0,0,0,0,0,0,0,0,0,0,0,0,0,0,0,0,0,0,0,0,0,0,0,0,0,0,0,0,0,0,0,0,0,0,0,0,0,0,0,0,0,0,0,0,0,0,0,0,0,0,0,0,0,0,0,0,0,0,0,0,0,0,0,0,0,0,0,0,0,0,0,0,0,0,0,0,0,0,0,0,0,0,0,0,0,0,0,0,0,0,0,0,0,0,0,0,0,0,0,0,0,0,0,0,0,0,0,0,0,0,0,0,0,0,0,0,0,0,0,0,0,0,0,0,0,0,0,0,0,0,0,0,0,0,0,0,0,0,0,0,0,0,0,0,0,0,0,0,0,0,0,0,0,0,0,0,0,0,0,0,0,0,0,0,0,0,0,0,0,0,0,0,0,0,0,0,0,0,0,0,0,0,0,0,0,0,0,0,0,0,0,0,0,0,0,0,0,0,0,0,0,0,0,0,0,0,0,0,0,0,0,0,0,0,0,0,0,0,0,0,0,0,0,0,0,0,0,0,0,0,0,0,0,0,0,0,0,0,0,0,0,0,0,0,0,0,0,0,0,0,0,0,0,0,0,0,0,0,0,0,0,0,0,0,0,0,0,0,0,0,0,0,0,0,0,0,0,0,0,0,0,0,0,0,0,0,0,0,0,0,0,0,0,0,0,0,0,0,0,0,0,0,0,0,0,0,0,0,0,0,0,0,0,0,0,0,0,0,0,0,0,0,0,0,0,0,0,0,0,0,0,0,0,0,0,0,0,0,0,0,0,0,0,0,0,0,0,0,0,0,0,0,0,0,0,0,0,0,0,0,0,0,0,0,0,0,0,0,0,0,0,0,0,0,0,0,0,0,0,0,0,0,0,0,0,0,0,0,0,0,0,0,0,0,0,0,0,0,0,0,0,0,0,0,0,0,0,0,0,0,0,0,0,0,0,0,0,0,0,0,0,0,0,0,0,0,0,0,0,0,0,0,0,0,0,0,0,0,0,0,0,0,0,0,0,0,0,0,0,0,0,0,0,0,0,0,0,0,0,0,0,0,0,0,0,0,0,0,0,0,0,0,0,0,0,0,0,0,0,0,0,0,0,0,0,0,0,0,0,0,0,0,0,0,0,0,0,0,0,0,0,0,0,0,0,0,0,0,0,0,0,0,0,0,0,0,0,0,0,0,0,0,0,0,0,0,0,0,0,0,0,0,0,0,0,0,0,0,0,0,0,0,0,0,0,0,0,0,0,0,0,0,0,0,0,0,0,0,0,0,0,0,0,0,0,0,0,0,0,0,0,0,0,0,0,0,0,0,0,0,0,0,0,0,0,0,0,0,0,0,0,0,0,0,0,0,0,0,0,0,0,0,0,0,0,0,0,0,0,0,0,0,0,0,0,0,0,0,0,0,0,0,0,0,0,0,0,0,0,0,0,0,0,0,0,0,0,0,0,0,0,0,0,0,0,0,0,0,0,0,0,0,0,0,0,0,0,0,0,0,0,0,0,0,0,0,0,0,0,0,0,0,0,0,0,0,0,0,0,0,0,0,0,0,0,0,0,0,0,0,0,0,0,0,0,0,0,0,0,0,0,0,0,0,0,0,0,0,0,0,0,0,0,0,0,0,0,0,0,0,0,0,0,0,0,0,0,0,0,0,0,0,0,0,0,0,0,0,0,0,0,0,0,0,0,0,0,0,0,0,0,0,0,0,0,0,0,0,0,0,0,0,0,0,0,0,0,0,0,0,0,0,0,0,0,0,0,0,0,0,0,0,0,0,0,0,0,0,0,0,0,0,0,0,0,0,0,0,0,0,0,0,0,0,0,0,0,0,0,0,0,0,0,0,0,0,0,0,0,0,0,0,0,0,0,0,0,0,0,0,0,0,0,0,0,0,0,0,0,0,0,0,0,0,0,0,0,0,0,0,0,0,0,0,0,0,0,0,0,0,0,0,0,0,0,0,0,0,0,0,0,0,0,0,0,0,0,0,0,0,0,0,0,0,0,0,0,0,0,0,0,0,0,0,0,0,0,0,0,0,0,0,0,0,0,0,0,0,0,0,0,0,0,0,0,0,0,0,0,0,0,0,0,0,0,0,0,0,0,0,0,0,0,0,0,0,0,0,0,0,0,0,0,0,0,0,0,0,0,0,0,0,0,0,0,0,0,0,0,0,0,0,0,0,0,0,0,0,0,0,0,0,0,0,0,0,0,0,0,0,0,0,0,0,0,0,0,0,0,0,0,0,0,0,0,0,0,0,0,0,0,0,0,0,0,0,0,0,0,0,0,0,0,0,0,0,0,0,0,0,0,0,0,0,0,0,0,0,0,0,0,0,0,0,0,0,0,0,0,0,0,0,0,0,0,0,0,0,0,0,0,0,0,0,0,0,0,0,0,0,0,0,0,0,0,0,0,0,0,0,0,0,0,0,0,0,0,0,0,0,0,0,0,0,0,0,0,0,0,0,0,0,0,0,0,0,0,0,0,0,0,0,0,0,0,0,0,0,0,0,0,0,0,0,0,0,0,0,0,0,0,0,0,0,0,0,0,0,0,0,0,0,0,0,0,0,0,0,0,0,0,0,0,0,0,0,0,0,0,0,0,0,0,0,0,0,0,0,0,0,0,0,0,0,0,0,0,0,0,0,0,0,0,0,0,0,0,0,0,0,0,0,0,0,0,0,0,0,0,0,0,0,0,0,0,0,0,0,0,0,0,0,0,0,0,0,0,0,0,0,0,0,0,0,0,0,0,0,0,0,0,0,0,0,0,0,0,0,0,0,0,0,0,0,0,0,0,0,0,0,0,0,0,0,0,0,0,0,0,0,0,0,0,0,0,0,0,0,0,0,0,0,0,0,0,0,0,0,0,0,0,0,0,0,0,0,0,0,0,0,0,0,0,0,0,0,0,0,0,0,0,0,0,0,0,0,0,0,0,0,0,0,0,0,0,0,0,0,0,0,0,0,0,0,0,0,0,0,0,0,0,0,0,0,0,0,0,0,0,0,0,0,0,0,0,0,0,0,0,0,0,0,0,0,0,0,0,0,0,0,0,0,0,0,0,0,0,0,0,0,0,0,0,0,0,0,0,0,0,0,0,0,0,0,0,0,0,0,0,0,0,0,0,0,0,0,0,0,0,0,0,0,0,0,0,0,0,0,0,2,4,4,4,4,4,4,4,4,4,4,4,9,22,35,57,65,76,81,103,154,188,211,226,236,243,245,246,257,279,354,426,507,585,657,768,783,788,791,792,794,795,797,799,804,818,823,824,824,824,824,824,824,824,824,824,824,824,824,824,825,825,825,825,825,825,825,824,822,822,819,817,815,810,806,801,800,799,799,798,797,797,797,797,797,797,797,797,797,797,797,797,797,797,797,797,797,797,797,797,797,797,797,797,797,797,797,797,797,797,797,797,797,797,797,797,797,797,797,797,797,797,797,797,797,797,797,797,797,797,797,797,797,797,797,797,797,797,797,797,797,797,797,797,797,797,797,797,797,796,796,796,796,796,796,798,801,806,807,815,835,848,867,896,984,1030,1065,1076,1087,1090,1092,1092,1091,1091],"ymouse":[498,498,498,498,498,498,498,498,498,498,498,498,498,498,498,498,498,498,498,498,498,498,498,498,498,498,498,498,498,498,498,498,498,498,498,498,498,498,498,498,498,498,498,498,498,498,498,498,498,498,498,498,498,498,498,498,498,498,498,498,498,498,498,498,498,498,498,498,498,498,498,498,498,498,498,498,498,498,498,498,498,498,498,498,498,498,498,498,498,498,498,498,498,498,498,498,498,498,498,498,498,498,498,498,498,498,498,498,498,498,498,498,498,498,498,498,498,498,498,498,498,498,498,498,498,498,498,498,498,498,498,498,498,498,498,498,498,498,498,498,498,498,498,498,498,498,498,498,498,498,498,498,498,498,498,498,498,498,498,498,498,498,498,498,498,498,498,498,498,498,498,498,498,498,498,498,498,498,498,498,498,498,498,498,498,498,498,498,498,498,498,498,498,498,498,498,498,498,498,498,498,498,498,498,498,498,498,498,498,498,498,498,498,498,498,498,498,498,498,498,498,498,498,498,498,498,498,498,498,498,498,498,498,498,498,498,498,498,498,498,498,498,498,498,498,498,498,498,498,498,498,498,498,498,498,498,498,498,498,498,498,498,498,498,498,498,498,498,498,498,498,498,498,498,498,498,498,498,498,498,498,498,498,498,498,498,498,498,498,498,498,498,498,498,498,498,498,498,498,498,498,498,498,498,498,498,498,498,498,498,498,498,498,498,498,498,498,498,498,498,498,498,498,498,498,498,498,498,498,498,498,498,498,498,498,498,498,498,498,498,498,498,498,498,498,498,498,498,498,498,498,498,498,498,498,498,498,498,498,498,498,498,498,498,498,498,498,498,498,498,498,498,498,498,498,498,498,498,498,498,498,498,498,498,498,498,498,498,498,498,498,498,498,498,498,498,498,498,498,498,498,498,498,498,498,498,498,498,498,498,498,498,498,498,498,498,498,498,498,498,498,498,498,498,498,498,498,498,498,498,498,498,498,498,498,498,498,498,498,498,498,498,498,498,498,498,498,498,498,498,498,498,498,498,498,498,498,498,498,498,498,498,498,498,498,498,498,498,498,498,498,498,498,498,498,498,498,498,498,498,498,498,498,498,498,498,498,498,498,498,498,498,498,498,498,498,498,498,498,498,498,498,498,498,498,498,498,498,498,498,498,498,498,498,498,498,498,498,498,498,498,498,498,498,498,498,498,498,498,498,498,498,498,498,498,498,498,498,498,498,498,498,498,498,498,498,498,498,498,498,498,498,498,498,498,498,498,498,498,498,498,498,498,498,498,498,498,498,498,498,498,498,498,498,498,498,498,498,498,498,498,498,498,498,498,498,498,498,498,498,498,498,498,498,498,498,498,498,498,498,498,498,498,498,498,498,498,498,498,498,498,498,498,498,498,498,498,498,498,498,498,498,498,498,498,498,498,498,498,498,498,498,498,498,498,498,498,498,498,498,498,498,498,498,498,498,498,498,498,498,498,498,498,498,498,498,498,498,498,498,498,498,498,498,498,498,498,498,498,498,498,498,498,498,498,498,498,498,498,498,498,498,498,498,498,498,498,498,498,498,498,498,498,498,498,498,498,498,498,498,498,498,498,498,498,498,498,498,498,498,498,498,498,498,498,498,498,498,498,498,498,498,498,498,498,498,498,498,498,498,498,498,498,498,498,498,498,498,498,498,498,498,498,498,498,498,498,498,498,498,498,498,498,498,498,498,498,498,498,498,498,498,498,498,498,498,498,498,498,498,498,498,498,498,498,498,498,498,498,498,498,498,498,498,498,498,498,498,498,498,498,498,498,498,498,498,498,498,498,498,498,498,498,498,498,498,498,498,498,498,498,498,498,498,498,498,498,498,498,498,498,498,498,498,498,498,498,498,498,498,498,498,498,498,498,498,498,498,498,498,498,498,498,498,498,498,498,498,498,498,498,498,498,498,498,498,498,498,498,498,498,498,498,498,498,498,498,498,498,498,498,498,498,498,498,498,498,498,498,498,498,498,498,498,498,498,498,498,498,498,498,498,498,498,498,498,498,498,498,498,498,498,498,498,498,498,498,498,498,498,498,498,498,498,498,498,498,498,498,498,498,498,498,498,498,498,498,498,498,498,498,498,498,498,498,498,498,498,498,498,498,498,498,498,498,498,498,498,498,498,498,498,498,498,498,498,498,498,498,498,498,498,498,498,498,498,498,498,498,498,498,498,498,498,498,498,498,498,498,498,498,498,498,498,498,498,498,498,498,498,498,498,498,498,498,498,498,498,498,498,498,498,498,498,498,498,498,498,498,498,498,498,498,498,498,498,498,498,498,498,498,498,498,498,498,498,498,498,498,498,498,498,498,498,498,498,498,498,498,498,498,498,498,498,498,498,498,498,498,498,498,498,498,498,498,498,498,498,498,498,498,498,498,498,498,498,498,498,498,498,498,498,498,498,498,498,498,498,498,498,498,498,498,498,498,498,498,498,498,498,498,498,498,498,498,498,498,498,498,498,498,498,498,498,498,498,498,498,498,498,498,498,498,498,498,498,498,498,498,498,498,498,498,498,498,498,498,498,498,498,498,498,498,498,498,498,498,498,498,498,498,498,498,498,498,498,498,498,498,498,498,498,498,498,498,498,498,498,498,498,498,498,498,498,498,498,498,498,498,498,498,498,498,498,498,498,498,498,498,498,498,498,498,498,498,498,498,498,498,498,498,498,498,498,498,498,498,498,498,498,498,498,498,498,498,498,498,498,498,498,498,498,498,498,498,498,498,498,498,498,498,498,498,498,498,498,498,498,498,498,498,498,498,498,498,498,498,498,498,498,498,498,498,498,498,498,498,498,498,498,498,498,498,498,498,498,498,498,498,498,498,498,498,498,498,498,498,498,498,498,498,498,498,498,498,498,498,498,498,498,498,498,498,498,498,498,498,498,498,498,498,498,498,498,498,498,498,498,498,498,498,498,498,498,498,498,498,498,498,498,498,498,498,498,498,498,498,498,498,498,498,498,498,498,498,498,498,498,498,498,498,498,498,498,498,498,498,498,498,498,498,498,498,498,498,498,498,498,498,498,498,498,498,498,498,498,498,498,498,498,498,498,498,498,498,498,498,498,498,498,498,498,498,498,498,498,498,498,498,498,498,498,498,498,498,498,498,498,498,498,498,498,498,498,498,498,498,498,498,498,498,498,498,498,498,498,498,498,498,498,498,498,498,498,498,498,498,498,498,498,498,498,498,498,498,498,498,498,498,498,498,498,498,498,498,498,498,498,498,498,498,498,498,498,498,498,498,498,498,498,498,498,498,498,498,498,498,498,498,498,498,498,498,498,498,498,498,498,498,498,498,498,498,498,498,498,498,498,498,498,498,498,498,498,498,498,498,498,498,498,498,498,490,425,49,49,49,49,49,49,49,49,49,49,12,25,52,134,305,706,706,706,706,706,706,706,706,706,706,705,656,604,576,570,570,569,569,569,569,516,495,465,442,421,361,346,342,341,341,341,341,340,339,339,339,338,338,338,338,338,338,338,338,338,338,338,338,338,338,338,338,338,338,338,338,338,338,338,338,338,338,338,338,338,338,338,338,338,338,338,338,338,338,338,338,338,338,338,338,338,338,338,338,338,338,338,338,338,338,338,338,338,338,338,338,338,338,338,338,338,338,338,338,338,338,338,338,338,338,338,338,338,338,338,338,338,338,338,338,338,338,338,338,338,338,338,338,338,338,338,338,338,338,338,338,338,338,338,338,338,338,338,338,338,338,338,338,338,338,338,338,338,338,338,338,338,338,338,338,338,338,338,338,338,338,338,338,338,338,338,338,338,338,338,338,338,338,338,338,338,338,338,338,338,338,338,338,338,338,338,338,338,338,338,338,338,338,338,338,338,338,338,338,338,338,338,338,338,338,338,338,338,338,338,338,338,338,338,338,338,338,338,338,338,338,338,338,338,338,338,338,338,338,338,338,338,338,338,338,338,338,338,338,338,338,338,338,338,338,338,338,338,338,338,338,338,338,338,338,338,338,338,338,338,338,338,338,338,338,338,338,338,338,338,338,338,338,338,338,338,338,338,338,338,338,338,338,338,338,338,338,338,338,338,338,338,338,338,338,338,338,338,338,338,338,338,338,338,338,338,338,338,338,338,338,338,338,338,338,338,338,338,338,338,338,338,338,338,338,338,338,338,338,338,338,338,338,338,338,338,338,338,338,338,338,338,338,338,338,338,338,338,338,338,338,338,338,338,338,338,338,338,338,338,338,338,338,338,338,338,338,338,338,338,338,338,338,338,338,338,338,338,338,338,338,338,338,338,338,338,338,338,338,338,338,338,338,338,338,338,338,338,338,338,338,338,338,338,338,338,338,338,338,338,338,338,338,338,338,338,338,338,338,338,338,338,338,338,338,338,338,338,338,338,338,338,338,338,338,338,338,338,338,338,338,338,338,338,338,338,338,338,338,338,338,338,338,338,338,338,338,338,338,338,338,338,338,338,338,338,338,338,338,338,338,338,338,338,338,338,338,338,338,338,338,338,338,338,338,338,338,338,338,338,338,338,338,338,338,338,338,338,338,338,338,338,338,338,338,338,338,338,338,338,338,338,338,338,338,338,338,338,338,338,338,338,338,338,338,338,338,338,338,338,338,338,338,338,338,338,338,338,338,338,338,338,338,338,338,338,338,338,338,338,338,338,338,338,338,338,338,338,338,338,338,338,338,338,338,338,338,338,338,338,338,338,338,338,338,338,338,338,338,338,338,338,338,338,338,338,338,338,338,338,338,338,338,338,338,338,338,338,338,338,338,338,338,338,338,338,338,338,338,338,338,338,338,338,338,338,338,338,338,338,338,338,338,338,338,338,338,338,338,338,338,338,338,338,338,338,338,338,338,338,338,338,338,338,338,338,338,338,338,338,338,338,338,338,338,338,338,338,338,338,338,338,338,338,338,338,338,338,338,338,338,338,338,338,338,338,338,338,338,338,338,338,338,338,338,338,338,338,338,338,338,338,338,338,338,338,338,338,338,338,338,338,338,338,338,338,338,338,338,338,338,338,338,338,338,338,338,338,338,338,338,338,338,338,338,338,338,338,338,338,338,338,338,338,338,338,338,338,338,338,338,338,338,338,338,338,338,338,338,338,338,338,338,338,338,338,338,338,338,338,338,338,338,338,338,338,338,338,338,338,338,338,338,338,338,338,338,338,338,338,338,338,338,338,338,338,338,338,338,338,338,338,338,338,338,338,338,338,338,338,338,338,338,338,338,338,338,338,338,338,338,338,338,338,338,338,338,338,338,338,338,338,338,338,338,338,338,338,338,338,338,338,338,338,338,338,338,338,338,338,338,338,338,338,338,338,338,338,338,338,338,338,338,338,338,338,338,338,338,338,338,338,338,338,338,338,338,338,338,338,338,338,338,338,338,338,338,338,338,338,338,338,338,338,338,338,338,338,338,338,338,338,338,338,338,338,338,338,338,338,338,338,338,338,338,338,338,338,338,338,338,338,338,338,338,338,338,338,338,338,338,338,338,338,338,338,338,338,338,338,338,338,338,338,338,338,338,338,338,338,338,338,338,338,338,338,338,338,338,338,338,338,338,338,338,338,338,338,338,338,338,338,338,338,338,338,338,338,338,338,338,338,338,338,338,338,338,338,338,338,338,338,338,338,338,338,338,338,338,338,338,338,338,338,338,338,338,338,338,338,338,338,338,338,338,338,338,338,338,338,338,338,338,338,338,338,338,338,338,338,338,338,338,338,338,338,338,338,338,338,338,338,338,338,338,338,338,338,338,338,338,338,338,338,338,338,338,338,338,338,338,338,338,338,338,338,338,338,338,338,338,338,338,338,338,338,338,338,338,338,338,338,338,338,338,338,338,338,338,338,338,338,338,338,338,338,338,338,338,338,338,338,338,338,338,338,338,338,338,338,338,338,338,338,338,338,338,338,338,338,338,338,338,338,338,338,338,338,338,338,338,338,338,338,338,338,338,338,338,338,338,338,338,338,338,338,338,338,338,338,338,338,338,338,338,338,338,338,338,338,338,338,338,338,338,338,338,338,338,338,338,338,338,338,338,338,338,338,338,338,338,338,338,338,338,338,338,338,338,338,338,338,338,338,338,338,338,338,338,338,338,338,338,338,338,338,338,338,338,338,338,338,338,338,338,338,338,338,338,338,338,338,338,338,338,338,338,338,338,338,338,338,338,338,338,338,338,338,338,338,338,338,338,338,338,338,338,338,338,338,338,338,338,338,338,338,338,338,338,338,338,338,338,338,338,338,338,338,338,338,338,338,338,338,338,338,338,338,338,338,338,338,338,338,338,338,338,338,338,338,338,338,338,338,338,338,338,338,338,338,338,338,338,338,338,338,338,338,338,338,338,338,338,338,338,338,338,338,338,338,338,338,338,338,338,338,338,338,338,338,338,338,338,338,338,338,338,338,338,338,338,338,338,338,338,338,338,338,338,338,338,338,338,338,338,338,338,338,338,338,338,338,338,338,338,338,338,338,338,338,338,338,338,338,338,338,338,338,338,338,338,338,338,338,338,338,338,338,338,338,338,338,338,338,338,338,338,338,338,338,338,338,338,338,338,338,338,338,338,338,338,338,338,337,332,322,320,320,319,323,334,343,355,359,366,369,370,370,370,370,370,360,358,358,358,358,358,342,325,317,312,311,308,306,298,283,273,267,265,264,264,264,264,295,342,424,460,486,494,491,465,452,444,437,433,430,429,427,425,424,417,414,413,413,413,423,433,441,448,458,467,468,468,468,468,468,468,469,469,469,469,472,475,478,480,490,493,498,504,510,519,520,522,523,525,526,526,527,527,527,527,527,527,527,527,527,527,527,527,527,527,527,527,527,527,527,527,527,527,527,527,527,527,527,527,527,527,527,527,527,527,527,527,527,527,527,527,527,527,527,527,527,527,527,527,527,527,527,527,527,527,527,527,527,527,527,527,527,527,527,527,527,527,527,527,527,527,527,527,507,479,467,443,431,394,363,353,329,288,228,216,207,200,172,150,119,107,101,92],"timestamp_mouse":[9,34,44,66,84,104,125,145,165,184,204,225,245,264,284,304,324,344,365,384,404,425,444,464,484,505,525,545,564,584,604,625,644,664,684,705,724,744,764,785,805,824,844,864,884,904,924,945,964,984,1004,1024,1045,1064,1084,1104,1124,1144,1164,1185,1205,1224,1246,1264,1284,1306,1324,1344,1365,1384,1404,1425,1444,1464,1484,1504,1524,1545,1565,1584,1604,1624,1644,1665,1684,1704,1724,1744,1764,1784,1805,1824,1844,1866,1885,1906,1925,1945,1964,1984,2004,2024,2044,2065,2084,2104,2124,2145,2165,2184,2204,2226,2244,2264,2284,2304,2324,2344,2365,2384,2405,2426,2444,2464,2484,2504,2525,2544,2564,2584,2605,2624,2644,2665,2686,2704,2724,2744,2765,2784,2805,2824,2844,2865,2886,2905,2926,2944,2964,2984,3005,3026,3044,3064,3084,3104,3125,3145,3164,3184,3205,3225,3244,3264,3286,3304,3325,3345,3365,3384,3405,3424,3445,3464,3484,3504,3525,3544,3564,3584,3604,3625,3646,3664,3684,3704,3724,3744,3764,3786,3804,3824,3844,3864,3885,3904,3925,3945,3965,3984,4004,4024,4044,4065,4085,4104,4124,4144,4165,4185,4206,4225,4244,4264,4285,4305,4325,4344,4364,4385,4404,4425,4444,4464,4484,4504,4524,4546,4564,4584,4605,4625,4644,4664,4684,4704,4724,4744,4764,4785,4805,4825,4844,4865,4884,4904,4924,4946,4965,4984,5004,5024,5044,5071,5084,5104,5124,5144,5165,5184,5204,5224,5244,5265,5285,5305,5324,5344,5364,5386,5404,5424,5445,5465,5486,5504,5524,5545,5564,5584,5604,5624,5644,5665,5686,5704,5726,5744,5764,5784,5804,5825,5844,5865,5886,5905,5924,5944,5964,5984,6004,6024,6044,6065,6085,6105,6125,6144,6165,6184,6204,6224,6244,6264,6284,6305,6325,6346,6364,6384,6404,6425,6444,6464,6484,6504,6524,6544,6564,6584,6604,6624,6644,6664,6684,6704,6725,6746,6765,6785,6804,6824,6844,6864,6884,6905,6924,6944,6964,6986,7004,7024,7045,7065,7085,7104,7124,7144,7164,7184,7204,7225,7244,7264,7284,7304,7325,7344,7364,7384,7404,7426,7444,7464,7485,7504,7525,7545,7564,7584,7604,7624,7644,7664,7684,7705,7724,7744,7766,7785,7804,7824,7844,7864,7884,7904,7924,7944,7964,7984,8004,8024,8044,8064,8084,8104,8124,8144,8164,8184,8204,8225,8245,8264,8284,8305,8325,8344,8364,8384,8404,8425,8445,8465,8486,8504,8524,8544,8564,8586,8604,8624,8644,8666,8686,8705,8724,8744,8765,8784,8804,8825,8844,8866,8886,8904,8925,8944,8964,8986,9004,9024,9044,9065,9084,9104,9125,9144,9165,9184,9205,9224,9244,9264,9284,9304,9325,9344,9365,9384,9404,9426,9445,9465,9484,9504,9524,9544,9565,9585,9604,9625,9645,9665,9684,9704,9724,9745,9766,9784,9804,9824,9845,9865,9886,9905,9925,9944,9965,9984,10004,10024,10045,10065,10084,10104,10124,10145,10165,10184,10204,10225,10245,10264,10284,10304,10324,10344,10365,10385,10404,10425,10445,10465,10484,10504,10524,10544,10564,10584,10605,10624,10645,10664,10684,10705,10724,10744,10764,10785,10805,10824,10844,10865,10884,10905,10924,10944,10965,10985,11005,11024,11045,11064,11084,11106,11125,11144,11165,11184,11206,11224,11245,11264,11284,11305,11324,11344,11364,11384,11404,11424,11444,11465,11484,11504,11524,11544,11565,11584,11605,11625,11644,11664,11685,11704,11724,11745,11764,11784,11804,11825,11844,11864,11885,11904,11924,11944,11965,11985,12004,12025,12044,12064,12084,12104,12124,12145,12164,12184,12204,12224,12245,12265,12284,12305,12324,12344,12364,12386,12405,12425,12444,12464,12484,12505,12525,12544,12564,12584,12604,12624,12645,12664,12684,12704,12725,12745,12764,12784,12804,12824,12845,12865,12886,12904,12924,12944,12965,12984,13005,13024,13045,13065,13086,13104,13124,13145,13166,13184,13204,13225,13245,13265,13284,13304,13324,13345,13365,13384,13404,13424,13444,13465,13486,13505,13524,13544,13564,13584,13604,13625,13644,13664,13684,13705,13725,13744,13764,13784,13804,13824,13844,13865,13884,13904,13924,13944,13964,13984,14004,14024,14046,14065,14085,14105,14124,14144,14164,14184,14204,14224,14246,14265,14284,14304,14324,14344,14364,14384,14405,14425,14445,14464,14484,14504,14524,14544,14564,14584,14605,14624,14644,14665,14684,14704,14725,14745,14765,14784,14804,14824,14844,14865,14885,14905,14925,14945,14965,14984,15005,15025,15045,15065,15084,15104,15124,15144,15165,15185,15205,15224,15244,15265,15284,15305,15325,15344,15364,15384,15404,15424,15445,15464,15484,15504,15524,15545,15564,15584,15604,15625,15644,15664,15684,15704,15725,15744,15764,15784,15805,15824,15845,15865,15884,15906,15925,15944,15966,15984,16005,16024,16045,16064,16086,16105,16125,16144,16164,16186,16205,16224,16245,16265,16284,16305,16324,16344,16364,16384,16404,16424,16445,16464,16484,16505,16524,16545,16566,16585,16605,16624,16644,16664,16684,16705,16724,16744,16764,16785,16805,16824,16844,16865,16886,16905,16924,16944,16965,16986,17004,17024,17044,17064,17084,17104,17124,17144,17164,17184,17204,17224,17245,17264,17284,17304,17324,17344,17364,17384,17406,17424,17444,17464,17484,17505,17524,17545,17564,17586,17604,17624,17644,17665,17684,17704,17724,17744,17765,17784,17804,17825,17845,17864,17884,17904,17924,17945,17965,17985,18005,18024,18044,18064,18084,18104,18125,18145,18164,18184,18204,18226,18246,18265,18284,18304,18324,18344,18364,18384,18404,18424,18445,18464,18485,18505,18525,18544,18564,18586,18605,18625,18644,18665,18686,18705,18724,18744,18764,18785,18805,18824,18844,18865,18885,18905,18924,18944,18965,18984,19004,19024,19045,19066,19084,19104,19125,19144,19164,19184,19205,19225,19245,19264,19286,19305,19324,19344,19365,19385,19404,19425,19444,19465,19485,19504,19524,19544,19564,19584,19604,19625,19644,19665,19685,19704,19724,19745,19764,19784,19805,19824,19844,19864,19885,19904,19925,19945,19964,19984,20004,20024,20045,20064,20084,20105,20125,20145,20164,20184,20205,20224,20245,20264,20285,20305,20324,20344,20364,20385,20404,20424,20444,20465,20484,20504,20524,20544,20565,20584,20606,20625,20645,20664,20684,20705,20724,20744,20764,20786,20805,20824,20845,20865,20884,20905,20925,20944,20964,20986,21005,21024,21044,21066,21084,21105,21124,21146,21164,21184,21204,21224,21244,21265,21284,21305,21324,21345,21365,21384,21405,21424,21444,21464,21484,21504,21526,21544,21564,21584,21604,21625,21645,21664,21684,21704,21724,21744,21764,21784,21804,21826,21844,21865,21884,21904,21924,21944,21964,21984,22005,22025,22044,22065,22086,22104,22124,22145,22164,22184,22206,22224,22244,22264,22285,22304,22324,22344,22365,22384,22404,22425,22444,22464,22485,22505,22524,22544,22565,22584,22605,22624,22644,22665,22684,22704,22724,22744,22764,22784,22804,22825,22845,22864,22885,22904,22924,22945,22964,22984,23005,23024,23044,23064,23084,23104,23124,23145,23164,23184,23205,23225,23245,23264,23284,23304,23325,23344,23364,23385,23404,23425,23444,23465,23484,23505,23524,23545,23564,23585,23604,23625,23644,23664,23684,23705,23725,23745,23765,23785,23804,23825,23845,23865,23885,23905,23924,23944,23965,23984,24004,24024,24045,24064,24084,24105,24125,24144,24165,24186,24204,24224,24244,24265,24284,24304,24324,24344,24366,24384,24404,24424,24444,24464,24485,24505,24524,24544,24565,24586,24605,24625,24644,24665,24686,24705,24724,24744,24764,24784,24805,24825,24846,24864,24884,24905,24925,24945,24965,24984,25004,25024,25045,25064,25084,25104,25124,25145,25165,25184,25204,25224,25245,25265,25284,25304,25324,25344,25365,25384,25404,25424,25445,25465,25484,25504,25524,25544,25565,25584,25604,25625,25645,25665,25684,25705,25726,25744,25764,25784,25804,25824,25844,25864,25884,25905,25924,25944,25964,25984,26004,26024,26045,26064,26086,26104,26124,26144,26165,26186,26204,26224,26244,26264,26285,26305,26325,26345,26364,26384,26404,26424,26445,26464,26486,26504,26524,26544,26565,26584,26605,26625,26645,26664,26684,26704,26724,26744,26764,26784,26804,26824,26844,26865,26884,26904,26924,26945,26965,26984,27004,27024,27044,27064,27084,27105,27124,27145,27165,27185,27205,27224,27245,27264,27284,27305,27324,27345,27364,27384,27404,27424,27446,27464,27484,27504,27524,27545,27565,27584,27605,27624,27644,27664,27685,27705,27724,27744,27765,27785,27804,27824,27845,27865,27884,27904,27924,27944,27965,27984,28005,28024,28045,28064,28084,28104,28124,28146,28165,28184,28204,28224,28245,28264,28284,28304,28324,28344,28364,28384,28406,28425,28444,28464,28484,28505,28524,28545,28564,28584,28604,28625,28645,28665,28686,28705,28724,28744,28764,28784,28804,28824,28844,28865,28885,28904,28924,28944,28964,28984,29005,29025,29045,29065,29084,29104,29125,29145,29164,29184,29205,29225,29244,29264,29284,29304,29325,29346,29365,29384,29404,29425,29445,29464,29484,29505,29524,29544,29565,29584,29604,29624,29644,29664,29684,29705,29725,29744,29764,29784,29804,29824,29844,29864,29885,29904,29925,29944,29964,29985,30005,30024,30044,30064,30084,30105,30125,30144,30165,30186,30205,30225,30244,30264,30284,30305,30324,30344,30365,30384,30404,30424,30444,30464,30485,30504,30524,30544,30564,30584,30604,30625,30644,30664,30684,30704,30724,30745,30766,30785,30804,30824,30844,30866,30885,30905,30924,30944,30964,30985,31004,31024,31044,31065,31084,31105,31124,31145,31164,31184,31204,31224,31244,31264,31285,31305,31325,31344,31364,31385,31405,31424,31444,31464,31484,31504,31524,31544,31564,31585,31604,31624,31644,31664,31684,31704,31724,31744,31766,31784,31805,31824,31844,31864,31885,31904,31925,31944,31966,31984,32004,32024,32044,32064,32084,32104,32124,32144,32164,32185,32204,32225,32245,32266,32284,32304,32324,32344,32364,32384,32404,32425,32445,32466,32484,32504,32524,32544,32564,32584,32604,32624,32644,32666,32684,32705,32724,32744,32766,32784,32805,32824,32845,32865,32884,32906,32925,32944,32964,32984,33005,33024,33045,33065,33084,33104,33124,33144,33166,33185,33205,33225,33244,33266,33285,33305,33325,33344,33364,33384,33404,33424,33444,33464,33484,33504,33524,33545,33564,33585,33604,33624,33644,33665,33684,33705,33725,33744,33766,33785,33804,33824,33844,33866,33884,33905,33925,33945,33966,33984,34004,34024,34044,34064,34084,34104,34124,34144,34164,34184,34204,34224,34244,34264,34284,34304,34324,34344,34366,34384,34404,34424,34444,34466,34485,34505,34524,34544,34564,34584,34604,34625,34645,34664,34684,34705,34724,34745,34764,34784,34804,34825,34845,34864,34885,34904,34925,34945,34966,34984,35004,35024,35045,35066,35085,35105,35124,35144,35164,35184,35204,35224,35244,35264,35284,35304,35326,35344,35364,35385,35405,35424,35444,35464,35484,35504,35524,35544,35566,35584,35605,35624,35644,35664,35685,35704,35724,35744,35764,35784,35805,35825,35844,35865,35885,35905,35925,35944,35964,35984,36004,36024,36045,36066,36084,36106,36124,36144,36165,36185,36204,36224,36244,36266,36284,36304,36324,36344,36364,36384,36404,36425,36445,36464,36485,36504,36524,36544,36564,36585,36604,36624,36644,36664,36684,36704,36724,36744,36764,36784,36804,36825,36845,36865,36884,36904,36925,36944,36964,36984,37004,37025,37044,37064,37085,37104,37124,37144,37165,37184,37204,37225,37244,37264,37284,37305,37324,37344,37364,37384,37404,37424,37444,37465,37484,37504,37525,37544,37566,37584,37604,37624,37644,37666,37684,37706,37725,37745,37766,37785,37805,37824,37844,37864,37885,37904,37924,37944,37964,37984,38005,38024,38044,38064,38084,38104,38125,38144,38164,38184,38204,38225,38244,38265,38284,38304,38324,38344,38364,38384,38404,38425,38445,38464,38485,38504,38525,38544,38564,38585,38604,38624,38644,38666,38684,38704,38724,38744,38766,38785,38805,38824,38845,38864,38884,38904,38925,38944,38964,38984,39004,39024,39044,39065,39084,39104,39124,39144,39165,39184,39205,39224,39244,39264,39284,39304,39324,39344,39364,39385,39405,39425,39444,39464,39484,39504,39524,39544,39566,39584,39605,39624,39644,39666,39684,39705,39724,39744,39764,39784,39804,39824,39844,39867,39884,39904,39924,39944,39964,39984,40004,40024,40044,40065,40085,40104,40124,40144,40164,40184,40204,40224,40244,40266,40284,40304,40325,40344,40366,40385,40404,40424,40444,40466,40485,40505,40524,40544,40564,40584,40604,40624,40644,40664,40684,40704,40724,40745,40765,40785,40804,40824,40844,40865,40884,40904,40924,40944,40966,40984,41005,41024,41044,41064,41084,41105,41125,41145,41164,41184,41204,41224,41244,41266,41284,41304,41324,41346,41365,41384,41404,41424,41445,41464,41485,41504,41524,41545,41564,41584,41604,41624,41644,41664,41685,41704,41724,41744,41765,41784,41804,41824,41844,41866,41885,41905,41925,41945,41965,41984,42005,42024,42044,42065,42085,42105,42125,42144,42164,42184,42204,42225,42244,42264,42285,42304,42325,42345,42364,42384,42404,42424,42444,42464,42484,42504,42524,42545,42565,42585,42604,42624,42644,42664,42684,42704,42724,42745,42764,42784,42804,42824,42845,42866,42884,42904,42925,42944,42964,42984,43004,43024,43044,43065,43084,43104,43124,43144,43166,43184,43204,43224,43245,43266,43285,43304,43324,43344,43366,43384,43405,43425,43445,43465,43485,43505,43525,43545,43564,43585,43604,43624,43644,43664,43684,43704,43725,43744,43764,43784,43804,43824,43844,43866,43884,43905,43925,43945,43966,43984,44004,44024,44044,44064,44084,44104,44124,44144,44166,44184,44204,44224,44244,44266,44284,44304,44324,44345,44364,44384,44404,44424,44444,44464,44484,44504,44524,44544,44564,44584,44605,44625,44644,44664,44684,44704,44724,44744,44765,44785,44804,44824,44844,44866,44884,44905,44924,44945,44965,44984,45004,45025,45045,45064,45085,45104,45124,45144,45164,45184,45204,45224,45244,45266,45284,45305,45324,45344,45366,45384,45404,45425,45444,45465,45484,45504,45524,45544,45564,45584,45604,45625,45645,45664,45684,45704,45724,45744,45766,45784,45805,45825,45844,45864,45885,45905,45925,45945,45966,45984,46004,46024,46044,46064,46084,46104,46124,46144,46165,46184,46204,46224,46244,46266,46284,46305,46324,46345,46365,46384,46404,46424,46445,46466,46484,46504,46524,46544,46564,46584,46604,46624,46644,46664,46685,46704,46724,46744,46764,46784,46805,46825,46845,46866,46885,46904,46924,46944,46964,46985,47004,47025,47044,47064,47084,47104,47124,47144,47164,47184,47204,47225,47244,47264,47284,47304,47325,47344,47364,47384,47404,47425,47445,47464,47484,47504,47525,47544,47564,47584,47605,47624,47644,47666,47684,47704,47724,47744,47764,47784,47804,47824,47844,47866,47884,47905,47925,47945,47964,47984,48004,48024,48044,48066,48084,48104,48124,48145,48166,48185,48205,48225,48244,48264,48284,48305,48325,48345,48365,48384,48404,48424,48444,48466,48484,48504,48524,48544,48566,48584,48605,48624,48644,48665,48685,48704,48724,48744,48765,48784,48804,48824,48844,48864,48884,48904,48924,48944,48966,48984,49005,49025,49045,49065,49085,49104,49124,49144,49164,49184,49204,49224,49244,49266,49284,49306,49326,49344,49366,49385,49404,49424,49444,49464,49484,49504,49524,49544,49564,49584,49604,49624,49644,49664,49684,49704,49724,49744,49764,49784,49804,49824,49844,49864,49885,49904,49924,49944,49964,49984,50004,50025,50045,50065,50084,50104,50125,50144,50166,50184,50204,50224,50244,50265,50285,50304,50324,50344,50365,50384,50404,50424,50444,50464,50484,50505,50525,50545,50564,50584,50604,50624,50644,50664,50684,50704,50724,50744,50766,50784,50805,50825,50845,50864,50885,50904,50924,50944,50964,50984,51004,51024,51044,51066,51085,51105,51124,51144,51164,51184,51204,51225,51245,51266,51284,51305,51325,51345,51365,51385,51404,51424,51444,51464,51485,51505,51525,51545,51564,51584,51604,51625,51645,51665,51684,51704,51724,51744,51765,51784,51804,51824,51844,51865,51884,51905,51924,51944,51964,51984,52005,52025,52045,52065,52085,52105,52125,52145,52166,52184,52204,52224,52244,52265,52285,52304,52324,52344,52365,52384,52404,52424,52445,52466,52485,52504,52525,52546,52566,52585,52605,52624,52645,52665,52685,52705,52725,52745,52764,52785,52804,52824,52844,52865,52885,52906,52925,52944,52966,52985,53006,53025,53044,53064,53084,53104,53125,53145,53165,53184,53204,53225,53244,53266,53285,53304,53324,53344,53364,53384,53404,53424,53444,53465,53484,53505,53525,53545,53565,53585,53605,53625,53645,53664,53684,53704,53725,53745,53766,53785,53804,53825,53845,53867,53885,53905,53924,53945,53966,53984,54004,54024,54044,54064,54084,54104,54124,54145,54164,54184,54205,54225,54245,54266,54284,54304,54324,54344,54365,54384,54404,54424,54445,54464,54485,54505,54525,54545,54566,54585,54604,54624,54644,54665,54685,54706,54724,54744,54766,54784,54804,54824,54845,54865,54884,54904,54924,54945,54965,54985,55005,55024,55044,55064,55084,55104,55124,55144,55164,55184,55204,55224,55245,55265,55284,55305,55325,55345,55365,55385,55405,55425,55445,55464,55485,55504,55525,55545,55564,55584,55605,55625,55645,55664,55685,55705,55725,55745,55766,55784,55806,55825,55845,55864,55885,55904,55924,55944,55964,55984,56004,56024,56044,56065,56084,56105,56125,56145,56165,56185,56205,56225,56245,56266,56285,56304,56324,56344,56364,56384,56404,56425,56444,56464,56485,56504,56525,56544,56564,56584,56605,56625,56645,56664,56684,56704,56725,56745,56766,56784,56805,56825,56845,56866,56885,56905,56924,56944,56966,56984,57004,57024,57044,57064,57085,57104,57124,57144,57164,57184,57204,57225,57245,57265,57285,57305,57325,57345,57366,57385,57405,57425,57445,57464,57485,57505,57524,57544,57564,57584,57605,57625,57645,57664,57684,57705,57724,57744,57765,57785,57805,57825,57845,57865,57885,57905,57925,57945,57965,57985,58004,58024,58044,58064,58084,58104,58125,58146,58164,58185,58204,58225,58245,58264,58285,58304,58324,58344,58365,58384,58406,58425,58444,58464,58484,58504,58524,58544,58566,58584,58605,58625,58645,58666,58684,58704,58725,58744,58764,58784,58804,58825,58844,58864,58884,58904,58924,58944,58964,58984,59005,59025,59045,59066,59084,59105,59125,59145,59164,59185,59205,59224,59245,59264,59284,59305,59325,59345,59365,59385,59404,59424,59444,59464,59484,59504,59525,59545,59566,59585,59605,59625,59645,59664,59684,59704,59724,59745,59764,59784,59804,59824,59844,59866,59884,59904,59924,59944,59964,59984,60004,60025,60044,60064,60084,60105,60125,60146,60164,60184,60204,60224,60245,60264,60284,60304,60325,60345,60364,60384,60404,60425,60446,60465,60484,60505,60524,60544,60565,60585,60605,60625,60644,60665,60685,60705,60724,60744,60764,60784,60805,60824,60844,60866,60885,60905,60924,60945,60966,60986,61005,61025,61045,61064,61084,61104,61125,61145,61165,61186,61205,61224,61244,61265,61286,61305,61324,61344,61364,61384,61404,61424,61445,61465,61486,61505,61524,61545,61566,61584,61604,61626,61646,61665,61684,61704,61724,61745,61765,61784,61805,61824,61844,61866,61884,61905,61925,61944,61965,61985,62005,62024,62045],"xSR":741.5,"ySR":481,"xT1":424.9,"yT1":0,"xT2":1058.1,"yT2":0,"toosoon":0,"cond_shown":"randomdotsizeEA","ratio_trial":750,"smaller_num":"3","larger_num":"4","correct_side":1,"subjID":"martinmarulanda17","gender":"0","age":"9","school":"4"},{"start_time":1552309572812,"click_time":1552309575993,"finger_time":1552309574392,"fix_duration":1497.7130655330998,"trial":33,"RT":1580,"MT":1601,"sideResp":2,"stimulus":"img/750/equaldotanddens/R/4_Ratio_750_L_15_R_20.png","xmouse":[785,785,785,785,785,785,785,785,785,785,785,785,785,785,785,785,785,785,785,785,785,785,785,785,785,785,785,785,785,785,785,785,785,785,785,785,785,787,787,785,780,778,780,784,801,804,805,808,809,810,810,810,810,810,810,810,810,810,810,810,810,810,810,810,810,811,811,811,811,811,811,811,811,811,811,811,817,822,834,862,872,877,882,885,896,905,914,918,921,925,928,934,944,952,969,976,981,985,987,992,994,997,1002,1006,1024,1042,1060,1079,1096,1125,1146,1183,1207,1230,1250,1256,1263,1268,1274,1283,1285,1285,1285,1280,1274,1270,1269,1266,1259,1259,1254,1249,1245,1238,1233,1232,1230,1230,1230,1222,1221,1213,1203,1196,1192,1187,1187,1187,1187,1176,1171,1169,1169,1166,1164,1161,1161,1161,1161,1152],"ymouse":[537,537,537,537,537,537,537,537,537,537,537,537,537,537,537,537,537,537,537,537,537,537,537,537,537,537,537,537,537,537,537,537,537,537,537,537,537,538,538,538,538,537,537,538,543,544,544,545,545,546,546,546,