[{"start_time":1552074574686,"click_time":1552074575557,"finger_time":1552074575498,"fix_duration":864.5898021456104,"trial":0,"RT":812,"MT":59,"sideResp":1,"stimulus":"img/250/randomdotsizeEA/R/6_Ratio_250_L_6_R_24.png","xmouse":[810,810,810,810,810,810,810,810,810,810,810,810,810,810,810,810,810,810,810,810,810,810,810,810,810,810,810,810,810,810,810,810,810,810,810,810,810,810,798,779,710,586,529,500],"ymouse":[552,552,552,552,552,552,552,552,552,552,552,552,552,552,552,552,552,552,552,552,552,552,552,552,552,552,552,552,552,552,552,552,552,552,552,552,552,552,526,484,371,184,91,43],"timestamp_mouse":[10,48,50,72,91,112,132,150,171,192,210,230,252,272,292,312,331,351,371,392,412,431,451,472,490,511,532,552,570,590,611,631,651,672,692,710,731,751,770,790,812,832,852,870],"xSR":741.5,"ySR":501.8,"xT1":424.9,"yT1":0,"xT2":1058.1,"yT2":0,"toosoon":0,"cond_shown":"randomdotsizeEA","ratio_trial":250,"smaller_num":"6","larger_num":"24","correct_side":2,"subjID":"Mathias Alejandro Moreno 28","gender":"0","age":"9","school":"4","test":{"fix_dur":[250,1500],"timestim":300,"targets_dim":[100,100],"targets_relative_coord":[0.3,0.7],"size_stim":[880,420],"start_dim":[100,100],"size_start":[300,300],"size_fix":60,"samplingrate":20,"img_types":["equaldotsize","equaldotanddens","randomdotsizeEA"],"ratios":[250,500,750,900],"rep_conds":9,"nTrials":120,"trials_to_rest":500,"Trials_order":[38,53,96,11,9,24,70,64,63,103,59,39,34,40,47,75,45,19,71,22,55,31,61,1,109,115,107,101,25,106,105,119,18,21,110,91,23,58,46,16,27,49,113,68,62,48,117,92,82,90,81,73,97,72,7,86,4,100,116,66,37,112,0,6,13,89,80,79,67,93,95,42,88,108,26,8,111,17,57,94,32,69,84,99,76,12,98,56,44,30,36,114,33,74,51,50,102,77,65,118,2,28,52,29,60,10,78,5,35,104,41,20,14,15,54,87,83,85,3,43],"cond_shown":["randomdotsizeEA","randomdotsizeEA","equaldotsize","randomdotsizeEA","equaldotsize","equaldotsize","equaldotanddens","equaldotanddens","equaldotsize","equaldotanddens","randomdotsizeEA","equaldotsize","equaldotanddens","equaldotanddens","randomdotsizeEA","equaldotsize","equaldotsize","equaldotanddens","randomdotsizeEA","equaldotanddens","equaldotanddens","equaldotanddens","equaldotanddens","equaldotanddens","equaldotanddens","equaldotanddens","randomdotsizeEA","randomdotsizeEA","equaldotanddens","equaldotanddens","equaldotsize","randomdotsizeEA","equaldotsize","equaldotsize","randomdotsizeEA","equaldotanddens","randomdotsizeEA","equaldotanddens","equaldotanddens","equaldotanddens","equaldotsize","equaldotanddens","randomdotsizeEA","randomdotsizeEA","randomdotsizeEA","equaldotsize","equaldotsize","randomdotsizeEA","equaldotanddens","equaldotsize","equaldotsize","equaldotanddens","equaldotanddens","equaldotsize","equaldotanddens","randomdotsizeEA","equaldotanddens","equaldotanddens","randomdotsizeEA","equaldotsize","equaldotanddens","equaldotanddens","equaldotsize","equaldotsize","equaldotanddens","randomdotsizeEA","randomdotsizeEA","equaldotanddens","equaldotanddens","equaldotsize","randomdotsizeEA","equaldotsize","equaldotanddens","equaldotsize","randomdotsizeEA","randomdotsizeEA","equaldotsize","randomdotsizeEA","equaldotsize","equaldotanddens","randomdotsizeEA","equaldotsize","equaldotsize","equaldotsize","equaldotanddens","equaldotsize","randomdotsizeEA","randomdotsizeEA","randomdotsizeEA","equaldotsize","equaldotsize","equaldotsize","equaldotsize","randomdotsizeEA","equaldotsize","randomdotsizeEA","equaldotsize","randomdotsizeEA","randomdotsizeEA","equaldotanddens","randomdotsizeEA","equaldotanddens","equaldotanddens","randomdotsizeEA","equaldotsize","equaldotanddens","equaldotsize","randomdotsizeEA","randomdotsizeEA","randomdotsizeEA","randomdotsizeEA","randomdotsizeEA","randomdotsizeEA","equaldotsize","equaldotsize","equaldotsize","randomdotsizeEA","equaldotanddens","equaldotsize","equaldotanddens"],"ratio_trial":[250,500,250,900,900,250,900,500,500,750,900,500,900,500,900,500,900,750,900,900,750,750,250,250,250,750,900,500,250,900,900,900,750,900,250,750,900,900,900,500,500,250,500,750,250,250,900,750,900,750,900,250,250,250,750,250,500,500,750,750,250,500,250,750,250,500,750,750,750,900,900,750,500,250,250,750,500,500,900,900,750,900,250,500,500,250,250,750,750,750,250,750,900,250,500,250,750,500,500,900,250,500,500,500,250,900,750,500,900,750,500,750,250,500,750,500,900,250,500,750],"smaller_num":["6","5","1","9","9","3","18","3","5","12","18","1","18","9","18","3","9","6","18","9","3","12","2","2","3","3","9","1","2","9","18","9","18","18","3","3","9","9","9","3","5","2","9","3","3","3","9","3","9","6","9","2","3","3","15","2","2","3","15","3","3","4","4","6","2","2","15","6","6","9","9","3","5","2","4","3","2","2","18","9","15","9","3","1","9","3","3","3","6","3","4","18","9","3","6","3","6","2","2","9","2","2","2","5","2","9","6","9","18","3","1","3","2","9","18","5","18","3","9","6"],"larger_num":["24","10","4","10","10","12","20","6","10","16","20","2","20","18","20","6","10","8","20","10","4","16","8","8","12","4","10","2","8","10","20","10","24","20","12","4","10","10","10","6","10","8","18","4","12","12","10","4","10","8","10","8","12","12","20","8","4","6","20","4","12","8","16","8","8","4","20","8","8","10","10","4","10","8","16","4","4","4","20","10","20","10","12","2","18","12","12","4","8","4","16","24","10","12","12","12","8","4","4","10","8","4","4","10","8","10","8","18","20","4","2","4","8","18","24","10","20","12","18","8"],"correct_side":[2,1,2,2,2,2,1,2,2,2,1,2,2,2,1,2,1,1,1,2,2,2,1,1,1,1,2,2,1,2,1,2,1,1,1,1,1,2,2,2,2,2,2,1,1,2,2,1,2,1,2,1,1,1,2,1,2,2,2,1,2,1,1,1,1,1,2,1,1,1,1,1,1,2,2,1,2,1,1,1,2,2,2,2,2,2,1,1,1,1,1,1,1,2,1,2,1,2,1,2,1,2,1,2,1,2,1,2,1,1,2,2,1,1,1,1,1,2,2,1],"img_shown":["img/250/randomdotsizeEA/R/6_Ratio_250_L_6_R_24.png","img/500/randomdotsizeEA/L/7_Ratio_500_L_10_R_5.png","img/250/equaldotsize/R/8_Ratio_250_L_1_R_4.png","img/900/randomdotsizeEA/R/7_Ratio_900_L_9_R_10.png","img/900/equaldotsize/R/3_Ratio_900_L_9_R_10.png","img/250/equaldotsize/R/4_Ratio_250_L_3_R_12.png","img/900/equaldotanddens/L/4_Ratio_900_L_20_R_18.png","img/500/equaldotanddens/R/2_Ratio_500_L_3_R_6.png","img/500/equaldotsize/R/14_Ratio_500_L_5_R_10.png","img/750/equaldotanddens/R/11_Ratio_750_L_12_R_16.png","img/900/randomdotsizeEA/L/4_Ratio_900_L_20_R_18.png","img/500/equaldotsize/R/15_Ratio_500_L_1_R_2.png","img/900/equaldotanddens/R/11_Ratio_900_L_18_R_20.png","img/500/equaldotanddens/R/6_Ratio_500_L_9_R_18.png","img/900/randomdotsizeEA/L/2_Ratio_900_L_20_R_18.png","img/500/equaldotsize/R/2_Ratio_500_L_3_R_6.png","img/900/equaldotsize/L/1_Ratio_900_L_10_R_9.png","img/750/equaldotanddens/L/13_Ratio_750_L_8_R_6.png","img/900/randomdotsizeEA/L/2_Ratio_900_L_20_R_18.png","img/900/equaldotanddens/R/5_Ratio_900_L_9_R_10.png","img/750/equaldotanddens/R/12_Ratio_750_L_3_R_4.png","img/750/equaldotanddens/R/11_Ratio_750_L_12_R_16.png","img/250/equaldotanddens/L/1_Ratio_250_L_8_R_2.png","img/250/equaldotanddens/L/1_Ratio_250_L_8_R_2.png","img/250/equaldotanddens/L/15_Ratio_250_L_12_R_3.png","img/750/equaldotanddens/L/10_Ratio_750_L_4_R_3.png","img/900/randomdotsizeEA/R/7_Ratio_900_L_9_R_10.png","img/500/randomdotsizeEA/R/15_Ratio_500_L_1_R_2.png","img/250/equaldotanddens/L/1_Ratio_250_L_8_R_2.png","img/900/equaldotanddens/R/5_Ratio_900_L_9_R_10.png","img/900/equaldotsize/L/10_Ratio_900_L_20_R_18.png","img/900/randomdotsizeEA/R/5_Ratio_900_L_9_R_10.png","img/750/equaldotsize/L/6_Ratio_750_L_24_R_18.png","img/900/equaldotsize/L/10_Ratio_900_L_20_R_18.png","img/250/randomdotsizeEA/L/15_Ratio_250_L_12_R_3.png","img/750/equaldotanddens/L/9_Ratio_750_L_4_R_3.png","img/900/randomdotsizeEA/L/1_Ratio_900_L_10_R_9.png","img/900/equaldotanddens/R/7_Ratio_900_L_9_R_10.png","img/900/equaldotanddens/R/6_Ratio_900_L_9_R_10.png","img/500/equaldotanddens/R/2_Ratio_500_L_3_R_6.png","img/500/equaldotsize/R/14_Ratio_500_L_5_R_10.png","img/250/equaldotanddens/R/13_Ratio_250_L_2_R_8.png","img/500/randomdotsizeEA/R/1_Ratio_500_L_9_R_18.png","img/750/randomdotsizeEA/L/8_Ratio_750_L_4_R_3.png","img/250/randomdotsizeEA/L/15_Ratio_250_L_12_R_3.png","img/250/equaldotsize/R/4_Ratio_250_L_3_R_12.png","img/900/equaldotsize/R/5_Ratio_900_L_9_R_10.png","img/750/randomdotsizeEA/L/10_Ratio_750_L_4_R_3.png","img/900/equaldotanddens/R/5_Ratio_900_L_9_R_10.png","img/750/equaldotsize/L/13_Ratio_750_L_8_R_6.png","img/900/equaldotsize/R/5_Ratio_900_L_9_R_10.png","img/250/equaldotanddens/L/3_Ratio_250_L_8_R_2.png","img/250/equaldotanddens/L/15_Ratio_250_L_12_R_3.png","img/250/equaldotsize/L/15_Ratio_250_L_12_R_3.png","img/750/equaldotanddens/R/5_Ratio_750_L_15_R_20.png","img/250/randomdotsizeEA/L/1_Ratio_250_L_8_R_2.png","img/500/equaldotanddens/R/9_Ratio_500_L_2_R_4.png","img/500/equaldotanddens/R/2_Ratio_500_L_3_R_6.png","img/750/randomdotsizeEA/R/4_Ratio_750_L_15_R_20.png","img/750/equaldotsize/L/10_Ratio_750_L_4_R_3.png","img/250/equaldotanddens/R/11_Ratio_250_L_3_R_12.png","img/500/equaldotanddens/L/8_Ratio_500_L_8_R_4.png","img/250/equaldotsize/L/2_Ratio_250_L_16_R_4.png","img/750/equaldotsize/L/14_Ratio_750_L_8_R_6.png","img/250/equaldotanddens/L/1_Ratio_250_L_8_R_2.png","img/500/randomdotsizeEA/L/5_Ratio_500_L_4_R_2.png","img/750/randomdotsizeEA/R/4_Ratio_750_L_15_R_20.png","img/750/equaldotanddens/L/14_Ratio_750_L_8_R_6.png","img/750/equaldotanddens/L/13_Ratio_750_L_8_R_6.png","img/900/equaldotsize/L/1_Ratio_900_L_10_R_9.png","img/900/randomdotsizeEA/L/1_Ratio_900_L_10_R_9.png","img/750/equaldotsize/L/8_Ratio_750_L_4_R_3.png","img/500/equaldotanddens/L/7_Ratio_500_L_10_R_5.png","img/250/equaldotsize/R/13_Ratio_250_L_2_R_8.png","img/250/randomdotsizeEA/R/10_Ratio_250_L_4_R_16.png","img/750/randomdotsizeEA/L/9_Ratio_750_L_4_R_3.png","img/500/equaldotsize/R/9_Ratio_500_L_2_R_4.png","img/500/randomdotsizeEA/L/5_Ratio_500_L_4_R_2.png","img/900/equaldotsize/L/4_Ratio_900_L_20_R_18.png","img/900/equaldotanddens/L/1_Ratio_900_L_10_R_9.png","img/750/randomdotsizeEA/R/5_Ratio_750_L_15_R_20.png","img/900/equaldotsize/R/3_Ratio_900_L_9_R_10.png","img/250/equaldotsize/R/4_Ratio_250_L_3_R_12.png","img/500/equaldotsize/R/12_Ratio_500_L_1_R_2.png","img/500/equaldotanddens/R/6_Ratio_500_L_9_R_18.png","img/250/equaldotsize/R/9_Ratio_250_L_3_R_12.png","img/250/randomdotsizeEA/L/14_Ratio_250_L_12_R_3.png","img/750/randomdotsizeEA/L/8_Ratio_750_L_4_R_3.png","img/750/randomdotsizeEA/L/14_Ratio_750_L_8_R_6.png","img/750/equaldotsize/L/9_Ratio_750_L_4_R_3.png","img/250/equaldotsize/L/2_Ratio_250_L_16_R_4.png","img/750/equaldotsize/L/6_Ratio_750_L_24_R_18.png","img/900/equaldotsize/L/1_Ratio_900_L_10_R_9.png","img/250/randomdotsizeEA/R/4_Ratio_250_L_3_R_12.png","img/500/equaldotsize/L/13_Ratio_500_L_12_R_6.png","img/250/randomdotsizeEA/R/4_Ratio_250_L_3_R_12.png","img/750/equaldotsize/L/14_Ratio_750_L_8_R_6.png","img/500/randomdotsizeEA/R/9_Ratio_500_L_2_R_4.png","img/500/randomdotsizeEA/L/5_Ratio_500_L_4_R_2.png","img/900/equaldotanddens/R/7_Ratio_900_L_9_R_10.png","img/250/randomdotsizeEA/L/3_Ratio_250_L_8_R_2.png","img/500/equaldotanddens/R/9_Ratio_500_L_2_R_4.png","img/500/equaldotanddens/L/10_Ratio_500_L_4_R_2.png","img/500/randomdotsizeEA/R/14_Ratio_500_L_5_R_10.png","img/250/equaldotsize/L/7_Ratio_250_L_8_R_2.png","img/900/equaldotanddens/R/6_Ratio_900_L_9_R_10.png","img/750/equaldotsize/L/14_Ratio_750_L_8_R_6.png","img/500/randomdotsizeEA/R/1_Ratio_500_L_9_R_18.png","img/900/randomdotsizeEA/L/2_Ratio_900_L_20_R_18.png","img/750/randomdotsizeEA/L/9_Ratio_750_L_4_R_3.png","img/500/randomdotsizeEA/R/15_Ratio_500_L_1_R_2.png","img/750/randomdotsizeEA/R/7_Ratio_750_L_3_R_4.png","img/250/randomdotsizeEA/L/1_Ratio_250_L_8_R_2.png","img/500/equaldotsize/L/4_Ratio_500_L_18_R_9.png","img/750/equaldotsize/L/6_Ratio_750_L_24_R_18.png","img/500/equaldotsize/L/7_Ratio_500_L_10_R_5.png","img/900/randomdotsizeEA/L/2_Ratio_900_L_20_R_18.png","img/250/equaldotanddens/R/9_Ratio_250_L_3_R_12.png","img/500/equaldotsize/R/1_Ratio_500_L_9_R_18.png","img/750/equaldotanddens/L/13_Ratio_750_L_8_R_6.png"],"Rat0":[["12_Ratio_0_L_9_R_0.png","13_Ratio_0_L_6_R_0.png","5_Ratio_0_L_2_R_0.png","6_Ratio_0_L_4_R_0.png","8_Ratio_0_L_6_R_0.png"],["1_Ratio_0_L_0_R_17.png","10_Ratio_0_L_0_R_22.png","11_Ratio_0_L_0_R_1.png","14_Ratio_0_L_0_R_24.png","15_Ratio_0_L_0_R_4.png","2_Ratio_0_L_0_R_5.png","3_Ratio_0_L_0_R_17.png","4_Ratio_0_L_0_R_7.png","7_Ratio_0_L_0_R_19.png","9_Ratio_0_L_0_R_15.png"]],"Rat250":[["1_Ratio_250_L_8_R_2.png","14_Ratio_250_L_12_R_3.png","15_Ratio_250_L_12_R_3.png","2_Ratio_250_L_16_R_4.png","3_Ratio_250_L_8_R_2.png","5_Ratio_250_L_24_R_6.png","7_Ratio_250_L_8_R_2.png"],["10_Ratio_250_L_4_R_16.png","11_Ratio_250_L_3_R_12.png","12_Ratio_250_L_5_R_20.png","13_Ratio_250_L_2_R_8.png","4_Ratio_250_L_3_R_12.png","6_Ratio_250_L_6_R_24.png","8_Ratio_250_L_1_R_4.png","9_Ratio_250_L_3_R_12.png"]],"Rat500":[["10_Ratio_500_L_4_R_2.png","11_Ratio_500_L_12_R_6.png","13_Ratio_500_L_12_R_6.png","4_Ratio_500_L_18_R_9.png","5_Ratio_500_L_4_R_2.png","7_Ratio_500_L_10_R_5.png","8_Ratio_500_L_8_R_4.png"],["1_Ratio_500_L_9_R_18.png","12_Ratio_500_L_1_R_2.png","14_Ratio_500_L_5_R_10.png","15_Ratio_500_L_1_R_2.png","2_Ratio_500_L_3_R_6.png","3_Ratio_500_L_10_R_20.png","6_Ratio_500_L_9_R_18.png","9_Ratio_500_L_2_R_4.png"]],"Rat750":[["1_Ratio_750_L_20_R_15.png","10_Ratio_750_L_4_R_3.png","13_Ratio_750_L_8_R_6.png","14_Ratio_750_L_8_R_6.png","6_Ratio_750_L_24_R_18.png","8_Ratio_750_L_4_R_3.png","9_Ratio_750_L_4_R_3.png"],["11_Ratio_750_L_12_R_16.png","12_Ratio_750_L_3_R_4.png","15_Ratio_750_L_9_R_12.png","2_Ratio_750_L_6_R_8.png","3_Ratio_750_L_15_R_20.png","4_Ratio_750_L_15_R_20.png","5_Ratio_750_L_15_R_20.png","7_Ratio_750_L_3_R_4.png"]],"Rat900":[["1_Ratio_900_L_10_R_9.png","10_Ratio_900_L_20_R_18.png","2_Ratio_900_L_20_R_18.png","4_Ratio_900_L_20_R_18.png","8_Ratio_900_L_20_R_18.png"],["11_Ratio_900_L_18_R_20.png","12_Ratio_900_L_18_R_20.png","13_Ratio_900_L_18_R_20.png","14_Ratio_900_L_18_R_20.png","15_Ratio_900_L_9_R_10.png","3_Ratio_900_L_9_R_10.png","5_Ratio_900_L_9_R_10.png","6_Ratio_900_L_9_R_10.png","7_Ratio_900_L_9_R_10.png","9_Ratio_900_L_18_R_20.png"]],"Rat1000":[["10_Ratio_1000_L_16_R_16.png","11_Ratio_1000_L_6_R_6.png","12_Ratio_1000_L_14_R_14.png","13_Ratio_1000_L_20_R_20.png","15_Ratio_1000_L_15_R_15.png","2_Ratio_1000_L_17_R_17.png","4_Ratio_1000_L_9_R_9.png","5_Ratio_1000_L_6_R_6.png","6_Ratio_1000_L_19_R_19.png","8_Ratio_1000_L_14_R_14.png","9_Ratio_1000_L_25_R_25.png"],["1_Ratio_1000_L_1_R_1.png","14_Ratio_1000_L_17_R_17.png","3_Ratio_1000_L_17_R_17.png","7_Ratio_1000_L_6_R_6.png"]]}},{"start_time":1552074576954,"click_time":1552074578077,"finger_time":1552074577716,"fix_duration":575.2273922779998,"trial":1,"RT":762,"MT":361,"sideResp":1,"stimulus":"img/500/randomdotsizeEA/L/7_Ratio_500_L_10_R_5.png","xmouse":[789,789,789,789,789,789,789,789,789,789,789,789,789,789,789,789,789,789,789,789,789,789,789,789,789,789,789,789,789,789,789,789,789,789,789,789,789,779,733,653,591,538,506,493,493,493,493,493,493,493,493,497,504,507,501,495,473],"ymouse":[517,517,517,517,517,517,517,517,517,517,517,517,517,517,517,517,517,517,517,517,517,517,517,517,517,517,517,517,517,517,517,517,517,517,517,509,504,482,423,355,312,282,267,261,261,261,261,261,261,261,255,232,206,158,135,107,59],"timestamp_mouse":[13,23,43,63,82,102,122,142,164,184,202,224,244,262,284,303,323,344,363,384,403,424,443,463,484,503,523,544,563,583,603,623,644,663,682,703,722,743,762,784,803,824,843,862,883,902,923,943,963,983,1002,1024,1043,1063,1082,1102,1122],"xSR":741.5,"ySR":469.95,"xT1":424.9,"yT1":0,"xT2":1058.1,"yT2":0,"toosoon":0,"cond_shown":"randomdotsizeEA","ratio_trial":500,"smaller_num":"5","larger_num":"10","correct_side":1,"subjID":"Mathias Alejandro Moreno 28","gender":"0","age":"9","school":"4"},{"start_time":1552074583430,"click_time":1552074584737,"finger_time":1552074584197,"fix_duration":611.926288430563,"trial":2,"RT":767,"MT":540,"sideResp":2,"stimulus":"img/250/equaldotsize/R/8_Ratio_250_L_1_R_4.png","xmouse":[791,791,791,791,791,791,791,791,791,791,791,791,791,791,791,791,791,791,791,791,791,791,791,791,791,791,791,791,791,791,791,791,791,791,791,791,785,760,737,693,682,675,675,675,685,694,712,725,731,730,728,723,722,719,730,760,814,896,968,1025,1034,1034,1029,1027,1029,1063],"ymouse":[485,485,485,485,485,485,485,485,485,485,485,485,485,485,485,485,485,485,485,485,485,485,485,485,485,485,485,485,485,485,485,485,485,485,485,485,483,475,470,494,514,524,525,525,521,506,477,451,425,398,395,393,393,397,412,415,400,358,297,226,205,196,185,178,162,97],"timestamp_mouse":[12,38,47,68,87,106,127,147,166,187,207,227,246,268,286,306,326,347,367,386,408,428,447,466,487,507,528,548,566,586,608,627,647,667,686,707,726,748,767,787,806,827,847,868,887,906,927,948,967,987,1006,1027,1048,1068,1086,1107,1127,1148,1167,1187,1207,1228,1247,1267,1287,1306],"xSR":741.5,"ySR":469.95,"xT1":424.9,"yT1":0,"xT2":1058.1,"yT2":0,"toosoon":0,"cond_shown":"equaldotsize","ratio_trial":250,"smaller_num":"1","larger_num":"4","correct_side":2,"subjID":"Mathias Alejandro Moreno 28","gender":"0","age":"9","school":"4"},{"start_time":1552074588820,"click_time":1552074590717,"finger_time":1552074589277,"fix_duration":1182.0389212603077,"trial":3,"RT":457,"MT":1440,"sideResp":1,"stimulus":"img/900/randomdotsizeEA/R/7_Ratio_900_L_9_R_10.png","xmouse":[782,783,783,783,783,783,783,783,783,783,783,783,783,783,783,783,783,783,783,778,775,771,765,763,763,763,763,763,761,749,738,728,718,704,686,682,680,675,670,667,667,666,665,663,651,628,609,587,573,560,553,549,545,541,535,534,533,533,533,533,533,533,533,533,533,533,533,533,533,533,533,533,533,533,533,532,530,526,525,521,516,511,509,509,505,502,500,499,498,496,496,496,495,494,492],"ymouse":[482,484,484,484,484,484,484,484,484,484,484,484,484,484,484,484,484,484,484,482,478,471,461,455,450,450,450,449,447,442,437,430,420,406,378,365,352,323,285,243,238,234,232,229,220,205,191,175,163,149,139,135,130,126,119,116,115,115,115,115,115,115,115,115,115,115,115,115,115,115,115,115,115,115,115,115,115,115,115,115,115,115,115,115,115,112,110,109,107,106,106,106,105,104,99],"timestamp_mouse":[17,44,58,78,96,117,136,156,178,196,216,238,258,278,297,317,337,357,376,397,416,437,457,477,497,516,536,557,577,596,617,637,656,676,697,717,737,757,777,797,816,836,857,876,897,916,936,956,977,997,1016,1036,1057,1078,1097,1118,1137,1157,1177,1196,1217,1236,1257,1276,1297,1317,1336,1357,1376,1397,1418,1437,1458,1477,1498,1517,1536,1556,1576,1597,1616,1638,1658,1677,1697,1716,1737,1757,1776,1797,1817,1837,1856,1877,1897],"xSR":741.5,"ySR":469.95,"xT1":424.9,"yT1":0,"xT2":1058.1,"yT2":0,"toosoon":0,"cond_shown":"randomdotsizeEA","ratio_trial":900,"smaller_num":"9","larger_num":"10","correct_side":2,"subjID":"Mathias Alejandro Moreno 28","gender":"0","age":"9","school":"4"},{"start_time":1552074593701,"click_time":1552074595137,"finger_time":1552074594217,"fix_duration":362.21436174580367,"trial":4,"RT":516,"MT":920,"sideResp":2,"stimulus":"img/900/equaldotsize/R/3_Ratio_900_L_9_R_10.png","xmouse":[786,786,786,786,786,786,786,786,786,786,786,786,786,786,786,786,786,786,786,786,786,812,825,835,839,829,826,826,831,840,889,958,1003,1044,1103,1237,1319,1411,1500,1545,1550,1550,1548,1531,1493,1382,1344,1323,1313,1304,1284,1284,1284,1284,1284,1284,1284,1284,1284,1284,1284,1284,1284,1284,1284,1284,1284,1284,1284,1284,1284,1103],"ymouse":[528,528,528,528,528,528,528,528,528,528,528,528,528,528,528,528,528,528,528,528,527,514,504,491,473,431,413,397,383,367,329,288,263,234,200,156,145,144,144,144,144,143,139,131,120,81,64,50,37,25,5,5,5,5,5,5,5,5,5,5,5,5,5,5,5,5,5,5,5,5,5,21],"timestamp_mouse":[15,45,55,77,95,116,137,157,175,197,217,236,257,277,296,316,337,357,377,396,416,436,455,477,496,516,535,556,575,597,616,635,656,676,695,716,736,756,776,796,816,836,855,876,896,916,935,956,976,997,1016,1035,1056,1075,1096,1116,1136,1156,1175,1196,1215,1236,1255,1276,1296,1316,1337,1357,1377,1396,1416,1436],"xSR":741.5,"ySR":469.95,"xT1":424.9,"yT1":0,"xT2":1058.1,"yT2":0,"toosoon":0,"cond_shown":"equaldotsize","ratio_trial":900,"smaller_num":"9","larger_num":"10","correct_side":2,"subjID":"Mathias Alejandro Moreno 28","gender":"0","age":"9","school":"4"},{"start_time":1552074597580,"click_time":1552074599137,"finger_time":1552074598096,"fix_duration":1261.3355399207605,"trial":5,"RT":516,"MT":1041,"sideResp":2,"stimulus":"img/250/equaldotsize/R/4_Ratio_250_L_3_R_12.png","xmouse":[751,751,751,751,751,751,751,751,751,751,751,751,751,751,751,751,751,751,751,751,751,751,751,750,749,745,727,720,712,697,678,619,580,542,514,498,482,481,481,481,481,481,481,481,481,481,489,557,609,648,682,732,745,756,772,783,788,788,789,796,806,840,864,890,909,924,940,942,944,950,961,994,1010,1022,1032,1040,1051,1063],"ymouse":[494,494,494,494,494,494,494,494,494,494,494,494,494,494,494,494,494,494,494,494,494,494,494,492,482,459,421,413,405,391,373,327,301,276,255,240,220,219,219,219,219,219,219,219,219,219,220,234,243,244,244,215,191,165,138,120,112,112,112,112,112,113,108,98,86,78,70,69,68,68,68,68,68,68,68,67,65,60],"timestamp_mouse":[16,36,57,78,98,116,136,158,177,198,217,236,258,278,297,317,337,356,377,398,416,436,458,477,497,516,538,557,577,596,616,637,656,677,696,716,737,758,778,797,817,838,858,877,897,918,937,956,976,996,1017,1037,1056,1077,1097,1117,1137,1158,1176,1197,1218,1237,1257,1278,1296,1317,1337,1358,1377,1397,1417,1437,1457,1476,1498,1517,1536,1557],"xSR":741.5,"ySR":469.95,"xT1":424.9,"yT1":0,"xT2":1058.1,"yT2":0,"toosoon":0,"cond_shown":"equaldotsize","ratio_trial":250,"smaller_num":"3","larger_num":"12","correct_side":2,"subjID":"Mathias Alejandro Moreno 28","gender":"0","age":"9","school":"4"},{"start_time":1552074603028,"click_time":1552074611899,"finger_time":1552074611558,"fix_duration":369.32708588128816,"trial":6,"RT":8530,"MT":341,"sideResp":1,"stimulus":"img/900/equaldotanddens/L/4_Ratio_900_L_20_R_18.png","xmouse":[816,816,816,816,816,816,816,816,816,816,816,816,816,816,816,816,816,816,816,816,816,816,816,816,816,816,816,816,816,816,816,816,816,816,816,816,816,816,816,816,816,816,816,816,816,816,816,816,816,816,816,815,813,812,810,810,810,810,810,808,807,806,806,806,806,806,806,806,806,806,806,806,806,806,806,806,806,806,806,806,806,806,806,806,806,806,806,806,806,806,806,806,806,806,806,806,806,806,806,806,806,806,806,806,806,806,806,806,806,806,806,806,806,806,806,806,806,806,806,806,806,806,806,806,806,806,806,806,806,806,806,806,806,806,806,806,806,806,806,806,806,806,806,806,806,806,806,806,806,806,806,806,806,806,806,806,806,806,806,806,806,806,806,806,806,806,806,806,806,806,806,806,806,806,806,806,806,806,806,806,806,806,806,806,806,806,806,806,806,806,806,806,806,806,806,806,806,806,806,806,806,806,806,806,806,806,806,806,806,806,806,806,806,806,806,806,806,806,806,806,806,806,806,806,806,806,806,806,806,806,806,806,806,806,806,806,806,806,806,806,806,806,806,806,806,806,806,806,806,806,806,806,806,806,806,806,806,806,806,806,806,806,806,806,806,806,806,806,806,806,806,806,806,806,806,806,806,806,806,806,806,806,806,806,806,806,806,806,806,806,806,806,806,806,806,806,806,806,806,806,806,806,806,806,806,806,806,806,806,806,806,806,806,806,806,806,806,806,806,806,806,806,806,806,806,806,806,806,806,806,806,806,806,806,806,806,806,806,806,806,806,806,806,806,806,806,806,806,806,806,806,806,806,806,806,806,806,806,806,806,806,806,806,806,806,806,806,806,806,806,806,806,806,806,806,806,806,806,806,806,806,806,806,806,806,806,806,806,806,806,806,806,806,806,806,806,806,806,806,806,806,806,806,806,806,806,806,807,809,810,810,810,810,810,810,810,810,810,807,806,806,807,810,814,815,815,810,795,772,702,671,642,625,613,597,584,573,566,564,561,554,545,531,507],"ymouse":[529,529,529,529,529,529,529,529,529,529,529,529,529,529,529,529,529,529,529,529,529,529,529,529,529,529,529,529,529,529,529,529,529,529,529,529,529,529,529,529,529,529,529,529,529,529,529,529,529,529,529,531,533,534,538,538,538,538,539,543,545,546,546,546,546,546,546,546,546,546,546,546,546,546,546,546,546,546,546,546,546,546,546,546,546,546,546,546,546,546,546,546,546,546,546,546,546,546,546,546,546,546,546,546,546,546,546,546,546,546,546,546,546,546,546,546,546,546,546,546,546,546,546,546,546,546,546,546,546,546,546,546,546,546,546,546,546,546,546,546,546,546,546,546,546,546,546,546,546,546,546,546,546,546,546,546,546,546,546,546,546,546,546,546,546,546,546,546,546,546,546,546,546,546,546,546,546,546,546,546,546,546,546,546,546,546,546,546,546,546,546,546,546,546,546,546,546,546,546,546,546,546,546,546,546,546,546,546,546,546,546,546,546,546,546,546,546,546,546,546,546,546,546,546,546,546,546,546,546,546,546,546,546,546,546,546,546,546,546,546,546,546,546,546,546,546,546,546,546,546,546,546,546,546,546,546,546,546,546,546,546,546,546,546,546,546,546,546,546,546,546,546,546,546,546,546,546,546,546,546,546,546,546,546,546,546,546,546,546,546,546,546,546,546,546,546,546,546,546,546,546,546,546,546,546,546,546,546,546,546,546,546,546,546,546,546,546,546,546,546,546,546,546,546,546,546,546,546,546,546,546,546,546,546,546,546,546,546,546,546,546,546,546,546,546,546,546,546,546,546,546,546,546,546,546,546,546,546,546,546,546,546,546,546,546,546,546,546,546,546,546,546,546,546,546,546,546,546,546,546,546,546,546,546,546,546,546,546,546,546,546,546,546,546,546,546,546,546,546,546,546,546,546,546,546,547,548,552,557,560,560,560,560,560,560,560,560,560,557,542,538,533,528,521,504,484,462,437,406,317,275,236,213,190,159,138,127,122,121,121,118,116,109,98],"timestamp_mouse":[12,40,49,68,88,109,130,149,169,189,210,230,249,270,289,308,329,350,368,388,410,430,449,470,489,509,530,549,569,590,609,629,649,668,689,709,728,749,768,790,809,830,849,869,888,909,928,948,968,990,1009,1030,1048,1069,1089,1108,1130,1148,1168,1189,1208,1228,1250,1270,1288,1308,1329,1349,1369,1388,1409,1430,1449,1469,1489,1510,1529,1549,1569,1589,1610,1629,1649,1670,1689,1708,1729,1750,1768,1789,1809,1830,1849,1869,1889,1909,1930,1949,1968,1990,2010,2030,2049,2070,2089,2109,2129,2149,2168,2189,2210,2229,2250,2269,2289,2310,2330,2349,2369,2388,2410,2429,2449,2468,2489,2509,2530,2550,2570,2589,2609,2628,2650,2669,2689,2709,2728,2748,2769,2790,2810,2830,2850,2869,2889,2909,2930,2950,2969,2988,3008,3030,3048,3068,3089,3110,3128,3149,3171,3190,3211,3230,3249,3270,3289,3311,3330,3350,3370,3391,3410,3430,3450,3470,3491,3511,3530,3550,3570,3591,3610,3629,3650,3671,3691,3710,3730,3751,3770,3791,3811,3831,3850,3870,3890,3911,3930,3951,3971,3990,4009,4031,4051,4070,4090,4111,4130,4151,4171,4190,4211,4231,4250,4271,4291,4311,4330,4350,4370,4390,4409,4429,4449,4470,4490,4510,4530,4549,4569,4591,4610,4630,4651,4671,4691,4711,4730,4751,4770,4790,4811,4830,4849,4870,4891,4911,4930,4951,4971,4990,5010,5031,5051,5071,5090,5110,5130,5151,5170,5190,5211,5231,5250,5270,5291,5310,5331,5351,5370,5390,5410,5430,5450,5469,5489,5511,5531,5550,5570,5591,5610,5629,5649,5671,5690,5709,5731,5749,5769,5790,5811,5830,5850,5869,5890,5911,5931,5950,5970,5989,6009,6030,6051,6070,6091,6111,6131,6150,6170,6191,6211,6231,6251,6269,6291,6311,6331,6350,6370,6390,6410,6431,6451,6471,6490,6511,6530,6550,6569,6590,6610,6631,6651,6671,6689,6710,6730,6750,6770,6791,6811,6830,6850,6869,6891,6911,6931,6951,6970,6990,7010,7029,7050,7070,7089,7110,7129,7151,7170,7190,7209,7230,7251,7270,7290,7310,7331,7351,7371,7390,7411,7430,7450,7469,7490,7509,7531,7551,7571,7590,7610,7631,7650,7671,7690,7709,7730,7751,7770,7791,7811,7831,7850,7870,7889,7910,7931,7951,7971,7991,8009,8029,8051,8070,8090,8110,8129,8150,8170,8190,8209,8229,8251,8271,8290,8309,8331,8351,8369,8390,8409,8430,8451,8470,8489,8509,8529,8550,8570,8590,8610,8629,8650,8670,8691,8710,8729,8750,8770,8790,8809,8830,8849,8870],"xSR":741.5,"ySR":469.95,"xT1":424.9,"yT1":0,"xT2":1058.1,"yT2":0,"toosoon":0,"cond_shown":"equaldotanddens","ratio_trial":900,"smaller_num":"18","larger_num":"20","correct_side":1,"subjID":"Mathias Alejandro Moreno 28","gender":"0","age":"9","school":"4"},{"start_time":1552074614210,"click_time":1552074615018,"finger_time":1552074614478,"fix_duration":250,"trial":7,"RT":268,"MT":540,"sideResp":2,"stimulus":"img/500/equaldotanddens/R/2_Ratio_500_L_3_R_6.png","xmouse":[791,791,790,789,788,786,786,786,786,786,787,791,798,804,817,842,859,903,939,963,991,998,1003,1006,1011,1022,1028,1034,1040,1044,1049,1053,1059,1070,1080,1099,1105,1109,1113,1118,1127],"ymouse":[511,511,509,506,502,496,495,495,495,493,490,483,472,463,449,420,401,360,334,314,286,274,269,263,257,252,248,243,234,226,215,209,200,185,173,148,137,129,120,106,84],"timestamp_mouse":[13,35,48,68,88,108,128,148,169,187,207,227,247,268,287,309,328,348,368,388,408,427,449,468,488,508,528,548,568,588,608,627,648,667,688,709,728,748,767,787,807],"xSR":741.5,"ySR":469.95,"xT1":424.9,"yT1":0,"xT2":1058.1,"yT2":0,"toosoon":0,"cond_shown":"equaldotanddens","ratio_trial":500,"smaller_num":"3","larger_num":"6","correct_side":2,"subjID":"Mathias Alejandro Moreno 28","gender":"0","age":"9","school":"4"},{"start_time":1552074623501,"click_time":1552074624138,"finger_time":1552074623778,"fix_duration":542.9991242250619,"trial":8,"RT":277,"MT":360,"sideResp":2,"stimulus":"img/500/equaldotsize/R/14_Ratio_500_L_5_R_10.png","xmouse":[803,803,803,803,803,803,803,803,803,803,803,803,804,808,815,839,860,892,928,955,988,1005,1015,1027,1037,1051,1053,1054,1055,1056,1061,1089],"ymouse":[485,485,485,485,485,485,485,485,485,485,485,483,478,464,442,383,337,286,243,220,200,186,178,168,160,147,144,143,141,137,130,96],"timestamp_mouse":[16,45,57,77,97,117,137,157,177,196,216,236,256,277,296,318,337,356,376,398,417,438,457,477,496,517,537,557,577,597,617,637],"xSR":741.5,"ySR":469.95,"xT1":424.9,"yT1":0,"xT2":1058.1,"yT2":0,"toosoon":0,"cond_shown":"equaldotsize","ratio_trial":500,"smaller_num":"5","larger_num":"10","correct_side":2,"subjID":"Mathias Alejandro Moreno 28","gender":"0","age":"9","school":"4"},{"start_time":1552074624951,"click_time":1552074626058,"finger_time":1552074625437,"fix_duration":250,"trial":9,"RT":486,"MT":621,"sideResp":2,"stimulus":"img/750/equaldotanddens/R/11_Ratio_750_L_12_R_16.png","xmouse":[782,782,782,782,782,782,782,782,782,782,782,782,782,782,782,782,782,782,782,782,783,783,783,809,871,923,959,1024,1119,1144,1164,1179,1189,1196,1201,1211,1222,1242,1242,1242,1242,1242,1242,1242,1242,1242,1242,1242,1181,1177,1175,1174,1172,1164,1160,1157],"ymouse":[546,546,546,546,546,546,546,546,546,546,546,546,546,546,546,546,546,546,546,546,545,545,545,524,483,436,387,319,230,199,182,170,164,156,146,125,98,20,20,20,20,20,20,20,20,20,20,20,12,22,25,27,27,28,29,31],"timestamp_mouse":[9,28,47,66,86,107,128,148,167,188,208,227,248,268,287,307,327,347,368,388,408,426,447,466,486,508,527,547,568,588,607,626,647,667,687,707,727,748,767,787,807,828,847,867,887,907,927,947,968,986,1007,1027,1046,1067,1087,1106],"xSR":741.5,"ySR":469.95,"xT1":424.9,"yT1":0,"xT2":1058.1,"yT2":0,"toosoon":0,"cond_shown":"equaldotanddens","ratio_trial":750,"smaller_num":"12","larger_num":"16","correct_side":2,"subjID":"Mathias Alejandro Moreno 28","gender":"0","age":"9","school":"4"},{"start_time":1552074628045,"click_time":1552074628978,"finger_time":1552074628398,"fix_duration":864.0948986748035,"trial":10,"RT":353,"MT":580,"sideResp":2,"stimulus":"img/900/randomdotsizeEA/L/4_Ratio_900_L_20_R_18.png","xmouse":[807,807,807,807,807,807,807,807,807,807,807,807,807,807,807,806,806,806,806,806,807,807,809,810,817,822,826,828,830,836,852,900,983,1166,1190,1190,1190,1190,1190,1190,1190,1190,1190,1190,1190,1190,1136],"ymouse":[500,500,500,500,500,500,500,500,500,500,500,500,500,500,500,500,483,467,456,444,441,438,435,429,413,404,397,394,391,382,361,300,211,30,6,6,6,6,6,6,6,6,6,6,6,6,17],"timestamp_mouse":[13,44,52,73,93,113,133,152,172,193,214,233,253,273,293,313,333,353,373,393,413,433,452,473,493,513,532,552,572,593,613,632,653,674,694,713,733,753,773,793,814,833,853,873,893,913,933],"xSR":741.5,"ySR":469.95,"xT1":424.9,"yT1":0,"xT2":1058.1,"yT2":0,"toosoon":0,"cond_shown":"randomdotsizeEA","ratio_trial":900,"smaller_num":"18","larger_num":"20","correct_side":1,"subjID":"Mathias Alejandro Moreno 28","gender":"0","age":"9","school":"4"},{"start_time":1552074630685,"click_time":1552074631859,"finger_time":1552074631198,"fix_duration":685.3490642880353,"trial":11,"RT":513,"MT":661,"sideResp":2,"stimulus":"img/500/equaldotsize/R/15_Ratio_500_L_1_R_2.png","xmouse":[776,776,776,776,776,776,776,776,776,776,776,776,776,777,777,777,777,777,777,778,778,778,778,781,790,803,842,872,895,913,924,939,948,956,965,975,990,997,1003,1010,1020,1044,1055,1055,1055,1055,1055,1055,1055,1056,1056,1057,1057,1057,1057,1057,1057,1057,1059],"ymouse":[507,506,506,505,504,503,503,502,502,502,501,500,499,498,497,496,494,492,491,489,488,488,486,484,477,469,432,400,366,337,310,268,249,224,206,189,159,145,134,122,110,88,80,80,80,80,80,80,80,80,80,83,85,85,85,85,85,85,80],"timestamp_mouse":[15,33,52,74,93,113,134,153,174,192,214,233,253,273,293,312,333,354,373,393,413,433,454,472,493,513,533,552,574,593,612,634,652,673,693,713,733,752,774,794,813,833,854,874,894,914,933,954,974,993,1013,1033,1053,1074,1093,1112,1133,1154,1174],"xSR":741.5,"ySR":469.95,"xT1":424.9,"yT1":0,"xT2":1058.1,"yT2":0,"toosoon":0,"cond_shown":"equaldotsize","ratio_trial":500,"smaller_num":"1","larger_num":"2","correct_side":2,"subjID":"Mathias Alejandro Moreno 28","gender":"0","age":"9","school":"4"},{"start_time":1552074635515,"click_time":1552074636499,"finger_time":1552074636157,"fix_duration":1355.6124577085914,"trial":12,"RT":642,"MT":342,"sideResp":2,"stimulus":"img/900/equaldotanddens/R/11_Ratio_900_L_18_R_20.png","xmouse":[778,776,776,772,770,770,770,770,770,770,770,770,770,770,770,770,770,770,770,770,770,770,770,772,772,774,776,777,780,785,804,828,841,851,864,918,946,964,975,982,995,1002,1006,1011,1016,1029,1038,1047,1053,1063],"ymouse":[507,509,509,514,517,518,518,518,518,518,518,518,518,518,518,518,518,518,518,519,519,519,519,518,518,517,515,514,511,508,491,472,458,440,419,350,314,284,262,242,218,210,206,200,192,162,143,120,101,82],"timestamp_mouse":[14,40,43,63,84,103,123,144,164,183,204,223,244,263,282,302,323,344,364,382,403,424,442,464,483,502,524,544,563,583,603,623,642,663,683,703,722,743,763,783,803,823,843,864,883,902,922,943,963,984],"xSR":741.5,"ySR":469.95,"xT1":424.9,"yT1":0,"xT2":1058.1,"yT2":0,"toosoon":0,"cond_shown":"equaldotanddens","ratio_trial":900,"smaller_num":"18","larger_num":"20","correct_side":2,"subjID":"Mathias Alejandro Moreno 28","gender":"0","age":"9","school":"4"},{"start_time":1552074638156,"click_time":1552074639158,"finger_time":1552074638478,"fix_duration":454.303700381677,"trial":13,"RT":322,"MT":680,"sideResp":2,"stimulus":"img/500/equaldotanddens/R/6_Ratio_500_L_9_R_18.png","xmouse":[774,774,774,775,775,775,775,775,775,775,775,775,775,772,768,761,753,740,706,688,667,654,644,628,623,616,610,608,603,601,594,591,586,575,573,571,571,571,570,573,578,584,591,619,644,682,747,825,960,1026,1060],"ymouse":[512,512,512,512,512,512,511,511,511,509,509,506,503,492,482,471,457,437,390,366,336,321,306,287,278,267,256,250,238,233,220,210,198,174,168,166,165,165,168,177,186,192,197,204,204,197,178,148,90,68,61],"timestamp_mouse":[11,22,42,63,83,101,123,143,162,182,201,221,241,262,281,302,322,343,363,381,402,423,442,462,481,502,521,542,562,582,602,622,642,662,681,702,722,741,762,782,802,823,842,862,881,903,922,943,962,981,1002],"xSR":741.5,"ySR":469.95,"xT1":424.9,"yT1":0,"xT2":1058.1,"yT2":0,"toosoon":0,"cond_shown":"equaldotanddens","ratio_trial":500,"smaller_num":"9","larger_num":"18","correct_side":2,"subjID":"Mathias Alejandro Moreno 28","gender":"0","age":"9","school":"4"},{"start_time":1552074640270,"click_time":1552074641677,"finger_time":1552074640678,"fix_duration":250,"trial":14,"RT":408,"MT":999,"sideResp":2,"stimulus":"img/900/randomdotsizeEA/L/2_Ratio_900_L_20_R_18.png","xmouse":[798,798,798,798,795,790,787,787,787,787,787,787,787,787,787,787,787,791,807,825,851,873,897,905,914,919,922,927,931,939,949,958,968,971,977,985,998,1031,1042,1042,1042,1042,1042,1043,1049,1049,1049,1049,1049,1050,1050,1050,1052,1056,1056,1056,1056,1056,1053,1048,1046,1045,1044,1044,1044,1044,1044,1044,1046,1059,1095],"ymouse":[518,518,518,518,519,519,520,520,520,520,520,520,520,520,520,520,520,516,501,487,466,446,413,396,371,360,354,343,337,324,307,289,255,246,239,232,222,190,171,171,171,171,171,168,162,162,162,162,162,162,162,162,162,160,160,160,160,160,146,133,123,116,113,113,113,113,113,112,112,105,89],"timestamp_mouse":[9,27,64,67,87,108,128,147,169,188,208,228,249,269,289,308,329,348,367,388,408,429,448,469,488,508,528,548,567,588,608,628,649,668,688,707,728,748,768,789,808,829,849,869,889,909,928,949,969,988,1008,1028,1049,1068,1088,1108,1129,1148,1169,1188,1208,1229,1248,1269,1289,1309,1328,1348,1367,1388,1407],"xSR":741.5,"ySR":469.95,"xT1":424.9,"yT1":0,"xT2":1058.1,"yT2":0,"toosoon":0,"cond_shown":"randomdotsizeEA","ratio_trial":900,"smaller_num":"18","larger_num":"20","correct_side":1,"subjID":"Mathias Alejandro Moreno 28","gender":"0","age":"9","school":"4"},{"start_time":1552074650225,"click_time":1552074650818,"finger_time":1552074650618,"fix_duration":1163.9277334158664,"trial":15,"RT":393,"MT":200,"sideResp":1,"stimulus":"img/500/equaldotsize/R/2_Ratio_500_L_3_R_6.png","xmouse":[784,786,786,786,786,786,786,786,786,786,786,786,786,786,786,785,781,770,709,659,589,508,450,423,423,423,423,423,426],"ymouse":[497,500,500,500,500,500,500,500,500,500,500,500,500,500,501,501,498,479,375,306,230,157,101,60,55,54,54,54,45],"timestamp_mouse":[37,53,72,93,113,134,154,174,193,212,232,254,272,293,313,332,353,372,393,412,432,453,473,493,513,534,553,573,593],"xSR":741.5,"ySR":469.95,"xT1":424.9,"yT1":0,"xT2":1058.1,"yT2":0,"toosoon":0,"cond_shown":"equaldotsize","ratio_trial":500,"smaller_num":"3","larger_num":"6","correct_side":2,"subjID":"Mathias Alejandro Moreno 28","gender":"0","age":"9","school":"4"},{"start_time":1552074652190,"click_time":1552074653058,"finger_time":1552074652499,"fix_duration":250,"trial":16,"RT":309,"MT":559,"sideResp":2,"stimulus":"img/900/equaldotsize/L/1_Ratio_900_L_10_R_9.png","xmouse":[804,804,804,804,804,804,804,804,804,803,802,802,802,809,817,841,950,1039,1085,1115,1133,1158,1163,1166,1167,1167,1167,1165,1158,1154,1150,1138,1129,1125,1122,1122,1122,1122,1122,1122,1122,1122,1122,1120],"ymouse":[488,488,488,488,488,488,488,488,489,491,492,492,492,489,481,459,371,290,247,221,201,156,144,136,133,133,133,132,131,130,129,121,115,111,109,109,109,109,109,109,109,107,104,98],"timestamp_mouse":[9,29,48,68,88,107,129,147,167,189,207,228,248,269,287,309,329,348,368,388,408,428,447,468,488,509,528,548,568,588,607,628,647,668,688,709,729,748,767,788,808,828,847,868],"xSR":741.5,"ySR":469.95,"xT1":424.9,"yT1":0,"xT2":1058.1,"yT2":0,"toosoon":0,"cond_shown":"equaldotsize","ratio_trial":900,"smaller_num":"9","larger_num":"10","correct_side":1,"subjID":"Mathias Alejandro Moreno 28","gender":"0","age":"9","school":"4"},{"start_time":1552074657116,"click_time":1552074657939,"finger_time":1552074657817,"fix_duration":1036.597867574443,"trial":17,"RT":701,"MT":122,"sideResp":1,"stimulus":"img/750/equaldotanddens/L/13_Ratio_750_L_8_R_6.png","xmouse":[817,817,817,817,817,817,817,817,817,817,817,817,817,817,817,816,815,815,815,815,815,815,815,815,815,815,815,815,810,806,788,784,784,784,782,779,773,757,734,699,583,509],"ymouse":[497,497,497,497,497,497,497,497,497,497,497,497,497,497,497,494,484,481,478,475,474,474,474,474,474,474,474,474,474,474,472,472,472,472,471,444,410,363,317,253,95,3],"timestamp_mouse":[9,37,42,63,82,103,121,141,161,182,203,223,242,262,282,302,321,343,362,382,403,423,443,461,481,503,523,543,561,581,602,623,642,661,682,701,722,742,762,781,802,823],"xSR":741.5,"ySR":469.95,"xT1":424.9,"yT1":0,"xT2":1058.1,"yT2":0,"toosoon":0,"cond_shown":"equaldotanddens","ratio_trial":750,"smaller_num":"6","larger_num":"8","correct_side":1,"subjID":"Mathias Alejandro Moreno 28","gender":"0","age":"9","school":"4"},{"start_time":1552074661469,"click_time":1552074663818,"finger_time":1552074663178,"fix_duration":510.61694043076886,"trial":18,"RT":1709,"MT":640,"sideResp":2,"stimulus":"img/900/randomdotsizeEA/L/2_Ratio_900_L_20_R_18.png","xmouse":[776,776,776,776,776,776,776,776,776,776,776,776,776,776,776,776,776,776,776,776,776,776,776,776,776,776,776,776,776,776,776,776,776,776,776,776,776,776,776,776,776,776,776,776,776,776,776,776,776,776,776,776,776,776,776,776,776,776,776,776,776,776,776,776,776,776,776,776,776,776,776,776,776,776,776,776,776,776,776,776,776,776,786,814,830,840,850,873,890,905,912,918,927,934,939,947,955,968,973,983,987,993,1004,1016,1024,1035,1045,1060,1064,1067,1072,1078,1094,1097,1098,1099,1102,1115],"ymouse":[508,508,508,508,508,508,508,508,508,508,508,508,508,508,508,508,508,508,508,508,508,508,508,508,508,508,508,508,508,508,508,508,508,508,508,508,508,508,508,508,508,508,508,508,508,508,508,508,508,508,508,508,508,508,508,508,508,508,508,508,508,508,508,508,508,508,508,508,508,508,508,508,508,508,508,508,508,508,508,508,508,508,503,485,473,461,445,397,362,327,302,283,264,252,245,237,227,216,211,206,203,198,190,183,177,169,162,148,143,139,133,126,111,108,106,105,103,95],"timestamp_mouse":[12,39,49,69,89,110,129,148,170,188,208,229,249,269,290,310,330,348,368,389,410,430,448,469,488,509,529,549,570,588,610,630,649,668,688,710,730,749,769,789,810,830,850,870,889,908,929,950,969,990,1013,1028,1050,1070,1089,1110,1129,1149,1169,1189,1209,1228,1249,1270,1288,1309,1329,1350,1370,1389,1410,1429,1450,1470,1490,1509,1529,1550,1570,1588,1610,1630,1648,1669,1688,1709,1729,1749,1768,1788,1808,1830,1849,1870,1889,1910,1929,1949,1968,1988,2009,2029,2049,2068,2089,2109,2129,2149,2168,2188,2209,2229,2250,2268,2289,2309,2329,2349],"xSR":741.5,"ySR":469.95,"xT1":424.9,"yT1":0,"xT2":1058.1,"yT2":0,"toosoon":0,"cond_shown":"randomdotsizeEA","ratio_trial":900,"smaller_num":"18","larger_num":"20","correct_side":1,"subjID":"Mathias Alejandro Moreno 28","gender":"0","age":"9","school":"4"},{"start_time":1552074665111,"click_time":1552074666139,"finger_time":1552074665557,"fix_duration":250,"trial":19,"RT":446,"MT":582,"sideResp":1,"stimulus":"img/900/equaldotanddens/R/5_Ratio_900_L_9_R_10.png","xmouse":[811,811,811,811,811,811,811,811,811,811,811,811,811,811,811,811,811,811,811,811,811,809,806,799,794,772,756,742,730,715,687,668,659,652,646,632,623,611,586,572,554,548,547,547,547,546,543,542,539,537,527,516],"ymouse":[491,491,491,491,491,491,491,491,491,491,491,491,491,491,491,491,491,491,491,491,491,485,467,450,438,406,384,363,343,317,277,257,246,238,230,206,188,161,116,83,51,43,41,41,41,39,38,38,37,37,39,43],"timestamp_mouse":[10,37,47,67,88,108,128,146,167,187,207,227,248,268,288,307,328,347,367,388,407,427,446,468,487,507,526,547,567,586,607,628,647,667,688,708,727,747,767,788,807,828,847,866,888,907,926,948,967,988,1007,1027],"xSR":741.5,"ySR":469.95,"xT1":424.9,"yT1":0,"xT2":1058.1,"yT2":0,"toosoon":0,"cond_shown":"equaldotanddens","ratio_trial":900,"smaller_num":"9","larger_num":"10","correct_side":2,"subjID":"Mathias Alejandro Moreno 28","gender":"0","age":"9","school":"4"},{"start_time":1552074668139,"click_time":1552074668858,"finger_time":1552074668818,"fix_duration":1138.9542063895078,"trial":20,"RT":679,"MT":40,"sideResp":2,"stimulus":"img/750/equaldotanddens/R/12_Ratio_750_L_3_R_4.png","xmouse":[783,783,783,783,783,783,783,783,783,783,783,783,783,783,783,783,783,783,783,783,783,783,783,783,783,783,783,783,783,783,786,789,795,809,914,1006,1091],"ymouse":[530,530,530,530,530,530,530,530,530,530,530,530,530,530,530,530,530,530,530,530,530,530,530,530,530,530,530,530,530,530,527,522,514,498,358,216,84],"timestamp_mouse":[1,19,42,59,80,99,119,140,159,179,200,219,240,259,279,299,319,340,360,380,399,419,439,461,480,500,519,539,560,579,599,619,639,660,679,699,719],"xSR":741.5,"ySR":469.95,"xT1":424.9,"yT1":0,"xT2":1058.1,"yT2":0,"toosoon":0,"cond_shown":"equaldotanddens","ratio_trial":750,"smaller_num":"3","larger_num":"4","correct_side":2,"subjID":"Mathias Alejandro Moreno 28","gender":"0","age":"9","school":"4"},{"start_time":1552074671001,"click_time":1552074672018,"finger_time":1552074671678,"fix_duration":660.0915851457279,"trial":21,"RT":677,"MT":340,"sideResp":2,"stimulus":"img/750/equaldotanddens/R/11_Ratio_750_L_12_R_16.png","xmouse":[801,801,801,801,801,801,801,801,801,801,801,801,801,801,801,801,801,801,801,801,801,801,801,801,801,801,801,801,801,801,801,801,805,819,848,934,972,1003,1011,1015,1017,1018,1018,1019,1020,1027,1041,1050,1060,1067,1079],"ymouse":[481,481,481,481,481,481,481,481,481,481,481,481,481,481,481,481,481,481,481,481,481,481,481,481,481,481,481,481,481,481,481,479,474,459,431,356,315,243,224,210,193,187,181,177,172,155,136,123,111,100,85],"timestamp_mouse":[17,37,57,77,97,117,139,158,177,198,217,238,258,278,297,318,338,357,377,397,417,438,459,477,498,517,537,558,578,597,618,637,657,677,699,718,737,757,778,797,817,837,857,877,897,917,937,957,977,998,1017],"xSR":741.5,"ySR":469.95,"xT1":424.9,"yT1":0,"xT2":1058.1,"yT2":0,"toosoon":0,"cond_shown":"equaldotanddens","ratio_trial":750,"smaller_num":"12","larger_num":"16","correct_side":2,"subjID":"Mathias Alejandro Moreno 28","gender":"0","age":"9","school":"4"},{"start_time":1552074672997,"click_time":1552074674079,"finger_time":1552074673700,"fix_duration":416.74803978600227,"trial":22,"RT":703,"MT":379,"sideResp":1,"stimulus":"img/250/equaldotanddens/L/1_Ratio_250_L_8_R_2.png","xmouse":[805,805,805,805,805,805,805,805,805,805,805,805,805,805,805,805,805,805,805,805,805,805,805,805,805,805,805,805,805,805,805,805,802,799,788,755,689,675,651,633,614,581,570,565,563,563,563,563,563,563,555,547,542,531,514],"ymouse":[518,518,518,518,518,518,518,518,518,518,518,518,518,518,518,518,518,518,518,518,518,518,518,518,518,518,518,518,518,518,518,518,515,510,490,441,354,338,303,278,244,161,120,96,85,80,79,79,79,79,71,65,63,61,60],"timestamp_mouse":[7,37,41,61,82,101,122,141,162,182,203,222,241,261,283,301,321,341,362,382,402,422,442,462,481,502,521,542,562,581,602,622,641,661,681,703,722,741,761,781,801,821,841,862,882,902,922,942,980,981,1002,1022,1041,1061,1082],"xSR":741.5,"ySR":469.95,"xT1":424.9,"yT1":0,"xT2":1058.1,"yT2":0,"toosoon":0,"cond_shown":"equaldotanddens","ratio_trial":250,"smaller_num":"2","larger_num":"8","correct_side":1,"subjID":"Mathias Alejandro Moreno 28","gender":"0","age":"9","school":"4"},{"start_time":1552074676122,"click_time":1552074677218,"finger_time":1552074676798,"fix_duration":802.7312899574023,"trial":23,"RT":676,"MT":420,"sideResp":1,"stimulus":"img/250/equaldotanddens/L/1_Ratio_250_L_8_R_2.png","xmouse":[779,779,779,779,779,779,779,779,779,779,779,779,779,779,779,779,779,779,779,779,779,779,779,779,779,779,779,779,779,779,779,782,798,828,875,886,889,889,889,889,889,889,887,866,814,783,756,736,723,704,682,635,576,529,492],"ymouse":[504,504,504,504,504,504,504,504,504,504,504,504,504,504,504,504,504,504,504,504,504,504,504,504,504,504,504,504,504,504,504,503,492,467,410,395,391,391,391,391,391,391,391,393,396,396,392,379,368,342,310,249,177,113,57],"timestamp_mouse":[24,36,56,76,97,116,137,156,177,197,216,237,258,277,296,316,337,356,377,396,417,436,457,476,496,517,537,558,577,596,617,636,656,676,697,716,736,757,778,796,817,836,856,877,896,916,936,957,977,996,1017,1036,1056,1076,1096],"xSR":741.5,"ySR":469.95,"xT1":424.9,"yT1":0,"xT2":1058.1,"yT2":0,"toosoon":0,"cond_shown":"equaldotanddens","ratio_trial":250,"smaller_num":"2","larger_num":"8","correct_side":1,"subjID":"Mathias Alejandro Moreno 28","gender":"0","age":"9","school":"4"},{"start_time":1552074678186,"click_time":1552074679178,"finger_time":1552074678758,"fix_duration":266.9187577638308,"trial":24,"RT":572,"MT":420,"sideResp":1,"stimulus":"img/250/equaldotanddens/L/15_Ratio_250_L_12_R_3.png","xmouse":[805,805,805,805,805,805,805,805,805,805,805,805,805,805,805,805,805,805,805,805,805,805,805,805,805,804,800,793,780,771,761,737,714,693,682,673,660,654,643,630,611,569,554,543,535,527,519,516,514,512],"ymouse":[496,496,496,496,496,496,496,496,496,496,496,496,496,496,496,496,496,496,496,496,496,496,496,496,496,496,491,483,468,454,439,398,363,333,316,303,287,281,265,250,228,177,156,141,130,120,109,105,102,99],"timestamp_mouse":[12,32,52,72,93,113,132,153,174,193,213,232,252,274,294,313,332,353,374,393,412,432,453,473,493,512,532,554,572,593,613,633,652,672,692,713,733,753,772,793,812,833,853,872,893,913,933,953,972,992],"xSR":741.5,"ySR":469.95,"xT1":424.9,"yT1":0,"xT2":1058.1,"yT2":0,"toosoon":0,"cond_shown":"equaldotanddens","ratio_trial":250,"smaller_num":"3","larger_num":"12","correct_side":1,"subjID":"Mathias Alejandro Moreno 28","gender":"0","age":"9","school":"4"},{"start_time":1552074680497,"click_time":1552074681818,"finger_time":1552074681418,"fix_duration":378.1783995014978,"trial":25,"RT":921,"MT":400,"sideResp":1,"stimulus":"img/750/equaldotanddens/L/10_Ratio_750_L_4_R_3.png","xmouse":[788,788,788,788,788,788,788,788,788,788,788,787,787,787,787,787,787,786,786,785,784,783,782,782,782,782,782,782,782,782,782,782,782,782,782,782,782,782,782,782,782,782,782,782,780,775,766,759,751,746,739,716,707,697,686,675,637,617,603,596,594,592,584,572,554,538,520],"ymouse":[512,512,512,512,512,512,512,512,512,512,512,511,511,511,511,511,511,511,510,510,505,501,496,494,493,493,493,493,493,493,493,493,493,493,493,493,493,493,493,493,493,493,492,492,486,475,454,436,417,399,383,340,323,307,285,263,190,168,149,137,133,129,120,113,103,95,89],"timestamp_mouse":[10,21,43,62,81,102,122,141,162,182,201,221,241,261,282,301,321,341,362,382,401,421,442,461,482,502,521,541,562,581,602,622,641,662,681,702,722,741,762,782,802,822,842,861,881,901,921,941,961,981,1001,1021,1041,1061,1081,1101,1121,1141,1161,1181,1201,1221,1241,1262,1281,1301,1321],"xSR":741.5,"ySR":469.95,"xT1":424.9,"yT1":0,"xT2":1058.1,"yT2":0,"toosoon":0,"cond_shown":"equaldotanddens","ratio_trial":750,"smaller_num":"3","larger_num":"4","correct_side":1,"subjID":"Mathias Alejandro Moreno 28","gender":"0","age":"9","school":"4"},{"start_time":1552074683968,"click_time":1552074685358,"finger_time":1552074684798,"fix_duration":1206.3413194162092,"trial":26,"RT":830,"MT":560,"sideResp":2,"stimulus":"img/900/randomdotsizeEA/R/7_Ratio_900_L_9_R_10.png","xmouse":[766,766,766,766,766,766,766,766,766,766,766,766,766,766,766,766,766,766,766,766,766,766,766,766,766,766,766,766,766,766,766,766,766,766,766,766,766,765,761,755,749,737,705,690,675,663,651,632,630,630,630,629,629,629,629,629,633,635,675,700,725,749,773,810,836,882,936,1050,1122,1154],"ymouse":[515,515,515,515,515,515,515,515,515,515,515,515,515,515,515,515,515,515,515,515,515,515,515,515,515,515,515,515,515,515,515,515,515,515,515,515,515,515,506,496,480,456,397,366,333,305,275,233,229,228,228,228,228,228,228,228,230,233,249,251,251,250,241,211,195,175,152,119,104,99],"timestamp_mouse":[13,36,50,71,90,111,130,151,172,190,210,231,251,271,290,310,330,350,370,390,410,431,450,470,490,511,530,550,572,591,610,630,650,671,691,711,731,750,771,790,811,830,851,871,890,910,932,951,970,991,1011,1030,1050,1070,1090,1110,1130,1150,1170,1190,1211,1230,1250,1270,1291,1310,1330,1350,1370,1390],"xSR":741.5,"ySR":469.95,"xT1":424.9,"yT1":0,"xT2":1058.1,"yT2":0,"toosoon":0,"cond_shown":"randomdotsizeEA","ratio_trial":900,"smaller_num":"9","larger_num":"10","correct_side":2,"subjID":"Mathias Alejandro Moreno 28","gender":"0","age":"9","school":"4"},{"start_time":1552074687352,"click_time":1552074688519,"finger_time":1552074688158,"fix_duration":1012.472593431592,"trial":27,"RT":806,"MT":361,"sideResp":2,"stimulus":"img/500/randomdotsizeEA/R/15_Ratio_500_L_1_R_2.png","xmouse":[818,818,818,818,818,818,818,818,818,818,818,818,818,818,818,818,818,818,818,818,818,818,818,818,818,818,818,819,819,819,819,819,818,816,815,814,814,814,814,814,819,830,844,879,897,917,937,952,992,1012,1026,1043,1058,1082,1090,1097,1108,1121,1152],"ymouse":[494,494,494,494,494,494,494,494,494,494,494,494,494,494,494,494,494,494,493,492,492,492,491,491,490,490,490,490,490,490,488,487,486,481,477,476,475,474,474,472,469,462,454,430,416,388,351,325,258,227,207,188,172,147,139,134,128,119,97],"timestamp_mouse":[9,40,47,67,86,107,127,147,166,186,207,227,247,268,287,306,326,346,367,387,406,426,447,467,487,507,527,546,567,587,606,627,647,666,686,707,726,746,766,787,806,826,848,866,886,907,926,947,967,986,1006,1027,1047,1067,1086,1106,1126,1146,1166],"xSR":741.5,"ySR":469.95,"xT1":424.9,"yT1":0,"xT2":1058.1,"yT2":0,"toosoon":0,"cond_shown":"randomdotsizeEA","ratio_trial":500,"smaller_num":"1","larger_num":"2","correct_side":2,"subjID":"Mathias Alejandro Moreno 28","gender":"0","age":"9","school":"4"},{"start_time":1552074689831,"click_time":1552074690658,"finger_time":1552074690399,"fix_duration":392.07711332827665,"trial":28,"RT":568,"MT":259,"sideResp":1,"stimulus":"img/250/equaldotanddens/L/1_Ratio_250_L_8_R_2.png","xmouse":[819,819,819,819,819,820,820,820,820,822,823,823,824,824,824,823,822,819,816,815,814,814,814,814,814,814,814,815,819,819,819,811,799,782,747,738,734,729,718,637,563,479],"ymouse":[512,512,512,512,512,512,512,512,512,511,511,510,509,509,506,501,496,491,486,483,482,482,482,482,482,482,480,475,469,462,434,416,398,379,349,334,324,308,282,170,102,39],"timestamp_mouse":[15,39,47,67,87,107,127,147,168,187,207,227,248,267,287,308,327,347,367,387,408,428,448,467,487,508,527,547,568,587,607,627,647,668,687,707,727,747,767,788,807,827],"xSR":741.5,"ySR":469.95,"xT1":424.9,"yT1":0,"xT2":1058.1,"yT2":0,"toosoon":0,"cond_shown":"equaldotanddens","ratio_trial":250,"smaller_num":"2","larger_num":"8","correct_side":1,"subjID":"Mathias Alejandro Moreno 28","gender":"0","age":"9","school":"4"},{"start_time":1552074693106,"click_time":1552074694338,"finger_time":1552074693419,"fix_duration":1325.0602567710505,"trial":29,"RT":313,"MT":919,"sideResp":2,"stimulus":"img/900/equaldotanddens/R/5_Ratio_900_L_9_R_10.png","xmouse":[784,784,784,784,784,785,787,788,788,789,789,791,794,796,799,808,813,816,820,821,823,823,823,823,823,823,823,824,825,826,840,871,900,927,940,953,956,965,978,990,1010,1019,1023,1024,1025,1027,1030,1036,1042,1047,1052,1060,1061,1064,1070,1078,1080,1082,1083,1084,1085,1085],"ymouse":[511,511,511,511,511,510,506,505,504,503,501,498,494,489,484,466,456,446,438,432,427,425,424,423,422,422,422,421,420,419,403,382,365,348,338,318,307,292,274,256,221,202,195,190,188,184,180,172,164,155,148,138,138,137,133,124,119,115,111,108,105,95],"timestamp_mouse":[14,44,53,73,93,112,132,152,173,193,212,232,253,273,292,313,332,352,372,394,412,432,452,472,492,512,532,553,573,593,613,633,652,672,692,712,732,752,772,792,812,832,852,873,892,912,932,952,972,992,1012,1033,1052,1072,1092,1113,1133,1154,1173,1192,1212,1232],"xSR":741.5,"ySR":469.95,"xT1":424.9,"yT1":0,"xT2":1058.1,"yT2":0,"toosoon":0,"cond_shown":"equaldotanddens","ratio_trial":900,"smaller_num":"9","larger_num":"10","correct_side":2,"subjID":"Mathias Alejandro Moreno 28","gender":"0","age":"9","school":"4"},{"start_time":1552074696085,"click_time":1552074698978,"finger_time":1552074696918,"fix_duration":904.4044426968914,"trial":30,"RT":833,"MT":2060,"sideResp":2,"stimulus":"img/900/equaldotsize/L/10_Ratio_900_L_20_R_18.png","xmouse":[788,788,788,788,788,788,788,788,788,789,790,790,793,793,794,794,796,796,796,796,796,796,797,797,797,797,797,797,797,797,797,797,797,797,797,797,798,799,805,815,837,884,974,1012,1049,1073,1084,1085,1085,1087,1089,1095,1095,1095,1095,1095,1095,1095,1095,1095,1094,1087,1085,1077,1068,1055,1021,996,954,892,832,742,715,707,701,693,670,658,643,625,613,586,577,573,569,565,562,553,550,549,549,549,549,549,549,549,549,549,550,551,552,552,553,555,556,561,605,686,799,924,1035,1145,1152,1153,1154,1156,1164,1166,1166,1166,1166,1166,1166,1166,1165,1162,1157,1155,1152,1149,1148,1146,1145,1145,1145,1145,1145,1144,1143,1141,1140,1137,1133,1128,1121],"ymouse":[529,529,529,529,529,529,529,529,529,528,526,525,518,517,515,514,512,510,510,510,509,509,509,509,509,509,509,509,509,509,509,509,509,509,509,509,508,507,505,498,485,460,370,317,274,239,208,202,195,186,177,162,162,162,162,162,162,162,162,162,162,165,167,175,182,188,198,202,209,216,224,237,238,238,238,238,238,238,237,233,232,226,222,219,217,214,211,204,202,201,201,201,201,201,201,201,201,201,201,202,203,203,204,205,207,208,213,220,220,220,220,202,197,196,191,187,174,169,164,160,159,157,157,156,156,155,152,150,146,142,140,137,136,136,135,134,133,132,130,128,125,119,113,105,94],"timestamp_mouse":[14,44,53,74,94,114,133,153,174,193,213,233,253,273,294,313,333,353,373,394,414,434,453,473,494,513,534,553,573,593,614,633,653,673,694,714,733,753,774,793,814,833,853,873,894,913,933,953,973,993,1014,1034,1055,1074,1094,1113,1134,1154,1175,1193,1214,1233,1253,1273,1293,1314,1333,1353,1374,1394,1413,1433,1454,1473,1494,1513,1533,1554,1573,1594,1614,1634,1654,1673,1694,1713,1733,1753,1774,1794,1813,1833,1854,1873,1893,1914,1933,1953,1973,1993,2014,2033,2053,2073,2094,2113,2133,2153,2173,2193,2214,2233,2253,2273,2294,2313,2333,2353,2373,2394,2414,2434,2454,2474,2493,2513,2533,2554,2573,2594,2614,2633,2653,2673,2694,2713,2733,2753,2773,2793,2814,2833,2854,2873,2893],"xSR":741.5,"ySR":469.95,"xT1":424.9,"yT1":0,"xT2":1058.1,"yT2":0,"toosoon":0,"cond_shown":"equaldotsize","ratio_trial":900,"smaller_num":"18","larger_num":"20","correct_side":1,"subjID":"Mathias Alejandro Moreno 28","gender":"0","age":"9","school":"4"},{"start_time":1552074701659,"click_time":1552074702918,"finger_time":1552074702478,"fix_duration":1359.4459112443785,"trial":31,"RT":819,"MT":440,"sideResp":1,"stimulus":"img/900/randomdotsizeEA/R/5_Ratio_900_L_9_R_10.png","xmouse":[790,790,790,790,790,790,790,790,790,790,790,790,790,790,790,790,790,790,790,790,790,790,790,790,790,790,790,790,790,790,790,790,790,790,790,790,790,790,790,776,752,737,729,702,666,642,619,598,553,529,507,489,478,475,475,475,475,475,475,475,475,475,475,486],"ymouse":[507,507,507,507,507,507,507,507,507,507,507,507,507,507,507,507,507,507,507,507,507,507,507,507,507,507,507,507,507,507,507,507,507,507,507,507,507,507,502,489,475,466,459,436,413,399,387,372,339,317,294,274,260,250,246,236,231,222,202,189,173,150,121,48],"timestamp_mouse":[2,20,39,59,79,99,120,139,161,180,200,220,241,260,280,300,320,340,359,379,399,420,440,460,480,500,520,540,559,579,600,619,639,659,680,700,719,740,759,779,799,819,840,859,880,899,919,939,959,979,999,1019,1039,1059,1079,1099,1119,1139,1159,1179,1200,1219,1240,1259],"xSR":741.5,"ySR":469.95,"xT1":424.9,"yT1":0,"xT2":1058.1,"yT2":0,"toosoon":0,"cond_shown":"randomdotsizeEA","ratio_trial":900,"smaller_num":"9","larger_num":"10","correct_side":2,"subjID":"Mathias Alejandro Moreno 28","gender":"0","age":"9","school":"4"},{"start_time":1552074704157,"click_time":1552074705739,"finger_time":1552074705059,"fix_duration":337.6338415137654,"trial":32,"RT":902,"MT":680,"sideResp":1,"stimulus":"img/750/equaldotsize/L/6_Ratio_750_L_24_R_18.png","xmouse":[792,793,794,794,794,794,794,794,794,794,794,794,794,794,794,794,794,794,794,794,794,794,794,794,794,795,795,795,795,799,808,818,825,831,832,833,833,833,833,833,833,833,827,814,803,787,765,740,662,612,594,582,576,572,572,572,571,570,565,564,561,560,560,560,560,560,560,560,560,561,561,561,561,560,557,552,547,540,531,508],"ymouse":[532,529,528,527,527,527,527,527,527,527,527,527,527,527,527,527,527,527,527,527,527,527,527,527,527,526,525,525,524,521,515,509,503,497,496,495,495,495,495,495,495,495,494,489,479,461,435,405,330,289,274,263,255,246,244,243,242,239,227,222,212,209,207,206,206,206,205,205,205,200,196,192,186,173,165,155,144,134,124,99],"timestamp_mouse":[1,22,41,61,82,101,121,142,162,183,202,221,242,261,282,301,322,341,362,383,402,421,442,462,481,501,521,543,561,582,601,621,641,661,682,701,722,741,761,782,801,821,841,861,881,902,921,941,961,981,1001,1022,1041,1061,1081,1102,1121,1141,1161,1181,1201,1221,1241,1261,1282,1301,1322,1341,1361,1381,1401,1421,1441,1461,1483,1503,1521,1541,1561,1582],"xSR":741.5,"ySR":469.95,"xT1":424.9,"yT1":0,"xT2":1058.1,"yT2":0,"toosoon":0,"cond_shown":"equaldotsize","ratio_trial":750,"smaller_num":"18","larger_num":"24","correct_side":1,"subjID":"Mathias Alejandro Moreno 28","gender":"0","age":"9","school":"4"},{"start_time":1552074707450,"click_time":1552074708358,"finger_time":1552074708059,"fix_duration":569.5040864029586,"trial":33,"RT":609,"MT":299,"sideResp":1,"stimulus":"img/900/equaldotsize/L/10_Ratio_900_L_20_R_18.png","xmouse":[777,777,777,777,777,777,777,777,777,777,777,777,777,777,777,777,777,777,777,777,777,777,777,777,777,777,777,777,777,777,772,761,746,709,661,626,605,595,585,579,572,562,551,533,526,516],"ymouse":[483,483,483,483,483,483,483,483,483,483,483,483,483,483,483,483,483,483,483,483,483,483,483,483,483,482,482,482,478,476,467,447,419,330,241,191,166,152,136,130,124,118,109,94,88,80],"timestamp_mouse":[12,33,48,69,88,108,129,149,168,189,208,229,249,268,288,308,328,348,368,388,409,429,448,468,489,508,528,548,568,588,609,629,649,669,689,708,728,749,768,788,808,829,848,869,889,908],"xSR":741.5,"ySR":469.95,"xT1":424.9,"yT1":0,"xT2":1058.1,"yT2":0,"toosoon":0,"cond_shown":"equaldotsize","ratio_trial":900,"smaller_num":"18","larger_num":"20","correct_side":1,"subjID":"Mathias Alejandro Moreno 28","gender":"0","age":"9","school":"4"},{"start_time":1552074710651,"click_time":1552074711938,"finger_time":1552074711338,"fix_duration":1252.4221928828108,"trial":34,"RT":687,"MT":600,"sideResp":1,"stimulus":"img/250/randomdotsizeEA/L/15_Ratio_250_L_12_R_3.png","xmouse":[772,772,772,772,772,772,772,772,772,772,772,772,772,772,772,772,772,772,772,772,772,772,772,772,772,772,772,772,772,772,772,772,772,772,767,759,751,731,698,694,693,692,692,692,692,692,692,688,676,663,651,640,628,603,588,579,573,572,571,568,557,546,527,506,495],"ymouse":[478,478,478,478,478,478,478,478,478,478,478,478,478,478,478,478,478,478,478,478,478,478,478,478,478,478,478,478,478,478,478,478,478,477,469,459,444,408,348,336,324,317,316,316,316,316,313,303,281,263,248,235,221,198,180,171,165,164,163,161,155,147,134,108,91],"timestamp_mouse":[9,27,49,67,88,108,128,147,167,188,208,228,247,268,288,307,327,348,367,387,408,429,447,468,488,507,528,549,568,588,608,628,648,668,687,707,728,747,768,787,807,827,848,867,888,907,927,948,967,987,1008,1027,1048,1067,1088,1107,1127,1147,1167,1187,1208,1227,1248,1268,1287],"xSR":741.5,"ySR":469.95,"xT1":424.9,"yT1":0,"xT2":1058.1,"yT2":0,"toosoon":0,"cond_shown":"randomdotsizeEA","ratio_trial":250,"smaller_num":"3","larger_num":"12","correct_side":1,"subjID":"Mathias Alejandro Moreno 28","gender":"0","age":"9","school":"4"},{"start_time":1552074713348,"click_time":1552074714879,"finger_time":1552074714518,"fix_duration":648.602816907197,"trial":35,"RT":1170,"MT":361,"sideResp":1,"stimulus":"img/750/equaldotanddens/L/9_Ratio_750_L_4_R_3.png","xmouse":[774,774,774,774,774,774,774,774,774,775,775,775,775,775,775,775,775,775,775,775,775,775,775,775,775,775,775,775,775,775,775,775,775,775,775,775,775,775,775,775,775,775,775,775,775,775,775,775,775,775,775,775,775,775,775,774,770,763,747,643,587,543,519,505,504,504,504,504,504,503,501,496,491,488,488,486,485],"ymouse":[522,522,522,521,521,520,520,520,519,519,519,519,519,519,518,518,518,518,518,518,518,518,518,518,518,518,518,518,518,518,518,518,518,518,518,518,518,518,518,518,518,518,518,518,518,518,518,518,518,518,518,518,518,514,512,509,504,487,457,300,231,182,157,141,141,141,141,141,141,137,132,121,113,107,105,102,97],"timestamp_mouse":[27,42,50,71,91,111,130,150,170,190,210,230,250,270,290,310,330,350,370,391,410,430,451,471,490,510,530,551,570,590,611,630,651,670,690,710,730,750,771,790,810,831,851,870,890,911,931,952,970,991,1010,1031,1051,1070,1090,1110,1131,1151,1170,1191,1210,1231,1251,1270,1291,1311,1330,1350,1370,1390,1410,1432,1451,1470,1491,1511,1531],"xSR":741.5,"ySR":469.95,"xT1":424.9,"yT1":0,"xT2":1058.1,"yT2":0,"toosoon":0,"cond_shown":"equaldotanddens","ratio_trial":750,"smaller_num":"3","larger_num":"4","correct_side":1,"subjID":"Mathias Alejandro Moreno 28","gender":"0","age":"9","school":"4"},{"start_time":1552074716833,"click_time":1552074717918,"finger_time":1552074717638,"fix_duration":1131.9981475226343,"trial":36,"RT":805,"MT":280,"sideResp":1,"stimulus":"img/900/randomdotsizeEA/L/1_Ratio_900_L_10_R_9.png","xmouse":[811,811,811,811,811,811,811,811,811,811,811,811,811,811,811,811,811,811,811,811,811,811,811,811,811,811,811,811,811,811,811,811,811,811,811,811,811,811,809,799,781,751,724,702,693,685,683,680,674,650,626,605,586,566,524],"ymouse":[506,506,506,506,506,506,506,506,506,506,506,506,506,506,506,506,506,506,506,506,506,506,506,506,506,506,506,506,506,506,506,506,506,506,506,506,506,506,502,476,443,397,359,326,309,292,286,280,268,227,193,163,139,122,97],"timestamp_mouse":[12,34,45,66,87,106,126,146,165,186,206,226,246,265,285,305,325,345,366,385,405,425,445,466,486,506,525,545,566,586,605,625,646,665,685,705,727,746,765,786,805,825,846,866,885,906,925,945,965,985,1005,1025,1045,1065,1085],"xSR":741.5,"ySR":469.95,"xT1":424.9,"yT1":0,"xT2":1058.1,"yT2":0,"toosoon":0,"cond_shown":"randomdotsizeEA","ratio_trial":900,"smaller_num":"9","larger_num":"10","correct_side":1,"subjID":"Mathias Alejandro Moreno 28","gender":"0","age":"9","school":"4"},{"start_time":1552074760514,"click_time":1552074761658,"finger_time":1552074761239,"fix_duration":1193.896721298136,"trial":37,"RT":725,"MT":419,"sideResp":2,"stimulus":"img/900/equaldotanddens/R/7_Ratio_900_L_9_R_10.png","xmouse":[798,798,798,798,798,798,798,798,798,798,798,798,798,798,798,798,798,798,798,798,798,798,798,798,798,798,798,798,798,798,798,798,798,798,800,804,813,842,900,962,1066,1165,1201,1211,1212,1213,1213,1213,1213,1213,1204,1200,1193,1187,1183,1169,1159,1144],"ymouse":[509,509,509,509,509,509,509,509,509,509,509,509,509,509,509,509,509,509,509,509,509,509,509,509,509,509,509,509,509,509,509,509,509,509,506,474,444,396,324,259,173,127,105,89,82,72,70,69,69,67,64,63,62,62,62,62,62,62],"timestamp_mouse":[10,25,44,66,86,105,125,144,164,185,206,225,245,264,284,306,324,346,366,384,405,426,445,465,486,506,525,546,564,586,605,625,645,665,685,705,725,745,765,785,805,826,845,865,885,905,925,945,964,985,1005,1025,1044,1064,1084,1104,1125,1144],"xSR":741.5,"ySR":469.95,"xT1":424.9,"yT1":0,"xT2":1058.1,"yT2":0,"toosoon":0,"cond_shown":"equaldotanddens","ratio_trial":900,"smaller_num":"9","larger_num":"10","correct_side":2,"subjID":"Mathias Alejandro Moreno 28","gender":"0","age":"9","school":"4"},{"start_time":1552074763820,"click_time":1552074764659,"finger_time":1552074764519,"fix_duration":1299.9114705001934,"trial":38,"RT":699,"MT":140,"sideResp":2,"stimulus":"img/900/equaldotanddens/R/6_Ratio_900_L_9_R_10.png","xmouse":[795,795,795,795,795,795,795,795,795,795,795,795,795,795,795,795,795,795,795,795,795,795,795,795,795,795,795,795,795,795,795,795,795,799,804,889,954,983,1001,1021,1062,1087,1111],"ymouse":[504,504,504,504,504,504,504,504,504,504,504,504,504,504,504,504,504,504,504,504,504,504,504,504,504,504,504,504,504,504,504,504,504,497,490,415,362,330,302,259,162,100,44],"timestamp_mouse":[1,19,39,58,80,99,118,140,159,180,198,218,239,259,280,300,320,339,358,379,400,420,439,459,479,498,520,540,559,580,599,619,639,658,679,699,720,738,760,779,798,818,838],"xSR":741.5,"ySR":469.95,"xT1":424.9,"yT1":0,"xT2":1058.1,"yT2":0,"toosoon":0,"cond_shown":"equaldotanddens","ratio_trial":900,"smaller_num":"9","larger_num":"10","correct_side":2,"subjID":"Mathias Alejandro Moreno 28","gender":"0","age":"9","school":"4"},{"start_time":1552074765870,"click_time":1552074768138,"finger_time":1552074768019,"fix_duration":250,"trial":39,"RT":2149,"MT":119,"sideResp":2,"stimulus":"img/500/equaldotanddens/R/2_Ratio_500_L_3_R_6.png","xmouse":[817,817,817,817,817,817,817,817,817,817,817,817,817,817,817,817,817,817,817,817,817,817,817,817,817,817,817,817,817,817,817,816,816,816,814,813,812,810,810,810,810,810,810,810,810,810,810,810,810,808,807,807,807,807,807,807,807,807,807,807,807,807,807,807,807,807,807,807,807,807,807,807,807,807,807,806,806,806,806,806,806,806,806,806,806,806,806,806,806,806,806,806,806,806,806,806,806,806,806,806,806,806,806,806,806,806,806,850,901,959,1021,1072,1127,1139],"ymouse":[511,511,511,511,511,511,511,511,511,511,511,511,511,511,511,512,514,517,517,517,517,517,517,517,517,517,517,517,517,517,517,518,518,518,518,519,519,520,520,520,520,520,520,520,520,520,520,520,520,521,522,522,522,522,522,522,522,522,522,522,522,522,522,522,522,522,522,522,522,522,522,522,522,522,522,522,522,522,522,522,522,522,522,522,522,522,522,522,522,522,522,522,522,522,522,522,522,522,522,522,522,522,522,522,521,519,505,430,366,296,229,177,121,93],"timestamp_mouse":[19,45,50,69,89,109,129,149,170,189,209,229,248,269,290,310,329,349,368,390,408,428,449,469,488,508,530,548,568,589,610,630,649,669,689,709,729,749,768,790,810,828,849,870,890,908,930,949,968,989,1008,1029,1050,1069,1090,1109,1130,1149,1168,1190,1208,1229,1250,1269,1290,1308,1329,1348,1370,1389,1410,1430,1450,1469,1488,1509,1530,1549,1569,1588,1610,1629,1649,1668,1688,1709,1729,1749,1769,1789,1809,1828,1849,1869,1890,1909,1929,1949,1968,1990,2010,2029,2048,2069,2089,2110,2129,2149,2169,2188,2209,2229,2249,2268],"xSR":741.5,"ySR":469.95,"xT1":424.9,"yT1":0,"xT2":1058.1,"yT2":0,"toosoon":0,"cond_shown":"equaldotanddens","ratio_trial":500,"smaller_num":"3","larger_num":"6","correct_side":2,"subjID":"Mathias Alejandro Moreno 28","gender":"0","age":"9","school":"4"},{"start_time":1552074769888,"click_time":1552074771159,"finger_time":1552074770559,"fix_duration":848.1172333412572,"trial":40,"RT":671,"MT":600,"sideResp":2,"stimulus":"img/500/equaldotsize/R/14_Ratio_500_L_5_R_10.png","xmouse":[768,768,768,768,768,767,763,760,759,759,759,759,759,759,759,759,759,759,759,759,759,759,759,759,759,759,759,759,759,759,758,764,796,846,894,925,954,964,964,964,964,964,964,964,964,964,964,964,964,964,964,964,964,964,964,964,964,964,964,964,964,964,964,1070],"ymouse":[529,529,529,529,529,529,529,529,529,529,529,529,529,529,529,529,529,529,529,529,529,529,529,529,529,529,529,529,529,529,527,518,487,447,407,379,311,240,156,75,15,15,15,15,15,15,15,15,15,15,15,15,15,15,15,15,15,15,15,15,15,15,15,21],"timestamp_mouse":[13,36,52,71,92,110,130,151,171,190,212,231,251,270,292,311,331,352,370,392,410,430,451,472,490,510,531,550,572,591,612,630,651,671,691,711,731,750,772,791,812,831,852,871,892,912,931,950,971,992,1012,1031,1050,1071,1092,1112,1131,1151,1171,1191,1212,1232,1251,1270],"xSR":741.5,"ySR":469.95,"xT1":424.9,"yT1":0,"xT2":1058.1,"yT2":0,"toosoon":0,"cond_shown":"equaldotsize","ratio_trial":500,"smaller_num":"5","larger_num":"10","correct_side":2,"subjID":"Mathias Alejandro Moreno 28","gender":"0","age":"9","school":"4"},{"start_time":1552074772856,"click_time":1552074773759,"finger_time":1552074773459,"fix_duration":1036.0479772285494,"trial":41,"RT":603,"MT":300,"sideResp":2,"stimulus":"img/250/equaldotanddens/R/13_Ratio_250_L_2_R_8.png","xmouse":[808,808,808,808,808,809,809,809,811,811,811,811,811,812,812,812,812,813,813,813,813,813,813,813,813,813,813,813,826,840,858,885,924,987,1018,1031,1038,1038,1039,1039,1039,1039,1040,1046,1056,1070],"ymouse":[531,531,531,531,531,530,528,527,526,525,524,524,524,523,523,523,522,520,520,520,520,520,520,520,520,520,520,519,504,490,466,422,351,210,157,133,117,107,91,89,89,89,87,79,72,64],"timestamp_mouse":[14,22,46,62,82,103,123,144,163,182,204,224,243,262,284,302,323,344,362,384,404,424,442,463,482,502,524,543,563,583,603,622,642,663,682,702,724,743,763,783,803,823,843,863,883,903],"xSR":741.5,"ySR":469.95,"xT1":424.9,"yT1":0,"xT2":1058.1,"yT2":0,"toosoon":0,"cond_shown":"equaldotanddens","ratio_trial":250,"smaller_num":"2","larger_num":"8","correct_side":2,"subjID":"Mathias Alejandro Moreno 28","gender":"0","age":"9","school":"4"},{"start_time":1552074775744,"click_time":1552074776619,"finger_time":1552074776079,"fix_duration":1224.1233479155346,"trial":42,"RT":335,"MT":540,"sideResp":2,"stimulus":"img/500/randomdotsizeEA/R/1_Ratio_500_L_9_R_18.png","xmouse":[793,793,793,793,793,793,793,793,793,793,793,793,793,793,793,797,820,853,892,900,901,901,901,901,901,902,902,907,937,966,982,992,1000,1009,1011,1014,1015,1018,1022,1027,1032,1039,1056,1101],"ymouse":[499,499,499,499,499,499,499,499,499,499,499,499,499,499,499,493,467,443,417,412,411,411,411,411,411,411,409,395,350,305,278,258,243,225,220,214,209,202,192,182,173,156,115,6],"timestamp_mouse":[15,38,56,76,96,116,134,156,176,195,214,235,255,276,295,316,335,355,375,395,414,435,454,475,495,516,535,554,575,595,614,635,654,675,694,715,735,756,775,795,814,834,855,874],"xSR":741.5,"ySR":469.95,"xT1":424.9,"yT1":0,"xT2":1058.1,"yT2":0,"toosoon":0,"cond_shown":"randomdotsizeEA","ratio_trial":500,"smaller_num":"9","larger_num":"18","correct_side":2,"subjID":"Mathias Alejandro Moreno 28","gender":"0","age":"9","school":"4"},{"start_time":1552074779070,"click_time":1552074780219,"finger_time":1552074779879,"fix_duration":250,"trial":43,"RT":809,"MT":340,"sideResp":2,"stimulus":"img/750/randomdotsizeEA/L/8_Ratio_750_L_4_R_3.png","xmouse":[789,789,789,789,789,789,789,789,789,789,789,789,789,789,789,789,789,789,789,789,789,789,789,789,789,789,789,789,789,789,789,789,789,789,789,789,789,793,800,814,840,872,918,941,956,967,978,989,991,991,991,991,991,999,1016,1040,1068,1093],"ymouse":[531,531,531,531,531,531,531,531,531,531,531,531,531,531,531,531,531,531,531,531,531,531,531,531,531,531,531,531,531,531,531,531,531,531,531,531,531,523,509,481,419,336,226,185,161,143,126,111,109,109,109,109,109,109,109,109,107,98],"timestamp_mouse":[12,37,48,68,89,109,128,149,168,189,210,229,248,270,289,309,328,350,369,388,409,428,449,469,489,509,528,550,570,589,610,629,649,670,690,710,730,749,769,789,809,830,849,868,889,910,928,949,968,988,1009,1029,1048,1068,1088,1110,1129,1148],"xSR":741.5,"ySR":469.95,"xT1":424.9,"yT1":0,"xT2":1058.1,"yT2":0,"toosoon":0,"cond_shown":"randomdotsizeEA","ratio_trial":750,"smaller_num":"3","larger_num":"4","correct_side":1,"subjID":"Mathias Alejandro Moreno 28","gender":"0","age":"9","school":"4"},{"start_time":1552074782270,"click_time":1552074783519,"finger_time":1552074782659,"fix_duration":1069.3271626273852,"trial":44,"RT":389,"MT":860,"sideResp":1,"stimulus":"img/250/randomdotsizeEA/L/15_Ratio_250_L_12_R_3.png","xmouse":[799,799,799,799,799,798,798,798,798,798,798,797,797,797,797,797,796,795,791,785,778,774,761,754,751,748,748,748,748,748,748,748,748,748,748,748,748,748,748,748,748,748,756,790,811,821,821,803,786,771,760,757,746,737,728,710,687,644,625,602,577,550,496],"ymouse":[528,528,527,527,527,526,524,523,522,522,520,519,519,519,517,516,513,507,482,459,442,433,409,395,389,383,381,381,381,381,381,381,381,381,381,381,381,381,381,381,381,380,369,335,298,250,209,132,113,98,90,87,85,84,84,80,77,72,70,66,62,60,60],"timestamp_mouse":[13,33,48,69,89,108,130,150,168,188,210,229,249,269,288,309,328,348,369,389,409,429,448,469,488,509,528,549,569,588,608,630,649,668,689,709,730,749,769,790,809,830,849,869,889,909,929,948,969,990,1010,1028,1048,1069,1088,1109,1128,1149,1170,1189,1209,1230,1249],"xSR":741.5,"ySR":469.95,"xT1":424.9,"yT1":0,"xT2":1058.1,"yT2":0,"toosoon":0,"cond_shown":"randomdotsizeEA","ratio_trial":250,"smaller_num":"3","larger_num":"12","correct_side":1,"subjID":"Mathias Alejandro Moreno 28","gender":"0","age":"9","school":"4"},{"start_time":1552074784828,"click_time":1552074785959,"finger_time":1552074785539,"fix_duration":286.08040809769733,"trial":45,"RT":711,"MT":420,"sideResp":2,"stimulus":"img/250/equaldotsize/R/4_Ratio_250_L_3_R_12.png","xmouse":[822,822,822,821,819,818,818,818,818,818,818,818,818,818,818,818,818,818,818,818,818,818,818,818,818,818,818,818,818,818,818,818,818,818,823,842,901,939,980,1061,1103,1137,1161,1177,1196,1201,1203,1204,1204,1204,1204,1204,1204,1204,1204,1161,1157],"ymouse":[506,506,506,506,502,501,501,501,501,501,501,501,499,499,498,498,498,498,497,497,496,496,496,496,496,496,496,496,496,496,496,496,496,494,483,467,421,395,361,271,220,173,133,104,64,40,25,12,1,1,1,1,1,1,1,1,8],"timestamp_mouse":[12,41,51,70,90,112,132,150,171,192,212,232,250,272,291,310,332,350,372,390,410,431,452,471,491,512,530,550,571,591,610,630,651,672,691,711,730,751,771,791,810,830,851,872,891,911,930,951,971,991,1011,1031,1051,1072,1091,1111,1131],"xSR":741.5,"ySR":469.95,"xT1":424.9,"yT1":0,"xT2":1058.1,"yT2":0,"toosoon":0,"cond_shown":"equaldotsize","ratio_trial":250,"smaller_num":"3","larger_num":"12","correct_side":2,"subjID":"Mathias Alejandro Moreno 28","gender":"0","age":"9","school":"4"},{"start_time":1552074791071,"click_time":1552074792440,"finger_time":1552074792260,"fix_duration":250,"trial":46,"RT":1189,"MT":180,"sideResp":1,"stimulus":"img/900/equaldotsize/R/5_Ratio_900_L_9_R_10.png","xmouse":[815,815,815,815,815,815,815,815,815,815,815,815,815,815,815,815,815,815,812,799,782,768,754,753,753,753,753,753,753,753,753,753,753,753,753,754,758,767,768,769,770,771,776,776,778,779,780,784,786,787,787,787,787,787,787,787,787,789,789,788,774,764,755,745,726,695,650,548,503],"ymouse":[547,547,547,547,547,547,547,547,547,547,547,547,547,547,547,547,547,547,541,529,515,503,486,486,486,486,486,486,486,486,486,486,486,486,490,499,505,516,517,517,517,517,518,518,519,519,519,519,519,519,519,519,519,519,519,519,519,514,489,447,396,360,315,280,244,203,151,64,36],"timestamp_mouse":[11,40,49,68,89,109,127,147,168,189,208,229,248,268,288,309,328,347,367,388,408,429,448,468,489,509,527,548,569,589,607,629,648,667,687,707,727,748,769,788,807,828,848,868,887,908,928,948,968,988,1008,1027,1048,1069,1088,1109,1128,1147,1168,1189,1207,1227,1248,1268,1288,1309,1328,1348,1368],"xSR":741.5,"ySR":469.95,"xT1":424.9,"yT1":0,"xT2":1058.1,"yT2":0,"toosoon":0,"cond_shown":"equaldotsize","ratio_trial":900,"smaller_num":"9","larger_num":"10","correct_side":2,"subjID":"Mathias Alejandro Moreno 28","gender":"0","age":"9","school":"4"},{"start_time":1552074799007,"click_time":1552074800218,"finger_time":1552074799818,"fix_duration":527.13744607421,"trial":47,"RT":811,"MT":400,"sideResp":2,"stimulus":"img/750/randomdotsizeEA/L/10_Ratio_750_L_4_R_3.png","xmouse":[789,789,789,789,789,789,789,789,789,789,789,789,789,789,789,789,789,789,789,789,789,789,789,789,789,789,789,789,789,789,789,789,789,789,789,789,789,789,789,790,821,856,889,912,923,931,938,960,979,1011,1051,1054,1054,1054,1054,1046,1044,1044,1048,1058,1071],"ymouse":[490,490,490,490,490,490,490,490,490,490,490,490,490,490,490,490,490,490,490,490,490,490,490,490,490,490,490,490,490,490,490,490,490,490,490,490,490,490,490,491,462,426,388,361,350,340,331,305,286,259,218,207,201,194,185,152,122,105,89,73,56],"timestamp_mouse":[13,45,53,71,93,112,133,151,173,193,212,232,252,273,293,312,332,353,373,391,411,433,452,472,492,512,532,553,573,592,612,631,651,673,693,712,733,752,772,791,811,832,852,872,892,911,932,951,971,992,1012,1033,1053,1072,1092,1112,1132,1151,1172,1192,1211],"xSR":741.5,"ySR":469.95,"xT1":424.9,"yT1":0,"xT2":1058.1,"yT2":0,"toosoon":0,"cond_shown":"randomdotsizeEA","ratio_trial":750,"smaller_num":"3","larger_num":"4","correct_side":1,"subjID":"Mathias Alejandro Moreno 28","gender":"0","age":"9","school":"4"},{"start_time":1552074803012,"click_time":1552074803838,"finger_time":1552074803718,"fix_duration":250,"trial":48,"RT":706,"MT":120,"sideResp":1,"stimulus":"img/900/equaldotanddens/R/5_Ratio_900_L_9_R_10.png","xmouse":[796,796,796,796,796,796,796,796,796,796,796,796,796,796,796,796,796,796,796,796,796,796,796,796,796,796,796,796,796,796,796,796,796,796,796,721,682,628,570,539,513,502],"ymouse":[515,515,515,515,515,515,515,515,515,515,515,515,515,515,515,515,515,515,515,515,515,515,515,515,515,515,515,515,515,515,515,515,515,514,507,368,304,235,165,130,100,88],"timestamp_mouse":[13,37,48,66,88,107,128,146,168,187,207,228,246,268,287,307,327,346,368,388,407,427,448,467,486,506,528,547,567,587,606,628,648,666,688,706,727,746,768,786,807,826],"xSR":741.5,"ySR":469.95,"xT1":424.9,"yT1":0,"xT2":1058.1,"yT2":0,"toosoon":0,"cond_shown":"equaldotanddens","ratio_trial":900,"smaller_num":"9","larger_num":"10","correct_side":2,"subjID":"Mathias Alejandro Moreno 28","gender":"0","age":"9","school":"4"},{"start_time":1552074805531,"click_time":1552074806619,"finger_time":1552074806318,"fix_duration":750.4580876031245,"trial":49,"RT":787,"MT":301,"sideResp":1,"stimulus":"img/750/equaldotsize/L/13_Ratio_750_L_8_R_6.png","xmouse":[787,787,787,787,787,787,787,787,787,787,787,787,787,787,787,787,787,787,787,787,787,787,787,787,787,787,787,787,787,787,787,787,787,787,787,787,785,783,775,664,582,524,495,480,449,433,414,400,384,363,363,363,363,375,434],"ymouse":[508,508,508,508,508,508,508,508,508,508,508,508,508,508,508,508,508,508,508,508,508,508,508,508,508,508,508,508,508,508,508,508,508,508,508,508,502,500,489,347,269,212,181,166,139,126,113,103,93,80,80,80,80,80,80],"timestamp_mouse":[12,38,47,67,89,109,129,147,168,188,209,227,248,267,287,308,328,348,368,388,408,427,449,468,488,507,527,548,568,588,609,629,649,668,688,708,727,747,768,787,808,828,848,868,888,908,927,948,968,988,1008,1027,1047,1067,1088],"xSR":741.5,"ySR":469.95,"xT1":424.9,"yT1":0,"xT2":1058.1,"yT2":0,"toosoon":0,"cond_shown":"equaldotsize","ratio_trial":750,"smaller_num":"6","larger_num":"8","correct_side":1,"subjID":"Mathias Alejandro Moreno 28","gender":"0","age":"9","school":"4"},{"start_time":1552074807873,"click_time":1552074808758,"finger_time":1552074808539,"fix_duration":251.90460255814784,"trial":50,"RT":666,"MT":219,"sideResp":2,"stimulus":"img/900/equaldotsize/R/5_Ratio_900_L_9_R_10.png","xmouse":[782,782,782,782,782,782,782,782,782,782,782,782,782,782,783,783,785,787,787,788,788,788,788,788,788,788,788,788,788,793,797,810,832,856,883,897,916,965,989,1004,1015,1024,1043,1056,1063],"ymouse":[546,546,546,546,546,546,546,546,546,546,546,546,546,546,545,544,543,541,541,541,540,540,540,540,540,540,540,540,539,532,527,512,481,450,389,345,292,172,125,94,76,60,34,21,16],"timestamp_mouse":[12,27,47,67,86,107,125,146,166,187,207,227,246,266,286,306,326,347,366,386,406,425,445,466,487,506,525,546,566,586,605,627,645,666,686,705,725,745,767,787,806,827,846,866,885],"xSR":741.5,"ySR":469.95,"xT1":424.9,"yT1":0,"xT2":1058.1,"yT2":0,"toosoon":0,"cond_shown":"equaldotsize","ratio_trial":900,"smaller_num":"9","larger_num":"10","correct_side":2,"subjID":"Mathias Alejandro Moreno 28","gender":"0","age":"9","school":"4"},{"start_time":1552074813625,"click_time":1552074814419,"finger_time":1552074814279,"fix_duration":504.7596433666722,"trial":51,"RT":654,"MT":140,"sideResp":1,"stimulus":"img/250/equaldotanddens/L/3_Ratio_250_L_8_R_2.png","xmouse":[792,792,792,792,792,792,792,792,792,792,792,792,792,792,792,792,792,792,792,792,792,792,792,793,794,795,795,795,795,795,793,780,759,728,688,554,507,474,459,450],"ymouse":[532,532,532,532,532,532,532,532,532,532,532,532,532,532,532,532,532,532,532,532,532,532,532,530,524,523,521,520,519,514,505,485,458,420,379,248,190,143,115,93],"timestamp_mouse":[14,43,54,75,93,114,135,154,175,193,214,233,255,275,293,313,335,355,373,394,415,435,455,473,493,515,535,554,573,594,613,634,654,674,693,714,733,755,773,793],"xSR":741.5,"ySR":469.95,"xT1":424.9,"yT1":0,"xT2":1058.1,"yT2":0,"toosoon":0,"cond_shown":"equaldotanddens","ratio_trial":250,"smaller_num":"2","larger_num":"8","correct_side":1,"subjID":"Mathias Alejandro Moreno 28","gender":"0","age":"9","school":"4"},{"start_time":1552074818470,"click_time":1552074819979,"finger_time":1552074819380,"fix_duration":1429.248860493026,"trial":52,"RT":910,"MT":599,"sideResp":1,"stimulus":"img/250/equaldotanddens/L/15_Ratio_250_L_12_R_3.png","xmouse":[794,794,794,794,794,794,794,794,794,794,794,794,794,794,794,794,794,794,794,794,794,794,794,794,794,794,794,794,794,794,794,794,794,794,794,794,794,794,794,794,794,794,794,794,773,748,726,700,688,681,678,675,670,665,661,658,657,656,655,653,650,644,641,636,630,621,605,571,554,546,539,531,528,528,526,523],"ymouse":[525,525,525,525,525,525,525,525,525,525,525,525,525,525,525,525,525,525,525,525,525,525,525,525,525,525,525,525,525,525,525,525,525,525,525,525,525,525,525,525,525,525,525,519,487,449,412,365,344,324,309,291,256,230,219,209,205,199,195,191,183,176,170,160,150,138,121,102,95,92,91,90,90,90,90,89],"timestamp_mouse":[12,34,48,68,90,110,130,149,169,188,209,230,248,268,288,310,330,349,369,389,410,430,448,468,488,510,528,549,569,589,609,630,649,670,690,709,729,749,769,790,809,830,849,869,889,910,929,949,969,989,1009,1029,1050,1070,1089,1109,1131,1149,1169,1188,1208,1231,1249,1269,1289,1310,1329,1350,1369,1389,1409,1429,1449,1469,1490,1509],"xSR":741.5,"ySR":469.95,"xT1":424.9,"yT1":0,"xT2":1058.1,"yT2":0,"toosoon":0,"cond_shown":"equaldotanddens","ratio_trial":250,"smaller_num":"3","larger_num":"12","correct_side":1,"subjID":"Mathias Alejandro Moreno 28","gender":"0","age":"9","school":"4"},{"start_time":1552074822070,"click_time":1552074823019,"finger_time":1552074822699,"fix_duration":250,"trial":53,"RT":629,"MT":320,"sideResp":1,"stimulus":"img/250/equaldotsize/L/15_Ratio_250_L_12_R_3.png","xmouse":[764,764,764,764,764,764,764,764,764,764,764,764,764,764,764,764,764,764,764,764,764,764,764,764,764,764,764,764,764,764,760,741,668,640,620,607,598,575,560,542,527,514,499,495,494,490,486,475],"ymouse":[505,505,505,505,505,505,505,505,505,505,505,505,505,505,505,505,505,505,505,505,505,505,505,505,505,505,505,505,505,499,488,449,309,268,240,221,210,186,174,160,149,140,129,125,122,117,111,92],"timestamp_mouse":[12,37,49,69,90,110,128,149,170,190,210,229,250,268,290,309,329,349,370,389,409,429,450,469,489,508,530,549,570,589,609,629,650,669,689,710,729,750,769,790,809,829,849,870,889,909,929,949],"xSR":741.5,"ySR":469.95,"xT1":424.9,"yT1":0,"xT2":1058.1,"yT2":0,"toosoon":0,"cond_shown":"equaldotsize","ratio_trial":250,"smaller_num":"3","larger_num":"12","correct_side":1,"subjID":"Mathias Alejandro Moreno 28","gender":"0","age":"9","school":"4"},{"start_time":1552074832550,"click_time":1552074833519,"finger_time":1552074833119,"fix_duration":1350.6132887451117,"trial":54,"RT":569,"MT":400,"sideResp":2,"stimulus":"img/750/equaldotanddens/R/5_Ratio_750_L_15_R_20.png","xmouse":[800,800,800,800,800,800,800,800,800,800,800,800,800,800,800,800,800,800,800,800,800,800,800,800,800,800,799,798,797,807,820,844,880,932,946,956,962,973,1017,1051,1074,1088,1096,1106,1107,1107,1107,1107,1104],"ymouse":[498,498,498,498,498,498,498,498,498,498,498,498,498,498,498,498,498,498,498,498,498,498,498,498,498,498,489,483,444,407,380,340,291,222,205,195,190,184,168,153,141,128,120,110,109,107,104,102,93],"timestamp_mouse":[10,36,49,70,90,109,129,149,169,189,210,229,248,270,289,310,329,349,369,390,409,430,448,470,489,510,529,549,569,590,609,629,649,668,689,709,729,749,769,790,808,829,849,869,889,909,929,948,969],"xSR":741.5,"ySR":469.95,"xT1":424.9,"yT1":0,"xT2":1058.1,"yT2":0,"toosoon":0,"cond_shown":"equaldotanddens","ratio_trial":750,"smaller_num":"15","larger_num":"20","correct_side":2,"subjID":"Mathias Alejandro Moreno 28","gender":"0","age":"9","school":"4"},{"start_time":1552074835539,"click_time":1552074836660,"finger_time":1552074836339,"fix_duration":1217.5467297742937,"trial":55,"RT":800,"MT":321,"sideResp":1,"stimulus":"img/250/randomdotsizeEA/L/1_Ratio_250_L_8_R_2.png","xmouse":[824,831,831,833,833,833,833,833,833,833,833,833,833,833,833,832,831,820,807,781,774,771,771,771,771,771,771,770,770,770,770,770,770,770,768,768,767,764,762,753,738,725,703,670,616,598,586,580,578,571,560,549,541,532,514,504,493],"ymouse":[537,541,541,542,542,542,542,542,542,542,542,542,542,542,542,542,542,537,532,519,514,513,513,513,513,513,513,512,512,512,512,511,511,511,509,507,506,503,501,492,475,459,428,384,314,288,266,252,243,229,214,202,187,170,134,115,98],"timestamp_mouse":[1,38,40,60,79,102,120,140,161,180,200,220,240,259,280,301,320,340,360,380,400,421,440,461,481,501,520,540,560,580,599,620,640,660,679,700,720,740,761,779,800,819,841,860,880,900,921,941,961,980,1000,1019,1039,1059,1080,1100,1121],"xSR":741.5,"ySR":469.95,"xT1":424.9,"yT1":0,"xT2":1058.1,"yT2":0,"toosoon":0,"cond_shown":"randomdotsizeEA","ratio_trial":250,"smaller_num":"2","larger_num":"8","correct_side":1,"subjID":"Mathias Alejandro Moreno 28","gender":"0","age":"9","school":"4"},{"start_time":1552074839053,"click_time":1552074840339,"finger_time":1552074839899,"fix_duration":1251.5364267080406,"trial":56,"RT":846,"MT":440,"sideResp":2,"stimulus":"img/500/equaldotanddens/R/9_Ratio_500_L_2_R_4.png","xmouse":[812,812,812,812,812,812,812,812,812,812,812,812,812,812,812,812,812,812,812,812,812,812,812,812,812,812,812,812,812,812,812,812,812,812,812,812,812,812,812,812,816,837,863,926,946,950,955,965,972,986,991,993,995,1000,1006,1010,1013,1019,1029,1038,1047,1056,1064,1076,1078],"ymouse":[509,509,509,509,509,509,509,509,509,509,509,509,509,509,509,509,509,509,509,509,509,509,509,509,509,509,509,509,509,509,509,509,509,509,509,509,509,509,509,506,501,481,449,374,349,337,327,312,299,272,260,251,245,231,220,213,207,200,183,172,160,147,132,104,98],"timestamp_mouse":[13,36,47,67,85,107,127,147,166,186,206,227,245,266,287,306,327,346,366,386,406,426,446,466,486,506,527,545,567,586,606,627,647,666,686,707,727,747,766,786,806,826,846,866,886,905,926,946,966,986,1006,1027,1047,1066,1087,1106,1126,1147,1166,1186,1206,1226,1247,1266,1286],"xSR":741.5,"ySR":469.95,"xT1":424.9,"yT1":0,"xT2":1058.1,"yT2":0,"toosoon":0,"cond_shown":"equaldotanddens","ratio_trial":500,"smaller_num":"2","larger_num":"4","correct_side":2,"subjID":"Mathias Alejandro Moreno 28","gender":"0","age":"9","school":"4"},{"start_time":1552074849090,"click_time":1552074849900,"finger_time":1552074849719,"fix_duration":250,"trial":57,"RT":629,"MT":181,"sideResp":2,"stimulus":"img/500/equaldotanddens/R/2_Ratio_500_L_3_R_6.png","xmouse":[812,812,812,812,812,812,812,812,812,811,811,811,811,811,811,811,811,811,811,811,811,811,811,811,811,811,811,811,811,811,817,853,922,973,1015,1048,1090,1100,1108,1115,1121],"ymouse":[517,517,517,517,517,517,517,517,517,517,517,517,517,517,517,517,516,515,515,515,515,515,515,515,515,515,515,515,513,511,499,460,408,358,291,230,156,133,115,100,85],"timestamp_mouse":[11,43,49,70,89,109,129,149,169,189,209,229,249,270,290,309,330,349,369,390,409,429,450,470,489,509,529,550,569,589,610,629,650,669,689,709,729,750,769,788,810],"xSR":741.5,"ySR":469.95,"xT1":424.9,"yT1":0,"xT2":1058.1,"yT2":0,"toosoon":0,"cond_shown":"equaldotanddens","ratio_trial":500,"smaller_num":"3","larger_num":"6","correct_side":2,"subjID":"Mathias Alejandro Moreno 28","gender":"0","age":"9","school":"4"},{"start_time":1552074851864,"click_time":1552074852819,"finger_time":1552074851939,"fix_duration":1082.3779803322461,"trial":58,"RT":75,"MT":880,"sideResp":2,"stimulus":"img/750/randomdotsizeEA/R/4_Ratio_750_L_15_R_20.png","xmouse":[804,805,808,814,816,817,817,817,817,817,817,817,819,823,826,832,838,846,848,849,849,849,849,849,849,849,849,849,857,871,895,930,1003,1019,1022,1023,1024,1030,1032,1037,1044,1048,1058,1060,1062,1063,1065,1070],"ymouse":[496,494,482,465,458,453,451,446,445,443,442,440,435,427,422,416,413,408,407,407,407,407,407,407,407,407,407,404,390,369,337,295,223,211,202,196,191,186,184,182,179,175,141,127,115,106,100,87],"timestamp_mouse":[16,36,55,75,95,115,135,155,175,196,215,235,255,275,294,314,334,354,376,395,415,436,456,476,495,516,535,554,575,596,616,635,655,675,696,716,736,755,775,796,816,836,854,876,896,915,935,954],"xSR":741.5,"ySR":469.95,"xT1":424.9,"yT1":0,"xT2":1058.1,"yT2":0,"toosoon":0,"cond_shown":"randomdotsizeEA","ratio_trial":750,"smaller_num":"15","larger_num":"20","correct_side":2,"subjID":"Mathias Alejandro Moreno 28","gender":"0","age":"9","school":"4"},{"start_time":1552074854003,"click_time":1552074854759,"finger_time":1552074854458,"fix_duration":282.41417264495084,"trial":59,"RT":455,"MT":301,"sideResp":1,"stimulus":"img/750/equaldotsize/L/10_Ratio_750_L_4_R_3.png","xmouse":[818,818,817,817,817,817,817,817,817,817,817,817,817,817,816,816,816,816,816,816,816,821,826,831,835,841,841,834,821,793,712,692,681,675,671,644,576,500],"ymouse":[492,492,491,491,491,491,491,491,490,490,489,488,487,487,486,485,485,485,485,484,479,470,455,437,423,401,390,379,368,352,294,276,262,249,233,170,79,26],"timestamp_mouse":[17,36,57,76,97,116,136,157,177,196,217,237,256,276,297,317,337,357,377,396,416,436,455,476,496,516,538,555,576,596,617,635,657,676,696,717,736,756],"xSR":741.5,"ySR":469.95,"xT1":424.9,"yT1":0,"xT2":1058.1,"yT2":0,"toosoon":0,"cond_shown":"equaldotsize","ratio_trial":750,"smaller_num":"3","larger_num":"4","correct_side":1,"subjID":"Mathias Alejandro Moreno 28","gender":"0","age":"9","school":"4"},{"start_time":1552074861420,"click_time":1552074864199,"finger_time":1552074863419,"fix_duration":1277.8819672642371,"trial":60,"RT":1999,"MT":780,"sideResp":2,"stimulus":"img/250/equaldotanddens/R/11_Ratio_250_L_3_R_12.png","xmouse":[762,762,762,762,762,762,762,762,762,762,762,762,762,762,762,762,762,762,762,762,762,762,762,762,762,762,762,762,762,762,762,762,762,762,762,762,762,762,762,762,762,762,762,762,762,762,762,762,762,762,762,762,762,762,762,762,762,762,762,762,762,762,762,762,762,762,762,762,762,762,762,762,762,762,762,762,761,760,760,760,760,760,760,760,760,760,760,760,760,760,760,760,760,760,760,760,760,760,760,759,774,787,800,813,829,858,880,891,905,920,946,968,989,1000,1002,1002,1007,1010,1013,1013,1016,1016,1016,1016,1016,1016,1016,1016,1016,1016,1016,1016,1016,1016,1016,1016,1016,1016,1016,1074],"ymouse":[497,497,497,497,497,497,497,497,497,497,497,497,497,497,497,497,497,497,497,497,497,497,497,497,497,497,497,497,497,497,497,497,497,497,497,497,497,497,497,497,497,497,497,497,497,497,497,497,497,497,497,497,497,497,497,497,497,497,497,497,497,497,497,497,497,497,497,497,497,497,497,497,497,497,497,497,496,496,496,496,496,496,496,496,496,496,496,496,496,496,496,496,496,496,496,496,496,496,496,493,468,455,444,438,432,425,417,411,399,387,360,343,322,301,282,238,202,173,136,87,4,4,4,4,4,4,4,4,4,4,4,4,4,4,4,4,4,4,4,1],"timestamp_mouse":[1,19,40,60,80,100,120,139,160,180,200,220,240,259,280,300,319,339,360,380,399,419,440,458,480,499,519,538,559,580,600,620,640,659,679,699,720,739,759,778,799,819,839,860,879,899,919,939,959,980,999,1019,1039,1060,1080,1099,1119,1139,1160,1180,1199,1219,1240,1260,1279,1298,1319,1340,1359,1380,1399,1420,1440,1459,1480,1499,1520,1540,1559,1580,1599,1620,1640,1660,1680,1698,1720,1739,1760,1780,1798,1819,1838,1860,1880,1899,1919,1940,1960,1979,1999,2019,2039,2060,2079,2099,2119,2139,2160,2180,2199,2218,2239,2259,2279,2300,2320,2338,2359,2379,2399,2419,2438,2459,2479,2499,2519,2539,2560,2580,2599,2619,2639,2659,2681,2700,2720,2740,2760,2779],"xSR":741.5,"ySR":469.95,"xT1":424.9,"yT1":0,"xT2":1058.1,"yT2":0,"toosoon":0,"cond_shown":"equaldotanddens","ratio_trial":250,"smaller_num":"3","larger_num":"12","correct_side":2,"subjID":"Mathias Alejandro Moreno 28","gender":"0","age":"9","school":"4"},{"start_time":1552074866770,"click_time":1552074867900,"finger_time":1552074867380,"fix_duration":770.8871752528524,"trial":61,"RT":610,"MT":520,"sideResp":1,"stimulus":"img/500/equaldotanddens/L/8_Ratio_500_L_8_R_4.png","xmouse":[797,797,797,797,797,797,797,797,797,797,797,797,797,797,797,797,797,797,797,797,797,797,797,797,797,797,797,796,793,769,715,625,437,385,339,323,321,321,322,329,336,346,378,392,398,402,407,415,415,415,415,415,415,415,417,421,436],"ymouse":[553,553,553,553,553,553,553,553,553,553,553,553,553,553,553,553,553,553,553,553,553,553,553,553,553,553,553,543,536,500,443,372,218,149,79,51,48,48,46,45,44,41,36,34,32,31,30,29,29,29,29,29,29,29,30,32,39],"timestamp_mouse":[13,41,50,70,90,109,129,149,170,190,210,229,249,270,289,309,330,350,370,388,409,430,449,469,489,510,530,549,570,589,610,629,649,669,689,709,729,749,770,789,809,830,849,869,890,909,930,949,969,989,1010,1029,1048,1069,1090,1110,1130],"xSR":741.5,"ySR":469.95,"xT1":424.9,"yT1":0,"xT2":1058.1,"yT2":0,"toosoon":0,"cond_shown":"equaldotanddens","ratio_trial":500,"smaller_num":"4","larger_num":"8","correct_side":1,"subjID":"Mathias Alejandro Moreno 28","gender":"0","age":"9","school":"4"},{"start_time":1552074869771,"click_time":1552074871039,"finger_time":1552074870419,"fix_duration":849.9303072709845,"trial":62,"RT":648,"MT":620,"sideResp":1,"stimulus":"img/250/equaldotsize/L/2_Ratio_250_L_16_R_4.png","xmouse":[818,818,818,818,818,818,817,818,818,818,818,818,818,818,818,818,818,818,812,810,810,810,810,810,810,810,810,810,807,800,795,788,767,757,743,730,716,690,672,651,626,606,573,562,554,549,545,543,539,538,533,529,519,512,501,486,472,460,458,458,458,458,458,457],"ymouse":[504,504,504,504,504,504,504,501,501,501,501,501,501,501,501,501,501,501,500,498,498,498,498,498,498,498,498,498,497,492,488,483,458,446,430,413,399,376,360,346,328,314,283,269,257,247,237,222,211,203,194,188,176,169,157,144,130,106,102,101,101,101,101,99],"timestamp_mouse":[10,38,48,68,87,109,128,148,168,188,208,229,248,269,288,308,328,348,369,389,408,428,449,469,488,508,528,548,568,588,608,628,648,668,688,708,728,748,767,788,809,827,848,868,888,908,929,947,968,988,1008,1028,1048,1068,1089,1108,1129,1148,1168,1188,1209,1229,1249,1268],"xSR":741.5,"ySR":469.95,"xT1":424.9,"yT1":0,"xT2":1058.1,"yT2":0,"toosoon":0,"cond_shown":"equaldotsize","ratio_trial":250,"smaller_num":"4","larger_num":"16","correct_side":1,"subjID":"Mathias Alejandro Moreno 28","gender":"0","age":"9","school":"4"},{"start_time":1552074873061,"click_time":1552074875399,"finger_time":1552074873999,"fix_duration":1079.2654156811284,"trial":63,"RT":938,"MT":1400,"sideResp":2,"stimulus":"img/750/equaldotsize/L/14_Ratio_750_L_8_R_6.png","xmouse":[777,777,777,777,777,777,777,777,777,777,777,777,777,777,777,777,777,777,777,777,777,777,777,777,777,777,777,777,777,777,777,777,777,777,777,777,779,780,780,780,780,780,780,775,768,753,725,655,623,606,594,586,578,576,576,574,572,567,562,559,558,558,558,560,578,611,646,699,732,784,871,1015,1275,1320,1321,1321,1321,1321,1324,1327,1328,1328,1321,1300,1276,1249,1224,1201,1198,1197,1195,1194,1187,1185,1185,1185,1182,1179,1176,1172,1169,1167,1166,1166,1166,1166,1166,1166,1166,1166,1166,1166,1166,1166,1163,1161,1151],"ymouse":[514,514,514,514,514,514,514,514,514,514,514,514,514,514,514,514,514,514,514,514,514,514,514,514,514,514,514,514,514,514,514,514,514,514,514,514,511,511,511,511,511,510,505,500,493,476,445,364,324,303,287,277,264,262,259,256,251,240,233,230,228,227,227,227,229,234,236,234,224,206,178,126,53,34,32,32,32,31,28,25,23,22,20,20,22,30,35,44,45,46,47,48,53,54,54,54,54,56,57,57,58,58,58,58,58,58,58,58,58,58,58,58,58,58,59,59,60],"timestamp_mouse":[18,47,58,78,99,118,138,159,179,199,218,238,259,278,298,319,338,358,378,397,419,439,458,478,498,519,538,558,579,598,618,638,658,678,698,718,739,758,778,798,819,838,858,879,899,918,938,959,979,998,1018,1038,1059,1079,1098,1118,1139,1158,1178,1198,1218,1238,1258,1278,1298,1318,1338,1357,1378,1398,1418,1438,1458,1479,1497,1518,1539,1558,1579,1598,1618,1639,1658,1678,1697,1718,1737,1758,1779,1798,1819,1837,1858,1877,1898,1918,1939,1958,1978,1998,2019,2039,2058,2078,2098,2119,2138,2159,2178,2199,2218,2238,2258,2279,2299,2318,2337],"xSR":741.5,"ySR":469.95,"xT1":424.9,"yT1":0,"xT2":1058.1,"yT2":0,"toosoon":0,"cond_shown":"equaldotsize","ratio_trial":750,"smaller_num":"6","larger_num":"8","correct_side":1,"subjID":"Mathias Alejandro Moreno 28","gender":"0","age":"9","school":"4"},{"start_time":1552074876651,"click_time":1552074877479,"finger_time":1552074877219,"fix_duration":250,"trial":64,"RT":568,"MT":260,"sideResp":1,"stimulus":"img/250/equaldotanddens/L/1_Ratio_250_L_8_R_2.png","xmouse":[772,772,772,772,772,772,772,772,772,772,772,772,772,772,772,772,772,772,772,772,772,772,772,772,772,771,770,769,761,751,742,729,703,654,639,619,607,593,551,527,508,497],"ymouse":[493,493,493,493,493,493,493,493,493,493,493,493,493,493,493,493,493,493,493,493,493,493,493,493,493,492,490,485,462,441,421,392,356,286,266,243,229,213,167,142,113,90],"timestamp_mouse":[12,36,49,68,89,109,128,148,168,189,209,228,249,268,288,307,328,349,368,388,409,428,449,468,488,508,528,548,568,588,608,628,649,668,688,707,729,749,769,788,808,828],"xSR":741.5,"ySR":469.95,"xT1":424.9,"yT1":0,"xT2":1058.1,"yT2":0,"toosoon":0,"cond_shown":"equaldotanddens","ratio_trial":250,"smaller_num":"2","larger_num":"8","correct_side":1,"subjID":"Mathias Alejandro Moreno 28","gender":"0","age":"9","school":"4"},{"start_time":1552074878583,"click_time":1552074879919,"finger_time":15520