[{"start_time":1552073552562,"click_time":1552073555198,"finger_time":1552073554597,"fix_duration":1101.2030865368847,"trial":0,"RT":2035,"MT":601,"sideResp":2,"stimulus":[],"xmouse":[786,779,778,778,778,778,778,778,778,778,778,778,778,778,778,778,777,777,777,777,777,777,777,777,777,777,777,777,777,777,777,777,777,777,777,777,777,777,777,777,777,777,777,777,777,777,777,777,777,777,777,777,777,777,777,777,777,777,777,777,777,777,777,777,777,777,777,777,777,777,777,777,777,777,777,777,777,777,777,777,777,777,777,777,777,777,777,777,777,777,777,777,777,777,777,777,777,777,777,777,777,759,742,730,720,714,711,710,710,710,710,710,703,702,702,702,712,747,795,857,949,1072,1138,1181,1197,1199,1193,1185,1182,1179,1177,1155],"ymouse":[549,549,549,549,549,549,549,549,549,549,549,549,549,549,549,549,549,549,549,549,549,549,549,549,549,549,549,549,549,549,549,549,549,549,549,549,549,549,549,549,549,549,549,549,549,549,549,549,549,549,549,549,549,549,549,549,549,549,549,549,549,549,549,549,549,549,549,549,549,549,549,549,549,549,549,549,549,549,549,549,549,549,549,549,549,549,549,549,549,549,549,549,549,549,549,549,549,549,549,551,563,617,633,645,655,662,666,667,667,667,667,667,670,670,670,670,656,615,559,493,367,232,176,141,125,111,82,70,66,64,63,58],"timestamp_mouse":[15,40,55,75,95,115,135,156,176,196,215,234,255,276,296,316,334,355,376,395,414,435,455,476,496,514,535,555,575,594,614,636,656,676,696,716,734,755,776,794,816,834,855,876,895,914,935,954,976,996,1016,1035,1055,1075,1094,1114,1136,1154,1174,1196,1215,1235,1255,1274,1294,1315,1335,1355,1375,1395,1415,1435,1455,1474,1495,1514,1536,1556,1576,1595,1614,1636,1655,1675,1695,1715,1735,1756,1774,1796,1815,1835,1855,1876,1896,1916,1936,1954,1975,1996,2014,2035,2054,2074,2095,2114,2135,2154,2175,2194,2214,2235,2255,2275,2295,2315,2335,2354,2374,2395,2416,2436,2454,2475,2494,2515,2536,2554,2575,2594,2616,2635],"xSR":741.5,"ySR":501.8,"xT1":424.9,"yT1":0,"xT2":1058.1,"yT2":0,"toosoon":0,"cond_shown":"Congruent","ratio_trial":300,"L_num":7,"L_den":14,"R_num":20,"R_den":25,"correct_side":2,"subjID":"Mathias Alejandro Moreno   Olarte  28","gender":"0","age":"9","school":"4","test":{"fix_dur":[250,1500],"timestim":1000,"targets_dim":[100,100],"targets_relative_coord":[0.3,0.7],"size_stim":[880,420],"start_dim":[100,100],"size_start":[300,300],"size_fix":60,"samplingrate":20,"img_types":["Congruent","Incongruent"],"ratios":[100,200,300],"rep_conds":19,"nTrials":120,"trials_to_rest":500,"Trials_order":[88,37,80,16,4,82,85,2,48,24,42,30,117,31,114,56,102,104,61,7,103,47,35,79,64,23,13,98,67,10,75,93,76,92,100,83,18,53,65,33,99,96,39,9,25,69,63,3,40,106,34,43,32,21,26,28,60,73,118,66,78,46,107,94,36,45,17,119,50,110,11,81,89,52,116,38,105,74,91,55,49,15,57,14,6,71,90,20,68,97,62,8,44,19,72,112,95,115,41,70,5,84,22,77,108,113,12,29,101,58,86,54,27,1,109,51,111,0,87,59],"cond_shown":["Congruent","Incongruent","Congruent","Congruent","Congruent","Congruent","Incongruent","Congruent","Congruent","Congruent","Congruent","Congruent","Incongruent","Incongruent","Congruent","Congruent","Congruent","Congruent","Incongruent","Incongruent","Incongruent","Incongruent","Incongruent","Incongruent","Congruent","Incongruent","Incongruent","Congruent","Incongruent","Congruent","Incongruent","Incongruent","Congruent","Congruent","Congruent","Incongruent","Congruent","Incongruent","Incongruent","Incongruent","Incongruent","Congruent","Incongruent","Incongruent","Incongruent","Incongruent","Incongruent","Incongruent","Congruent","Congruent","Congruent","Incongruent","Congruent","Incongruent","Congruent","Congruent","Congruent","Incongruent","Congruent","Congruent","Congruent","Congruent","Incongruent","Congruent","Congruent","Incongruent","Incongruent","Incongruent","Congruent","Congruent","Incongruent","Incongruent","Incongruent","Congruent","Congruent","Congruent","Incongruent","Congruent","Incongruent","Incongruent","Incongruent","Incongruent","Incongruent","Congruent","Congruent","Incongruent","Congruent","Congruent","Congruent","Incongruent","Congruent","Congruent","Congruent","Incongruent","Congruent","Congruent","Incongruent","Incongruent","Incongruent","Congruent","Incongruent","Congruent","Congruent","Incongruent","Congruent","Incongruent","Congruent","Incongruent","Incongruent","Congruent","Congruent","Congruent","Incongruent","Incongruent","Incongruent","Incongruent","Incongruent","Congruent","Incongruent","Incongruent"],"ratio_trial":[300,100,200,300,300,300,100,200,100,100,100,100,200,100,100,200,100,200,100,100,100,300,300,100,300,300,100,200,100,300,200,200,300,200,300,300,100,300,300,200,200,100,200,200,100,200,200,200,300,300,300,100,200,200,200,300,100,100,300,100,100,300,300,300,100,200,300,300,200,200,300,200,300,300,200,200,200,200,100,100,100,200,200,200,100,300,100,200,200,100,200,200,200,100,100,300,300,100,300,300,300,100,300,300,100,300,100,300,300,300,200,100,200,100,100,200,200,100,200,300],"left_num":[7,10,5,1,4,20,8,15,1,10,11,11,6,10,3,6,15,12,10,9,9,13,4,8,24,13,8,7,8,8,1,7,5,4,4,13,3,2,4,3,7,4,11,14,9,4,6,7,2,3,11,9,3,3,5,1,11,3,5,8,11,4,4,8,11,4,4,3,3,8,1,6,4,1,16,9,4,3,8,3,11,14,1,16,6,13,10,6,3,12,3,5,16,10,11,20,4,1,13,4,4,3,3,13,7,1,8,4,7,5,6,12,7,17,6,14,7,6,4,4],"right_num":[20,8,14,7,13,14,1,4,18,3,6,6,3,9,4,7,13,6,9,13,6,12,2,1,8,12,1,18,1,1,2,6,7,3,1,12,4,6,2,11,12,15,3,6,6,1,3,12,10,11,1,6,11,11,14,3,4,7,7,2,6,1,8,1,6,14,6,4,9,2,3,3,6,11,12,13,6,14,1,7,9,12,3,12,5,12,3,3,9,2,14,14,9,8,6,9,8,8,12,13,2,4,4,12,15,2,2,8,8,6,7,13,12,10,13,6,14,5,6,2],"left_den":[14,25,10,20,20,25,20,25,2,25,22,22,20,25,20,12,25,15,25,15,18,26,20,20,30,26,20,15,20,16,3,15,25,10,10,26,20,4,20,4,10,10,20,30,18,30,20,10,20,12,22,18,10,4,10,5,22,9,25,16,22,10,5,16,22,6,5,6,12,15,2,20,5,5,20,30,5,6,20,9,22,30,2,20,20,26,25,15,12,30,10,10,30,25,22,25,5,2,26,20,20,20,6,26,14,2,16,5,10,25,12,30,10,30,10,30,10,20,5,20],"right_den":[25,16,20,20,26,28,2,10,30,10,15,15,6,18,16,10,26,10,18,26,10,15,4,2,16,15,2,27,2,5,15,9,14,15,10,15,16,30,4,20,24,30,4,9,10,3,6,24,25,20,5,10,22,20,20,6,10,30,14,5,15,10,16,5,15,30,12,20,20,6,15,6,12,22,20,26,10,20,2,30,15,18,10,20,25,15,10,15,20,4,28,20,27,16,15,18,16,20,15,26,4,16,5,15,25,10,5,16,20,12,10,26,24,15,26,9,28,25,10,4],"correct_side":[2,2,2,2,2,1,2,1,2,1,1,1,2,2,2,2,1,1,2,1,2,2,2,2,1,2,2,2,2,1,1,2,2,1,1,2,2,1,2,1,1,2,2,2,2,2,2,1,2,2,1,2,2,1,2,2,1,1,2,1,1,1,1,1,1,1,1,1,2,1,1,2,1,2,1,2,1,2,2,1,2,2,1,1,1,2,1,1,2,2,2,2,1,2,1,1,1,1,2,2,2,2,2,2,2,1,1,1,1,2,2,2,1,2,1,2,1,1,1,2],"img_shown":["img2/300/Congruent/R/C_Dist_300_LN_7_LD_14_RN_20_RD_25_1.png","img2/100/Incongruent/R/I_Dist_100_LN_10_LD_25_RN_8_RD_16_1.png","img2/200/Congruent/R/C_Dist_200_LN_5_LD_10_RN_14_RD_20_1.png","img2/300/Congruent/R/C_Dist_300_LN_1_LD_20_RN_7_RD_20_1.png","img2/300/Congruent/R/C_Dist_300_LN_4_LD_20_RN_13_RD_26_1.png","img2/300/Congruent/L/C_Dist_300_LN_20_LD_25_RN_14_RD_28_0.png","img2/100/Incongruent/R/I_Dist_100_LN_8_LD_20_RN_1_RD_2_1.png","img2/200/Congruent/L/C_Dist_200_LN_15_LD_25_RN_4_RD_10_0.png","img2/100/Congruent/R/C_Dist_100_LN_1_LD_2_RN_18_RD_30_1.png","img2/100/Congruent/L/C_Dist_100_LN_10_LD_25_RN_3_RD_10_0.png","img2/100/Congruent/L/C_Dist_100_LN_11_LD_22_RN_6_RD_15_0.png","img2/100/Congruent/L/C_Dist_100_LN_11_LD_22_RN_6_RD_15_0.png","img2/200/Incongruent/R/I_Dist_200_LN_6_LD_20_RN_3_RD_6_1.png","img2/100/Incongruent/R/I_Dist_100_LN_10_LD_25_RN_9_RD_18_1.png","img2/100/Congruent/R/C_Dist_100_LN_3_LD_20_RN_4_RD_16_1.png","img2/200/Congruent/R/C_Dist_200_LN_6_LD_12_RN_7_RD_10_1.png","img2/100/Congruent/L/C_Dist_100_LN_15_LD_25_RN_13_RD_26_0.png","img2/200/Congruent/L/C_Dist_200_LN_12_LD_15_RN_6_RD_10_0.png","img2/100/Incongruent/R/I_Dist_100_LN_10_LD_25_RN_9_RD_18_1.png","img2/100/Incongruent/L/I_Dist_100_LN_9_LD_15_RN_13_RD_26_0.png","img2/100/Incongruent/R/I_Dist_100_LN_9_LD_18_RN_6_RD_10_1.png","img2/300/Incongruent/R/I_Dist_300_LN_13_LD_26_RN_12_RD_15_1.png","img2/300/Incongruent/R/I_Dist_300_LN_4_LD_20_RN_2_RD_4_1.png","img2/100/Incongruent/R/I_Dist_100_LN_8_LD_20_RN_1_RD_2_1.png","img2/300/Congruent/L/C_Dist_300_LN_24_LD_30_RN_8_RD_16_0.png","img2/300/Incongruent/R/I_Dist_300_LN_13_LD_26_RN_12_RD_15_1.png","img2/100/Incongruent/R/I_Dist_100_LN_8_LD_20_RN_1_RD_2_1.png","img2/200/Congruent/R/C_Dist_200_LN_7_LD_15_RN_18_RD_27_1.png","img2/100/Incongruent/R/I_Dist_100_LN_8_LD_20_RN_1_RD_2_1.png","img2/300/Congruent/L/C_Dist_300_LN_8_LD_16_RN_1_RD_5_0.png","img2/200/Incongruent/L/I_Dist_200_LN_1_LD_3_RN_2_RD_15_0.png","img2/200/Incongruent/R/I_Dist_200_LN_7_LD_15_RN_6_RD_9_1.png","img2/300/Congruent/R/C_Dist_300_LN_5_LD_25_RN_7_RD_14_1.png","img2/200/Congruent/L/C_Dist_200_LN_4_LD_10_RN_3_RD_15_0.png","img2/300/Congruent/L/C_Dist_300_LN_4_LD_10_RN_1_RD_10_0.png","img2/300/Incongruent/R/I_Dist_300_LN_13_LD_26_RN_12_RD_15_1.png","img2/100/Congruent/R/C_Dist_100_LN_3_LD_20_RN_4_RD_16_1.png","img2/300/Incongruent/L/I_Dist_300_LN_2_LD_4_RN_6_RD_30_0.png","img2/300/Incongruent/R/I_Dist_300_LN_4_LD_20_RN_2_RD_4_1.png","img2/200/Incongruent/L/I_Dist_200_LN_3_LD_4_RN_11_RD_20_0.png","img2/200/Incongruent/L/I_Dist_200_LN_7_LD_10_RN_12_RD_24_0.png","img2/100/Congruent/R/C_Dist_100_LN_4_LD_10_RN_15_RD_30_1.png","img2/200/Incongruent/R/I_Dist_200_LN_11_LD_20_RN_3_RD_4_1.png","img2/200/Incongruent/R/I_Dist_200_LN_14_LD_30_RN_6_RD_9_1.png","img2/100/Incongruent/R/I_Dist_100_LN_9_LD_18_RN_6_RD_10_1.png","img2/200/Incongruent/R/I_Dist_200_LN_4_LD_30_RN_1_RD_3_1.png","img2/200/Incongruent/R/I_Dist_200_LN_6_LD_20_RN_3_RD_6_1.png","img2/200/Incongruent/L/I_Dist_200_LN_7_LD_10_RN_12_RD_24_0.png","img2/300/Congruent/R/C_Dist_300_LN_2_LD_20_RN_10_RD_25_1.png","img2/300/Congruent/R/C_Dist_300_LN_3_LD_12_RN_11_RD_20_1.png","img2/300/Congruent/L/C_Dist_300_LN_11_LD_22_RN_1_RD_5_0.png","img2/100/Incongruent/R/I_Dist_100_LN_9_LD_18_RN_6_RD_10_1.png","img2/200/Congruent/R/C_Dist_200_LN_3_LD_10_RN_11_RD_22_1.png","img2/200/Incongruent/L/I_Dist_200_LN_3_LD_4_RN_11_RD_20_0.png","img2/200/Congruent/R/C_Dist_200_LN_5_LD_10_RN_14_RD_20_1.png","img2/300/Congruent/R/C_Dist_300_LN_1_LD_5_RN_3_RD_6_1.png","img2/100/Congruent/L/C_Dist_100_LN_11_LD_22_RN_4_RD_10_0.png","img2/100/Incongruent/L/I_Dist_100_LN_3_LD_9_RN_7_RD_30_0.png","img2/300/Congruent/R/C_Dist_300_LN_5_LD_25_RN_7_RD_14_1.png","img2/100/Congruent/L/C_Dist_100_LN_8_LD_16_RN_2_RD_5_0.png","img2/100/Congruent/L/C_Dist_100_LN_11_LD_22_RN_6_RD_15_0.png","img2/300/Congruent/L/C_Dist_300_LN_4_LD_10_RN_1_RD_10_0.png","img2/300/Incongruent/L/I_Dist_300_LN_4_LD_5_RN_8_RD_16_0.png","img2/300/Congruent/L/C_Dist_300_LN_8_LD_16_RN_1_RD_5_0.png","img2/100/Congruent/L/C_Dist_100_LN_11_LD_22_RN_6_RD_15_0.png","img2/200/Incongruent/L/I_Dist_200_LN_4_LD_6_RN_14_RD_30_0.png","img2/300/Incongruent/L/I_Dist_300_LN_4_LD_5_RN_6_RD_12_0.png","img2/300/Incongruent/L/I_Dist_300_LN_3_LD_6_RN_4_RD_20_0.png","img2/200/Congruent/R/C_Dist_200_LN_3_LD_12_RN_9_RD_20_1.png","img2/200/Congruent/L/C_Dist_200_LN_8_LD_15_RN_2_RD_6_0.png","img2/300/Incongruent/L/I_Dist_300_LN_1_LD_2_RN_3_RD_15_0.png","img2/200/Incongruent/R/I_Dist_200_LN_6_LD_20_RN_3_RD_6_1.png","img2/300/Incongruent/L/I_Dist_300_LN_4_LD_5_RN_6_RD_12_0.png","img2/300/Congruent/R/C_Dist_300_LN_1_LD_5_RN_11_RD_22_1.png","img2/200/Congruent/L/C_Dist_200_LN_16_LD_20_RN_12_RD_20_0.png","img2/200/Congruent/R/C_Dist_200_LN_9_LD_30_RN_13_RD_26_1.png","img2/200/Incongruent/L/I_Dist_200_LN_4_LD_5_RN_6_RD_10_0.png","img2/200/Congruent/R/C_Dist_200_LN_3_LD_6_RN_14_RD_20_1.png","img2/100/Incongruent/R/I_Dist_100_LN_8_LD_20_RN_1_RD_2_1.png","img2/100/Incongruent/L/I_Dist_100_LN_3_LD_9_RN_7_RD_30_0.png","img2/100/Incongruent/R/I_Dist_100_LN_11_LD_22_RN_9_RD_15_1.png","img2/200/Incongruent/R/I_Dist_200_LN_14_LD_30_RN_12_RD_18_1.png","img2/200/Incongruent/L/I_Dist_200_LN_1_LD_2_RN_3_RD_10_0.png","img2/200/Congruent/L/C_Dist_200_LN_16_LD_20_RN_12_RD_20_0.png","img2/100/Congruent/L/C_Dist_100_LN_6_LD_20_RN_5_RD_25_0.png","img2/300/Incongruent/R/I_Dist_300_LN_13_LD_26_RN_12_RD_15_1.png","img2/100/Congruent/L/C_Dist_100_LN_10_LD_25_RN_3_RD_10_0.png","img2/200/Congruent/L/C_Dist_200_LN_6_LD_15_RN_3_RD_15_0.png","img2/200/Congruent/R/C_Dist_200_LN_3_LD_12_RN_9_RD_20_1.png","img2/100/Incongruent/R/I_Dist_100_LN_12_LD_30_RN_2_RD_4_1.png","img2/200/Congruent/R/C_Dist_200_LN_3_LD_10_RN_14_RD_28_1.png","img2/200/Congruent/R/C_Dist_200_LN_5_LD_10_RN_14_RD_20_1.png","img2/200/Congruent/L/C_Dist_200_LN_16_LD_30_RN_9_RD_27_0.png","img2/100/Incongruent/R/I_Dist_100_LN_10_LD_25_RN_8_RD_16_1.png","img2/100/Congruent/L/C_Dist_100_LN_11_LD_22_RN_6_RD_15_0.png","img2/300/Congruent/L/C_Dist_300_LN_20_LD_25_RN_9_RD_18_0.png","img2/300/Incongruent/L/I_Dist_300_LN_4_LD_5_RN_8_RD_16_0.png","img2/100/Incongruent/L/I_Dist_100_LN_1_LD_2_RN_8_RD_20_0.png","img2/300/Incongruent/R/I_Dist_300_LN_13_LD_26_RN_12_RD_15_1.png","img2/300/Congruent/R/C_Dist_300_LN_4_LD_20_RN_13_RD_26_1.png","img2/300/Incongruent/R/I_Dist_300_LN_4_LD_20_RN_2_RD_4_1.png","img2/100/Congruent/R/C_Dist_100_LN_3_LD_20_RN_4_RD_16_1.png","img2/300/Congruent/R/C_Dist_300_LN_3_LD_6_RN_4_RD_5_1.png","img2/300/Incongruent/R/I_Dist_300_LN_13_LD_26_RN_12_RD_15_1.png","img2/100/Congruent/R/C_Dist_100_LN_7_LD_14_RN_15_RD_25_1.png","img2/300/Incongruent/L/I_Dist_300_LN_1_LD_2_RN_2_RD_10_0.png","img2/100/Congruent/L/C_Dist_100_LN_8_LD_16_RN_2_RD_5_0.png","img2/300/Incongruent/L/I_Dist_300_LN_4_LD_5_RN_8_RD_16_0.png","img2/300/Incongruent/L/I_Dist_300_LN_7_LD_10_RN_8_RD_20_0.png","img2/300/Congruent/R/C_Dist_300_LN_5_LD_25_RN_6_RD_12_1.png","img2/200/Congruent/R/C_Dist_200_LN_6_LD_12_RN_7_RD_10_1.png","img2/100/Congruent/R/C_Dist_100_LN_12_LD_30_RN_13_RD_26_1.png","img2/200/Incongruent/L/I_Dist_200_LN_7_LD_10_RN_12_RD_24_0.png","img2/100/Incongruent/R/I_Dist_100_LN_17_LD_30_RN_10_RD_15_1.png","img2/100/Incongruent/L/I_Dist_100_LN_6_LD_10_RN_13_RD_26_0.png","img2/200/Incongruent/R/I_Dist_200_LN_14_LD_30_RN_6_RD_9_1.png","img2/200/Incongruent/L/I_Dist_200_LN_7_LD_10_RN_14_RD_28_0.png","img2/100/Congruent/L/C_Dist_100_LN_6_LD_20_RN_5_RD_25_0.png","img2/200/Incongruent/L/I_Dist_200_LN_4_LD_5_RN_6_RD_10_0.png","img2/300/Incongruent/R/I_Dist_300_LN_4_LD_20_RN_2_RD_4_1.png"],"dist100_C":[["C_Dist_100_LN_10_LD_25_RN_3_RD_10_0.png","C_Dist_100_LN_11_LD_22_RN_4_RD_10_0.png","C_Dist_100_LN_11_LD_22_RN_6_RD_15_0.png","C_Dist_100_LN_15_LD_25_RN_13_RD_26_0.png","C_Dist_100_LN_3_LD_6_RN_2_RD_5_0.png","C_Dist_100_LN_6_LD_20_RN_5_RD_25_0.png","C_Dist_100_LN_8_LD_16_RN_2_RD_5_0.png","C_Dist_100_LN_9_LD_15_RN_8_RD_16_0.png"],["C_Dist_100_LN_1_LD_2_RN_18_RD_30_1.png","C_Dist_100_LN_1_LD_2_RN_3_RD_5_1.png","C_Dist_100_LN_12_LD_30_RN_13_RD_26_1.png","C_Dist_100_LN_2_LD_5_RN_11_RD_22_1.png","C_Dist_100_LN_2_LD_5_RN_6_RD_12_1.png","C_Dist_100_LN_3_LD_20_RN_4_RD_16_1.png","C_Dist_100_LN_4_LD_10_RN_15_RD_30_1.png","C_Dist_100_LN_4_LD_8_RN_6_RD_10_1.png","C_Dist_100_LN_6_LD_12_RN_15_RD_25_1.png","C_Dist_100_LN_7_LD_14_RN_15_RD_25_1.png","C_Dist_100_LN_7_LD_14_RN_9_RD_15_1.png"]],"dist100_I":[["I_Dist_100_LN_1_LD_2_RN_8_RD_20_0.png","I_Dist_100_LN_2_LD_4_RN_6_RD_15_0.png","I_Dist_100_LN_2_LD_4_RN_8_RD_20_0.png","I_Dist_100_LN_3_LD_5_RN_11_RD_22_0.png","I_Dist_100_LN_3_LD_5_RN_8_RD_16_0.png","I_Dist_100_LN_3_LD_6_RN_4_RD_10_0.png","I_Dist_100_LN_3_LD_9_RN_7_RD_30_0.png","I_Dist_100_LN_4_LD_8_RN_8_RD_20_0.png","I_Dist_100_LN_6_LD_10_RN_11_RD_22_0.png","I_Dist_100_LN_6_LD_10_RN_13_RD_26_0.png","I_Dist_100_LN_6_LD_10_RN_7_RD_14_0.png","I_Dist_100_LN_9_LD_10_RN_20_RD_25_0.png","I_Dist_100_LN_9_LD_15_RN_13_RD_26_0.png","I_Dist_100_LN_9_LD_15_RN_14_RD_28_0.png"],["I_Dist_100_LN_10_LD_25_RN_8_RD_16_1.png","I_Dist_100_LN_10_LD_25_RN_9_RD_18_1.png","I_Dist_100_LN_11_LD_22_RN_9_RD_15_1.png","I_Dist_100_LN_12_LD_24_RN_9_RD_15_1.png","I_Dist_100_LN_12_LD_30_RN_2_RD_4_1.png","I_Dist_100_LN_13_LD_26_RN_12_RD_20_1.png","I_Dist_100_LN_13_LD_26_RN_6_RD_10_1.png","I_Dist_100_LN_17_LD_30_RN_10_RD_15_1.png","I_Dist_100_LN_6_LD_12_RN_3_RD_5_1.png","I_Dist_100_LN_8_LD_16_RN_6_RD_10_1.png","I_Dist_100_LN_8_LD_20_RN_1_RD_2_1.png","I_Dist_100_LN_9_LD_18_RN_6_RD_10_1.png"]],"dist100_S":[["E_Dist_100_LN_2_LD_12_RN_2_RD_30_0.png","E_Dist_100_LN_6_LD_10_RN_6_RD_12_0.png"],["E_Dist_100_LN_6_LD_12_RN_6_RD_10_1.png"]],"dist200_C":[["C_Dist_200_LN_11_LD_22_RN_3_RD_10_0.png","C_Dist_200_LN_12_LD_15_RN_6_RD_10_0.png","C_Dist_200_LN_12_LD_20_RN_6_RD_15_0.png","C_Dist_200_LN_14_LD_28_RN_6_RD_20_0.png","C_Dist_200_LN_15_LD_25_RN_4_RD_10_0.png","C_Dist_200_LN_16_LD_20_RN_12_RD_20_0.png","C_Dist_200_LN_16_LD_30_RN_9_RD_27_0.png","C_Dist_200_LN_20_LD_25_RN_9_RD_15_0.png","C_Dist_200_LN_21_LD_30_RN_2_RD_4_0.png","C_Dist_200_LN_4_LD_10_RN_3_RD_15_0.png","C_Dist_200_LN_4_LD_8_RN_3_RD_10_0.png","C_Dist_200_LN_6_LD_15_RN_3_RD_15_0.png","C_Dist_200_LN_7_LD_21_RN_2_RD_15_0.png","C_Dist_200_LN_8_LD_15_RN_2_RD_6_0.png","C_Dist_200_LN_8_LD_15_RN_3_RD_9_0.png","C_Dist_200_LN_8_LD_15_RN_7_RD_21_0.png","C_Dist_200_LN_9_LD_20_RN_4_RD_16_0.png"],["C_Dist_200_LN_1_LD_2_RN_21_RD_30_1.png","C_Dist_200_LN_13_LD_26_RN_14_RD_20_1.png","C_Dist_200_LN_3_LD_10_RN_11_RD_22_1.png","C_Dist_200_LN_3_LD_10_RN_14_RD_28_1.png","C_Dist_200_LN_3_LD_10_RN_7_RD_14_1.png","C_Dist_200_LN_3_LD_12_RN_9_RD_20_1.png","C_Dist_200_LN_3_LD_6_RN_14_RD_20_1.png","C_Dist_200_LN_5_LD_10_RN_14_RD_20_1.png","C_Dist_200_LN_6_LD_12_RN_7_RD_10_1.png","C_Dist_200_LN_6_LD_20_RN_11_RD_22_1.png","C_Dist_200_LN_7_LD_15_RN_18_RD_27_1.png","C_Dist_200_LN_9_LD_30_RN_13_RD_26_1.png"]],"dist200_I":[["I_Dist_200_LN_1_LD_2_RN_3_RD_10_0.png","I_Dist_200_LN_1_LD_3_RN_2_RD_15_0.png","I_Dist_200_LN_3_LD_4_RN_11_RD_20_0.png","I_Dist_200_LN_4_LD_5_RN_6_RD_10_0.png","I_Dist_200_LN_4_LD_6_RN_14_RD_30_0.png","I_Dist_200_LN_7_LD_10_RN_12_RD_24_0.png","I_Dist_200_LN_7_LD_10_RN_14_RD_28_0.png","I_Dist_200_LN_7_LD_10_RN_8_RD_16_0.png"],["I_Dist_200_LN_11_LD_20_RN_3_RD_4_1.png","I_Dist_200_LN_14_LD_30_RN_12_RD_18_1.png","I_Dist_200_LN_14_LD_30_RN_6_RD_9_1.png","I_Dist_200_LN_3_LD_10_RN_1_RD_2_1.png","I_Dist_200_LN_4_LD_30_RN_1_RD_3_1.png","I_Dist_200_LN_6_LD_20_RN_3_RD_6_1.png","I_Dist_200_LN_7_LD_15_RN_4_RD_6_1.png","I_Dist_200_LN_7_LD_15_RN_6_RD_9_1.png","I_Dist_200_LN_9_LD_15_RN_8_RD_10_1.png"]],"dist200_S":[["E_Dist_200_LN_3_LD_6_RN_3_RD_10_0.png"],["E_Dist_200_LN_3_LD_10_RN_3_RD_6_1.png"]],"dist300_C":[["C_Dist_300_LN_11_LD_22_RN_1_RD_5_0.png","C_Dist_300_LN_11_LD_22_RN_2_RD_10_0.png","C_Dist_300_LN_11_LD_22_RN_4_RD_20_0.png","C_Dist_300_LN_12_LD_24_RN_2_RD_10_0.png","C_Dist_300_LN_18_LD_20_RN_9_RD_15_0.png","C_Dist_300_LN_20_LD_25_RN_13_RD_26_0.png","C_Dist_300_LN_20_LD_25_RN_14_RD_28_0.png","C_Dist_300_LN_20_LD_25_RN_5_RD_10_0.png","C_Dist_300_LN_20_LD_25_RN_8_RD_16_0.png","C_Dist_300_LN_20_LD_25_RN_9_RD_18_0.png","C_Dist_300_LN_24_LD_30_RN_2_RD_4_0.png","C_Dist_300_LN_24_LD_30_RN_8_RD_16_0.png","C_Dist_300_LN_3_LD_6_RN_2_RD_10_0.png","C_Dist_300_LN_4_LD_10_RN_1_RD_10_0.png","C_Dist_300_LN_4_LD_5_RN_2_RD_4_0.png","C_Dist_300_LN_8_LD_16_RN_1_RD_5_0.png","C_Dist_300_LN_9_LD_10_RN_3_RD_5_0.png"],["C_Dist_300_LN_1_LD_20_RN_7_RD_20_1.png","C_Dist_300_LN_1_LD_3_RN_19_RD_30_1.png","C_Dist_300_LN_1_LD_30_RN_8_RD_24_1.png","C_Dist_300_LN_1_LD_5_RN_11_RD_22_1.png","C_Dist_300_LN_1_LD_5_RN_3_RD_6_1.png","C_Dist_300_LN_1_LD_5_RN_6_RD_12_1.png","C_Dist_300_LN_2_LD_10_RN_12_RD_24_1.png","C_Dist_300_LN_2_LD_20_RN_10_RD_25_1.png","C_Dist_300_LN_3_LD_12_RN_11_RD_20_1.png","C_Dist_300_LN_3_LD_6_RN_4_RD_5_1.png","C_Dist_300_LN_4_LD_20_RN_13_RD_26_1.png","C_Dist_300_LN_5_LD_25_RN_6_RD_12_1.png","C_Dist_300_LN_5_LD_25_RN_7_RD_14_1.png","C_Dist_300_LN_7_LD_14_RN_20_RD_25_1.png","C_Dist_300_LN_8_LD_15_RN_10_RD_12_1.png"]],"dist300_I":[["I_Dist_300_LN_1_LD_2_RN_2_RD_10_0.png","I_Dist_300_LN_1_LD_2_RN_3_RD_15_0.png","I_Dist_300_LN_2_LD_4_RN_6_RD_30_0.png","I_Dist_300_LN_3_LD_6_RN_4_RD_20_0.png","I_Dist_300_LN_4_LD_5_RN_6_RD_12_0.png","I_Dist_300_LN_4_LD_5_RN_8_RD_16_0.png","I_Dist_300_LN_7_LD_10_RN_8_RD_20_0.png","I_Dist_300_LN_8_LD_10_RN_14_RD_28_0.png","I_Dist_300_LN_8_LD_10_RN_9_RD_18_0.png"],["I_Dist_300_LN_13_LD_26_RN_12_RD_15_1.png","I_Dist_300_LN_4_LD_20_RN_2_RD_4_1.png"]],"dist300_S":[["E_Dist_300_LN_9_LD_12_RN_9_RD_20_0.png"],["E_Dist_300_LN_18_LD_30_RN_18_RD_20_1.png","E_Dist_300_LN_3_LD_10_RN_3_RD_5_1.png","E_Dist_300_LN_9_LD_20_RN_9_RD_12_1.png"]],"dist500_C":[["C_Dist_500_LN_10_LD_13_RN_7_RD_26_0.png","C_Dist_500_LN_10_LD_15_RN_4_RD_24_0.png","C_Dist_500_LN_12_LD_16_RN_3_RD_12_0.png","C_Dist_500_LN_12_LD_18_RN_4_RD_24_0.png","C_Dist_500_LN_15_LD_18_RN_5_RD_15_0.png","C_Dist_500_LN_15_LD_20_RN_1_RD_4_0.png","C_Dist_500_LN_18_LD_27_RN_1_RD_6_0.png","C_Dist_500_LN_20_LD_24_RN_1_RD_3_0.png","C_Dist_500_LN_20_LD_24_RN_3_RD_9_0.png","C_Dist_500_LN_20_LD_24_RN_7_RD_21_0.png","C_Dist_500_LN_20_LD_28_RN_3_RD_14_0.png","C_Dist_500_LN_21_LD_28_RN_6_RD_24_0.png","C_Dist_500_LN_22_LD_28_RN_2_RD_7_0.png","C_Dist_500_LN_25_LD_30_RN_9_RD_27_0.png","C_Dist_500_LN_4_LD_6_RN_1_RD_6_0.png","C_Dist_500_LN_5_LD_6_RN_2_RD_6_0.png","C_Dist_500_LN_6_LD_9_RN_1_RD_6_0.png","C_Dist_500_LN_7_LD_10_RN_1_RD_5_0.png","C_Dist_500_LN_8_LD_12_RN_1_RD_6_0.png","C_Dist_500_LN_8_LD_12_RN_4_RD_24_0.png"],["C_Dist_500_LN_1_LD_4_RN_12_RD_16_1.png","C_Dist_500_LN_1_LD_4_RN_9_RD_12_1.png","C_Dist_500_LN_1_LD_9_RN_11_RD_18_1.png","C_Dist_500_LN_10_LD_24_RN_22_RD_24_1.png","C_Dist_500_LN_2_LD_12_RN_10_RD_15_1.png","C_Dist_500_LN_2_LD_12_RN_12_RD_18_1.png","C_Dist_500_LN_2_LD_12_RN_4_RD_6_1.png","C_Dist_500_LN_2_LD_24_RN_7_RD_12_1.png","C_Dist_500_LN_2_LD_5_RN_18_RD_20_1.png","C_Dist_500_LN_2_LD_5_RN_9_RD_10_1.png","C_Dist_500_LN_2_LD_8_RN_12_RD_16_1.png","C_Dist_500_LN_2_LD_8_RN_21_RD_28_1.png","C_Dist_500_LN_3_LD_10_RN_4_RD_5_1.png","C_Dist_500_LN_3_LD_12_RN_15_RD_20_1.png","C_Dist_500_LN_3_LD_30_RN_6_RD_10_1.png","C_Dist_500_LN_3_LD_8_RN_14_RD_16_1.png","C_Dist_500_LN_4_LD_16_RN_15_RD_20_1.png","C_Dist_500_LN_4_LD_24_RN_12_RD_18_1.png","C_Dist_500_LN_5_LD_14_RN_6_RD_7_1.png","C_Dist_500_LN_7_LD_21_RN_20_RD_24_1.png","C_Dist_500_LN_7_LD_28_RN_12_RD_16_1.png","C_Dist_500_LN_7_LD_28_RN_9_RD_12_1.png","C_Dist_500_LN_9_LD_27_RN_20_RD_24_1.png"]],"dist500_I":[["I_Dist_500_LN_2_LD_3_RN_4_RD_24_0.png","I_Dist_500_LN_5_LD_6_RN_6_RD_18_0.png","I_Dist_500_LN_7_LD_8_RN_9_RD_24_0.png"],["I_Dist_500_LN_7_LD_21_RN_5_RD_6_1.png"]],"dist500_S":[["E_Dist_500_LN_6_LD_8_RN_6_RD_24_0.png"],["E_Dist_500_LN_2_LD_12_RN_2_RD_3_1.png","E_Dist_500_LN_6_LD_24_RN_6_RD_8_1.png"]]}},{"start_time":1552073556723,"click_time":1552073557898,"finger_time":1552073557177,"fix_duration":525.3420307745386,"trial":1,"RT":454,"MT":721,"sideResp":1,"stimulus":[],"xmouse":[771,771,771,771,771,771,771,771,771,771,771,771,771,771,771,771,771,771,771,772,779,782,818,843,860,861,861,861,861,861,861,860,852,841,824,821,819,819,819,818,817,817,817,817,817,815,813,809,805,801,798,790,774,760,674,619,569,519,449],"ymouse":[558,558,558,558,558,558,558,558,558,558,558,558,558,558,558,558,558,558,558,556,536,530,481,443,418,417,417,417,417,417,417,417,416,416,413,413,413,413,413,413,413,415,418,424,445,462,479,496,508,514,513,505,483,463,331,247,185,126,53],"timestamp_mouse":[14,38,53,74,95,115,134,153,174,195,215,235,254,274,294,314,335,353,373,393,414,433,453,474,493,514,534,555,575,594,613,634,654,673,694,713,734,755,774,793,814,833,853,874,893,913,935,954,974,994,1014,1035,1055,1073,1094,1113,1134,1154,1174],"xSR":741.5,"ySR":501.8,"xT1":424.9,"yT1":0,"xT2":1058.1,"yT2":0,"toosoon":0,"cond_shown":"Incongruent","ratio_trial":100,"L_num":10,"L_den":25,"R_num":8,"R_den":16,"correct_side":2,"subjID":"Mathias Alejandro Moreno   Olarte  28","gender":"0","school":"4","age":"9"},{"start_time":1552073561791,"click_time":1552073562997,"finger_time":1552073562437,"fix_duration":773.9462257986546,"trial":2,"RT":646,"MT":560,"sideResp":2,"stimulus":[],"xmouse":[795,795,795,795,795,795,795,795,795,795,795,795,795,795,795,795,795,795,795,795,795,795,795,795,795,795,795,795,795,795,795,800,818,838,857,874,878,879,879,879,879,884,903,926,955,990,998,1000,1001,1001,1001,1001,1001,1001,1001,1001,1001,1001,1016,1042,1084],"ymouse":[557,557,557,557,557,557,557,557,557,557,557,557,557,557,557,557,557,557,557,557,557,557,557,557,557,557,557,557,557,557,543,514,468,420,360,261,229,204,197,195,194,189,175,160,142,108,94,88,86,86,86,86,86,86,86,86,86,86,86,84,68],"timestamp_mouse":[14,41,46,66,86,106,126,146,166,187,207,225,245,265,286,306,325,346,366,386,406,426,445,466,487,507,526,546,566,587,605,626,646,667,686,706,725,745,765,787,806,827,847,867,885,907,926,945,966,985,1006,1025,1047,1067,1087,1106,1125,1146,1165,1185,1205],"xSR":741.5,"ySR":501.8,"xT1":424.9,"yT1":0,"xT2":1058.1,"yT2":0,"toosoon":0,"cond_shown":"Congruent","ratio_trial":200,"L_num":5,"L_den":10,"R_num":14,"R_den":20,"correct_side":2,"subjID":"Mathias Alejandro Moreno   Olarte  28","gender":"0","school":"4","age":"9"},{"start_time":1552073565438,"click_time":1552073568337,"finger_time":1552073566957,"fix_duration":1340.9213553795487,"trial":3,"RT":1519,"MT":1380,"sideResp":2,"stimulus":[],"xmouse":[759,759,759,759,759,759,759,759,759,759,759,759,759,759,759,759,759,759,759,759,759,759,759,759,759,759,759,759,759,759,759,759,759,759,759,759,759,759,759,759,759,759,759,759,759,759,759,759,759,759,759,759,759,759,759,759,759,759,759,759,759,759,759,759,759,759,759,759,759,759,759,759,759,763,775,836,937,985,1033,1043,1048,1051,1054,1061,1072,1077,1090,1095,1096,1096,1096,1096,1096,1096,1096,1096,1096,1096,1096,1096,1096,1096,1096,1096,1096,1096,1096,1096,1096,1096,1096,1096,1096,1096,1096,1096,1096,1096,1096,1096,1096,1096,1096,1096,1096,1096,1096,1096,1097,1097,1097,1097,1097,1097,1097,1096,1092,1082,1079,1077,1076,1075,1075,1073,1073],"ymouse":[531,531,531,531,531,531,531,531,531,531,531,531,531,531,531,531,531,531,531,531,531,531,531,531,531,531,531,531,531,531,531,531,531,531,531,531,531,531,531,531,531,531,531,531,531,531,531,531,531,531,531,531,531,531,531,531,531,531,531,531,531,531,531,531,531,531,531,531,531,531,531,531,531,526,515,490,438,407,371,363,356,347,338,314,287,276,247,228,224,220,218,217,216,215,215,215,215,215,215,215,215,215,215,215,215,215,215,215,215,215,214,212,211,209,209,209,209,209,209,209,209,209,209,209,209,208,204,200,196,195,191,190,182,178,173,165,157,130,122,119,114,111,108,102,98],"timestamp_mouse":[18,43,59,78,100,120,139,159,180,200,219,239,258,280,300,320,339,358,378,399,420,439,460,479,500,520,539,558,579,600,619,639,658,679,698,719,738,759,780,800,819,838,858,879,899,920,940,959,979,999,1018,1040,1058,1079,1100,1118,1138,1159,1180,1200,1219,1238,1260,1278,1298,1319,1340,1359,1380,1398,1419,1439,1458,1479,1499,1519,1540,1559,1579,1600,1620,1639,1659,1679,1699,1719,1739,1759,1778,1800,1820,1839,1859,1878,1898,1919,1939,1959,1978,2003,2019,2039,2058,2079,2099,2118,2138,2160,2180,2198,2219,2239,2259,2279,2299,2319,2339,2359,2379,2399,2419,2438,2459,2480,2500,2520,2540,2559,2580,2599,2619,2639,2660,2679,2699,2718,2738,2758,2780,2800,2819,2838,2858,2879,2899],"xSR":741.5,"ySR":501.8,"xT1":424.9,"yT1":0,"xT2":1058.1,"yT2":0,"toosoon":0,"cond_shown":"Congruent","ratio_trial":300,"L_num":1,"L_den":20,"R_num":7,"R_den":20,"correct_side":2,"subjID":"Mathias Alejandro Moreno   Olarte  28","gender":"0","school":"4","age":"9"},{"start_time":1552073571268,"click_time":1552073573498,"finger_time":1552073572676,"fix_duration":1208.6235311857556,"trial":4,"RT":1408,"MT":822,"sideResp":2,"stimulus":[],"xmouse":[834,834,834,834,834,834,834,834,834,834,834,834,834,834,834,834,834,834,834,834,834,834,834,834,834,834,834,834,834,834,834,834,834,834,834,834,834,834,834,834,834,834,834,834,834,834,834,834,834,834,834,834,834,834,834,834,834,834,834,834,834,834,834,834,834,834,834,834,834,839,843,854,882,896,910,916,927,932,939,946,953,967,1003,1029,1037,1037,1037,1037,1037,1037,1037,1037,1037,1037,1037,1037,1037,1037,1037,1037,1037,1037,1037,1037,1037,1037,1037,1037,1037,1037,1037,1094],"ymouse":[523,523,523,523,523,523,523,523,523,523,523,523,523,523,523,523,523,523,523,523,523,523,523,523,523,523,523,523,523,523,523,523,523,523,523,523,523,523,523,523,523,523,523,523,523,523,523,523,523,523,523,523,523,523,523,523,523,523,523,523,523,523,523,523,523,523,523,523,523,520,516,508,488,478,460,443,403,384,361,333,303,249,124,39,9,9,9,9,9,9,9,9,9,9,9,9,9,9,9,9,9,9,9,9,9,9,9,9,9,9,9,13],"timestamp_mouse":[13,29,48,69,88,109,128,149,168,189,209,229,249,269,290,309,330,349,368,389,409,430,449,469,490,510,530,548,569,589,610,630,648,668,689,709,730,749,769,790,809,829,848,870,890,910,929,948,970,990,1009,1029,1049,1069,1090,1109,1128,1149,1168,1188,1209,1228,1250,1269,1288,1310,1328,1349,1368,1389,1408,1429,1449,1469,1490,1508,1530,1548,1569,1588,1610,1628,1648,1669,1690,1710,1729,1749,1768,1788,1808,1829,1848,1868,1889,1909,1929,1949,1969,1988,2009,2029,2049,2069,2089,2109,2129,2148,2169,2189,2209,2229],"xSR":741.5,"ySR":501.8,"xT1":424.9,"yT1":0,"xT2":1058.1,"yT2":0,"toosoon":0,"cond_shown":"Congruent","ratio_trial":300,"L_num":4,"L_den":20,"R_num":13,"R_den":26,"correct_side":2,"subjID":"Mathias Alejandro Moreno   Olarte  28","gender":"0","school":"4","age":"9"},{"start_time":1552073576939,"click_time":1552073578256,"finger_time":1552073577778,"fix_duration":560.6055617089156,"trial":5,"RT":839,"MT":478,"sideResp":1,"stimulus":[],"xmouse":[782,782,782,782,782,782,782,782,782,782,782,782,782,782,782,782,782,782,782,782,782,782,782,782,782,782,782,782,782,782,782,782,782,782,782,782,782,782,782,781,761,738,696,677,664,653,640,604,585,546,503,443,417,404,404,404,404,403,403,403,403,403,403,412,424,428],"ymouse":[555,555,555,555,555,555,555,555,555,555,555,555,555,555,555,555,555,555,555,555,555,555,555,555,555,555,555,555,555,555,555,555,555,555,555,555,555,555,555,556,536,510,457,434,414,396,372,315,285,234,179,112,82,61,59,58,57,55,55,54,54,54,54,54,54,54],"timestamp_mouse":[27,43,57,78,97,119,138,157,178,198,218,237,259,277,298,319,339,358,378,398,419,438,458,478,497,518,539,558,577,597,618,638,658,678,699,718,739,759,778,798,817,839,858,877,898,917,938,959,978,998,1019,1038,1057,1077,1098,1119,1139,1159,1179,1198,1218,1239,1258,1278,1297,1317],"xSR":741.5,"ySR":501.8,"xT1":424.9,"yT1":0,"xT2":1058.1,"yT2":0,"toosoon":0,"cond_shown":"Congruent","ratio_trial":300,"L_num":20,"L_den":25,"R_num":14,"R_den":28,"correct_side":1,"subjID":"Mathias Alejandro Moreno   Olarte  28","gender":"0","school":"4","age":"9"},{"start_time":1552073579808,"click_time":1552073582298,"finger_time":1552073581918,"fix_duration":289.2672061389294,"trial":6,"RT":2110,"MT":380,"sideResp":1,"stimulus":[],"xmouse":[798,798,798,798,798,798,798,798,798,798,798,798,798,798,798,798,798,798,798,798,798,798,798,796,779,774,773,773,773,773,773,773,773,773,773,773,773,773,773,773,773,773,773,773,773,773,773,773,773,773,773,773,773,773,773,773,773,773,773,773,773,773,773,773,773,773,773,773,773,773,773,773,773,773,773,773,773,773,773,773,773,773,773,773,773,773,773,773,773,773,773,773,773,773,773,773,773,773,773,773,773,773,773,773,749,715,686,659,625,598,588,580,569,559,538,529,521,515,508,507,501,499,495,491,477],"ymouse":[571,571,571,571,571,571,571,571,571,571,571,571,571,571,571,571,571,571,571,571,571,571,571,571,567,566,565,565,565,565,565,565,565,565,565,565,565,565,565,565,565,565,565,565,565,565,565,565,565,565,565,565,565,565,565,565,565,565,565,565,565,565,565,565,565,565,565,565,565,565,565,565,565,565,565,565,565,565,565,565,565,565,565,565,565,565,565,565,565,565,565,565,565,565,565,565,565,565,565,565,565,565,565,564,539,496,457,407,342,291,271,254,237,221,190,175,161,150,138,135,129,127,123,117,99],"timestamp_mouse":[10,46,49,69,88,110,130,149,168,188,208,229,250,270,289,309,329,348,370,390,409,429,449,470,489,509,529,549,569,588,610,630,649,669,688,709,729,750,769,789,808,830,848,870,889,910,929,949,968,990,1010,1030,1050,1069,1089,1108,1130,1150,1169,1189,1210,1228,1250,1268,1288,1309,1328,1350,1369,1388,1410,1430,1448,1469,1490,1509,1530,1548,1570,1588,1609,1628,1650,1668,1690,1708,1729,1749,1770,1789,1810,1829,1848,1868,1890,1909,1928,1949,1968,1990,2008,2028,2048,2069,2090,2110,2128,2148,2170,2190,2208,2228,2250,2269,2290,2309,2329,2350,2369,2389,2409,2429,2449,2468,2489],"xSR":741.5,"ySR":501.8,"xT1":424.9,"yT1":0,"xT2":1058.1,"yT2":0,"toosoon":0,"cond_shown":"Incongruent","ratio_trial":100,"L_num":8,"L_den":20,"R_num":1,"R_den":2,"correct_side":2,"subjID":"Mathias Alejandro Moreno   Olarte  28","gender":"0","school":"4","age":"9"},{"start_time":1552073586579,"click_time":1552073588558,"finger_time":1552073587496,"fix_duration":441.33047878227006,"trial":7,"RT":917,"MT":1062,"sideResp":2,"stimulus":[],"xmouse":[803,803,803,803,803,803,803,803,803,803,803,803,803,803,803,803,803,803,803,803,803,803,803,803,803,803,803,803,803,803,803,803,803,803,803,803,803,803,803,803,803,803,801,792,765,712,701,699,699,699,699,699,699,699,699,699,699,699,699,699,699,699,699,699,700,704,709,714,717,720,720,720,720,720,718,697,688,683,682,682,688,697,705,713,718,731,753,811,959,1002,1011,1016,1018,1024,1033,1048,1076,1088,1101],"ymouse":[557,557,557,557,557,557,557,557,557,557,557,557,557,557,557,557,557,557,557,557,557,557,557,557,557,557,557,557,557,557,557,557,557,557,557,557,557,557,557,557,557,557,557,546,508,453,444,444,444,444,444,444,444,444,444,444,444,444,444,444,444,444,444,444,447,454,461,466,470,474,474,474,474,468,444,403,390,384,381,378,368,360,352,343,337,330,326,316,294,279,268,243,235,225,214,199,148,114,74],"timestamp_mouse":[18,39,58,77,98,118,138,157,177,199,219,238,258,278,299,318,337,357,379,398,419,438,459,479,498,518,538,558,579,598,618,639,659,677,698,718,739,758,779,799,818,838,857,877,898,917,938,958,978,997,1018,1037,1058,1079,1099,1118,1137,1157,1178,1197,1218,1238,1259,1278,1298,1318,1338,1359,1378,1397,1417,1438,1457,1477,1498,1518,1538,1558,1579,1598,1619,1637,1658,1677,1698,1719,1739,1757,1778,1798,1817,1838,1857,1877,1898,1917,1938,1957,1978],"xSR":741.5,"ySR":501.8,"xT1":424.9,"yT1":0,"xT2":1058.1,"yT2":0,"toosoon":0,"cond_shown":"Congruent","ratio_trial":200,"L_num":15,"L_den":25,"R_num":4,"R_den":10,"correct_side":1,"subjID":"Mathias Alejandro Moreno   Olarte  28","gender":"0","school":"4","age":"9"},{"start_time":1552073590947,"click_time":1552073592157,"finger_time":1552073591576,"fix_duration":809.2947614717197,"trial":8,"RT":629,"MT":581,"sideResp":2,"stimulus":[],"xmouse":[768,768,768,768,768,768,768,768,768,768,768,768,768,768,768,768,768,768,768,768,768,768,768,768,768,768,768,768,768,768,768,770,770,778,788,807,833,875,900,925,957,970,979,991,998,1006,1015,1029,1033,1033,1033,1033,1033,1033,1033,1033,1033,1033,1033,1033,1072],"ymouse":[510,510,510,510,510,510,510,510,510,510,510,510,510,510,510,508,505,503,503,502,502,502,502,502,502,502,502,502,502,502,502,500,500,494,485,461,425,356,308,261,201,169,141,95,74,55,39,11,3,3,3,3,3,3,3,3,3,3,3,3,4],"timestamp_mouse":[11,44,51,70,90,110,130,150,169,190,211,229,251,270,290,310,331,350,370,389,411,429,449,469,491,511,531,551,569,590,611,629,651,669,690,710,729,750,769,789,809,829,850,870,889,909,929,950,969,989,1009,1029,1050,1070,1089,1109,1131,1149,1171,1190,1210],"xSR":741.5,"ySR":501.8,"xT1":424.9,"yT1":0,"xT2":1058.1,"yT2":0,"toosoon":0,"cond_shown":"Congruent","ratio_trial":100,"L_num":1,"L_den":2,"R_num":18,"R_den":30,"correct_side":2,"subjID":"Mathias Alejandro Moreno   Olarte  28","gender":"0","school":"4","age":"9"},{"start_time":1552073594964,"click_time":1552073597016,"finger_time":1552073596437,"fix_duration":1164.7215538279024,"trial":9,"RT":1473,"MT":579,"sideResp":1,"stimulus":[],"xmouse":[809,809,809,809,809,809,809,809,809,809,809,809,809,809,809,809,809,809,809,809,809,809,809,809,809,809,809,809,809,809,809,809,809,809,809,809,809,809,809,809,809,809,809,809,809,809,809,809,809,809,809,809,809,809,809,809,809,809,809,809,809,809,809,809,809,809,809,809,809,809,809,809,792,764,735,711,680,669,662,656,647,627,614,602,595,588,573,562,559,551,547,545,544,544,544,544,539,536,532,528,528,527,524],"ymouse":[541,541,541,541,541,541,541,541,541,541,541,541,541,541,541,541,541,541,541,541,541,541,541,541,541,541,541,541,541,541,541,541,541,541,541,541,541,541,541,541,541,541,541,541,541,541,541,541,541,541,541,541,541,541,541,541,541,541,541,541,541,541,541,541,541,541,541,541,541,541,541,541,529,485,435,388,331,313,301,291,277,258,248,240,236,231,217,203,199,183,175,160,150,136,122,107,73,60,51,44,43,41,41],"timestamp_mouse":[20,33,53,72,93,113,132,152,173,194,212,233,254,273,293,312,332,354,374,393,413,433,454,474,494,513,533,552,573,594,614,633,652,673,693,714,733,753,773,793,812,832,854,874,893,914,933,953,974,993,1014,1033,1053,1074,1092,1114,1134,1152,1174,1194,1213,1232,1254,1273,1294,1314,1333,1352,1373,1392,1414,1432,1453,1473,1493,1513,1533,1552,1572,1592,1613,1634,1652,1673,1694,1714,1733,1752,1774,1793,1813,1834,1852,1872,1893,1913,1933,1952,1973,1993,2014,2034,2052],"xSR":741.5,"ySR":501.8,"xT1":424.9,"yT1":0,"xT2":1058.1,"yT2":0,"toosoon":0,"cond_shown":"Congruent","ratio_trial":100,"L_num":10,"L_den":25,"R_num":3,"R_den":10,"correct_side":1,"subjID":"Mathias Alejandro Moreno   Olarte  28","gender":"0","school":"4","age":"9"},{"start_time":1552073598168,"click_time":1552073600596,"finger_time":1552073600237,"fix_duration":250,"trial":10,"RT":2069,"MT":359,"sideResp":1,"stimulus":[],"xmouse":[793,793,793,793,793,793,793,793,793,793,793,793,793,793,793,793,793,793,793,793,793,793,793,793,793,793,793,793,793,793,793,793,793,793,793,793,793,793,793,793,793,793,793,793,793,793,793,793,793,793,793,793,793,793,793,793,793,793,793,793,793,793,793,793,793,793,793,793,793,793,793,793,793,793,793,793,793,793,793,793,793,793,793,793,793,793,793,793,793,793,793,793,793,793,793,793,793,793,793,793,793,786,760,719,668,624,597,577,572,568,561,543,535,526,520,516,512,509,507,499,495,491],"ymouse":[541,541,541,541,541,541,541,541,541,541,541,541,541,541,541,541,541,541,541,541,541,541,541,541,541,541,541,541,541,541,541,541,541,541,541,541,541,541,541,541,541,541,541,541,541,541,541,541,541,541,541,541,541,541,541,541,541,541,541,541,541,541,541,541,541,541,541,541,541,541,541,541,541,541,541,541,541,541,541,541,541,541,541,541,541,541,541,541,541,541,541,541,541,541,541,541,541,541,541,541,541,540,526,480,409,348,317,287,280,276,265,240,223,207,193,184,175,155,140,116,101,87],"timestamp_mouse":[10,41,50,68,89,109,128,148,168,190,208,230,248,268,288,310,329,348,368,389,408,430,448,469,488,509,530,548,568,589,609,629,649,669,689,709,728,748,769,790,808,828,849,869,888,908,930,948,970,990,1008,1028,1049,1070,1088,1109,1129,1150,1170,1188,1208,1229,1250,1270,1289,1309,1328,1349,1368,1390,1410,1429,1449,1469,1489,1509,1528,1549,1569,1590,1609,1628,1649,1670,1690,1710,1730,1750,1769,1788,1810,1829,1850,1869,1889,1909,1929,1950,1969,1990,2008,2029,2049,2069,2089,2110,2128,2148,2169,2189,2209,2229,2248,2269,2290,2310,2329,2349,2370,2389,2409,2428],"xSR":741.5,"ySR":501.8,"xT1":424.9,"yT1":0,"xT2":1058.1,"yT2":0,"toosoon":0,"cond_shown":"Congruent","ratio_trial":100,"L_num":11,"L_den":22,"R_num":6,"R_den":15,"correct_side":1,"subjID":"Mathias Alejandro Moreno   Olarte  28","gender":"0","school":"4","age":"9"},{"start_time":1552073605547,"click_time":1552073607499,"finger_time":1552073607117,"fix_duration":1327.4735598015864,"trial":11,"RT":1570,"MT":382,"sideResp":2,"stimulus":[],"xmouse":[789,789,789,789,789,789,789,789,789,789,789,789,789,789,789,789,789,789,789,789,789,789,789,789,789,789,789,789,789,789,789,789,789,789,789,789,789,789,789,789,789,789,789,789,789,789,789,789,789,789,789,789,789,789,789,789,789,789,789,789,789,789,789,789,789,789,789,789,789,789,789,789,789,789,789,789,789,794,808,817,866,903,938,944,946,948,948,949,955,960,975,989,1017,1036,1050,1061,1067,1076],"ymouse":[524,524,524,524,524,524,524,524,524,524,524,524,524,524,524,524,524,524,524,524,524,524,524,524,524,524,524,524,524,524,524,524,524,524,524,524,524,524,524,524,524,524,524,524,524,524,524,524,524,524,524,524,524,524,524,524,524,524,524,524,524,524,524,524,524,524,524,524,524,524,524,524,524,524,524,524,524,505,460,447,380,335,271,249,232,218,207,199,185,181,170,160,138,126,117,108,102,93],"timestamp_mouse":[10,30,51,70,90,110,130,150,171,191,211,230,250,270,291,311,330,351,371,390,410,431,450,470,490,511,531,551,571,591,610,631,649,670,690,710,731,751,770,791,810,831,850,871,890,910,930,949,970,990,1011,1030,1050,1071,1091,1111,1130,1150,1171,1191,1211,1231,1250,1271,1291,1310,1331,1351,1371,1390,1410,1430,1450,1470,1491,1511,1530,1550,1570,1590,1610,1630,1650,1670,1691,1711,1730,1751,1770,1790,1810,1830,1850,1870,1890,1910,1930,1951],"xSR":741.5,"ySR":501.8,"xT1":424.9,"yT1":0,"xT2":1058.1,"yT2":0,"toosoon":0,"cond_shown":"Congruent","ratio_trial":100,"L_num":11,"L_den":22,"R_num":6,"R_den":15,"correct_side":1,"subjID":"Mathias Alejandro Moreno   Olarte  28","gender":"0","school":"4","age":"9"},{"start_time":1552073610388,"click_time":1552073613198,"finger_time":1552073612458,"fix_duration":909.1019376369237,"trial":12,"RT":2070,"MT":740,"sideResp":1,"stimulus":[],"xmouse":[780,780,780,780,780,780,780,780,780,780,780,780,780,780,780,780,780,780,780,780,780,780,780,780,780,780,780,780,780,780,780,780,780,780,780,780,780,780,780,780,780,780,780,780,780,780,780,780,780,780,780,780,780,780,780,780,780,780,780,780,780,780,780,780,780,780,780,780,780,780,780,780,780,780,780,780,780,780,780,780,780,780,780,780,780,780,780,780,778,770,765,764,764,764,764,764,764,764,764,764,764,763,751,738,731,718,717,713,708,692,640,602,574,560,552,546,540,537,531,508,459,378,344,337,337,337,337,337,337,337,337,337,337,337,337,337,402,404,413,422,444],"ymouse":[535,535,535,535,535,535,535,535,535,535,535,535,535,535,535,535,535,535,535,535,535,535,535,535,535,535,535,535,535,535,535,535,535,535,535,535,535,535,535,535,535,535,535,535,535,535,535,535,535,535,535,535,535,535,535,535,535,535,535,535,535,535,535,535,535,535,535,535,535,535,535,535,535,535,535,535,535,535,535,535,535,535,535,535,535,535,535,535,534,529,526,525,525,525,525,525,525,525,525,525,525,525,516,507,500,491,489,486,483,471,438,415,395,382,371,362,351,346,339,291,228,87,21,1,1,1,1,1,1,1,1,1,1,1,1,1,1,4,23,40,78],"timestamp_mouse":[10,44,49,70,89,109,129,149,170,189,209,230,249,269,290,310,330,349,369,390,409,429,449,470,489,510,530,550,568,589,609,629,649,669,689,710,729,749,769,790,809,829,850,869,890,910,930,950,969,989,1010,1030,1050,1070,1089,1110,1128,1149,1169,1188,1209,1230,1249,1270,1289,1308,1329,1350,1370,1390,1410,1429,1450,1470,1490,1510,1529,1549,1570,1588,1609,1630,1650,1669,1690,1709,1729,1750,1770,1789,1809,1830,1849,1869,1889,1908,1930,1950,1969,1990,2009,2029,2049,2070,2089,2110,2129,2149,2169,2190,2210,2229,2249,2269,2289,2310,2329,2349,2369,2390,2409,2430,2450,2468,2489,2510,2529,2549,2570,2589,2609,2629,2650,2669,2689,2710,2729,2749,2768,2788,2810],"xSR":741.5,"ySR":501.8,"xT1":424.9,"yT1":0,"xT2":1058.1,"yT2":0,"toosoon":0,"cond_shown":"Incongruent","ratio_trial":200,"L_num":6,"L_den":20,"R_num":3,"R_den":6,"correct_side":2,"subjID":"Mathias Alejandro Moreno   Olarte  28","gender":"0","school":"4","age":"9"},{"start_time":1552073615969,"click_time":1552073617717,"finger_time":1552073616198,"fix_duration":250,"trial":13,"RT":229,"MT":1519,"sideResp":2,"stimulus":[],"xmouse":[802,802,802,802,802,802,802,802,802,802,802,805,811,810,773,704,547,463,450,429,428,428,427,427,428,428,428,428,428,428,428,428,428,428,428,428,428,428,431,445,461,495,521,552,576,591,598,598,598,598,598,620,669,734,798,850,925,932,933,933,933,933,933,933,932,916,901,864,846,825,817,807,805,805,805,805,803,800,800,800,800,844,894,943,988,1035,1115,1148],"ymouse":[506,506,506,506,506,506,506,506,506,506,506,497,459,424,402,399,392,392,392,391,391,391,390,390,389,389,389,389,389,389,389,389,389,389,389,389,389,389,390,408,427,459,470,479,483,484,484,484,484,484,484,480,467,459,452,452,454,454,454,454,455,455,455,455,455,457,462,485,499,518,525,526,526,526,526,526,526,526,526,526,526,489,433,379,313,243,116,72],"timestamp_mouse":[15,29,48,67,89,108,128,148,169,189,208,229,247,269,288,308,328,348,369,388,408,429,448,468,488,508,528,549,568,588,608,629,649,668,688,708,729,748,769,788,809,829,848,868,889,908,929,949,968,988,1008,1030,1048,1069,1088,1107,1128,1148,1169,1189,1209,1229,1249,1269,1289,1309,1329,1349,1368,1388,1408,1428,1448,1469,1489,1508,1528,1548,1569,1588,1609,1629,1647,1669,1688,1709,1728,1748],"xSR":741.5,"ySR":501.8,"xT1":424.9,"yT1":0,"xT2":1058.1,"yT2":0,"toosoon":0,"cond_shown":"Incongruent","ratio_trial":100,"L_num":10,"L_den":25,"R_num":9,"R_den":18,"correct_side":2,"subjID":"Mathias Alejandro Moreno   Olarte  28","gender":"0","school":"4","age":"9"},{"start_time":1552073621508,"click_time":1552073624998,"finger_time":1552073624737,"fix_duration":250,"trial":14,"RT":3229,"MT":261,"sideResp":1,"stimulus":[],"xmouse":[816,816,816,816,816,816,816,816,816,816,816,816,816,816,816,816,816,816,816,816,816,816,816,816,816,816,816,816,816,816,816,816,816,816,816,816,816,816,816,816,816,816,816,816,816,816,816,816,816,816,816,816,816,816,816,816,816,816,816,816,816,816,816,816,816,816,816,816,816,816,816,816,816,816,816,816,816,816,816,816,816,816,816,816,816,816,816,816,816,816,816,816,816,816,816,816,816,816,816,816,816,816,816,816,816,816,816,816,816,816,816,816,816,816,816,816,816,816,816,816,816,816,816,816,816,816,816,816,816,816,816,816,816,816,816,816,816,816,816,816,816,816,816,816,816,816,816,816,816,816,816,816,816,816,816,816,816,816,817,804,784,762,745,722,707,700,687,671,646,604,583,570,555,539,510],"ymouse":[556,556,556,556,556,556,556,556,556,556,556,556,556,556,556,556,556,556,556,556,556,556,556,556,556,556,556,556,556,556,556,556,556,556,556,556,556,556,556,556,556,556,556,556,556,556,556,556,556,556,556,556,556,556,556,556,556,556,556,556,556,556,556,556,556,556,556,556,556,556,556,556,556,556,556,556,556,556,556,556,556,556,556,556,556,556,556,556,556,556,556,556,556,556,556,556,556,556,556,556,556,556,556,556,556,556,556,556,556,556,556,556,556,556,556,556,556,556,556,556,556,556,556,556,556,556,556,556,556,556,556,556,556,556,556,556,556,556,556,556,556,556,556,556,556,556,556,556,556,556,556,556,556,556,556,556,556,556,555,537,518,499,483,464,447,437,424,405,378,317,269,232,187,153,96],"timestamp_mouse":[11,43,49,70,90,109,129,150,170,189,210,230,250,269,290,310,330,349,369,390,410,430,449,470,489,510,529,549,569,589,609,630,649,669,689,710,730,750,771,788,810,829,849,870,908,910,929,949,969,988,1009,1029,1050,1069,1090,1110,1130,1149,1170,1188,1210,1230,1250,1270,1290,1310,1330,1349,1370,1389,1410,1429,1449,1469,1488,1510,1530,1550,1569,1589,1609,1630,1649,1669,1690,1709,1729,1749,1770,1789,1810,1830,1849,1868,1889,1910,1930,1950,1970,1989,2010,2029,2050,2069,2090,2108,2129,2150,2169,2190,2209,2230,2250,2270,2290,2310,2329,2349,2369,2390,2409,2430,2450,2470,2489,2510,2529,2549,2569,2590,2608,2630,2649,2670,2689,2709,2730,2748,2770,2790,2810,2829,2850,2868,2890,2910,2929,2949,2969,2990,3010,3029,3050,3069,3089,3110,3129,3150,3169,3189,3210,3229,3250,3269,3289,3309,3329,3350,3369,3390,3409,3429,3448,3470,3489],"xSR":741.5,"ySR":501.8,"xT1":424.9,"yT1":0,"xT2":1058.1,"yT2":0,"toosoon":0,"cond_shown":"Congruent","ratio_trial":100,"L_num":3,"L_den":20,"R_num":4,"R_den":16,"correct_side":2,"subjID":"Mathias Alejandro Moreno   Olarte  28","gender":"0","school":"4","age":"9"},{"start_time":1552073629370,"click_time":1552073636158,"finger_time":1552073635957,"fix_duration":250,"trial":15,"RT":6587,"MT":201,"sideResp":1,"stimulus":[],"xmouse":[802,802,802,802,802,802,802,802,802,802,802,802,802,802,802,802,802,802,802,802,802,802,802,802,802,802,802,802,802,802,802,802,802,802,802,802,802,802,802,802,802,802,802,802,802,802,802,802,801,801,801,801,801,801,801,801,801,801,801,801,800,799,793,791,790,790,790,790,790,789,789,789,789,789,789,789,789,789,789,789,789,789,789,789,789,789,789,789,789,789,789,789,789,789,789,789,789,789,789,789,789,789,789,789,789,789,789,789,789,789,789,789,789,789,789,789,789,789,789,789,789,789,789,789,789,789,789,789,789,789,789,789,789,789,789,789,789,789,789,789,789,789,789,789,789,789,789,789,789,789,789,789,789,789,789,789,789,789,789,789,789,789,789,789,789,789,789,789,789,789,789,789,789,789,789,789,789,789,789,789,789,789,789,789,789,789,789,789,789,789,789,789,789,789,789,789,789,789,789,789,789,789,789,789,789,789,789,789,789,789,789,789,789,789,789,789,789,789,789,789,789,789,789,789,789,789,789,789,789,789,789,789,789,789,789,789,789,789,789,789,789,789,789,789,789,789,789,789,789,789,789,789,789,789,789,789,789,789,789,789,789,789,789,789,789,789,789,789,789,789,789,789,789,789,789,789,789,789,789,789,789,789,789,789,789,789,789,789,789,789,789,789,789,789,789,789,789,789,789,789,789,789,789,789,789,789,789,789,789,789,789,789,789,789,789,789,789,789,789,789,789,789,798,812,817,822,828,828,819,784,729,654,623,597,573,556,543,522,516,513],"ymouse":[596,596,596,596,596,596,596,596,596,596,596,596,596,596,596,596,596,596,596,596,596,596,596,596,596,596,596,596,596,596,596,596,596,596,596,596,596,596,596,596,596,596,596,596,596,596,596,596,596,592,589,589,589,589,588,588,588,588,588,588,586,584,579,576,575,574,574,574,574,574,574,574,574,574,574,574,574,574,574,574,574,574,574,574,574,574,574,574,574,574,574,574,574,574,574,574,574,574,574,574,574,574,574,574,574,574,574,574,574,574,574,574,574,574,574,574,574,574,574,574,574,574,574,574,574,574,574,574,574,574,574,574,574,574,574,574,574,574,574,574,574,574,574,574,574,574,574,574,574,574,574,574,574,574,574,574,574,574,574,574,574,574,574,574,574,574,574,574,574,574,574,574,574,574,574,574,574,574,574,574,574,574,574,574,574,574,574,574,574,574,574,574,574,574,574,574,574,574,574,574,574,574,574,574,574,574,574,574,574,574,574,574,574,574,574,574,574,574,574,574,574,574,574,574,574,574,574,574,574,574,574,574,574,574,574,574,574,574,574,574,574,574,574,574,574,574,574,574,574,574,574,574,574,574,574,574,574,574,574,574,574,574,574,574,574,574,574,574,574,574,574,574,574,574,574,574,574,574,574,574,574,574,574,574,574,574,574,574,574,574,574,574,574,574,574,574,574,574,574,574,574,574,574,574,574,574,574,574,574,574,574,574,574,574,574,574,574,574,574,574,574,572,569,562,558,555,552,545,522,470,393,300,265,237,212,184,161,118,103,93],"timestamp_mouse":[11,45,47,68,87,108,127,148,167,187,207,228,247,267,287,306,328,348,367,388,407,427,448,467,486,507,528,546,568,588,608,628,646,667,687,706,728,747,768,787,806,828,847,867,888,907,928,947,967,987,1008,1028,1048,1067,1088,1107,1128,1146,1167,1188,1207,1227,1247,1268,1287,1307,1326,1347,1368,1387,1407,1427,1448,1467,1488,1507,1528,1548,1567,1586,1607,1627,1647,1667,1688,1708,1727,1748,1768,1787,1806,1828,1846,1867,1887,1907,1928,1946,1967,1988,2007,2027,2048,2068,2086,2108,2128,2148,2167,2186,2207,2227,2248,2268,2287,2307,2327,2348,2367,2388,2407,2428,2448,2468,2487,2508,2527,2548,2567,2588,2608,2627,2648,2668,2687,2708,2727,2748,2767,2787,2808,2827,2846,2868,2888,2907,2928,2947,2967,2988,3008,3027,3046,3068,3088,3108,3127,3147,3167,3187,3206,3228,3248,3268,3288,3307,3327,3348,3368,3388,3407,3427,3448,3467,3488,3506,3528,3547,3567,3588,3606,3628,3648,3668,3687,3707,3728,3748,3766,3787,3808,3828,3847,3867,3888,3908,3928,3948,3968,3988,4007,4028,4047,4068,4088,4108,4128,4147,4166,4187,4207,4228,4248,4266,4288,4308,4328,4347,4368,4388,4407,4427,4448,4466,4488,4508,4528,4548,4568,4588,4608,4628,4648,4668,4686,4708,4728,4748,4766,4787,4807,4827,4847,4868,4887,4907,4927,4948,4966,4986,5008,5028,5048,5067,5087,5108,5127,5148,5166,5187,5208,5227,5248,5267,5288,5308,5328,5347,5368,5386,5408,5428,5448,5468,5487,5507,5527,5548,5568,5588,5607,5627,5648,5667,5687,5706,5727,5747,5768,5787,5807,5826,5848,5867,5887,5908,5927,5946,5968,5987,6007,6028,6047,6067,6086,6107,6126,6148,6168,6187,6208,6228,6248,6268,6287,6308,6327,6347,6368,6388,6407,6427,6447,6468,6487,6508,6527,6547,6568,6587,6606,6627,6646,6668,6687,6707,6726,6747,6768,6788],"xSR":741.5,"ySR":501.8,"xT1":424.9,"yT1":0,"xT2":1058.1,"yT2":0,"toosoon":0,"cond_shown":"Congruent","ratio_trial":200,"L_num":6,"L_den":12,"R_num":7,"R_den":10,"correct_side":2,"subjID":"Mathias Alejandro Moreno   Olarte  28","gender":"0","school":"4","age":"9"},{"start_time":1552073638582,"click_time":1552073640437,"finger_time":1552073640118,"fix_duration":503.6446602464768,"trial":16,"RT":1536,"MT":319,"sideResp":2,"stimulus":[],"xmouse":[775,775,775,775,775,775,775,775,775,775,775,775,775,775,775,775,775,775,775,775,775,775,775,775,775,775,775,775,775,775,775,775,775,775,775,775,775,775,775,775,775,775,775,775,775,775,775,775,775,775,775,775,775,775,775,775,775,775,775,775,775,775,775,775,775,775,775,775,775,775,775,775,775,775,775,783,811,857,868,895,922,946,953,958,960,960,964,972,985,1006,1036,1050,1064],"ymouse":[536,536,536,536,536,536,536,536,536,536,536,536,536,536,536,536,536,536,536,536,536,536,536,536,536,536,536,536,536,536,536,536,536,536,536,536,536,536,536,536,536,536,536,536,536,536,536,536,536,536,536,536,536,536,536,536,536,536,536,536,536,536,536,536,536,536,536,536,536,536,536,536,536,536,536,512,455,393,377,322,275,229,218,208,203,202,196,186,175,153,121,107,92],"timestamp_mouse":[15,38,55,75,95,115,136,156,176,194,215,235,256,275,295,316,336,356,376,395,416,436,456,474,494,516,535,555,576,596,616,636,656,676,695,715,736,756,776,796,815,835,855,875,896,915,936,955,974,996,1015,1035,1056,1076,1096,1114,1136,1155,1175,1194,1216,1236,1255,1275,1295,1315,1336,1355,1375,1395,1415,1435,1456,1475,1496,1515,1536,1556,1575,1595,1616,1636,1654,1674,1695,1716,1736,1756,1776,1796,1816,1835,1855],"xSR":741.5,"ySR":501.8,"xT1":424.9,"yT1":0,"xT2":1058.1,"yT2":0,"toosoon":0,"cond_shown":"Congruent","ratio_trial":100,"L_num":15,"L_den":25,"R_num":13,"R_den":26,"correct_side":1,"subjID":"Mathias Alejandro Moreno   Olarte  28","gender":"0","school":"4","age":"9"},{"start_time":1552073643262,"click_time":1552073644578,"finger_time":1552073643997,"fix_duration":963.1538690506123,"trial":17,"RT":735,"MT":581,"sideResp":1,"stimulus":[],"xmouse":[785,785,785,785,785,785,785,785,785,785,785,785,785,785,785,785,785,785,785,785,785,785,785,785,785,785,785,785,785,785,785,785,785,785,764,752,741,727,709,684,661,619,618,622,630,636,637,632,625,618,614,607,601,589,578,568,563,561,558,551,542,525,518,514,510,506],"ymouse":[537,537,537,537,537,537,537,537,537,537,537,537,537,537,537,537,537,537,537,537,537,537,537,537,537,537,537,537,537,537,537,537,537,537,537,537,538,531,519,506,494,467,447,426,396,361,306,282,261,245,233,216,207,196,186,175,169,166,164,160,153,137,126,118,109,97],"timestamp_mouse":[16,38,55,75,96,116,136,154,176,196,216,236,256,276,296,315,335,356,376,395,416,436,456,476,495,516,535,555,576,596,615,636,656,674,695,715,735,754,776,794,815,836,855,875,896,916,937,954,975,995,1016,1037,1055,1075,1095,1116,1135,1156,1175,1196,1215,1236,1255,1274,1296,1316],"xSR":741.5,"ySR":501.8,"xT1":424.9,"yT1":0,"xT2":1058.1,"yT2":0,"toosoon":0,"cond_shown":"Congruent","ratio_trial":200,"L_num":12,"L_den":15,"R_num":6,"R_den":10,"correct_side":1,"subjID":"Mathias Alejandro Moreno   Olarte  28","gender":"0","school":"4","age":"9"},{"start_time":1552073647026,"click_time":1552073648117,"finger_time":1552073647878,"fix_duration":967.2393197163392,"trial":18,"RT":852,"MT":239,"sideResp":2,"stimulus":[],"xmouse":[762,762,762,762,762,762,762,762,762,762,762,762,762,762,762,762,762,762,762,762,762,762,762,762,762,762,762,762,762,762,762,762,762,762,762,762,762,762,768,795,822,836,840,840,841,843,849,856,864,870,882,902,936,1026,1076],"ymouse":[532,532,532,532,532,532,532,532,532,532,532,532,532,532,532,532,532,532,532,532,532,532,532,532,532,532,532,532,532,532,532,532,532,532,532,532,532,532,532,522,512,503,496,489,480,465,442,402,332,304,260,212,158,67,24],"timestamp_mouse":[19,40,51,70,91,112,131,152,171,192,211,230,251,271,290,311,332,351,371,392,412,432,451,470,492,512,532,550,572,591,611,631,651,672,690,712,731,751,771,792,811,831,852,872,891,910,932,952,971,991,1012,1031,1050,1072,1091],"xSR":741.5,"ySR":501.8,"xT1":424.9,"yT1":0,"xT2":1058.1,"yT2":0,"toosoon":0,"cond_shown":"Incongruent","ratio_trial":100,"L_num":10,"L_den":25,"R_num":9,"R_den":18,"correct_side":2,"subjID":"Mathias Alejandro Moreno   Olarte  28","gender":"0","school":"4","age":"9"},{"start_time":1552073650710,"click_time":1552073652377,"finger_time":1552073651877,"fix_duration":1231.1871932530728,"trial":19,"RT":1167,"MT":500,"sideResp":1,"stimulus":[],"xmouse":[791,791,791,791,791,791,791,791,791,791,791,791,791,791,791,791,791,791,791,791,791,791,791,791,791,791,791,791,791,791,791,791,791,791,791,791,791,791,794,798,800,801,801,801,801,801,801,801,801,801,801,801,801,801,801,795,782,774,766,756,742,733,723,715,699,688,674,648,616,554,525,505,484,480,479,479,478,477,477,477,477,477,477,476],"ymouse":[557,557,557,557,557,557,557,557,557,557,557,557,557,557,557,557,557,557,557,557,557,557,557,557,557,557,557,557,557,557,557,557,557,557,557,557,557,557,554,549,547,545,545,545,545,545,545,545,545,545,545,545,545,545,545,532,516,505,490,473,442,427,407,394,366,348,328,295,258,197,175,157,145,139,139,139,139,139,139,139,139,139,126,98],"timestamp_mouse":[13,39,47,66,87,107,126,147,167,187,207,227,247,268,288,308,327,348,368,388,407,426,448,468,487,507,527,547,568,587,607,628,648,667,688,708,728,747,767,787,807,827,848,867,888,907,927,947,968,988,1007,1027,1048,1068,1087,1108,1127,1147,1167,1187,1207,1228,1247,1267,1288,1307,1328,1346,1367,1387,1408,1426,1447,1468,1487,1507,1527,1547,1568,1587,1607,1628,1646,1667],"xSR":741.5,"ySR":501.8,"xT1":424.9,"yT1":0,"xT2":1058.1,"yT2":0,"toosoon":0,"cond_shown":"Incongruent","ratio_trial":100,"L_num":9,"L_den":15,"R_num":13,"R_den":26,"correct_side":1,"subjID":"Mathias Alejandro Moreno   Olarte  28","gender":"0","school":"4","age":"9"},{"start_time":1552073655791,"click_time":1552073658418,"finger_time":1552073657977,"fix_duration":411.2554536442322,"trial":20,"RT":2186,"MT":441,"sideResp":2,"stimulus":[],"xmouse":[771,771,771,771,771,771,771,771,771,771,771,771,771,771,771,771,771,771,771,771,771,771,771,771,771,771,771,771,771,771,771,771,771,771,771,771,771,771,771,771,771,771,771,771,771,771,771,771,771,771,771,771,771,771,771,771,771,771,771,771,771,771,771,771,771,771,771,771,771,771,771,771,771,771,771,771,771,771,771,771,771,771,771,771,771,771,771,771,771,771,771,771,771,771,771,771,771,771,771,771,771,771,771,771,771,771,771,769,764,755,751,752,757,763,775,831,864,889,892,894,895,911,936,958,978,1013,1022,1031,1037,1043,1050,1061],"ymouse":[545,545,545,545,545,545,545,545,545,545,545,545,545,545,545,545,545,545,545,545,545,545,545,545,545,545,545,545,545,545,545,545,545,545,545,545,545,545,545,545,545,545,545,545,545,545,545,545,545,545,545,545,545,545,545,545,545,545,545,545,545,545,545,545,545,545,545,545,545,545,545,545,545,545,545,545,545,545,545,545,545,545,545,545,545,545,545,545,545,545,545,545,545,545,545,545,545,545,545,545,545,545,545,545,545,545,545,542,504,441,336,291,258,227,207,180,170,163,162,161,161,161,158,143,126,86,67,47,37,30,27,26],"timestamp_mouse":[12,34,46,66,86,106,126,147,166,185,206,227,245,266,286,306,326,346,366,386,407,427,446,466,486,506,527,546,566,586,605,626,647,666,685,706,726,746,766,786,807,826,847,866,886,906,926,946,966,987,1007,1026,1047,1066,1086,1107,1126,1146,1165,1187,1206,1227,1247,1267,1286,1307,1325,1346,1366,1385,1406,1427,1447,1466,1488,1507,1527,1546,1566,1587,1607,1626,1647,1666,1687,1706,1726,1747,1767,1785,1806,1827,1846,1867,1887,1907,1926,1947,1966,1987,2007,2026,2047,2067,2087,2107,2126,2146,2167,2186,2206,2226,2246,2266,2285,2307,2326,2346,2366,2387,2406,2426,2447,2466,2486,2506,2527,2546,2566,2587,2606,2626],"xSR":741.5,"ySR":501.8,"xT1":424.9,"yT1":0,"xT2":1058.1,"yT2":0,"toosoon":0,"cond_shown":"Incongruent","ratio_trial":100,"L_num":9,"L_den":18,"R_num":6,"R_den":10,"correct_side":2,"subjID":"Mathias Alejandro Moreno   Olarte  28","gender":"0","school":"4","age":"9"},{"start_time":1552073661191,"click_time":1552073662578,"finger_time":1552073662216,"fix_duration":291.02247594122446,"trial":21,"RT":1025,"MT":362,"sideResp":2,"stimulus":[],"xmouse":[801,801,801,801,801,801,801,801,801,801,801,801,801,801,801,801,801,801,801,801,801,801,801,801,801,801,801,801,801,801,801,801,801,801,801,800,798,795,787,785,784,784,784,784,784,784,784,787,801,825,840,867,888,918,951,996,1002,1004,1004,1004,1004,1003,1003,1004,1008,1020,1027,1049,1057,1091],"ymouse":[564,564,564,564,564,564,564,564,564,564,564,564,564,564,564,564,564,564,564,564,564,564,564,564,564,564,564,564,564,564,564,564,564,564,564,564,564,564,568,568,569,569,569,569,569,569,568,567,564,554,541,473,425,367,309,202,187,182,175,169,162,155,150,141,130,111,101,80,72,53],"timestamp_mouse":[14,41,47,67,86,106,126,147,167,187,206,227,245,267,286,307,327,346,367,387,407,427,447,467,486,507,527,546,566,586,606,627,647,667,686,706,727,746,766,786,807,826,847,867,887,905,926,946,967,986,1005,1025,1046,1066,1086,1107,1126,1146,1166,1186,1206,1226,1246,1266,1285,1306,1326,1346,1366,1387],"xSR":741.5,"ySR":501.8,"xT1":424.9,"yT1":0,"xT2":1058.1,"yT2":0,"toosoon":0,"cond_shown":"Incongruent","ratio_trial":300,"L_num":13,"L_den":26,"R_num":12,"R_den":15,"correct_side":2,"subjID":"Mathias Alejandro Moreno   Olarte  28","gender":"0","school":"4","age":"9"},{"start_time":1552073664131,"click_time":1552073665119,"finger_time":1552073664497,"fix_duration":491.23730810801146,"trial":22,"RT":366,"MT":622,"sideResp":2,"stimulus":[],"xmouse":[819,819,819,819,819,819,819,819,819,819,819,819,819,819,819,819,819,819,834,846,854,863,864,865,865,865,865,865,866,872,887,911,925,945,952,960,967,977,993,995,995,995,995,995,995,995,997,1016,1056,1070],"ymouse":[524,524,524,524,524,524,524,524,524,524,524,524,524,524,524,524,524,523,497,483,473,460,455,454,454,454,454,454,449,430,398,340,308,260,244,229,211,187,142,137,137,137,137,137,137,137,136,125,91,74],"timestamp_mouse":[20,28,47,66,87,106,126,146,166,187,207,227,246,267,286,306,327,346,366,386,406,425,447,466,486,507,526,547,567,587,605,625,647,666,686,706,727,746,766,786,806,827,846,866,886,905,927,947,966,987],"xSR":741.5,"ySR":501.8,"xT1":424.9,"yT1":0,"xT2":1058.1,"yT2":0,"toosoon":0,"cond_shown":"Incongruent","ratio_trial":300,"L_num":4,"L_den":20,"R_num":2,"R_den":4,"correct_side":2,"subjID":"Mathias Alejandro Moreno   Olarte  28","gender":"0","school":"4","age":"9"},{"start_time":1552073667298,"click_time":1552073668499,"finger_time":1552073667618,"fix_duration":758.9852017959079,"trial":23,"RT":320,"MT":881,"sideResp":2,"stimulus":[],"xmouse":[775,775,775,775,775,775,775,775,775,775,775,775,775,776,778,783,785,786,786,786,784,784,784,788,791,797,798,798,799,799,799,800,801,803,804,804,804,804,804,804,804,809,823,857,889,927,942,963,989,1012,1038,1046,1050,1050,1050,1050,1050,1050,1050,1051,1060],"ymouse":[566,566,566,566,566,566,566,566,566,566,566,566,566,563,547,518,501,489,481,469,449,440,430,409,399,385,381,380,380,380,379,376,375,374,373,373,373,373,373,373,373,370,355,328,301,246,225,203,180,163,129,117,107,105,103,103,103,103,102,99,88],"timestamp_mouse":[1,38,40,59,80,100,121,139,161,179,200,221,241,259,280,300,320,339,359,381,401,420,440,459,480,501,521,540,560,580,601,620,639,661,680,700,721,740,761,780,800,820,839,860,881,900,921,940,960,980,1001,1019,1040,1061,1081,1100,1120,1140,1160,1180,1201],"xSR":741.5,"ySR":501.8,"xT1":424.9,"yT1":0,"xT2":1058.1,"yT2":0,"toosoon":0,"cond_shown":"Incongruent","ratio_trial":100,"L_num":8,"L_den":20,"R_num":1,"R_den":2,"correct_side":2,"subjID":"Mathias Alejandro Moreno   Olarte  28","gender":"0","school":"4","age":"9"},{"start_time":1552073669990,"click_time":1552073670878,"finger_time":1552073670519,"fix_duration":250,"trial":24,"RT":529,"MT":359,"sideResp":1,"stimulus":[],"xmouse":[786,786,786,786,786,786,786,786,786,786,786,786,786,788,788,792,793,794,794,794,794,794,794,799,804,811,817,817,817,817,817,817,817,817,817,811,797,777,712,648,532,503,486,476,469],"ymouse":[540,540,540,540,540,540,540,540,540,540,540,540,540,537,535,527,526,524,524,524,524,524,524,516,510,503,498,498,498,498,498,498,498,498,498,495,487,468,380,302,168,133,111,100,90],"timestamp_mouse":[10,39,48,69,88,109,129,149,168,189,208,229,248,268,289,308,328,347,369,388,409,428,448,468,488,508,529,548,567,588,609,629,647,667,689,710,727,748,767,787,809,828,849,867,888],"xSR":741.5,"ySR":501.8,"xT1":424.9,"yT1":0,"xT2":1058.1,"yT2":0,"toosoon":0,"cond_shown":"Congruent","ratio_trial":300,"L_num":24,"L_den":30,"R_num":8,"R_den":16,"correct_side":1,"subjID":"Mathias Alejandro Moreno   Olarte  28","gender":"0","school":"4","age":"9"},{"start_time":1552073672560,"click_time":1552073673698,"finger_time":1552073673258,"fix_duration":560.4329088824244,"trial":25,"RT":698,"MT":440,"sideResp":2,"stimulus":[],"xmouse":[801,801,801,801,801,801,801,801,801,801,801,801,801,801,801,801,801,801,801,801,801,801,801,801,801,801,801,801,801,801,801,801,801,801,812,833,946,993,1015,1018,1028,1048,1048,1048,1048,1048,1048,1048,1048,1048,1048,1048,1048,1048,1048,1084,1084],"ymouse":[516,516,516,516,516,516,516,516,516,516,516,516,516,516,516,516,516,516,516,516,516,516,516,516,516,516,516,516,516,516,516,516,516,505,479,425,284,224,160,136,69,3,3,3,3,3,3,3,3,3,3,3,3,3,3,0,2],"timestamp_mouse":[19,38,58,77,98,118,139,157,179,197,217,237,259,279,298,318,338,359,379,397,419,438,458,478,498,518,539,557,578,597,618,639,658,679,698,718,740,758,778,799,819,838,858,877,898,918,939,959,978,999,1018,1039,1058,1078,1098,1119,1138],"xSR":741.5,"ySR":501.8,"xT1":424.9,"yT1":0,"xT2":1058.1,"yT2":0,"toosoon":0,"cond_shown":"Incongruent","ratio_trial":300,"L_num":13,"L_den":26,"R_num":12,"R_den":15,"correct_side":2,"subjID":"Mathias Alejandro Moreno   Olarte  28","gender":"0","school":"4","age":"9"},{"start_time":1552073675161,"click_time":1552073677279,"finger_time":1552073676478,"fix_duration":581.210039326988,"trial":26,"RT":1317,"MT":801,"sideResp":2,"stimulus":[],"xmouse":[779,779,780,780,780,780,781,781,781,781,781,781,781,781,781,781,781,781,781,781,781,781,781,781,781,781,781,781,781,781,781,781,781,781,781,781,781,781,781,781,781,781,781,781,781,781,781,781,781,781,781,781,781,781,781,781,781,783,783,783,783,783,783,787,795,804,823,835,852,933,1074,1365,1456,1501,1512,1512,1512,1512,1512,1512,1512,1512,1487,1440,1383,1331,1287,1248,1237,1234,1234,1234,1234,1234,1234,1234,1234,1234,1234,1234,1234,1234,1232,1211,1172,1119],"ymouse":[533,531,529,528,528,528,527,527,527,527,527,527,527,527,527,527,527,527,527,527,527,527,527,527,527,527,527,527,527,527,527,527,527,527,527,527,527,527,527,527,527,527,527,527,527,527,527,527,527,527,527,527,527,527,527,526,524,520,520,520,520,520,520,516,507,500,480,463,438,363,285,161,124,106,100,100,100,100,100,100,100,100,96,90,80,73,67,62,60,60,60,60,60,60,60,60,60,60,60,60,60,60,60,57,48,35],"timestamp_mouse":[18,38,57,76,97,117,137,158,177,197,218,238,258,277,296,318,338,357,376,398,418,437,456,478,498,518,538,556,577,598,616,636,657,678,698,717,737,758,778,798,818,837,856,877,898,917,938,958,977,998,1018,1037,1058,1076,1096,1118,1137,1158,1177,1196,1217,1238,1257,1278,1296,1317,1337,1356,1377,1397,1418,1437,1458,1477,1496,1517,1538,1558,1577,1596,1617,1637,1656,1677,1697,1717,1737,1757,1776,1796,1817,1837,1858,1877,1897,1917,1937,1957,1978,1998,2018,2037,2057,2076,2097,2118],"xSR":741.5,"ySR":501.8,"xT1":424.9,"yT1":0,"xT2":1058.1,"yT2":0,"toosoon":0,"cond_shown":"Incongruent","ratio_trial":100,"L_num":8,"L_den":20,"R_num":1,"R_den":2,"correct_side":2,"subjID":"Mathias Alejandro Moreno   Olarte  28","gender":"0","school":"4","age":"9"},{"start_time":1552073678906,"click_time":1552073680237,"finger_time":1552073679918,"fix_duration":325.9280998302234,"trial":27,"RT":1012,"MT":319,"sideResp":2,"stimulus":[],"xmouse":[777,777,777,777,777,776,776,776,776,776,776,776,776,776,776,776,776,776,776,776,776,776,776,776,776,776,776,776,776,776,776,776,776,776,776,776,776,776,776,776,776,776,776,776,776,776,776,776,776,791,822,874,969,1025,1088,1102,1109,1112,1114,1114,1114,1115,1115,1115,1115,1115,1115],"ymouse":[570,570,570,570,570,566,566,566,566,566,566,566,566,566,566,566,566,566,566,566,566,566,566,566,566,566,566,566,566,566,566,566,566,565,565,565,565,565,565,564,564,564,564,564,561,560,559,558,553,526,488,428,333,266,189,169,150,137,122,107,104,103,103,103,103,103,99],"timestamp_mouse":[20,46,52,72,91,112,133,152,173,193,212,231,253,273,292,312,332,353,373,393,413,432,453,472,493,512,533,553,572,592,613,632,653,673,693,713,732,753,773,792,812,832,852,872,892,913,933,952,971,992,1012,1032,1052,1071,1092,1112,1131,1151,1171,1192,1212,1231,1252,1272,1292,1312,1331],"xSR":741.5,"ySR":501.8,"xT1":424.9,"yT1":0,"xT2":1058.1,"yT2":0,"toosoon":0,"cond_shown":"Congruent","ratio_trial":200,"L_num":7,"L_den":15,"R_num":18,"R_den":27,"correct_side":2,"subjID":"Mathias Alejandro Moreno   Olarte  28","gender":"0","school":"4","age":"9"},{"start_time":1552073690786,"click_time":1552073692799,"finger_time":1552073691979,"fix_duration":486.1291095605691,"trial":28,"RT":1193,"MT":820,"sideResp":2,"stimulus":[],"xmouse":[805,805,805,805,805,805,805,805,805,805,805,805,805,805,805,805,805,805,805,805,805,805,805,805,805,805,805,805,805,805,805,805,805,805,805,805,805,805,805,805,805,805,805,805,805,805,805,805,805,805,805,805,805,805,805,805,806,808,810,813,813,813,814,820,825,828,828,828,827,824,823,823,823,823,823,823,823,823,825,839,847,849,849,849,849,849,849,849,849,849,849,849,849,849,849,878,914,976,993,1043,1098],"ymouse":[536,536,536,536,536,536,536,536,536,536,536,536,536,536,536,536,536,536,536,536,536,536,536,536,536,536,536,536,536,536,536,536,536,536,536,536,536,537,539,539,539,540,540,542,543,545,546,547,548,549,549,549,549,550,552,560,566,581,588,615,631,631,631,626,612,571,571,567,561,551,549,549,549,549,549,549,549,545,539,521,509,505,504,504,504,504,504,504,504,504,504,504,504,503,480,393,337,244,215,125,34],"timestamp_mouse":[13,43,52,71,92,113,133,153,171,192,213,232,253,272,292,313,331,353,372,391,412,432,452,473,492,511,532,552,572,593,613,632,652,671,693,713,733,753,772,792,813,832,851,871,893,912,932,953,972,993,1012,1032,1052,1072,1093,1111,1132,1153,1172,1193,1213,1231,1251,1272,1292,1313,1331,1352,1372,1391,1411,1432,1452,1473,1491,1511,1533,1553,1573,1593,1611,1632,1653,1671,1691,1711,1733,1752,1772,1792,1812,1833,1852,1872,1892,1913,1931,1952,1972,1992,2013],"xSR":741.5,"ySR":501.8,"xT1":424.9,"yT1":0,"xT2":1058.1,"yT2":0,"toosoon":0,"cond_shown":"Incongruent","ratio_trial":100,"L_num":8,"L_den":20,"R_num":1,"R_den":2,"correct_side":2,"subjID":"Mathias Alejandro Moreno   Olarte  28","gender":"0","school":"4","age":"9"},{"start_time":1552073695862,"click_time":1552073696699,"finger_time":1552073696278,"fix_duration":863.0374004947038,"trial":29,"RT":416,"MT":421,"sideResp":2,"stimulus":[],"xmouse":[788,788,788,788,788,788,788,788,788,788,788,788,788,788,788,788,788,788,790,794,798,823,850,867,917,941,988,1007,1025,1036,1045,1053,1054,1055,1055,1055,1055,1055,1055,1055,1055,1060],"ymouse":[575,575,575,575,575,575,575,575,575,575,575,575,575,575,575,574,559,551,536,520,499,436,378,351,263,214,148,126,106,92,80,66,63,61,61,61,61,61,61,61,59,55],"timestamp_mouse":[16,38,56,77,96,116,136,157,177,197,216,237,257,276,295,316,336,357,377,396,416,437,456,476,496,517,536,555,577,596,616,637,655,675,695,716,736,756,776,797,817,837],"xSR":741.5,"ySR":501.8,"xT1":424.9,"yT1":0,"xT2":1058.1,"yT2":0,"toosoon":0,"cond_shown":"Congruent","ratio_trial":300,"L_num":8,"L_den":16,"R_num":1,"R_den":5,"correct_side":1,"subjID":"Mathias Alejandro Moreno   Olarte  28","gender":"0","school":"4","age":"9"},{"start_time":1552073698266,"click_time":1552073700639,"finger_time":1552073699918,"fix_duration":527.6027813419776,"trial":30,"RT":1652,"MT":721,"sideResp":2,"stimulus":[],"xmouse":[780,780,780,780,780,780,780,780,780,780,780,780,780,780,780,780,780,780,780,780,780,780,780,780,780,780,780,780,780,780,780,780,780,780,780,780,780,780,780,780,780,780,780,780,780,780,780,780,780,780,780,780,780,780,780,780,780,780,780,780,780,780,780,780,780,780,780,780,780,780,780,780,780,780,780,780,780,780,780,780,785,799,880,927,927,955,989,1007,1019,1030,1036,1043,1043,1043,1043,1044,1048,1050,1052,1054,1055,1056,1056,1056,1056,1056,1056,1056,1056,1056,1056,1056,1056,1056,1056,1056,1056,1056,1060],"ymouse":[566,566,566,566,566,566,566,566,566,566,566,566,566,566,566,566,566,566,566,566,566,566,566,566,566,566,566,566,566,566,566,566,566,566,566,566,566,566,566,566,566,566,566,566,566,566,566,566,566,566,566,566,566,566,566,566,566,566,566,566,566,566,566,566,566,566,566,566,566,566,566,566,566,566,566,566,566,566,566,566,561,542,448,396,396,356,295,259,231,208,190,161,146,130,116,105,81,68,55,45,39,38,38,38,38,38,38,38,38,38,38,38,38,38,38,38,38,38,38],"timestamp_mouse":[13,42,53,72,91,112,133,152,172,193,212,232,252,271,291,312,332,351,373,391,411,433,453,473,493,513,531,552,573,593,612,633,652,673,692,711,732,753,773,791,811,832,851,873,891,911,933,951,972,992,1011,1031,1052,1073,1092,1112,1133,1153,1173,1192,1213,1233,1252,1272,1292,1313,1332,1352,1371,1392,1413,1432,1453,1473,1493,1511,1531,1553,1572,1592,1612,1632,1652,1671,1693,1712,1733,1752,1772,1793,1812,1832,1851,1873,1893,1913,1932,1952,1973,1991,2012,2032,2052,2072,2093,2111,2132,2153,2173,2192,2212,2232,2252,2273,2293,2313,2332,2352,2373],"xSR":741.5,"ySR":501.8,"xT1":424.9,"yT1":0,"xT2":1058.1,"yT2":0,"toosoon":0,"cond_shown":"Incongruent","ratio_trial":200,"L_num":1,"L_den":3,"R_num":2,"R_den":15,"correct_side":1,"subjID":"Mathias Alejandro Moreno   Olarte  28","gender":"0","school":"4","age":"9"},{"start_time":1552073707666,"click_time":1552073710399,"finger_time":1552073710098,"fix_duration":1486.4028465866638,"trial":31,"RT":2432,"MT":301,"sideResp":2,"stimulus":[],"xmouse":[784,784,784,784,784,784,784,784,783,783,783,783,783,783,783,783,783,783,783,783,783,783,783,783,783,783,783,783,783,783,783,783,783,783,783,783,783,783,783,783,783,783,783,783,783,783,783,783,783,783,783,783,783,783,783,783,783,783,783,783,783,783,783,783,783,783,783,783,783,783,783,783,783,783,783,783,783,783,783,783,783,783,783,783,783,783,783,783,783,783,783,783,783,783,783,783,783,783,783,783,783,783,783,783,783,783,783,783,783,783,783,783,783,783,783,783,785,799,824,833,835,836,842,860,865,879,888,895,904,909,911,918,928,953,969,1024,1115],"ymouse":[550,550,550,550,550,550,550,550,549,549,549,549,549,549,549,549,549,549,549,549,549,549,549,549,549,549,549,549,549,549,549,549,549,549,549,549,549,549,549,549,549,549,549,549,549,549,549,549,549,549,549,549,549,549,549,549,549,549,549,549,549,549,549,549,549,549,549,549,549,549,549,549,549,549,549,549,549,549,549,549,549,549,549,549,549,549,549,549,549,549,549,549,549,549,549,549,549,549,549,549,549,549,549,549,549,549,549,549,549,549,549,549,549,549,549,549,542,528,510,505,503,501,494,479,475,464,453,447,444,442,441,435,427,398,376,284,94],"timestamp_mouse":[14,33,53,71,92,113,132,153,171,193,213,232,252,273,293,312,332,353,372,393,413,432,453,473,493,512,531,552,573,592,612,633,652,672,693,713,732,753,773,793,812,832,852,873,892,913,933,953,972,991,1012,1032,1053,1073,1092,1113,1132,1152,1171,1192,1213,1233,1252,1272,1291,1311,1332,1352,1372,1393,1411,1432,1453,1473,1493,1512,1533,1553,1571,1592,1613,1633,1653,1672,1693,1713,1733,1751,1772,1792,1812,1833,1853,1873,1892,1913,1932,1953,1973,1992,2011,2032,2051,2073,2093,2112,2131,2152,2172,2193,2212,2233,2252,2272,2291,2312,2332,2352,2372,2392,2412,2432,2452,2472,2493,2513,2532,2552,2571,2592,2613,2632,2651,2673,2693,2712,2733],"xSR":741.5,"ySR":501.8,"xT1":424.9,"yT1":0,"xT2":1058.1,"yT2":0,"toosoon":0,"cond_shown":"Incongruent","ratio_trial":200,"L_num":7,"L_den":15,"R_num":6,"R_den":9,"correct_side":2,"subjID":"Mathias Alejandro Moreno   Olarte  28","gender":"0","school":"4","age":"9"},{"start_time":1552073713786,"click_time":1552073715158,"finger_time":1552073714398,"fix_duration":907.5072248526558,"trial":32,"RT":612,"MT":760,"sideResp":2,"stimulus":[],"xmouse":[780,780,780,780,780,780,780,780,780,780,780,780,780,780,780,780,780,780,780,780,780,780,780,780,780,780,780,780,780,782,785,786,786,786,786,786,786,786,786,786,786,786,786,786,786,786,789,802,829,853,889,909,923,936,945,953,954,956,958,959,963,978,988,996,1007,1030,1041,1054,1075],"ymouse":[539,539,539,539,539,539,539,539,539,539,539,539,539,539,539,539,539,539,539,539,539,539,539,539,538,533,528,518,515,507,496,495,494,494,494,494,494,494,494,494,494,494,494,494,494,494,491,476,446,419,373,339,312,281,261,239,234,231,229,227,225,208,196,186,174,147,129,110,77],"timestamp_mouse":[13,43,51,73,93,113,132,153,172,191,212,232,253,272,293,311,331,352,373,391,412,432,451,472,492,512,532,552,573,592,612,632,653,673,692,713,733,752,773,793,812,832,852,872,893,913,933,953,972,992,1014,1032,1052,1073,1093,1112,1131,1153,1173,1192,1212,1232,1252,1273,1292,1313,1332,1353,1372],"xSR":741.5,"ySR":501.8,"xT1":424.9,"yT1":0,"xT2":1058.1,"yT2":0,"toosoon":0,"cond_shown":"Congruent","ratio_trial":300,"L_num":5,"L_den":25,"R_num":7,"R_den":14,"correct_side":2,"subjID":"Mathias Alejandro Moreno   Olarte  28","gender":"0","school":"4","age":"9"},{"start_time":1552073717116,"click_time":1552073718638,"finger_time":1552073718279,"fix_duration":796.2819222051542,"trial":33,"RT":1163,"MT":359,"sideResp":1,"stimulus":[],"xmouse":[776,776,776,776,776,776,776,776,776,776,776,776,776,776,776,776,776,776,776,776,776,776,776,776,776,776,776,776,776,776,776,776,776,776,775,774,774,773,773,771,771,771,771,771,771,771,771,771,771,771,771,771,771,771,769,767,764,759,750,729,721,713,707,699,689,678,658,632,599,554,544,537,536,536,535,529,513],"ymouse":[570,570,570,570,570,570,570,570,570,570,570,570,570,570,570,570,570,570,570,570,570,570,570,570,570,567,566,566,566,566,566,566,566,566,564,558,555,550,547,542,541,541,541,541,541,541,541,541,541,541,541,541,541,534,528,522,515,502,486,451,437,425,412,397,360,330,282,232,178,99,81,69,67,67,66,65,61],"timestamp_mouse":[10,23,50,63,83,102,123,141,163,182,203,223,241,262,281,303,323,342,363,383,403,423,441,462,483,503,522,542,563,583,603,623,641,662,682,703,723,743,762,781,803,823,843,863,882,903,922,942,963,983,1002,1023,1042,1062,1082,1102,1121,1142,1163,1182,1201,1222,1242,1262,1282,1302,1323,1341,1363,1381,1403,1423,1441,1462,1482,1502,1522],"xSR":741.5,"ySR":501.8,"xT1":424.9,"yT1":0,"xT2":1058.1,"yT2":0,"toosoon":0,"cond_shown":"Congruent","ratio_trial":200,"L_num":4,"L_den":10,"R_num":3,"R_den":15,"correct_side":1,"subjID":"Mathias Alejandro Moreno   Olarte  28","gender":"0","school":"4","age":"9"},{"start_time":1552073720204,"click_time":1552073721559,"finger_time":1552073721138,"fix_duration":283.24380701981545,"trial":34,"RT":934,"MT":421,"sideResp":1,"stimulus":[],"xmouse":[758,758,758,758,758,758,758,758,758,758,758,758,758,758,753,749,748,748,748,748,748,748,748,748,748,748,748,748,748,748,748,748,748,748,748,748,748,748,748,748,748,748,748,748,748,743,736,728,717,695,683,672,658,648,630,620,596,581,573,570,567,564,556,545,531,502,492,481],"ymouse":[524,524,524,524,524,524,524,524,524,524,524,524,524,524,523,521,520,520,520,520,520,520,520,520,520,520,520,520,520,520,520,520,520,520,520,520,520,520,520,520,520,520,520,520,520,513,506,496,484,457,439,420,388,355,272,248,214,197,188,181,172,166,158,148,137,117,108,99],"timestamp_mouse":[13,38,55,74,95,113,134,153,175,195,214,233,255,275,294,314,333,355,374,393,414,435,454,474,495,514,534,553,575,594,614,634,653,673,693,715,735,754,773,794,814,835,855,874,895,913,934,954,974,995,1014,1034,1054,1073,1093,1115,1135,1154,1174,1194,1214,1234,1255,1275,1294,1315,1335,1355],"xSR":741.5,"ySR":501.8,"xT1":424.9,"yT1":0,"xT2":1058.1,"yT2":0,"toosoon":0,"cond_shown":"Congruent","ratio_trial":300,"L_num":4,"L_den":10,"R_num":1,"R_den":10,"correct_side":1,"subjID":"Mathias Alejandro Moreno   Olarte  28","gender":"0","school":"4","age":"9"},{"start_time":1552073727742,"click_time":1552073729099,"finger_time":1552073728039,"fix_duration":1120.974332322958,"trial":35,"RT":297,"MT":1060,"sideResp":2,"stimulus":[],"xmouse":[793,793,793,793,793,793,794,798,800,800,800,800,805,809,809,809,809,809,809,809,809,809,809,809,809,809,809,809,809,809,809,809,809,809,809,808,808,811,812,813,813,811,805,805,805,805,805,805,805,806,827,854,939,990,1037,1065,1078,1086,1086,1087,1089,1090,1090,1090,1088,1083,1081,1084],"ymouse":[530,530,530,530,530,530,540,557,561,561,561,561,542,513,492,483,481,481,481,481,481,481,481,481,481,481,481,481,481,481,481,481,481,481,491,497,506,534,541,546,558,569,583,584,585,585,585,585,582,575,543,516,433,372,309,270,245,215,205,200,194,189,182,172,157,138,114,57],"timestamp_mouse":[16,42,57,76,96,116,137,156,178,196,217,237,257,276,297,316,336,357,377,396,416,436,457,477,496,516,538,557,577,596,616,637,657,676,696,716,736,756,777,797,816,837,856,877,897,916,936,956,976,997,1016,1036,1057,1077,1097,1117,1136,1157,1176,1196,1216,1237,1256,1276,1297,1317,1336,1357],"xSR":741.5,"ySR":501.8,"xT1":424.9,"yT1":0,"xT2":1058.1,"yT2":0,"toosoon":0,"cond_shown":"Incongruent","ratio_trial":300,"L_num":13,"L_den":26,"R_num":12,"R_den":15,"correct_side":2,"subjID":"Mathias Alejandro Moreno   Olarte  28","gender":"0","school":"4","age":"9"},{"start_time":1552073732480,"click_time":1552073734201,"finger_time":1552073732978,"fix_duration":1101.0560245047398,"trial":36,"RT":498,"MT":1223,"sideResp":1,"stimulus":[],"xmouse":[777,777,777,777,777,777,777,777,777,777,777,777,777,777,777,777,777,777,777,777,777,777,779,788,804,818,885,908,911,912,912,912,913,913,913,914,914,914,913,909,883,864,840,806,790,767,758,748,731,687,495,397,317,268,242,236,235,233,232,230,230,232,244,280,332,400,506,535,550,558,564,564,564,564,564,564,564,564,564,564,564,564,564,564,564,503],"ymouse":[526,526,526,526,526,526,526,526,526,526,526,526,526,526,526,526,526,526,526,526,526,526,526,510,487,465,398,390,388,387,380,375,373,371,370,369,369,369,368,368,369,372,376,377,378,378,378,378,378,378,352,339,322,307,291,270,262,255,247,242,238,235,228,217,203,182,137,112,92,70,22,11,11,11,11,11,11,11,11,11,11,11,11,11,11,6],"timestamp_mouse":[18,39,58,78,99,118,139,158,179,199,219,238,259,278,299,318,339,359,379,398,419,439,458,479,498,518,538,558,579,599,620,638,658,679,698,719,738,759,778,799,818,839,859,878,898,918,938,958,979,998,1019,1038,1058,1078,1098,1119,1139,1158,1179,1198,1219,1238,1259,1278,1298,1318,1338,1358,1379,1399,1418,1438,1459,1479,1499,1519,1538,1558,1578,1599,1619,1638,1659,1679,1699,1721],"xSR":741.5,"ySR":501.8,"xT1":424.9,"yT1":0,"xT2":1058.1,"yT2":0,"toosoon":0,"cond_shown":"Congruent","ratio_trial":100,"L_num":3,"L_den":20,"R_num":4,"R_den":16,"correct_side":2,"subjID":"Mathias Alejandro Moreno   Olarte  28","gender":"0","school":"4","age":"9"},{"start_time":1552073737408,"click_time":1552073739238,"finger_time":1552073738819,"fix_duration":268.9103894259336,"trial":37,"RT":1411,"MT":419,"sideResp":1,"stimulus":[],"xmouse":[839,839,839,839,839,839,839,839,839,839,839,839,839,839,839,839,839,839,839,839,839,839,839,839,839,839,839,839,839,839,839,839,839,839,839,839,839,839,839,839,839,839,839,839,839,839,839,839,839,839,839,839,839,839,839,839,839,839,839,839,839,839,839,839,839,839,839,839,839,839,811,762,692,592,380,342,326,315,315,315,315,315,315,315,315,315,315,315,407,417,420,426],"ymouse":[545,545,545,545,545,545,545,545,545,545,545,545,545,545,545,545,545,545,545,545,545,545,545,545,545,545,545,545,545,545,545,545,545,545,545,545,545,545,545,545,545,545,545,545,545,545,545,545,545,545,545,545,545,545,545,545,545,545,545,545,545,545,545,545,545,545,545,545,545,540,475,399,326,234,82,45,19,0,0,0,0,0,0,0,0,0,0,0,0,10,20,32],"timestamp_mouse":[13,42,50,70,91,111,130,150,171,190,210,230,250,271,290,310,331,351,371,391,411,430,450,470,490,511,532,551,570,590,611,631,650,671,691,710,732,751,770,791,812,830,851,870,890,910,931,950,971,990,1010,1031,1051,1070,1090,1111,1131,1150,1170,1191,1210,1230,1251,1272,1291,1311,1330,1350,1371,1390,1411,1431,1450,1471,1491,1510,1530,1551,1571,1590,1610,1630,1651,1670,1690,1710,1730,1751,1771,1792,1811,1830],"xSR":741.5,"ySR":501.8,"xT1":424.9,"yT1":0,"xT2":1058.1,"yT2":0,"toosoon":0,"cond_shown":"Incongruent","ratio_trial":300,"L_num":2,"L_den":4,"R_num":6,"R_den":30,"correct_side":1,"subjID":"Mathias Alejandro Moreno   Olarte  28","gender":"0","school":"4","age":"9"},{"start_time":1552073741418,"click_time":1552073742778,"finger_time":1552073742258,"fix_duration":695.7355422496261,"trial":38,"RT":840,"MT":520,"sideResp":2,"stimulus":[],"xmouse":[788,788,788,788,788,788,788,788,788,788,788,788,788,788,788,788,788,788,788,788,788,788,788,788,788,788,788,788,788,788,788,788,788,788,788,788,788,788,788,788,788,788,787,789,890,997,1106,1215,1237,1240,1240,1242,1243,1243,1237,1222,1216,1199,1194,1191,1186,1183,1179,1172,1167,1166,1166,1164,1156],"ymouse":[510,510,510,510,510,510,510,510,510,510,510,510,510,510,510,510,510,510,510,510,510,510,510,510,510,510,510,510,510,510,510,510,510,510,510,510,510,510,510,510,510,510,500,488,356,293,233,185,176,175,175,172,164,151,124,104,99,92,92,91,91,91,91,92,94,94,94,94,94],"timestamp_mouse":[1,35,41,60,80,100,121,140,160,181,200,221,242,260,280,301,320,340,361,381,402,421,440,460,480,501,520,541,561,580,601,621,641,660,681,701,721,740,761,780,800,821,840,861,880,901,920,942,961,980,1001,1020,1041,1060,1080,1100,1121,1141,1161,1180,1201,1220,1240,1260,1280,1301,1321,1340,1360],"xSR":741.5,"ySR":501.8,"xT1":424.9,"yT1":0,"xT2":1058.1,"yT2":0,"toosoon":0,"cond_shown":"Incongruent","ratio_trial":300,"L_num":4,"L_den":20,"R_num":2,"R_den":4,"correct_side":2,"subjID":"Mathias Alejandro Moreno   Olarte  28","gender":"0","school":"4","age":"9"},{"start_time":1552073745205,"click_time":1552073746499,"finger_time":1552073745539,"fix_duration":585.7494273316953,"trial":39,"RT":334,"MT":960,"sideResp":1,"stimulus":[],"xmouse":[800,800,800,800,800,800,800,800,800,800,800,800,800,800,799,799,798,798,798,798,798,798,798,798,798,798,798,792,785,775,746,725,695,655,590,575,566,558,546,523,507,493,485,479,479,478,478,474,471,466,466,466,466,466,462,457,451,448,447,447,457,465,472,474,474],"ymouse":[583,583,583,583,583,583,583,583,583,583,583,583,583,583,583,590,605,633,651,663,674,674,674,674,674,670,660,647,636,624,595,577,553,517,448,428,416,405,385,345,317,287,266,250,239,222,208,185,175,166,166,166,166,166,161,156,151,144,138,124,115,108,103,101,93],"timestamp_mouse":[13,44,53,73,93,113,134,153,173,194,214,233,254,274,294,314,334,354,373,394,413,434,453,474,494,513,533,554,573,594,614,634,653,673,694,715,734,753,773,794,813,833,854,874,894,913,934,955,974,994,1014,1034,1053,1073,1094,1113,1133,1153,1174,1194,1213,1233,1254,1274,1294],"xSR":741.5,"ySR":501.8,"xT1":424.9,"yT1":0,"xT2":1058.1,"yT2":0,"toosoon":0,"cond_shown":"Incongruent","ratio_trial":200,"L_num":3,"L_den":4,"R_num":11,"R_den":20,"correct_side":1,"subjID":"Mathias Alejandro Moreno   Olarte  28","gender":"0","school":"4","age":"9"},{"start_time":1552073757662,"click_time":1552073759199,"finger_time":1552073758778,"fix_duration":1162.9010329612377,"trial":40,"RT":1116,"MT":421,"sideResp":1,"stimulus":[],"xmouse":[763,763,763,763,763,763,763,763,763,763,763,763,763,763,763,763,763,763,763,763,763,763,763,763,763,763,763,763,763,763,763,763,763,763,763,763,763,763,763,763,763,763,763,763,763,763,763,763,763,763,763,754,751,748,745,737,713,698,678,654,635,608,595,582,562,536,525,524,524,524,526,532,533,533,528,523,519],"ymouse":[571,571,571,571,571,571,571,571,571,571,571,571,571,571,571,571,571,571,571,571,571,571,571,571,571,571,571,571,571,571,571,571,571,571,571,571,571,571,571,571,571,571,571,571,571,571,571,571,571,571,569,539,530,522,517,507,485,471,454,428,408,369,347,316,270,212,175,168,163,160,154,135,124,113,106,100,97],"timestamp_mouse":[17,37,56,76,96,117,136,156,176,196,216,238,256,277,296,316,336,356,378,397,416,436,457,476,496,517,536,557,577,597,617,637,657,677,697,717,737,757,777,797,817,837,857,876,898,917,937,956,977,996,1017,1036,1056,1077,1097,1116,1137,1157,1176,1196,1217,1237,1256,1277,1297,1317,1337,1356,1376,1396,1416,1438,1458,1476,1497,1516,1536],"xSR":741.5,"ySR":501.8,"xT1":424.9,"yT1":0,"xT2":1058.1,"yT2":0,"toosoon":0,"cond_shown":"Incongruent","ratio_trial":200,"L_num":7,"L_den":10,"R_num":12,"R_den":24,"correct_side":1,"subjID":"Mathias Alejandro Moreno   Olarte  28","gender":"0","school":"4","age":"9"},{"start_time":1552073761064,"click_time":1552073762359,"finger_time":1552073761998,"fix_duration":825.7488230694966,"trial":41,"RT":934,"MT":361,"sideResp":1,"stimulus":[],"xmouse":[815,815,815,815,815,815,815,815,815,815,815,815,815,815,818,821,825,829,830,830,830,830,830,830,830,830,830,830,830,830,830,830,830,830,830,830,830,830,830,830,830,830,830,830,829,827,824,822,820,814,809,806,803,801,792,783,769,730,712,694,667,585,547,521,504],"ymouse":[567,567,567,567,567,567,567,567,567,567,567,567,567,567,562,557,548,544,542,542,542,542,542,542,542,542,542,542,542,542,542,542,542,542,542,542,542,542,542,542,542,542,527,520,514,508,501,496,490,477,462,445,430,415,390,376,358,306,283,258,228,158,129,111,99],"timestamp_mouse":[16,36,55,74,95,114,134,154,175,196,214,235,255,275,295,314,334,355,375,395,414,435,455,474,495,515,534,555,575,594,615,634,654,675,694,715,735,754,775,795,814,835,855,874,894,915,934,954,974,995,1014,1035,1054,1075,1094,1114,1134,1155,1174,1196,1214,1234,1254,1274,1295],"xSR":741.5,"ySR":501.8,"xT1":424.9,"yT1":0,"xT2":1058.1,"yT2":0,"toosoon":0,"cond_shown":"Congruent","ratio_trial":100,"L_num":4,"L_den":10,"R_num":15,"R_den":30,"correct_side":2,"subjID":"Mathias Alejandro Moreno   Olarte  28","gender":"0","school":"4","age":"9"},{"start_time":1552073768746,"click_time":1552073769959,"finger_time":1552073769598,"fix_duration":1466.011452928922,"trial":42,"RT":852,"MT":361,"sideResp":2,"stimulus":[],"xmouse":[802,802,802,802,802,802,802,802,802,802,802,802,802,802,802,802,802,802,802,802,802,802,802,802,802,802,802,802,802,802,802,802,802,802,802,802,802,802,802,802,802,802,807,813,819,826,829,839,847,865,875,878,884,885,885,885,885,923,954,998,1064],"ymouse":[512,512,512,512,512,512,512,512,512,512,512,512,512,512,512,512,512,512,512,512,512,512,512,512,512,512,512,513,513,513,513,513,513,513,513,513,513,513,513,513,513,513,493,472,449,424,398,307,255,165,119,94,73,71,71,71,71,71,70,63,50],"timestamp_mouse":[12,41,53,73,93,112,132,153,173,193,213,232,253,272,293,313,333,353,373,392,412,432,454,473,493,513,533,552,573,593,613,632,652,672,693,712,734,754,773,792,812,832,852,872,893,912,932,953,972,994,1014,1032,1052,1073,1092,1112,1132,1152,1172,1192,1212],"xSR":741.5,"ySR":501.8,"xT1":424.9,"yT1":0,"xT2":1058.1,"yT2":0,"toosoon":0,"cond_shown":"Incongruent","ratio_trial":200,"L_num":11,"L_den":20,"R_num":3,"R_den":4,"correct_side":2,"subjID":"Mathias Alejandro Moreno   Olarte  28","gender":"0","school":"4","age":"9"},{"start_time":1552073773627,"click_time":1552073774299,"finger_time":1552073774179,"fix_duration":1247.5770538995062,"trial":43,"RT":552,"MT":120,"sideResp":2,"stimulus":[],"xmouse":[796,796,796,796,796,796,796,796,796,796,796,796,796,796,796,796,796,796,796,796,796,796,796,796,795,796,809,837,945,991,1021,1038,1054,1078],"ymouse":[576,576,576,576,576,576,576,576,576,576,576,576,576,576,576,576,576,576,576,576,576,576,576,576,570,563,538,496,351,271,215,177,142,92],"timestamp_mouse":[15,39,51,71,91,111,131,152,171,191,211,232,251,271,291,311,332,351,372,391,411,432,451,472,491,512,532,552,572,591,611,632,651,672],"xSR":741.5,"ySR":501.8,"xT1":424.9,"yT1":0,"xT2":1058.1,"yT2":0,"toosoon":0,"cond_shown":"Incongruent","ratio_trial":200,"L_num":14,"L_den":30,"R_num":6,"R_den":9,"correct_side":2,"subjID":"Mathias Alejandro Moreno   Olarte  28","gender":"0","school":"4","age":"9"},{"start_time":1552073778091,"click_time":1552073779058,"finger_time":1552073778598,"fix_duration":250,"trial":44,"RT":507,"MT":460,"sideResp":2,"stimulus":[],"xmouse":[750,750,750,750,750,750,750,750,750,750,750,750,750,750,750,750,750,750,750,751,763,768,771,782,793,840,867,890,908,926,942,998,1039,1050,1050,1050,1050,1050,1050,1050,1050,1050,1050,1050,1050,1050,1050,1050,1065],"ymouse":[560,560,560,560,560,560,560,560,560,560,560,560,560,560,560,560,560,560,560,560,547,541,538,522,503,417,360,310,267,210,170,74,18,2,2,2,2,2,2,2,2,2,2,2,2,2,2,2,5],"timestamp_mouse":[12,38,47,67,87,108,128,147,167,187,207,227,249,267,289,308,327,347,368,387,407,427,449,467,487,507,528,549,567,588,608,628,648,668,687,707,727,747,768,788,808,828,848,868,888,907,927,948,967],"xSR":741.5,"ySR":501.8,"xT1":424.9,"yT1":0,"xT2":1058.1,"yT2":0,"toosoon":0,"cond_shown":"Incongruent","ratio_trial":100,"L_num":9,"L_den":18,"R_num":6,"R_den":10,"correct_side":2,"subjID":"Mathias Alejandro Moreno   Olarte  28","gender":"0","school":"4","age":"9"},{"start_time":1552073780837,"click_time":1552073782819,"finger_time":1552073781419,"fix_duration":957.9152315164589,"trial":45,"RT":582,"MT":1400,"sideResp":1,"stimulus":[],"xmouse":[782,782,782,782,782,782,782,782,782,782,782,782,782,782,782,782,782,782,782,782,782,782,782,783,783,783,785,789,815,844,880,914,936,950,958,960,960,960,965,966,966,971,975,981,983,986,987,989,991,991,991,991,991,991,991,991,991,991,991,982,940,894,864,844,832,819,808,808,805,805,805,805,805,780,739,674,592,554,479,423,355,296,217,42,6,5,9,31,77,188,212,212,212,212,212,212,212,212,407,444],"ymouse":[543,543,543,543,543,543,543,543,543,543,543,543,543,543,543,543,543,543,543,543,543,543,543,543,543,543,543,538,506,476,452,426,407,389,373,370,370,370,357,355,354,340,326,308,301,294,285,278,271,269,269,269,269,269,269,269,269,269,269,266,253,240,232,218,207,193,183,183,180,180,180,180,180,177,177,177,177,177,183,186,186,186,186,170,157,156,140,116,85,25,11,11,11,11,11,11,11,11,0,12],"timestamp_mouse":[9,22,45,61,81,102,121,142,161,181,202,221,242,261,282,301,322,341,361,381,402,421,442,461,481,501,521,542,561,582,601,622,642,661,681,701,721,741,762,782,802,821,841,862,881,902,923,942,962,981,1001,1021,1041,1061,1081,1101,1122,1142,1161,1181,1201,1221,1241,1262,1281,1301,1321,1341,1362,1381,1401,1422,1441,1461,1481,1501,1521,1541,1561,1581,1601,1622,1641,1662,1681,1701,1722,1742,1761,1781,1802,1821,1842,1862,1882,1902,1921,1942,1962,1981],"xSR":741.5,"ySR":501.8,"xT1":424.9,"yT1":0,"xT2":1058.1,"yT2":0,"toosoon":0,"cond_shown":"Incongruent","ratio_trial":200,"L_num":4,"L_den":30,"R_num":1,"R_den":3,"correct_side":2,"subjID":"Mathias Alejandro Moreno   Olarte  28","gender":"0","school":"4","age":"9"},{"start_time":1552073788084,"click_time":1552073790779,"finger_time":1552073788719,"fix_duration":384.80574160810386,"trial":46,"RT":635,"MT":2060,"sideResp":2,"stimulus":[],"xmouse":[804,804,804,804,804,804,804,804,804,804,804,804,804,804,804,804,804,804,804,804,804,804,804,804,804,804,804,804,804,807,835,859,880,882,882,882,882,882,882,882,882,882,882,882,882,882,882,882,882,882,882,882,882,874,849,825,802,801,801,801,801,801,801,801,801,801,801,801,801,801,801,801,801,801,801,801,801,801,801,801,801,801,801,801,801,801,801,801,801,801,801,801,801,801,801,801,801,801,801,801,801,801,801,801,801,801,801,801,801,801,801,801,801,801,801,801,808,866,947,1021,1072,1072,1074,1081,1089,1109,1117,1126,1132,1134,1134,1134,1134,1134,1132],"ymouse":[564,564,564,564,564,564,564,564,564,564,564,564,564,564,564,564,564,564,564,564,564,564,564,564,564,564,564,564,564,564,551,536,523,522,522,522,522,522,522,522,522,522,522,522,522,522,522,522,522,522,522,522,522,522,528,535,543,544,544,544,544,544,544,544,544,544,544,544,544,544,544,544,544,544,544,544,544,544,544,544,544,544,544,544,544,544,544,544,544,544,544,544,544,544,544,544,544,544,544,544,544,544,544,544,544,544,544,544,544,544,544,544,544,544,544,544,542,502,446,389,326,314,297,277,264,233,211,190,174,158,146,131,118,102,73],"timestamp_mouse":[15,36,55,75,94,115,135,154,174,195,216,235,254,274,296,315,334,355,375,395,415,435,455,476,496,514,534,555,574,595,616,635,654,675,694,715,734,756,774,794,814,835,854,875,894,915,935,955,976,995,1014,1035,1055,1075,1095,1114,1135,1154,1174,1195,1214,1235,1254,1274,1294,1316,1335,1355,1374,1394,1415,1435,1455,1474,1495,1515,1535,1554,1575,1596,1615,1634,1656,1675,1695,1714,1734,1755,1774,1794,1815,1834,1855,1875,1894,1915,1935,1954,1974,1994,2014,2035,2056,2075,2095,2115,2135,2155,2175,2196,2214,2235,2254,2274,2294,2316,2335,2354,2374,2394,2415,2434,2454,2474,2495,2515,2536,2554,2574,2595,2614,2634,2655,2674,2695],"xSR":741.5,"ySR":501.8,"xT1":424.9,"yT1":0,"xT2":1058.1,"yT2":0,"toosoon":0,"cond_shown":"Incongruent","ratio_trial":200,"L_num":6,"L_den":20,"R_num":3,"R_den":6,"correct_side":2,"subjID":"Mathias Alejandro Moreno   Olarte  28","gender":"0","school":"4","age":"9"},{"start_time":1552073793143,"click_time":1552073794899,"finger_time":1552073793259,"fix_duration":1082.0289924612882,"trial":47,"RT":116,"MT":1640,"sideResp":1,"stimulus":[],"xmouse":[789,789,789,793,826,857,868,868,868,868,868,868,868,864,848,829,815,802,801,799,797,794,793,793,793,793,793,793,793,793,793,793,793,793,793,793,792,792,792,792,792,792,792,788,770,752,733,719,711,709,694,669,569,532,502,487,482,480,483,487,497,507,519,522,524,524,524,515,496,460,422,378,348,347,347,347,346,349,357,370,384,386,386,386,391,401,409,426],"ymouse":[541,541,541,541,541,537,535,535,535,535,535,535,535,534,532,529,527,525,525,525,525,525,524,524,524,524,524,524,524,524,524,524,524,524,524,524,524,524,524,524,524,524,524,524,510,495,480,465,455,452,441,431,386,364,342,322,303,266,248,237,220,205,180,171,164,159,156,148,142,131,120,107,97,97,97,97,96,88,76,64,54,52,51,51,51,51,50,48],"timestamp_mouse":[16,40,55,76,96,116,137,155,176,195,216,235,256,275,296,316,337,356,375,396,415,435,455,476,495,516,536,557,576,596,615,635,655,675,696,716,736,755,776,796,817,835,856,875,897,916,935,956,975,995,1015,1036,1055,1075,1096,1116,1135,1156,1175,1196,1216,1237,1255,1275,1295,1315,1335,1357,1376,1396,1415,1436,1455,1475,1496,1515,1535,1555,1575,1595,1616,1635,1656,1675,1696,1715,1735,1755],"xSR":741.5,"ySR":501.8,"xT1":424.9,"yT1":0,"xT2":1058.1,"yT2":0,"toosoon":0,"cond_shown":"Incongruent","ratio_trial":200,"L_num":7,"L_den":10,"R_num":12,"R_den":24,"correct_side":1,"subjID":"Mathias Alejandro Moreno   Olarte  28","gender":"0","school":"4","age":"9"},{"start_time":1552073805284,"click_time":1552073807099,"finger_time":1552073805399,"fix_duration":563.986964944398,"trial":48,"RT":115,"MT":1700,"sideResp":2,"stimulus":[],"xmouse":[837,837,837,837,840,844,844,844,844,844,844,844,844,844,844,844,844,844,844,844,844,844,844,844,844,844,844,844,844,844,844,844,844,844,841,833,832,831,831,831,831,831,831,831,831,831,831,831,830,830,828,827,825,825,825,825,825,825,825,825,827,830,834,838,841,849,854,859,868,881,907,922,932,942,949,979,998,1014,1023,1029,1033,1035,1039,1050,1057,1062,1065,1068,1073,1083,1107],"ymouse":[551,551,551,551,551,551,551,551,551,551,551,551,551,551,551,551,551,551,551,551,551,551,551,551,551,551,551,551,551,551,551,551,551,551,551,549,549,549,549,549,549,549,549,549,549,549,549,549,548,548,546,545,544,544,544,544,544,543,543,543,540,537,532,528,525,512,505,497,484,467,418,371,331,294,276,243,227,211,197,189,183,182,179,173,167,162,157,153,143,125,71],"timestamp_mouse":[15,34,54,74,94,115,135,155,174,194,215,235,255,275,295,314,334,355,375,394,414,435,454,474,494,515,534,555,574,594,614,634,656,674,695,715,735,755,775,795,814,835,855,874,895,915,935,955,975,994,1015,1035,1055,1075,1095,1115,1134,1154,1175,1194,1214,1234,1255,1275,1295,1314,1335,1354,1374,1395,1415,1435,1454,1474,1494,1514,1535,1555,1574,1595,1614,1634,1655,1675,1694,1714,1734,1755,1774,1794,1814],"xSR":741.5,"ySR":501.8,"xT1":424.9,"yT1":0,"xT2":1058.1,"yT2":0,"toosoon":0,"cond_shown":"Congruent","ratio_trial":300,"L_num":2,"L_den":20,"R_num":10,"R_den":25,"correct_side":2,"subjID":"Mathias Alejandro Moreno   Olarte  28","gender":"0","school":"4","age":"9"},{"start_time":1552073811789,"click_time":1552073813999,"finger_time":1552073813759,"fix_duration":628.9936731067774,"trial":49,"RT":1970,"MT":240,"sideResp":2,"stimulus":[],"xmouse":[793,793,793,793,793,793,793,793,793,793,793,793,793,793,793,793,793,793,793,793,793,793,793,793,793,793,793,793,793,793,793,793,793,793,793,793,793,793,793,793,793,793,793,793,793,793,793,793,793,793,793,793,793,793,793,793,793,793,793,793,793,793,793,793,793,793,793,793,793,793,793,793,793,793,793,793,793,793,793,793,793,793,793,793,793,793,793,793,793,793,793,793,793,793,793,793,796,800,80