[{"start_time":1552069077895,"click_time":1552069093600,"finger_time":1552069077898,"fix_duration":1194.5413130021184,"trial":0,"RT":3,"MT":15702,"sideResp":1,"stimulus":[],"xmouse":[798,798,798,798,798,798,798,798,798,798,798,798,798,798,798,798,798,798,798,798,798,798,798,798,798,798,798,798,798,798,798,798,798,797,793,790,786,783,779,773,769,768,767,766,766,766,766,766,766,766,766,766,766,767,768,768,769,770,772,776,778,781,783,783,783,783,783,783,783,783,783,783,783,783,783,783,783,783,783,783,783,783,783,783,783,783,783,783,783,783,783,783,783,783,783,783,783,783,783,783,783,783,783,783,783,783,783,783,783,783,783,783,783,783,783,783,783,783,783,783,783,783,783,783,783,783,783,783,783,783,786,789,790,791,791,792,794,795,797,799,801,801,801,801,801,801,801,801,801,801,801,801,801,801,801,801,801,801,801,801,801,801,801,801,801,801,801,801,801,801,801,801,801,801,801,801,801,801,801,801,801,801,801,801,801,801,800,800,800,800,800,800,800,800,797,791,786,785,785,785,785,785,785,785,787,787,787,787,787,787,787,787,788,788,789,790,790,790,790,790,790,790,790,790,790,790,790,790,790,790,790,790,790,790,790,790,790,790,790,790,790,790,790,790,790,790,790,790,790,790,790,790,790,790,790,790,790,790,790,790,790,790,790,790,790,791,793,794,797,797,803,805,807,807,807,807,807,807,807,807,807,807,807,807,807,807,807,807,806,799,784,775,767,761,756,751,751,751,751,751,751,751,751,751,753,756,757,759,760,761,765,768,772,775,779,788,793,794,796,799,799,799,799,800,800,800,800,800,800,800,800,798,795,792,790,790,790,790,790,790,790,790,790,790,790,790,790,790,790,790,790,790,790,790,790,790,790,790,790,790,790,790,790,790,790,790,790,790,790,790,790,790,790,790,790,790,790,790,790,790,790,790,790,790,790,790,790,790,790,790,790,790,790,790,790,790,790,790,790,790,790,790,790,790,790,790,790,790,790,790,790,790,790,790,790,790,790,790,790,790,790,790,790,790,790,790,790,790,790,790,790,790,790,790,790,790,790,790,790,790,790,790,790,790,790,790,790,790,790,790,790,790,790,790,790,790,790,790,790,790,790,790,790,790,790,790,790,790,790,790,790,790,790,790,790,790,790,790,790,790,790,790,790,790,790,790,790,790,790,790,790,790,790,790,791,791,791,791,791,791,791,791,791,791,791,791,791,791,791,791,791,791,791,791,791,791,791,791,791,791,791,791,791,791,791,791,791,791,791,791,791,791,791,791,791,791,791,791,791,791,791,791,791,791,791,791,791,791,791,791,791,791,791,791,791,791,791,791,791,791,791,791,791,791,791,791,791,791,791,791,791,791,791,791,791,791,791,791,791,791,791,791,791,791,791,791,791,791,790,789,788,788,788,788,788,788,788,787,787,787,787,787,787,787,787,786,786,786,786,785,785,784,784,784,784,784,784,784,784,784,784,784,784,784,784,784,784,784,784,784,784,784,784,784,784,784,784,784,784,784,784,784,784,784,784,785,785,785,785,785,781,770,766,765,765,765,765,765,765,769,772,788,795,799,799,800,801,802,798,794,784,784,784,784,785,792,800,803,805,806,806,806,806,806,804,789,780,776,776,776,776,776,777,782,785,787,789,789,789,789,789,786,784,781,781,780,780,780,780,780,787,802,816,825,828,828,828,828,822,811,800,784,784,784,784,784,784,784,784,784,787,789,789,789,789,789,787,785,783,783,783,783,783,783,783,785,789,790,791,791,791,791,791,787,776,763,739,738,737,737,737,737,736,735,731,721,685,666,656,652,649,642,638,635,634,631,622,615,603,595,585,559,546,532,528,523],"ymouse":[534,534,534,534,534,534,534,534,534,534,534,534,534,534,534,534,534,534,534,534,534,534,534,534,534,534,534,534,534,534,534,534,534,533,538,544,550,556,561,572,581,586,591,595,599,602,604,605,607,609,611,612,614,616,618,620,621,621,624,629,631,634,636,636,637,637,637,637,637,637,637,637,637,637,637,637,637,637,637,637,637,637,637,637,637,637,637,637,637,637,637,637,637,637,637,637,637,637,637,637,637,637,637,637,637,637,637,637,637,637,637,637,637,637,637,637,637,637,637,637,637,637,637,637,637,637,637,637,637,637,637,637,637,637,637,637,637,637,637,637,637,637,637,637,637,637,637,637,637,637,637,636,635,634,634,634,634,634,634,634,634,634,634,634,634,634,634,634,633,633,632,632,632,631,631,631,630,630,629,629,629,629,629,629,629,629,629,629,629,629,629,629,629,629,628,627,627,627,627,627,627,626,626,625,623,623,623,623,623,623,623,623,622,621,619,619,619,619,619,619,619,619,619,619,619,619,619,619,619,619,619,619,619,619,619,619,619,619,619,619,619,619,619,619,619,619,619,619,619,619,619,619,619,619,619,619,619,619,619,619,619,619,619,619,618,614,602,586,566,533,493,480,467,459,451,440,438,433,425,422,420,420,420,420,420,420,420,419,419,423,450,468,489,512,533,572,589,602,614,618,619,619,619,619,620,620,620,620,620,620,620,620,620,620,622,625,625,625,626,627,627,627,627,627,627,627,627,627,627,627,627,628,629,629,630,630,630,630,630,630,630,630,630,630,630,630,630,630,630,630,630,630,629,628,627,624,624,624,624,624,624,624,624,624,624,624,624,624,624,624,624,624,624,624,624,624,624,624,624,624,624,624,624,624,624,624,624,624,624,624,624,624,624,624,624,624,624,624,624,624,624,624,624,624,624,624,624,624,624,624,624,624,624,624,624,624,624,624,624,624,624,624,624,624,624,624,624,624,624,624,624,624,624,624,624,624,624,624,624,624,624,624,624,624,624,624,624,624,624,624,624,624,624,624,624,624,624,624,624,624,624,624,624,624,624,624,624,624,624,624,624,624,624,624,624,624,624,624,624,624,624,624,624,624,624,624,624,624,624,624,624,624,624,624,623,623,623,623,623,623,623,623,623,623,623,623,623,623,623,623,623,623,623,623,623,623,623,623,623,623,623,623,623,623,623,623,623,623,623,623,623,623,623,623,623,623,623,623,623,623,623,623,623,623,623,623,623,623,623,623,623,623,623,623,623,623,623,623,623,623,623,623,623,623,623,623,623,623,623,623,623,623,623,623,623,623,623,623,623,623,623,623,623,623,623,623,622,622,622,622,622,622,622,622,622,622,622,621,621,621,621,621,620,620,620,620,619,619,619,619,619,618,618,618,618,618,618,618,618,618,618,618,618,618,618,618,618,618,618,618,618,618,618,618,618,618,618,618,618,616,615,613,611,610,609,607,607,607,607,607,607,610,611,612,612,612,612,612,612,612,612,610,609,609,609,609,615,622,628,630,633,633,633,633,632,625,618,614,611,611,611,611,611,611,611,612,612,612,612,612,612,612,609,608,607,606,606,606,606,606,606,608,610,613,614,614,614,614,614,614,612,608,604,604,603,603,603,603,604,606,609,615,615,615,615,615,615,615,615,615,614,613,613,613,613,613,616,619,622,622,622,622,622,621,620,616,600,592,577,555,529,443,401,360,325,297,265,264,263,263,263,263,262,261,257,246,227,219,214,211,209,205,204,202,200,197,190,185,177,169,158,124,102,76,69,55],"timestamp_mouse":[3,24,43,63,83,103,125,143,163,185,204,224,245,263,283,303,323,345,365,385,404,424,444,465,484,504,524,545,565,584,604,623,645,664,684,703,724,744,764,783,804,824,843,865,883,905,925,944,964,984,1004,1024,1044,1064,1084,1104,1124,1145,1163,1184,1203,1223,1244,1264,1284,1303,1323,1345,1363,1384,1404,1425,1443,1464,1483,1504,1525,1543,1564,1583,1604,1624,1645,1665,1683,1703,1725,1745,1765,1783,1803,1824,1844,1864,1883,1904,1923,1945,1964,1984,2005,2023,2044,2065,2085,2103,2123,2145,2163,2183,2204,2224,2245,2265,2285,2304,2324,2345,2364,2383,2403,2424,2445,2465,2484,2503,2523,2544,2565,2583,2604,2624,2645,2663,2683,2704,2725,2744,2764,2783,2804,2825,2845,2864,2884,2903,2925,2944,2963,2984,3004,3025,3044,3065,3085,3105,3123,3144,3165,3184,3204,3223,3244,3265,3285,3305,3325,3343,3365,3383,3404,3424,3445,3464,3485,3505,3525,3545,3564,3584,3603,3623,3644,3664,3684,3704,3724,3744,3765,3783,3804,3823,3844,3864,3883,3904,3925,3945,3963,3984,4004,4024,4044,4065,4084,4104,4125,4144,4163,4184,4204,4223,4245,4264,4284,4304,4323,4343,4364,4383,4403,4423,4444,4464,4485,4504,4523,4543,4565,4583,4603,4623,4643,4664,4683,4703,4724,4744,4765,4783,4803,4825,4844,4863,4883,4903,4925,4945,4963,4984,5003,5025,5045,5063,5084,5104,5124,5143,5164,5184,5204,5224,5243,5263,5285,5304,5324,5343,5364,5383,5404,5423,5444,5464,5484,5504,5524,5544,5564,5585,5603,5623,5644,5664,5685,5703,5724,5744,5765,5784,5804,5824,5845,5865,5884,5904,5924,5943,5963,5984,6005,6024,6044,6064,6084,6104,6123,6143,6164,6184,6203,6224,6243,6263,6283,6304,6325,6343,6364,6384,6403,6423,6443,6465,6485,6503,6523,6544,6564,6584,6604,6623,6643,6665,6684,6705,6725,6743,6765,6785,6805,6823,6844,6865,6883,6905,6924,6945,6963,6985,7004,7024,7044,7063,7083,7103,7124,7145,7163,7185,7205,7224,7243,7264,7284,7305,7323,7344,7365,7384,7404,7425,7443,7463,7484,7505,7525,7543,7564,7585,7604,7625,7644,7665,7685,7704,7724,7744,7765,7785,7804,7825,7845,7864,7883,7904,7925,7943,7963,7983,8005,8025,8044,8064,8084,8105,8125,8143,8165,8184,8204,8224,8243,8264,8285,8303,8323,8345,8363,8384,8405,8425,8444,8464,8483,8505,8524,8543,8563,8584,8604,8625,8643,8665,8685,8705,8725,8743,8765,8785,8803,8823,8844,8864,8885,8905,8924,8945,8965,8983,9004,9025,9043,9064,9083,9104,9124,9143,9164,9185,9204,9223,9244,9264,9284,9304,9323,9345,9364,9384,9403,9424,9445,9464,9483,9504,9525,9544,9564,9583,9603,9625,9643,9665,9685,9704,9724,9745,9764,9784,9803,9824,9845,9864,9884,9904,9924,9945,9965,9984,10004,10024,10045,10065,10084,10103,10123,10143,10164,10184,10203,10223,10244,10265,10283,10305,10325,10345,10364,10384,10403,10424,10444,10465,10483,10505,10525,10545,10564,10584,10605,10625,10643,10664,10684,10703,10723,10743,10765,10784,10804,10824,10844,10864,10883,10903,10925,10943,10963,10984,11003,11025,11044,11065,11084,11104,11124,11144,11163,11183,11204,11223,11245,11265,11284,11304,11325,11345,11364,11384,11405,11425,11444,11463,11485,11505,11525,11545,11564,11584,11603,11625,11644,11665,11683,11703,11725,11744,11763,11783,11804,11825,11843,11864,11884,11905,11925,11944,11963,11984,12005,12023,12044,12065,12083,12103,12123,12143,12164,12184,12203,12224,12245,12265,12283,12303,12324,12345,12364,12385,12404,12423,12444,12465,12484,12503,12523,12543,12564,12583,12605,12625,12645,12664,12685,12704,12725,12745,12764,12785,12803,12824,12844,12864,12884,12904,12924,12943,12964,12983,13004,13024,13044,13065,13084,13104,13123,13145,13165,13184,13203,13224,13244,13264,13284,13304,13324,13344,13364,13385,13404,13424,13443,13463,13484,13504,13525,13544,13564,13583,13603,13624,13643,13664,13684,13704,13724,13744,13764,13784,13804,13824,13844,13864,13885,13903,13924,13945,13964,13983,14005,14023,14045,14064,14085,14105,14123,14144,14164,14184,14203,14223,14244,14264,14285,14304,14323,14344,14365,14383,14405,14425,14445,14464,14484,14505,14523,14544,14564,14583,14605,14625,14643,14663,14684,14704,14723,14744,14763,14785,14804,14825,14843,14864,14885,14904,14923,14943,14964,14985,15003,15024,15044,15064,15085,15103,15123,15144,15164,15184,15205,15223,15245,15265,15285,15305,15324,15343,15364,15383,15404,15424,15444,15464,15484,15505,15523,15544,15564,15584,15603,15623,15644,15665,15684,15705],"xSR":732.5,"ySR":490.1,"xT1":419.5,"yT1":0,"xT2":1045.5,"yT2":0,"toosoon":0,"cond_shown":"Congruent","ratio_trial":200,"L_num":20,"L_den":25,"R_num":9,"R_den":15,"correct_side":1,"subjID":"MaatiasCruz20","gender":"0","age":"10","school":"4","test":{"fix_dur":[250,1500],"timestim":1000,"targets_dim":[100,100],"targets_relative_coord":[0.3,0.7],"size_stim":[880,420],"start_dim":[100,100],"size_start":[300,300],"size_fix":60,"samplingrate":20,"img_types":["Congruent","Incongruent"],"ratios":[100,200,300],"rep_conds":19,"nTrials":120,"trials_to_rest":500,"Trials_order":[98,80,29,57,55,20,2,82,58,59,61,72,8,65,38,40,116,41,113,44,105,87,1,96,50,16,111,12,84,66,64,49,102,19,107,86,36,68,114,99,76,10,63,9,34,83,15,23,31,101,30,39,5,35,118,88,48,51,22,6,109,71,77,104,79,97,60,3,93,11,119,78,21,42,94,89,46,52,115,17,26,24,18,7,27,69,47,4,25,110,32,103,95,0,43,112,62,13,33,56,100,67,73,92,106,90,85,81,37,117,91,54,53,28,75,70,74,45,108,14],"cond_shown":["Congruent","Congruent","Incongruent","Incongruent","Incongruent","Congruent","Congruent","Congruent","Congruent","Incongruent","Incongruent","Congruent","Congruent","Incongruent","Congruent","Congruent","Congruent","Incongruent","Incongruent","Congruent","Incongruent","Incongruent","Incongruent","Congruent","Congruent","Congruent","Incongruent","Congruent","Congruent","Congruent","Congruent","Incongruent","Congruent","Incongruent","Incongruent","Congruent","Congruent","Congruent","Congruent","Incongruent","Congruent","Congruent","Incongruent","Incongruent","Congruent","Incongruent","Incongruent","Incongruent","Incongruent","Incongruent","Congruent","Incongruent","Incongruent","Incongruent","Congruent","Congruent","Congruent","Incongruent","Congruent","Congruent","Incongruent","Incongruent","Incongruent","Congruent","Incongruent","Incongruent","Congruent","Incongruent","Incongruent","Incongruent","Incongruent","Congruent","Incongruent","Congruent","Congruent","Incongruent","Congruent","Congruent","Incongruent","Incongruent","Congruent","Congruent","Congruent","Incongruent","Incongruent","Incongruent","Incongruent","Congruent","Incongruent","Congruent","Congruent","Incongruent","Incongruent","Congruent","Incongruent","Congruent","Congruent","Incongruent","Incongruent","Congruent","Congruent","Incongruent","Incongruent","Congruent","Congruent","Congruent","Incongruent","Incongruent","Incongruent","Incongruent","Incongruent","Congruent","Incongruent","Congruent","Incongruent","Congruent","Congruent","Incongruent","Congruent","Congruent"],"ratio_trial":[200,200,300,200,100,200,200,300,300,300,100,100,200,300,200,300,200,300,300,200,200,200,100,100,200,300,200,100,100,100,300,100,100,100,300,200,100,200,100,200,300,300,200,200,300,300,200,300,100,300,100,200,300,300,300,300,100,200,300,100,100,300,300,200,100,100,100,200,200,300,300,100,200,100,300,300,300,300,100,300,200,100,100,100,200,200,300,300,100,200,200,100,300,100,100,300,200,100,200,200,300,100,100,200,300,100,100,200,100,200,100,100,300,300,200,300,200,200,100,200],"left_num":[20,3,8,1,12,9,3,24,12,3,6,8,3,1,5,8,3,8,4,3,7,7,9,6,6,1,1,3,11,9,5,6,15,8,4,1,7,11,8,4,24,3,1,7,3,4,4,7,6,4,1,4,13,1,2,20,3,7,11,4,8,2,13,6,13,9,8,4,7,4,1,9,9,15,4,4,18,1,4,1,8,15,8,17,7,3,8,4,3,7,16,8,4,3,8,12,6,9,1,4,2,6,8,3,2,12,3,1,1,3,3,7,4,20,7,20,9,11,8,21],"right_num":[9,14,9,3,9,13,14,8,2,4,13,2,11,3,14,10,11,9,6,7,14,4,6,15,3,19,2,2,4,8,6,13,13,1,2,21,15,3,2,14,8,11,2,14,11,2,14,8,7,2,18,6,12,2,10,13,4,8,1,6,1,6,12,3,12,13,2,1,12,2,3,8,8,13,1,2,9,6,8,2,2,13,2,10,8,1,14,1,4,2,9,1,2,2,6,2,11,6,2,3,10,7,1,11,10,13,4,3,8,11,7,9,2,14,6,9,4,3,2,2],"left_den":[25,10,10,2,24,30,10,30,24,6,10,16,10,2,10,15,10,10,5,10,10,15,18,12,15,3,3,6,22,15,25,10,25,20,20,2,14,22,16,6,30,12,3,10,12,20,6,10,10,20,2,5,26,2,20,25,20,10,22,8,20,4,26,15,26,15,16,30,10,20,2,15,15,25,10,20,20,5,8,2,15,25,16,30,10,10,10,10,6,21,30,20,20,6,16,24,20,18,3,10,20,10,20,10,20,30,6,2,2,4,9,14,20,25,15,25,20,20,16,30],"right_den":[15,28,18,10,15,26,28,16,10,20,26,5,22,15,20,12,22,18,12,14,28,6,10,25,15,30,15,5,10,16,12,26,26,2,4,30,25,10,5,30,16,20,15,28,20,4,30,20,14,4,30,10,15,10,25,26,16,16,5,10,2,30,15,15,20,26,5,3,24,4,15,16,10,26,10,4,15,12,20,10,6,26,5,15,16,2,28,10,10,15,27,2,4,5,10,10,22,10,15,15,25,14,2,22,25,26,10,10,20,20,30,15,4,28,9,18,16,4,5,4],"correct_side":[1,2,1,1,2,2,2,1,1,1,1,1,2,1,2,2,2,1,1,2,1,2,2,2,1,2,1,1,1,1,2,1,1,2,2,2,2,1,1,1,1,2,1,1,2,2,1,1,1,2,2,1,2,1,2,1,2,1,1,2,2,1,2,1,2,1,1,2,1,2,1,1,2,1,1,2,1,2,1,1,1,1,1,2,1,2,1,1,1,1,1,2,2,1,2,1,2,2,1,1,2,1,2,2,2,2,1,1,1,1,1,2,2,1,2,1,1,2,1,1],"img_shown":["img2/200/Congruent/L/C_Dist_200_LN_20_LD_25_RN_9_RD_15_0.png","img2/200/Congruent/R/C_Dist_200_LN_3_LD_10_RN_14_RD_28_1.png","img2/300/Incongruent/L/I_Dist_300_LN_8_LD_10_RN_9_RD_18_0.png","img2/200/Incongruent/L/I_Dist_200_LN_1_LD_2_RN_3_RD_10_0.png","img2/100/Incongruent/R/I_Dist_100_LN_12_LD_24_RN_9_RD_15_1.png","img2/200/Congruent/R/C_Dist_200_LN_9_LD_30_RN_13_RD_26_1.png","img2/200/Congruent/R/C_Dist_200_LN_3_LD_10_RN_14_RD_28_1.png","img2/300/Congruent/L/C_Dist_300_LN_24_LD_30_RN_8_RD_16_0.png","img2/300/Congruent/L/C_Dist_300_LN_12_LD_24_RN_2_RD_10_0.png","img2/300/Incongruent/L/I_Dist_300_LN_3_LD_6_RN_4_RD_20_0.png","img2/100/Incongruent/L/I_Dist_100_LN_6_LD_10_RN_13_RD_26_0.png","img2/100/Congruent/L/C_Dist_100_LN_8_LD_16_RN_2_RD_5_0.png","img2/200/Congruent/R/C_Dist_200_LN_3_LD_10_RN_11_RD_22_1.png","img2/300/Incongruent/L/I_Dist_300_LN_1_LD_2_RN_3_RD_15_0.png","img2/200/Congruent/R/C_Dist_200_LN_5_LD_10_RN_14_RD_20_1.png","img2/300/Congruent/R/C_Dist_300_LN_8_LD_15_RN_10_RD_12_1.png","img2/200/Congruent/R/C_Dist_200_LN_3_LD_10_RN_11_RD_22_1.png","img2/300/Incongruent/L/I_Dist_300_LN_8_LD_10_RN_9_RD_18_0.png","img2/300/Incongruent/L/I_Dist_300_LN_4_LD_5_RN_6_RD_12_0.png","img2/200/Congruent/R/C_Dist_200_LN_3_LD_10_RN_7_RD_14_1.png","img2/200/Incongruent/L/I_Dist_200_LN_7_LD_10_RN_14_RD_28_0.png","img2/200/Incongruent/R/I_Dist_200_LN_7_LD_15_RN_4_RD_6_1.png","img2/100/Incongruent/R/I_Dist_100_LN_9_LD_18_RN_6_RD_10_1.png","img2/100/Congruent/R/C_Dist_100_LN_6_LD_12_RN_15_RD_25_1.png","img2/200/Congruent/L/C_Dist_200_LN_6_LD_15_RN_3_RD_15_0.png","img2/300/Congruent/R/C_Dist_300_LN_1_LD_3_RN_19_RD_30_1.png","img2/200/Incongruent/L/I_Dist_200_LN_1_LD_3_RN_2_RD_15_0.png","img2/100/Congruent/L/C_Dist_100_LN_3_LD_6_RN_2_RD_5_0.png","img2/100/Congruent/L/C_Dist_100_LN_11_LD_22_RN_4_RD_10_0.png","img2/100/Congruent/L/C_Dist_100_LN_9_LD_15_RN_8_RD_16_0.png","img2/300/Congruent/R/C_Dist_300_LN_5_LD_25_RN_6_RD_12_1.png","img2/100/Incongruent/L/I_Dist_100_LN_6_LD_10_RN_13_RD_26_0.png","img2/100/Congruent/L/C_Dist_100_LN_15_LD_25_RN_13_RD_26_0.png","img2/100/Incongruent/R/I_Dist_100_LN_8_LD_20_RN_1_RD_2_1.png","img2/300/Incongruent/R/I_Dist_300_LN_4_LD_20_RN_2_RD_4_1.png","img2/200/Congruent/R/C_Dist_200_LN_1_LD_2_RN_21_RD_30_1.png","img2/100/Congruent/R/C_Dist_100_LN_7_LD_14_RN_15_RD_25_1.png","img2/200/Congruent/L/C_Dist_200_LN_11_LD_22_RN_3_RD_10_0.png","img2/100/Congruent/L/C_Dist_100_LN_8_LD_16_RN_2_RD_5_0.png","img2/200/Incongruent/L/I_Dist_200_LN_4_LD_6_RN_14_RD_30_0.png","img2/300/Congruent/L/C_Dist_300_LN_24_LD_30_RN_8_RD_16_0.png","img2/300/Congruent/R/C_Dist_300_LN_3_LD_12_RN_11_RD_20_1.png","img2/200/Incongruent/L/I_Dist_200_LN_1_LD_3_RN_2_RD_15_0.png","img2/200/Incongruent/L/I_Dist_200_LN_7_LD_10_RN_14_RD_28_0.png","img2/300/Congruent/R/C_Dist_300_LN_3_LD_12_RN_11_RD_20_1.png","img2/300/Incongruent/R/I_Dist_300_LN_4_LD_20_RN_2_RD_4_1.png","img2/200/Incongruent/L/I_Dist_200_LN_4_LD_6_RN_14_RD_30_0.png","img2/300/Incongruent/L/I_Dist_300_LN_7_LD_10_RN_8_RD_20_0.png","img2/100/Incongruent/L/I_Dist_100_LN_6_LD_10_RN_7_RD_14_0.png","img2/300/Incongruent/R/I_Dist_300_LN_4_LD_20_RN_2_RD_4_1.png","img2/100/Congruent/R/C_Dist_100_LN_1_LD_2_RN_18_RD_30_1.png","img2/200/Incongruent/L/I_Dist_200_LN_4_LD_5_RN_6_RD_10_0.png","img2/300/Incongruent/R/I_Dist_300_LN_13_LD_26_RN_12_RD_15_1.png","img2/300/Incongruent/L/I_Dist_300_LN_1_LD_2_RN_2_RD_10_0.png","img2/300/Congruent/R/C_Dist_300_LN_2_LD_20_RN_10_RD_25_1.png","img2/300/Congruent/L/C_Dist_300_LN_20_LD_25_RN_13_RD_26_0.png","img2/100/Congruent/R/C_Dist_100_LN_3_LD_20_RN_4_RD_16_1.png","img2/200/Incongruent/L/I_Dist_200_LN_7_LD_10_RN_8_RD_16_0.png","img2/300/Congruent/L/C_Dist_300_LN_11_LD_22_RN_1_RD_5_0.png","img2/100/Congruent/R/C_Dist_100_LN_4_LD_8_RN_6_RD_10_1.png","img2/100/Incongruent/R/I_Dist_100_LN_8_LD_20_RN_1_RD_2_1.png","img2/300/Incongruent/L/I_Dist_300_LN_2_LD_4_RN_6_RD_30_0.png","img2/300/Incongruent/R/I_Dist_300_LN_13_LD_26_RN_12_RD_15_1.png","img2/200/Congruent/L/C_Dist_200_LN_6_LD_15_RN_3_RD_15_0.png","img2/100/Incongruent/R/I_Dist_100_LN_13_LD_26_RN_12_RD_20_1.png","img2/100/Incongruent/L/I_Dist_100_LN_9_LD_15_RN_13_RD_26_0.png","img2/100/Congruent/L/C_Dist_100_LN_8_LD_16_RN_2_RD_5_0.png","img2/200/Incongruent/R/I_Dist_200_LN_4_LD_30_RN_1_RD_3_1.png","img2/200/Incongruent/L/I_Dist_200_LN_7_LD_10_RN_12_RD_24_0.png","img2/300/Incongruent/R/I_Dist_300_LN_4_LD_20_RN_2_RD_4_1.png","img2/300/Incongruent/L/I_Dist_300_LN_1_LD_2_RN_3_RD_15_0.png","img2/100/Congruent/L/C_Dist_100_LN_9_LD_15_RN_8_RD_16_0.png","img2/200/Incongruent/R/I_Dist_200_LN_9_LD_15_RN_8_RD_10_1.png","img2/100/Congruent/L/C_Dist_100_LN_15_LD_25_RN_13_RD_26_0.png","img2/300/Congruent/L/C_Dist_300_LN_4_LD_10_RN_1_RD_10_0.png","img2/300/Incongruent/R/I_Dist_300_LN_4_LD_20_RN_2_RD_4_1.png","img2/300/Congruent/L/C_Dist_300_LN_18_LD_20_RN_9_RD_15_0.png","img2/300/Congruent/R/C_Dist_300_LN_1_LD_5_RN_6_RD_12_1.png","img2/100/Incongruent/L/I_Dist_100_LN_4_LD_8_RN_8_RD_20_0.png","img2/300/Incongruent/L/I_Dist_300_LN_1_LD_2_RN_2_RD_10_0.png","img2/200/Congruent/L/C_Dist_200_LN_8_LD_15_RN_2_RD_6_0.png","img2/100/Congruent/L/C_Dist_100_LN_15_LD_25_RN_13_RD_26_0.png","img2/100/Congruent/L/C_Dist_100_LN_8_LD_16_RN_2_RD_5_0.png","img2/100/Incongruent/R/I_Dist_100_LN_17_LD_30_RN_10_RD_15_1.png","img2/200/Incongruent/L/I_Dist_200_LN_7_LD_10_RN_8_RD_16_0.png","img2/200/Incongruent/R/I_Dist_200_LN_3_LD_10_RN_1_RD_2_1.png","img2/300/Incongruent/L/I_Dist_300_LN_8_LD_10_RN_14_RD_28_0.png","img2/300/Congruent/L/C_Dist_300_LN_4_LD_10_RN_1_RD_10_0.png","img2/100/Incongruent/L/I_Dist_100_LN_3_LD_6_RN_4_RD_10_0.png","img2/200/Congruent/L/C_Dist_200_LN_7_LD_21_RN_2_RD_15_0.png","img2/200/Congruent/L/C_Dist_200_LN_16_LD_30_RN_9_RD_27_0.png","img2/100/Incongruent/R/I_Dist_100_LN_8_LD_20_RN_1_RD_2_1.png","img2/300/Incongruent/R/I_Dist_300_LN_4_LD_20_RN_2_RD_4_1.png","img2/100/Congruent/L/C_Dist_100_LN_3_LD_6_RN_2_RD_5_0.png","img2/100/Incongruent/R/I_Dist_100_LN_8_LD_16_RN_6_RD_10_1.png","img2/300/Congruent/L/C_Dist_300_LN_12_LD_24_RN_2_RD_10_0.png","img2/200/Congruent/R/C_Dist_200_LN_6_LD_20_RN_11_RD_22_1.png","img2/100/Incongruent/R/I_Dist_100_LN_9_LD_18_RN_6_RD_10_1.png","img2/200/Incongruent/L/I_Dist_200_LN_1_LD_3_RN_2_RD_15_0.png","img2/200/Congruent/L/C_Dist_200_LN_4_LD_10_RN_3_RD_15_0.png","img2/300/Congruent/R/C_Dist_300_LN_2_LD_20_RN_10_RD_25_1.png","img2/100/Incongruent/L/I_Dist_100_LN_6_LD_10_RN_7_RD_14_0.png","img2/100/Incongruent/R/I_Dist_100_LN_8_LD_20_RN_1_RD_2_1.png","img2/200/Congruent/R/C_Dist_200_LN_3_LD_10_RN_11_RD_22_1.png","img2/300/Congruent/R/C_Dist_300_LN_2_LD_20_RN_10_RD_25_1.png","img2/100/Congruent/R/C_Dist_100_LN_12_LD_30_RN_13_RD_26_1.png","img2/100/Incongruent/L/I_Dist_100_LN_3_LD_6_RN_4_RD_10_0.png","img2/200/Incongruent/L/I_Dist_200_LN_1_LD_2_RN_3_RD_10_0.png","img2/100/Incongruent/L/I_Dist_100_LN_1_LD_2_RN_8_RD_20_0.png","img2/200/Incongruent/L/I_Dist_200_LN_3_LD_4_RN_11_RD_20_0.png","img2/100/Incongruent/L/I_Dist_100_LN_3_LD_9_RN_7_RD_30_0.png","img2/100/Congruent/R/C_Dist_100_LN_7_LD_14_RN_9_RD_15_1.png","img2/300/Incongruent/R/I_Dist_300_LN_4_LD_20_RN_2_RD_4_1.png","img2/300/Congruent/L/C_Dist_300_LN_20_LD_25_RN_14_RD_28_0.png","img2/200/Incongruent/R/I_Dist_200_LN_7_LD_15_RN_6_RD_9_1.png","img2/300/Congruent/L/C_Dist_300_LN_20_LD_25_RN_9_RD_18_0.png","img2/200/Congruent/L/C_Dist_200_LN_9_LD_20_RN_4_RD_16_0.png","img2/200/Incongruent/R/I_Dist_200_LN_11_LD_20_RN_3_RD_4_1.png","img2/100/Congruent/L/C_Dist_100_LN_8_LD_16_RN_2_RD_5_0.png","img2/200/Congruent/L/C_Dist_200_LN_21_LD_30_RN_2_RD_4_0.png"],"dist100_C":[["C_Dist_100_LN_10_LD_25_RN_3_RD_10_0.png","C_Dist_100_LN_11_LD_22_RN_4_RD_10_0.png","C_Dist_100_LN_11_LD_22_RN_6_RD_15_0.png","C_Dist_100_LN_15_LD_25_RN_13_RD_26_0.png","C_Dist_100_LN_3_LD_6_RN_2_RD_5_0.png","C_Dist_100_LN_6_LD_20_RN_5_RD_25_0.png","C_Dist_100_LN_8_LD_16_RN_2_RD_5_0.png","C_Dist_100_LN_9_LD_15_RN_8_RD_16_0.png"],["C_Dist_100_LN_1_LD_2_RN_18_RD_30_1.png","C_Dist_100_LN_1_LD_2_RN_3_RD_5_1.png","C_Dist_100_LN_12_LD_30_RN_13_RD_26_1.png","C_Dist_100_LN_2_LD_5_RN_11_RD_22_1.png","C_Dist_100_LN_2_LD_5_RN_6_RD_12_1.png","C_Dist_100_LN_3_LD_20_RN_4_RD_16_1.png","C_Dist_100_LN_4_LD_10_RN_15_RD_30_1.png","C_Dist_100_LN_4_LD_8_RN_6_RD_10_1.png","C_Dist_100_LN_6_LD_12_RN_15_RD_25_1.png","C_Dist_100_LN_7_LD_14_RN_15_RD_25_1.png","C_Dist_100_LN_7_LD_14_RN_9_RD_15_1.png"]],"dist100_I":[["I_Dist_100_LN_1_LD_2_RN_8_RD_20_0.png","I_Dist_100_LN_2_LD_4_RN_6_RD_15_0.png","I_Dist_100_LN_2_LD_4_RN_8_RD_20_0.png","I_Dist_100_LN_3_LD_5_RN_11_RD_22_0.png","I_Dist_100_LN_3_LD_5_RN_8_RD_16_0.png","I_Dist_100_LN_3_LD_6_RN_4_RD_10_0.png","I_Dist_100_LN_3_LD_9_RN_7_RD_30_0.png","I_Dist_100_LN_4_LD_8_RN_8_RD_20_0.png","I_Dist_100_LN_6_LD_10_RN_11_RD_22_0.png","I_Dist_100_LN_6_LD_10_RN_13_RD_26_0.png","I_Dist_100_LN_6_LD_10_RN_7_RD_14_0.png","I_Dist_100_LN_9_LD_10_RN_20_RD_25_0.png","I_Dist_100_LN_9_LD_15_RN_13_RD_26_0.png","I_Dist_100_LN_9_LD_15_RN_14_RD_28_0.png"],["I_Dist_100_LN_10_LD_25_RN_8_RD_16_1.png","I_Dist_100_LN_10_LD_25_RN_9_RD_18_1.png","I_Dist_100_LN_11_LD_22_RN_9_RD_15_1.png","I_Dist_100_LN_12_LD_24_RN_9_RD_15_1.png","I_Dist_100_LN_12_LD_30_RN_2_RD_4_1.png","I_Dist_100_LN_13_LD_26_RN_12_RD_20_1.png","I_Dist_100_LN_13_LD_26_RN_6_RD_10_1.png","I_Dist_100_LN_17_LD_30_RN_10_RD_15_1.png","I_Dist_100_LN_6_LD_12_RN_3_RD_5_1.png","I_Dist_100_LN_8_LD_16_RN_6_RD_10_1.png","I_Dist_100_LN_8_LD_20_RN_1_RD_2_1.png","I_Dist_100_LN_9_LD_18_RN_6_RD_10_1.png"]],"dist100_S":[["E_Dist_100_LN_2_LD_12_RN_2_RD_30_0.png","E_Dist_100_LN_6_LD_10_RN_6_RD_12_0.png"],["E_Dist_100_LN_6_LD_12_RN_6_RD_10_1.png"]],"dist200_C":[["C_Dist_200_LN_11_LD_22_RN_3_RD_10_0.png","C_Dist_200_LN_12_LD_15_RN_6_RD_10_0.png","C_Dist_200_LN_12_LD_20_RN_6_RD_15_0.png","C_Dist_200_LN_14_LD_28_RN_6_RD_20_0.png","C_Dist_200_LN_15_LD_25_RN_4_RD_10_0.png","C_Dist_200_LN_16_LD_20_RN_12_RD_20_0.png","C_Dist_200_LN_16_LD_30_RN_9_RD_27_0.png","C_Dist_200_LN_20_LD_25_RN_9_RD_15_0.png","C_Dist_200_LN_21_LD_30_RN_2_RD_4_0.png","C_Dist_200_LN_4_LD_10_RN_3_RD_15_0.png","C_Dist_200_LN_4_LD_8_RN_3_RD_10_0.png","C_Dist_200_LN_6_LD_15_RN_3_RD_15_0.png","C_Dist_200_LN_7_LD_21_RN_2_RD_15_0.png","C_Dist_200_LN_8_LD_15_RN_2_RD_6_0.png","C_Dist_200_LN_8_LD_15_RN_3_RD_9_0.png","C_Dist_200_LN_8_LD_15_RN_7_RD_21_0.png","C_Dist_200_LN_9_LD_20_RN_4_RD_16_0.png"],["C_Dist_200_LN_1_LD_2_RN_21_RD_30_1.png","C_Dist_200_LN_13_LD_26_RN_14_RD_20_1.png","C_Dist_200_LN_3_LD_10_RN_11_RD_22_1.png","C_Dist_200_LN_3_LD_10_RN_14_RD_28_1.png","C_Dist_200_LN_3_LD_10_RN_7_RD_14_1.png","C_Dist_200_LN_3_LD_12_RN_9_RD_20_1.png","C_Dist_200_LN_3_LD_6_RN_14_RD_20_1.png","C_Dist_200_LN_5_LD_10_RN_14_RD_20_1.png","C_Dist_200_LN_6_LD_12_RN_7_RD_10_1.png","C_Dist_200_LN_6_LD_20_RN_11_RD_22_1.png","C_Dist_200_LN_7_LD_15_RN_18_RD_27_1.png","C_Dist_200_LN_9_LD_30_RN_13_RD_26_1.png"]],"dist200_I":[["I_Dist_200_LN_1_LD_2_RN_3_RD_10_0.png","I_Dist_200_LN_1_LD_3_RN_2_RD_15_0.png","I_Dist_200_LN_3_LD_4_RN_11_RD_20_0.png","I_Dist_200_LN_4_LD_5_RN_6_RD_10_0.png","I_Dist_200_LN_4_LD_6_RN_14_RD_30_0.png","I_Dist_200_LN_7_LD_10_RN_12_RD_24_0.png","I_Dist_200_LN_7_LD_10_RN_14_RD_28_0.png","I_Dist_200_LN_7_LD_10_RN_8_RD_16_0.png"],["I_Dist_200_LN_11_LD_20_RN_3_RD_4_1.png","I_Dist_200_LN_14_LD_30_RN_12_RD_18_1.png","I_Dist_200_LN_14_LD_30_RN_6_RD_9_1.png","I_Dist_200_LN_3_LD_10_RN_1_RD_2_1.png","I_Dist_200_LN_4_LD_30_RN_1_RD_3_1.png","I_Dist_200_LN_6_LD_20_RN_3_RD_6_1.png","I_Dist_200_LN_7_LD_15_RN_4_RD_6_1.png","I_Dist_200_LN_7_LD_15_RN_6_RD_9_1.png","I_Dist_200_LN_9_LD_15_RN_8_RD_10_1.png"]],"dist200_S":[["E_Dist_200_LN_3_LD_6_RN_3_RD_10_0.png"],["E_Dist_200_LN_3_LD_10_RN_3_RD_6_1.png"]],"dist300_C":[["C_Dist_300_LN_11_LD_22_RN_1_RD_5_0.png","C_Dist_300_LN_11_LD_22_RN_2_RD_10_0.png","C_Dist_300_LN_11_LD_22_RN_4_RD_20_0.png","C_Dist_300_LN_12_LD_24_RN_2_RD_10_0.png","C_Dist_300_LN_18_LD_20_RN_9_RD_15_0.png","C_Dist_300_LN_20_LD_25_RN_13_RD_26_0.png","C_Dist_300_LN_20_LD_25_RN_14_RD_28_0.png","C_Dist_300_LN_20_LD_25_RN_5_RD_10_0.png","C_Dist_300_LN_20_LD_25_RN_8_RD_16_0.png","C_Dist_300_LN_20_LD_25_RN_9_RD_18_0.png","C_Dist_300_LN_24_LD_30_RN_2_RD_4_0.png","C_Dist_300_LN_24_LD_30_RN_8_RD_16_0.png","C_Dist_300_LN_3_LD_6_RN_2_RD_10_0.png","C_Dist_300_LN_4_LD_10_RN_1_RD_10_0.png","C_Dist_300_LN_4_LD_5_RN_2_RD_4_0.png","C_Dist_300_LN_8_LD_16_RN_1_RD_5_0.png","C_Dist_300_LN_9_LD_10_RN_3_RD_5_0.png"],["C_Dist_300_LN_1_LD_20_RN_7_RD_20_1.png","C_Dist_300_LN_1_LD_3_RN_19_RD_30_1.png","C_Dist_300_LN_1_LD_30_RN_8_RD_24_1.png","C_Dist_300_LN_1_LD_5_RN_11_RD_22_1.png","C_Dist_300_LN_1_LD_5_RN_3_RD_6_1.png","C_Dist_300_LN_1_LD_5_RN_6_RD_12_1.png","C_Dist_300_LN_2_LD_10_RN_12_RD_24_1.png","C_Dist_300_LN_2_LD_20_RN_10_RD_25_1.png","C_Dist_300_LN_3_LD_12_RN_11_RD_20_1.png","C_Dist_300_LN_3_LD_6_RN_4_RD_5_1.png","C_Dist_300_LN_4_LD_20_RN_13_RD_26_1.png","C_Dist_300_LN_5_LD_25_RN_6_RD_12_1.png","C_Dist_300_LN_5_LD_25_RN_7_RD_14_1.png","C_Dist_300_LN_7_LD_14_RN_20_RD_25_1.png","C_Dist_300_LN_8_LD_15_RN_10_RD_12_1.png"]],"dist300_I":[["I_Dist_300_LN_1_LD_2_RN_2_RD_10_0.png","I_Dist_300_LN_1_LD_2_RN_3_RD_15_0.png","I_Dist_300_LN_2_LD_4_RN_6_RD_30_0.png","I_Dist_300_LN_3_LD_6_RN_4_RD_20_0.png","I_Dist_300_LN_4_LD_5_RN_6_RD_12_0.png","I_Dist_300_LN_4_LD_5_RN_8_RD_16_0.png","I_Dist_300_LN_7_LD_10_RN_8_RD_20_0.png","I_Dist_300_LN_8_LD_10_RN_14_RD_28_0.png","I_Dist_300_LN_8_LD_10_RN_9_RD_18_0.png"],["I_Dist_300_LN_13_LD_26_RN_12_RD_15_1.png","I_Dist_300_LN_4_LD_20_RN_2_RD_4_1.png"]],"dist300_S":[["E_Dist_300_LN_9_LD_12_RN_9_RD_20_0.png"],["E_Dist_300_LN_18_LD_30_RN_18_RD_20_1.png","E_Dist_300_LN_3_LD_10_RN_3_RD_5_1.png","E_Dist_300_LN_9_LD_20_RN_9_RD_12_1.png"]],"dist500_C":[["C_Dist_500_LN_10_LD_13_RN_7_RD_26_0.png","C_Dist_500_LN_10_LD_15_RN_4_RD_24_0.png","C_Dist_500_LN_12_LD_16_RN_3_RD_12_0.png","C_Dist_500_LN_12_LD_18_RN_4_RD_24_0.png","C_Dist_500_LN_15_LD_18_RN_5_RD_15_0.png","C_Dist_500_LN_15_LD_20_RN_1_RD_4_0.png","C_Dist_500_LN_18_LD_27_RN_1_RD_6_0.png","C_Dist_500_LN_20_LD_24_RN_1_RD_3_0.png","C_Dist_500_LN_20_LD_24_RN_3_RD_9_0.png","C_Dist_500_LN_20_LD_24_RN_7_RD_21_0.png","C_Dist_500_LN_20_LD_28_RN_3_RD_14_0.png","C_Dist_500_LN_21_LD_28_RN_6_RD_24_0.png","C_Dist_500_LN_22_LD_28_RN_2_RD_7_0.png","C_Dist_500_LN_25_LD_30_RN_9_RD_27_0.png","C_Dist_500_LN_4_LD_6_RN_1_RD_6_0.png","C_Dist_500_LN_5_LD_6_RN_2_RD_6_0.png","C_Dist_500_LN_6_LD_9_RN_1_RD_6_0.png","C_Dist_500_LN_7_LD_10_RN_1_RD_5_0.png","C_Dist_500_LN_8_LD_12_RN_1_RD_6_0.png","C_Dist_500_LN_8_LD_12_RN_4_RD_24_0.png"],["C_Dist_500_LN_1_LD_4_RN_12_RD_16_1.png","C_Dist_500_LN_1_LD_4_RN_9_RD_12_1.png","C_Dist_500_LN_1_LD_9_RN_11_RD_18_1.png","C_Dist_500_LN_10_LD_24_RN_22_RD_24_1.png","C_Dist_500_LN_2_LD_12_RN_10_RD_15_1.png","C_Dist_500_LN_2_LD_12_RN_12_RD_18_1.png","C_Dist_500_LN_2_LD_12_RN_4_RD_6_1.png","C_Dist_500_LN_2_LD_24_RN_7_RD_12_1.png","C_Dist_500_LN_2_LD_5_RN_18_RD_20_1.png","C_Dist_500_LN_2_LD_5_RN_9_RD_10_1.png","C_Dist_500_LN_2_LD_8_RN_12_RD_16_1.png","C_Dist_500_LN_2_LD_8_RN_21_RD_28_1.png","C_Dist_500_LN_3_LD_10_RN_4_RD_5_1.png","C_Dist_500_LN_3_LD_12_RN_15_RD_20_1.png","C_Dist_500_LN_3_LD_30_RN_6_RD_10_1.png","C_Dist_500_LN_3_LD_8_RN_14_RD_16_1.png","C_Dist_500_LN_4_LD_16_RN_15_RD_20_1.png","C_Dist_500_LN_4_LD_24_RN_12_RD_18_1.png","C_Dist_500_LN_5_LD_14_RN_6_RD_7_1.png","C_Dist_500_LN_7_LD_21_RN_20_RD_24_1.png","C_Dist_500_LN_7_LD_28_RN_12_RD_16_1.png","C_Dist_500_LN_7_LD_28_RN_9_RD_12_1.png","C_Dist_500_LN_9_LD_27_RN_20_RD_24_1.png"]],"dist500_I":[["I_Dist_500_LN_2_LD_3_RN_4_RD_24_0.png","I_Dist_500_LN_5_LD_6_RN_6_RD_18_0.png","I_Dist_500_LN_7_LD_8_RN_9_RD_24_0.png"],["I_Dist_500_LN_7_LD_21_RN_5_RD_6_1.png"]],"dist500_S":[["E_Dist_500_LN_6_LD_8_RN_6_RD_24_0.png"],["E_Dist_500_LN_2_LD_12_RN_2_RD_3_1.png","E_Dist_500_LN_6_LD_24_RN_6_RD_8_1.png"]]}},{"start_time":1552069095261,"click_time":1552069096919,"finger_time":1552069096580,"fix_duration":642.8810048247974,"trial":1,"RT":1319,"MT":339,"sideResp":2,"stimulus":[],"xmouse":[790,790,790,790,790,790,790,790,790,790,790,790,790,790,790,790,790,790,790,790,790,790,790,790,790,790,791,791,791,791,791,791,791,791,791,791,791,791,791,791,791,791,791,791,791,791,791,791,791,791,791,791,791,791,791,791,791,791,791,791,791,791,791,792,797,812,828,887,921,953,990,1034,1116,1136,1144,1145,1145,1145,1145,1144,1144,1144,1144],"ymouse":[625,625,625,625,625,625,625,625,625,624,624,622,622,622,622,622,622,621,620,619,619,618,617,617,617,616,615,615,615,615,615,615,615,615,615,615,615,615,615,615,615,615,615,615,615,615,615,615,615,615,614,614,614,614,614,614,614,614,614,614,614,614,612,608,598,572,548,467,422,376,321,266,167,140,117,110,106,104,102,101,100,100,99],"timestamp_mouse":[17,37,57,78,99,118,138,157,178,199,218,238,259,279,298,318,338,358,378,397,417,437,458,479,498,518,537,558,579,599,618,637,659,679,698,717,737,757,779,799,819,837,858,878,899,918,938,959,979,997,1017,1038,1059,1077,1099,1118,1137,1158,1178,1198,1219,1239,1258,1278,1298,1319,1339,1358,1378,1397,1417,1437,1458,1478,1498,1518,1537,1557,1578,1598,1618,1637,1658],"xSR":741.5,"ySR":573.95,"xT1":424.9,"yT1":0,"xT2":1058.1,"yT2":0,"toosoon":0,"cond_shown":"Congruent","ratio_trial":200,"L_num":3,"L_den":10,"R_num":14,"R_den":28,"correct_side":2,"subjID":"MaatiasCruz20","gender":"0","school":"4","age":"10"},{"start_time":1552069098464,"click_time":1552069100139,"finger_time":1552069099939,"fix_duration":684.7110670273723,"trial":2,"RT":1475,"MT":200,"sideResp":2,"stimulus":[],"xmouse":[791,791,791,791,791,791,791,790,790,790,790,790,790,790,790,790,790,790,790,789,789,789,789,789,789,789,789,789,789,789,789,789,789,789,789,789,789,789,789,789,789,789,789,789,789,789,789,789,789,789,789,789,789,789,789,789,789,789,789,789,789,789,789,789,789,789,789,789,789,789,790,791,801,812,826,849,877,936,964,992,1019,1053,1116,1136],"ymouse":[632,632,631,631,631,631,630,629,629,629,629,628,628,628,628,627,627,625,625,624,624,624,624,624,624,624,624,624,624,624,623,623,623,623,623,622,622,622,622,622,622,622,622,621,621,621,621,621,621,621,621,621,621,621,621,621,621,621,621,621,621,621,621,621,621,621,621,621,621,620,619,614,592,565,533,486,424,327,291,254,220,180,109,77],"timestamp_mouse":[16,36,56,74,95,114,134,156,176,195,215,235,255,276,294,316,334,356,375,395,414,435,455,475,494,514,536,556,574,595,614,636,656,675,694,714,734,754,775,795,816,835,855,874,896,915,934,956,976,994,1015,1035,1056,1075,1094,1114,1135,1156,1175,1196,1216,1236,1254,1275,1296,1316,1334,1356,1375,1395,1414,1434,1455,1475,1495,1515,1535,1555,1576,1596,1616,1636,1655,1674],"xSR":741.5,"ySR":573.95,"xT1":424.9,"yT1":0,"xT2":1058.1,"yT2":0,"toosoon":0,"cond_shown":"Incongruent","ratio_trial":300,"L_num":8,"L_den":10,"R_num":9,"R_den":18,"correct_side":1,"subjID":"MaatiasCruz20","gender":"0","school":"4","age":"10"},{"start_time":1552069101978,"click_time":1552069103598,"finger_time":1552069103138,"fix_duration":737.0087015287037,"trial":3,"RT":1160,"MT":460,"sideResp":2,"stimulus":[],"xmouse":[798,798,798,798,798,798,798,798,798,798,798,798,798,798,798,798,798,798,798,798,798,798,798,798,798,798,798,798,798,798,798,798,798,798,798,798,798,798,798,798,798,798,798,798,798,798,798,798,798,798,798,798,798,804,810,816,821,831,842,853,872,894,925,987,1010,1032,1064,1071,1100,1110,1121,1132,1144,1159,1163,1164,1165,1165,1165,1164,1157,1147],"ymouse":[618,618,618,618,618,618,618,618,618,618,618,618,618,618,618,618,618,618,618,618,618,618,618,618,618,618,618,618,618,618,618,618,618,618,618,618,618,618,618,618,618,618,618,618,618,618,618,618,618,618,618,618,618,613,604,597,592,580,563,546,521,495,460,383,350,319,277,267,231,219,206,194,179,156,150,146,143,142,131,121,112,98],"timestamp_mouse":[3,21,41,62,81,100,120,142,162,181,202,221,240,260,281,302,321,342,360,380,402,422,442,460,481,501,521,542,561,581,601,622,642,661,681,700,722,742,760,780,801,821,842,861,881,900,920,940,960,980,1002,1021,1040,1061,1080,1102,1121,1141,1160,1181,1202,1222,1241,1260,1280,1300,1321,1342,1361,1381,1400,1420,1440,1461,1481,1502,1521,1540,1561,1580,1601,1620],"xSR":741.5,"ySR":573.95,"xT1":424.9,"yT1":0,"xT2":1058.1,"yT2":0,"toosoon":0,"cond_shown":"Incongruent","ratio_trial":200,"L_num":1,"L_den":2,"R_num":3,"R_den":10,"correct_side":1,"subjID":"MaatiasCruz20","gender":"0","school":"4","age":"10"},{"start_time":1552069104838,"click_time":1552069106719,"finger_time":1552069106339,"fix_duration":479.2811299240037,"trial":4,"RT":1501,"MT":380,"sideResp":1,"stimulus":[],"xmouse":[806,806,806,806,806,806,806,806,806,806,806,806,806,806,806,806,806,806,806,806,806,806,806,806,806,806,806,806,806,806,806,806,806,806,806,806,806,806,806,806,806,806,806,806,806,806,806,806,806,805,805,805,805,805,805,805,805,805,805,805,805,805,805,806,806,806,806,806,806,806,806,806,806,806,802,759,724,699,690,685,674,669,666,664,663,650,640,628,620,615,605,590,572,541,521],"ymouse":[661,661,661,661,661,661,661,661,661,661,661,661,661,661,661,661,661,661,661,661,661,661,661,661,661,661,661,661,661,661,661,661,661,661,661,661,661,661,661,661,661,661,661,661,661,661,661,661,661,661,661,661,661,661,661,661,661,661,661,661,660,660,660,659,659,659,659,659,659,659,659,658,655,628,585,436,363,303,273,249,214,203,196,190,185,166,154,145,139,136,127,120,111,98,87],"timestamp_mouse":[3,22,42,61,81,101,120,141,162,182,202,220,241,260,281,302,321,340,360,380,401,420,440,461,481,502,520,541,561,582,602,622,640,661,682,702,722,740,760,781,802,822,840,860,880,901,921,942,960,981,1000,1021,1040,1060,1081,1102,1120,1142,1160,1181,1201,1222,1240,1260,1282,1302,1322,1341,1361,1382,1401,1422,1440,1461,1482,1501,1521,1540,1560,1582,1601,1622,1640,1660,1680,1701,1721,1741,1761,1781,1801,1820,1841,1862,1880],"xSR":741.5,"ySR":573.95,"xT1":424.9,"yT1":0,"xT2":1058.1,"yT2":0,"toosoon":0,"cond_shown":"Incongruent","ratio_trial":100,"L_num":12,"L_den":24,"R_num":9,"R_den":15,"correct_side":2,"subjID":"MaatiasCruz20","gender":"0","school":"4","age":"10"},{"start_time":1552069108355,"click_time":1552069110440,"finger_time":1552069110159,"fix_duration":615.0518541592214,"trial":5,"RT":1804,"MT":281,"sideResp":2,"stimulus":[],"xmouse":[782,782,782,782,782,782,782,782,782,782,782,782,782,782,782,782,782,782,782,782,783,783,784,785,786,786,786,786,787,787,788,788,788,788,789,789,790,790,790,790,790,791,791,792,793,796,798,798,798,798,798,799,800,801,804,804,804,804,804,804,804,804,804,804,804,804,804,804,804,804,804,804,804,804,804,804,804,804,804,804,804,804,804,804,804,806,808,813,818,825,841,849,855,860,863,877,889,895,900,909,948,973,1009,1048,1087],"ymouse":[612,612,612,612,612,612,612,612,612,612,612,612,612,612,612,612,612,612,612,611,610,610,609,609,608,608,608,608,607,607,606,606,606,606,606,605,605,604,604,604,604,604,604,602,601,598,596,594,594,594,594,594,593,591,587,587,587,587,587,587,587,587,587,587,587,587,587,587,587,587,587,587,587,587,587,587,587,587,587,587,587,587,587,587,587,587,586,584,581,577,564,557,551,544,538,511,482,461,444,409,283,238,193,145,99],"timestamp_mouse":[3,25,43,63,83,105,125,144,164,184,203,224,244,263,284,305,324,344,363,384,405,424,443,464,485,504,523,543,564,584,604,623,643,665,684,703,724,745,764,785,804,824,844,863,883,904,924,943,964,983,1004,1024,1044,1063,1085,1104,1125,1144,1164,1185,1204,1224,1243,1265,1285,1305,1324,1344,1364,1384,1404,1424,1445,1464,1485,1504,1524,1543,1563,1585,1605,1624,1644,1664,1683,1703,1724,1743,1763,1784,1804,1825,1845,1864,1884,1904,1924,1944,1964,1984,2004,2023,2043,2063,2085],"xSR":741.5,"ySR":573.95,"xT1":424.9,"yT1":0,"xT2":1058.1,"yT2":0,"toosoon":0,"cond_shown":"Congruent","ratio_trial":200,"L_num":9,"L_den":30,"R_num":13,"R_den":26,"correct_side":2,"subjID":"MaatiasCruz20","gender":"0","school":"4","age":"10"},{"start_time":1552069112707,"click_time":1552069113978,"finger_time":1552069113399,"fix_duration":1247.7958074914714,"trial":6,"RT":692,"MT":579,"sideResp":1,"stimulus":[],"xmouse":[764,764,764,764,764,764,764,764,764,764,764,764,764,764,764,764,764,764,764,764,764,764,764,764,764,766,767,767,767,767,767,767,767,766,744,714,654,583,471,447,439,438,438,436,432,427,424,421,415,413,413,413,413,413,416,418,419,419,419,419,420,421,424,432],"ymouse":[620,620,620,619,619,619,619,619,619,619,619,619,619,619,619,619,619,619,619,619,625,628,632,632,632,629,627,627,627,627,627,627,627,618,508,342,174,43,0,0,0,0,0,0,0,0,0,0,0,0,0,0,0,13,19,24,26,27,28,28,31,36,41,54],"timestamp_mouse":[13,31,52,72,92,112,132,151,171,191,213,233,253,271,291,311,332,352,371,392,412,432,453,472,491,511,533,553,572,592,612,631,652,673,692,712,731,751,771,793,812,832,851,872,891,912,933,952,971,991,1012,1032,1052,1072,1092,1112,1132,1153,1172,1193,1212,1232,1252,1271],"xSR":741.5,"ySR":573.95,"xT1":424.9,"yT1":0,"xT2":1058.1,"yT2":0,"toosoon":0,"cond_shown":"Congruent","ratio_trial":200,"L_num":3,"L_den":10,"R_num":14,"R_den":28,"correct_side":2,"subjID":"MaatiasCruz20","gender":"0","school":"4","age":"10"},{"start_time":1552069120199,"click_time":1552069121699,"finger_time":1552069121319,"fix_duration":1180.3156572394944,"trial":7,"RT":1120,"MT":380,"sideResp":1,"stimulus":[],"xmouse":[826,826,826,826,826,826,826,826,826,826,826,826,826,826,826,826,826,826,826,826,826,826,826,826,826,826,826,826,826,825,825,825,825,825,825,825,825,825,825,825,825,825,825,825,825,825,825,825,825,825,824,822,821,816,814,811,810,809,806,806,803,801,799,788,775,766,755,741,727,666,636,609,569,500,476],"ymouse":[605,605,605,605,605,605,605,605,605,605,605,605,605,605,605,605,605,605,605,605,605,605,605,605,605,605,605,605,605,605,605,605,605,605,605,605,605,605,605,605,605,605,605,605,605,605,605,605,605,605,605,603,600,590,580,572,566,562,553,549,539,525,509,469,428,403,378,351,330,240,207,183,150,103,84],"timestamp_mouse":[20,40,61,80,100,120,141,160,179,199,221,241,259,280,299,319,339,360,380,400,420,439,461,479,499,520,540,559,581,600,619,639,659,680,700,719,740,761,780,799,819,839,859,879,900,921,939,960,981,1000,1019,1041,1059,1080,1100,1120,1140,1161,1179,1199,1220,1239,1259,1280,1300,1320,1340,1360,1380,1400,1419,1439,1460,1480,1500],"xSR":741.5,"ySR":573.95,"xT1":424.9,"yT1":0,"xT2":1058.1,"yT2":0,"toosoon":0,"cond_shown":"Congruent","ratio_trial":300,"L_num":24,"L_den":30,"R_num":8,"R_den":16,"correct_side":1,"subjID":"MaatiasCruz20","gender":"0","school":"4","age":"10"},{"start_time":1552069123800,"click_time":1552069125099,"finger_time":1552069124379,"fix_duration":1221.7586505717709,"trial":8,"RT":579,"MT":720,"sideResp":2,"stimulus":[],"xmouse":[810,810,810,810,810,810,810,810,810,810,810,810,810,810,810,810,810,810,810,810,810,810,810,810,812,815,819,823,836,847,859,867,876,885,905,914,923,931,949,957,963,970,980,986,1021,1029,1034,1035,1036,1036,1036,1036,1036,1036,1038,1044,1049,1051,1055,1056,1057,1057,1058,1058,1060],"ymouse":[615,615,615,615,615,615,615,615,615,615,615,615,615,615,615,615,615,615,615,615,615,615,615,615,611,606,600,595,570,551,530,513,494,473,422,402,382,361,321,296,273,250,214,200,124,104,90,84,81,81,81,81,81,81,81,81,81,81,81,81,81,81,81,81,81],"timestamp_mouse":[22,38,59,80,98,118,140,159,179,198,219,240,259,279,298,320,339,359,380,398,420,438,459,479,499,519,540,558,579,599,618,640,659,680,699,718,738,758,779,800,820,839,858,878,898,919,940,960,979,999,1018,1040,1060,1078,1099,1119,1138,1158,1179,1199,1220,1238,1258,1280,1299],"xSR":741.5,"ySR":573.95,"xT1":424.9,"yT1":0,"xT2":1058.1,"yT2":0,"toosoon":0,"cond_shown":"Congruent","ratio_trial":300,"L_num":12,"L_den":24,"R_num":2,"R_den":10,"correct_side":1,"subjID":"MaatiasCruz20","gender":"0","school":"4","age":"10"},{"start_time":1552069127454,"click_time":1552069128419,"finger_time":1552069127799,"fix_duration":1454.5867828175537,"trial":9,"RT":345,"MT":620,"sideResp":2,"stimulus":[],"xmouse":[804,804,806,807,809,810,811,812,813,813,813,813,818,820,826,831,836,844,851,860,877,884,917,923,923,926,936,954,960,963,964,965,965,965,965,968,972,990,1000,1010,1016,1028,1045,1053,1063,1074,1082,1097,1104],"ymouse":[624,624,621,620,618,618,617,615,614,614,614,612,607,603,596,588,582,570,562,550,528,519,469,462,462,459,446,420,411,404,400,399,399,399,397,395,389,369,355,340,326,301,264,246,223,194,165,110,84],"timestamp_mouse":[6,26,46,64,84,105,126,146,165,186,205,225,246,265,286,304,324,345,365,386,405,424,444,465,485,505,524,545,564,586,604,625,645,664,684,705,726,745,765,784,804,825,844,864,884,905,925,945,965],"xSR":741.5,"ySR":573.95,"xT1":424.9,"yT1":0,"xT2":1058.1,"yT2":0,"toosoon":0,"cond_shown":"Incongruent","ratio_trial":300,"L_num":3,"L_den":6,"R_num":4,"R_den":20,"correct_side":1,"subjID":"MaatiasCruz20","gender":"0","school":"4","age":"10"},{"start_time":1552069135403,"click_time":1552069137259,"finger_time":1552069136599,"fix_duration":463.1069563982354,"trial":10,"RT":1196,"MT":660,"sideResp":2,"stimulus":[],"xmouse":[772,774,776,777,779,781,782,783,783,783,783,783,783,783,783,783,783,783,783,783,783,783,783,783,783,783,784,784,784,784,784,784,784,784,784,784,784,786,786,786,786,786,788,788,789,791,791,791,791,791,791,791,791,792,793,794,795,795,795,797,799,799,800,801,803,813,824,847,878,916,1017,1052,1097,1130,1163,1192,1201,1202,1205,1207,1208,1207,1202,1199,1196,1189,1187,1182,1177,1174,1168,1161,1153],"ymouse":[637,637,637,637,636,634,633,632,632,632,632,632,632,632,632,632,632,632,632,632,632,632,632,632,632,632,631,631,631,631,631,631,631,631,630,627,621,612,610,607,600,600,598,597,594,590,590,590,590,590,590,589,587,585,583,579,577,576,574,571,566,563,560,557,552,533,515,491,460,424,336,302,266,243,221,187,175,175,171,161,135,124,113,103,100,97,95,91,89,87,87,87,87],"timestamp_mouse":[18,36,56,76,97,116,137,157,177,196,218,238,256,276,297,318,337,356,377,396,416,438,456,476,498,516,537,557,577,597,617,638,656,676,696,717,737,757,776,797,817,837,858,877,897,917,938,956,977,998,1017,1038,1056,1077,1096,1116,1136,1157,1177,1196,1216,1236,1256,1277,1296,1316,1337,1356,1376,1397,1416,1436,1456,1476,1497,1516,1536,1557,1577,1596,1617,1637,1656,1678,1696,1716,1737,1758,1777,1797,1816,1836,1856],"xSR":741.5,"ySR":573.95,"xT1":424.9,"yT1":0,"xT2":1058.1,"yT2":0,"toosoon":0,"cond_shown":"Incongruent","ratio_trial":100,"L_num":6,"L_den":10,"R_num":13,"R_den":26,"correct_side":1,"subjID":"MaatiasCruz20","gender":"0","school":"4","age":"10"},{"start_time":1552069140977,"click_time":1552069143339,"finger_time":1552069142320,"fix_duration":1396.1401300822356,"trial":11,"RT":1343,"MT":1019,"sideResp":1,"stimulus":[],"xmouse":[807,807,807,807,807,807,807,807,807,807,807,807,807,807,807,807,807,807,808,808,809,811,811,811,811,811,812,812,812,812,812,812,812,812,812,812,812,812,812,812,812,812,812,812,812,812,812,812,812,812,812,812,812,812,812,813,813,814,815,815,815,815,816,818,821,824,828,859,883,922,962,993,1039,1057,1075,1098,1122,1151,1171,1173,1175,1177,1177,1178,1179,1179,1179,1179,1179,1179,1179,1179,1179,1177,1175,1171,1165,1121,1075,1004,912,810,723,644,629,618,607,589,547,545,545,545,545,540,536,531,526,525,520],"ymouse":[631,631,631,631,631,631,631,631,631,631,631,631,631,631,631,631,631,631,631,631,629,628,627,627,627,626,626,626,626,626,626,626,626,626,626,626,626,626,626,626,626,626,626,626,626,626,626,626,626,626,626,626,626,626,625,625,624,624,622,622,622,621,621,614,609,601,592,541,506,451,394,352,301,279,257,231,205,175,152,146,143,140,138,134,129,125,123,119,119,119,119,119,118,118,118,118,119,124,124,124,124,124,124,127,129,132,134,136,138,138,138,138,138,135,126,114,104,97,87],"timestamp_mouse":[3,23,43,64,83,104,122,143,164,183,202,222,243,262,282,303,322,343,362,383,402,424,443,462,483,503,523,542,562,584,603,624,642,662,682,702,723,744,764,782,803,824,842,862,883,902,924,942,962,983,1003,1023,1042,1062,1083,1103,1122,1143,1162,1182,1203,1223,1244,1262,1282,1302,1322,1343,1363,1383,1402,1423,1443,1464,1482,1503,1522,1543,1562,1583,1604,1623,1642,1663,1682,1703,1722,1743,1764,1783,1803,1822,1843,1862,1882,1903,1923,1943,1962,1983,2002,2022,2043,2063,2082,2103,2122,2142,2163,2182,2204,2222,2243,2262,2283,2302,2323,2343,2362],"xSR":741.5,"ySR":573.95,"xT1":424.9,"yT1":0,"xT2":1058.1,"yT2":0,"toosoon":0,"cond_shown":"Congruent","ratio_trial":100,"L_num":8,"L_den":16,"R_num":2,"R_den":5,"correct_side":1,"subjID":"MaatiasCruz20","gender":"0","school":"4","age":"10"},{"start_time":1552069144944,"click_time":1552069146440,"finger_time":1552069145781,"fix_duration":743.5168686486144,"trial":12,"RT":837,"MT":659,"sideResp":2,"stimulus":[],"xmouse":[788,788,788,788,788,788,788,788,788,788,788,788,788,788,788,788,788,788,788,788,788,788,788,788,788,788,788,788,788,788,788,788,788,788,788,788,789,790,792,798,802,805,806,807,808,808,808,808,809,815,821,827,831,835,836,836,840,843,847,862,871,883,897,907,924,928,941,953,967,990,1002,1014,1029,1046,1092],"ymouse":[631,631,631,631,631,631,631,631,631,631,631,631,631,631,631,631,631,631,631,631,631,631,631,631,631,631,631,631,632,631,630,629,628,628,628,628,624,623,615,595,581,571,561,554,548,547,547,547,546,535,522,509,492,476,433,413,383,362,339,291,273,253,233,221,201,197,191,184,176,164,154,143,129,109,58],"timestamp_mouse":[18,36,57,76,96,115,135,156,177,195,215,236,257,275,296,315,337,357,377,395,415,435,456,476,495,515,535,555,575,595,615,636,655,676,695,716,735,755,775,795,816,837,855,876,895,915,936,955,975,996,1016,1036,1057,1076,1096,1116,1135,1157,1175,1196,1216,1236,1256,1275,1296,1316,1336,1356,1376,1396,1415,1436,1455,1475,1496],"xSR":741.5,"ySR":573.95,"xT1":424.9,"yT1":0,"xT2":1058.1,"yT2":0,"toosoon":0,"cond_shown":"Congruent","ratio_trial":200,"L_num":3,"L_den":10,"R_num":11,"R_den":22,"correct_side":2,"subjID":"MaatiasCruz20","gender":"0","school":"4","age":"10"},{"start_time":1552069149985,"click_time":1552069151999,"finger_time":1552069151319,"fix_duration":1305.5336536593954,"trial":13,"RT":1334,"MT":680,"sideResp":2,"stimulus":[],"xmouse":[785,785,785,785,785,785,785,785,785,785,785,785,785,785,785,785,785,785,785,785,785,785,785,785,785,785,785,785,785,785,785,785,785,785,785,785,785,785,785,785,785,785,785,785,785,785,785,785,785,786,787,787,790,791,791,791,791,791,791,791,791,793,793,799,802,804,808,818,821,830,842,855,889,902,914,925,935,946,960,965,966,967,970,982,989,995,1001,1008,1028,1036,1042,1044,1046,1052,1053,1054,1058,1068,1077,1086,1097],"ymouse":[631,631,631,631,631,631,631,631,631,631,631,631,631,631,631,631,631,631,631,631,631,631,631,631,631,631,631,631,631,631,631,631,631,631,631,631,631,631,631,631,631,631,631,631,631,631,631,631,630,628,625,621,615,615,614,614,614,614,614,612,610,607,605,592,587,580,573,555,549,534,514,492,439,418,401,381,364,346,313,304,298,295,287,258,246,236,227,216,182,168,157,152,147,139,138,137,134,125,114,101,84],"timestamp_mouse":[14,34,56,75,96,114,134,154,176,196,215,235,255,276,294,315,335,355,374,395,416,434,455,475,495,516,534,554,576,594,614,636,655,674,695,715,734,756,775,795,814,836,855,874,894,915,934,955,974,995,1014,1034,1055,1074,1094,1115,1135,1155,1174,1195,1215,1234,1254,1274,1294,1314,1334,1355,1375,1396,1414,1435,1455,1475,1495,1514,1534,1555,1574,1594,1616,1635,1655,1674,1695,1715,1734,1754,1774,1795,1815,1834,1854,1874,1895,1915,1934,1955,1975,1995,2014],"xSR":741.5,"ySR":573.95,"xT1":424.9,"yT1":0,"xT2":1058.1,"yT2":0,"toosoon":0,"cond_shown":"Incongruent","ratio_trial":300,"L_num":1,"L_den":2,"R_num":3,"R_den":15,"correct_side":1,"subjID":"MaatiasCruz20","gender":"0","school":"4","age":"10"},{"start_time":1552069157050,"click_time":1552069158621,"finger_time":1552069157621,"fix_duration":668.6163095349722,"trial":14,"RT":571,"MT":1000,"sideResp":2,"stimulus":[],"xmouse":[824,824,824,824,824,824,824,824,824,824,824,824,824,824,824,824,824,824,824,824,824,824,824,824,824,824,826,829,831,831,843,850,857,860,861,860,860,860,856,855,852,848,848,847,845,845,843,842,842,842,842,842,842,842,842,842,856,873,886,910,973,1005,1024,1037,1042,1044,1044,1044,1044,1044,1044,1044,1044,1044,1045,1045,1046,1053,1069],"ymouse":[595,595,595,595,595,595,595,595,595,595,595,595,595,595,595,595,596,596,597,597,597,597,597,597,597,595,586,580,573,573,541,520,500,488,481,476,475,475,475,474,474,473,473,473,473,473,470,468,467,466,464,462,460,458,454,448,406,378,352,312,198,145,99,69,51,43,43,43,43,43,43,43,43,43,42,42,42,43,46],"timestamp_mouse":[14,30,49,70,89,109,131,150,170,190,210,231,251,269,289,310,330,350,369,390,409,429,450,471,490,510,530,550,571,589,610,629,650,671,690,709,729,749,770,789,809,829,850,870,889,909,929,949,970,990,1009,1029,1049,1070,1089,1111,1130,1150,1169,1190,1210,1231,1250,1271,1290,1310,1329,1351,1371,1390,1410,1430,1450,1470,1489,1511,1530,1550,1571],"xSR":741.5,"ySR":573.95,"xT1":424.9,"yT1":0,"xT2":1058.1,"yT2":0,"toosoon":0,"cond_shown":"Congruent","ratio_trial":200,"L_num":5,"L_den":10,"R_num":14,"R_den":20,"correct_side":2,"subjID":"MaatiasCruz20","gender":"0","school":"4","age":"10"},{"start_time":1552069159930,"click_time":1552069161540,"finger_time":1552069160979,"fix_duration":250,"trial":15,"RT":1049,"MT":561,"sideResp":1,"stimulus":[],"xmouse":[797,797,797,797,797,797,797,797,797,797,797,797,797,797,797,797,797,797,797,797,797,797,797,797,797,797,797,797,797,797,797,797,797,797,797,797,797,797,797,797,797,797,797,797,797,797,797,797,798,798,798,798,792,787,779,774,772,768,768,768,771,759,745,730,714,699,677,614,600,589,579,571,564,558,551,536,530,530,530,530,523],"ymouse":[653,653,653,653,653,653,653,653,653,653,653,653,653,653,653,653,653,653,653,653,653,653,653,653,653,653,653,653,653,653,653,653,653,653,653,653,653,653,653,653,653,653,653,653,653,653,653,653,653,652,639,611,571,550,527,507,488,446,424,404,379,350,333,315,296,276,252,203,184,172,164,157,132,114,95,73,68,68,68,68,59],"timestamp_mouse":[10,30,50,70,90,110,131,149,169,190,211,230,249,269,290,311,330,350,371,391,409,430,450,470,489,510,529,549,570,591,611,630,650,670,690,710,730,750,769,790,810,831,850,869,889,909,929,950,969,990,1010,1029,1049,1069,1089,1109,1130,1150,1169,1189,1210,1230,1249,1269,1290,1310,1330,1349,1369,1391,1409,1430,1451,1469,1491,1511,1530,1549,1570,1589,1610],"xSR":741.5,"ySR":573.95,"xT1":424.9,"yT1":0,"xT2":1058.1,"yT2":0,"toosoon":0,"cond_shown":"Congruent","ratio_trial":300,"L_num":8,"L_den":15,"R_num":10,"R_den":12,"correct_side":2,"subjID":"MaatiasCruz20","gender":"0","school":"4","age":"10"},{"start_time":1552069171516,"click_time":1552069172960,"finger_time":1552069172639,"fix_duration":1335.6324787174512,"trial":16,"RT":1123,"MT":321,"sideResp":2,"stimulus":[],"xmouse":[786,786,786,786,786,786,786,786,786,786,786,786,786,786,786,786,786,786,786,786,786,786,786,786,786,786,786,786,786,786,786,786,786,786,786,786,786,786,786,786,786,786,786,786,786,786,786,784,783,783,784,785,785,786,788,791,793,795,797,804,807,809,814,821,851,872,897,923,969,1017,1035,1048,1059],"ymouse":[631,631,631,631,631,631,631,631,631,631,631,631,631,631,631,631,631,631,631,631,631,631,631,631,631,631,631,631,631,631,631,631,631,631,631,631,631,631,631,631,631,631,631,631,631,631,631,626,614,597,593,591,589,587,581,574,564,560,553,535,529,525,513,496,402,329,265,213,142,82,66,56,49],"timestamp_mouse":[4,24,43,65,83,103,123,144,165,183,203,224,244,263,283,304,324,345,365,383,403,424,443,464,485,503,523,545,564,584,603,624,645,664,684,705,723,744,764,785,803,824,844,863,883,903,923,945,964,984,1003,1024,1043,1063,1083,1104,1123,1143,1164,1183,1204,1224,1243,1263,1283,1303,1325,1343,1364,1383,1403,1423,1444],"xSR":741.5,"ySR":573.95,"xT1":424.9,"yT1":0,"xT2":1058.1,"yT2":0,"toosoon":0,"cond_shown":"Congruent","ratio_trial":200,"L_num":3,"L_den":10,"R_num":11,"R_den":22,"correct_side":2,"subjID":"MaatiasCruz20","gender":"0","school":"4","age":"10"},{"start_time":1552069180074,"click_time":1552069181880,"finger_time":1552069181519,"fix_duration":1093.6203397118381,"trial":17,"RT":1445,"MT":361,"sideResp":2,"stimulus":[],"xmouse":[783,783,783,783,783,783,783,783,783,783,783,783,783,783,783,783,783,783,783,783,783,783,783,783,783,783,783,783,783,783,783,783,783,783,783,783,783,783,783,783,783,783,783,783,783,783,783,783,783,783,783,783,783,783,783,783,783,783,783,783,783,783,783,783,783,783,783,783,783,787,794,802,821,837,858,875,889,914,923,933,942,949,967,979,981,989,996,1020,1034,1052,1071],"ymouse":[646,646,646,646,646,646,646,646,646,646,646,646,646,646,646,646,646,646,646,646,646,646,646,646,646,646,646,646,646,646,646,646,646,646,646,646,646,646,646,646,646,646,646,646,646,646,646,646,646,646,646,646,646,646,646,646,646,646,646,646,646,646,646,646,646,646,646,646,644,627,603,574,509,466,412,372,339,281,261,241,224,210,178,163,160,154,146,117,97,72,49],"timestamp_mouse":[6,26,46,65,86,105,127,145,165,186,207,227,246,265,286,306,326,345,367,385,406,426,447,465,486,505,527,547,566,586,606,626,647,667,685,705,726,747,766,785,807,827,847,866,885,906,925,946,967,985,1006,1025,1046,1067,1085,1105,1125,1145,1166,1187,1206,1226,1246,1265,1286,1307,1325,1346,1365,1386,1406,1425,1445,1465,1485,1507,1526,1545,1565,1586,1605,1627,1645,1666,1685,1705,1726,1746,1766,1786,1806],"xSR":741.5,"ySR":573.95,"xT1":424.9,"yT1":0,"xT2":1058.1,"yT2":0,"toosoon":0,"cond_shown":"Incongruent","ratio_trial":300,"L_num":8,"L_den":10,"R_num":9,"R_den":18,"correct_side":1,"subjID":"MaatiasCruz20","gender":"0","school":"4","age":"10"},{"start_time":1552069183126,"click_time":1552069184939,"finger_time":1552069184741,"fix_duration":264.65087480600346,"trial":18,"RT":1615,"MT":198,"sideResp":2,"stimulus":[],"xmouse":[785,785,785,785,785,785,785,785,785,785,785,785,785,785,785,785,785,785,785,785,785,785,785,785,785,785,785,785,785,785,785,785,785,785,785,785,785,785,785,785,785,785,785,785,785,785,785,785,785,785,785,785,785,785,785,785,785,785,785,785,785,785,785,785,785,785,785,785,785,785,785,785,785,786,787,794,797,804,811,833,849,866,881,895,916,927,944,963,995,1079,1101],"ymouse":[663,663,663,663,663,663,663,663,663,663,663,663,663,663,663,663,663,663,663,663,663,663,663,663,663,663,663,663,663,663,663,663,663,663,663,663,663,663,663,663,663,663,663,663,663,663,663,663,663,663,663,663,663,663,663,663,663,663,663,663,663,663,663,663,663,663,663,663,663,663,663,663,663,663,663,654,648,637,625,578,551,518,485,453,404,380,342,301,247,101,45],"timestamp_mouse":[14,34,54,73,94,114,133,154,174,193,213,233,254,274,295,314,333,355,374,394,414,433,454,474,493,513,534,554,574,594,613,635,653,673,694,715,733,755,773,795,813,834,854,874,893,914,935,955,973,993,1015,1034,1054,1074,1093,1113,1133,1154,1173,1193,1213,1234,1254,1274,1294,1313,1334,1354,1374,1394,1413,1433,1455,1473,1493,1513,1533,1553,1573,1594,1615,1633,1654,1674,1694,1714,1735,1753,1774,1794,1813],"xSR":741.5,"ySR":573.95,"xT1":424.9,"yT1":0,"xT2":1058.1,"yT2":0,"toosoon":0,"cond_shown":"Incongruent","ratio_trial":300,"L_num":4,"L_den":5,"R_num":6,"R_den":12,"correct_side":1,"subjID":"MaatiasCruz20","gender":"0","school":"4","age":"10"},{"start_time":1552069188093,"click_time":1552069190560,"finger_time":1552069189959,"fix_duration":512.0117449298023,"trial":19,"RT":1866,"MT":601,"sideResp":2,"stimulus":[],"xmouse":[831,831,831,831,831,831,831,831,831,831,831,831,831,831,831,831,831,831,831,831,831,831,831,831,831,831,831,831,831,831,831,831,831,831,831,831,831,831,831,831,831,831,831,831,831,831,831,831,831,831,831,831,831,831,831,831,831,831,831,831,831,831,831,831,831,831,831,831,831,831,831,831,831,831,831,831,831,831,831,831,831,831,831,831,831,831,831,831,831,831,831,834,836,849,853,857,857,857,857,857,857,857,860,867,878,891,906,938,943,1018,1074,1131,1198,1201,1197,1166,1146,1135,1135,1135,1135,1135,1134,1131],"ymouse":[647,647,647,647,647,647,647,647,647,647,647,647,647,647,647,647,647,647,647,647,647,647,647,647,647,647,647,647,647,647,647,647,647,647,647,647,647,647,647,647,647,647,647,647,647,647,647,647,647,647,647,647,647,647,647,647,647,647,647,647,647,647,647,647,647,647,647,647,647,647,647,647,647,647,647,647,647,647,647,647,647,647,647,647,647,647,647,647,647,647,647,647,645,638,636,634,634,634,634,634,634,634,631,626,619,610,599,564,556,466,385,298,167,130,66,0,0,0,0,0,0,0,0,2],"timestamp_mouse":[8,26,48,67,87,106,128,146,167,188,206,226,248,267,286,307,326,347,366,387,408,427,447,467,487,506,527,547,566,588,606,626,648,667,687,707,727,748,766,788,807,826,846,867,888,906,927,948,966,987,1008,1027,1046,1067,1086,1108,1126,1146,1167,1187,1208,1227,1246,1266,1286,1308,1326,1347,1366,1386,1407,1426,1447,1467,1488,1507,1526,1547,1567,1588,1607,1627,1647,1667,1686,1706,1728,1748,1767,1787,1807,1826,1846,1866,1887,1908,1926,1947,1967,1988,2007,2026,2046,2066,2086,2107,2126,2147,2167,2187,2207,2226,2247,2267,2287,2307,2327,2347,2366,2386,2408,2427,2447,2467],"xSR":741.5,"ySR":573.95,"xT1":424.9,"yT1":0,"xT2":1058.1,"yT2":0,"toosoon":0,"cond_shown":"Congruent","ratio_trial":200,"L_num":3,"L_den":10,"R_num":7,"R_den":14,"correct_side":2,"subjID":"MaatiasCruz20","gender":"0","school":"4","age":"10"},{"start_time":1552069192071,"click_time":1552069193460,"finger_time":1552069193280,"fix_duration":250,"trial":20,"RT":1209,"MT":180,"sideResp":2,"stimulus":[],"xmouse":[808,808,808,808,808,808,808,808,808,808,808,808,808,808,808,808,808,808,808,808,808,809,809,809,809,809,809,809,809,809,809,809,809,809,809,809,809,809,809,809,809,809,809,810,810,810,811,811,812,813,813,815,816,816,816,816,818,821,828,831,835,842,852,866,913,944,983,1053,1069,1093],"ymouse":[656,656,656,656,656,656,656,656,656,656,656,656,656,656,656,656,656,656,656,656,655,655,655,655,655,655,655,655,655,655,655,655,655,655,655,655,655,655,655,655,655,654,654,654,653,653,653,652,651,648,647,644,642,641,641,640,637,632,610,586,565,536,500,456,336,273,214,132,114,75],"timestamp_mouse":[10,29,49,69,89,108,129,148,169,188,208,228,248,268,288,308,329,348,369,388,408,428,448,469,488,508,528,548,568,590,608,629,648,668,690,710,728,749,768,790,809,828,848,870,890,908,929,949,969,988,1008,1030,1048,1068,1088,1109,1130,1148,1169,1188,1209,1229,1250,1269,1289,1308,1328,1350,1370,1389],"xSR":741.5,"ySR":573.95,"xT1":424.9,"yT1":0,"xT2":1058.1,"yT2":0,"toosoon":0,"cond_shown":"Incongruent","ratio_trial":200,"L_num":7,"L_den":10,"R_num":14,"R_den":28,"correct_side":1,"subjID":"MaatiasCruz20","gender":"0","school":"4","age":"10"},{"start_time":1552069195961,"click_time":1552069197643,"finger_time":1552069196982,"fix_duration":1319.0245149404166,"trial":21,"RT":1021,"MT":661,"sideResp":1,"stimulus":[],"xmouse":[821,821,821,821,821,821,821,821,821,822,822,822,822,822,823,823,824,824,824,824,824,824,824,824,824,824,824,824,824,824,824,824,824,824,824,824,824,824,824,824,824,824,824,824,824,824,825,825,825,825,819,815,812,799,788,776,773,769,763,760,758,758,757,756,748,727,711,693,674,652,614,601,593,588,586,586,586,586,585,583,563,551,535,527,523],"ymouse":[608,608,608,608,608,608,608,608,608,608,608,608,608,608,608,608,607,607,607,607,607,606,606,606,606,606,606,606,606,606,606,606,606,606,606,606,606,606,606,606,606,606,606,606,606,606,605,599,592,586,574,562,553,507,466,394,366,332,296,274,244,232,213,205,179,146,130,118,110,101,88,84,81,79,79,79,79,79,78,77,71,67,64,63,63],"timestamp_mouse":[3,20,40,60,80,101,120,140,160,181,202,222,240,260,280,302,320,340,362,381,402,420,441,460,480,502,522,541,560,581,602,620,641,662,680,700,721,741,760,781,801,822,840,861,880,900,920,940,961,980,1000,1021,1042,1061,1081,1102,1120,1141,1161,1181,1200,1221,1240,1260,1281,1300,1320,1340,1360,1381,1400,1420,1441,1461,1480,1501,1521,1540,1561,1581,1600,1621,1640,1660,1682],"xSR":741.5,"ySR":573.95,"xT1":424.9,"yT1":0,"xT2":1058.1,"yT2":0,"toosoon":0,"cond_shown":"Incongruent","ratio_trial":200,"L_num":7,"L_den":15,"R_num":4,"R_den":6,"correct_side":2,"subjID":"MaatiasCruz20","gender":"0","school":"4","age":"10"},{"start_time":1552069198953,"click_time":1552069201422,"finger_time":1552069200862,"fix_duration":250,"trial":22,"RT":1909,"MT":560,"sideResp":1,"stimulus":[],"xmouse":[778,778,778,778,778,778,778,778,778,778,778,778,778,778,778,778,778,778,778,778,778,778,778,778,778,778,778,778,778,778,778,778,778,778,778,778,778,778,778,778,778,778,778,778,778,778,778,778,778,778,778,778,778,778,778,778,778,778,778,778,778,778,778,778,778,778,778,778,778,778,778,778,778,778,778,778,778,778,778,778,778,778,778,778,778,778,778,778,778,778,778,778,779,779,777,758,570,470,387,344,337,339,340,342,345,354,357,362,371,390,443,481,504,525,536,545,549,551,552,552,539,527,522,515],"ymouse":[668,668,668,668,668,668,668,668,668,668,668,668,668,668,668,668,668,668,668,668,668,668,668,668,668,668,668,668,668,668,668,668,668,668,668,668,668,668,668,668,668,668,668,668,668,668,668,668,668,668,668,668,668,668,668,668,668,668,668,668,668,668,668,668,668,668,668,668,668,668,668,668,668,668,668,668,668,668,668,668,668,668,668,668,668,668,668,668,668,668,668,668,668,668,670,676,666,635,603,579,560,542,515,510,507,496,484,468,449,420,329,249,190,139,95,44,24,6,0,0,0,0,0,3],"timestamp_mouse":[9,28,48,68,90,108,128,148,169,188,210,230,249,269,288,308,329,349,368,388,408,429,449,470,489,508,529,548,570,588,608,628,649,668,689,710,730,748,768,788,809,830,848,869,889,909,929,948,969,989,1008,1029,1050,1070,1088,1109,1130,1149,1169,1188,1209,1230,1249,1269,1289,1308,1329,1349,1368,1390,1408,1429,1448,1468,1488,1510,1528,1549,1570,1589,1608,1629,1648,1670,1688,1709,1728,1748,1768,1789,1808,1830,1849,1868,1888,1909,1928,1948,1969,1989,2008,2028,2048,2070,2088,2108,2128,2148,2169,2190,2208,2228,2248,2268,2289,2309,2328,2349,2369,2389,2409,2428,2449,2469],"xSR":741.5,"ySR":573.95,"xT1":424.9,"yT1":0,"xT2":1058.1,"yT2":0,"toosoon":0,"cond_shown":"Incongruent","ratio_trial":100,"L_num":9,"L_den":18,"R_num":6,"R_den":10,"correct_side":2,"subjID":"MaatiasCruz20","gender":"0","school":"4","age":"10"},{"start_time":1552069207564,"click_time":1552069209501,"finger_time":1552069208982,"fix_duration":1059.798088740268,"trial":23,"RT":1418,"MT":519,"sideResp":2,"stimulus":[],"xmouse":[816,816,816,816,816,816,816,816,816,816,816,816,816,816,816,816,816,816,816,816,816,816,816,816,816,816,816,816,816,816,816,816,816,816,816,816,816,816,816,816,816,816,816,816,816,816,816,816,816,816,816,816,816,816,816,816,816,816,816,816,816,816,816,816,816,816,817,820,823,827,841,852,868,882,903,1044,1225,1345,1439,1485,1543,1557,1568,1568,1568,1568,1566,1566,1566,1566,1565,1512,1446,1361,1282,1204,1102],"ymouse":[599,599,599,599,599,599,599,599,599,599,599,599,599,599,599,599,599,599,599,599,599,599,599,599,599,599,599,599,599,599,599,599,599,599,599,599,599,599,599,599,599,599,599,599,599,599,599,599,599,599,599,599,599,599,599,599,599,599,599,599,599,599,599,599,599,599,598,592,589,583,557,538,516,498,474,261,12,0,0,0,0,0,0,0,0,0,0,0,0,0,0,17,31,46,58,76,92],"timestamp_mouse":[22,37,58,77,98,117,138,158,178,197,219,238,258,277,297,319,338,358,378,398,419,437,458,478,497,518,538,557,577,598,617,637,657,677,698,717,737,758,778,799,817,838,857,878,898,917,938,958,978,998,1018,1038,1057,1078,1098,1118,1138,1157,1178,1198,1217,1238,1259,1279,1297,1317,1338,1357,1378,1397,1418,1437,1457,1477,1498,1517,1538,1557,1578,1597,1619,1637,1657,1678,1698,1718,1738,1757,1777,1797,1818,1837,1857,1878,1898,1917,1937],"xSR":741.5,"ySR":573.95,"xT1":424.9,"yT1":0,"xT2":1058.1,"yT2":0,"toosoon":0,"cond_shown":"Congruent","ratio_trial":100,"L_num":6,"L_den":12,"R_num":15,"R_den":25,"correct_side":2,"subjID":"MaatiasCruz20","gender":"0","school":"4","age":"10"},{"start_time":1552069212043,"click_time":1552069213901,"finger_time":1552069213461,"fix_duration":281.261041699122,"trial":24,"RT":1418,"MT":440,"sideResp":1,"stimulus":[],"xmouse":[813,812,811,810,809,809,809,808,808,808,808,808,806,805,803,802,801,800,799,799,799,799,799,799,799,799,799,799,799,799,799,799,799,799,799,799,799,799,799,799,799,799,799,799,799,798,797,794,794,794,794,794,794,794,794,794,794,794,794,794,794,794,794,794,794,794,794,794,794,794,778,765,759,759,767,775,782,783,783,783,783,783,783,783,783,783,783,776,736,678,591,550,511],"ymouse":[622,623,624,625,626,627,627,628,628,628,628,628,629,629,629,630,630,630,631,631,631,631,631,631,631,631,631,631,631,631,631,631,631,631,631,631,631,631,631,631,631,631,631,631,631,624,621,614,613,613,613,613,613,613,613,613,613,613,613,613,613,613,613,613,612,612,612,608,600,585,533,474,281,183,116,76,63,59,59,59,59,59,59,59,59,59,59,58,58,58,58,58,57],"timestamp_mouse":[18,38,58,78,98,118,138,159,178,198,219,240,259,278,300,318,338,360,380,399,419,440,458,478,499,518,539,559,578,599,618,638,658,679,699,719,739,759,778,798,819,840,858,879,898,918,939,959,980,999,1019,1039,1058,1078,1099,1120,1139,1159,1179,1198,1218,1238,1258,1278,1299,1318,1338,1358,1379,1399,1418,1438,1459,1479,1498,1519,1538,1559,1578,1598,1618,1639,1659,1678,1699,1720,1738,1758,1778,1799,1818,1840,1858],"xSR":741.5,"ySR":573.95,"xT1":424.9,"yT1":0,"xT2":1058.1,"yT2":0,"toosoon":0,"cond_shown":"Congruent","ratio_trial":200,"L_num":6,"L_den":15,"R_num":3,"R_den":15,"correct_side":1,"subjID":"MaatiasCruz20","gender":"0","school":"4","age":"10"},{"start_time":1552069216794,"click_time":1552069218721,"finger_time":1552069217741,"fix_duration":250,"trial":25,"RT":947,"MT":980,"sideResp":2,"stimulus":[],"xmouse":[788,788,788,788,788,788,788,788,789,789,791,791,792,792,792,793,793,793,794,794,794,794,794,794,794,794,794,794,794,794,794,794,794,794,794,794,794,794,794,794,794,795,795,797,797,804,807,810,811,813,813,813,813,813,813,813,813,813,814,814,820,828,834,838,844,851,891,898,904,907,926,940,949,957,966,995,1017,1052,1079,1105,1145,1165,1174,1176,1177,1177,1177,1177,1177,1177,1177,1177,1177,1177,1177,1170,1116],"ymouse":[618,618,618,618,618,618,618,618,618,618,617,616,615,615,615,614,614,614,613,613,613,613,613,613,613,613,613,613,613,613,613,613,613,613,613,613,613,613,613,613,613,612,610,606,603,584,575,568,562,559,557,555,555,555,555,555,555,554,551,548,532,516,501,491,478,460,386,370,361,356,334,313,300,288,277,252,228,192,167,149,120,106,99,98,97,97,97,97,97,97,97,97,97,97,97,95,81],"timestamp_mouse":[7,27,47,68,88,109,128,148,168,188,208,227,249,267,287,308,328,347,367,387,408,428,447,468,487,508,529,549,568,588,607,629,647,667,687,707,728,749,768,787,807,829,847,868,887,907,927,947,968,988,1007,1027,1047,1067,1087,1108,1127,1147,1167,1187,1207,1227,1247,1269,1287,1308,1327,1347,1367,1388,1408,1427,1447,1467,1487,1507,1528,1547,1567,1588,1607,1628,1647,1667,1687,1707,1727,1749,1768,1788,1808,1829,1848,1867,1888,1908,1927],"xSR":741.5,"ySR":573.95,"xT1":424.9,"yT1":0,"xT2":1058.1,"yT2":0,"toosoon":0,"cond_shown":"Congruent","ratio_trial":300,"L_num":1,"L_den":3,"R_num":19,"R_den":30,"correct_side":2,"subjID":"MaatiasCruz20","gender":"0","school":"4","age":"10"},{"start_time":1552069220939,"click_time":1552069222522,"finger_time":1552069222401,"fix_duration":916.0562972076091,"trial":26,"RT":1462,"MT":121,"sideResp":2,"stimulus":[],"xmouse":[772,772,772,772,772,772,772,772,772,772,772,772,773,773,774,774,774,774,774,774,775,775,775,775,775,775,775,775,775,775,776,777,777,778,778,778,778,778,778,778,778,778,778,778,780,780,781,781,783,783,786,786,786,786,786,786,786,786,786,786,786,786,786,786,786,786,786,786,787,787,787,788,792,794,825,847,879,905,966,1107],"ymouse":[615,615,615,615,615,615,615,615,615,615,615,615,615,615,615,615,615,615,615,615,615,615,615,615,615,615,615,615,615,615,615,615,615,614,614,614,614,614,614,614,614,614,614,614,613,613,613,613,611,611,610,610,609,609,609,609,609,609,609,609,609,609,609,609,609,609,609,609,608,604,600,591,579,573,490,427,349,292,213,95],"timestamp_mouse":[3,22,43,64,83,102,123,144,164,183,202,223,243,264,282,303,323,344,363,382,402,423,444,462,483,503,522,544,563,582,602,623,643,662,683,702,723,743,762,783,802,823,842,862,882,902,923,942,962,982,1002,1023,1042,1064,1082,1103,1123,1143,1164,1182,1204,1223,1243,1262,1283,1304,1323,1342,1363,1382,1403,1423,1442,1462,1482,1502,1524,1542,1563,1583],"xSR":741.5,"ySR":573.95,"xT1":424.9,"yT1":0,"xT2":1058.1,"yT2":0,"toosoon":0,"cond_shown":"Incongruent","ratio_trial":200,"L_num":1,"L_den":3,"R_num":2,"R_den":15,"correct_side":1,"subjID":"MaatiasCruz20","gender":"0","school":"4","age":"10"},{"start_time":1552069224779,"click_time":1552069226822,"finger_time":1552069226521,"fix_duration":1076.82290471581,"trial":27,"RT":1742,"MT":301,"sideResp":1,"stimulus":[],"xmouse":[792,792,792,792,792,792,792,792,792,792,792,792,792,792,792,792,792,792,792,792,792,792,792,792,792,792,792,792,792,792,792,792,792,792,792,792,792,792,792,792,792,792,792,792,792,792,792,792,792,792,792,792,792,792,792,792,792,792,792,792,792,792,792,792,792,792,792,792,792,792,792,792,792,792,792,792,792,792,792,792,792,792,792,792,792,792,790,727,670,610,528,497,488,492,494,494,494,494,494,494,494,494,489],"ymouse":[672,672,672,672,672,672,672,672,672,672,672,672,672,672,672,672,672,672,672,672,672,672,672,672,672,672,672,672,672,672,672,672,672,672,672,672,672,672,672,672,672,672,672,672,672,672,672,672,672,672,672,672,672,672,672,672,672,672,672,672,672,672,672,672,672,672,672,672,672,672,672,672,672,672,672,672,672,672,672,672,672,672,672,672,672,664,643,427,272,91,0,0,0,0,0,0,0,0,0,0,0,0,4],"timestamp_mouse":[3,24,44,62,82,103,123,144,164,182,204,223,242,262,282,303,324,344,362,382,402,423,442,463,482,504,524,542,562,584,604,622,642,664,682,703,722,743,763,783,804,822,843,863,882,903,923,944,963,984,1002,1022,1042,1063,1082,1104,1122,1142,1163,1182,1202,1224,1244,1262,1282,1302,1323,1342,1363,1382,1404,1424,1442,1463,1483,1503,1522,1543,1562,1583,1604,1624,1643,1662,1683,1702,1722,1742,1763,1784,1803,1823,1843,1862,1882,1903,1922,1943,1963,1983,2003,2023,2043],"xSR":741.5,"ySR":573.95,"xT1":424.9,"yT1":0,"xT2":1058.1,"yT2":0,"toosoon":0,"cond_shown":"Congruent","ratio_trial":100,"L_num":3,"L_den":6,"R_num":2,"R_den":5,"correct_side":1,"subjID":"MaatiasCruz20","gender":"0","school":"4","age":"10"},{"start_time":1552069228820,"click_time":1552069230681,"finger_time":1552069229941,"fix_duration":1217.3527285855919,"trial":28,"RT":1121,"MT":740,"sideResp":1,"stimulus":[],"xmouse":[773,773,773,773,773,773,773,773,773,773,773,773,773,773,773,773,773,773,773,773,773,773,773,773,773,773,773,773,773,773,773,773,773,773,773,773,773,773,773,773,773,773,773,773,773,773,773,772,772,773,773,773,773,773,774,776,780,790,791,796,797,801,801,801,800,793,784,782,779,779,778,772,760,740,719,698,683,670,654,630,599,558,542,524,505,493,476,476,476,476,477,480,482,484],"ymouse":[631,631,631,631,631,631,631,631,631,631,631,631,631,631,631,631,631,631,631,631,631,631,631,631,631,631,631,631,631,631,631,631,631,631,631,631,631,631,631,631,631,631,631,631,631,631,631,630,626,621,617,614,613,613,613,589,528,452,442,408,394,350,334,318,302,273,246,238,236,236,235,234,233,229,227,224,221,217,213,205,198,186,178,171,160,150,135,135,135,134,132,119,106,96],"timestamp_mouse":[3,24,41,61,81,102,123,141,161,181,201,221,242,261,282,301,322,342,361,383,402,421,441,462,482,502,522,541,561,581,602,623,641,661,682,702,722,741,761,781,802,821,842,862,881,901,921,941,963,983,1001,1021,1041,1061,1081,1102,1121,1141,1161,1181,1201,1221,1241,1263,1281,1302,1322,1341,1361,1381,1402,1421,1441,1463,1482,1502,1522,1541,1561,1581,1601,1621,1641,1661,1681,1701,1722,1742,1761,1782,1801,1821,1841,1861],"xSR":741.5,"ySR":573.95,"xT1":424.9,"yT1":0,"xT2":1058.1,"yT2":0,"toosoon":0,"cond_shown":"Congruent","ratio_trial":100,"L_num":11,"L_den":22,"R_num":4,"R_den":10,"correct_side":1,"subjID":"MaatiasCruz20","gender":"0","school":"4","age":"10"},{"start_time":1552069233167,"click_time":1552069234841,"finger_time":1552069234541,"fix_duration":1405.9412944824949,"trial":29,"RT":1374,"MT":300,"sideResp":1,"stimulus":[],"xmouse":[804,804,804,804,804,804,804,804,804,804,804,804,804,804,804,804,804,804,804,804,804,804,804,804,804,804,804,804,804,804,804,804,804,804,804,804,804,805,805,805,805,805,805,805,805,806,806,806,806,806,806,806,806,806,806,806,806,806,806,806,806,806,807,807,807,807,807,807,796,795,795,795,795,771,761,757,757,757,756,743,724,695,653,522],"ymouse":[613,613,613,613,613,613,613,613,613,613,613,613,613,613,613,613,613,613,613,613,613,613,613,613,613,613,613,613,613,613,613,612,611,611,610,610,610,608,608,608,607,606,606,606,606,605,605,604,604,604,604,604,604,604,604,604,604,604,604,604,604,604,603,602,600,598,595,586,531,492,427,334,234,105,93,89,89,89,89,87,84,80,73,55],"timestamp_mouse":[14,35,54,74,96,116,135,156,175,195,216,234,254,275,296,314,334,354,375,395,414,434,455,475,495,514,536,554,574,595,614,634,655,675,694,714,734,754,775,795,815,836,854,876,895,915,935,954,974,994,1014,1035,1054,1075,1095,1116,1136,1154,1174,1195,1215,1234,1254,1274,1294,1314,1335,1355,1374,1395,1414,1434,1454,1474,1495,1516,1534,1555,1575,1594,1614,1634,1654,1674],"xSR":741.5,"ySR":573.95,"xT1":424.9,"yT1":0,"xT2":1058.1,"yT2":0,"toosoon":0,"cond_shown":"Congruent","ratio_trial":100,"L_num":9,"L_den":15,"R_num":8,"R_den":16,"correct_side":1,"subjID":"MaatiasCruz20","gender":"0","school":"4","age":"10"},{"start_time":1552069237533,"click_time":1552069239541,"finger_time":1552069239221,"fix_duration":250,"trial":30,"RT":1688,"MT":320,"sideResp":2,"stimulus":[],"xmouse":[784,784,784,784,784,784,784,784,784,784,784,784,784,784,784,784,784,784,784,784,784,784,784,784,784,784,784,784,784,784,784,784,784,784,784,784,784,784,784,784,784,784,784,784,784,784,784,784,784,784,784,784,784,784,784,784,784,784,784,784,784,784,784,784,784,784,784,784,784,784,784,784,784,784,784,784,784,784,784,784,784,784,784,784,811,828,939,967,1002,1037,1065,1122,1136,1140,1141,1142,1142,1142,1142,1142,1140],"ymouse":[613,613,613,613,613,613,613,613,613,613,613,613,613,613,613,613,613,613,613,613,613,613,613,613,613,613,613,613,613,613,613,613,613,613,613,613,613,613,613,613,613,613,613,613,613,613,613,613,613,613,613,613,613,613,613,613,613,613,613,613,613,613,613,613,613,613,613,613,613,613,613,613,613,613,613,613,613,613,613,613,613,613,613,613,561,519,326,289,248,212,186,134,118,112,110,110,108,107,104,100,98],"timestamp_mouse":[11,28,49,69,90,108,129,149,168,189,209,230,249,268,289,308,329,348,369,388,410,429,448,468,490,509,529,548,568,588,609,628,648,668,688,708,728,749,768,788,809,828,849,868,889,910,928,949,968,990,1010,1028,1048,1068,1089,1110,1129,1149,1169,1188,1208,1229,1248,1269,1290,1308,1329,1348,1369,1389,1410,1428,1448,1468,1488,1508,1530,1549,1568,1588,1609,1629,1648,1668,1688,1708,1729,1748,1768,1788,1809,1828,1848,1869,1888,1909,1928,1948,1969,1988,2008],"xSR":741.5,"ySR":573.95,"xT1":424.9,"yT1":0,"xT2":1058.1,"yT2":0,"toosoon":0,"cond_shown":"Congruent","ratio_trial":300,"L_num":5,"L_den":25,"R_num":6,"R_den":12,"correct_side":2,"subjID":"MaatiasCruz20","gender":"0","school":"4","age":"10"},{"start_time":1552069241150,"click_time":1552069242441,"finger_time":1552069242101,"fix_duration":586.7848643587683,"trial":31,"RT":951,"MT":340,"sideResp":2,"stimulus":[],"xmouse":[786,786,786,786,786,786,786,786,786,786,786,786,786,786,786,786,786,786,786,786,786,786,786,786,786,786,786,786,786,786,786,786,786,786,786,786,786,786,786,786,786,786,786,786,786,788,801,819,827,850,938,968,985,995,1007,1013,1014,1016,1016,1016,1020,1034,1046,1060,1064],"ymouse":[605,605,605,605,605,605,605,605,605,605,605,605,605,605,605,605,605,605,605,605,605,605,605,605,605,605,605,605,605,605,605,605,605,605,605,605,605,605,605,605,605,605,605,605,605,603,589,567,554,514,386,349,321,300,275,261,256,254,252,252,236,198,168,123,99],"timestamp_mouse":[15,32,52,71,91,111,132,152,172,191,212,232,251,272,292,312,332,352,372,392,412,432,451,472,492,511,531,552,573,592,611,632,653,673,691,711,731,752,771,791,811,831,851,871,893,911,931,951,971,991,1012,1032,1053,1072,1091,1111,1132,1151,1171,1192,1211,1231,1251,1271,1291],"xSR":741.5,"ySR":573.95,"xT1":424.9,"yT1":0,"xT2":1058.1,"yT2":0,"toosoon":0,"cond_shown":"Incongruent","ratio_trial":100,"L_num":6,"L_den":10,"R_num":13,"R_den":26,"correct_side":1,"subjID":"MaatiasCruz20","gender":"0","school":"4","age":"10"},{"start_time":1552069243825,"click_time":1552069245522,"finger_time":1552069245241,"fix_duration":463.2189299299868,"trial":32,"RT":1416,"MT":281,"sideResp":2,"stimulus":[],"xmouse":[807,807,807,807,807,807,807,807,807,807,807,807,807,807,807,807,807,807,807,807,807,807,807,807,807,807,807,807,807,807,807,807,807,807,807,807,807,807,807,807,807,807,807,807,807,807,807,807,807,807,807,807,807,807,807,807,807,807,807,807,807,807,807,807,807,807,807,807,811,817,827,866,885,897,906,917,941,954,968,985,1005,1036,1098,1113,1118],"ymouse":[655,655,655,655,655,655,655,655,655,655,655,655,655,655,655,655,655,655,655,655,655,655,655,655,655,655,655,655,655,655,655,655,655,655,655,655,655,655,655,655,655,655,655,655,655,655,655,655,655,655,655,655,655,655,655,655,655,655,655,655,655,655,655,655,655,655,655,643,625,604,570,480,446,420,398,370,288,261,254,246,233,200,126,104,93],"timestamp_mouse":[16,37,56,76,98,116,137,156,177,196,217,236,258,277,298,317,336,357,378,396,417,437,456,477,497,518,536,556,577,598,616,637,656,678,696,716,738,756,777,797,816,837,856,878,898,916,936,957,977,996,1016,1038,1056,1077,1097,1116,1136,1156,1176,1198,1216,1236,1257,1278,1297,1316,1337,1356,1376,1396,1416,1437,1457,1476,1498,1517,1536,1556,1576,1596,1616,1636,1656,1676,1697],"xSR":741.5,"ySR":573.95,"xT1":424.9,"yT1":0,"xT2":1058.1,"yT2":0,"toosoon":0,"cond_shown":"Congruent","ratio_trial":100,"L_num":15,"L_den":25,"R_num":13,"R_den":26,"correct_side":1,"subjID":"MaatiasCruz20","gender":"0","school":"4","age":"10"},{"start_time":1552069247032,"click_time":1552069249281,"finger_time":1552069248401,"fix_duration":250,"trial":33,"RT":1369,"MT":880,"sideResp":1,"stimulus":[],"xmouse":[828,828,828,828,828,828,828,828,828,828,828,828,827,827,827,826,825,825,825,825,824,824,824,824,824,824,824,824,824,824,824,824,824,824,824,824,824,824,824,824,824,824,824,824,824,824,824,824,824,824,824,824,824,824,824,824,824,824,824,824,824,824,824,823,819,808,804,780,772,760,756,749,746,741,736,732,720,710,695,689,655,592,577,577,577,577,577,575,569,562,553,550,547,546,545,543,514,500,488,481,479,476,469,458,451,450,450,450,449,449,449,449,449],"ymouse":[580,588,609,616,620,623,627,629,630,631,632,634,637,638,639,641,641,643,644,645,646,646,648,648,648,648,648,648,648,648,648,648,648,648,648,648,648,648,648,648,648,648,648,648,648,648,648,648,648,648,648,648,648,648,648,648,648,648,648,647,647,646,644,639,631,613,608,581,573,563,559,553,550,548,545,542,529,517,503,496,464,408,398,398,398,396,357,335,312,288,270,260,255,253,252,247,210,189,174,164,160,153,142,126,120,119,119,119,119,117,115,110,96],"timestamp_mouse":[9,29,49,70,90,109,129,151,170,190,211,229,249,269,290,309,330,350,371,389,410,429,449,469,491,510,530,549,569,589,610,629,650,669,690,710,730,749,769,791,809,830,850,871,890,910,930,949,971,989,1009,1030,1049,1070,1091,1110,1129,1150,1171,1191,1211,1229,1249,1270,1290,1310,1331,1349,1369,1390,1409,1429,1449,1469,1490,1511,1530,1549,1569,1589,1609,1630,1649,1669,1689,1709,1730,1750,1769,1790,1809,1829,1849,1869,1890,1910,1930,1949,1969,1989,2009,2030,2050,2069,2089,2109,2129,2150,2170,2189,2210,2229,2249],"xSR":741.5,"ySR":573.95,"xT1":424.9,"yT1":0,"xT2":1058.1,"yT2":0,"toosoon":0,"cond_shown":"Incongruent","ratio_trial":100,"L_num":8,"L_den":20,"R_num":1,"R_den":2,"correct_side":2,"subjID":"MaatiasCruz20","gender":"0","school":"4","age":"10"},{"start_time":1552069251355,"click_time":1552069253022,"finger_time":1552069252562,"fix_duration":552.0052498825725,"trial":34,"RT":1207,"MT":460,"sideResp":2,"stimulus":[],"xmouse":[776,776,776,776,776,776,776,776,776,776,776,776,776,776,776,776,776,776,776,776,776,776,776,776,776,776,776,776,776,776,776,776,776,782,791,808,812,812,812,812,812,812,812,812,812,812,812,812,812,812,812,812,812,812,812,814,823,828,829,836,859,886,898,908,915,920,923,923,923,923,923,923,926,931,934,935,935,938,942,955,980,1006,1056,1067],"ymouse":[652,652,652,652,652,652,652,652,652,652,652,652,652,652,652,652,652,652,652,652,652,652,652,652,652,652,652,652,652,652,652,652,652,655,659,666,667,667,667,667,667,667,667,667,667,667,667,667,667,667,667,667,667,667,667,667,668,669,669,669,669,665,658,648,639,626,523,431,331,177,95,15,1,0,0,0,0,0,0,0,4,10,25,28],"timestamp_mouse":[9,27,46,67,87,107,126,147,166,187,206,227,247,267,287,307,326,347,368,386,407,426,448,466,487,507,528,546,566,586,606,626,646,666,687,707,727,747,768,786,807,827,847,867,886,907,927,947,968,987,1006,1026,1047,1068,1086,1107,1126,1147,1166,1187,1207,1227,1247,1267,1286,1307,1326,1346,1367,1388,1406,1426,1447,1466,1486,1506,1527,1547,1566,1587,1607,1628,1647,1667],"xSR":741.5,"ySR":573.95,"xT1":424.9,"yT1":0,"xT2":1058.1,"yT2":0,"toosoon":0,"cond_shown":"Incongruent","ratio_trial":300,"L_num":4,"L_den":20,"R_num":2,"R_den":4,"correct_side":2,"subjID":"MaatiasCruz20","gender":"0","school":"4","age":"10"},{"start_time":1552069255544,"click_time":1552069256903,"finger_time":1552069256284,"fix_duration":1301.5845795025218,"trial":35,"RT":740,"MT":619,"sideResp":1,"stimulus":[],"xmouse":[782,782,782,782,782,782,782,782,782,782,782,782,782,782,782,782,782,782,782,782,782,782,782,782,782,782,782,782,782,782,782,782,782,782,781,776,769,751,742,737,732,730,729,729,728,724,721,716,712,707,701,691,657,636,619,600,574,559,547,539,531,518,496,492,492,492,492,481],"ymouse":[604,604,604,604,604,604,604,604,604,604,604,604,604,604,604,604,604,604,604,604,604,604,604,604,604,604,604,604,604,604,604,604,604,604,603,587,570,529,513,501,493,489,486,485,483,477,473,461,454,444,429,406,337,296,263,232,189,170,157,150,141,129,110,107,107,107,104,85],"timestamp_mouse":[17,39,57,77,97,119,137,158,179,198,218,237,257,279,297,318,337,357,378,398,417,439,459,479,500,519,539,559,579,601,621,639,660,681,699,719,740,759,779,799,820,839,859,880,899,919,941,960,980,999,1019,1039,1059,1080,1099,1119,1139,1160,1180,1200,1219,1239,1259,1280,1300,1320,1341,1359],"xSR":741.5,"ySR":573.95,"xT1":424.9,"yT1":0,"xT2":1058.1,"yT2":0,"toosoon":0,"cond_shown":"Congruent","ratio_trial":200,"L_num":1,"L_den":2,"R_num":21,"R_den":30,"correct_side":2,"subjID":"MaatiasCruz20","gender":"0","school":"4","age":"10"},{"start_time":1552069262402,"click_time":1552069267464,"finger_time":1552069265344,"fix_duration":1376.9299570834628,"trial":36,"RT":2942,"MT":2120,"sideResp":2,"stimulus":[],"xmouse":[807,807,807,807,807,807,807,807,807,807,807,807,807,807,807,807,807,807,807,807,807,807,807,807,807,807,807,807,807,807,807,807,807,807,807,807,807,807,807,807,807,807,807,807,807,807,807,807,807,807,807,807,807,807,807,807,807,807,807,807,807,807,807,807,807,807,807,807,807,807,807,807,807,807,807,807,807,807,807,807,807,807,807,807,807,807,807,807,807,807,807,807,807,807,807,807,807,807,807,807,807,807,807,807,807,807,807,807,807,807,807,807,807,807,807,807,807,807,807,807,807,807,807,807,807,807,807,807,807,807,807,807,807,807,807,807,807,807,807,807,807,807,807,807,807,810,827,838,842,844,846,846,846,846,846,846,846,843,842,841,838,834,834,833,821,799,773,771,771,771,771,773,773,773,773,773,773,774,777,788,808,812,812,812,812,812,812,813,813,813,813,813,812,810,810,809,805,802,798,795,793,793,793,793,793,792,793,795,797,798,798,798,796,789,778,770,765,765,764,767,777,814,847,879,908,935,997,1025,1056,1069,1078,1092,1095,1095,1095,1095,1095,1092,1084,1078,1077,1077,1077,1077,1076,1076,1074,1074,1073,1073,1073,1074,1074,1074],"ymouse":[638,638,638,638,638,638,638,638,638,638,638,638,638,638,638,638,638,638,638,638,638,638,638,638,638,638,638,638,638,638,638,638,638,638,638,638,638,638,638,638,638,638,638,638,638,638,638,638,638,638,638,638,638,638,638,638,638,638,638,638,638,638,638,638,638,638,638,638,638,638,638,638,638,638,638,638,638,638,638,638,638,638,638,638,638,638,638,638,638,638,638,638,638,638,638,638,638,638,638,638,638,638,638,638,638,638,638,638,638,638,638,638,638,638,638,638,638,638,638,638,638,638,638,638,638,638,638,638,638,638,638,638,638,638,638,638,638,638,638,638,638,638,638,638,638,634,586,567,558,553,549,549,549,549,549,549,548,546,546,546,546,545,545,545,549,558,565,566,566,566,566,566,566,566,566,566,566,566,567,571,580,583,584,584,586,587,588,590,591,593,597,604,606,609,610,610,611,611,611,612,612,612,612,612,612,612,608,606,604,603,603,603,603,603,605,605,605,605,605,596,582,540,510,483,458,435,376,343,303,285,270,237,226,224,224,224,221,215,188,171,154,124,114,111,110,110,109,108,107,107,106,102,100,98],"timestamp_mouse":[3,23,42,63,82,102,122,142,161,181,203,223,242,262,281,302,323,341,363,383,401,421,442,462,481,502,521,541,561,581,602,621,642,663,681,702,723,741,761,783,801,822,841,862,881,902,921,941,962,981,1001,1022,1042,1063,1082,1101,1122,1141,1162,1183,1201,1221,1242,1261,1281,1301,1322,1343,1362,1381,1402,1422,1441,1461,1482,1503,1521,1541,1562,1583,1602,1621,1642,1661,1682,1702,1723,1741,1763,1783,1802,1821,1842,1862,1882,1901,1921,1943,1963,1982,2001,2021,2041,2063,2083,2102,2122,2142,2162,2183,2202,2221,2242,2262,2281,2301,2322,2342,2363,2383,2401,2421,2441,2463,2483,2502,2521,2541,2561,2581,2601,2623,2642,2661,2682,2701,2723,2742,2761,2782,2801,2823,2843,2862,2881,2902,2921,2942,2963,2982,3002,3021,3042,3062,3081,3101,3121,3143,3161,3182,3201,3221,3242,3263,3282,3302,3321,3342,3361,3383,3403,3422,3442,3462,3482,3502,3523,3541,3562,3582,3602,3622,3642,3661,3681,3702,3721,3742,3761,3783,3801,3821,3841,3862,3881,3902,3921,3942,3963,3983,4003,4023,4041,4061,4082,4103,4121,4142,4161,4183,4203,4221,4241,4262,4281,4301,4323,4342,4362,4381,4401,4421,4441,4462,4482,4501,4522,4541,4561,4582,4603,4622,4641,4663,4683,4703,4721,4742,4761,4782,4802,4822,4841,4861,4883,4903,4921,4942,4961,4981,5002,5023,5041,5062],"xSR":741.5,"ySR":573.95,"xT1":424.9,"yT1":0,"xT2":1058.1,"yT2":0,"toosoon":0,"cond_shown":"Congruent","ratio_trial":100,"L_num":7,"L_den":14,"R_num":15,"R_den":25,"correct_side":2,"subjID":"MaatiasCruz20","gender":"0","school":"4","age":"10"},{"start_time":1552069269527,"click_time":1552069271244,"finger_time":1552069270303,"fix_duration":901.5967524671573,"trial":37,"RT":776,"MT":941,"sideResp":1,"stimulus":[],"xmouse":[790,789,789,789,789,789,789,789,789,789,789,789,789,789,788,788,785,785,785,783,783,783,783,782,782,782,782,782,782,782,782,782,782,782,782,782,782,780,779,776,776,776,774,774,774,774,774,774,773,773,773,773,772,772,723,673,577,405,244,139,107,124,139,145,150,155,159,160,162,193,207,220,237,253,300,314,327,333,339,351,353,353,353,355,371,427],"ymouse":[617,617,617,617,617,617,617,617,617,617,617,617,617,617,615,613,606,602,598,591,589,587,586,585,585,584,584,584,584,584,584,584,584,584,584,584,581,577,572,561,558,556,553,552,552,552,552,552,550,546,530,506,484,483,385,317,246,138,49,0,0,0,0,0,0,0,0,0,0,0,0,0,0,0,0,3,9,11,12,15,16,16,16,17,22,43],"timestamp_mouse":[16,37,58,77,97,116,137,157,177,198,216,237,258,277,297,316,337,356,376,396,418,437,456,477,498,518,537,556,577,597,617,638,656,677,696,716,738,756,776,796,817,836,858,878,897,916,936,957,977,997,1017,1036,1056,1078,1096,1116,1136,1157,1178,1197,1216,1237,1257,1276,1297,1316,1336,1356,1376,1399,1416,1436,1456,1476,1497,1516,1536,1557,1576,1597,1616,1636,1658,1677,1698,1717],"xSR":741.5,"ySR":573.95,"xT1":424.9,"yT1":0,"xT2":1058.1,"yT2":0,"toosoon":0,"cond_shown":"Congruent","ratio_trial":200,"L_num":11,"L_den":22,"R_num":3,"R_den":10,"correct_side":1,"subjID":"MaatiasCruz20","gender":"0","school":"4","age":"10"},{"start_time":1552069274578,"click_time":1552069277964,"finger_time":1552069274584,"fix_duration":914.6989022340194,"trial":38,"RT":6,"MT":3380,"sideResp":1,"stimulus":[],"xmouse":[844,853,854,854,854,854,854,854,854,854,854,856,856,857,857,857,857,857,857,857,857,855,853,852,852,852,852,852,852,852,852,852,852,852,852,852,855,858,863,865,869,873,878,885,890,893,898,909,928,933,933,934,934,940,946,951,958,960,962,962,962,962,962,962,962,962,962,962,962,953,903,836,781,715,699,688,677,673,665,663,661,661,661,661,662,665,672,688,728,745,756,764,774,799,808,813,814,814,814,814,814,814,814,814,813,812,811,810,810,810,810,810,810,809,807,805,805,803,803,802,801,799,799,799,799,799,799,799,799,799,799,799,799,798,798,798,798,798,799,800,800,801,801,801,796,781,760,731,692,682,676,672,669,659,643,633,623,614,601,598,597,594,589,566,541,530,526,525,525,524],"ymouse":[640,640,640,640,640,640,640,640,640,640,640,638,637,633,630,626,619,613,606,584,572,562,555,549,546,540,536,531,522,519,518,516,516,516,516,515,512,507,503,501,499,497,494,491,488,486,483,477,471,469,469,469,468,464,462,460,458,457,456,456,456,456,456,456,456,456,456,456,456,458,479,505,522,542,547,553,560,563,571,574,578,583,586,591,592,593,593,593,594,598,599,599,601,607,610,613,613,613,613,614,614,614,615,615,616,616,616,616,616,616,616,616,616,617,617,617,617,618,618,618,618,618,619,619,619,619,619,619,619,619,619,619,619,617,615,611,608,606,600,599,598,596,592,579,565,534,493,444,371,349,331,315,293,253,204,173,147,128,109,106,105,102,98,85,74,70,68,68,68,68],"timestamp_mouse":[6,26,46,65,85,106,126,145,165,186,205,225,246,265,286,307,327,345,365,385,406,425,445,465,485,505,526,547,565,586,606,625,645,666,685,705,726,746,766,785,806,826,846,865,886,907,926,946,966,985,1006,1025,1045,1065,1087,1105,1126,1145,1166,1186,1206,1226,1245,1266,1286,1306,1326,1346,1366,1385,1405,1426,1445,1465,1487,1505,1525,1545,1566,1586,1605,1626,1645,1665,1686,1705,1727,1745,1766,1786,1806,1826,1846,1865,1886,1905,1926,1945,1965,1986,2007,2025,2046,2066,2086,2107,2127,2147,2166,2185,2207,2227,2245,2266,2286,2307,2325,2346,2365,2385,2407,2427,2445,2465,2486,2505,2526,2546,2566,2587,2605,2625,2646,2665,2686,2705,2726,2745,2765,2785,2805,2825,2845,2865,2886,2905,2926,2945,2965,2986,3006,3026,3045,3065,3086,3105,3126,3145,3166,3185,3205,3225,3247,3265,3286,3305,3326,3345,3366,3385],"xSR":741.5,"ySR":573.95,"xT1":424.9,"yT1":0,"xT2":1058.1,"yT2":0,"toosoon":0,"cond_shown":"Congruent","ratio_trial":100,"L_num":8,"L_den":16,"R_num":2,"R_den":5,"correct_side":1,"subjID":"MaatiasCruz20","gender":"0","school":"4","age":"10"},{"start_time":1552069280981,"click_time":1552069283165,"finger_time":1552069282104,"fix_duration":575.134163517377,"trial":39,"RT":1123,"MT":1061,"sideResp":2,"stimulus":[],"xmouse":[812,812,812,812,812,812,812,812,812,812,812,812,812,812,812,812,812,812,812,812,812,812,812,812,812,812,812,812,812,812,812,812,812,812,812,812,812,812,812,812,812,812,812,812,811,811,811,811,811,811,811,811,811,809,803,801,796,791,786,786,785,785,784,777,754,737,723,715,705,703,701,699,698,696,696,696,696,695,694,708,752,781,781,781,781,784,787,794,803,933,1041,1141,1236,1259,1286,1292,1301,1312,1327,1336,1336,1336,1336,1328,1296,1273,1245,1221,1184,1125],"ymouse":[626,626,626,626,626,626,626,626,626,626,626,626,626,626,626,626,626,626,626,626,626,626,626,626,626,626,626,626,626,626,626,626,626,626,626,626,626,626,626,626,626,626,624,623,620,619,619,619,619,618,617,616,615,601,587,574,561,551,539,538,536,535,530,502,439,405,383,369,350,345,339,333,330,325,323,323,323,320,312,171,0,0,0,0,0,0,0,0,0,0,0,0,0,0,0,0,0,0,0,0,0,0,0,6,25,36,45,49,53,62],"timestamp_mouse":[3,23,44,62,83,104,123,142,163,183,203,223,242,262,283,303,322,343,362,383,402,423,443,464,484,502,523,543,564,582,602,623,643,664,683,703,722,743,764,783,802,822,843,862,883,902,923,944,964,982,1002,1022,1043,1063,1083,1102,1123,1142,1163,1182,1202,1222,1242,1262,1282,1302,1322,1343,1363,1382,1402,1424,1443,1463,1482,1502,1522,1542,1562,1582,1602,1622,1643,1662,1684,1702,1723,1742,1763,1783,1802,1823,1842,1863,1883,1903,1922,1943,1962,1982,2003,2022,2042,2062,2083,2102,2122,2142,2162,2183],"xSR":741.5,"ySR":573.95,"xT1":424.9,"yT1":0,"xT2":1058.1,"yT2":0,"toosoon":0,"cond_shown":"Incongruent","ratio_trial":200,"L_num":4,"L_den":6,"R_num":14,"R_den":30,"correct_side":1,"subjID":"MaatiasCruz20","gender":"0","school":"4","age":"10"},{"start_time":1552069284793,"click_time":1552069289963,"finger_time":1552069285763,"fix_duration":587.3838624793965,"trial":40,"RT":970,"MT":4200,"sideResp":1,"stimulus":[],"xmouse":[781,781,781,781,781,781,781,781,781,781,781,781,781,781,781,781,781,781,781,781,781,781,781,781,781,781,781,781,781,781,781,781,781,781,781,779,779,779,779,779,779,779,781,782,782,782,782,782,782,782,782,782,782,782,782,782,782,782,782,782,784,785,785,786,788,788,788,788,788,785,781,779,776,770,763,757,749,743,729,722,715,707,698,690,680,677,675,673,667,665,664,663,663,663,658,648,641,638,638,637,633,623,610,596,574,570,567,565,565,565,565,565,565,565,565,565,565,565,565,565,565,565,565,564,564,564,563,563,563,563,563,563,563,563,563,563,563,563,563,563,563,570,610,845,1026,1198,1339,1446,1549,1552,1552,1552,1552,1550,1547,1541,1529,1514,1497,1433,1414,1393,1383,1381,1380,1376,1375,1373,1351,1347,1342,1336,1329,1321,1294,1279,1261,1237,1232,1226,1225,1224,1222,1218,1213,1208,1206,1206,1206,1205,1200,1198,1196,1196,1196,1196,1196,1196,1196,1194,1193,1191,1190,1189,1189,1187,1185,1181,1176,1176,1176,1176,1176,1176,1176,1175,1174,1174,1173,1173,1173,1173,1173,1173,1173,1173,1173,1173,1172,1172,1172,1172,1172,1172,1172,1171,1169,1167,1157,1150,1138,1119,1091,1059,990,952,908,900,788,653,608,585,565,555,544,543,542,540,519],"ymouse":[637,637,637,637,637,637,637,637,637,637,637,637,637,637,637,637,637,637,637,637,637,637,637,637,637,637,637,637,637,637,637,637,637,636,631,625,620,617,614,613,612,608,602,599,599,595,588,580,566,561,553,552,551,551,551,551,551,551,551,543,530,523,523,519,477,456,433,407,366,347,319,300,280,261,218,191,165,143,113,97,85,75,66,57,47,43,38,33,23,20,20,19,19,19,20,25,29,30,30,30,33,39,43,48,53,53,55,55,55,55,55,55,55,55,55,55,55,55,55,55,55,55,55,55,55,55,55,55,55,55,55,55,55,55,55,55,55,55,55,55,55,55,56,83,109,131,154,162,163,158,157,155,155,151,147,143,137,130,125,112,109,108,107,107,107,107,107,107,107,107,106,105,105,104,98,95,91,84,84,82,82,82,82,82,82,82,82,82,82,81,80,80,79,79,79,79,79,79,79,81,81,81,81,81,81,82,83,84,85,85,85,85,85,85,87,88,89,89,90,90,90,91,91,92,93,93,94,94,95,96,97,97,97,97,97,98,99,101,105,109,114,119,125,130,134,134,134,133,107,64,47,37,30,26,23,22,22,21,18],"timestamp_mouse":[10,30,51,72,91,112,131,150,171,191,212,231,251,270,291,310,332,351,370,390,410,431,451,471,491,511,530,552,570,590,611,630,652,672,690,711,731,751,770,790,810,831,850,871,890,912,930,950,970,990,1010,1030,1050,1072,1092,1112,1131,1150,1170,1190,1210,1230,1250,1270,1290,1310,1331,1351,1370,1390,1410,1430,1450,1470,1490,1511,1532,1551,1570,1590,1610,1631,1652,1670,1690,1711,1732,1751,1770,1790,1811,1831,1850,1871,1890,1911,1932,1951,1970,1990,2010,2032,2052,2070,2090,2110,2131,2150,2171,2192,2211,2231,2251,2271,2291,2311,2330,2351,2371,2390,2410,2431,2450,2471,2491,2511,2532,2552,2571,2591,2611,2631,2650,2671,2690,2710,2730,2752,2771,2791,2810,2830,2850,2870,2890,2910,2930,2952,2970,2990,3010,3031,3051,3070,3091,3111,3131,3150,3171,3191,3210,3230,3251,3270,3290,3311,3330,3350,3371,3390,3410,3431,3451,3470,3490,3510,3530,3550,3572,3591,3611,3630,3650,3671,3691,3711,3730,3751,3770,3791,3810,3830,3851,3871,3891,3911,3930,3950,3971,3991,4010,4031,4050,4071,4090,4111,4131,4151,4171,4190,4212,4232,4251,4270,4290,4312,4332,4350,4371,4390,4410,4431,4450,4471,4491,4510,4531,4550,4571,4591,4612,4631,4650,4671,4691,4711,4731,4750,4771,4791,4810,4830,4850,4870,4890,4911,4930,4951,4970,4991,5010,5031,5050,5071,5090,5111,5130,5152,5170],"xSR":741.5,"ySR":573.95,"xT1":424.9,"yT1":0,"xT2":1058.1,"yT2":0,"toosoon":0,"cond_shown":"Congruent","ratio_trial":300,"L_num":24,"L_den":30,"R_num":8,"R_den":16,"correct_side":1,"subjID":"MaatiasCruz20","gender":"0","school":"4","age":"10"},{"start_time":1552069364120,"click_time":1552069366865,"finger_time":1552069365545,"fix_duration":1154.7872414008102,"trial":41,"RT":1425,"MT":1320,"sideResp":2,"stimulus":[],"xmouse":[789,788,787,786,786,786,786,786,786,786,787,789,789,789,789,789,789,789,789,789,789,789,789,789,789,789,789,789,789,789,789,789,789,789,789,789,789,789,789,789,789,789,789,789,789,789,789,789,789,789,789,789,789,789,789,789,789,789,789,789,789,789,789,789,789,789,789,789,785,781,777,777,777,777,777,777,777,777,777,777,777,777,777,777,777,777,777,777,777,779,786,787,789,795,798,802,815,819,821,822,822,822,822,822,822,822,822,822,822,822,822,821,821,821,821,821,821,821,824,840,882,939,967,985,1016,1052,1054,1054,1054,1054,1054,1054,1052,1052,1052,1053,1056,1062],"ymouse":[644,634,627,625,624,624,624,624,624,624,624,624,624,624,624,624,624,624,624,624,624,624,624,624,624,624,624,624,624,624,624,624,624,624,624,624,624,624,624,624,624,624,624,624,624,624,624,624,624,624,624,624,624,624,624,624,624,624,624,624,624,624,624,624,624,624,624,620,608,595,578,549,547,547,547,547,547,547,547,547,547,547,547,547,547,547,547,547,547,545,545,545,546,551,558,567,591,599,602,603,603,603,603,604,604,604,604,604,605,605,606,607,607,607,607,607,607,599,578,534,441,316,254,208,113,0,0,0,0,0,0,1,11,15,18,20,24,27],"timestamp_mouse":[7,26,45,65,86,106,125,145,166,185,205,225,245,266,286,305,326,346,366,386,406,426,446,465,486,505,526,546,565,585,606,625,646,666,686,705,726,745,766,785,806,825,845,866,886,905,925,946,965,986,1005,1025,1046,1067,1085,1106,1125,1146,1165,1185,1205,1226,1245,1266,1286,1306,1325,1346,1365,1385,1406,1425,1445,1466,1486,1506,1526,1546,1565,1585,1606,1625,1645,1665,1686,1706,1725,1746,1765,1785,1805,1825,1845,1866,1886,1905,1925,1946,1966,1985,2005,2026,2045,2065,2085,2106,21