[{"start_time":1552069968400,"click_time":1552069970247,"finger_time":1552069968416,"fix_duration":1351.2789861259112,"trial":0,"RT":16,"MT":1831,"sideResp":1,"stimulus":"img/750/equaldotanddens/R/2_Ratio_750_L_6_R_8.png","xmouse":[781,781,782,782,782,782,782,782,782,782,782,782,783,786,793,796,796,796,796,796,796,796,796,796,796,796,796,796,796,796,796,796,795,792,790,785,783,780,777,772,771,770,770,769,769,769,771,771,772,772,772,772,772,772,772,772,772,773,774,775,775,776,776,776,731,642,618,594,578,570,560,559,559,558,556,548,544,543,542,540,540,540,540,540,540,540,540,540,540,539,531,525,519],"ymouse":[549,549,548,548,548,548,548,548,548,548,548,548,547,546,545,545,545,545,545,545,545,545,545,545,545,545,545,545,545,545,545,545,545,547,549,554,555,558,561,572,578,582,585,589,597,609,612,613,615,615,615,615,615,615,615,615,615,614,613,613,608,599,535,481,280,68,0,0,0,0,0,0,0,0,1,18,29,39,50,57,62,63,63,63,63,63,63,63,64,64,66,66,66],"timestamp_mouse":[16,27,47,68,88,107,128,147,168,188,208,227,248,268,287,308,329,347,368,388,408,428,448,468,487,507,528,548,567,588,608,627,648,667,688,707,727,748,767,788,807,828,847,868,887,907,927,947,968,987,1007,1028,1047,1067,1087,1107,1127,1148,1167,1188,1207,1227,1247,1267,1287,1307,1327,1347,1368,1387,1408,1427,1447,1467,1487,1507,1527,1548,1567,1587,1608,1629,1648,1668,1688,1708,1727,1747,1767,1787,1807,1827,1847],"xSR":732.5,"ySR":490.1,"xT1":419.5,"yT1":0,"xT2":1045.5,"yT2":0,"toosoon":0,"cond_shown":"equaldotanddens","ratio_trial":750,"smaller_num":"6","larger_num":"8","correct_side":2,"subjID":"MatiasCruz20","gender":"0","age":"10","school":"4","test":{"fix_dur":[250,1500],"timestim":300,"targets_dim":[100,100],"targets_relative_coord":[0.3,0.7],"size_stim":[880,420],"start_dim":[100,100],"size_start":[300,300],"size_fix":60,"samplingrate":20,"img_types":["equaldotsize","equaldotanddens","randomdotsizeEA"],"ratios":[250,500,750,900],"rep_conds":9,"nTrials":120,"trials_to_rest":500,"Trials_order":[7,19,85,87,18,33,5,68,50,90,91,79,97,111,6,55,2,16,78,82,95,119,93,31,22,61,51,15,36,9,104,45,20,101,70,88,41,58,57,103,67,38,115,75,113,72,42,46,89,69,8,64,71,102,24,37,116,106,21,40,29,30,12,11,62,52,49,35,39,56,4,84,3,105,66,117,26,60,32,14,107,74,99,96,110,65,25,63,112,0,28,77,23,54,10,81,59,108,48,13,73,34,17,98,43,1,118,44,94,76,47,27,83,109,114,53,80,86,100,92],"cond_shown":["equaldotanddens","equaldotanddens","equaldotanddens","equaldotsize","equaldotsize","equaldotsize","randomdotsizeEA","randomdotsizeEA","randomdotsizeEA","equaldotsize","equaldotanddens","equaldotanddens","equaldotanddens","equaldotsize","equaldotsize","equaldotanddens","randomdotsizeEA","equaldotanddens","equaldotsize","equaldotanddens","randomdotsizeEA","randomdotsizeEA","equaldotsize","equaldotanddens","equaldotanddens","equaldotanddens","equaldotsize","equaldotsize","equaldotsize","equaldotsize","randomdotsizeEA","equaldotsize","randomdotsizeEA","randomdotsizeEA","equaldotanddens","equaldotanddens","randomdotsizeEA","equaldotanddens","equaldotsize","equaldotanddens","equaldotanddens","randomdotsizeEA","equaldotanddens","equaldotsize","randomdotsizeEA","equaldotsize","equaldotsize","equaldotanddens","randomdotsizeEA","equaldotsize","randomdotsizeEA","equaldotanddens","randomdotsizeEA","equaldotsize","equaldotsize","equaldotanddens","randomdotsizeEA","equaldotanddens","equaldotsize","equaldotanddens","randomdotsizeEA","equaldotsize","equaldotsize","randomdotsizeEA","randomdotsizeEA","equaldotanddens","equaldotanddens","randomdotsizeEA","equaldotsize","randomdotsizeEA","equaldotanddens","equaldotsize","equaldotsize","equaldotsize","equaldotsize","equaldotsize","randomdotsizeEA","equaldotsize","randomdotsizeEA","randomdotsizeEA","randomdotsizeEA","randomdotsizeEA","equaldotsize","equaldotsize","randomdotsizeEA","randomdotsizeEA","equaldotanddens","equaldotsize","equaldotanddens","equaldotsize","equaldotanddens","randomdotsizeEA","randomdotsizeEA","equaldotsize","equaldotanddens","equaldotsize","randomdotsizeEA","equaldotsize","equaldotsize","equaldotanddens","equaldotanddens","equaldotanddens","randomdotsizeEA","randomdotsizeEA","equaldotanddens","equaldotanddens","equaldotanddens","randomdotsizeEA","equaldotanddens","equaldotanddens","randomdotsizeEA","equaldotsize","randomdotsizeEA","equaldotanddens","equaldotsize","randomdotsizeEA","randomdotsizeEA","randomdotsizeEA","equaldotanddens","randomdotsizeEA"],"ratio_trial":[750,750,250,500,750,900,500,750,250,750,750,750,250,500,750,750,250,500,750,900,900,900,900,750,900,250,500,500,250,900,750,900,750,500,900,500,500,900,900,750,750,250,750,500,500,250,750,900,500,900,750,500,900,750,250,250,750,900,900,500,500,750,250,900,250,500,250,900,500,750,500,250,500,900,750,900,250,250,750,250,900,250,500,250,250,500,250,500,500,250,500,500,900,750,900,900,900,250,250,250,250,900,500,250,750,250,900,750,900,500,900,500,900,250,750,500,750,250,500,750],"smaller_num":["6","9","2","10","3","18","1","15","2","6","9","18","1","9","3","6","6","6","9","9","9","18","18","18","9","2","2","2","4","9","3","9","3","4","18","2","10","18","9","3","18","2","15","9","10","2","3","18","4","18","9","6","9","12","2","1","3","9","18","9","9","15","3","9","2","2","4","18","1","6","1","2","3","9","9","18","6","3","6","6","9","3","9","1","4","6","1","3","5","2","6","1","9","15","18","18","18","3","3","2","4","18","9","3","15","4","18","3","18","6","9","6","18","2","3","2","3","5","2","15"],"larger_num":["8","12","8","20","4","20","2","20","8","8","12","24","4","18","4","8","24","12","12","10","10","20","20","24","10","8","4","4","16","10","4","10","4","8","20","4","20","20","10","4","24","8","20","18","20","8","4","20","8","20","12","12","10","16","8","4","4","10","20","18","18","20","12","10","8","4","16","20","2","8","2","8","6","10","12","20","24","12","8","24","10","12","18","4","16","12","4","6","10","8","12","2","10","20","20","20","20","12","12","8","16","20","18","12","20","16","20","4","20","12","10","12","20","8","4","4","4","20","4","20"],"correct_side":[2,2,1,2,1,2,2,2,1,1,2,1,2,2,2,2,1,1,2,1,2,1,1,1,2,1,2,2,1,2,2,2,2,1,1,1,2,1,2,1,1,2,2,2,2,1,2,1,1,1,2,1,2,2,1,2,2,2,2,2,1,2,1,2,2,1,2,1,2,1,2,1,2,2,2,1,2,2,1,1,2,1,2,2,1,1,2,2,1,1,1,2,1,2,1,1,1,1,1,1,1,1,2,2,2,1,2,1,1,1,2,1,1,2,2,1,1,2,2,2],"img_shown":["img/750/equaldotanddens/R/2_Ratio_750_L_6_R_8.png","img/750/equaldotanddens/R/15_Ratio_750_L_9_R_12.png","img/250/equaldotanddens/L/1_Ratio_250_L_8_R_2.png","img/500/equaldotsize/R/3_Ratio_500_L_10_R_20.png","img/750/equaldotsize/L/9_Ratio_750_L_4_R_3.png","img/900/equaldotsize/R/14_Ratio_900_L_18_R_20.png","img/500/randomdotsizeEA/R/15_Ratio_500_L_1_R_2.png","img/750/randomdotsizeEA/R/3_Ratio_750_L_15_R_20.png","img/250/randomdotsizeEA/L/1_Ratio_250_L_8_R_2.png","img/750/equaldotsize/L/13_Ratio_750_L_8_R_6.png","img/750/equaldotanddens/R/15_Ratio_750_L_9_R_12.png","img/750/equaldotanddens/L/6_Ratio_750_L_24_R_18.png","img/250/equaldotanddens/R/8_Ratio_250_L_1_R_4.png","img/500/equaldotsize/R/1_Ratio_500_L_9_R_18.png","img/750/equaldotsize/R/7_Ratio_750_L_3_R_4.png","img/750/equaldotanddens/R/2_Ratio_750_L_6_R_8.png","img/250/randomdotsizeEA/L/5_Ratio_250_L_24_R_6.png","img/500/equaldotanddens/L/13_Ratio_500_L_12_R_6.png","img/750/equaldotsize/R/15_Ratio_750_L_9_R_12.png","img/900/equaldotanddens/L/1_Ratio_900_L_10_R_9.png","img/900/randomdotsizeEA/R/15_Ratio_900_L_9_R_10.png","img/900/randomdotsizeEA/L/2_Ratio_900_L_20_R_18.png","img/900/equaldotsize/L/4_Ratio_900_L_20_R_18.png","img/750/equaldotanddens/L/6_Ratio_750_L_24_R_18.png","img/900/equaldotanddens/R/3_Ratio_900_L_9_R_10.png","img/250/equaldotanddens/L/1_Ratio_250_L_8_R_2.png","img/500/equaldotsize/R/9_Ratio_500_L_2_R_4.png","img/500/equaldotsize/R/9_Ratio_500_L_2_R_4.png","img/250/equaldotsize/L/2_Ratio_250_L_16_R_4.png","img/900/equaldotsize/R/6_Ratio_900_L_9_R_10.png","img/750/randomdotsizeEA/R/12_Ratio_750_L_3_R_4.png","img/900/equaldotsize/R/5_Ratio_900_L_9_R_10.png","img/750/randomdotsizeEA/R/12_Ratio_750_L_3_R_4.png","img/500/randomdotsizeEA/L/8_Ratio_500_L_8_R_4.png","img/900/equaldotanddens/L/8_Ratio_900_L_20_R_18.png","img/500/equaldotanddens/L/5_Ratio_500_L_4_R_2.png","img/500/randomdotsizeEA/R/3_Ratio_500_L_10_R_20.png","img/900/equaldotanddens/L/4_Ratio_900_L_20_R_18.png","img/900/equaldotsize/R/3_Ratio_900_L_9_R_10.png","img/750/equaldotanddens/L/9_Ratio_750_L_4_R_3.png","img/750/equaldotanddens/L/6_Ratio_750_L_24_R_18.png","img/250/randomdotsizeEA/R/13_Ratio_250_L_2_R_8.png","img/750/equaldotanddens/R/3_Ratio_750_L_15_R_20.png","img/500/equaldotsize/R/1_Ratio_500_L_9_R_18.png","img/500/randomdotsizeEA/R/3_Ratio_500_L_10_R_20.png","img/250/equaldotsize/L/3_Ratio_250_L_8_R_2.png","img/750/equaldotsize/R/12_Ratio_750_L_3_R_4.png","img/900/equaldotanddens/L/2_Ratio_900_L_20_R_18.png","img/500/randomdotsizeEA/L/8_Ratio_500_L_8_R_4.png","img/900/equaldotsize/L/10_Ratio_900_L_20_R_18.png","img/750/randomdotsizeEA/R/15_Ratio_750_L_9_R_12.png","img/500/equaldotanddens/L/11_Ratio_500_L_12_R_6.png","img/900/randomdotsizeEA/R/7_Ratio_900_L_9_R_10.png","img/750/equaldotsize/R/11_Ratio_750_L_12_R_16.png","img/250/equaldotsize/L/3_Ratio_250_L_8_R_2.png","img/250/equaldotanddens/R/8_Ratio_250_L_1_R_4.png","img/750/randomdotsizeEA/R/7_Ratio_750_L_3_R_4.png","img/900/equaldotanddens/R/7_Ratio_900_L_9_R_10.png","img/900/equaldotsize/R/13_Ratio_900_L_18_R_20.png","img/500/equaldotanddens/R/6_Ratio_500_L_9_R_18.png","img/500/randomdotsizeEA/L/4_Ratio_500_L_18_R_9.png","img/750/equaldotsize/R/3_Ratio_750_L_15_R_20.png","img/250/equaldotsize/L/15_Ratio_250_L_12_R_3.png","img/900/randomdotsizeEA/R/7_Ratio_900_L_9_R_10.png","img/250/randomdotsizeEA/R/13_Ratio_250_L_2_R_8.png","img/500/equaldotanddens/L/5_Ratio_500_L_4_R_2.png","img/250/equaldotanddens/R/10_Ratio_250_L_4_R_16.png","img/900/randomdotsizeEA/L/10_Ratio_900_L_20_R_18.png","img/500/equaldotsize/R/12_Ratio_500_L_1_R_2.png","img/750/randomdotsizeEA/L/14_Ratio_750_L_8_R_6.png","img/500/equaldotanddens/R/12_Ratio_500_L_1_R_2.png","img/250/equaldotsize/L/7_Ratio_250_L_8_R_2.png","img/500/equaldotsize/R/2_Ratio_500_L_3_R_6.png","img/900/equaldotsize/R/3_Ratio_900_L_9_R_10.png","img/750/equaldotsize/R/15_Ratio_750_L_9_R_12.png","img/900/equaldotsize/L/2_Ratio_900_L_20_R_18.png","img/250/randomdotsizeEA/R/6_Ratio_250_L_6_R_24.png","img/250/equaldotsize/R/9_Ratio_250_L_3_R_12.png","img/750/randomdotsizeEA/L/13_Ratio_750_L_8_R_6.png","img/250/randomdotsizeEA/L/5_Ratio_250_L_24_R_6.png","img/900/randomdotsizeEA/R/5_Ratio_900_L_9_R_10.png","img/250/randomdotsizeEA/L/14_Ratio_250_L_12_R_3.png","img/500/equaldotsize/R/1_Ratio_500_L_9_R_18.png","img/250/equaldotsize/R/8_Ratio_250_L_1_R_4.png","img/250/randomdotsizeEA/L/2_Ratio_250_L_16_R_4.png","img/500/randomdotsizeEA/L/11_Ratio_500_L_12_R_6.png","img/250/equaldotanddens/R/8_Ratio_250_L_1_R_4.png","img/500/equaldotsize/R/2_Ratio_500_L_3_R_6.png","img/500/equaldotanddens/L/7_Ratio_500_L_10_R_5.png","img/250/equaldotsize/L/7_Ratio_250_L_8_R_2.png","img/500/equaldotanddens/L/11_Ratio_500_L_12_R_6.png","img/500/randomdotsizeEA/R/12_Ratio_500_L_1_R_2.png","img/900/randomdotsizeEA/L/1_Ratio_900_L_10_R_9.png","img/750/equaldotsize/R/3_Ratio_750_L_15_R_20.png","img/900/equaldotanddens/L/4_Ratio_900_L_20_R_18.png","img/900/equaldotsize/L/10_Ratio_900_L_20_R_18.png","img/900/randomdotsizeEA/L/8_Ratio_900_L_20_R_18.png","img/250/equaldotsize/L/14_Ratio_250_L_12_R_3.png","img/250/equaldotsize/L/14_Ratio_250_L_12_R_3.png","img/250/equaldotanddens/L/7_Ratio_250_L_8_R_2.png","img/250/equaldotanddens/L/2_Ratio_250_L_16_R_4.png","img/900/equaldotanddens/L/4_Ratio_900_L_20_R_18.png","img/500/randomdotsizeEA/R/6_Ratio_500_L_9_R_18.png","img/250/randomdotsizeEA/R/4_Ratio_250_L_3_R_12.png","img/750/equaldotanddens/R/3_Ratio_750_L_15_R_20.png","img/250/equaldotanddens/L/2_Ratio_250_L_16_R_4.png","img/900/equaldotanddens/R/13_Ratio_900_L_18_R_20.png","img/750/randomdotsizeEA/L/9_Ratio_750_L_4_R_3.png","img/900/equaldotanddens/L/4_Ratio_900_L_20_R_18.png","img/500/equaldotanddens/L/11_Ratio_500_L_12_R_6.png","img/900/randomdotsizeEA/R/5_Ratio_900_L_9_R_10.png","img/500/equaldotsize/L/11_Ratio_500_L_12_R_6.png","img/900/randomdotsizeEA/L/10_Ratio_900_L_20_R_18.png","img/250/equaldotanddens/R/13_Ratio_250_L_2_R_8.png","img/750/equaldotsize/R/12_Ratio_750_L_3_R_4.png","img/500/randomdotsizeEA/L/5_Ratio_500_L_4_R_2.png","img/750/randomdotsizeEA/L/10_Ratio_750_L_4_R_3.png","img/250/randomdotsizeEA/R/12_Ratio_250_L_5_R_20.png","img/500/equaldotanddens/R/9_Ratio_500_L_2_R_4.png","img/750/randomdotsizeEA/R/3_Ratio_750_L_15_R_20.png"],"Rat0":[["12_Ratio_0_L_9_R_0.png","13_Ratio_0_L_6_R_0.png","5_Ratio_0_L_2_R_0.png","6_Ratio_0_L_4_R_0.png","8_Ratio_0_L_6_R_0.png"],["1_Ratio_0_L_0_R_17.png","10_Ratio_0_L_0_R_22.png","11_Ratio_0_L_0_R_1.png","14_Ratio_0_L_0_R_24.png","15_Ratio_0_L_0_R_4.png","2_Ratio_0_L_0_R_5.png","3_Ratio_0_L_0_R_17.png","4_Ratio_0_L_0_R_7.png","7_Ratio_0_L_0_R_19.png","9_Ratio_0_L_0_R_15.png"]],"Rat250":[["1_Ratio_250_L_8_R_2.png","14_Ratio_250_L_12_R_3.png","15_Ratio_250_L_12_R_3.png","2_Ratio_250_L_16_R_4.png","3_Ratio_250_L_8_R_2.png","5_Ratio_250_L_24_R_6.png","7_Ratio_250_L_8_R_2.png"],["10_Ratio_250_L_4_R_16.png","11_Ratio_250_L_3_R_12.png","12_Ratio_250_L_5_R_20.png","13_Ratio_250_L_2_R_8.png","4_Ratio_250_L_3_R_12.png","6_Ratio_250_L_6_R_24.png","8_Ratio_250_L_1_R_4.png","9_Ratio_250_L_3_R_12.png"]],"Rat500":[["10_Ratio_500_L_4_R_2.png","11_Ratio_500_L_12_R_6.png","13_Ratio_500_L_12_R_6.png","4_Ratio_500_L_18_R_9.png","5_Ratio_500_L_4_R_2.png","7_Ratio_500_L_10_R_5.png","8_Ratio_500_L_8_R_4.png"],["1_Ratio_500_L_9_R_18.png","12_Ratio_500_L_1_R_2.png","14_Ratio_500_L_5_R_10.png","15_Ratio_500_L_1_R_2.png","2_Ratio_500_L_3_R_6.png","3_Ratio_500_L_10_R_20.png","6_Ratio_500_L_9_R_18.png","9_Ratio_500_L_2_R_4.png"]],"Rat750":[["1_Ratio_750_L_20_R_15.png","10_Ratio_750_L_4_R_3.png","13_Ratio_750_L_8_R_6.png","14_Ratio_750_L_8_R_6.png","6_Ratio_750_L_24_R_18.png","8_Ratio_750_L_4_R_3.png","9_Ratio_750_L_4_R_3.png"],["11_Ratio_750_L_12_R_16.png","12_Ratio_750_L_3_R_4.png","15_Ratio_750_L_9_R_12.png","2_Ratio_750_L_6_R_8.png","3_Ratio_750_L_15_R_20.png","4_Ratio_750_L_15_R_20.png","5_Ratio_750_L_15_R_20.png","7_Ratio_750_L_3_R_4.png"]],"Rat900":[["1_Ratio_900_L_10_R_9.png","10_Ratio_900_L_20_R_18.png","2_Ratio_900_L_20_R_18.png","4_Ratio_900_L_20_R_18.png","8_Ratio_900_L_20_R_18.png"],["11_Ratio_900_L_18_R_20.png","12_Ratio_900_L_18_R_20.png","13_Ratio_900_L_18_R_20.png","14_Ratio_900_L_18_R_20.png","15_Ratio_900_L_9_R_10.png","3_Ratio_900_L_9_R_10.png","5_Ratio_900_L_9_R_10.png","6_Ratio_900_L_9_R_10.png","7_Ratio_900_L_9_R_10.png","9_Ratio_900_L_18_R_20.png"]],"Rat1000":[["10_Ratio_1000_L_16_R_16.png","11_Ratio_1000_L_6_R_6.png","12_Ratio_1000_L_14_R_14.png","13_Ratio_1000_L_20_R_20.png","15_Ratio_1000_L_15_R_15.png","2_Ratio_1000_L_17_R_17.png","4_Ratio_1000_L_9_R_9.png","5_Ratio_1000_L_6_R_6.png","6_Ratio_1000_L_19_R_19.png","8_Ratio_1000_L_14_R_14.png","9_Ratio_1000_L_25_R_25.png"],["1_Ratio_1000_L_1_R_1.png","14_Ratio_1000_L_17_R_17.png","3_Ratio_1000_L_17_R_17.png","7_Ratio_1000_L_6_R_6.png"]]}},{"start_time":1552069971958,"click_time":1552069972708,"finger_time":1552069972607,"fix_duration":668.6437927776585,"trial":1,"RT":649,"MT":101,"sideResp":2,"stimulus":"img/750/equaldotanddens/R/15_Ratio_750_L_9_R_12.png","xmouse":[793,793,793,793,793,793,793,793,793,793,793,793,793,793,793,793,793,793,793,793,793,793,793,793,793,793,793,793,793,798,807,825,907,1000,1048,1074,1081,1090],"ymouse":[615,615,615,615,615,615,615,615,615,615,615,615,615,615,615,615,615,615,615,615,615,615,615,615,615,615,615,615,615,615,614,605,540,397,266,162,112,69],"timestamp_mouse":[10,29,50,69,91,110,129,150,169,190,210,230,249,270,289,309,329,350,370,390,410,431,449,470,489,509,529,549,569,589,609,629,649,669,689,709,729,749],"xSR":741.5,"ySR":573.95,"xT1":424.9,"yT1":0,"xT2":1058.1,"yT2":0,"toosoon":0,"cond_shown":"equaldotanddens","ratio_trial":750,"smaller_num":"9","larger_num":"12","correct_side":2,"subjID":"MatiasCruz20","gender":"0","age":"10","school":"4"},{"start_time":1552069974481,"click_time":1552069975467,"finger_time":1552069975047,"fix_duration":851.6426723389892,"trial":2,"RT":566,"MT":420,"sideResp":1,"stimulus":"img/250/equaldotanddens/L/1_Ratio_250_L_8_R_2.png","xmouse":[785,785,785,785,785,785,785,785,785,785,785,785,785,785,785,785,785,785,785,785,785,785,785,785,785,785,786,781,765,738,703,655,539,511,500,499,499,498,497,493,490,485,482,482,482,482,482,482,481,481],"ymouse":[651,651,651,651,651,651,651,651,651,651,651,651,651,651,651,651,651,651,651,651,651,651,651,651,651,651,642,616,557,465,346,228,34,0,0,0,0,0,0,0,0,0,0,0,0,0,0,0,0,6],"timestamp_mouse":[6,26,47,66,86,107,127,147,167,187,207,226,247,267,286,306,326,347,366,387,406,426,447,468,487,507,526,546,566,586,607,626,646,667,686,707,727,747,766,787,807,827,846,866,886,907,926,946,966,986],"xSR":741.5,"ySR":573.95,"xT1":424.9,"yT1":0,"xT2":1058.1,"yT2":0,"toosoon":0,"cond_shown":"equaldotanddens","ratio_trial":250,"smaller_num":"2","larger_num":"8","correct_side":1,"subjID":"MatiasCruz20","gender":"0","age":"10","school":"4"},{"start_time":1552069977235,"click_time":1552069978327,"finger_time":1552069977788,"fix_duration":808.059349663829,"trial":3,"RT":553,"MT":539,"sideResp":2,"stimulus":"img/500/equaldotsize/R/3_Ratio_500_L_10_R_20.png","xmouse":[816,816,815,813,812,812,812,812,812,812,812,812,812,812,812,812,812,811,811,811,811,811,811,812,821,826,833,855,874,900,907,910,915,920,920,923,928,932,942,959,971,982,992,1007,1019,1045,1054,1082,1095,1106,1108,1109,1110,1112,1128],"ymouse":[622,622,623,623,623,623,623,623,623,623,623,623,623,623,623,623,623,623,623,623,623,623,624,624,615,611,606,588,565,510,486,461,423,364,302,287,272,260,242,219,205,192,180,169,167,161,159,147,140,129,123,117,111,106,92],"timestamp_mouse":[12,32,52,73,93,112,133,153,172,192,213,232,254,272,293,312,333,353,372,393,412,433,452,472,492,513,533,553,573,592,612,632,652,672,692,712,732,754,772,793,812,832,853,873,892,912,932,952,972,992,1012,1033,1053,1072,1092],"xSR":741.5,"ySR":573.95,"xT1":424.9,"yT1":0,"xT2":1058.1,"yT2":0,"toosoon":0,"cond_shown":"equaldotsize","ratio_trial":500,"smaller_num":"10","larger_num":"20","correct_side":2,"subjID":"MatiasCruz20","gender":"0","age":"10","school":"4"},{"start_time":1552069980658,"click_time":1552069982028,"finger_time":1552069981708,"fix_duration":1470.156291275281,"trial":4,"RT":1050,"MT":320,"sideResp":1,"stimulus":"img/750/equaldotsize/L/9_Ratio_750_L_4_R_3.png","xmouse":[802,802,802,802,802,802,802,802,802,802,802,802,802,802,802,802,802,802,802,802,802,802,802,802,802,802,802,802,802,802,802,802,802,802,802,802,802,802,802,802,802,802,802,802,802,802,802,802,802,799,792,779,751,703,665,638,613,583,555,551,549,547,546,535,528,518,510,498,471],"ymouse":[630,630,630,630,630,630,630,630,630,630,630,630,630,630,630,630,630,630,630,630,630,630,630,630,630,630,630,630,630,630,630,630,630,630,630,630,630,630,630,630,630,630,630,630,630,630,630,630,630,626,613,587,537,424,350,305,265,227,193,188,185,184,183,175,166,156,145,126,84],"timestamp_mouse":[9,29,50,69,89,109,129,149,169,190,209,229,249,269,289,309,329,349,369,389,409,430,450,469,489,510,529,549,570,589,609,629,649,670,689,710,729,749,769,790,809,829,849,869,889,909,930,949,970,989,1010,1029,1050,1069,1090,1109,1129,1150,1169,1190,1210,1229,1249,1269,1290,1309,1329,1349,1370],"xSR":741.5,"ySR":573.95,"xT1":424.9,"yT1":0,"xT2":1058.1,"yT2":0,"toosoon":0,"cond_shown":"equaldotsize","ratio_trial":750,"smaller_num":"3","larger_num":"4","correct_side":1,"subjID":"MatiasCruz20","gender":"0","age":"10","school":"4"},{"start_time":1552069985324,"click_time":1552069987228,"finger_time":1552069986047,"fix_duration":1216.3324909355886,"trial":5,"RT":723,"MT":1181,"sideResp":2,"stimulus":"img/900/equaldotsize/R/14_Ratio_900_L_18_R_20.png","xmouse":[800,800,800,800,800,800,800,800,800,800,800,800,800,800,800,800,800,800,800,800,800,800,800,801,801,801,801,801,803,804,805,810,813,816,823,832,858,873,883,893,904,924,940,981,1050,1258,1334,1374,1384,1388,1391,1391,1391,1390,1389,1388,1376,1365,1357,1340,1333,1313,1303,1289,1276,1264,1246,1240,1237,1236,1236,1232,1228,1223,1221,1217,1197,1180,1167,1162,1161,1161,1161,1161,1161,1161,1161,1161,1161,1161,1161,1161,1161,1161,1159,1156],"ymouse":[627,627,627,627,627,627,627,627,627,627,627,627,627,627,627,627,627,627,627,627,627,627,627,627,627,626,626,624,623,622,621,620,618,617,614,611,596,583,568,551,525,489,458,389,294,44,0,0,0,0,0,0,0,0,0,0,0,0,0,0,1,9,17,29,38,46,59,63,66,68,68,69,69,69,69,69,70,70,70,70,70,70,70,70,70,70,70,70,70,70,70,70,70,70,70,70],"timestamp_mouse":[4,23,43,64,84,104,124,144,165,185,204,224,243,263,283,304,324,344,364,384,404,423,443,463,483,505,524,543,564,583,603,625,643,663,683,704,723,743,764,783,803,823,843,863,883,904,924,943,964,983,1004,1025,1043,1063,1083,1103,1124,1145,1164,1183,1204,1223,1243,1264,1283,1303,1324,1343,1363,1384,1403,1424,1443,1464,1484,1504,1523,1543,1563,1583,1604,1624,1643,1664,1683,1703,1724,1744,1765,1783,1803,1825,1844,1863,1883,1904],"xSR":741.5,"ySR":573.95,"xT1":424.9,"yT1":0,"xT2":1058.1,"yT2":0,"toosoon":0,"cond_shown":"equaldotsize","ratio_trial":900,"smaller_num":"18","larger_num":"20","correct_side":2,"subjID":"MatiasCruz20","gender":"0","age":"10","school":"4"},{"start_time":1552069988702,"click_time":1552069990087,"finger_time":1552069989587,"fix_duration":694.2309315672596,"trial":6,"RT":885,"MT":500,"sideResp":2,"stimulus":"img/500/randomdotsizeEA/R/15_Ratio_500_L_1_R_2.png","xmouse":[797,797,797,797,797,797,797,797,797,797,797,797,797,797,797,797,797,797,797,797,797,797,797,797,797,797,797,797,797,797,797,797,797,797,797,798,800,802,802,803,804,804,804,803,799,792,776,722,694,687,684,684,684,684,684,684,684,704,734,801,837,864,907,938,975,1014,1043,1072,1081,1085],"ymouse":[634,634,634,634,634,634,634,634,634,634,634,634,634,634,634,634,634,634,634,634,634,634,634,634,634,634,634,634,634,634,634,634,634,634,631,628,625,616,613,610,605,600,587,578,565,545,513,411,354,332,321,316,315,315,315,314,314,308,299,284,279,275,257,239,218,189,169,129,113,98],"timestamp_mouse":[6,25,45,65,87,106,125,146,166,186,206,225,245,266,286,306,325,345,365,387,405,425,446,465,486,506,526,546,565,585,605,626,645,665,686,705,726,745,765,785,806,826,846,865,885,906,925,945,965,985,1005,1025,1045,1065,1085,1105,1126,1145,1166,1185,1205,1226,1245,1265,1286,1305,1325,1345,1365,1385],"xSR":741.5,"ySR":573.95,"xT1":424.9,"yT1":0,"xT2":1058.1,"yT2":0,"toosoon":0,"cond_shown":"randomdotsizeEA","ratio_trial":500,"smaller_num":"1","larger_num":"2","correct_side":2,"subjID":"MatiasCruz20","gender":"0","age":"10","school":"4"},{"start_time":1552069993086,"click_time":1552069994767,"finger_time":1552069994067,"fix_duration":1418.4190565692209,"trial":7,"RT":981,"MT":700,"sideResp":2,"stimulus":"img/750/randomdotsizeEA/R/3_Ratio_750_L_15_R_20.png","xmouse":[793,793,793,793,796,797,798,798,798,798,798,798,798,798,798,798,798,798,798,798,798,798,798,798,798,798,798,798,798,798,798,798,798,798,798,798,798,798,798,798,798,798,798,798,800,802,809,818,834,859,870,879,885,896,902,910,923,936,952,1000,1015,1030,1043,1067,1073,1073,1065,1052,1043,1041,1041,1039,1039,1039,1041,1042,1042,1042,1042,1043,1047,1050,1052,1054,1060],"ymouse":[622,622,622,622,621,621,621,621,621,621,621,621,621,621,621,621,621,621,621,621,621,621,621,621,621,621,621,621,621,621,621,621,621,621,621,621,621,621,621,621,621,621,621,621,621,618,612,604,582,555,547,541,537,528,522,513,503,492,477,430,412,394,376,318,277,234,189,142,95,39,23,12,8,6,5,5,5,5,19,24,29,33,36,39,45],"timestamp_mouse":[5,21,42,61,81,102,122,141,162,182,202,223,241,262,281,301,321,341,361,382,403,422,442,462,481,501,522,542,563,581,601,622,641,661,681,702,722,741,761,782,803,821,841,861,881,902,921,943,961,981,1001,1021,1042,1061,1081,1102,1121,1142,1162,1182,1201,1222,1241,1261,1281,1301,1321,1342,1362,1383,1401,1421,1441,1461,1481,1501,1521,1541,1562,1581,1601,1622,1642,1661,1681],"xSR":741.5,"ySR":573.95,"xT1":424.9,"yT1":0,"xT2":1058.1,"yT2":0,"toosoon":0,"cond_shown":"randomdotsizeEA","ratio_trial":750,"smaller_num":"15","larger_num":"20","correct_side":2,"subjID":"MatiasCruz20","gender":"0","age":"10","school":"4"},{"start_time":1552069997048,"click_time":1552069998367,"finger_time":1552069997967,"fix_duration":881.6794879285497,"trial":8,"RT":919,"MT":400,"sideResp":2,"stimulus":"img/250/randomdotsizeEA/L/1_Ratio_250_L_8_R_2.png","xmouse":[815,815,815,815,815,815,815,815,815,815,815,815,815,815,815,815,815,815,815,815,815,815,815,815,815,815,815,815,815,815,815,815,815,815,815,815,816,817,820,825,832,836,838,839,840,842,842,843,844,846,849,851,857,868,884,931,965,993,1028,1044,1071,1078,1083,1086,1089,1106],"ymouse":[621,621,621,621,621,621,621,621,621,621,621,621,621,621,621,621,621,621,621,621,621,621,621,621,621,621,621,621,621,621,621,621,621,621,621,621,621,621,616,611,603,601,599,598,596,594,593,592,590,589,585,581,575,561,542,492,452,406,325,270,175,153,140,131,123,92],"timestamp_mouse":[19,40,59,79,100,119,139,160,180,199,219,240,260,279,300,320,339,360,379,401,420,440,460,479,500,520,539,559,579,600,620,640,660,679,699,719,740,759,779,799,819,839,859,879,899,919,939,959,979,999,1019,1039,1059,1079,1100,1119,1139,1159,1180,1199,1219,1239,1261,1280,1300,1319],"xSR":741.5,"ySR":573.95,"xT1":424.9,"yT1":0,"xT2":1058.1,"yT2":0,"toosoon":0,"cond_shown":"randomdotsizeEA","ratio_trial":250,"smaller_num":"2","larger_num":"8","correct_side":1,"subjID":"MatiasCruz20","gender":"0","age":"10","school":"4"},{"start_time":1552070002434,"click_time":1552070003568,"finger_time":1552070003207,"fix_duration":1266.6876439021078,"trial":9,"RT":773,"MT":361,"sideResp":1,"stimulus":"img/750/equaldotsize/L/13_Ratio_750_L_8_R_6.png","xmouse":[780,780,780,780,781,781,781,781,781,781,781,781,781,781,781,782,783,783,783,783,783,783,783,783,783,783,783,783,783,783,783,783,783,783,783,783,783,775,763,739,709,664,652,646,641,638,633,627,616,592,571,559,548,541,534,525,520],"ymouse":[609,609,609,609,609,609,610,610,610,610,610,610,610,610,610,610,612,613,613,613,613,614,614,614,614,614,614,614,614,614,614,614,614,614,614,614,612,591,565,525,460,371,349,336,327,320,305,285,250,203,173,157,139,127,108,88,70],"timestamp_mouse":[14,35,55,75,95,115,134,155,174,195,213,234,255,275,293,314,334,354,375,394,413,434,455,475,495,513,533,554,575,595,614,634,653,674,695,714,733,754,773,794,814,833,854,874,894,914,934,954,973,993,1014,1034,1053,1074,1094,1115,1133],"xSR":741.5,"ySR":573.95,"xT1":424.9,"yT1":0,"xT2":1058.1,"yT2":0,"toosoon":0,"cond_shown":"equaldotsize","ratio_trial":750,"smaller_num":"6","larger_num":"8","correct_side":1,"subjID":"MatiasCruz20","gender":"0","age":"10","school":"4"},{"start_time":1552070005633,"click_time":1552070006887,"finger_time":1552070006349,"fix_duration":1363.0093309011324,"trial":10,"RT":716,"MT":538,"sideResp":2,"stimulus":"img/750/equaldotanddens/R/15_Ratio_750_L_9_R_12.png","xmouse":[792,792,793,793,793,793,793,793,793,793,793,793,793,793,793,793,793,793,793,793,793,793,793,793,793,793,793,793,793,793,794,795,799,805,817,844,866,900,911,920,931,942,972,987,1000,1013,1018,1022,1022,1022,1022,1019,1017,1013,1010,1008,1015,1029,1031,1034,1041,1055,1080],"ymouse":[622,622,623,623,623,623,623,623,623,623,623,623,623,623,623,623,623,623,623,623,623,623,623,623,623,623,623,623,623,623,623,623,622,620,615,603,593,573,562,551,536,520,479,460,442,419,401,362,348,335,324,303,291,277,265,254,222,196,181,163,141,117,97],"timestamp_mouse":[16,35,55,74,94,114,136,156,174,195,216,236,255,274,295,315,336,355,374,394,415,435,455,474,495,516,535,555,576,595,614,635,655,676,695,716,735,756,775,795,815,835,854,875,895,915,935,954,974,996,1015,1036,1055,1074,1096,1115,1135,1156,1174,1195,1215,1235,1254],"xSR":741.5,"ySR":573.95,"xT1":424.9,"yT1":0,"xT2":1058.1,"yT2":0,"toosoon":0,"cond_shown":"equaldotanddens","ratio_trial":750,"smaller_num":"9","larger_num":"12","correct_side":2,"subjID":"MatiasCruz20","gender":"0","age":"10","school":"4"},{"start_time":1552070008139,"click_time":1552070009248,"finger_time":1552070008887,"fix_duration":250,"trial":11,"RT":748,"MT":361,"sideResp":1,"stimulus":"img/750/equaldotanddens/L/6_Ratio_750_L_24_R_18.png","xmouse":[782,782,782,782,782,782,782,782,782,782,782,782,782,782,782,782,782,782,782,782,782,782,782,782,782,782,782,782,782,782,782,782,782,782,783,783,783,779,768,752,727,709,669,655,645,637,630,611,598,580,574,570,556,545,529,517],"ymouse":[594,594,594,594,594,594,594,594,594,594,594,594,594,594,594,594,594,594,594,597,599,599,599,599,599,599,599,599,599,599,599,599,599,600,600,599,592,555,527,490,434,389,294,262,238,221,203,160,135,104,94,84,64,47,29,21],"timestamp_mouse":[10,30,48,68,90,110,130,150,170,188,208,229,250,270,288,309,330,349,370,388,408,429,449,470,488,510,530,549,569,589,608,629,650,669,689,709,728,748,769,789,809,829,849,869,890,909,930,949,969,988,1010,1030,1050,1069,1090,1109],"xSR":741.5,"ySR":573.95,"xT1":424.9,"yT1":0,"xT2":1058.1,"yT2":0,"toosoon":0,"cond_shown":"equaldotanddens","ratio_trial":750,"smaller_num":"18","larger_num":"24","correct_side":1,"subjID":"MatiasCruz20","gender":"0","age":"10","school":"4"},{"start_time":1552070012653,"click_time":1552070013448,"finger_time":1552070013287,"fix_duration":1304.0331272013398,"trial":12,"RT":634,"MT":161,"sideResp":2,"stimulus":"img/250/equaldotanddens/R/8_Ratio_250_L_1_R_4.png","xmouse":[794,794,794,794,794,794,794,794,794,794,794,794,794,794,794,794,794,794,794,794,794,794,794,794,794,794,794,795,803,816,839,915,973,997,1017,1038,1073,1084,1090,1092],"ymouse":[620,620,620,620,620,620,620,620,620,620,620,620,620,620,620,620,620,620,620,620,620,620,620,620,620,620,620,620,620,615,598,515,426,377,326,278,185,144,112,91],"timestamp_mouse":[15,34,56,75,95,115,136,156,175,195,214,236,256,276,294,316,336,355,375,394,414,434,456,476,496,515,535,554,575,595,615,634,655,674,694,715,734,755,775,795],"xSR":741.5,"ySR":573.95,"xT1":424.9,"yT1":0,"xT2":1058.1,"yT2":0,"toosoon":0,"cond_shown":"equaldotanddens","ratio_trial":250,"smaller_num":"1","larger_num":"4","correct_side":2,"subjID":"MatiasCruz20","gender":"0","age":"10","school":"4"},{"start_time":1552070015440,"click_time":1552070016308,"finger_time":1552070016088,"fix_duration":510.05898012247644,"trial":13,"RT":648,"MT":220,"sideResp":2,"stimulus":"img/500/equaldotsize/R/1_Ratio_500_L_9_R_18.png","xmouse":[796,794,792,791,791,790,790,790,790,790,790,790,790,790,790,790,790,790,790,790,790,790,790,790,790,790,790,790,790,795,802,826,847,887,904,924,941,957,976,981,990,1006,1045,1068],"ymouse":[605,606,607,608,608,608,608,608,608,608,608,608,608,608,608,608,608,608,608,608,608,608,608,608,608,608,608,608,608,608,608,604,596,556,521,460,398,338,259,230,202,173,111,69],"timestamp_mouse":[8,29,48,68,87,107,128,148,167,189,209,229,248,268,289,308,328,347,367,389,409,429,448,469,487,508,529,547,567,588,608,628,648,668,687,709,728,747,767,788,808,828,848,868],"xSR":741.5,"ySR":573.95,"xT1":424.9,"yT1":0,"xT2":1058.1,"yT2":0,"toosoon":0,"cond_shown":"equaldotsize","ratio_trial":500,"smaller_num":"9","larger_num":"18","correct_side":2,"subjID":"MatiasCruz20","gender":"0","age":"10","school":"4"},{"start_time":1552070018505,"click_time":1552070019467,"finger_time":1552070019308,"fix_duration":1415.8398752055625,"trial":14,"RT":803,"MT":159,"sideResp":2,"stimulus":"img/750/equaldotsize/R/7_Ratio_750_L_3_R_4.png","xmouse":[794,794,794,794,794,794,794,794,794,794,794,794,794,794,794,794,794,794,794,794,794,794,794,794,794,794,794,794,794,794,794,794,794,794,795,797,799,800,804,808,847,890,939,975,1013,1060,1065,1070,1073],"ymouse":[622,622,622,622,622,622,622,622,622,622,622,622,622,622,622,622,622,622,622,622,622,622,622,622,622,622,622,622,622,622,622,622,622,622,622,622,621,620,617,614,582,533,460,392,323,200,152,125,89],"timestamp_mouse":[5,23,44,64,84,103,122,144,164,183,204,223,244,263,283,303,323,342,362,384,403,423,442,463,483,503,524,544,564,582,602,622,643,664,683,702,723,743,763,783,803,823,843,863,882,902,924,943,962],"xSR":741.5,"ySR":573.95,"xT1":424.9,"yT1":0,"xT2":1058.1,"yT2":0,"toosoon":0,"cond_shown":"equaldotsize","ratio_trial":750,"smaller_num":"3","larger_num":"4","correct_side":2,"subjID":"MatiasCruz20","gender":"0","age":"10","school":"4"},{"start_time":1552070023516,"click_time":1552070024527,"finger_time":1552070024269,"fix_duration":686.5743188485153,"trial":15,"RT":753,"MT":258,"sideResp":2,"stimulus":"img/750/equaldotanddens/R/2_Ratio_750_L_6_R_8.png","xmouse":[796,796,796,796,796,796,796,796,796,796,796,796,796,796,796,796,796,796,796,796,796,796,796,796,796,796,796,797,797,797,798,799,799,800,801,803,810,842,886,990,1033,1062,1093,1122,1151,1158,1158,1151,1144,1139,1129],"ymouse":[654,654,654,654,654,654,654,654,654,654,654,654,654,654,654,654,654,654,654,654,654,654,654,654,654,654,654,654,654,654,654,652,651,648,646,636,628,609,585,536,512,487,445,370,259,203,177,152,126,107,73],"timestamp_mouse":[12,32,52,72,91,112,132,151,171,193,212,233,251,272,293,313,331,351,373,392,413,432,452,473,491,511,532,552,573,591,611,632,651,673,692,711,731,753,772,791,812,831,852,873,891,912,931,953,972,992,1011],"xSR":741.5,"ySR":573.95,"xT1":424.9,"yT1":0,"xT2":1058.1,"yT2":0,"toosoon":0,"cond_shown":"equaldotanddens","ratio_trial":750,"smaller_num":"6","larger_num":"8","correct_side":2,"subjID":"MatiasCruz20","gender":"0","age":"10","school":"4"},{"start_time":1552070026201,"click_time":1552070027869,"finger_time":1552070027008,"fix_duration":673.3947489321755,"trial":16,"RT":807,"MT":861,"sideResp":1,"stimulus":"img/250/randomdotsizeEA/L/5_Ratio_250_L_24_R_6.png","xmouse":[794,794,794,794,794,794,794,794,794,794,794,789,786,783,782,781,781,781,781,781,781,781,780,780,779,778,777,775,775,775,775,775,775,775,775,775,775,773,769,756,738,705,674,643,625,624,628,629,629,629,629,624,607,586,571,554,527,511,495,480,476,473,472,472,471,470,470,469,468,468,468,469,470,471,472,472,474,475,475,475,475,475,475,472],"ymouse":[660,660,660,660,660,660,660,660,660,658,655,647,643,638,635,633,633,633,633,633,633,633,633,633,633,633,633,633,633,633,633,633,633,633,633,633,633,633,632,622,602,549,507,472,452,422,409,400,393,385,380,366,341,311,291,271,240,222,210,197,189,181,181,180,178,177,175,173,172,169,164,153,148,146,143,140,135,133,132,129,123,114,111,99],"timestamp_mouse":[7,26,46,68,88,108,126,147,167,188,206,227,246,268,287,306,327,348,367,388,408,427,447,468,487,507,527,547,566,587,608,627,647,667,688,707,726,747,767,788,807,826,846,868,887,907,926,947,967,986,1007,1027,1047,1067,1087,1107,1126,1147,1167,1186,1207,1227,1247,1267,1286,1306,1326,1347,1367,1387,1407,1427,1446,1468,1487,1508,1527,1547,1567,1587,1607,1628,1647,1668],"xSR":741.5,"ySR":573.95,"xT1":424.9,"yT1":0,"xT2":1058.1,"yT2":0,"toosoon":0,"cond_shown":"randomdotsizeEA","ratio_trial":250,"smaller_num":"6","larger_num":"24","correct_side":1,"subjID":"MatiasCruz20","gender":"0","age":"10","school":"4"},{"start_time":1552070031145,"click_time":1552070032349,"finger_time":1552070031948,"fix_duration":636.4404615809749,"trial":17,"RT":803,"MT":401,"sideResp":1,"stimulus":"img/500/equaldotanddens/L/13_Ratio_500_L_12_R_6.png","xmouse":[800,799,797,796,794,792,791,790,790,790,789,789,789,789,789,789,789,789,789,789,789,789,789,789,789,789,789,789,789,789,789,789,789,789,789,789,789,789,787,777,733,682,618,548,494,431,412,398,393,391,391,391,391,391,390,390,390,392,398,408,441],"ymouse":[624,624,625,625,625,625,625,625,625,625,625,625,625,625,625,625,625,625,625,625,625,625,625,625,625,625,625,625,625,625,625,625,625,625,625,625,625,625,624,610,531,468,390,305,236,122,78,38,20,5,0,0,0,0,0,0,0,1,10,19,44],"timestamp_mouse":[3,23,43,63,83,103,122,144,163,182,203,222,244,263,284,302,324,344,364,383,404,424,442,462,482,503,524,543,562,583,603,623,643,664,682,703,722,744,763,784,803,823,843,863,883,903,923,942,963,983,1004,1023,1043,1062,1084,1103,1123,1142,1163,1183,1204],"xSR":741.5,"ySR":573.95,"xT1":424.9,"yT1":0,"xT2":1058.1,"yT2":0,"toosoon":0,"cond_shown":"equaldotanddens","ratio_trial":500,"smaller_num":"6","larger_num":"12","correct_side":1,"subjID":"MatiasCruz20","gender":"0","age":"10","school":"4"},{"start_time":1552070034720,"click_time":1552070036029,"finger_time":1552070035487,"fix_duration":250,"trial":18,"RT":767,"MT":542,"sideResp":2,"stimulus":"img/750/equaldotsize/R/15_Ratio_750_L_9_R_12.png","xmouse":[775,775,775,775,775,775,775,775,775,775,775,775,775,775,775,775,775,775,775,775,775,775,775,775,775,775,775,775,773,772,769,765,764,763,763,762,762,762,765,772,780,791,793,799,811,822,833,863,881,908,918,985,1002,1004,1004,1004,1004,1003,1003,1002,1002,1002,1017,1037,1053,1064],"ymouse":[621,621,621,621,621,621,621,621,621,621,621,621,621,621,621,621,621,621,621,621,621,621,621,621,621,621,621,621,619,613,608,599,595,592,589,586,581,574,565,549,528,476,439,372,293,250,223,154,123,91,83,42,35,33,33,33,33,32,32,32,32,32,23,17,12,6],"timestamp_mouse":[9,29,48,69,88,109,128,148,169,189,208,227,249,269,289,309,327,347,368,388,408,427,449,469,487,509,529,549,567,588,608,628,647,669,688,709,727,748,767,788,808,827,848,869,888,907,929,947,967,988,1008,1027,1048,1067,1087,1107,1129,1149,1167,1188,1208,1228,1247,1268,1289,1309],"xSR":741.5,"ySR":573.95,"xT1":424.9,"yT1":0,"xT2":1058.1,"yT2":0,"toosoon":0,"cond_shown":"equaldotsize","ratio_trial":750,"smaller_num":"9","larger_num":"12","correct_side":2,"subjID":"MatiasCruz20","gender":"0","age":"10","school":"4"},{"start_time":1552070037658,"click_time":1552070038487,"finger_time":1552070038367,"fix_duration":588.8185563970936,"trial":19,"RT":709,"MT":120,"sideResp":2,"stimulus":"img/900/equaldotanddens/L/1_Ratio_900_L_10_R_9.png","xmouse":[785,785,785,785,785,785,785,785,785,785,785,785,785,785,785,785,785,785,785,785,785,785,785,785,785,785,785,785,785,786,791,795,801,811,832,842,853,868,883,928,1039,1111],"ymouse":[615,615,615,615,615,615,615,615,615,615,615,615,615,615,615,615,615,615,615,615,615,615,615,615,615,615,615,615,615,615,615,614,611,605,581,557,529,482,428,322,177,91],"timestamp_mouse":[10,30,49,69,91,111,130,150,171,190,211,230,250,270,289,310,330,351,370,391,411,429,450,471,490,511,531,551,570,590,610,629,650,670,690,709,730,750,771,790,811,829],"xSR":741.5,"ySR":573.95,"xT1":424.9,"yT1":0,"xT2":1058.1,"yT2":0,"toosoon":0,"cond_shown":"equaldotanddens","ratio_trial":900,"smaller_num":"9","larger_num":"10","correct_side":1,"subjID":"MatiasCruz20","gender":"0","age":"10","school":"4"},{"start_time":1552070040350,"click_time":1552070041989,"finger_time":1552070040528,"fix_duration":441.41954939061935,"trial":20,"RT":178,"MT":1461,"sideResp":2,"stimulus":"img/900/randomdotsizeEA/R/15_Ratio_900_L_9_R_10.png","xmouse":[778,778,778,778,785,813,831,840,848,852,853,853,853,853,853,853,853,853,853,852,845,841,838,832,830,828,828,828,828,828,828,828,828,828,828,828,828,827,827,827,827,827,827,827,828,828,829,831,835,843,867,870,878,889,916,982,1004,1008,1009,1009,1009,1009,1009,1009,1010,1014,1017,1022,1025,1027,1029,1030,1032,1033,1035,1039,1040,1043,1044,1047,1052,1059],"ymouse":[592,592,592,592,600,625,643,652,656,658,659,659,659,659,659,659,659,659,658,657,651,647,643,635,632,628,627,627,627,627,627,627,627,627,627,627,627,627,627,627,625,620,614,608,603,596,592,587,577,558,445,417,332,259,162,0,0,0,0,0,0,0,0,0,0,5,14,24,31,35,37,38,40,41,43,46,46,48,48,48,50,53],"timestamp_mouse":[19,38,58,77,97,118,137,159,178,198,218,237,259,279,299,319,339,358,377,397,417,439,458,477,498,518,538,559,577,597,617,638,658,678,698,718,737,759,779,797,817,837,857,878,898,919,937,959,978,998,1018,1039,1057,1078,1098,1118,1137,1158,1178,1198,1218,1237,1257,1278,1298,1319,1338,1359,1378,1399,1418,1438,1457,1478,1498,1519,1538,1558,1577,1598,1618,1639],"xSR":741.5,"ySR":573.95,"xT1":424.9,"yT1":0,"xT2":1058.1,"yT2":0,"toosoon":0,"cond_shown":"randomdotsizeEA","ratio_trial":900,"smaller_num":"9","larger_num":"10","correct_side":2,"subjID":"MatiasCruz20","gender":"0","age":"10","school":"4"},{"start_time":1552070044419,"click_time":1552070045328,"finger_time":1552070045168,"fix_duration":1370.0161773985049,"trial":21,"RT":749,"MT":160,"sideResp":1,"stimulus":"img/900/randomdotsizeEA/L/2_Ratio_900_L_20_R_18.png","xmouse":[788,788,788,788,788,788,788,788,788,788,788,788,788,788,788,788,788,788,788,788,788,788,788,788,788,788,788,788,788,788,791,794,795,798,798,799,799,712,633,573,538,530,530,530,527,512],"ymouse":[641,641,641,641,641,641,641,641,641,641,641,641,641,641,641,641,641,641,641,641,641,641,641,641,641,641,641,641,641,641,641,641,641,641,639,627,594,354,242,151,104,89,87,83,75,58],"timestamp_mouse":[9,28,48,69,88,109,129,149,168,190,210,230,250,270,288,308,329,349,368,389,410,429,450,468,488,510,529,549,570,588,609,629,650,669,689,709,728,749,768,788,810,829,849,868,890,909],"xSR":741.5,"ySR":573.95,"xT1":424.9,"yT1":0,"xT2":1058.1,"yT2":0,"toosoon":0,"cond_shown":"randomdotsizeEA","ratio_trial":900,"smaller_num":"18","larger_num":"20","correct_side":1,"subjID":"MatiasCruz20","gender":"0","age":"10","school":"4"},{"start_time":1552070046830,"click_time":1552070047707,"finger_time":1552070047548,"fix_duration":520.6578930629788,"trial":22,"RT":718,"MT":159,"sideResp":1,"stimulus":"img/900/equaldotsize/L/4_Ratio_900_L_20_R_18.png","xmouse":[795,795,795,795,795,795,795,795,795,795,795,795,795,795,795,795,795,795,795,795,795,795,795,795,795,795,795,795,796,796,796,797,797,797,797,793,779,755,741,717,679,579,511,445],"ymouse":[617,617,617,617,617,617,617,617,617,617,617,617,617,617,617,617,617,617,617,617,617,617,617,617,617,617,617,617,617,614,613,610,602,592,581,564,534,478,429,365,284,147,101,67],"timestamp_mouse":[18,38,59,78,99,117,137,159,179,198,218,238,259,279,297,318,338,358,377,397,419,439,458,477,499,519,538,557,578,598,619,639,657,678,698,718,737,758,777,798,818,839,858,877],"xSR":741.5,"ySR":573.95,"xT1":424.9,"yT1":0,"xT2":1058.1,"yT2":0,"toosoon":0,"cond_shown":"equaldotsize","ratio_trial":900,"smaller_num":"18","larger_num":"20","correct_side":1,"subjID":"MatiasCruz20","gender":"0","age":"10","school":"4"},{"start_time":1552070049035,"click_time":1552070050028,"finger_time":1552070049669,"fix_duration":264.86950105485874,"trial":23,"RT":634,"MT":359,"sideResp":1,"stimulus":"img/750/equaldotanddens/L/6_Ratio_750_L_24_R_18.png","xmouse":[810,810,810,810,810,810,810,810,810,810,810,810,810,810,810,810,810,810,810,810,810,810,810,810,810,810,810,808,800,785,765,729,664,642,628,623,621,621,620,619,617,611,593,586,579,571,562,536,525,517],"ymouse":[633,633,633,633,633,633,633,633,633,633,633,633,633,633,633,633,633,633,633,633,633,633,633,633,633,633,633,633,631,619,591,523,349,271,219,193,187,181,178,176,171,159,124,114,103,96,86,68,60,54],"timestamp_mouse":[13,32,54,73,93,113,132,154,173,194,213,232,254,273,293,313,334,352,373,394,414,434,452,473,494,513,532,552,572,593,613,634,653,673,693,714,733,753,773,793,813,833,853,873,892,914,933,953,973,993],"xSR":741.5,"ySR":573.95,"xT1":424.9,"yT1":0,"xT2":1058.1,"yT2":0,"toosoon":0,"cond_shown":"equaldotanddens","ratio_trial":750,"smaller_num":"18","larger_num":"24","correct_side":1,"subjID":"MatiasCruz20","gender":"0","age":"10","school":"4"},{"start_time":1552070051257,"click_time":1552070051968,"finger_time":1552070051869,"fix_duration":307.22777650625255,"trial":24,"RT":612,"MT":99,"sideResp":2,"stimulus":"img/900/equaldotanddens/R/3_Ratio_900_L_9_R_10.png","xmouse":[798,798,798,798,798,798,798,798,798,798,798,798,798,798,798,798,798,798,798,798,798,798,798,798,798,798,799,804,812,827,851,921,966,1036,1096,1152],"ymouse":[614,614,614,614,614,614,614,614,614,614,614,614,614,614,614,614,614,614,614,614,614,614,614,614,614,614,614,613,609,598,581,499,426,294,184,88],"timestamp_mouse":[11,31,52,70,92,110,131,151,170,190,210,231,251,271,290,311,332,352,371,390,412,432,450,470,491,515,532,550,571,591,612,630,652,670,691,711],"xSR":741.5,"ySR":573.95,"xT1":424.9,"yT1":0,"xT2":1058.1,"yT2":0,"toosoon":0,"cond_shown":"equaldotanddens","ratio_trial":900,"smaller_num":"9","larger_num":"10","correct_side":2,"subjID":"MatiasCruz20","gender":"0","age":"10","school":"4"},{"start_time":1552070053404,"click_time":1552070054488,"finger_time":1552070054109,"fix_duration":813.5389523886427,"trial":25,"RT":705,"MT":379,"sideResp":1,"stimulus":"img/250/equaldotanddens/L/1_Ratio_250_L_8_R_2.png","xmouse":[786,786,786,786,786,786,787,787,787,787,788,788,788,788,789,789,789,789,789,789,789,789,789,789,789,789,790,790,790,790,791,794,797,803,814,827,834,840,844,843,837,829,821,812,798,755,704,637,575,552,534,531,525,512,493],"ymouse":[643,643,643,643,643,643,642,642,642,642,641,641,641,641,641,641,641,641,641,640,640,640,640,640,640,640,640,639,635,633,624,617,610,596,576,541,522,504,485,450,433,419,408,401,394,374,345,305,264,246,208,194,163,110,41],"timestamp_mouse":[4,23,45,64,85,103,124,145,164,184,205,225,245,265,284,304,324,344,363,384,403,424,445,465,485,503,525,544,563,584,603,625,644,665,684,705,723,744,764,784,805,825,844,864,884,904,923,944,964,984,1003,1023,1043,1064,1084],"xSR":741.5,"ySR":573.95,"xT1":424.9,"yT1":0,"xT2":1058.1,"yT2":0,"toosoon":0,"cond_shown":"equaldotanddens","ratio_trial":250,"smaller_num":"2","larger_num":"8","correct_side":1,"subjID":"MatiasCruz20","gender":"0","age":"10","school":"4"},{"start_time":1552070056924,"click_time":1552070057928,"finger_time":1552070057648,"fix_duration":1274.1165885972953,"trial":26,"RT":724,"MT":280,"sideResp":2,"stimulus":"img/500/equaldotsize/R/9_Ratio_500_L_2_R_4.png","xmouse":[812,812,812,812,812,812,812,812,812,812,812,812,812,812,812,813,814,815,818,819,819,819,819,819,819,819,819,819,819,819,820,821,821,823,831,841,857,898,947,1037,1068,1085,1097,1105,1121,1128,1135,1137,1139,1146,1147],"ymouse":[640,640,640,640,640,641,643,643,643,644,644,645,645,645,645,647,647,647,647,648,648,648,648,648,648,648,648,648,648,648,648,648,648,648,644,639,630,601,557,438,380,335,294,271,230,211,185,167,152,117,99],"timestamp_mouse":[4,25,44,65,83,104,123,145,164,184,203,223,244,265,284,305,323,345,365,385,404,423,443,464,485,504,525,545,563,584,604,624,644,664,683,703,724,745,764,784,804,824,843,864,883,904,923,943,964,984,1004],"xSR":741.5,"ySR":573.95,"xT1":424.9,"yT1":0,"xT2":1058.1,"yT2":0,"toosoon":0,"cond_shown":"equaldotsize","ratio_trial":500,"smaller_num":"2","larger_num":"4","correct_side":2,"subjID":"MatiasCruz20","gender":"0","age":"10","school":"4"},{"start_time":1552070058860,"click_time":1552070059968,"finger_time":1552070059647,"fix_duration":250,"trial":27,"RT":787,"MT":321,"sideResp":2,"stimulus":"img/500/equaldotsize/R/9_Ratio_500_L_2_R_4.png","xmouse":[805,805,804,804,804,803,803,803,803,803,802,801,799,799,798,798,796,795,795,793,792,792,791,791,791,791,791,791,791,791,791,791,791,791,791,793,796,818,830,853,876,906,966,978,988,996,1005,1032,1053,1065,1075,1086,1100,1103,1106,1107],"ymouse":[615,615,617,617,617,617,617,617,617,618,618,619,621,621,622,622,622,623,623,624,625,625,626,626,626,626,626,626,626,626,626,626,626,626,626,626,626,616,607,584,556,517,430,404,381,361,342,303,274,247,211,173,124,113,105,98],"timestamp_mouse":[9,27,47,68,88,108,128,148,169,188,209,227,248,267,288,308,328,349,368,387,407,427,448,469,487,507,529,548,568,587,608,629,648,668,687,707,728,747,768,787,809,828,849,868,888,908,927,948,968,987,1007,1028,1048,1068,1089,1108],"xSR":741.5,"ySR":573.95,"xT1":424.9,"yT1":0,"xT2":1058.1,"yT2":0,"toosoon":0,"cond_shown":"equaldotsize","ratio_trial":500,"smaller_num":"2","larger_num":"4","correct_side":2,"subjID":"MatiasCruz20","gender":"0","age":"10","school":"4"},{"start_time":1552070063209,"click_time":1552070064109,"finger_time":1552070063830,"fix_duration":1038.0533913997267,"trial":28,"RT":621,"MT":279,"sideResp":1,"stimulus":"img/250/equaldotsize/L/2_Ratio_250_L_16_R_4.png","xmouse":[787,787,787,787,787,787,787,787,787,787,787,787,787,787,787,787,787,787,787,787,787,787,787,787,787,787,787,787,784,780,761,710,679,646,615,591,584,582,569,555,541,525,525,525,525,523],"ymouse":[630,630,630,630,630,630,630,630,630,630,630,630,630,630,630,630,630,630,630,630,630,630,630,630,630,630,630,630,627,622,583,432,337,246,171,88,69,66,54,45,39,33,33,33,33,33],"timestamp_mouse":[0,20,39,60,79,101,120,140,159,181,200,219,240,260,279,299,320,341,361,379,400,420,439,459,481,501,519,539,559,581,600,621,639,660,680,699,719,739,760,780,800,821,841,859,879,900],"xSR":741.5,"ySR":573.95,"xT1":424.9,"yT1":0,"xT2":1058.1,"yT2":0,"toosoon":0,"cond_shown":"equaldotsize","ratio_trial":250,"smaller_num":"4","larger_num":"16","correct_side":1,"subjID":"MatiasCruz20","gender":"0","age":"10","school":"4"},{"start_time":1552070066596,"click_time":1552070068889,"finger_time":1552070067309,"fix_duration":346.342898280063,"trial":29,"RT":713,"MT":1580,"sideResp":1,"stimulus":"img/900/equaldotsize/R/6_Ratio_900_L_9_R_10.png","xmouse":[793,793,793,793,793,793,793,793,793,793,793,793,793,793,793,793,793,793,793,793,793,793,793,793,793,791,784,782,781,781,781,783,788,797,811,834,917,1015,1047,1144,1193,1229,1231,1231,1231,1231,1231,1231,1231,1231,1231,1231,1230,1227,1224,1221,1217,1217,1217,1217,1217,1215,1215,1214,1213,1213,1212,1209,1207,1203,1198,1184,1175,1164,1150,1130,1077,1022,982,933,892,792,761,734,725,708,668,647,638,629,622,586,566,553,551,550,549,542,525,518,518,518,518,518,518,518,518,518,518,518,518,518,518,518,517],"ymouse":[624,624,624,624,624,624,624,624,624,624,624,624,624,624,624,624,624,624,624,624,624,624,624,624,624,624,621,620,619,619,619,617,610,600,584,564,483,373,339,211,110,0,0,0,0,0,0,0,0,0,0,0,3,10,15,19,24,25,25,25,25,27,28,30,32,36,45,63,82,101,118,154,171,188,209,237,292,327,343,351,351,327,310,296,292,287,277,269,263,255,248,224,211,202,199,198,190,172,129,114,110,109,109,109,109,109,108,108,108,108,108,108,103,100,95],"timestamp_mouse":[14,33,52,73,94,113,133,152,172,194,214,233,253,273,293,314,333,352,372,393,413,433,452,473,494,513,533,553,573,592,613,634,652,673,693,713,732,752,774,793,814,832,853,874,893,913,933,952,972,992,1014,1033,1053,1073,1093,1114,1134,1153,1172,1192,1212,1233,1253,1273,1293,1314,1332,1352,1372,1394,1413,1433,1453,1473,1493,1514,1533,1552,1572,1594,1613,1633,1653,1673,1693,1713,1733,1753,1774,1793,1813,1832,1853,1873,1893,1913,1932,1954,1973,1993,2013,2032,2053,2072,2092,2114,2133,2154,2173,2194,2212,2232,2253,2273,2293],"xSR":741.5,"ySR":573.95,"xT1":424.9,"yT1":0,"xT2":1058.1,"yT2":0,"toosoon":0,"cond_shown":"equaldotsize","ratio_trial":900,"smaller_num":"9","larger_num":"10","correct_side":2,"subjID":"MatiasCruz20","gender":"0","age":"10","school":"4"},{"start_time":1552070070987,"click_time":1552070072048,"finger_time":1552070071789,"fix_duration":1057.4680303403243,"trial":30,"RT":802,"MT":259,"sideResp":2,"stimulus":"img/750/randomdotsizeEA/R/12_Ratio_750_L_3_R_4.png","xmouse":[802,802,802,802,802,802,802,802,802,802,802,802,802,802,802,802,802,802,802,802,802,802,802,802,802,802,802,802,802,802,802,802,802,804,806,808,812,823,828,839,859,881,904,950,987,1038,1094,1161,1175,1173,1169,1165,1162,1147],"ymouse":[602,602,602,602,602,602,602,602,602,602,602,602,602,602,602,602,602,602,602,602,601,601,601,601,601,601,601,601,601,601,601,601,600,597,595,594,593,588,587,584,578,570,563,533,490,414,320,180,90,77,69,64,61,46],"timestamp_mouse":[3,22,43,62,83,102,121,143,163,183,201,222,242,263,282,301,321,341,362,383,402,423,443,463,482,501,522,543,563,583,602,622,642,661,682,702,723,741,761,781,802,822,841,861,883,902,923,942,962,981,1002,1022,1043,1061],"xSR":741.5,"ySR":573.95,"xT1":424.9,"yT1":0,"xT2":1058.1,"yT2":0,"toosoon":0,"cond_shown":"randomdotsizeEA","ratio_trial":750,"smaller_num":"3","larger_num":"4","correct_side":2,"subjID":"MatiasCruz20","gender":"0","age":"10","school":"4"},{"start_time":1552070074744,"click_time":1552070076510,"finger_time":1552070075429,"fix_duration":353.88362064902213,"trial":31,"RT":685,"MT":1081,"sideResp":2,"stimulus":"img/900/equaldotsize/R/5_Ratio_900_L_9_R_10.png","xmouse":[793,793,793,793,793,793,793,793,793,793,793,793,793,793,793,793,793,793,793,793,793,793,793,793,793,793,793,793,793,793,793,799,812,834,859,909,934,982,1013,1039,1054,1054,1054,1054,1054,1054,1054,1054,1054,1053,1053,1053,1053,1053,1053,1054,1054,1054,1054,1054,1054,1054,1054,1054,1054,1054,1054,1054,1054,1054,1054,1054,1054,1054,1054,1054,1055,1056,1057,1058,1058,1058,1058,1058,1058,1058,1058,1058,1059],"ymouse":[603,603,603,603,603,603,603,603,603,603,603,603,603,603,603,603,603,603,603,603,603,603,603,603,603,603,603,603,603,603,603,602,596,586,574,535,504,419,357,292,230,218,210,202,192,170,149,142,127,121,113,107,97,86,78,69,68,68,68,68,68,67,66,66,65,65,65,65,65,65,65,65,65,65,65,65,65,65,65,65,65,65,65,65,65,65,65,65,65],"timestamp_mouse":[6,24,44,65,86,106,125,146,165,184,206,225,245,264,284,305,325,344,365,386,406,425,446,464,486,504,525,546,566,584,605,624,646,665,685,704,725,744,765,785,806,824,845,865,885,904,925,945,966,986,1005,1025,1046,1065,1086,1104,1125,1144,1165,1186,1206,1226,1245,1265,1284,1305,1326,1346,1364,1386,1404,1425,1445,1465,1486,1504,1525,1544,1566,1585,1605,1625,1645,1665,1686,1705,1726,1745,1766],"xSR":741.5,"ySR":573.95,"xT1":424.9,"yT1":0,"xT2":1058.1,"yT2":0,"toosoon":0,"cond_shown":"equaldotsize","ratio_trial":900,"smaller_num":"9","larger_num":"10","correct_side":2,"subjID":"MatiasCruz20","gender":"0","age":"10","school":"4"},{"start_time":1552070079195,"click_time":1552070080429,"finger_time":1552070080009,"fix_duration":1086.7752419504861,"trial":32,"RT":814,"MT":420,"sideResp":2,"stimulus":"img/750/randomdotsizeEA/R/12_Ratio_750_L_3_R_4.png","xmouse":[782,782,782,782,782,782,782,783,784,784,784,784,785,785,785,785,785,785,785,785,785,785,785,785,785,786,786,786,786,786,786,787,788,789,789,792,796,814,825,835,844,852,879,895,921,940,958,974,989,992,997,1003,1020,1023,1024,1025,1025,1030,1038,1047,1057,1065],"ymouse":[598,599,600,600,600,600,600,601,601,601,602,602,602,602,602,602,602,602,602,602,602,602,602,602,602,603,603,603,603,603,603,603,603,603,603,603,601,595,591,587,579,568,485,423,346,273,218,179,143,131,115,97,68,63,61,61,61,59,54,48,40,33],"timestamp_mouse":[14,35,54,74,95,115,134,153,174,194,215,234,253,274,294,313,334,354,375,394,413,435,454,473,493,515,535,554,573,594,613,635,654,675,693,715,734,754,773,795,814,834,853,874,894,915,934,954,973,994,1014,1034,1054,1074,1095,1114,1134,1153,1174,1194,1214,1234],"xSR":741.5,"ySR":573.95,"xT1":424.9,"yT1":0,"xT2":1058.1,"yT2":0,"toosoon":0,"cond_shown":"randomdotsizeEA","ratio_trial":750,"smaller_num":"3","larger_num":"4","correct_side":2,"subjID":"MatiasCruz20","gender":"0","age":"10","school":"4"},{"start_time":1552070082100,"click_time":1552070083048,"finger_time":1552070082809,"fix_duration":250,"trial":33,"RT":709,"MT":239,"sideResp":1,"stimulus":"img/500/randomdotsizeEA/L/8_Ratio_500_L_8_R_4.png","xmouse":[813,811,811,809,809,809,809,809,809,809,809,809,809,809,809,809,809,809,809,809,809,809,809,809,809,809,809,809,809,809,809,809,809,808,801,784,707,654,588,579,573,568,562,537,527,514,510,507],"ymouse":[609,609,609,608,608,608,608,608,608,608,608,608,608,608,608,608,608,608,608,608,608,608,608,608,608,608,608,608,608,608,608,608,608,607,593,551,432,356,249,225,206,191,174,133,120,105,100,98],"timestamp_mouse":[9,28,49,69,88,109,129,149,169,189,209,229,248,268,289,309,330,350,368,388,408,430,449,468,489,510,529,548,570,590,608,628,649,668,689,709,730,749,770,788,810,829,849,868,889,908,928,948],"xSR":741.5,"ySR":573.95,"xT1":424.9,"yT1":0,"xT2":1058.1,"yT2":0,"toosoon":0,"cond_shown":"randomdotsizeEA","ratio_trial":500,"smaller_num":"4","larger_num":"8","correct_side":1,"subjID":"MatiasCruz20","gender":"0","age":"10","school":"4"},{"start_time":1552070085581,"click_time":1552070087089,"finger_time":1552070086229,"fix_duration":1111.6079272306763,"trial":34,"RT":648,"MT":860,"sideResp":1,"stimulus":"img/900/equaldotanddens/L/8_Ratio_900_L_20_R_18.png","xmouse":[813,813,813,813,813,813,813,813,813,813,813,813,813,813,813,813,813,813,813,813,813,813,813,813,813,813,813,813,813,817,825,840,852,860,868,870,870,870,870,869,868,865,860,851,810,766,707,661,642,642,642,642,640,637,621,606,589,570,528,444,388,379,368,366,366,366,366,365,363,362,366,377,387,394,420,428],"ymouse":[610,610,610,610,610,610,610,610,610,610,610,610,610,610,610,610,610,610,610,610,610,610,610,610,610,610,610,610,610,609,601,583,567,555,532,523,518,514,512,511,509,509,507,505,493,479,454,432,422,422,422,422,421,416,393,373,352,325,265,128,27,7,0,0,0,0,0,0,0,0,4,17,34,51,86,92],"timestamp_mouse":[7,28,49,68,87,109,128,147,167,188,209,229,249,267,287,308,328,348,367,388,407,428,449,469,489,509,529,547,567,587,608,627,648,668,688,708,729,748,769,788,807,828,848,868,887,908,928,948,969,988,1007,1027,1048,1068,1087,1108,1129,1148,1167,1187,1209,1228,1247,1267,1288,1308,1329,1347,1369,1388,1408,1427,1447,1468,1487,1507],"xSR":741.5,"ySR":573.95,"xT1":424.9,"yT1":0,"xT2":1058.1,"yT2":0,"toosoon":0,"cond_shown":"equaldotanddens","ratio_trial":900,"smaller_num":"18","larger_num":"20","correct_side":1,"subjID":"MatiasCruz20","gender":"0","age":"10","school":"4"},{"start_time":1552070091078,"click_time":1552070091789,"finger_time":1552070091729,"fix_duration":1167.2925586968577,"trial":35,"RT":651,"MT":60,"sideResp":1,"stimulus":"img/500/equaldotanddens/L/5_Ratio_500_L_4_R_2.png","xmouse":[802,802,802,802,802,802,802,802,802,802,802,802,802,802,802,802,802,802,802,802,802,802,802,802,802,802,802,802,802,802,799,780,741,642,584,482],"ymouse":[613,613,613,613,613,613,613,613,613,613,613,613,613,613,613,613,613,613,613,613,613,613,613,613,613,613,613,613,613,613,609,580,506,322,205,29],"timestamp_mouse":[10,31,52,72,90,110,131,151,172,192,212,230,250,271,291,311,332,351,371,391,411,430,450,472,491,510,530,550,570,591,610,632,651,672,691,711],"xSR":741.5,"ySR":573.95,"xT1":424.9,"yT1":0,"xT2":1058.1,"yT2":0,"toosoon":0,"cond_shown":"equaldotanddens","ratio_trial":500,"smaller_num":"2","larger_num":"4","correct_side":1,"subjID":"MatiasCruz20","gender":"0","age":"10","school":"4"},{"start_time":1552070094440,"click_time":1552070095769,"finger_time":1552070095149,"fix_duration":371.5743055752232,"trial":36,"RT":709,"MT":620,"sideResp":2,"stimulus":"img/500/randomdotsizeEA/R/3_Ratio_500_L_10_R_20.png","xmouse":[795,795,795,795,795,795,795,795,795,795,795,795,795,795,795,795,795,795,795,795,795,795,795,795,795,795,795,795,795,795,796,797,800,813,838,873,912,943,996,1024,1068,1111,1200,1253,1279,1292,1301,1310,1311,1311,1311,1311,1311,1307,1297,1284,1268,1251,1243,1235,1226,1212,1186,1175,1169,1162,1156],"ymouse":[636,636,636,636,636,636,636,636,636,636,636,636,636,636,636,636,636,636,636,636,636,636,636,636,636,636,636,636,636,636,636,637,637,638,634,619,600,577,515,469,390,298,83,0,0,0,0,0,0,0,0,0,0,1,7,17,27,33,34,35,36,37,42,43,43,44,44],"timestamp_mouse":[10,29,49,70,89,108,128,148,170,190,209,229,249,268,290,310,329,348,370,389,409,429,448,468,488,508,529,549,570,588,610,629,649,668,688,709,729,749,768,788,810,829,848,869,889,910,929,948,969,989,1010,1029,1049,1069,1088,1110,1129,1150,1169,1189,1209,1229,1248,1269,1289,1309,1329],"xSR":741.5,"ySR":573.95,"xT1":424.9,"yT1":0,"xT2":1058.1,"yT2":0,"toosoon":0,"cond_shown":"randomdotsizeEA","ratio_trial":500,"smaller_num":"10","larger_num":"20","correct_side":2,"subjID":"MatiasCruz20","gender":"0","age":"10","school":"4"},{"start_time":1552070097696,"click_time":1552070098510,"finger_time":1552070098389,"fix_duration":946.7953339542175,"trial":37,"RT":693,"MT":121,"sideResp":1,"stimulus":"img/900/equaldotanddens/L/4_Ratio_900_L_20_R_18.png","xmouse":[820,820,820,820,820,820,820,820,820,820,820,820,820,820,820,820,820,820,820,820,820,820,820,820,820,820,820,820,820,820,820,820,814,809,786,694,644,609,583,539,506],"ymouse":[595,595,595,595,595,595,595,595,595,595,595,595,595,595,595,595,595,595,595,595,595,595,595,595,595,595,595,595,595,595,595,595,588,579,546,410,339,281,226,142,81],"timestamp_mouse":[13,33,53,72,94,114,132,152,173,194,213,232,253,274,294,312,333,354,374,394,413,433,454,472,493,514,533,554,573,594,614,632,652,673,693,712,733,753,773,793,814],"xSR":741.5,"ySR":573.95,"xT1":424.9,"yT1":0,"xT2":1058.1,"yT2":0,"toosoon":0,"cond_shown":"equaldotanddens","ratio_trial":900,"smaller_num":"18","larger_num":"20","correct_side":1,"subjID":"MatiasCruz20","gender":"0","age":"10","school":"4"},{"start_time":1552070100462,"click_time":1552070102110,"finger_time":1552070101808,"fix_duration":1052.6740867609635,"trial":38,"RT":1346,"MT":302,"sideResp":1,"stimulus":"img/900/equaldotsize/R/3_Ratio_900_L_9_R_10.png","xmouse":[806,806,806,806,806,806,806,806,806,806,806,806,806,806,806,806,806,806,806,806,806,806,806,806,806,806,806,806,806,806,806,806,806,806,806,806,806,806,806,806,806,806,807,807,807,808,809,809,809,809,809,809,809,809,809,809,809,809,809,809,809,809,809,809,803,793,777,733,695,675,653,633,608,601,598,596,595,593,590,587,582,568,519],"ymouse":[599,599,599,599,599,599,599,599,599,599,599,599,599,599,599,599,599,599,599,599,599,599,599,599,599,599,599,599,599,599,599,599,599,599,599,599,599,599,599,599,599,599,599,598,598,598,597,597,597,597,597,597,597,597,597,597,597,597,597,597,597,596,596,595,590,583,575,547,509,477,437,401,337,318,305,295,288,280,268,258,240,204,86],"timestamp_mouse":[9,29,47,67,87,107,127,146,168,187,208,227,246,268,288,308,327,347,367,387,408,428,446,467,487,507,526,546,566,586,607,628,646,667,687,708,727,746,766,788,808,826,847,867,887,907,927,946,968,986,1006,1028,1047,1067,1087,1106,1127,1148,1166,1186,1206,1226,1247,1267,1286,1307,1327,1346,1366,1386,1407,1427,1447,1467,1486,1507,1526,1546,1567,1586,1607,1626,1647],"xSR":741.5,"ySR":573.95,"xT1":424.9,"yT1":0,"xT2":1058.1,"yT2":0,"toosoon":0,"cond_shown":"equaldotsize","ratio_trial":900,"smaller_num":"9","larger_num":"10","correct_side":2,"subjID":"MatiasCruz20","gender":"0","age":"10","school":"4"},{"start_time":1552070104597,"click_time":1552070105729,"finger_time":1552070105369,"fix_duration":1386.9688500732034,"trial":39,"RT":772,"MT":360,"sideResp":1,"stimulus":"img/750/equaldotanddens/L/9_Ratio_750_L_4_R_3.png","xmouse":[809,809,809,809,809,809,809,809,809,809,809,809,809,809,809,809,809,809,809,809,809,809,809,809,809,809,809,809,809,809,809,809,809,809,809,809,808,811,816,819,809,796,785,775,771,761,753,742,729,713,652,612,574,543,519,499,429],"ymouse":[584,584,584,584,584,584,584,584,584,584,584,584,584,584,584,584,584,584,584,584,584,584,584,584,584,584,584,584,584,584,584,584,584,584,584,584,584,578,566,553,512,493,479,468,462,454,451,446,440,431,381,339,291,254,220,179,17],"timestamp_mouse":[12,32,52,72,92,113,131,152,172,191,213,233,252,272,292,313,333,353,371,391,411,432,452,471,491,511,532,553,573,591,611,633,652,672,692,713,731,752,772,791,812,832,852,873,892,911,932,951,972,993,1011,1032,1051,1071,1092,1112,1132],"xSR":741.5,"ySR":573.95,"xT1":424.9,"yT1":0,"xT2":1058.1,"yT2":0,"toosoon":0,"cond_shown":"equaldotanddens","ratio_trial":750,"smaller_num":"3","larger_num":"4","correct_side":1,"subjID":"MatiasCruz20","gender":"0","age":"10","school":"4"},{"start_time":1552070108201,"click_time":1552070109049,"finger_time":1552070108790,"fix_duration":250,"trial":40,"RT":589,"MT":259,"sideResp":1,"stimulus":"img/750/equaldotanddens/L/6_Ratio_750_L_24_R_18.png","xmouse":[782,782,782,782,782,782,782,782,782,783,783,783,785,786,789,794,800,800,800,800,800,800,800,804,808,808,808,808,809,809,808,794,778,762,748,731,670,622,554,519,495,470,457],"ymouse":[581,581,581,581,581,581,581,581,581,581,581,581,581,581,582,582,582,582,582,582,582,582,582,579,576,576,576,576,575,573,568,555,546,536,526,514,448,382,277,216,173,119,99],"timestamp_mouse":[8,28,48,68,89,109,128,148,167,188,207,227,247,268,288,309,328,349,368,388,408,428,447,468,487,508,528,547,567,589,608,628,648,669,688,707,728,748,768,787,808,828,848],"xSR":741.5,"ySR":573.95,"xT1":424.9,"yT1":0,"xT2":1058.1,"yT2":0,"toosoon":0,"cond_shown":"equaldotanddens","ratio_trial":750,"smaller_num":"18","larger_num":"24","correct_side":1,"subjID":"MatiasCruz20","gender":"0","age":"10","school":"4"},{"start_time":1552070111162,"click_time":1552070112388,"finger_time":1552070111988,"fix_duration":1233.404579606537,"trial":41,"RT":826,"MT":400,"sideResp":2,"stimulus":"img/250/randomdotsizeEA/R/13_Ratio_250_L_2_R_8.png","xmouse":[783,783,784,784,784,784,784,784,784,784,784,784,784,784,790,800,805,805,805,805,805,805,805,805,805,805,805,805,805,805,805,805,805,805,805,805,805,805,808,820,837,870,926,1028,1065,1096,1120,1137,1160,1167,1172,1172,1171,1166,1163,1162,1162,1161,1161,1161,1160,1155],"ymouse":[626,626,626,626,626,626,626,626,626,626,626,626,626,626,625,622,620,620,620,620,620,620,620,620,620,620,620,620,620,620,620,620,619,619,619,619,619,619,618,609,596,571,526,407,355,304,243,183,109,84,57,45,35,22,18,17,15,14,14,14,14,18],"timestamp_mouse":[7,27,48,66,86,107,126,148,168,186,207,226,248,268,287,307,327,347,368,388,407,427,446,468,486,506,527,547,566,587,608,627,647,667,687,707,728,748,767,787,807,826,847,866,887,908,927,947,966,988,1008,1026,1047,1067,1087,1106,1127,1148,1166,1187,1207,1226],"xSR":741.5,"ySR":573.95,"xT1":424.9,"yT1":0,"xT2":1058.1,"yT2":0,"toosoon":0,"cond_shown":"randomdotsizeEA","ratio_trial":250,"smaller_num":"2","larger_num":"8","correct_side":2,"subjID":"MatiasCruz20","gender":"0","age":"10","school":"4"},{"start_time":1552070113927,"click_time":1552070115069,"finger_time":1552070114748,"fix_duration":398.177252146778,"trial":42,"RT":821,"MT":321,"sideResp":2,"stimulus":"img/750/equaldotanddens/R/3_Ratio_750_L_15_R_20.png","xmouse":[799,799,799,799,799,799,799,799,799,799,799,799,799,799,799,799,799,799,799,799,799,799,799,799,799,799,799,799,799,800,804,809,810,810,810,811,811,812,813,817,824,856,872,891,920,1030,1105,1157,1177,1182,1182,1182,1182,1182,1179,1169,1161,1152],"ymouse":[641,641,641,641,641,641,641,641,641,641,641,641,641,641,641,641,641,641,641,641,641,641,641,641,641,641,641,641,640,638,635,631,629,629,629,628,628,626,625,622,611,565,535,472,377,62,0,0,0,0,0,0,0,0,0,11,27,45],"timestamp_mouse":[3,21,42,63,82,101,121,141,163,182,203,223,243,262,283,301,321,343,363,381,401,423,443,462,482,502,522,543,561,582,601,623,643,661,681,703,721,742,762,781,802,821,842,862,882,902,922,942,962,982,1002,1023,1043,1061,1082,1102,1121,1142],"xSR":741.5,"ySR":573.95,"xT1":424.9,"yT1":0,"xT2":1058.1,"yT2":0,"toosoon":0,"cond_shown":"equaldotanddens","ratio_trial":750,"smaller_num":"15","larger_num":"20","correct_side":2,"subjID":"MatiasCruz20","gender":"0","age":"10","school":"4"},{"start_time":1552070116768,"click_time":1552070117908,"finger_time":1552070117248,"fix_duration":458.88463347818345,"trial":43,"RT":480,"MT":660,"sideResp":2,"stimulus":"img/500/equaldotsize/R/1_Ratio_500_L_9_R_18.png","xmouse":[799,799,799,799,799,799,799,799,799,799,799,799,799,799,799,799,799,799,799,799,799,799,799,800,815,826,835,849,858,887,901,915,926,942,979,989,992,991,989,981,978,975,973,973,972,972,975,985,1001,1035,1045,1050,1051,1052,1054,1054,1058,1061],"ymouse":[581,581,581,581,581,581,581,581,581,581,581,581,581,581,581,581,581,582,582,582,583,583,583,582,567,555,542,517,494,440,412,372,339,282,136,87,57,43,43,37,34,28,25,24,24,24,26,36,44,54,57,57,57,57,57,57,55,52],"timestamp_mouse":[3,22,42,62,80,101,122,142,161,180,201,221,242,262,280,300,320,342,361,382,401,422,442,460,480,501,520,540,560,582,601,621,641,661,681,702,721,742,761,781,801,821,841,861,882,901,920,941,961,982,1000,1020,1041,1061,1081,1101,1120,1140],"xSR":741.5,"ySR":573.95,"xT1":424.9,"yT1":0,"xT2":1058.1,"yT2":0,"toosoon":0,"cond_shown":"equaldotsize","ratio_trial":500,"smaller_num":"9","larger_num":"18","correct_side":2,"subjID":"MatiasCruz20","gender":"0","age":"10","school":"4"},{"start_time":1552070119550,"click_time":1552070120510,"finger_time":1552070120049,"fix_duration":440.7883779732434,"trial":44,"RT":499,"MT":461,"sideResp":2,"stimulus":"img/500/randomdotsizeEA/R/3_Ratio_500_L_10_R_20.png","xmouse":[814,814,814,814,814,814,814,814,814,814,816,816,816,816,816,816,817,817,819,820,834,837,839,841,849,868,883,893,902,917,928,940,951,954,950,948,948,948,948,948,948,948,951,953,977,1017,1044,1066],"ymouse":[599,599,599,599,599,599,599,599,599,599,598,598,598,597,597,597,597,597,595,595,587,585,584,582,573,552,529,505,468,367,283,204,133,83,40,30,29,29,29,29,28,28,28,28,31,31,31,32],"timestamp_mouse":[18,38,58,79,100,118,138,158,178,198,219,239,259,278,300,319,340,360,379,399,419,439,459,480,499,519,539,558,578,599,618,639,659,679,699,718,739,760,778,798,818,839,859,879,898,918,938,959],"xSR":741.5,"ySR":573.95,"xT1":424.9,"yT1":0,"xT2":1058.1,"yT2":0,"toosoon":0,"cond_shown":"randomdotsizeEA","ratio_trial":500,"smaller_num":"10","larger_num":"20","correct_side":2,"subjID":"MatiasCruz20","gender":"0","age":"10","school":"4"},{"start_time":1552070121601,"click_time":1552070122509,"finger_time":1552070122148,"fix_duration":250,"trial":45,"RT":547,"MT":361,"sideResp":1,"stimulus":"img/250/equaldotsize/L/3_Ratio_250_L_8_R_2.png","xmouse":[803,803,803,803,803,803,803,803,803,803,803,803,803,803,803,803,803,803,803,803,803,803,803,804,804,802,797,765,732,692,659,644,639,639,637,631,623,603,593,586,583,579,544,529,514,505],"ymouse":[614,614,614,614,614,614,614,614,614,614,614,614,614,614,614,614,614,614,614,614,614,614,614,613,607,599,589,559,535,505,475,452,430,410,388,364,338,290,259,237,213,190,128,112,101,96],"timestamp_mouse":[8,28,48,69,87,108,129,148,167,189,209,229,248,267,287,307,329,347,368,389,408,428,447,468,489,509,528,547,568,588,608,627,649,669,688,708,728,747,768,788,808,828,848,868,888,908],"xSR":741.5,"ySR":573.95,"xT1":424.9,"yT1":0,"xT2":1058.1,"yT2":0,"toosoon":0,"cond_shown":"equaldotsize","ratio_trial":250,"smaller_num":"2","larger_num":"8","correct_side":1,"subjID":"MatiasCruz20","gender":"0","age":"10","school":"4"},{"start_time":1552070124920,"click_time":1552070126349,"finger_time":1552070125629,"fix_duration":250,"trial":46,"RT":709,"MT":720,"sideResp":2,"stimulus":"img/750/equaldotsize/R/12_Ratio_750_L_3_R_4.png","xmouse":[798,798,798,798,798,798,798,798,798,798,798,798,798,798,798,798,798,798,798,798,798,798,798,798,798,798,798,798,798,798,798,798,805,819,840,864,894,919,931,947,965,983,1015,1028,1037,1047,1049,1043,1039,1036,1035,1034,1026,1022,1021,1020,1020,1019,1015,1011,1004,1002,1005,1017,1020,1038,1051,1068,1073,1077,1081,1085],"ymouse":[619,619,619,619,619,619,619,619,619,619,619,619,619,619,619,619,619,619,619,619,619,619,619,619,619,619,619,619,619,619,619,619,616,605,588,565,535,505,489,469,442,416,350,316,285,250,228,168,154,141,133,124,97,82,71,64,62,63,73,90,111,133,135,136,136,133,128,116,111,106,101,97],"timestamp_mouse":[9,29,49,69,90,108,130,149,170,189,210,228,249,269,290,310,330,348,369,389,410,430,450,469,489,509,529,549,569,589,610,628,649,669,689,709,729,749,768,789,809,829,849,869,889,910,929,949,969,989,1009,1029,1048,1069,1088,1109,1129,1149,1169,1189,1209,1229,1250,1270,1288,1308,1329,1349,1369,1389,1409,1429],"xSR":741.5,"ySR":573.95,"xT1":424.9,"yT1":0,"xT2":1058.1,"yT2":0,"toosoon":0,"cond_shown":"equaldotsize","ratio_trial":750,"smaller_num":"3","larger_num":"4","correct_side":2,"subjID":"MatiasCruz20","gender":"0","age":"10","school":"4"},{"start_time":1552070128695,"click_time":1552070129889,"finger_time":1552070129289,"fix_duration":1365.224350887722,"trial":47,"RT":594,"MT":600,"sideResp":1,"stimulus":"img/900/equaldotanddens/L/2_Ratio_900_L_20_R_18.png","xmouse":[805,805,805,805,805,805,805,805,805,805,805,805,805,805,805,805,805,805,804,804,804,804,804,804,804,804,804,804,804,806,813,819,824,825,818,805,790,776,742,711,658,597,540,479,470,469,468,466,450,441,433,430,428,420,414,413,413,415,424,433],"ymouse":[589,589,589,589,589,589,589,589,589,589,589,589,589,589,589,589,589,588,588,588,588,587,587,585,584,583,582,581,577,573,559,546,532,500,474,450,430,409,366,335,296,261,236,212,209,208,207,203,182,169,161,155,149,124,107,91,82,79,73,71],"timestamp_mouse":[14,35,55,75,94,114,133,155,175,195,215,234,253,274,295,314,333,355,375,394,414,434,455,473,494,514,535,554,574,594,615,633,654,674,694,714,734,754,774,794,815,834,855,874,894,914,935,954,974,995,1013,1035,1055,1074,1094,1113,1134,1154,1175,1194],"xSR":741.5,"ySR":573.95,"xT1":424.9,"yT1":0,"xT2":1058.1,"yT2":0,"toosoon":0,"cond_shown":"equaldotanddens","ratio_trial":900,"smaller_num":"18","larger_num":"20","correct_side":1,"subjID":"MatiasCruz20","gender":"0","age":"10","school":"4"},{"start_time":1552070132201,"click_time":1552070133069,"finger_time":1552070132968,"fix_duration":250,"trial":48,"RT":767,"MT":101,"sideResp":1,"stimulus":"img/500/randomdotsizeEA/L/8_Ratio_500_L_8_R_4.png","xmouse":[803,803,803,803,803,803,803,803,803,803,803,803,803,803,803,803,803,803,803,803,803,803,803,803,803,803,803,803,803,803,803,803,803,803,803,803,802,796,768,714,661,599,535,469],"ymouse":[609,609,609,609,609,609,609,609,609,609,609,609,609,609,609,609,609,609,609,609,609,609,609,609,609,609,609,609,609,609,609,609,609,609,609,609,607,602,565,473,370,261,166,79],"timestamp_mouse":[8,28,48,68,88,108,129,148,167,188,208,229,247,269,289,308,327,349,368,389,408,427,449,468,489,509,528,549,568,589,608,627,647,669,689,709,728,748,767,788,808,828,848,868],"xSR":741.5,"ySR":573.95,"xT1":424.9,"yT1":0,"xT2":1058.1,"yT2":0,"toosoon":0,"cond_shown":"randomdotsizeEA","ratio_trial":500,"smaller_num":"4","larger_num":"8","correct_side":1,"subjID":"MatiasCruz20","gender":"0","age":"10","school":"4"},{"start_time":1552070136541,"click_time":1552070138509,"finger_time":1552070137510,"fix_duration":1190.02004068374,"trial":49,"RT":969,"MT":999,"sideResp":1,"stimulus":"img/900/equaldotsize/L/10_Ratio_900_L_20_R_18.png","xmouse":[795,795,795,795,795,795,795,795,795,795,795,795,795,795,795,795,795,795,795,795,795,795,795,795,795,795,795,795,795,795,795,795,795,795,795,797,799,807,810,811,811,812,812,812,812,812,810,798,785,742,679,595,448,428,426,426,426,425,425,425,425,425,425,425,425,427,430,435,437,439,442,443,444,445,445,445,445,446,446,447,448,449,450,450,451,451,451,453,453,453,454,454,456,456,457,457,457,458,458],"ymouse":[605,605,605,605,605,605,605,605,605,605,605,605,605,605,605,605,605,605,605,605,605,605,605,605,605,605,605,605,605,605,605,605,605,605,605,605,604,596,593,592,591,591,591,591,589,588,587,581,570,515,432,323,168,145,141,141,141,136,134,132,132,131,131,131,131,131,131,131,131,130,129,128,128,127,127,127,127,127,125,124,122,121,120,119,118,118,118,117,116,116,115,115,112,111,110,108,105,100,98],"timestamp_mouse":[8,29,48,68,88,108,128,148,169,187,207,229,248,268,288,307,327,349,369,389,407,427,447,469,489,507,528,548,568,589,609,628,648,668,688,707,728,748,768,788,807,828,848,869,888,907,928,948,969,988,1008,1028,1049,1068,1088,1108,1127,1147,1168,1189,1208,1228,1248,1267,1288,1308,1327,1347,1368,1388,1409,1428,1448,1467,1487,1509,1528,1548,1567,1588,1608,1629,1649,1668,1688,1707,1727,1747,1768,1788,1808,1828,1847,1868,1888,1908,1929,1948,1968],"xSR":741.5,"ySR":573.95,"xT1":424.9,"yT1":0,"xT2":1058.1,"yT2":0,"toosoon":0,"cond_shown":"equaldotsize","ratio_trial":900,"smaller_num":"18","larger_num":"20","correct_side":1,"subjID":"MatiasCruz20","gender":"0","age":"10","school":"4"},{"start_time":1552070139833,"click_time":1552070142410,"finger_time":1552070140589,"fix_duration":482.93016570531177,"trial":50,"RT":756,"MT":1821,"sideResp":1,"stimulus":"img/750/randomdotsizeEA/R/15_Ratio_750_L_9_R_12.png","xmouse":[769,770,770,771,773,774,775,776,777,777,777,777,777,777,777,778,779,779,779,779,779,779,779,779,779,779,779,779,779,780,780,781,784,792,801,812,826,876,906,932,944,947,947,947,947,947,941,907,884,867,855,847,842,837,821,802,778,737,724,710,702,698,696,696,696,696,695,695,695,695,696,696,727,793,848,887,906,912,914,916,918,922,922,923,925,927,933,955,965,972,980,990,1036,1079,1099,1107,1111,1111,1112,1112,1112,1112,1092,1052,1011,972,940,897,879,859,839,818,757,708,677,647,620,572,552,536,529,525,523,508,504,503,502,500,487],"ymouse":[640,640,640,640,640,641,641,641,641,641,641,641,641,641,641,641,641,641,641,641,641,641,641,641,641,641,641,641,641,641,640,640,638,632,620,601,577,473,408,347,310,295,293,293,293,292,294,314,326,336,343,347,347,347,343,334,324,306,299,291,287,283,282,282,282,282,282,282,282,282,282,282,291,299,307,314,317,317,316,313,309,304,298,291,286,283,276,256,246,239,229,220,194,184,182,182,181,181,180,180,180,180,179,179,179,179,185,198,203,208,212,213,213,206,200,192,185,170,164,158,155,153,152,136,131,125,119,113,87],"timestamp_mouse":[16,37,56,75,95,116,136,157,175,197,216,236,257,276,296,316,337,357,376,396,417,435,455,476,497,517,535,557,577,597,617,637,656,676,696,715,736,756,776,796,816,837,855,877,896,916,936,957,976,997,1016,1037,1055,1077,1096,1115,1136,1155,1176,1196,1216,1237,1255,1276,1296,1316,1336,1356,1376,1396,1415,1437,1455,1477,1496,1516,1536,1556,1576,1597,1616,1637,1656,1676,1696,1716,1736,1755,1776,1796,1816,1836,1856,1876,1896,1916,1936,1957,1976,1996,2015,2035,2056,2076,2096,2116,2136,2156,2177,2196,2217,2237,2256,2276,2296,2315,2337,2357,2377,2397,2416,2436,2456,2475,2496,2517,2536,2555,2577],"xSR":741.5,"ySR":573.95,"xT1":424.9,"yT1":0,"xT2":1058.1,"yT2":0,"toosoon":0,"cond_shown":"randomdotsizeEA","ratio_trial":750,"smaller_num":"9","larger_num":"12","correct_side":2,"subjID":"MatiasCruz20","gender":"0","age":"10","school":"4"},{"start_time":1552070144662,"click_time":1552070145609,"finger_time":1552070145309,"fix_duration":1150.1162703344226,"trial":51,"RT":647,"MT":300,"sideResp":1,"stimulus":"img/500/equaldotanddens/L/11_Ratio_500_L_12_R_6.png","xmouse":[805,805,805,805,805,805,805,805,805,805,805,805,805,805,805,805,805,805,805,805,805,805,805,805,805,805,805,805,805,805,806,805,730,661,590,532,491,468,462,459,458,458,458,458,458,459,465,469],"ymouse":[639,639,639,639,639,639,639,639,639,639,639,639,639,639,639,639,639,639,639,639,639,639,639,639,639,639,639,639,639,639,639,633,510,424,344,267,202,152,131,120,114,110,110,110,109,107,100,97],"timestamp_mouse":[6,28,47,68,87,108,127,147,166,186,208,227,248,268,286,307,327,347,367,388,407,426,446,467,487,507,527,546,568,588,607,627,647,667,688,707,728,747,767,787,806,827,847,867,887,907,927,947],"xSR":741.5,"ySR":573.95,"xT1":424.9,"yT1":0,"xT2":1058.1,"yT2":0,"toosoon":0,"cond_shown":"equaldotanddens","ratio_trial":500,"smaller_num":"6","larger_num":"12","correct_side":1,"subjID":"MatiasCruz20","gender":"0","age":"10","school":"4"},{"start_time":1552070149059,"click_time":1552070150209,"finger_time":1552070149790,"fix_duration":950.1749074140924,"trial":52,"RT":731,"MT":419,"sideResp":2,"stimulus":"img/900/randomdotsizeEA/R/7_Ratio_900_L_9_R_10.png","xmouse":[781,781,781,781,781,781,781,781,781,781,781,781,781,781,781,781,782,783,783,783,783,783,783,783,783,783,784,784,784,784,785,785,787,789,796,815,843,911,937,969,980,987,994,998,1002,1006,1009,1012,1012,1012,1012,1012,1020,1021,1021,1022,1028,1061],"ymouse":[614,614,614,614,614,614,614,614,614,614,614,614,614,614,614,614,615,616,616,616,616,616,616,616,616,616,616,616,616,616,615,614,613,611,605,582,539,445,409,372,357,345,312,289,264,235,200,150,138,137,137,135,105,90,78,70,61,48],"timestamp_mouse":[9,31,51,70,90,110,131,150,171,190,210,230,249,271,291,310,331,350,370,390,411,431,449,471,491,509,531,550,569,591,610,630,651,670,690,710,731,750,770,790,811,830,850,870,891,910,931,950,970,990,1010,1030,1051,1070,1090,1110,1131,1150],"xSR":741.5,"ySR":573.95,"xT1":424.9,"yT1":0,"xT2":1058.1,"yT2":0,"toosoon":0,"cond_shown":"randomdotsizeEA","ratio_trial":900,"smaller_num":"9","larger_num":"10","correct_side":2,"subjID":"MatiasCruz20","gender":"0","age":"10","school":"4"},{"start_time":1552070151732,"click_time":1552070152510,"finger_time":1552070152270,"fix_duration":821.6436693028422,"trial":53,"RT":538,"MT":240,"sideResp":2,"stimulus":"img/750/equaldotsize/R/11_Ratio_750_L_12_R_16.png","xmouse":[788,788,788,788,788,788,788,788,788,788,788,788,788,788,788,788,788,788,788,788,788,788,788,788,792,800,810,827,891,927,959,990,1018,1038,1082,1092,1096,1097,1094],"ymouse":[605,605,605,605,605,605,605,605,605,605,605,605,605,605,605,605,605,605,605,605,605,605,605,600,595,585,572,555,484,441,397,353,310,271,167,139,120,105,79],"timestamp_mouse":[17,36,57,78,97,116,138,158,177,198,218,237,256,278,298,318,337,358,377,397,417,438,457,476,496,517,538,557,578,597,617,637,658,677,698,717,737,757,778],"xSR":741.5,"ySR":573.95,"xT1":424.9,"yT1":0,"xT2":1058.1,"yT2":0,"toosoon":0,"cond_shown":"equaldotsize","ratio_trial":750,"smaller_num":"12","larger_num":"16","correct_side":2,"subjID":"MatiasCruz20","gender":"0","age":"10","school":"4"},{"start_time":1552070154144,"click_time":1552070155689,"finger_time":1552070154689,"fix_duration":873.7980242817483,"trial":54,"RT":545,"MT":1000,"sideResp":1,"stimulus":"img/250/equaldotsize/L/3_Ratio_250_L_8_R_2.png","xmouse":[798,798,798,798,798,798,798,798,798,798,798,797,797,797,797,797,796,796,796,795,795,795,794,792,786,781,763,731,654,616,583,558,539,527,504,490,476,460,448,434,432,430,426,420,411,409,409,409,410,410,410,410,410,413,429,438,446,452,458,481,500,541,572,583,576,559,537,522,509,517,530,536,538,538,535,530,526,524],"ymouse":[634,634,634,634,634,634,634,634,634,634,634,634,634,634,634,634,634,634,634,634,634,634,634,634,630,623,602,570,509,482,447,409,375,347,296,274,252,230,214,188,173,159,145,128,96,85,76,70,69,69,69,68,68,71,103,119,132,144,156,200,221,240,247,248,213,191,166,147,113,100,91,87,85,83,74,69,66,63],"timestamp_mouse":[6,25,45,65,84,106,126,144,166,186,205,226,245,264,285,305,326,345,365,385,405,424,445,465,485,505,525,545,565,585,606,625,645,665,684,706,725,745,765,785,805,824,845,865,886,905,924,945,965,986,1004,1025,1044,1065,1085,1105,1125,1146,1165,1185,1204,1226,1245,1265,1285,1305,1325,1345,1365,1386,1405,1425,1445,1465,1486,1506,1525,1545],"xSR":741.5,"ySR":573.95,"xT1":424.9,"yT1":0,"xT2":1058.1,"yT2":0,"toosoon":0,"cond_shown":"equaldotsize","ratio_trial":250,"smaller_num":"2","larger_num":"8","correct_side":1,"subjID":"MatiasCruz20","gender":"0","age":"10","school":"4"},{"start_time":1552070157672,"click_time":1552070158449,"finger_time":1552070158349,"fix_duration":981.3889402925779,"trial":55,"RT":677,"MT":100,"sideResp":2,"stimulus":"img/250/equaldotanddens/R/8_Ratio_250_L_1_R_4.png","xmouse":[783,783,783,783,783,783,783,783,783,783,783,783,783,783,783,783,783,783,783,783,783,783,783,783,783,783,783,783,783,783,782,782,805,833,863,936,988,1120,1136],"ymouse":[638,638,638,638,638,638,638,638,638,638,638,638,638,638,638,638,638,638,638,638,638,638,638,638,638,638,638,638,638,638,637,635,575,510,445,337,268,129,62],"timestamp_mouse":[17,37,57,77,98,117,138,157,177,197,218,237,257,277,298,317,337,358,378,397,417,437,456,477,498,517,536,558,578,597,617,637,658,677,697,717,737,758,777],"xSR":741.5,"ySR":573.95,"xT1":424.9,"yT1":0,"xT2":1058.1,"yT2":0,"toosoon":0,"cond_shown":"equaldotanddens","ratio_trial":250,"smaller_num":"1","larger_num":"4","correct_side":2,"subjID":"MatiasCruz20","gender":"0","age":"10","school":"4"},{"start_time":1552070160735,"click_time":1552070162749,"finger_time":1552070161429,"fix_duration":1305.6084973931818,"trial":56,"RT":694,"MT":1320,"sideResp":2,"stimulus":"img/750/randomdotsizeEA/R/7_Ratio_750_L_3_R_4.png","xmouse":[776,776,776,776,776,776,776,776,776,776,776,776,776,776,776,775,774,773,772,772,772,772,772,772,772,772,772,772,772,772,772,771,770,768,758,720,692,663,617,585,548,541,538,537,537,537,537,537,537,537,537,537,537,536,536,536,536,536,536,536,569,600,641,699,769,945,1037,1186,1284,1365,1422,1423,1423,1422,1422,1418,1411,1400,1380,1357,1320,1303,1287,1269,1249,1220,1219,1219,1218,1216,1215,1215,1215,1215,1216,1216,1214,1204,1191,1174,1133],"ymouse":[596,596,596,596,596,596,596,596,596,596,596,596,596,596,594,591,589,588,586,586,586,586,586,586,586,586,586,586,586,586,585,583,581,576,560,489,437,386,299,246,184,170,165,162,161,161,161,161,161,161,161,161,161,160,160,159,159,159,159,158,167,173,179,180,180,180,180,180,179,159,128,119,114,112,112,111,107,102,95,89,79,73,68,63,58,48,48,47,46,44,44,44,45,49,51,54,55,55,55,55,54],"timestamp_mouse":[14,34,54,75,95,114,135,154,175,193,215,234,255,274,293,313,334,354,374,393,414,434,454,475,493,514,534,555,574,593,614,633,654,674,694,714,734,754,775,794,813,834,855,874,894,913,934,954,975,995,1013,1035,1055,1074,1094,1114,1134,1154,1174,1194,1215,1234,1255,1274,1294,1314,1333,1354,1375,1394,1414,1434,1454,1474,1495,1514,1534,1555,1574,1594,1614,1634,1654,1674,1695,1714,1734,1754,1775,1794,1814,1835,1855,1874,1894,1914,1934,1954,1974,1994,2013],"xSR":741.5,"ySR":573.95,"xT1":424.9,"yT1":0,"xT2":1058.1,"yT2":0,"toosoon":0,"cond_shown":"randomdotsizeEA","ratio_trial":750,"smaller_num":"3","larger_num":"4","correct_side":2,"subjID":"MatiasCruz20","gender":"0","age":"10","school":"4"},{"start_time":1552070164812,"click_time":1552070165848,"finger_time":1552070165529,"fix_duration":1243.6814330960904,"trial":57,"RT":717,"MT":319,"sideResp":1,"stimulus":"img/900/equaldotanddens/R/7_Ratio_900_L_9_R_10.png","xmouse":[784,780,779,779,779,779,779,779,779,778,777,775,775,775,775,775,775,775,775,775,775,775,775,775,775,775,774,774,774,774,773,771,768,764,760,755,750,743,741,739,737,725,711,679,634,581,538,538,538,538,527,476],"ymouse":[616,616,615,615,615,615,615,615,615,615,615,615,615,615,615,615,615,615,615,615,615,615,615,615,615,615,614,611,608,603,598,594,584,579,575,570,564,555,551,546,540,485,388,282,185,111,74,74,73,68,55,11],"timestamp_mouse":[17,37,57,78,97,117,138,158,177,197,217,238,257,278,297,318,336,357,377,397,416,436,458,477,496,517,537,557,578,597,617,637,657,677,697,717,737,758,777,797,817,836,857,877,898,917,937,958,978,997,1017,1036],"xSR":741.5,"ySR":573.95,"xT1":424.9,"yT1":0,"xT2":1058.1,"yT2":0,"toosoon":0,"cond_shown":"equaldotanddens","ratio_trial":900,"smaller_num":"9","larger_num":"10","correct_side":2,"subjID":"MatiasCruz20","gender":"0","age":"10","school":"4"},{"start_time":1552070170032,"click_time":1552070172269,"finger_time":1552070170749,"fix_duration":781.3912442292855,"trial":58,"RT":717,"MT":1520,"sideResp":1,"stimulus":"img/900/equaldotsize/R/13_Ratio_900_L_18_R_20.png","xmouse":[789,789,789,789,789,789,789,787,787,787,787,787,787,787,787,787,787,787,787,787,787,787,782,781,778,777,777,777,778,781,783,793,801,808,811,812,815,815,815,815,815,815,815,816,819,821,825,826,826,826,826,825,823,818,807,794,760,744,738,737,735,732,730,725,718,707,686,679,674,671,670,670,670,670,670,675,703,721,748,760,766,770,772,777,783,787,799,805,811,813,813,810,804,795,783,770,739,719,684,662,642,625,622,619,616,611,591,579,560,546,532,513],"ymouse":[619,619,619,619,619,619,620,621,621,621,621,621,621,621,621,621,621,621,621,621,621,621,618,617,616,615,615,615,614,614,613,606,598,586,575,563,546,544,544,544,544,544,543,543,540,536,526,522,517,516,515,514,512,508,496,483,454,444,441,440,440,439,439,437,435,429,416,411,406,404,403,403,403,403,401,401,395,391,382,379,377,374,372,369,364,359,345,337,325,319,314,303,296,289,282,276,263,255,238,226,214,203,200,197,193,185,157,140,113,97,83,61],"timestamp_mouse":[16,37,57,77,98,117,136,157,177,197,218,238,257,278,296,316,337,358,376,397,418,437,456,477,498,518,538,558,577,598,617,636,657,678,697,717,737,757,777,796,818,838,856,877,897,917,937,957,977,998,1017,1038,1057,1077,1097,1118,1137,1157,1177,1197,1217,1237,1256,1277,1297,1317,1337,1357,1377,1398,1417,1437,1457,1476,1497,1518,1537,1558,1577,1596,1617,1637,1657,1677,1697,1717,1737,1757,1777,1798,1817,1838,1857,1878,1897,1917,1938,1957,1977,1997,2017,2038,2057,2077,2097,2118,2136,2157,2177,2198,2217,2237],"xSR":741.5,"ySR":573.95,"xT1":424.9,"yT1":0,"xT2":1058.1,"yT2":0,"toosoon":0,"cond_shown":"equaldotsize","ratio_trial":900,"smaller_num":"18","larger_num":"20","correct_side":2,"subjID":"MatiasCruz20","gender":"0","age":"10","school":"4"},{"start_time":1552070174393,"click_time":1552070175630,"finger_time":1552070175089,"fix_duration":1163.3397803434038,"trial":59,"RT":696,"MT":541,"sideResp":2,"stimulus":"img/500/equaldotanddens/R/6_Ratio_500_L_9_R_18.png","xmouse":[812,809,808,807,807,807,807,807,807,807,807,807,807,807,807,807,807,807,807,807,807,807,807,807,807,807,807,807,807,807,807,807,811,815,848,866,884,899,936,961,990,1013,1025,1034,1034,1034,1034,1031,1028,1028,1028,1031,1034,1036,1037,1039,1040,1042,1046,1052,1056,1062],"ymouse":[621,621,621,621,621,621,621,621,621,621,621,621,621,621,621,621,621,621,621,621,621,621,621,621,621,621,621,621,621,621,621,621,618,616,585,549,486,401,142,43,0,0,0,0,0,0,0,0,3,7,11,16,20,22,24,26,27,28,33,38,43,45],"timestamp_mouse":[16,35,57,76,96,116,137,157,177,195,217,236,256,277,296,315,336,356,377,397,416,435,457,477,497,515,535,556,577,597,615,635,656,676,696,716,736,755,776,796,816,835,855,876,896,916,935,955,976,996,1016,1037,1056,1077,1096,1117,1136,1156,1176,1195,1216,1237],"xSR":741.5,"ySR":573.95,"xT1":424.9,"yT1":0,"xT2":1058.1,"yT2":0,"toosoon":0,"cond_shown":"equaldotanddens","ratio_trial":500,"smaller_num":"9","larger_num":"18","correct_side":2,"subjID":"MatiasCruz20","gender":"0","age":"10","school":"4"},{"start_time":1552070177159,"click_time":1552070178289,"finger_time":1552070177889,"fix_duration":748.3851735572126,"trial":60,"RT":730,"MT":400,"sideResp":1,"stimulus":"img/500/randomdotsizeEA/L/4_Ratio_500_L_18_R_9.png","xmouse":[788,788,788,788,787,787,787,786,785,785,784,784,784,783,783,783,783,782,782,782,782,782,782,782,782,782,782,782,782,782,782,782,781,775,766,753,721,710,699,695,689,672,661,649,634,619,590,582,572,567,562,552,547,544,538,530,507],"ymouse":[623,623,623,623,623,623,623,623,623,623,623,623,623,623,623,623,623,623,623,623,623,623,623,623,623,623,623,623,623,623,623,623,620,612,599,580,530,511,486,467,444,398,379,360,340,322,284,270,239,214,190,149,133,122,109,98,70],"timestamp_mouse":[10,30,49,70,89,110,130,150,171,191,211,231,251,270,289,310,330,351,371,390,411,431,451,471,490,510,529,550,571,591,611,630,650,671,690,710,730,750,770,790,810,830,850,871,890,909,931,950,970,990,1010,1031,1050,1070,1090,1110,1130],"xSR":741.5,"ySR":573.95,"xT1":424.9,"yT1":0,"xT2":1058.1,"yT2":0,"toosoon":0,"cond_shown":"randomdotsizeEA","ratio_trial":500,"smaller_num":"9","larger_num":"18","correct_side":1,"subjID":"MatiasCruz20","gender":"0","age":"10","school":"4"},{"start_time":1552070179923,"click_time":1552070181509,"finger_time":1552070180550,"fix_duration":732.7048957187579,"trial":61,"RT":627,"MT":959,"sideResp":2,"stimulus":"img/750/equaldotsize/R/3_Ratio_750_L_15_R_20.png","xmouse":[788,788,788,788,788,788,790,791,794,795,795,795,795,795,795,795,795,795,795,795,795,795,795,795,796,797,798,798,803,811,824,843,862,909,925,942,956,970,983,984,985,986,989,990,990,990,991,991,993,996,999,1007,1014,1022,1024,1026,1029,1032,1037,1037,1037,1037,1037,1037,1037,1037,1037,1037,1037,1037,1037,1037,1037,1038,1040,1040,1041,1043,1047,1062],"ymouse":[616,616,616,616,616,616,616,616,616,616,616,616,616,616,616,616,616,616,616,616,616,616,616,616,616,616,616,615,612,604,593,576,551,428,327,234,157,103,70,67,66,64,62,61,61,61,60,60,58,56,54,52,49,47,47,46,46,46,45,45,45,45,45,45,45,45,45,45,45,45,45,45,45,45,45,45,45,47,48,50],"timestamp_mouse":[5,25,46,66,86,106,125,147,166,186,205,227,247,265,286,307,326,346,366,386,406,425,447,467,486,506,526,546,566,587,606,627,646,667,686,706,726,745,767,787,806,827,846,866,886,905,926,946,966,985,1006,1027,1046,1066,1085,1106,1126,1146,1166,1186,1206,1227,1246,1265,1287,1306,1327,1346,1366,1386,1407,1425,1446,1465,1486,1506,1526,1546,1566,1586],"xSR":741.5,"ySR":573.95,"xT1":424.9,"yT1":0,"xT2":1058.1,"yT2":0,"toosoon":0,"cond_shown":"equaldotsize","ratio_trial":750,"smaller_num":"15","larger_num":"20","correct_side":2,"subjID":"MatiasCruz20","gender":"0","age":"10","school":"4"},{"start_time":1552070183963,"click_time":1552070184809,"finger_time":1552070184510,"fix_duration":1193.0502866089987,"trial":62,"RT":547,"MT":299,"sideResp":1,"stimulus":"img/250/equaldotsize/L/15_Ratio_250_L_12_R_3.png","xmouse":[791,791,791,791,791,791,791,791,791,791,791,791,791,791,791,791,791,791,791,791,791,791,791,791,788,784,770,706,683,662,645,628,595,578,560,542,531,531,531,531,531,527,523],"ymouse":[613,613,613,613,613,613,613,613,613,613,613,613,613,613,613,613,613,613,613,613,613,613,613,612,608,604,593,534,504,462,412,350,216,148,88,43,18,18,18,18,18,18,18],"timestamp_mouse":[6,26,46,67,87,107,126,146,166,186,207,227,247,266,286,307,327,346,367,386,406,426,446,467,486,506,526,547,566,586,606,626,646,666,687,707,727,748,766,787,806,826,846],"xSR":741.5,"ySR":573.95,"xT1":424.9,"yT1":0,"xT2":1058.1,"yT2":0,"toosoon":0,"cond_shown":"equaldotsize","ratio_trial":250,"smaller_num":"3","larger_num":"12","correct_side":1,"subjID":"MatiasCruz20","gender":"0","age":"10","school":"4"},{"start_time":1552070185964,"click_time":1552070186909,"finger_time":1552070186609,"fix_duration":253.216376748565,"trial":63,"RT":645,"MT":300,"sideResp":2,"stimulus":"img/900/randomdotsizeEA/R/7_Ratio_900_L_9_R_10.png","xmouse":[810,810,810,810,810,810,810,810,810,810,810,810,810,810,810,810,810,810,810,810,810,810,810,810,810,811,812,813,813,814,816,819,844,874,922,967,1034,1062,1072,1083,1095,1101,1102,1101,1100,1095,1092,1090],"ymouse":[620,620,620,620,620,620,620,620,620,620,620,620,620,620,620,620,620,620,620,620,620,620,620,620,619,619,617,616,616,615,613,611,597,569,501,421,313,251,229,208,191,176,156,145,135,119,108,90],"timestamp_mouse":[5,25,46,66,86,105,126,146,165,186,206,225,245,266,285,306,326,345,366,385,405,425,445,466,486,505,525,546,565,585,606,625,645,665,685,705,725,745,765,786,805,826,845,865,885,905,925,945],"xSR":741.5,"ySR":573.95,"xT1":424.9,"yT1":0,"xT2":1058.1,"yT2":0,"toosoon":0,"cond_shown":"randomdotsizeEA","ratio_trial":900,"smaller_num":"9","larger_num":"10","correct_side":2,"subjID":"MatiasCruz20","gender":"0","age":"10","school":"4"},{"start_time":1552070189465,"click_time":1552070190409,"finger_time":1552070190109,"fix_duration":1375.5206538490108,"trial":64,"RT":644,"MT":300,"sideResp":2,"stimulus":"img/250/randomdotsizeEA/R/13_Ratio_250_L_2_R_8.png","xmouse":[802,802,802,802,802,802,802,802,802,802,802,802,801,801,801,801,800,800,799,799,799,799,799,799,799,799,799,799,799,800,802,813,842,862,893,936,977,1037,1056,1063,1068,1072,1076,1076,1078,1079,1083,1089],"ymouse":[613,613,613,613,613,613,613,614,614,614,615,615,615,616,616,616,617,617,617,617,617,617,617,618,618,618,618,618,618,617,614,603,567,540,496,433,373,262,202,179,161,147,133,128,120,112,100,74],"timestamp_mouse":[4,25,45,64,85,105,125,145,164,184,204,225,245,265,285,304,324,344,365,385,404,425,444,464,485,504,525,545,565,584,605,625,644,664,684,704,724,744,764,784,804,824,845,864,885,904,925,944],"xSR":741.5,"ySR":573.95,"xT1":424.9,"yT1":0,"xT2":1058.1,"yT2":0,"toosoon":0,"cond_shown":"randomdotsizeEA","ratio_trial":250,"smaller_num":"2","larger_num":"8","correct_side":2,"subjID":"MatiasCruz20","gender":"0","age":"10","school":"4"},{"start_time":1552070191679,"click_time":1552070192650,"finger_time":1552070192289,"fix_duration":250,"trial":65,"RT":610,"MT":361,"sideResp":1,"stimulus":"img/500/equaldotanddens/L/5_Ratio_500_L_4_R_2.png","xmouse":[776,776,779,781,784,786,788,789,790,793,793,797,797,797,797,797,797,797,797,797,797,797,797,797,797,797,794,789,780,763,741,695,672,652,635,615,600,571,565,562,561,559,556,546,530,508,476,461,456],"ymouse":[631,631,631,631,631,630,628,628,627,626,625,623,623,623,623,623,623,623,623,623,623,623,623,623,623,622,617,612,602,583,550,471,433,397,363,326,302,266,260,256,254,240,228,207,183,161,126,100,79],"timestamp_mouse":[10,30,50,70,91,110,131,151,170,191,210,231,251,270,291,311,330,351,370,390,411,431,451,472,491,511,530,550,570,590,610,630,650,671,690,710,730,750,771,790,810,830,850,870,890,911,930,950,970],"xSR":741.5,"ySR":573.95,"xT1":424.9,"yT1":0,"xT2":1058.1,"yT2":0,"toosoon":0,"cond_shown":"equaldotanddens","ratio_trial":500,"smaller_num":"2","larger_num":"4","correct_side":1,"subjID":"MatiasCruz20","gender":"0","age":"10","school":"4"},{"start_time":1552070194301,"click_time":1552070194950,"finger_time":1552070194789,"fix_duration":590.3861250864079,"trial":66,"RT":488,"MT":161,"sideResp":2,"stimulus":"img/250/equaldotanddens/R/10_Ratio_250_L_4_R_16.png","xmouse":[792,792,792,792,792,792,792,792,792,792,792,792,792,792,792,792,792,793,794,795,796,802,814,820,844,853,875,896,918,952,986,1063,1097],"ymouse":[608,608,608,608,608,608,608,608,608,608,608,608,608,608,608,608,608,609,609,609,609,608,603,600,590,581,542,503,461,395,315,140,51],"timestamp_mouse":[9,28,49,69,89,108,129,148,169,189,209,228,250,268,288,308,328,348,368,388,409,428,448,468,488,508,528,548,568,588,609,629,649],"xSR":741.5,"ySR":573.95,"xT1":424.9,"yT1":0,"xT2":1058.1,"yT2":0,"toosoon":0,"cond_shown":"equaldotanddens","ratio_trial":250,"smaller_num":"4","larger_num":"16","correct_side":2,"subjID":"MatiasCruz20","gender":"0","age":"10","school":"4"},{"start_time":1552070197389,"click_time":1552070198270,"finger_time":1552070197969,"fix_duration":257.989805039968,"trial":67,"RT":580,"MT":301,"sideResp":1,"stimulus":"img/900/randomdotsizeEA/L/10_Ratio_900_L_20_R_18.png","xmouse":[807,807,807,807,807,807,807,807,807,807,807,807,807,807,807,807,807,807,807,807,807,807,807,807,807,807,805,798,780,763,741,720,683,670,660,650,640,609,576,556,542,534,525,522,519],"ymouse":[611,611,611,611,611,611,611,611,611,611,611,611,611,611,611,611,611,611,611,611,611,611,611,611,611,611,609,601,575,552,525,499,447,429,414,398,381,318,253,212,184,163,127,105,79],"timestamp_mouse":[3,20,44,60,80,101,120,141,160,180,201,220,241,262,281,300,320,340,360,381,400,421,441,461,480,501,520,541,560,580,600,620,640,660,680,700,721,740,760,780,800,820,840,860,881],"xSR":741.5,"ySR":573.95,"xT1":424.9,"yT1":0,"xT2":1058.1,"yT2":0,"toosoon":0,"cond_shown":"randomdotsizeEA","ratio_trial":900,"smaller_num":"18","larger_num":"20","correct_side":1,"subjID":"MatiasCruz20","gender":"0","age":"10","school":"4"},{"start_time":1552070201710,"click_time":1552070202510,"finger_time":1552070202329,"fix_duration":1238.1245485620198,"trial":68,"RT":619,"MT":181,"sideResp":2,"stimulus":"img/500/equaldotsize/R/12_Ratio_500_L_1_R_2.png","xmouse":[781,781,781,781,781,781,781,781,781,781,781,782,782,783,783,783,783,783,783,783,783,783,783,783,783,783,783,786,791,805,823,863,933,958,974,981,986,996,1011,1033,1076],"ymouse":[622,622,622,622,622,622,622,622,622,622,622,622,622,622,622,622,622,622,622,622,622,622,622,622,622,622,622,622,621,617,609,580,493,443,405,373,347,288,241,175,94],"timestamp_mouse":[0,23,39,60,79,99,120,139,159,179,199,219,239,259,280,299,320,340,359,379,399,419,440,460,480,500,519,539,559,579,599,619,639,659,680,699,719,739,759,779,800],"xSR":741.5,"ySR":573.95,"xT1":424.9,"yT1":0,"xT2":1058.1,"yT2":0,"toosoon":0,"cond_shown":"equaldotsize","ratio_trial":500,"smaller_num":"1","larger_num":"2","correct_side":2,"subjID":"MatiasCruz20","gender":"0","age":"10","school":"4"},{"start_time":1552070204756,"click_time":1552070205709,"finger_time":1552070205429,"fix_duration":1246.3105334327406,"trial":69,"RT":673,"MT":280,"sideResp":1,"stimulus":"img/750/randomdotsizeEA/L/14_Ratio_750_L_8_R_6.png","xmouse":[782,782,782,782,782,782,782,782,782,782,782,782,782,782,782,782,782,782,782,782,782,782,782,782,783,784,787,787,787,787,787,787,785,774,722,675,649,627,614,598,587,563,526,502,487,486,486,487],"ymouse":[613,613,613,613,613,613,613,613,613,613,613,613,613,613,613,613,613,613,613,613,613,613,613,613,610,609,607,606,605,603,602,598,592,571,484,411,372,343,321,286,262,222,170,137,111,106,102,94],"timestamp_mouse":[13,34,53,74,93,113,133,153,173,194,213,233,253,273,293,314,334,354,374,394,414,433,454,474,493,513,533,554,573,593,613,633,653,673,693,713,733,753,773,794,813,834,853,874,894,914,933,953],"xSR":741.5,"ySR":573.95,"xT1":424.9,"yT1":0,"xT2":1058.1,"yT2":0,"toosoon":0,"cond_shown":"randomdotsizeEA","ratio_trial":750,"smaller_num":"6","larger_num":"8","correct_side":1,"subjID":"MatiasCruz20","gender":"0","age":"10","school":"4"},{"start_time":1552070207585,"click_time":1552070208629,"finger_time":1552070208149,"fix_duration":1175.518507109308,"trial":70,"RT":564,"MT":480,"sideResp":2,"stimulus":"img/500/equaldotanddens/R/12_Ratio_500_L_1_R_2