[{"start_time":1552328810677,"click_time":1552328813860,"finger_time":1552328813041,"fix_duration":250,"trial":0,"RT":2364,"MT":819,"sideResp":2,"stimulus":"img/250/randomdotsizeEA/R/9_Ratio_250_L_3_R_12.png","xmouse":[780,780,780,780,780,780,780,780,780,780,780,780,780,780,780,780,780,780,780,779,779,779,779,779,779,779,779,779,779,779,779,779,779,779,779,779,779,779,779,779,779,779,779,779,779,779,779,779,779,779,779,779,779,779,779,779,779,779,779,779,779,778,778,778,778,778,778,778,778,778,778,778,778,778,778,778,778,778,778,778,778,778,778,778,778,778,778,778,778,778,778,778,778,778,778,778,778,778,778,778,778,778,778,778,778,778,778,778,778,778,778,778,778,778,779,783,789,793,857,1069,1350,1350,1350,1350,1350,1350,1350,1350,1350,1350,1350,1350,1504,1444,1369,1315,1298,1298,1304,1317,1322,1324,1324,1324,1320,1300,1269,1208,1202,1195,1190,1187,1186,1186,1186,1186,1185,1177,1162,1151],"ymouse":[563,563,563,559,552,548,546,544,543,543,543,543,543,543,543,543,543,543,543,543,543,543,543,543,543,543,543,543,543,543,543,543,543,543,543,543,543,543,543,543,543,543,543,543,543,543,543,543,543,543,543,543,543,543,543,543,543,543,543,543,543,543,543,543,543,543,543,543,543,543,543,543,543,543,543,543,543,543,543,543,543,543,543,543,543,543,543,543,543,543,543,543,543,543,543,543,543,543,543,543,543,543,543,543,543,543,543,543,543,543,543,543,543,543,543,543,543,541,530,513,521,521,521,521,521,521,521,521,521,521,521,521,332,238,144,84,70,69,77,81,82,82,82,82,82,74,66,61,65,74,83,87,88,88,88,88,88,83,74,70],"timestamp_mouse":[9,24,44,63,83,103,124,143,164,184,203,224,244,262,284,304,323,343,364,382,403,424,443,462,484,503,522,544,563,584,604,624,643,664,684,704,724,743,763,784,804,823,844,863,884,903,923,943,964,984,1002,1023,1044,1063,1083,1102,1123,1144,1164,1183,1204,1223,1244,1264,1284,1303,1324,1342,1363,1384,1403,1422,1444,1463,1483,1503,1523,1542,1564,1583,1602,1624,1642,1664,1684,1703,1723,1743,1764,1783,1804,1822,1844,1863,1884,1903,1923,1942,1963,1982,2003,2023,2044,2063,2082,2104,2123,2144,2163,2184,2203,2224,2244,2264,2284,2303,2323,2343,2363,2383,2404,2423,2443,2463,2482,2504,2524,2543,2564,2582,2604,2622,2643,2664,2684,2704,2724,2743,2763,2784,2803,2824,2844,2864,2884,2902,2923,2944,2963,2983,3004,3022,3044,3063,3083,3104,3123,3143,3163,3183],"xSR":741.5,"ySR":469.95,"xT1":424.9,"yT1":0,"xT2":1058.1,"yT2":0,"toosoon":0,"cond_shown":"randomdotsizeEA","ratio_trial":250,"smaller_num":"3","larger_num":"12","correct_side":2,"subjID":"matiaslopez33","gender":"0","age":"9","school":"4","test":{"fix_dur":[250,1500],"timestim":300,"targets_dim":[100,100],"targets_relative_coord":[0.3,0.7],"size_stim":[880,420],"start_dim":[100,100],"size_start":[300,300],"size_fix":60,"samplingrate":20,"img_types":["equaldotsize","equaldotanddens","randomdotsizeEA"],"ratios":[250,500,750,900],"rep_conds":9,"nTrials":120,"trials_to_rest":500,"Trials_order":[26,113,39,105,49,70,85,119,69,61,48,65,80,109,112,40,106,38,50,36,28,31,111,116,52,41,110,71,22,81,42,83,57,89,24,74,15,46,99,55,18,11,8,0,97,23,76,82,20,12,29,19,34,78,72,62,35,10,33,5,66,68,44,37,87,7,1,88,108,60,51,77,103,14,25,58,84,91,64,73,115,98,3,104,93,107,101,92,47,54,9,63,95,67,118,59,79,45,32,114,94,102,21,56,2,17,53,30,90,75,16,117,13,100,6,96,4,27,43,86],"cond_shown":["randomdotsizeEA","randomdotsizeEA","equaldotsize","equaldotsize","equaldotanddens","equaldotanddens","equaldotanddens","randomdotsizeEA","equaldotsize","equaldotanddens","equaldotsize","randomdotsizeEA","randomdotsizeEA","equaldotanddens","equaldotanddens","equaldotanddens","equaldotanddens","randomdotsizeEA","randomdotsizeEA","equaldotsize","equaldotanddens","equaldotanddens","equaldotsize","randomdotsizeEA","equaldotanddens","randomdotsizeEA","randomdotsizeEA","randomdotsizeEA","equaldotanddens","equaldotsize","equaldotsize","randomdotsizeEA","equaldotsize","randomdotsizeEA","equaldotsize","randomdotsizeEA","equaldotsize","equaldotanddens","equaldotsize","equaldotanddens","equaldotsize","randomdotsizeEA","randomdotsizeEA","equaldotsize","equaldotanddens","randomdotsizeEA","equaldotanddens","equaldotanddens","randomdotsizeEA","equaldotsize","randomdotsizeEA","equaldotanddens","equaldotanddens","equaldotsize","equaldotsize","randomdotsizeEA","randomdotsizeEA","equaldotanddens","equaldotsize","randomdotsizeEA","equaldotsize","randomdotsizeEA","randomdotsizeEA","equaldotanddens","equaldotsize","equaldotanddens","equaldotanddens","equaldotanddens","equaldotsize","equaldotsize","equaldotsize","randomdotsizeEA","equaldotanddens","randomdotsizeEA","equaldotanddens","equaldotanddens","equaldotsize","equaldotanddens","equaldotanddens","equaldotanddens","equaldotanddens","randomdotsizeEA","equaldotsize","randomdotsizeEA","equaldotsize","randomdotsizeEA","randomdotsizeEA","randomdotsizeEA","randomdotsizeEA","equaldotsize","equaldotsize","equaldotsize","randomdotsizeEA","equaldotanddens","equaldotanddens","randomdotsizeEA","equaldotanddens","equaldotsize","randomdotsizeEA","equaldotsize","equaldotanddens","equaldotsize","equaldotsize","randomdotsizeEA","randomdotsizeEA","randomdotsizeEA","randomdotsizeEA","equaldotsize","equaldotsize","equaldotsize","equaldotanddens","equaldotsize","equaldotanddens","equaldotanddens","equaldotsize","equaldotsize","equaldotanddens","equaldotsize","equaldotanddens","randomdotsizeEA"],"ratio_trial":[250,500,500,900,250,900,250,900,900,250,250,500,750,250,500,500,900,250,250,250,500,750,500,750,500,500,250,900,900,900,750,900,900,500,250,250,500,900,500,750,750,900,750,250,250,900,500,900,750,250,500,750,900,750,250,250,900,900,900,500,750,750,750,250,500,750,250,500,250,250,500,500,750,250,250,900,250,750,500,250,750,250,500,750,900,900,500,750,900,750,900,500,900,750,900,900,750,900,750,750,900,750,900,750,250,500,500,750,750,500,500,900,250,500,750,250,500,500,750,250],"smaller_num":["3","1","2","18","4","18","3","18","18","2","2","2","3","6","9","2","18","3","3","2","10","3","4","3","1","5","4","9","18","18","6","18","18","6","6","2","1","9","6","3","15","9","9","2","3","18","9","18","6","2","5","18","18","6","2","4","18","18","18","6","3","3","15","3","2","9","3","1","3","2","9","5","3","4","6","18","6","15","2","5","12","4","9","15","18","18","1","3","9","15","18","9","18","15","18","18","18","18","15","15","9","3","9","18","2","9","1","15","9","2","2","9","1","9","15","2","2","9","3","2"],"larger_num":["12","2","4","20","16","20","12","20","20","8","8","4","4","24","18","4","20","12","12","8","20","4","8","4","2","10","16","10","20","20","8","20","20","12","24","8","2","10","12","4","20","10","12","8","12","20","18","20","8","8","10","24","20","8","8","16","20","20","20","12","4","4","20","12","4","12","12","2","12","8","18","10","4","16","24","20","24","20","4","20","16","16","18","20","20","20","2","4","10","20","20","18","20","20","20","20","24","20","20","20","10","4","10","24","8","18","2","20","12","4","4","10","4","18","20","8","4","18","4","8"],"correct_side":[2,2,1,1,1,2,1,2,1,1,2,2,2,2,2,1,1,2,1,2,2,1,1,1,2,1,1,2,2,2,2,2,2,1,1,1,2,2,1,1,2,1,2,1,1,1,1,2,1,2,2,1,2,1,2,1,1,1,2,1,2,2,1,1,1,2,2,2,1,2,2,1,1,1,1,1,1,2,1,2,2,2,1,2,2,1,2,2,2,2,1,1,2,2,1,1,1,1,1,2,2,1,2,1,1,2,2,2,2,1,1,1,2,1,1,1,1,1,1,1],"img_shown":["img/250/randomdotsizeEA/R/9_Ratio_250_L_3_R_12.png","img/500/randomdotsizeEA/R/12_Ratio_500_L_1_R_2.png","img/500/equaldotsize/L/10_Ratio_500_L_4_R_2.png","img/900/equaldotsize/L/4_Ratio_900_L_20_R_18.png","img/250/equaldotanddens/L/2_Ratio_250_L_16_R_4.png","img/900/equaldotanddens/R/9_Ratio_900_L_18_R_20.png","img/250/equaldotanddens/L/14_Ratio_250_L_12_R_3.png","img/900/randomdotsizeEA/R/12_Ratio_900_L_18_R_20.png","img/900/equaldotsize/L/10_Ratio_900_L_20_R_18.png","img/250/equaldotanddens/L/3_Ratio_250_L_8_R_2.png","img/250/equaldotsize/R/13_Ratio_250_L_2_R_8.png","img/500/randomdotsizeEA/R/9_Ratio_500_L_2_R_4.png","img/750/randomdotsizeEA/R/7_Ratio_750_L_3_R_4.png","img/250/equaldotanddens/R/6_Ratio_250_L_6_R_24.png","img/500/equaldotanddens/R/6_Ratio_500_L_9_R_18.png","img/500/equaldotanddens/L/5_Ratio_500_L_4_R_2.png","img/900/equaldotanddens/L/4_Ratio_900_L_20_R_18.png","img/250/randomdotsizeEA/R/4_Ratio_250_L_3_R_12.png","img/250/randomdotsizeEA/L/14_Ratio_250_L_12_R_3.png","img/250/equaldotsize/R/13_Ratio_250_L_2_R_8.png","img/500/equaldotanddens/R/3_Ratio_500_L_10_R_20.png","img/750/equaldotanddens/L/8_Ratio_750_L_4_R_3.png","img/500/equaldotsize/L/8_Ratio_500_L_8_R_4.png","img/750/randomdotsizeEA/L/8_Ratio_750_L_4_R_3.png","img/500/equaldotanddens/R/12_Ratio_500_L_1_R_2.png","img/500/randomdotsizeEA/L/7_Ratio_500_L_10_R_5.png","img/250/randomdotsizeEA/L/2_Ratio_250_L_16_R_4.png","img/900/randomdotsizeEA/R/15_Ratio_900_L_9_R_10.png","img/900/equaldotanddens/R/14_Ratio_900_L_18_R_20.png","img/900/equaldotsize/R/12_Ratio_900_L_18_R_20.png","img/750/equaldotsize/R/2_Ratio_750_L_6_R_8.png","img/900/randomdotsizeEA/R/13_Ratio_900_L_18_R_20.png","img/900/equaldotsize/R/12_Ratio_900_L_18_R_20.png","img/500/randomdotsizeEA/L/13_Ratio_500_L_12_R_6.png","img/250/equaldotsize/L/5_Ratio_250_L_24_R_6.png","img/250/randomdotsizeEA/L/1_Ratio_250_L_8_R_2.png","img/500/equaldotsize/R/15_Ratio_500_L_1_R_2.png","img/900/equaldotanddens/R/15_Ratio_900_L_9_R_10.png","img/500/equaldotsize/L/13_Ratio_500_L_12_R_6.png","img/750/equaldotanddens/L/10_Ratio_750_L_4_R_3.png","img/750/equaldotsize/R/5_Ratio_750_L_15_R_20.png","img/900/randomdotsizeEA/L/1_Ratio_900_L_10_R_9.png","img/750/randomdotsizeEA/R/15_Ratio_750_L_9_R_12.png","img/250/equaldotsize/L/7_Ratio_250_L_8_R_2.png","img/250/equaldotanddens/L/15_Ratio_250_L_12_R_3.png","img/900/randomdotsizeEA/L/10_Ratio_900_L_20_R_18.png","img/500/equaldotanddens/L/4_Ratio_500_L_18_R_9.png","img/900/equaldotanddens/R/14_Ratio_900_L_18_R_20.png","img/750/randomdotsizeEA/L/14_Ratio_750_L_8_R_6.png","img/250/equaldotsize/R/13_Ratio_250_L_2_R_8.png","img/500/randomdotsizeEA/R/14_Ratio_500_L_5_R_10.png","img/750/equaldotanddens/L/6_Ratio_750_L_24_R_18.png","img/900/equaldotanddens/R/14_Ratio_900_L_18_R_20.png","img/750/equaldotsize/L/14_Ratio_750_L_8_R_6.png","img/250/equaldotsize/R/13_Ratio_250_L_2_R_8.png","img/250/randomdotsizeEA/L/2_Ratio_250_L_16_R_4.png","img/900/randomdotsizeEA/L/8_Ratio_900_L_20_R_18.png","img/900/equaldotanddens/L/4_Ratio_900_L_20_R_18.png","img/900/equaldotsize/R/13_Ratio_900_L_18_R_20.png","img/500/randomdotsizeEA/L/11_Ratio_500_L_12_R_6.png","img/750/equaldotsize/R/7_Ratio_750_L_3_R_4.png","img/750/randomdotsizeEA/R/7_Ratio_750_L_3_R_4.png","img/750/randomdotsizeEA/L/1_Ratio_750_L_20_R_15.png","img/250/equaldotanddens/L/15_Ratio_250_L_12_R_3.png","img/500/equaldotsize/L/10_Ratio_500_L_4_R_2.png","img/750/equaldotanddens/R/15_Ratio_750_L_9_R_12.png","img/250/equaldotanddens/R/4_Ratio_250_L_3_R_12.png","img/500/equaldotanddens/R/15_Ratio_500_L_1_R_2.png","img/250/equaldotsize/L/15_Ratio_250_L_12_R_3.png","img/250/equaldotsize/R/13_Ratio_250_L_2_R_8.png","img/500/equaldotsize/R/1_Ratio_500_L_9_R_18.png","img/500/randomdotsizeEA/L/7_Ratio_500_L_10_R_5.png","img/750/equaldotanddens/L/10_Ratio_750_L_4_R_3.png","img/250/randomdotsizeEA/L/2_Ratio_250_L_16_R_4.png","img/250/equaldotanddens/L/5_Ratio_250_L_24_R_6.png","img/900/equaldotanddens/L/4_Ratio_900_L_20_R_18.png","img/250/equaldotsize/L/5_Ratio_250_L_24_R_6.png","img/750/equaldotanddens/R/5_Ratio_750_L_15_R_20.png","img/500/equaldotanddens/L/10_Ratio_500_L_4_R_2.png","img/250/equaldotanddens/R/12_Ratio_250_L_5_R_20.png","img/750/equaldotanddens/R/11_Ratio_750_L_12_R_16.png","img/250/randomdotsizeEA/R/10_Ratio_250_L_4_R_16.png","img/500/equaldotsize/L/4_Ratio_500_L_18_R_9.png","img/750/randomdotsizeEA/R/5_Ratio_750_L_15_R_20.png","img/900/equaldotsize/R/13_Ratio_900_L_18_R_20.png","img/900/randomdotsizeEA/L/2_Ratio_900_L_20_R_18.png","img/500/randomdotsizeEA/R/15_Ratio_500_L_1_R_2.png","img/750/randomdotsizeEA/R/12_Ratio_750_L_3_R_4.png","img/900/randomdotsizeEA/R/5_Ratio_900_L_9_R_10.png","img/750/equaldotsize/R/4_Ratio_750_L_15_R_20.png","img/900/equaldotsize/L/10_Ratio_900_L_20_R_18.png","img/500/equaldotsize/L/4_Ratio_500_L_18_R_9.png","img/900/randomdotsizeEA/R/9_Ratio_900_L_18_R_20.png","img/750/equaldotanddens/R/5_Ratio_750_L_15_R_20.png","img/900/equaldotanddens/L/2_Ratio_900_L_20_R_18.png","img/900/randomdotsizeEA/L/4_Ratio_900_L_20_R_18.png","img/750/equaldotanddens/L/6_Ratio_750_L_24_R_18.png","img/900/equaldotsize/L/2_Ratio_900_L_20_R_18.png","img/750/randomdotsizeEA/L/1_Ratio_750_L_20_R_15.png","img/750/equaldotsize/R/4_Ratio_750_L_15_R_20.png","img/900/equaldotanddens/R/6_Ratio_900_L_9_R_10.png","img/750/equaldotsize/L/9_Ratio_750_L_4_R_3.png","img/900/equaldotsize/R/7_Ratio_900_L_9_R_10.png","img/750/randomdotsizeEA/L/6_Ratio_750_L_24_R_18.png","img/250/randomdotsizeEA/L/7_Ratio_250_L_8_R_2.png","img/500/randomdotsizeEA/R/6_Ratio_500_L_9_R_18.png","img/500/randomdotsizeEA/R/15_Ratio_500_L_1_R_2.png","img/750/equaldotsize/R/3_Ratio_750_L_15_R_20.png","img/750/equaldotsize/R/15_Ratio_750_L_9_R_12.png","img/500/equaldotsize/L/5_Ratio_500_L_4_R_2.png","img/500/equaldotanddens/L/5_Ratio_500_L_4_R_2.png","img/900/equaldotsize/L/1_Ratio_900_L_10_R_9.png","img/250/equaldotanddens/R/8_Ratio_250_L_1_R_4.png","img/500/equaldotanddens/L/4_Ratio_500_L_18_R_9.png","img/750/equaldotsize/L/1_Ratio_750_L_20_R_15.png","img/250/equaldotsize/L/3_Ratio_250_L_8_R_2.png","img/500/equaldotanddens/L/10_Ratio_500_L_4_R_2.png","img/500/equaldotsize/L/4_Ratio_500_L_18_R_9.png","img/750/equaldotanddens/L/9_Ratio_750_L_4_R_3.png","img/250/randomdotsizeEA/L/7_Ratio_250_L_8_R_2.png"],"Rat0":[["12_Ratio_0_L_9_R_0.png","13_Ratio_0_L_6_R_0.png","5_Ratio_0_L_2_R_0.png","6_Ratio_0_L_4_R_0.png","8_Ratio_0_L_6_R_0.png"],["1_Ratio_0_L_0_R_17.png","10_Ratio_0_L_0_R_22.png","11_Ratio_0_L_0_R_1.png","14_Ratio_0_L_0_R_24.png","15_Ratio_0_L_0_R_4.png","2_Ratio_0_L_0_R_5.png","3_Ratio_0_L_0_R_17.png","4_Ratio_0_L_0_R_7.png","7_Ratio_0_L_0_R_19.png","9_Ratio_0_L_0_R_15.png"]],"Rat250":[["1_Ratio_250_L_8_R_2.png","14_Ratio_250_L_12_R_3.png","15_Ratio_250_L_12_R_3.png","2_Ratio_250_L_16_R_4.png","3_Ratio_250_L_8_R_2.png","5_Ratio_250_L_24_R_6.png","7_Ratio_250_L_8_R_2.png"],["10_Ratio_250_L_4_R_16.png","11_Ratio_250_L_3_R_12.png","12_Ratio_250_L_5_R_20.png","13_Ratio_250_L_2_R_8.png","4_Ratio_250_L_3_R_12.png","6_Ratio_250_L_6_R_24.png","8_Ratio_250_L_1_R_4.png","9_Ratio_250_L_3_R_12.png"]],"Rat500":[["10_Ratio_500_L_4_R_2.png","11_Ratio_500_L_12_R_6.png","13_Ratio_500_L_12_R_6.png","4_Ratio_500_L_18_R_9.png","5_Ratio_500_L_4_R_2.png","7_Ratio_500_L_10_R_5.png","8_Ratio_500_L_8_R_4.png"],["1_Ratio_500_L_9_R_18.png","12_Ratio_500_L_1_R_2.png","14_Ratio_500_L_5_R_10.png","15_Ratio_500_L_1_R_2.png","2_Ratio_500_L_3_R_6.png","3_Ratio_500_L_10_R_20.png","6_Ratio_500_L_9_R_18.png","9_Ratio_500_L_2_R_4.png"]],"Rat750":[["1_Ratio_750_L_20_R_15.png","10_Ratio_750_L_4_R_3.png","13_Ratio_750_L_8_R_6.png","14_Ratio_750_L_8_R_6.png","6_Ratio_750_L_24_R_18.png","8_Ratio_750_L_4_R_3.png","9_Ratio_750_L_4_R_3.png"],["11_Ratio_750_L_12_R_16.png","12_Ratio_750_L_3_R_4.png","15_Ratio_750_L_9_R_12.png","2_Ratio_750_L_6_R_8.png","3_Ratio_750_L_15_R_20.png","4_Ratio_750_L_15_R_20.png","5_Ratio_750_L_15_R_20.png","7_Ratio_750_L_3_R_4.png"]],"Rat900":[["1_Ratio_900_L_10_R_9.png","10_Ratio_900_L_20_R_18.png","2_Ratio_900_L_20_R_18.png","4_Ratio_900_L_20_R_18.png","8_Ratio_900_L_20_R_18.png"],["11_Ratio_900_L_18_R_20.png","12_Ratio_900_L_18_R_20.png","13_Ratio_900_L_18_R_20.png","14_Ratio_900_L_18_R_20.png","15_Ratio_900_L_9_R_10.png","3_Ratio_900_L_9_R_10.png","5_Ratio_900_L_9_R_10.png","6_Ratio_900_L_9_R_10.png","7_Ratio_900_L_9_R_10.png","9_Ratio_900_L_18_R_20.png"]],"Rat1000":[["10_Ratio_1000_L_16_R_16.png","11_Ratio_1000_L_6_R_6.png","12_Ratio_1000_L_14_R_14.png","13_Ratio_1000_L_20_R_20.png","15_Ratio_1000_L_15_R_15.png","2_Ratio_1000_L_17_R_17.png","4_Ratio_1000_L_9_R_9.png","5_Ratio_1000_L_6_R_6.png","6_Ratio_1000_L_19_R_19.png","8_Ratio_1000_L_14_R_14.png","9_Ratio_1000_L_25_R_25.png"],["1_Ratio_1000_L_1_R_1.png","14_Ratio_1000_L_17_R_17.png","3_Ratio_1000_L_17_R_17.png","7_Ratio_1000_L_6_R_6.png"]]}},{"start_time":1552328816317,"click_time":1552328817740,"finger_time":1552328817420,"fix_duration":936.5486114123702,"trial":1,"RT":1103,"MT":320,"sideResp":2,"stimulus":"img/500/randomdotsizeEA/R/12_Ratio_500_L_1_R_2.png","xmouse":[795,795,795,795,795,795,795,795,795,795,795,795,795,795,795,795,795,795,795,795,795,795,795,795,795,794,794,794,794,794,794,794,794,794,794,794,794,794,794,794,794,794,794,794,794,794,794,794,794,794,794,799,802,818,825,882,896,924,956,983,1017,1069,1085,1096,1112,1132,1137,1142,1144,1144,1140,1135],"ymouse":[541,541,541,541,541,541,541,541,541,541,541,541,541,541,541,541,541,541,541,541,541,541,541,541,541,542,542,542,542,542,542,542,542,542,542,542,542,542,542,542,542,542,542,542,542,542,542,542,542,542,542,542,540,535,532,489,468,435,395,365,332,270,250,237,218,199,190,181,170,154,107,88],"timestamp_mouse":[8,31,42,64,84,103,124,144,163,183,202,223,242,263,283,303,324,343,364,384,402,424,444,463,483,504,523,544,564,584,603,624,643,664,684,704,724,744,764,782,803,823,844,864,883,903,923,944,964,983,1003,1023,1043,1063,1083,1103,1123,1143,1162,1183,1203,1222,1244,1262,1283,1304,1323,1343,1362,1383,1404,1423],"xSR":741.5,"ySR":469.95,"xT1":424.9,"yT1":0,"xT2":1058.1,"yT2":0,"toosoon":0,"cond_shown":"randomdotsizeEA","ratio_trial":500,"smaller_num":"1","larger_num":"2","correct_side":2,"subjID":"matiaslopez33","gender":"0","age":"9","school":"4"},{"start_time":1552328819947,"click_time":1552328821840,"finger_time":1552328821240,"fix_duration":1246.1400647406472,"trial":2,"RT":1293,"MT":600,"sideResp":2,"stimulus":"img/500/equaldotsize/L/10_Ratio_500_L_4_R_2.png","xmouse":[801,801,793,790,788,788,788,788,788,788,788,788,788,788,788,788,788,788,788,788,788,788,788,788,788,788,788,788,788,788,788,788,788,788,788,788,788,788,788,788,788,788,788,788,788,788,788,788,788,788,788,788,788,788,788,788,788,788,788,792,798,804,812,822,858,899,954,1024,1101,1164,1164,1164,1164,1164,1164,1164,1164,1164,1164,1164,1164,1164,1164,1164,1164,1164,1164,1164,1164,1164,1164,1164,1164,1156,1156],"ymouse":[510,510,514,516,517,517,517,517,517,517,517,517,517,517,517,517,517,517,517,517,517,517,517,517,517,517,517,517,517,517,517,517,517,517,517,517,517,517,517,517,517,517,517,517,517,517,517,517,517,517,517,517,517,517,517,517,517,517,517,516,515,514,512,508,487,441,392,316,157,14,14,14,14,14,14,14,14,14,14,14,14,14,14,14,14,14,14,14,14,14,14,14,14,0,1],"timestamp_mouse":[26,33,53,73,93,113,134,153,173,194,214,234,254,273,294,314,332,353,372,392,414,433,453,473,493,512,534,553,573,592,614,632,653,673,694,713,733,754,773,794,813,833,854,873,893,912,933,954,974,994,1013,1032,1053,1074,1094,1114,1133,1154,1173,1192,1213,1233,1253,1273,1293,1313,1333,1353,1373,1394,1413,1433,1453,1474,1493,1513,1534,1553,1573,1593,1613,1634,1652,1673,1693,1712,1732,1753,1772,1793,1814,1833,1853,1873,1893],"xSR":741.5,"ySR":469.95,"xT1":424.9,"yT1":0,"xT2":1058.1,"yT2":0,"toosoon":0,"cond_shown":"equaldotsize","ratio_trial":500,"smaller_num":"2","larger_num":"4","correct_side":1,"subjID":"matiaslopez33","gender":"0","age":"9","school":"4"},{"start_time":1552328823822,"click_time":1552328825141,"finger_time":1552328824760,"fix_duration":480.67601312857886,"trial":3,"RT":938,"MT":381,"sideResp":2,"stimulus":"img/900/equaldotsize/L/4_Ratio_900_L_20_R_18.png","xmouse":[773,773,773,773,773,773,773,773,773,773,773,773,773,773,773,773,773,773,773,773,773,773,773,773,773,773,773,773,773,773,773,773,773,773,773,773,773,773,773,773,773,773,773,775,780,840,877,919,966,1015,1119,1168,1211,1243,1257,1269,1269,1269,1269,1268,1256,1239,1215,1191,1177,1157],"ymouse":[520,520,520,520,520,520,520,520,520,520,520,520,520,520,520,520,520,520,520,520,520,520,520,520,520,520,520,520,520,520,520,520,520,520,520,520,520,520,520,520,520,520,520,520,515,476,453,430,407,374,243,192,153,125,112,95,95,95,95,95,96,93,86,80,78,76],"timestamp_mouse":[19,38,58,78,98,117,139,159,178,199,218,237,259,277,298,318,339,357,379,397,418,439,458,478,499,518,539,558,578,598,618,639,658,679,697,718,739,758,779,799,818,837,859,878,899,918,938,958,977,998,1018,1037,1059,1078,1098,1119,1138,1158,1179,1199,1219,1237,1257,1278,1298,1319],"xSR":741.5,"ySR":469.95,"xT1":424.9,"yT1":0,"xT2":1058.1,"yT2":0,"toosoon":0,"cond_shown":"equaldotsize","ratio_trial":900,"smaller_num":"18","larger_num":"20","correct_side":1,"subjID":"matiaslopez33","gender":"0","age":"9","school":"4"},{"start_time":1552328826843,"click_time":1552328827940,"finger_time":1552328827740,"fix_duration":601.9152180231586,"trial":4,"RT":897,"MT":200,"sideResp":1,"stimulus":"img/250/equaldotanddens/L/2_Ratio_250_L_16_R_4.png","xmouse":[800,800,800,800,800,800,800,800,800,800,800,800,800,800,800,800,800,800,800,800,800,800,800,800,800,800,800,800,800,800,800,800,801,802,804,806,806,806,807,807,807,807,807,806,793,676,624,590,556,517,507,499,486,478,475],"ymouse":[489,489,489,489,490,490,490,490,490,490,490,490,490,490,490,490,490,490,490,490,490,490,490,490,490,490,490,490,490,490,490,490,490,490,489,488,488,488,487,487,487,487,487,485,465,358,308,273,232,174,156,136,111,101,98],"timestamp_mouse":[17,38,57,77,97,117,137,158,177,197,218,237,258,277,297,316,337,357,377,398,418,437,457,476,498,518,536,557,578,597,618,637,657,677,697,717,738,758,777,798,818,838,857,876,897,917,937,958,977,999,1017,1038,1057,1077,1097],"xSR":741.5,"ySR":469.95,"xT1":424.9,"yT1":0,"xT2":1058.1,"yT2":0,"toosoon":0,"cond_shown":"equaldotanddens","ratio_trial":250,"smaller_num":"4","larger_num":"16","correct_side":1,"subjID":"matiaslopez33","gender":"0","age":"9","school":"4"},{"start_time":1552328829625,"click_time":1552328830761,"finger_time":1552328830420,"fix_duration":723.0594119772585,"trial":5,"RT":795,"MT":341,"sideResp":2,"stimulus":"img/900/equaldotanddens/R/9_Ratio_900_L_18_R_20.png","xmouse":[796,796,796,796,796,796,796,796,796,796,796,796,796,796,796,796,796,796,796,796,796,796,796,796,796,796,796,796,796,796,796,796,796,796,796,796,796,803,824,843,859,869,882,890,900,910,942,957,970,986,992,1007,1020,1026,1035,1044,1059],"ymouse":[544,544,544,544,544,544,544,544,544,544,544,544,544,544,544,544,544,544,544,544,544,544,544,544,544,544,544,544,544,544,544,544,544,544,544,544,543,540,511,479,452,434,416,404,393,376,332,310,278,224,202,158,125,101,76,51,16],"timestamp_mouse":[16,36,55,75,96,116,136,156,175,195,215,235,255,276,296,316,335,354,376,396,416,436,455,475,494,515,535,556,576,594,616,635,656,676,695,714,735,755,776,795,816,835,856,875,895,914,934,955,975,995,1015,1035,1055,1075,1094,1114,1135],"xSR":741.5,"ySR":469.95,"xT1":424.9,"yT1":0,"xT2":1058.1,"yT2":0,"toosoon":0,"cond_shown":"equaldotanddens","ratio_trial":900,"smaller_num":"18","larger_num":"20","correct_side":2,"subjID":"matiaslopez33","gender":"0","age":"9","school":"4"},{"start_time":1552328832807,"click_time":1552328834580,"finger_time":1552328833180,"fix_duration":844.2193067979107,"trial":6,"RT":373,"MT":1400,"sideResp":1,"stimulus":"img/250/equaldotanddens/L/14_Ratio_250_L_12_R_3.png","xmouse":[766,766,766,769,770,770,770,770,770,768,764,757,755,755,755,755,755,753,733,733,733,733,725,718,711,709,709,709,709,709,709,709,709,709,709,708,710,736,742,744,739,721,698,697,696,694,694,694,675,666,659,591,364,274,258,258,258,258,258,258,259,264,285,285,290,304,319,336,369,379,383,385,413,431,449,466,478,491,497,500,503,504,504,504,505,505,505,507,517],"ymouse":[528,528,528,527,527,527,527,527,527,527,528,531,532,532,532,532,532,533,543,544,544,544,544,545,548,548,548,548,548,548,548,548,548,548,548,546,501,366,306,265,223,163,28,11,5,0,0,0,1,18,36,60,50,22,10,10,10,10,9,9,9,9,13,13,15,22,30,40,63,75,80,83,105,113,120,124,125,126,125,124,124,123,123,123,122,122,122,119,80],"timestamp_mouse":[13,34,53,73,92,113,133,153,174,194,214,234,253,274,292,313,332,353,373,393,414,434,454,474,493,513,533,553,573,593,613,633,654,673,693,714,734,754,773,794,812,834,853,873,893,913,933,954,973,993,1013,1034,1054,1073,1093,1113,1133,1152,1173,1193,1213,1233,1254,1273,1293,1312,1334,1354,1373,1392,1413,1433,1455,1473,1493,1513,1532,1555,1572,1593,1614,1633,1654,1674,1692,1713,1732,1754,1773],"xSR":741.5,"ySR":469.95,"xT1":424.9,"yT1":0,"xT2":1058.1,"yT2":0,"toosoon":0,"cond_shown":"equaldotanddens","ratio_trial":250,"smaller_num":"3","larger_num":"12","correct_side":1,"subjID":"matiaslopez33","gender":"0","age":"9","school":"4"},{"start_time":1552328838532,"click_time":1552328840640,"finger_time":1552328840120,"fix_duration":250,"trial":7,"RT":1588,"MT":520,"sideResp":1,"stimulus":"img/900/randomdotsizeEA/R/12_Ratio_900_L_18_R_20.png","xmouse":[819,819,819,819,819,819,819,820,821,821,821,821,821,821,821,821,821,821,821,821,821,821,821,821,821,821,821,821,821,821,821,821,821,821,821,821,821,821,821,821,821,821,821,821,821,821,821,821,821,821,821,821,821,821,821,821,821,821,821,821,821,821,821,821,821,821,821,820,820,820,820,820,820,820,818,816,814,813,812,810,790,749,646,562,562,562,562,562,562,562,562,562,562,562,562,562,562,562,562,562,562,562,562,562,562,505],"ymouse":[542,542,542,542,542,542,542,538,534,531,527,524,523,523,523,523,523,523,523,523,523,523,523,523,523,523,523,523,522,522,522,522,522,522,522,522,522,522,522,522,522,522,522,522,522,522,522,522,522,522,522,522,522,522,522,522,522,522,522,522,522,522,522,522,522,522,522,522,522,522,522,522,522,522,519,514,508,495,480,443,385,291,121,19,19,19,19,19,19,19,19,19,19,19,19,19,19,19,19,19,19,19,19,19,19,10],"timestamp_mouse":[10,35,48,68,89,109,129,148,168,188,208,228,249,268,288,308,329,349,369,389,409,429,448,469,489,508,528,549,568,588,609,628,649,667,688,708,729,749,769,787,808,829,849,869,888,907,927,948,969,989,1008,1028,1049,1068,1088,1108,1128,1148,1168,1189,1209,1227,1248,1268,1288,1307,1327,1347,1368,1388,1409,1427,1448,1469,1488,1507,1528,1548,1568,1588,1608,1628,1648,1668,1689,1708,1728,1748,1769,1788,1808,1829,1849,1869,1889,1907,1928,1948,1969,1987,2008,2028,2049,2069,2089,2108],"xSR":741.5,"ySR":469.95,"xT1":424.9,"yT1":0,"xT2":1058.1,"yT2":0,"toosoon":0,"cond_shown":"randomdotsizeEA","ratio_trial":900,"smaller_num":"18","larger_num":"20","correct_side":2,"subjID":"matiaslopez33","gender":"0","age":"9","school":"4"},{"start_time":1552328841692,"click_time":1552328842620,"finger_time":1552328842040,"fix_duration":250,"trial":8,"RT":348,"MT":580,"sideResp":2,"stimulus":"img/900/equaldotsize/L/10_Ratio_900_L_20_R_18.png","xmouse":[799,799,799,799,799,799,799,799,799,799,799,799,799,799,803,812,836,854,878,927,945,957,967,978,995,1000,1002,1004,1005,1005,1005,1005,1005,996,969,962,960,960,960,962,971,982,993,1003,1052,1075,1099],"ymouse":[499,499,499,499,499,499,499,499,499,499,499,499,499,499,499,494,475,461,447,413,395,377,360,334,308,302,298,294,293,293,293,292,279,257,203,181,169,162,162,160,157,154,151,148,125,105,87],"timestamp_mouse":[13,33,48,68,88,107,127,149,168,188,209,228,249,267,288,307,327,348,368,388,408,428,448,469,489,508,527,548,569,588,609,628,648,668,689,708,728,747,767,789,807,828,849,869,889,908,928],"xSR":741.5,"ySR":469.95,"xT1":424.9,"yT1":0,"xT2":1058.1,"yT2":0,"toosoon":0,"cond_shown":"equaldotsize","ratio_trial":900,"smaller_num":"18","larger_num":"20","correct_side":1,"subjID":"matiaslopez33","gender":"0","age":"9","school":"4"},{"start_time":1552328851410,"click_time":1552328852240,"finger_time":1552328852140,"fix_duration":1286.2883297795172,"trial":9,"RT":730,"MT":100,"sideResp":1,"stimulus":"img/250/equaldotanddens/L/3_Ratio_250_L_8_R_2.png","xmouse":[778,780,780,780,780,780,780,780,780,780,780,780,780,780,781,783,786,789,790,794,795,795,795,795,795,795,795,795,795,795,795,795,795,795,795,795,781,752,708,652,555,501],"ymouse":[509,508,508,508,508,508,508,508,508,508,508,508,508,508,507,507,506,505,504,493,484,483,483,483,483,483,482,482,482,482,482,482,482,482,482,482,439,377,297,218,93,36],"timestamp_mouse":[15,35,50,71,90,110,131,151,170,190,211,230,251,269,290,309,329,351,371,390,409,430,451,470,490,510,530,551,571,590,611,631,650,671,691,710,730,750,769,791,809,830],"xSR":741.5,"ySR":469.95,"xT1":424.9,"yT1":0,"xT2":1058.1,"yT2":0,"toosoon":0,"cond_shown":"equaldotanddens","ratio_trial":250,"smaller_num":"2","larger_num":"8","correct_side":1,"subjID":"matiaslopez33","gender":"0","age":"9","school":"4"},{"start_time":1552328854909,"click_time":1552328855920,"finger_time":1552328855559,"fix_duration":1487.3798724243386,"trial":10,"RT":650,"MT":361,"sideResp":2,"stimulus":"img/250/equaldotsize/R/13_Ratio_250_L_2_R_8.png","xmouse":[802,802,802,802,802,801,800,800,799,799,798,798,798,796,796,795,795,795,795,795,795,795,795,795,795,795,795,795,795,795,795,816,849,881,918,1008,1059,1080,1086,1086,1086,1086,1086,1086,1086,1086,1086,1086,1086,1086,1092],"ymouse":[510,510,510,510,510,510,510,510,510,510,510,511,511,511,511,512,512,512,512,512,512,512,512,512,512,512,512,512,512,512,512,493,444,398,336,217,156,125,109,104,103,102,102,102,102,102,102,102,102,100,86],"timestamp_mouse":[14,37,52,72,90,111,131,152,171,190,211,232,251,270,291,311,330,351,372,392,412,430,451,471,492,512,531,551,571,590,612,632,650,670,691,710,731,750,770,791,810,831,851,872,891,912,930,950,970,993,1010],"xSR":741.5,"ySR":469.95,"xT1":424.9,"yT1":0,"xT2":1058.1,"yT2":0,"toosoon":0,"cond_shown":"equaldotsize","ratio_trial":250,"smaller_num":"2","larger_num":"8","correct_side":2,"subjID":"matiaslopez33","gender":"0","age":"9","school":"4"},{"start_time":1552328857278,"click_time":1552328858940,"finger_time":1552328858319,"fix_duration":377.2191523422379,"trial":11,"RT":1041,"MT":621,"sideResp":2,"stimulus":"img/500/randomdotsizeEA/R/9_Ratio_500_L_2_R_4.png","xmouse":[811,811,811,811,811,811,811,811,811,811,811,811,811,811,811,811,811,811,811,811,811,811,811,811,811,811,811,811,811,811,811,811,811,811,811,811,811,811,811,811,811,811,811,811,811,811,811,811,811,813,816,818,823,825,828,833,840,860,870,879,887,895,914,925,938,953,968,1001,1008,1011,1011,1011,1015,1020,1026,1030,1035,1050,1052,1054,1055,1055,1056,1060],"ymouse":[501,501,501,501,501,501,501,501,501,501,501,501,501,501,501,501,501,501,501,501,501,501,501,501,501,501,501,501,501,501,501,501,501,501,501,501,501,501,501,501,501,501,501,501,501,501,501,501,501,495,483,477,464,460,453,444,431,385,362,340,316,297,263,249,235,220,209,181,176,174,174,174,173,169,157,147,136,109,104,101,101,100,99,98],"timestamp_mouse":[10,22,43,62,82,102,121,142,162,182,201,221,241,262,282,301,321,342,363,383,402,422,441,461,481,502,523,542,562,582,602,623,642,662,683,701,723,742,762,783,802,823,841,862,883,903,923,942,961,981,1003,1021,1041,1061,1081,1102,1123,1142,1162,1181,1202,1222,1243,1262,1282,1302,1322,1342,1361,1382,1401,1421,1443,1463,1482,1503,1523,1541,1562,1581,1602,1622,1642,1662],"xSR":741.5,"ySR":469.95,"xT1":424.9,"yT1":0,"xT2":1058.1,"yT2":0,"toosoon":0,"cond_shown":"randomdotsizeEA","ratio_trial":500,"smaller_num":"2","larger_num":"4","correct_side":2,"subjID":"matiaslopez33","gender":"0","age":"9","school":"4"},{"start_time":1552328860325,"click_time":1552328861621,"finger_time":1552328861100,"fix_duration":424.19403083494336,"trial":12,"RT":775,"MT":521,"sideResp":2,"stimulus":"img/750/randomdotsizeEA/R/7_Ratio_750_L_3_R_4.png","xmouse":[807,807,807,807,807,807,807,807,807,807,807,807,807,807,807,807,807,807,807,807,807,807,807,807,807,807,807,807,807,807,807,807,807,807,808,811,817,831,859,1005,1082,1156,1208,1236,1251,1251,1251,1251,1250,1243,1215,1205,1196,1193,1190,1179,1174,1171,1171,1170,1167,1163,1162,1159,1153],"ymouse":[528,528,528,528,528,528,528,528,528,528,528,528,528,528,528,528,528,528,528,528,528,528,528,528,528,528,528,528,528,528,528,528,528,528,529,529,527,523,502,388,330,277,229,184,121,112,111,111,111,110,106,104,103,102,100,93,90,88,86,84,81,77,77,76,75],"timestamp_mouse":[19,37,55,74,95,115,135,156,176,194,214,234,255,274,294,316,335,356,376,395,416,434,456,475,495,515,536,554,576,595,616,634,656,676,695,715,734,756,775,796,814,836,855,876,896,915,934,956,974,994,1015,1034,1055,1075,1096,1116,1135,1155,1176,1196,1215,1235,1256,1274,1296],"xSR":741.5,"ySR":469.95,"xT1":424.9,"yT1":0,"xT2":1058.1,"yT2":0,"toosoon":0,"cond_shown":"randomdotsizeEA","ratio_trial":750,"smaller_num":"3","larger_num":"4","correct_side":2,"subjID":"matiaslopez33","gender":"0","age":"9","school":"4"},{"start_time":1552328863869,"click_time":1552328864900,"finger_time":1552328864520,"fix_duration":1126.243254311539,"trial":13,"RT":651,"MT":380,"sideResp":2,"stimulus":"img/250/equaldotanddens/R/6_Ratio_250_L_6_R_24.png","xmouse":[798,798,798,798,798,798,798,798,798,798,798,798,798,798,798,798,798,798,798,798,798,798,798,798,798,798,798,798,798,802,809,825,854,901,959,990,1013,1026,1037,1034,1026,1018,1011,1010,1014,1019,1023,1024,1033,1043,1053,1063],"ymouse":[542,542,542,542,542,542,542,542,542,542,542,542,542,542,542,542,542,542,542,542,542,542,542,542,542,542,542,542,542,541,539,527,496,454,401,370,335,293,197,164,145,129,116,110,108,106,105,105,103,100,97,94],"timestamp_mouse":[13,31,52,72,91,110,132,151,171,192,211,232,251,271,291,311,331,350,371,392,412,431,451,471,492,511,532,551,571,590,610,631,651,670,690,711,732,750,771,790,811,831,851,871,891,910,932,951,971,992,1011,1030],"xSR":741.5,"ySR":469.95,"xT1":424.9,"yT1":0,"xT2":1058.1,"yT2":0,"toosoon":0,"cond_shown":"equaldotanddens","ratio_trial":250,"smaller_num":"6","larger_num":"24","correct_side":2,"subjID":"matiaslopez33","gender":"0","age":"9","school":"4"},{"start_time":1552328866562,"click_time":1552328867941,"finger_time":1552328867200,"fix_duration":620.8022620704372,"trial":14,"RT":638,"MT":741,"sideResp":2,"stimulus":"img/500/equaldotanddens/R/6_Ratio_500_L_9_R_18.png","xmouse":[776,776,776,776,776,776,776,776,776,776,776,776,776,776,776,776,776,776,776,776,776,776,776,776,776,776,776,777,793,804,820,832,874,949,976,989,998,1004,1011,1015,1020,1024,1029,1033,1033,1035,1036,1038,1047,1052,1059,1068,1075,1089,1093,1095,1095,1095,1095,1095,1095,1094,1091,1089,1088,1088,1088,1088,1087],"ymouse":[484,484,484,484,484,484,484,484,484,484,484,484,484,484,484,484,484,484,484,484,484,484,484,484,484,484,484,483,479,475,471,467,437,381,360,346,333,323,301,287,269,253,239,226,222,216,210,202,184,177,169,159,153,147,145,145,145,145,145,140,131,123,115,109,108,108,108,108,99],"timestamp_mouse":[18,38,58,77,97,118,137,159,178,199,218,237,258,277,299,318,338,358,377,398,419,437,459,477,497,519,539,558,577,598,619,638,658,677,697,717,737,758,778,797,817,839,858,878,897,917,937,958,978,999,1018,1039,1058,1078,1097,1117,1138,1158,1178,1199,1217,1238,1258,1279,1299,1319,1338,1359,1379],"xSR":741.5,"ySR":469.95,"xT1":424.9,"yT1":0,"xT2":1058.1,"yT2":0,"toosoon":0,"cond_shown":"equaldotanddens","ratio_trial":500,"smaller_num":"9","larger_num":"18","correct_side":2,"subjID":"matiaslopez33","gender":"0","age":"9","school":"4"},{"start_time":1552328869995,"click_time":1552328871180,"finger_time":1552328870619,"fix_duration":352.60848741279636,"trial":15,"RT":624,"MT":561,"sideResp":1,"stimulus":"img/500/equaldotanddens/L/5_Ratio_500_L_4_R_2.png","xmouse":[798,798,798,798,798,798,798,798,798,798,798,798,798,798,798,798,798,798,798,798,798,798,798,798,798,798,798,798,798,798,791,783,738,716,701,690,680,671,657,655,655,654,651,638,631,618,584,526,388,373,372,372,379,390,391,391,391,404,420,438],"ymouse":[525,525,525,525,525,525,525,525,525,525,525,525,525,525,525,525,525,525,525,525,525,525,525,525,525,525,525,525,525,525,494,467,317,236,172,131,99,84,65,62,62,62,62,62,62,62,62,62,62,62,62,62,62,62,62,62,62,64,66,68],"timestamp_mouse":[12,31,45,65,85,104,126,145,165,184,206,226,245,266,285,305,324,345,366,385,405,426,445,466,485,505,525,546,566,585,604,624,646,664,685,704,725,744,765,785,804,824,847,865,885,905,925,946,966,984,1004,1025,1044,1064,1085,1106,1125,1147,1164,1185],"xSR":741.5,"ySR":469.95,"xT1":424.9,"yT1":0,"xT2":1058.1,"yT2":0,"toosoon":0,"cond_shown":"equaldotanddens","ratio_trial":500,"smaller_num":"2","larger_num":"4","correct_side":1,"subjID":"matiaslopez33","gender":"0","age":"9","school":"4"},{"start_time":1552328873082,"click_time":1552328874240,"finger_time":1552328873781,"fix_duration":640.963236379617,"trial":16,"RT":699,"MT":459,"sideResp":1,"stimulus":"img/900/equaldotanddens/L/4_Ratio_900_L_20_R_18.png","xmouse":[761,761,761,761,761,761,761,761,761,761,761,761,761,761,761,761,761,761,761,761,761,761,761,761,761,761,761,761,761,761,761,761,762,766,767,767,753,719,634,584,563,550,547,547,547,547,547,547,547,545,541,538,535,532,529,522,516,504],"ymouse":[506,506,506,506,506,506,506,506,506,506,506,506,506,506,506,506,506,506,506,506,506,506,506,506,506,506,506,506,506,506,506,505,504,490,453,420,375,310,187,137,117,103,100,100,100,100,100,100,100,100,100,101,101,101,101,101,100,97],"timestamp_mouse":[18,38,57,78,99,117,139,158,177,198,218,238,259,277,297,319,338,359,379,397,418,439,458,479,499,518,538,558,578,598,619,638,659,678,699,718,737,758,777,797,817,838,859,879,898,919,937,958,978,998,1017,1038,1059,1078,1098,1117,1138,1157],"xSR":741.5,"ySR":469.95,"xT1":424.9,"yT1":0,"xT2":1058.1,"yT2":0,"toosoon":0,"cond_shown":"equaldotanddens","ratio_trial":900,"smaller_num":"18","larger_num":"20","correct_side":1,"subjID":"matiaslopez33","gender":"0","age":"9","school":"4"},{"start_time":1552328875755,"click_time":1552328876800,"finger_time":1552328876440,"fix_duration":373.67381427485094,"trial":17,"RT":685,"MT":360,"sideResp":2,"stimulus":"img/250/randomdotsizeEA/R/4_Ratio_250_L_3_R_12.png","xmouse":[769,769,769,769,769,769,769,769,769,769,769,769,769,769,769,769,769,769,769,769,769,769,769,769,769,769,769,769,769,771,785,796,810,834,849,915,975,1040,1093,1123,1141,1142,1142,1142,1141,1137,1135,1131,1123,1119,1111,1107,1104],"ymouse":[525,525,525,525,525,525,525,525,525,525,525,525,525,525,525,525,525,525,525,525,525,525,525,525,525,525,525,525,525,525,521,518,509,481,460,401,360,328,300,281,259,249,241,232,219,198,187,175,159,147,118,100,76],"timestamp_mouse":[22,48,48,64,86,105,125,144,164,184,205,225,246,264,284,305,326,345,365,385,405,425,445,465,485,504,525,546,565,584,604,625,646,665,685,705,724,745,765,784,805,824,845,864,885,905,925,945,966,986,1006,1024,1045],"xSR":741.5,"ySR":469.95,"xT1":424.9,"yT1":0,"xT2":1058.1,"yT2":0,"toosoon":0,"cond_shown":"randomdotsizeEA","ratio_trial":250,"smaller_num":"3","larger_num":"12","correct_side":2,"subjID":"matiaslopez33","gender":"0","age":"9","school":"4"},{"start_time":1552328878790,"click_time":1552328880080,"finger_time":1552328879461,"fix_duration":1067.8204702852222,"trial":18,"RT":671,"MT":619,"sideResp":1,"stimulus":"img/250/randomdotsizeEA/L/14_Ratio_250_L_12_R_3.png","xmouse":[772,772,772,772,772,772,772,772,772,772,772,772,772,772,772,772,772,772,772,772,772,772,772,772,772,772,772,772,772,772,772,773,778,758,708,627,519,352,352,352,352,352,352,352,352,352,352,352,318,336,348,366,377,387,389,391,394,398,410,416,419,422,424,424,427],"ymouse":[506,506,506,506,506,506,506,506,506,506,506,506,506,506,506,506,506,506,506,506,506,506,506,506,506,506,506,506,506,506,506,506,476,381,313,226,129,0,0,0,0,0,0,0,0,0,0,0,0,13,22,34,42,51,53,53,53,54,58,60,61,62,62,62,62],"timestamp_mouse":[12,31,51,70,89,111,130,151,170,190,209,229,251,269,291,310,330,349,371,390,409,429,449,471,491,511,530,549,570,589,610,631,650,671,690,709,730,749,770,790,810,829,850,871,891,910,929,950,969,990,1009,1029,1051,1072,1089,1110,1131,1150,1171,1189,1211,1230,1249,1269,1290],"xSR":741.5,"ySR":469.95,"xT1":424.9,"yT1":0,"xT2":1058.1,"yT2":0,"toosoon":0,"cond_shown":"randomdotsizeEA","ratio_trial":250,"smaller_num":"3","larger_num":"12","correct_side":1,"subjID":"matiaslopez33","gender":"0","age":"9","school":"4"},{"start_time":1552328882515,"click_time":1552328883380,"finger_time":1552328883100,"fix_duration":1472.8990401903038,"trial":19,"RT":585,"MT":280,"sideResp":2,"stimulus":"img/250/equaldotsize/R/13_Ratio_250_L_2_R_8.png","xmouse":[794,794,794,794,794,794,794,794,794,794,794,794,794,794,794,794,794,794,794,794,794,794,794,794,794,794,794,799,809,848,887,951,1018,1127,1134,1134,1135,1135,1136,1139,1142,1143,1143,1129],"ymouse":[515,515,515,515,515,515,515,515,515,515,515,515,515,515,515,515,515,515,515,515,515,515,515,515,515,515,515,511,499,454,417,366,306,222,216,215,210,206,198,190,181,166,151,99],"timestamp_mouse":[11,29,45,65,85,105,126,144,164,186,206,225,244,265,284,305,325,346,364,386,406,426,445,464,484,506,525,545,564,585,605,626,644,665,686,704,726,746,765,785,805,826,846,865],"xSR":741.5,"ySR":469.95,"xT1":424.9,"yT1":0,"xT2":1058.1,"yT2":0,"toosoon":0,"cond_shown":"equaldotsize","ratio_trial":250,"smaller_num":"2","larger_num":"8","correct_side":2,"subjID":"matiaslopez33","gender":"0","age":"9","school":"4"},{"start_time":1552328885604,"click_time":1552328886681,"finger_time":1552328886220,"fix_duration":1263.8932010511326,"trial":20,"RT":616,"MT":461,"sideResp":2,"stimulus":"img/500/equaldotanddens/R/3_Ratio_500_L_10_R_20.png","xmouse":[809,805,802,798,798,798,798,798,798,798,798,798,798,798,798,798,798,798,798,798,798,798,798,798,798,798,798,798,801,817,831,846,860,876,912,926,941,957,993,1004,1011,1014,1016,1018,1021,1023,1026,1029,1033,1043,1048,1053,1057,1059],"ymouse":[531,526,518,509,509,509,509,509,509,509,509,509,509,509,509,509,509,509,509,509,509,509,509,509,509,509,509,508,507,493,468,445,420,386,312,282,251,225,172,158,148,143,140,136,132,127,122,115,107,90,84,78,72,70],"timestamp_mouse":[16,35,56,75,96,117,135,157,176,195,215,237,257,276,296,316,337,356,377,397,417,436,456,476,497,516,537,556,576,595,616,636,657,676,695,715,736,756,776,796,816,837,856,877,895,916,937,957,975,997,1016,1036,1057,1076],"xSR":741.5,"ySR":469.95,"xT1":424.9,"yT1":0,"xT2":1058.1,"yT2":0,"toosoon":0,"cond_shown":"equaldotanddens","ratio_trial":500,"smaller_num":"10","larger_num":"20","correct_side":2,"subjID":"matiaslopez33","gender":"0","age":"9","school":"4"},{"start_time":1552328888250,"click_time":1552328889320,"finger_time":1552328888960,"fix_duration":388.833361134946,"trial":21,"RT":710,"MT":360,"sideResp":1,"stimulus":"img/750/equaldotanddens/L/8_Ratio_750_L_4_R_3.png","xmouse":[784,784,784,784,784,784,784,784,784,784,784,784,784,784,784,784,784,784,784,784,784,784,784,784,784,784,784,784,784,786,790,792,794,795,795,776,696,637,567,493,430,404,395,395,395,395,397,402,404,408,412,416,422,425],"ymouse":[538,538,538,538,538,538,538,538,538,538,538,538,538,538,538,538,538,538,538,538,538,538,538,538,538,538,538,538,538,538,536,532,519,507,489,447,344,282,221,164,121,100,93,93,93,93,93,91,91,90,88,88,86,85],"timestamp_mouse":[10,33,50,70,90,110,131,151,171,190,210,229,251,271,290,310,330,351,370,391,409,431,449,470,490,509,530,550,569,590,610,630,649,670,691,710,731,749,770,790,810,829,849,869,890,910,932,949,971,990,1010,1029,1050,1070],"xSR":741.5,"ySR":469.95,"xT1":424.9,"yT1":0,"xT2":1058.1,"yT2":0,"toosoon":0,"cond_shown":"equaldotanddens","ratio_trial":750,"smaller_num":"3","larger_num":"4","correct_side":1,"subjID":"matiaslopez33","gender":"0","age":"9","school":"4"},{"start_time":1552328890639,"click_time":1552328891300,"finger_time":1552328891220,"fix_duration":256.4852970057976,"trial":22,"RT":581,"MT":80,"sideResp":1,"stimulus":"img/500/equaldotsize/L/8_Ratio_500_L_8_R_4.png","xmouse":[778,778,778,778,778,778,778,778,778,778,778,778,778,778,778,778,778,778,778,778,778,778,778,778,778,778,778,778,777,754,717,676,630,516],"ymouse":[510,510,510,510,510,510,510,510,510,510,510,510,510,510,510,510,510,510,510,510,510,510,510,510,510,510,510,510,490,450,386,311,231,46],"timestamp_mouse":[19,20,40,61,82,101,122,141,162,180,201,221,242,261,281,301,320,341,361,381,400,421,441,462,481,501,520,541,561,581,600,620,641,661],"xSR":741.5,"ySR":469.95,"xT1":424.9,"yT1":0,"xT2":1058.1,"yT2":0,"toosoon":0,"cond_shown":"equaldotsize","ratio_trial":500,"smaller_num":"4","larger_num":"8","correct_side":1,"subjID":"matiaslopez33","gender":"0","age":"9","school":"4"},{"start_time":1552328896052,"click_time":1552328897360,"finger_time":1552328896819,"fix_duration":771.228859413062,"trial":23,"RT":767,"MT":541,"sideResp":2,"stimulus":"img/750/randomdotsizeEA/L/8_Ratio_750_L_4_R_3.png","xmouse":[791,791,791,791,791,791,791,791,791,791,791,791,791,791,790,790,790,790,790,790,790,790,790,790,790,790,790,790,790,790,790,790,790,789,789,789,791,796,810,815,819,825,827,833,837,841,845,869,881,901,940,977,1020,1034,1039,1042,1043,1045,1053,1057,1064,1068,1071,1074,1077,1079],"ymouse":[500,500,500,500,500,500,500,500,500,500,500,500,500,500,499,499,499,499,499,499,499,499,499,499,499,499,499,499,499,499,499,499,499,498,498,494,486,473,453,443,438,427,422,408,396,380,362,319,304,283,253,225,186,171,163,160,158,154,144,138,125,117,109,105,100,96],"timestamp_mouse":[12,30,49,68,87,107,129,148,168,189,208,229,248,268,289,308,329,347,368,389,408,429,449,468,489,508,528,549,569,587,609,629,648,668,688,708,729,748,767,787,808,828,849,868,887,907,928,950,967,989,1007,1028,1049,1067,1088,1108,1127,1149,1168,1188,1208,1229,1249,1267,1287,1307],"xSR":741.5,"ySR":469.95,"xT1":424.9,"yT1":0,"xT2":1058.1,"yT2":0,"toosoon":0,"cond_shown":"randomdotsizeEA","ratio_trial":750,"smaller_num":"3","larger_num":"4","correct_side":1,"subjID":"matiaslopez33","gender":"0","age":"9","school":"4"},{"start_time":1552328904353,"click_time":1552328905360,"finger_time":1552328905020,"fix_duration":1331.1553757277932,"trial":24,"RT":667,"MT":340,"sideResp":2,"stimulus":"img/500/equaldotanddens/R/12_Ratio_500_L_1_R_2.png","xmouse":[785,785,785,785,785,785,785,785,785,785,785,785,785,785,785,785,785,785,785,785,785,785,785,785,785,785,785,785,789,798,814,818,840,878,902,934,973,998,1031,1036,1038,1040,1040,1040,1041,1041,1041,1043,1045,1055,1061],"ymouse":[515,515,515,515,515,515,515,515,515,515,515,515,515,515,515,515,515,515,515,515,515,515,515,515,515,515,515,515,514,513,508,506,495,425,385,339,286,252,195,170,152,138,131,128,119,113,107,100,92,77,70],"timestamp_mouse":[12,29,48,67,88,107,128,146,168,186,208,228,248,267,288,307,327,348,368,387,407,427,447,466,488,508,526,547,568,588,607,626,647,667,687,708,726,746,768,787,807,827,848,866,887,907,927,948,968,986,1006],"xSR":741.5,"ySR":469.95,"xT1":424.9,"yT1":0,"xT2":1058.1,"yT2":0,"toosoon":0,"cond_shown":"equaldotanddens","ratio_trial":500,"smaller_num":"1","larger_num":"2","correct_side":2,"subjID":"matiaslopez33","gender":"0","age":"9","school":"4"},{"start_time":1552328906512,"click_time":1552328907439,"finger_time":1552328907140,"fix_duration":250,"trial":25,"RT":628,"MT":299,"sideResp":1,"stimulus":"img/500/randomdotsizeEA/L/7_Ratio_500_L_10_R_5.png","xmouse":[819,819,819,819,819,819,819,819,819,817,817,817,817,816,816,816,816,816,816,816,816,816,816,816,816,816,814,811,807,798,791,771,737,715,696,686,675,671,668,662,655,629,617,601,581,536,512],"ymouse":[528,528,528,528,528,528,528,528,528,529,529,529,529,529,529,529,529,529,529,529,529,529,529,529,529,529,529,521,511,496,482,433,373,333,301,280,251,240,230,222,214,189,179,166,150,116,99],"timestamp_mouse":[22,40,47,67,87,107,129,147,167,189,209,228,249,267,287,308,328,349,368,389,409,429,449,468,488,508,529,549,568,588,607,628,648,668,687,707,728,748,768,787,809,828,848,868,888,910,927],"xSR":741.5,"ySR":469.95,"xT1":424.9,"yT1":0,"xT2":1058.1,"yT2":0,"toosoon":0,"cond_shown":"randomdotsizeEA","ratio_trial":500,"smaller_num":"5","larger_num":"10","correct_side":1,"subjID":"matiaslopez33","gender":"0","age":"9","school":"4"},{"start_time":1552328910501,"click_time":1552328911480,"finger_time":1552328911120,"fix_duration":518.0439140970996,"trial":26,"RT":619,"MT":360,"sideResp":1,"stimulus":"img/250/randomdotsizeEA/L/2_Ratio_250_L_16_R_4.png","xmouse":[795,795,795,795,795,795,795,795,795,795,795,795,795,795,795,795,795,795,795,795,795,795,795,795,795,795,795,794,791,786,770,707,678,657,657,657,657,657,657,536,539,539,539,538,538,538,531,526,523],"ymouse":[505,505,505,505,505,505,505,505,505,505,505,505,505,505,505,505,505,505,505,505,505,505,505,505,505,505,505,505,499,487,454,249,118,53,53,53,53,53,53,0,39,71,76,78,78,78,78,78,78],"timestamp_mouse":[19,39,59,80,98,119,138,159,180,200,219,239,260,279,299,319,339,359,379,400,420,438,460,478,499,520,538,559,580,598,619,640,659,678,698,720,738,758,779,800,819,839,859,879,898,919,939,959,979],"xSR":741.5,"ySR":469.95,"xT1":424.9,"yT1":0,"xT2":1058.1,"yT2":0,"toosoon":0,"cond_shown":"randomdotsizeEA","ratio_trial":250,"smaller_num":"4","larger_num":"16","correct_side":1,"subjID":"matiaslopez33","gender":"0","age":"9","school":"4"},{"start_time":1552328914331,"click_time":1552328915542,"finger_time":1552328915060,"fix_duration":250,"trial":27,"RT":729,"MT":482,"sideResp":2,"stimulus":"img/900/randomdotsizeEA/R/15_Ratio_900_L_9_R_10.png","xmouse":[792,792,792,792,792,792,792,792,792,792,792,792,792,792,792,792,792,792,792,792,792,792,792,792,792,792,792,792,792,792,792,792,792,795,810,828,898,936,979,997,1011,1012,1011,1005,1004,1004,1013,1021,1027,1029,1030,1033,1034,1035,1037,1043,1047,1052,1054,1057,1063],"ymouse":[475,478,480,484,487,490,490,490,490,490,490,490,490,490,490,490,490,490,490,490,490,490,490,490,490,490,490,490,490,490,490,490,491,490,486,481,432,398,360,339,294,271,239,211,188,172,151,140,129,124,122,117,116,114,111,102,98,91,87,82,75],"timestamp_mouse":[13,34,49,69,89,108,130,149,169,190,209,229,248,269,290,308,328,349,370,389,409,429,450,468,488,508,528,548,568,588,609,629,648,670,688,708,729,748,768,788,810,828,849,869,888,908,928,949,969,989,1008,1029,1049,1070,1090,1111,1128,1149,1168,1189,1210],"xSR":741.5,"ySR":469.95,"xT1":424.9,"yT1":0,"xT2":1058.1,"yT2":0,"toosoon":0,"cond_shown":"randomdotsizeEA","ratio_trial":900,"smaller_num":"9","larger_num":"10","correct_side":2,"subjID":"matiaslopez33","gender":"0","age":"9","school":"4"},{"start_time":1552328919310,"click_time":1552328920341,"finger_time":1552328919980,"fix_duration":250,"trial":28,"RT":670,"MT":361,"sideResp":2,"stimulus":"img/900/equaldotanddens/R/14_Ratio_900_L_18_R_20.png","xmouse":[794,794,794,794,794,794,794,794,794,794,794,794,794,794,794,794,794,794,794,794,794,794,794,794,794,794,794,794,794,794,794,793,793,793,799,809,827,878,897,912,925,933,945,951,956,964,977,1017,1037,1049,1058,1066],"ymouse":[515,515,515,515,515,515,515,515,515,515,515,515,515,515,515,515,515,515,515,515,515,515,515,515,515,515,515,515,515,515,515,508,484,468,450,435,420,377,358,335,313,292,260,248,240,229,213,154,124,101,81,64],"timestamp_mouse":[13,30,50,70,90,109,131,149,169,191,209,230,249,269,291,310,330,349,370,389,410,430,450,470,490,509,531,550,570,590,609,629,649,670,689,711,730,750,771,789,810,830,850,869,890,911,930,950,969,989,1010,1031],"xSR":741.5,"ySR":469.95,"xT1":424.9,"yT1":0,"xT2":1058.1,"yT2":0,"toosoon":0,"cond_shown":"equaldotanddens","ratio_trial":900,"smaller_num":"18","larger_num":"20","correct_side":2,"subjID":"matiaslopez33","gender":"0","age":"9","school":"4"},{"start_time":1552328924991,"click_time":1552328926819,"finger_time":1552328925679,"fix_duration":1327.8962732730404,"trial":29,"RT":688,"MT":1140,"sideResp":1,"stimulus":"img/900/equaldotsize/R/12_Ratio_900_L_18_R_20.png","xmouse":[779,779,779,779,779,779,779,779,779,779,779,779,779,779,779,779,779,779,779,779,779,779,779,779,779,779,779,779,779,779,783,795,812,837,888,913,945,976,1003,1040,1050,1052,1054,1054,1054,1054,1054,1054,1054,1054,1054,1054,1054,1053,1033,1010,982,949,921,894,891,891,891,891,902,915,930,945,960,978,980,980,980,980,968,936,868,779,678,580,576,575,575,575,573,571,570,569,567,548,534,518],"ymouse":[504,504,504,504,504,504,504,504,504,504,504,504,504,504,504,504,504,504,504,504,504,504,504,504,504,504,504,504,504,504,504,501,496,477,410,365,306,246,191,108,68,52,44,42,42,42,42,42,42,42,42,42,42,42,50,56,58,58,58,58,59,59,59,60,63,65,67,69,72,72,72,72,72,72,71,67,48,36,21,10,10,10,10,10,11,13,15,19,23,37,46,54],"timestamp_mouse":[13,31,48,69,89,108,129,150,168,189,210,228,249,269,288,310,329,348,368,390,409,429,449,468,488,509,530,548,568,589,608,630,650,668,688,709,729,750,768,788,808,829,850,870,888,908,929,949,968,988,1008,1029,1050,1069,1088,1110,1130,1148,1168,1189,1209,1229,1248,1268,1288,1309,1329,1350,1370,1388,1408,1429,1449,1469,1489,1509,1529,1550,1569,1589,1609,1629,1648,1669,1688,1709,1729,1750,1769,1789,1809,1828],"xSR":741.5,"ySR":469.95,"xT1":424.9,"yT1":0,"xT2":1058.1,"yT2":0,"toosoon":0,"cond_shown":"equaldotsize","ratio_trial":900,"smaller_num":"18","larger_num":"20","correct_side":2,"subjID":"matiaslopez33","gender":"0","age":"9","school":"4"},{"start_time":1552328929176,"click_time":1552328930241,"finger_time":1552328929879,"fix_duration":1296.9928969997786,"trial":30,"RT":703,"MT":362,"sideResp":2,"stimulus":"img/750/equaldotsize/R/2_Ratio_750_L_6_R_8.png","xmouse":[776,776,776,776,776,776,776,776,777,777,777,777,777,777,777,777,778,779,781,781,781,781,781,781,781,781,781,781,781,781,781,782,785,789,798,835,872,923,992,1057,1170,1180,1182,1182,1182,1182,1183,1185,1185,1185,1184,1174,1162,1150],"ymouse":[504,504,504,504,504,504,504,504,504,504,504,504,504,504,504,504,503,503,503,503,503,503,503,503,503,503,503,503,503,503,503,502,501,500,497,469,430,386,332,275,133,111,97,86,80,70,64,56,50,48,47,47,51,55],"timestamp_mouse":[4,24,43,63,83,104,125,143,164,184,204,225,245,263,284,303,323,343,363,383,404,423,443,465,484,504,523,543,563,583,604,623,644,664,683,703,724,744,763,784,804,823,844,865,883,905,923,945,963,984,1004,1023,1045,1065],"xSR":741.5,"ySR":469.95,"xT1":424.9,"yT1":0,"xT2":1058.1,"yT2":0,"toosoon":0,"cond_shown":"equaldotsize","ratio_trial":750,"smaller_num":"6","larger_num":"8","correct_side":2,"subjID":"matiaslopez33","gender":"0","age":"9","school":"4"},{"start_time":1552328932538,"click_time":1552328933479,"finger_time":1552328933099,"fix_duration":1096.270236803484,"trial":31,"RT":561,"MT":380,"sideResp":1,"stimulus":"img/900/randomdotsizeEA/R/13_Ratio_900_L_18_R_20.png","xmouse":[816,816,816,816,816,816,816,816,816,816,816,816,816,816,816,815,813,811,804,803,801,801,801,798,793,784,770,755,667,643,582,551,533,521,518,516,514,513,511,511,511,511,511,511,511,511,511,511],"ymouse":[535,535,535,535,535,535,535,535,535,535,535,535,535,535,535,535,535,534,529,528,527,527,527,527,523,516,506,491,374,339,239,191,157,124,116,110,107,104,101,101,101,101,101,101,101,101,100,94],"timestamp_mouse":[10,21,42,61,83,101,122,141,161,181,202,222,241,262,282,301,321,342,362,381,402,421,443,461,483,502,523,541,561,581,601,622,642,662,681,702,723,741,761,782,801,821,842,862,882,903,922,941],"xSR":741.5,"ySR":469.95,"xT1":424.9,"yT1":0,"xT2":1058.1,"yT2":0,"toosoon":0,"cond_shown":"randomdotsizeEA","ratio_trial":900,"smaller_num":"18","larger_num":"20","correct_side":2,"subjID":"matiaslopez33","gender":"0","age":"9","school":"4"},{"start_time":1552328936045,"click_time":1552328937019,"finger_time":1552328936700,"fix_duration":1484.7433458704995,"trial":32,"RT":655,"MT":319,"sideResp":1,"stimulus":"img/900/equaldotsize/R/12_Ratio_900_L_18_R_20.png","xmouse":[795,794,791,791,790,790,790,790,790,790,790,790,790,790,790,790,790,790,790,790,790,790,790,790,790,790,790,790,790,790,790,790,736,685,617,553,507,471,468,467,467,467,467,467,470,476,485,507,517],"ymouse":[493,494,495,495,496,496,496,496,496,496,496,496,496,496,496,496,496,496,496,496,496,496,496,496,496,496,496,496,496,496,494,485,409,354,294,241,200,163,152,147,145,144,144,144,140,136,129,110,98],"timestamp_mouse":[15,34,55,74,95,115,135,154,174,196,216,235,254,275,295,315,334,354,374,395,414,434,455,475,495,516,534,555,576,596,614,636,655,675,695,714,735,754,775,794,816,835,855,875,894,915,935,955,974],"xSR":741.5,"ySR":469.95,"xT1":424.9,"yT1":0,"xT2":1058.1,"yT2":0,"toosoon":0,"cond_shown":"equaldotsize","ratio_trial":900,"smaller_num":"18","larger_num":"20","correct_side":2,"subjID":"matiaslopez33","gender":"0","age":"9","school":"4"},{"start_time":1552328938493,"click_time":1552328940059,"finger_time":1552328939120,"fix_duration":250,"trial":33,"RT":627,"MT":939,"sideResp":2,"stimulus":"img/500/randomdotsizeEA/L/13_Ratio_500_L_12_R_6.png","xmouse":[759,759,759,759,759,759,759,759,759,759,759,759,759,759,761,761,766,767,769,778,781,781,781,781,781,781,781,781,781,781,782,783,787,792,799,825,852,888,899,934,975,991,1004,1012,1017,1026,1028,1030,1032,1032,1032,1032,1032,1032,1032,1032,1032,1032,1035,1036,1036,1036,1036,1036,1036,1036,1036,1036,1036,1036,1036,1036,1036,1039,1042,1054,1057,1058,1060],"ymouse":[481,481,481,481,481,481,481,481,481,481,481,481,481,481,481,481,481,481,481,474,472,472,472,472,472,472,472,472,472,472,470,464,457,445,429,378,340,292,277,236,190,167,135,105,86,67,60,55,52,51,51,51,51,51,51,51,51,51,51,50,50,50,50,50,50,50,50,50,50,50,50,50,50,50,51,53,53,53,52],"timestamp_mouse":[13,34,47,66,88,106,126,146,168,187,207,226,248,267,286,306,326,346,368,388,407,426,448,466,487,506,526,546,566,588,607,627,648,667,688,707,727,747,766,786,808,826,847,868,886,907,926,946,967,986,1007,1026,1046,1068,1087,1106,1126,1146,1166,1187,1208,1226,1248,1266,1286,1308,1326,1347,1367,1386,1408,1427,1448,1466,1487,1510,1527,1546,1566],"xSR":741.5,"ySR":469.95,"xT1":424.9,"yT1":0,"xT2":1058.1,"yT2":0,"toosoon":0,"cond_shown":"randomdotsizeEA","ratio_trial":500,"smaller_num":"6","larger_num":"12","correct_side":1,"subjID":"matiaslopez33","gender":"0","age":"9","school":"4"},{"start_time":1552328946004,"click_time":1552328946660,"finger_time":1552328946620,"fix_duration":1481.1539557922138,"trial":34,"RT":616,"MT":40,"sideResp":1,"stimulus":"img/250/equaldotsize/L/5_Ratio_250_L_24_R_6.png","xmouse":[776,776,776,776,776,776,776,776,776,776,776,776,776,776,776,776,776,776,776,776,776,776,776,776,776,776,776,776,776,772,662,585,505],"ymouse":[497,497,497,497,497,497,497,497,497,497,497,497,497,497,497,497,497,497,497,497,497,497,497,497,497,497,497,497,494,479,291,180,83],"timestamp_mouse":[16,37,55,75,95,116,135,155,176,195,215,236,255,276,297,316,336,355,376,397,416,435,456,477,497,516,537,555,575,595,616,635,655],"xSR":741.5,"ySR":469.95,"xT1":424.9,"yT1":0,"xT2":1058.1,"yT2":0,"toosoon":0,"cond_shown":"equaldotsize","ratio_trial":250,"smaller_num":"6","larger_num":"24","correct_side":1,"subjID":"matiaslopez33","gender":"0","age":"9","school":"4"},{"start_time":1552328952433,"click_time":1552328953499,"finger_time":1552328953100,"fix_duration":1112.9650552805497,"trial":35,"RT":667,"MT":399,"sideResp":1,"stimulus":"img/250/randomdotsizeEA/L/1_Ratio_250_L_8_R_2.png","xmouse":[803,803,805,805,805,805,805,805,805,805,805,805,805,805,805,805,805,805,805,805,805,805,805,804,804,804,804,804,804,804,804,804,804,803,801,748,685,604,531,488,479,479,481,484,488,491,492,495,497,499,499,503,503,503],"ymouse":[510,510,493,486,481,480,480,480,480,480,480,480,480,480,480,480,480,480,479,479,479,479,479,479,479,479,479,479,479,479,479,479,479,463,451,354,292,223,173,147,142,142,142,141,140,140,140,139,139,138,137,126,105,86],"timestamp_mouse":[11,27,47,66,87,107,128,147,167,186,208,227,246,267,286,307,327,347,367,387,406,427,448,466,487,506,528,547,567,588,608,626,646,667,686,707,727,746,768,788,807,826,847,867,887,906,927,946,968,988,1006,1028,1047,1066],"xSR":741.5,"ySR":469.95,"xT1":424.9,"yT1":0,"xT2":1058.1,"yT2":0,"toosoon":0,"cond_shown":"randomdotsizeEA","ratio_trial":250,"smaller_num":"2","larger_num":"8","correct_side":1,"subjID":"matiaslopez33","gender":"0","age":"9","school":"4"},{"start_time":1552328957366,"click_time":1552328958559,"finger_time":1552328958241,"fix_duration":1284.492081642258,"trial":36,"RT":875,"MT":318,"sideResp":2,"stimulus":"img/500/equaldotsize/R/15_Ratio_500_L_1_R_2.png","xmouse":[811,811,811,811,811,811,811,811,811,811,811,811,811,811,811,811,811,811,811,811,811,811,811,811,811,811,811,811,808,804,804,804,804,804,804,803,806,810,813,816,818,823,830,849,903,930,968,979,990,1002,1009,1014,1020,1033,1040,1045,1054,1061,1069,1094],"ymouse":[528,528,528,528,528,528,528,528,528,528,528,528,528,528,528,528,528,528,528,528,528,528,528,528,528,528,528,528,527,527,528,528,528,528,528,528,527,525,525,524,523,522,519,499,433,397,342,317,286,236,212,194,178,152,139,131,119,113,107,93],"timestamp_mouse":[16,35,53,75,94,114,133,153,174,194,214,233,254,273,294,315,334,353,375,393,414,433,454,475,495,513,533,553,575,595,613,634,654,674,694,714,734,754,775,793,813,834,853,875,893,914,934,954,973,993,1014,1034,1055,1076,1093,1115,1134,1153,1174,1193],"xSR":741.5,"ySR":469.95,"xT1":424.9,"yT1":0,"xT2":1058.1,"yT2":0,"toosoon":0,"cond_shown":"equaldotsize","ratio_trial":500,"smaller_num":"1","larger_num":"2","correct_side":2,"subjID":"matiaslopez33","gender":"0","age":"9","school":"4"},{"start_time":1552328961850,"click_time":1552328962861,"finger_time":1552328962519,"fix_duration":1227.4378892527889,"trial":37,"RT":669,"MT":342,"sideResp":2,"stimulus":"img/900/equaldotanddens/R/15_Ratio_900_L_9_R_10.png","xmouse":[779,779,779,779,779,779,779,779,779,779,779,779,779,779,779,779,778,777,777,776,775,775,775,775,775,775,775,775,775,775,775,783,796,813,832,880,900,919,936,951,984,998,1010,1021,1030,1046,1051,1058,1063,1066,1069],"ymouse":[519,519,519,519,519,519,519,519,519,519,519,519,519,519,519,519,519,518,518,518,517,517,517,517,517,517,517,517,517,517,516,506,487,467,445,403,385,369,356,344,311,294,281,266,251,216,197,174,151,128,84],"timestamp_mouse":[9,38,49,69,91,111,129,150,169,191,209,230,251,271,290,310,330,350,369,390,409,430,450,470,489,510,530,551,570,590,609,638,650,669,690,709,729,749,769,791,809,829,850,870,889,910,930,950,971,990,1011],"xSR":741.5,"ySR":469.95,"xT1":424.9,"yT1":0,"xT2":1058.1,"yT2":0,"toosoon":0,"cond_shown":"equaldotanddens","ratio_trial":900,"smaller_num":"9","larger_num":"10","correct_side":2,"subjID":"matiaslopez33","gender":"0","age":"9","school":"4"},{"start_time":1552328965611,"click_time":1552328966520,"finger_time":1552328965920,"fix_duration":250,"trial":38,"RT":309,"MT":600,"sideResp":1,"stimulus":"img/500/equaldotsize/L/13_Ratio_500_L_12_R_6.png","xmouse":[813,808,808,800,799,797,796,796,796,796,794,792,788,787,783,782,779,778,777,777,777,777,777,776,775,775,775,772,761,738,705,653,607,594,583,575,571,571,571,571,571,570,567,518,476,441],"ymouse":[536,541,541,554,556,558,560,561,561,561,562,563,566,567,569,570,572,572,573,573,573,573,573,573,573,573,573,572,552,510,449,344,239,213,191,178,171,170,170,170,170,170,170,137,106,75],"timestamp_mouse":[10,36,49,70,89,108,128,149,170,189,209,229,249,268,290,309,329,350,369,389,409,429,448,468,488,508,530,549,568,589,609,629,650,668,690,710,729,749,769,789,808,829,849,868,889,909],"xSR":741.5,"ySR":469.95,"xT1":424.9,"yT1":0,"xT2":1058.1,"yT2":0,"toosoon":0,"cond_shown":"equaldotsize","ratio_trial":500,"smaller_num":"6","larger_num":"12","correct_side":1,"subjID":"matiaslopez33","gender":"0","age":"9","school":"4"},{"start_time":1552328972036,"click_time":1552328972761,"finger_time":1552328972680,"fix_duration":616.5834688344422,"trial":39,"RT":644,"MT":81,"sideResp":1,"stimulus":"img/750/equaldotanddens/L/10_Ratio_750_L_4_R_3.png","xmouse":[787,787,787,787,787,787,786,786,786,786,786,786,786,786,786,786,786,786,786,786,786,785,783,781,778,777,774,772,771,771,771,770,749,708,640,560,438],"ymouse":[542,542,542,542,542,542,542,542,542,542,542,542,542,542,542,542,542,542,542,542,542,542,543,543,544,545,545,546,546,546,546,534,446,369,276,182,46],"timestamp_mouse":[13,24,43,63,85,103,124,143,163,184,204,223,244,264,283,304,323,343,363,384,404,423,444,463,483,505,524,544,564,583,605,623,644,665,683,703,724],"xSR":741.5,"ySR":469.95,"xT1":424.9,"yT1":0,"xT2":1058.1,"yT2":0,"toosoon":0,"cond_shown":"equaldotanddens","ratio_trial":750,"smaller_num":"3","larger_num":"4","correct_side":1,"subjID":"matiaslopez33","gender":"0","age":"9","school":"4"},{"start_time":1552328975369,"click_time":1552328976322,"finger_time":1552328975960,"fix_duration":1106.868401462649,"trial":40,"RT":591,"MT":362,"sideResp":2,"stimulus":"img/750/equaldotsize/R/5_Ratio_750_L_15_R_20.png","xmouse":[781,781,781,781,781,781,781,781,781,781,781,781,781,781,781,781,781,781,781,781,781,781,781,781,781,781,783,793,809,846,875,927,944,953,953,956,967,975,979,982,985,996,1001,1008,1021,1041,1053,1067],"ymouse":[534,534,534,534,534,534,534,534,534,534,534,534,534,534,534,534,534,534,534,534,534,534,534,534,534,534,534,530,525,493,449,356,304,251,213,180,146,126,120,115,113,110,109,107,103,96,94,91],"timestamp_mouse":[20,36,51,71,92,111,131,152,173,191,211,231,253,271,292,311,331,351,371,392,412,431,452,472,491,513,531,551,573,591,611,631,651,671,692,712,731,752,771,792,811,831,851,871,891,913,931,953],"xSR":741.5,"ySR":469.95,"xT1":424.9,"yT1":0,"xT2":1058.1,"yT2":0,"toosoon":0,"cond_shown":"equaldotsize","ratio_trial":750,"smaller_num":"15","larger_num":"20","correct_side":2,"subjID":"matiaslopez33","gender":"0","age":"9","school":"4"},{"start_time":1552328978112,"click_time":1552328979421,"finger_time":1552328979001,"fix_duration":709.429205957746,"trial":41,"RT":889,"MT":420,"sideResp":1,"stimulus":"img/900/randomdotsizeEA/L/1_Ratio_900_L_10_R_9.png","xmouse":[805,805,805,805,805,805,804,802,801,792,791,789,789,789,789,789,789,789,789,789,789,789,789,787,785,785,785,785,785,785,785,785,785,785,785,785,785,785,785,785,785,784,784,765,701,669,645,629,618,613,612,610,605,600,592,586,579,569,551,532,527,526,526,526,524,521],"ymouse":[563,563,563,563,563,563,563,563,563,565,565,566,566,566,566,566,566,566,566,566,566,566,566,567,567,567,567,567,567,567,567,567,567,567,567,567,567,567,567,567,567,567,552,489,375,328,293,268,247,237,236,235,233,232,228,222,213,199,174,144,134,127,124,121,111,99],"timestamp_mouse":[13,30,48,68,89,109,128,149,169,189,209,228,249,269,290,308,328,349,369,388,409,430,449,468,488,508,528,550,568,588,608,629,649,669,689,709,728,748,768,788,809,828,849,869,889,909,929,949,968,989,1008,1029,1049,1068,1089,1108,1129,1149,1168,1189,1208,1229,1249,1269,1288,1308],"xSR":741.5,"ySR":469.95,"xT1":424.9,"yT1":0,"xT2":1058.1,"yT2":0,"toosoon":0,"cond_shown":"randomdotsizeEA","ratio_trial":900,"smaller_num":"9","larger_num":"10","correct_side":1,"subjID":"matiaslopez33","gender":"0","age":"9","school":"4"},{"start_time":1552328981248,"click_time":1552328982401,"finger_time":1552328982041,"fix_duration":745.1031321219966,"trial":42,"RT":793,"MT":360,"sideResp":2,"stimulus":"img/750/randomdotsizeEA/R/15_Ratio_750_L_9_R_12.png","xmouse":[804,804,804,804,804,804,804,804,804,804,804,804,804,804,804,804,804,804,804,804,804,804,804,804,804,804,804,804,804,804,804,804,804,804,804,804,804,806,817,852,879,914,929,948,956,966,976,994,1005,1011,1016,1018,1019,1024,1032,1040,1051,1065],"ymouse":[516,516,516,516,516,516,516,516,516,516,516,516,516,516,516,516,516,516,516,516,516,516,516,516,516,516,516,516,516,516,516,516,516,516,516,516,516,516,511,469,424,372,348,314,301,284,268,239,223,207,193,184,182,170,153,134,113,80],"timestamp_mouse":[13,32,52,73,93,112,132,152,174,192,213,232,252,273,292,312,333,353,372,393,413,432,452,472,493,512,532,552,573,594,613,633,653,674,693,713,732,752,774,793,813,832,853,872,892,912,933,953,973,992,1012,1033,1053,1073,1092,1112,1132,1153],"xSR":741.5,"ySR":469.95,"xT1":424.9,"yT1":0,"xT2":1058.1,"yT2":0,"toosoon":0,"cond_shown":"randomdotsizeEA","ratio_trial":750,"smaller_num":"9","larger_num":"12","correct_side":2,"subjID":"matiaslopez33","gender":"0","age":"9","school":"4"},{"start_time":1552328984346,"click_time":1552328985041,"finger_time":1552328984981,"fix_duration":985.8941462459659,"trial":43,"RT":635,"MT":60,"sideResp":1,"stimulus":"img/250/equaldotsize/L/7_Ratio_250_L_8_R_2.png","xmouse":[803,803,803,803,803,803,803,803,803,803,803,803,803,803,803,803,803,803,803,803,803,803,803,803,803,803,803,803,803,801,783,722,650,541,519],"ymouse":[534,534,534,534,534,534,534,534,534,534,534,534,534,534,534,534,534,534,534,534,534,534,534,534,534,534,534,534,534,525,491,404,303,138,94],"timestamp_mouse":[15,34,55,74,94,114,134,155,176,195,215,235,256,275,295,314,336,354,374,394,415,434,456,476,495,515,535,556,575,594,615,635,655,674,695],"xSR":741.5,"ySR":469.95,"xT1":424.9,"yT1":0,"xT2":1058.1,"yT2":0,"toosoon":0,"cond_shown":"equaldotsize","ratio_trial":250,"smaller_num":"2","larger_num":"8","correct_side":1,"subjID":"matiaslopez33","gender":"0","age":"9","school":"4"},{"start_time":1552328986744,"click_time":1552328987620,"finger_time":1552328987320,"fix_duration":822.1192996610221,"trial":44,"RT":576,"MT":300,"sideResp":1,"stimulus":"img/250/equaldotanddens/L/15_Ratio_250_L_12_R_3.png","xmouse":[787,787,787,787,787,787,787,787,787,787,787,787,787,787,787,787,787,787,787,787,787,787,787,785,785,785,785,785,754,707,659,613,585,574,574,574,574,574,574,572,570,563,550,501],"ymouse":[493,493,493,493,493,493,493,493,493,493,493,493,493,493,493,493,493,493,493,493,493,493,493,494,494,494,494,476,388,310,239,181,151,137,137,137,137,137,136,136,136,132,121,85],"timestamp_mouse":[17,36,56,77,97,117,136,157,176,196,216,237,256,277,296,316,336,357,376,396,417,437,456,476,496,518,536,556,576,596,617,636,656,676,697,717,736,757,776,796,816,838,856,876],"xSR":741.5,"ySR":469.95,"xT1":424.9,"yT1":0,"xT2":1058.1,"yT2":0,"toosoon":0,"cond_shown":"equaldotanddens","ratio_trial":250,"smaller_num":"3","larger_num":"12","correct_side":1,"subjID":"matiaslopez33","gender":"0","age":"9","school":"4"},{"start_time":1552328989560,"click_time":1552328990621,"finger_time":1552328990241,"fix_duration":838.4034040651037,"trial":45,"RT":681,"MT":380,"sideResp":2,"stimulus":"img/900/randomdotsizeEA/L/10_Ratio_900_L_20_R_18.png","xmouse":[779,779,778,778,777,777,777,777,777,777,777,775,774,772,771,771,771,771,770,770,770,770,770,770,770,770,769,769,769,769,769,773,779,824,863,892,925,950,978,988,993,997,997,1000,1002,1005,1008,1011,1017,1036,1049,1063,1075,1087],"ymouse":[500,501,501,501,501,501,501,501,501,501,501,502,502,503,503,503,503,503,503,503,503,503,503,503,503,503,504,504,504,504,504,503,501,479,440,409,379,352,305,279,256,227,212,198,194,189,185,183,178,156,140,121,104,87],"timestamp_mouse":[4,24,45,61,80,100,121,140,160,181,200,220,241,261,280,300,320,342,361,380,400,420,440,460,480,501,520,541,560,582,600,620,641,660,681,700,721,740,760,780,801,822,842,861,880,901,920,940,961,980,1001,1022,1041,1061],"xSR":741.5,"ySR":469.95,"xT1":424.9,"yT1":0,"xT2":1058.1,"yT2":0,"toosoon":0,"cond_shown":"randomdotsizeEA","ratio_trial":900,"smaller_num":"18","larger_num":"20","correct_side":1,"subjID":"matiaslopez33","gender":"0","age":"9","school":"4"},{"start_time":1552328992038,"click_time":1552328992923,"finger_time":1552328992481,"fix_duration":676.5077301611683,"trial":46,"RT":443,"MT":442,"sideResp":1,"stimulus":"img/500/equaldotanddens/L/4_Ratio_500_L_18_R_9.png","xmouse":[804,804,804,804,804,804,804,804,804,804,804,804,804,804,804,803,802,802,801,792,782,771,757,741,720,710,701,689,679,670,635,609,579,554,537,537,538,541,541,541,541,541,541,538,517],"ymouse":[525,525,525,525,525,525,525,525,525,525,525,525,525,525,525,525,525,525,525,506,493,478,459,440,407,392,374,347,323,297,219,176,132,98,72,71,71,69,69,69,69,69,69,69,72],"timestamp_mouse":[12,29,43,62,83,103,122,143,163,183,203,222,242,262,282,302,323,342,362,384,403,422,443,464,484,503,523,543,562,582,602,622,642,662,684,702,723,742,763,782,802,822,842,862,884],"xSR":741.5,"ySR":469.95,"xT1":424.9,"yT1":0,"xT2":1058.1,"yT2":0,"toosoon":0,"cond_shown":"equaldotanddens","ratio_trial":500,"smaller_num":"9","larger_num":"18","correct_side":1,"subjID":"matiaslopez33","gender":"0","age":"9","school":"4"},{"start_time":1552328994211,"click_time":1552328995180,"finger_time":1552328994900,"fix_duration":668.2506602501785,"trial":47,"RT":689,"MT":280,"sideResp":2,"stimulus":"img/900/equaldotanddens/R/14_Ratio_900_L_18_R_20.png","xmouse":[769,770,772,772,772,773,773,773,773,773,773,773,773,773,774,775,777,777,777,777,777,777,777,777,777,776,775,775,775,776,777,789,800,821,892,954,1078,1173,1213,1234,1241,1244,1240,1236,1231,1225,1195,1162,1147],"ymouse":[521,521,521,521,521,521,521,521,521,521,521,521,521,521,521,521,521,521,521,521,521,521,521,521,521,521,521,521,521,521,520,517,514,504,451,403,323,256,217,186,163,122,100,85,72,59,30,14,11],"timestamp_mouse":[13,39,50,71,89,110,130,151,170,189,210,229,250,269,289,310,329,349,370,390,409,430,450,469,490,510,529,549,570,589,610,631,650,670,689,710,729,749,769,789,810,829,849,869,889,909,929,949,969],"xSR":741.5,"ySR":469.95,"xT1":424.9,"yT1":0,"xT2":1058.1,"yT2":0,"toosoon":0,"cond_shown":"equaldotanddens","ratio_trial":900,"smaller_num":"18","larger_num":"20","correct_side":2,"subjID":"matiaslopez33","gender":"0","age":"9","school":"4"},{"start_time":1552328998433,"click_time":1552328999141,"finger_time":1552328999060,"fix_duration":911.3353693152975,"trial":48,"RT":627,"MT":81,"sideResp":1,"stimulus":"img/750/randomdotsizeEA/L/14_Ratio_750_L_8_R_6.png","xmouse":[792,792,792,792,792,792,792,792,792,792,792,792,792,792,792,792,792,792,792,792,792,792,792,792,792,792,792,792,792,793,785,746,682,605,511,425],"ymouse":[517,517,517,517,517,517,517,517,517,517,517,517,517,517,517,517,517,517,517,517,517,517,517,517,517,517,517,517,517,516,486,415,335,246,138,22],"timestamp_mouse":[12,34,48,69,87,107,127,149,167,187,207,227,248,267,287,308,327,347,368,387,408,427,448,468,487,508,528,547,568,587,607,627,647,667,687,708],"xSR":741.5,"ySR":469.95,"xT1":424.9,"yT1":0,"xT2":1058.1,"yT2":0,"toosoon":0,"cond_shown":"randomdotsizeEA","ratio_trial":750,"smaller_num":"6","larger_num":"8","correct_side":1,"subjID":"matiaslopez33","gender":"0","age":"9","school":"4"},{"start_time":1552329004913,"click_time":1552329005842,"finger_time":1552329005582,"fix_duration":1150.5588070128301,"trial":49,"RT":669,"MT":260,"sideResp":2,"stimulus":"img/250/equaldotsize/R/13_Ratio_250_L_2_R_8.png","xmouse":[778,779,784,787,790,792,792,792,792,792,792,792,792,792,792,792,792,792,792,792,792,792,792,792,792,792,792,792,792,792,792,794,813,843,881,918,934,946,946,956,967,997,1040,1070,1104,1129,1141],"ymouse":[505,505,514,522,530,538,540,542,542,542,542,542,542,542,542,542,542,542,542,542,542,542,542,542,542,542,542,542,542,542,542,542,534,503,468,440,423,403,401,385,371,335,273,220,164,119,89],"timestamp_mouse":[13,32,47,67,88,108,127,147,168,188,208,227,248,267,287,307,327,347,368,388,407,427,447,467,488,509,528,547,568,587,607,628,647,669,688,707,727,747,767,787,808,827,848,867,887,908,928],"xSR":741.5,"ySR":469.95,"xT1":424.9,"yT1":0,"xT2":1058.1,"yT2":0,"toosoon":0,"cond_shown":"equaldotsize","ratio_trial":250,"smaller_num":"2","larger_num":"8","correct_side":2,"subjID":"matiaslopez33","gender":"0","age":"9","school":"4"},{"start_time":1552329013559,"click_time":1552329014701,"finger_time":1552329014200,"fix_duration":816.540017125782,"trial":50,"RT":641,"MT":501,"sideResp":1,"stimulus":"img/500/randomdotsizeEA/R/14_Ratio_500_L_5_R_10.png","xmouse":[789,789,792,795,797,799,801,802,802,803,804,807,812,815,817,818,820,821,822,823,824,824,824,824,824,824,824,824,824,824,824,811,790,760,725,691,658,655,652,645,638,616,610,606,603,596,578,569,563,558,552,538,535,533,530,530,528,523],"ymouse":[517,517,517,516,515,514,514,514,513,513,513,512,511,510,509,509,508,508,508,508,507,507,507,507,507,507,507,507,507,507,506,482,455,422,378,321,272,266,261,254,247,226,220,215,209,200,174,162,150,141,130,106,98,90,83,80,77,75],"timestamp_mouse":[15,31,42,61,82,101,122,143,161,181,202,221,242,261,281,301,321,341,361,381,402,422,441,462,482,502,521,541,561,581,601,621,641,662,681,701,721,741,762,781,801,821,841,862,882,901,921,941,961,982,1003,1021,1043,1061,1081,1102,1121,1142],"xSR":741.5,"ySR":469.95,"xT1":424.9,"yT1":0,"xT2":1058.1,"yT2":0,"toosoon":0,"cond_shown":"randomdotsizeEA","ratio_trial":500,"smaller_num":"5","larger_num":"10","correct_side":2,"subjID":"matiaslopez33","gender":"0","age":"9","school":"4"},{"start_time":1552329021852,"click_time":1552329023520,"finger_time":1552329022482,"fix_duration":250,"trial":51,"RT":630,"MT":1038,"sideResp":1,"stimulus":"img/750/equaldotanddens/L/6_Ratio_750_L_24_R_18.png","xmouse":[804,804,804,804,804,804,804,804,804,804,804,804,804,804,804,804,804,804,804,804,804,804,804,804,804,804,804,801,791,771,750,726,701,694,688,677,663,627,598,573,548,532,523,521,519,515,515,515,515,515,515,515,517,517,517,517,517,517,517,517,517,513,501,500,497,493,493,488,488,488,488,488,486,484,484,484,484,484,484,484,483,483,470,466],"ymouse":[519,519,519,519,519,519,519,519,519,519,519,519,519,519,519,519,519,519,519,519,519,519,519,519,519,519,519,519,519,503,479,439,368,347,334,324,318,308,299,290,280,270,262,254,239,217,216,216,216,216,216,216,214,212,210,210,210,210,206,206,204,195,176,174,168,162,161,156,155,155,155,155,153,147,145,145,143,142,142,142,139,136,106,97],"timestamp_mouse":[10,30,49,68,89,108,129,148,168,188,209,229,248,269,290,308,329,349,368,389,409,429,448,469,488,509,529,549,568,588,608,630,648,668,688,708,729,748,768,788,808,829,849,870,888,909,929,949,968,989,1008,1029,1048,1068,1088,1108,1129,1149,1168,1188,1209,1229,1249,1269,1288,1308,1328,1348,1368,1388,1408,1429,1448,1468,1488,1509,1528,1548,1569,1589,1609,1629,1648,1668],"xSR":741.5,"ySR":469.95,"xT1":424.9,"yT1":0,"xT2":1058.1,"yT2":0,"toosoon":0,"cond_shown":"equaldotanddens","ratio_trial":750,"smaller_num":"18","larger_num":"24","correct_side":1,"subjID":"matiaslopez33","gender":"0","age":"9","school":"4"},{"start_time":1552329026179,"click_time":1552329027680,"finger_time":1552329026761,"fix_duration":317.50796212731814,"trial":52,"RT":582,"MT":919,"sideResp":2,"stimulus":"img/900/equaldotanddens/R/14_Ratio_900_L_18_R_20.png","xmouse":[824,827,827,827,827,827,827,827,827,827,827,827,827,827,827,827,827,827,827,827,827,827,827,827,827,827,826,826,813,791,759,727,669,648,646,645,645,645,645,645,647,647,647,647,666,683,703,737,744,749,754,760,779,785,806,821,836,858,870,884,898,908,927,934,944,951,956,964,972,981,995,1022,1035,1045,1057,1062],"ymouse":[551,550,550,550,550,550,550,550,550,550,550,550,550,550,550,550,550,550,550,550,550,550,550,550,550,550,550,523,479,435,389,347,283,266,264,263,263,263,263,263,261,253,213,195,170,164,158,149,147,146,145,143,137,135,129,125,121,116,113,109,105,102,96,94,92,89,88,86,84,81,78,70,66,63,60,58],"timestamp_mouse":[2,22,42,61,81,102,122,142,161,182,202,222,242,262,283,302,322,341,361,382,403,422,441,462,482,501,522,541,562,582,601,622,641,661,681,702,723,742,762,782,801,821,842,861,882,902,921,941,961,981,1002,1023,1041,1062,1081,1102,1121,1141,1161,1182,1202,1223,1241,1261,1281,1302,1322,1341,1361,1382,1401,1422,1441,1462,1482,1501],"xSR":741.5,"ySR":469.95,"xT1":424.9,"yT1":0,"xT2":1058.1,"yT2":0,"toosoon":0,"cond_shown":"equaldotanddens","ratio_trial":900,"smaller_num":"18","larger_num":"20","correct_side":2,"subjID":"matiaslopez33","gender":"0","age":"9","school":"4"},{"start_time":1552329032461,"click_time":1552329033400,"finger_time":1552329033140,"fix_duration":1040.6180446277397,"trial":53,"RT":679,"MT":260,"sideResp":1,"stimulus":"img/750/equaldotsize/L/14_Ratio_750_L_8_R_6.png","xmouse":[771,772,772,772,772,772,772,772,772,772,772,772,772,772,772,772,772,772,772,772,772,772,772,772,772,772,772,772,772,772,772,772,772,774,767,759,738,717,699,681,664,641,616,575,561,544,518],"ymouse":[519,518,518,518,518,518,518,518,518,518,518,518,518,518,518,518,518,518,518,518,518,518,518,518,518,518,518,518,518,518,518,516,501,430,378,318,240,173,143,121,102,86,70,50,46,42,34],"timestamp_mouse":[20,39,59,79,99,119,139,159,180,199,219,239,259,279,299,321,339,359,379,399,419,439,459,479,499,519,539,559,580,599,620,639,659,679,699,719,740,760,779,799,820,839,859,879,899,919,939],"xSR":741.5,"ySR":469.95,"xT1":424.9,"yT1":0,"xT2":1058.1,"yT2":0,"toosoon":0,"cond_shown":"equaldotsize","ratio_trial":750,"smaller_num":"6","larger_num":"8","correct_side":1,"subjID":"matiaslopez33","gender":"0","age":"9","school":"4"},{"start_time":1552329036136,"click_time":1552329037022,"finger_time":1552329036640,"fix_duration":354.64707705629917,"trial":54,"RT":504,"MT":382,"sideResp":2,"stimulus":"img/250/equaldotsize/R/13_Ratio_250_L_2_R_8.png","xmouse":[812,813,814,815,817,817,817,817,817,817,817,817,817,817,817,817,817,817,817,817,818,818,819,825,831,857,888,915,947,980,1021,1031,1037,1038,1040,1047,1056,1064,1072,1086,1092,1102,1112,1122,1130],"ymouse":[535,535,534,534,533,533,533,533,533,533,533,533,533,533,533,533,533,533,533,533,533,532,531,529,527,515,477,443,406,368,313,295,279,273,269,259,250,240,228,208,200,177,152,119,51],"timestamp_mouse":[12,31,44,65,85,104,124,145,164,185,204,224,245,264,284,304,324,344,364,385,404,425,444,465,484,504,524,545,564,585,604,624,644,665,685,704,724,745,765,786,804,824,844,864,886],"xSR":741.5,"ySR":469.95,"xT1":424.9,"yT1":0,"xT2":1058.1,"yT2":0,"toosoon":0,"cond_shown":"equaldotsize","ratio_trial":250,"smaller_num":"2","larger_num":"8","correct_side":2,"subjID":"matiaslopez33","gender":"0","age":"9","school":"4"},{"start_time":1552329039599,"click_time":1552329040301,"finger_time":1552329040001,"fix_duration":1477.9673468806263,"trial":55,"RT":402,"MT":300,"sideResp":1,"stimulus":"img/250/randomdotsizeEA/L/2_Ratio_250_L_16_R_4.png","xmouse":[819,809,802,802,802,802,802,799,797,796,796,796,796,795,795,795,794,780,765,746,716,688,653,649,649,649,649,649,649,649,645,630,571,539,507,486],"ymouse":[560,563,564,564,564,564,564,565,566,566,566,566,566,566,566,566,566,549,530,504,471,439,400,396,396,396,396,396,396,393,373,338,225,167,123,92],"timestamp_mouse":[1,29,41,62,81,100,121,141,162,182,201,221,242,261,282,302,321,341,361,381,402,421,441,460,482,502,521,541,561,582,602,621,641,661,681,702],"xSR":741.5,"ySR":469.95,"xT1":424.9,"yT1":0,"xT2":1058.1,"yT2":0,"toosoon":0,"cond_shown":"randomdotsizeEA","ratio_trial":250,"smaller_num":"4","larger_num":"16","correct_side":1,"subjID":"matiaslopez33","gender":"0","age":"9","school":"4"},{"start_time":1552329041882,"click_time":1552329043342,"finger_time":1552329042321,"fix_duration":460.5155387944238,"trial":56,"RT":439,"MT":1021,"sideResp":1,"stimulus":"img/900/randomdotsizeEA/L/8_Ratio_900_L_20_R_18.png","xmouse":[753,753,756,756,757,757,757,758,759,759,759,759,759,760,761,762,763,765,769,771,775,786,793,794,794,794,794,787,785,783,779,772,753,748,747,747,747,750,751,751,751,748,705,673,629,586,555,530,526,521,512,505,499,498,498,500,508,518,519,519,519,519,519,519,519,517,515,512,508,507,507,507,504],"ymouse":[493,493,492,492,492,492,492,492,492,492,492,492,492,492,491,491,491,490,487,486,482,459,443,438,436,436,436,434,433,431,424,405,359,334,321,313,309,302,300,298,296,287,256,237,216,199,187,180,179,178,171,166,162,160,157,150,139,123,122,122,122,122,122,122,121,120,119,116,110,109,105,102,93],"timestamp_mouse":[29,38,58,78,97,119,138,158,178,199,219,238,258,278,298,319,338,358,379,397,418,439,458,478,498,519,539,559,578,598,618,639,659,677,698,718,738,758,778,798,819,837,859,878,898,918,939,959,978,999,1018,1038,1059,1078,1099,1119,1139,1159,1178,1198,1218,1238,1258,1278,1298,1319,1338,1358,1379,1399,1417,1438,1459],"xSR":741.5,"ySR":469.95,"xT1":424.9,"yT1":0,"xT2":1058.1,"yT2":0,"toosoon":0,"cond_shown":"randomdotsizeEA","ratio_trial":900,"smaller_num":"18","larger_num":"20","correct_side":1,"subjID":"matiaslopez33","gender":"0","age":"9","school":"4"},{"start_time":1552329044493,"click_time":1552329045542,"finger_time":1552329045200,"fix_duration":250,"trial":57,"RT":707,"MT":342,"sideResp":1,"stimulus":"img/900/equaldotanddens/L/4_Ratio_900_L_20_R_18.png","xmouse":[762,762,762,762,762,762,762,762,762,762,762,762,762,762,762,762,762,762,762,762,762,762,762,762,762,762,762,762,763,763,763,763,763,763,756,725,679,595,575,568,567,566,563,559,550,541,529,520,509,504,503,503,491],"ymouse":[532,532,532,532,532,532,532,532,532,532,532,532,532,532,532,532,532,532,532,532,532,532,532,532,532,532,532,532,532,532,532,532,532,527,490,442,383,282,256,242,234,231,225,219,205,187,167,150,126,116,114,113,99],"timestamp_mouse":[21,28,47,67,87,107,127,147,168,188,206,228,247,268,287,307,327,347,367,387,408,427,448,467,487,508,527,548,567,587,608,627,648,667,687,707,728,749,767,788,807,827,849,867,887,907,927,947,967,987,1007,1028,1049],"xSR":741.5,"ySR":469.95,"xT1":424.9,"yT1":0,"xT2":1058.1,"yT2":0,"toosoon":0,"cond_shown":"equaldotanddens","ratio_trial":900,"smaller_num":"18","larger_num":"20","correct_side":1,"subjID":"matiaslopez33","gender":"0","age":"9","school":"4"},{"start_time":1552329047427,"click_time":1552329048580,"finger_time":1552329048220,"fix_duration":826.2426659815391,"trial":58,"RT":793,"MT":360,"sideResp":2,"stimulus":"img/900/equaldotsize/R/13_Ratio_900_L_18_R_20.png","xmouse":[750,750,750,750,750,750,750,750,750,750,749,749,749,749,749,749,749,749,749,749,749,749,749,749,749,749,749,749,749,749,751,761,769,778,784,789,797,801,815,843,874,1011,1054,1064,1081,1093,1104,1105,1105,1105,1105,1105,1105,1105,1105,1105,1101,1084],"ymouse":[502,502,502,502,502,502,502,502,502,502,502,502,502,502,502,502,502,502,502,502,502,502,502,502,502,502,502,502,502,502,502,499,498,495,493,492,490,488,477,450,427,290,240,225,201,180,154,150,149,149,149,149,149,149,149,147,102,60],"timestamp_mouse":[13,33,54,73,93,113,134,154,173,193,213,233,254,274,293,313,333,352,373,394,413,434,454,475,493,512,533,554,573,594,613,634,654,674,693,713,733,754,772,793,814,833,853,873,894,913,933,953,974,993,1013,1033,1054,1073,1093,1114,1133,1152],"xSR":741.5,"ySR":469.95,"xT1":424.9,"yT1":0,"xT2":1058.1,"yT2":0,"toosoon":0,"cond_shown":"equaldotsize","ratio_trial":900,"smaller_num":"18","larger_num":"20","correct_side":2,"subjID":"matiaslopez33","gender":"0","age":"9","school":"4"},{"start_time":1552329051905,"click_time":1552329052961,"finger_time":1552329052560,"fix_duration":1282.9076239567733,"trial":59,"RT":655,"MT":401,"sideResp":1,"stimulus":"img/500/randomdotsizeEA/L/11_Ratio_500_L_12_R_6.png","xmouse":[789,789,789,789,789,789,789,789,789,789,789,789,789,789,789,789,789,789,789,789,789,788,787,787,787,787,787,787,786,785,782,774,738,722,711,705,703,660,599,528,434,291,291,291,291,291,291,291,291,313,364,408,437],"ymouse":[517,517,517,517,517,517,517,517,517,517,517,517,517,517,517,517,517,518,518,518,518,518,518,518,518,518,518,518,518,518,518,511,470,452,436,426,419,361,286,208,128,5,5,5,5,5,5,5,5,29,63,86,97],"timestamp_mouse":[16,35,55,75,95,117,136,156,176,196,215,236,255,275,296,316,336,356,375,394,416,435,456,475,495,516,535,556,576,595,615,635,655,674,695,715,735,757,775,796,815,835,855,876,895,915,935,956,975,995,1016,1035,1056],"xSR":741.5,"ySR":469.95,"xT1":424.9,"yT1":0,"xT2":1058.1,"yT2":0,"toosoon":0,"cond_shown":"randomdotsizeEA","ratio_trial":500,"smaller_num":"6","larger_num":"12","correct_side":1,"subjID":"matiaslopez33","gender":"0","age":"9","school":"4"},{"start_time":1552329055144,"click_time":1552329056200,"finger_time":1552329055980,"fix_duration":801.2464414173551,"trial":60,"RT":836,"MT":220,"sideResp":2,"stimulus":"img/750/equaldotsize/R/7_Ratio_750_L_3_R_4.png","xmouse":[795,795,795,795,795,795,795,795,795,794,794,794,794,794,794,794,794,794,794,794,794,794,794,794,794,794,794,794,794,794,794,794,794,794,794,794,794,798,807,825,835,872,880,890,898,909,935,955,974,996,1016,1067,1079],"ymouse":[557,557,557,557,557,557,557,557,557,557,557,557,557,557,557,557,557,557,557,557,557,557,557,557,557,557,557,557,557,557,557,557,557,557,557,557,557,557,554,523,499,412,390,369,350,331,292,269,241,210,184,111,91],"timestamp_mouse":[16,36,56,76,96,117,136,156,176,197,217,236,256,276,297,316,336,357,376,396,417,437,457,476,496,516,537,555,577,597,616,636,656,676,697,717,737,756,776,797,816,836,856,876,896,917,936,956,977,996,1016,1036,1056],"xSR":741.5,"ySR":469.95,"xT1":424.9,"yT1":0,"xT2":1058.1,"yT2":0,"toosoon":0,"cond_shown":"equaldotsize","ratio_trial":750,"smaller_num":"3","larger_num":"4","correct_side":2,"subjID":"matiaslopez33","gender":"0","age":"9","school":"4"},{"start_time":1552329060193,"click_time":1552329064100,"finger_time":1552329064040,"fix_duration":250,"trial":61,"RT":3847,"MT":60,"sideResp":1,"stimulus":"img/750/randomdotsizeEA/R/7_Ratio_750_L_3_R_4.png","xmouse":[766,766,766,766,766,766,766,766,766,766,766,766,766,766,766,766,766,766,766,766,766,766,766,766,766,766,766,766,766,766,766,766,766,766,766,766,766,766,767,768,771,774,776,779,783,785,787,788,788,788,788,788,788,788,788,788,788,788,788,788,788,788,788,788,788,788,788,788,788,788,788,788,788,788,788,788,788,788,788,788,788,788,788,788,788,788,788,788,788,788,788,788,788,788,788,788,788,788,788,788,788,788,788,788,788,788,788,788,788,788,788,788,788,788,788,788,788,788,788,788,788,788,788,788,788,788,788,788,788,788,788,788,788,788,788,788,788,788,788,788,788,788,788,788,788,788,788,788,788,788,788,788,788,788,788,788,788,788,788,788,788,788,788,788,788,788,788,788,788,788,788,788,788,788,788,788,788,788,788,788,788,788,788,788,788,788,788,788,788,787,787,790,783,752,698,518],"ymouse":[543,543,543,543,543,543,543,543,543,543,543,543,543,543,543,543,543,543,543,543,543,543,543,543,543,543,543,543,543,543,543,543,543,543,543,543,543,543,543,543,542,541,540,540,538,538,537,537,537,537,537,537,537,536,536,536,536,536,536,536,536,536,536,536,536,536,536,536,536,536,536,536,536,536,536,536,536,536,536,536,536,536,536,536,536,536,536,536,536,536,536,536,536,536,536,536,536,536,536,536,536,536,536,536,536,536,536,536,536,536,536,536,536,536,536,536,536,536,536,536,536,536,536,536,536,536,536,536,536,536,536,536,536,536,536,536,536,536,536,536,536,536,536,536,536,536,536,536,536,536,536,536,536,536,536,536,536,536,536,536,536,536,536,536,536,536,536,536,536,536,536,536,536,536,536,536,536,536,536,536,536,536,536,536,536,536,536,536,536,536,535,493,427,355,274,99],"timestamp_mouse":[13,31,47,67,87,107,128,148,167,187,207,228,247,267,288,307,328,347,368,388,407,427,448,468,488,508,528,547,568,588,608,627,648,668,688,708,727,748,768,787,807,827,848,867,887,908,927,948,967,988,1008,1028,1048,1068,1087,1108,1127,1148,1167,1188,1207,1228,1246,1268,1288,1307,1328,1347,1368,1387,1408,1427,1447,1468,1487,1508,1527,1548,1566,1588,1608,1627,1648,1668,1688,1707,1727,1748,1768,1788,1808,1828,1847,1868,1888,1907,1928,1947,1967,1986,2008,2027,2048,2067,2088,2108,2128,2147,2168,2187,2206,2228,2248,2267,2288,2307,2328,2348,2368,2387,2408,2427,2448,2468,2487,2507,2527,2547,2568,2588,2608,2628,2648,2668,2688,2707,2728,2747,2767,2788,2807,2827,2847,2867,2888,2908,2927,2948,2967,2988,3007,3028,3047,3067,3087,3108,3127,3148,3167,3188,3208,3228,3248,3268,3288,3307,3327,3346,3368,3387,3408,3427,3448,3468,3487,3507,3527,3548,3568,3588,3608,3627,3648,3667,3688,3708,3727,3748,3767,3786,3808,3827,3847,3868,3887,3907],"xSR":741.5,"ySR":469.95,"xT1":424.9,"yT1":0,"xT2":1058.1,"yT2":0,"toosoon":0,"cond_shown":"randomdotsizeEA","ratio_trial":750,"smaller_num":"3","larger_num":"4","correct_side":2,"subjID":"matiaslopez33","gender":"0","age":"9","school":"4"},{"start_time":1552329067852,"click_time":1552329068901,"finger_time":1552329068500,"fix_duration":250,"trial":62,"RT":648,"MT":401,"sideResp":2,"stimulus":"img/750/randomdotsizeEA/L/1_Ratio_750_L_20_R_15.png","xmouse":[780,780,780,780,780,780,780,780,780,780,780,780,780,780,780,780,780,780,780,780,780,780,780,780,780,780,780,780,780,780,782,790,854,917,952,987,1023,1077,1089,1101,1118,1123,1124,1124,1124,1124,1124,1117,1109,1098,1085,1082,1074],"ymouse":[558,558,558,558,558,558,558,558,558,558,558,558,558,558,558,558,558,558,558,558,558,558,558,558,558,558,558,558,558,558,558,558,533,471,429,391,343,261,236,207,165,146,122,120,120,120,120,119,118,112,103,100,79],"timestamp_mouse":[12,28,49,68,88,109,128,148,169,188,208,229,247,268,288,308,329,348,368,389,409,428,448,468,489,507,528,548,569,589,608,628,648,668,688,708,728,750,768,787,808,828,848,867,888,908,928,949,968,988,1008,1028,1049],"xSR":741.5,"ySR":469.95,"xT1":424.9,"yT1":0,"xT2":1058.1,"yT2":0,"toosoon":0,"cond_shown":"randomdotsizeEA","ratio_trial":750,"smaller_num":"15","larger_num":"20","correct_side":1,"subjID":"matiaslopez33","gender":"0","age":"9","school":"4"},{"start_time":1552329072869,"click_time":1552329074001,"finger_time":1552329073301,"fix_duration":1248.0638016837256,"trial":63,"RT":432,"MT":700,"sideResp":1,"stimulus":"img/250/equaldotanddens/L/15_Ratio_250_L_12_R_3.png","xmouse":[774,774,774,775,775,775,776,776,776,776,776,776,776,776,776,776,776,776,776,774,763,749,706,692,685,685,685,685,685,684,684,684,675,662,640,613,580,530,525,524,525,525,527,527,528,531,531,531,530,530,530,530,530,530,530,527,523],"ymouse":[532,532,532,532,532,532,532,532,532,532,532,532,532,532,532,532,532,532,531,517,493,462,392,373,366,365,365,365,365,365,365,365,358,346,319,287,245,178,168,166,164,164,164,164,163,157,148,114,101,94,88,85,79,78,78,77,76],"timestamp_mouse":[12,30,51,72,92,111,131,152,171,191,211,232,251,271,292,311,331,351,371,392,410,432,452,471,491,512,531,552,571,591,612,631,651,671,692,712,732,751,771,791,812,832,851,872,892,912,931,951,971,992,1012,1031,1052,1071,1091,1111,1132],"xSR":741.5,"ySR":469.95,"xT1":424.9,"yT1":0,"xT2":1058.1,"yT2":0,"toosoon":0,"cond_shown":"equaldotanddens","ratio_trial":250,"smaller_num":"3","larger_num":"12","correct_side":1,"subjID":"matiaslopez33","gender":"0","age":"9","school":"4"},{"start_time":1552329075511,"click_time":1552329076921,"finger_time":1552329076201,"fix_duration":689.2009003792558,"trial":64,"RT":690,"MT":720,"sideResp":1,"stimulus":"img/500/equaldotsize/L/10_Ratio_500_L_4_R_2.png","xmouse":[782,782,782,782,782,782,782,782,782,782,782,782,782,782,782,782,782,782,782,782,782,782,782,782,782,780,780,779,779,779,779,787,794,826,853,869,872,873,873,873,874,874,874,875,882,890,891,891,891,891,875,832,768,699,599,535,532,533,543,550,546,537,530,529,529,529,529,529,529,528,517],"ymouse":[538,538,538,538,538,538,538,538,538,538,538,538,538,538,538,538,538,538,538,538,538,538,538,538,538,538,538,539,539,539,539,538,535,508,483,466,461,459,456,454,453,453,453,447,436,425,424,424,424,424,423,410,384,346,281,220,202,182,164,141,100,84,77,76,76,76,76,76,76,76,73],"timestamp_mouse":[28,29,49,69,89,109,129,150,169,190,209,230,250,269,289,310,329,349,369,390,409,430,449,470,489,509,529,550,570,589,609,629,650,670,690,709,729,749,769,789,809,829,849,870,889,910,929,949,969,990,1009,1029,1049,1070,1090,1110,1129,1150,1169,1189,1209,1228,1250,1270,1289,1310,1329,1349,1369,1389,1410],"xSR":741.5,"ySR":469.95,"xT1":424.9,"yT1":0,"xT2":1058.1,"yT2":0,"toosoon":0,"cond_shown":"equaldotsize","ratio_trial":500,"smaller_num":"2","larger_num":"4","correct_side":1,"subjID":"matiaslopez33","gender":"0","age":"9","school":"4"},{"start_time":1552329078505,"click_time":1552329079540,"finger_time":1552329079221,"fix_duration":923.3281442746513,"trial":65,"RT":716,"MT":319,"sideResp":2,"stimulus":"img/750/equaldotanddens/R/15_Ratio_750_L_9_R_12.png","xmouse":[763,761,761,761,761,761,761,761,761,761,761,761,761,761,761,761,761,761,761,761,761,761,761,761,761,761,761,761,761,761,761,761,761,765,772,807,826,857,891,919,942,968,976,992,1004,1030,1048,1066,1077,1085,1092,1095],"ymouse":[512,511,511,511,511,511,511,511,511,511,511,511,511,511,511,511,511,511,511,511,511,511,511,511,511,511,511,511,511,511,511,511,511,509,508,458,435,397,361,331,305,272,258,236,220,186,162,142,126,113,101,96],"timestamp_mouse":[18,38,55,75,95,115,135,155,176,195,215,235,255,275,295,316,336,355,375,395,415,436,455,476,496,515,534,555,575,596,615,636,655,676,696,716,735,755,775,795,817,835,855,875,895,916,935,955,976,996,1017,1035],"xSR":741.5,"ySR":469.95,"xT1":424.9,"yT1":0,"xT2":1058.1,"yT2":0,"toosoon":0,"cond_shown":"equaldotanddens","ratio_trial":750,"smaller_num":"9","larger_num":"12","correct_side":2,"subjID":"matiaslopez33","gender":"0","age":"9","school":"4"},{"start_time":1552329082015,"click_time":1552329083320,"finger_time":1552329082640,"fix_duration":1374.6308702289884,"trial":66,"RT":625,"MT":680,"sideResp":2,"stimulus":"img/250/equaldotanddens/R/4_Ratio_250_L_3_R_12.png","xmouse":[802,802,802,802,802,802,802,802,802,802,802,802,802,802,802,802,802,802,802,802,802,802,802,802,802,802,802,802,802,807,813,851,873,896,942,981,1034,1043,1048,1049,1050,1050,1049,1042,1035,1028,1020,1020,1022,1023,1025,1026,1026,1027,1028,1030,1031,1033,1034,1035,1036,1041,1044,1049,1054,1060],"ymouse":[549,549,549,549,549,549,549,549,549,549,549,549,549,549,549,549,549,549,549,549,549,549,549,549,549,549,549,549,549,549,548,537,531,523,480,428,349,329,312,296,283,251,233,207,182,151,90,75,66,63,61,61,61,60,60,60,60,60,60,60,59,58,58,56,55,52],"timestamp_mouse":[6,25,45,65,86,106,125,146,165,184,205,225,246,266,285,306,325,345,365,385,406,426,445,465,484,506,526,544,566,585,605,625,645,665,686,706,725,745,765,785,805,826,846,865,886,906,925,946,965,986,1005,1025,1045,1066,1085,1105,1125,1146,1165,1185,1206,1225,1246,1265,1286,1305],"xSR":741.5,"ySR":469.95,"xT1":424.9,"yT1":0,"xT2":1058.1,"yT2":0,"toosoon":0,"cond_shown":"equaldotanddens","ratio_trial":250,"smaller_num":"3","larger_num":"12","correct_side":2,"subjID":"matiaslopez33","gender":"0","age":"9","school":"4"},{"start_time":1552329088559,"click_time":1552329089400,"finger_time":1552329089221,"fix_duration":1416.7858111382839,"trial":67,"RT":662,"MT":179,"sideResp":2,"stimulus":"img/500/equaldotanddens/R/15_Ratio_500_L_1_R_2.png","xmouse":[790,790,790,790,790,790,790,790,790,790,790,790,790,790,790,790,790,790,790,790,790,790,790,790,790,790,790,790,790,790,790,801,821,848,903,992,1041,1062,1074,1086,1114,1127,1134],"ymouse":[502,502,502,502,502,502,502,502,502,502,502,502,502,502,502,502,502,502,502,502,502,502,502,502,502,502,502,502,502,502,502,502,497,484,435,346,292,262,241,212,144,112,87],"timestamp_mouse":[9,29,41,61,82,101,120,142,162,181,202,221,241,262,282,301,322,342,361,381,401,422,441,461,481,502,521,542,562,582,602,622,641,662,683,701,721,741,761,781,801,822,841],"xSR":741.5,"ySR":469.95,"xT1":424.9,"yT1":0,"xT2":1058.1,"yT2":0,"toosoon":0,"cond_shown":"equaldotanddens","ratio_trial":500,"smaller_num":"1","larger_num":"2","correct_side":2,"subjID":"matiaslopez33","gender":"0","age":"9","school":"4"},{"start_time":1552329091265,"click_time":1552329092260,"finger_time":1552329091860,"fix_duration":283.06391865477684,"trial":68,"RT":595,"MT":400,"sideResp":1,"stimulus":"img/250/equaldotsize/L/15_Ratio_250_L_12_R_3.png","xmouse":[814,814,814,814,814,814,814,814,814,814,814,814,814,814,814,814,814,814,814,814,814,814,814,814,814,814,814,810,796,732,706,686,676,671,664,660,651,642,633,622,612,598,586,578,565,563,554,542,524,495],"ymouse":[558,558,558,558,558,558,558,558,558,558,558,558,558,558,558,558,558,558,558,558,558,558,558,558,558,558,558,544,516,394,349,312,295,285,275,269,260,246,234,221,207,191,175,163,144,139,132,121,107,87],"timestamp_mouse":[16,38,55,75,96,116,135,156,175,194,215,235,256,276,295,316,335,356,375,395,416,436,456,475,495,516,536,554,575,595,616,635,655,675,695,717,735,755,775,795,815,835,856,876,895,915,935,956,975,995],"xSR":741.5,"ySR":469.95,"xT1":424.9,"yT1":0,"xT2":1058.1,"yT2":0,"toosoon":0,"cond_shown":"equaldotsize","ratio_trial":250,"smaller_num":"3","larger_num":"12","correct_side":1,"subjID":"matiaslopez33","gender":"0","age":"9","school":"4"},{"start_time":1552329094838,"click_time":1552329095641,"finger_time":1552329095381,"fix_duration":1214.0257461221488,"trial":69,"RT":543,"MT":260,"sideResp":2,"stimulus":"img/250/equaldotsize/R/13_Ratio_250_L_2_R_8.png","xmouse":[788,788,788,788,788,788,788,788,788,788,788,788,788,788,788,788,788,788,788,784,780,779,778,778,780,783,804,823,850,921,984,1086,1115,1135,1144,1148,1149,1149,1148,1146,1144],"ymouse":[529,529,529,529,529,529,529,529,529,529,529,529,529,529,529,529,529,525,518,506,491,486,482,482,480,479,472,455,431,378,333,251,220,194,175,157,130,120,113,102,99],"timestamp_mouse":[19,34,42,62,82,103,121,142,162,182,203,222,242,263,282,302,322,343,362,382,403,422,442,463,483,502,522,543,562,582,602,622,643,662,682,701,724,742,762,782,803],"xSR":741.5,"ySR":469.95,"xT1":424.9,"yT1":0,"xT2":1058.1,"yT2":0,"toosoon":0,"cond_shown":"equaldotsize","ratio_trial":250,"smaller_num":"2","larger_num":"8","correct_side":2,"subjID":"matiaslopez33","gender":"0","age":"9","school":"4"},{"start_time":1552329097677,"click_time":1552329098541,"finger_time":1552329098080,"fix_duration":1154.8886111035908,"trial":70,"RT":403,"MT":461,"sideResp":2,"stimulus":"img/500/equaldotsize/R/1_Ratio_500_L_9_R_18.png","xmouse":[803,803,803,803,803,803,803,803,803,803,803,803,803,803,