[{"start_time":1552327765390,"click_time":1552327770018,"finger_time":1552327765400,"fix_duration":806.1278917941538,"trial":0,"RT":10,"MT":4618,"sideResp":2,"stimulus":[],"xmouse":[791,791,791,791,791,791,791,791,796,798,800,801,803,804,805,807,808,808,807,800,789,783,781,781,781,780,780,780,780,779,778,774,770,766,757,746,727,687,659,646,638,634,632,631,630,630,630,630,630,629,626,607,521,464,413,390,371,360,360,360,360,360,372,383,395,398,419,446,449,450,450,450,450,450,450,450,450,443,441,440,440,440,440,441,445,458,512,576,605,639,658,668,673,675,677,681,685,695,699,705,712,718,726,733,740,745,746,746,747,750,752,755,764,770,775,777,778,783,784,785,787,787,787,787,787,787,787,787,787,787,787,787,787,787,787,787,787,787,787,787,787,787,787,790,795,808,824,850,858,862,863,863,863,863,862,858,852,837,831,829,829,829,829,829,827,824,821,817,817,817,817,817,817,817,817,817,817,817,817,817,817,817,817,817,816,816,815,815,813,813,813,813,821,829,839,851,868,959,1019,1073,1115,1147,1263,1351,1456,1561,1561,1561,1561,1573,1549,1537,1524,1519,1510,1497,1472,1466,1445,1444,1444,1444,1444,1436,1407,1324,1293,1193,1177,1171,1161,1151],"ymouse":[533,533,533,533,532,531,525,519,504,497,492,489,484,482,478,474,472,471,471,473,478,480,481,481,481,481,480,479,479,479,479,479,479,479,479,475,464,436,406,388,375,367,353,351,349,349,349,349,349,349,347,342,317,299,281,268,259,252,252,252,252,252,250,249,249,249,249,251,251,251,251,251,250,248,246,243,240,230,228,227,227,227,227,227,228,241,286,337,365,394,413,426,438,441,442,446,450,466,477,498,526,559,622,649,667,677,678,678,678,678,675,671,658,648,642,640,639,633,632,631,630,630,630,630,630,630,630,630,630,630,630,630,630,630,630,630,630,630,630,630,630,630,630,626,619,600,580,542,526,512,508,507,506,505,505,507,514,536,555,568,581,593,611,619,630,643,654,662,662,662,662,662,662,662,662,662,662,662,662,662,662,662,662,662,661,658,654,649,642,639,634,620,590,576,558,542,524,462,431,406,392,382,317,269,198,111,111,111,111,0,0,0,0,2,12,17,23,24,29,29,30,30,30,30,33,43,48,52,52,52,51,50],"timestamp_mouse":[10,27,48,68,88,108,129,147,168,187,208,227,247,267,287,308,329,349,368,388,408,427,448,468,489,507,528,548,569,587,608,628,647,668,688,709,727,747,768,788,808,827,847,867,888,908,928,948,968,987,1009,1029,1048,1067,1088,1108,1129,1148,1168,1188,1209,1227,1247,1267,1288,1309,1327,1347,1368,1389,1408,1428,1448,1467,1488,1507,1527,1547,1567,1588,1608,1628,1648,1667,1688,1707,1727,1747,1768,1788,1808,1827,1847,1867,1888,1909,1929,1947,1967,1988,2008,2027,2047,2067,2088,2107,2128,2148,2169,2188,2209,2228,2248,2267,2289,2309,2328,2348,2368,2388,2407,2428,2447,2468,2489,2507,2527,2547,2569,2588,2608,2628,2647,2668,2688,2707,2729,2748,2769,2788,2809,2828,2848,2867,2889,2907,2928,2947,2967,2988,3008,3028,3048,3067,3087,3107,3127,3147,3168,3187,3209,3228,3248,3267,3288,3308,3328,3348,3369,3389,3408,3429,3447,3469,3488,3509,3528,3548,3567,3588,3607,3627,3648,3669,3688,3707,3728,3748,3769,3787,3807,3828,3848,3867,3888,3908,3928,3948,3967,3988,4007,4027,4048,4067,4088,4108,4128,4148,4167,4189,4209,4229,4249,4268,4288,4308,4328,4347,4367,4387,4408,4428,4449,4468,4487,4507,4529,4548,4568,4588,4608,4627],"xSR":741.5,"ySR":469.95,"xT1":424.9,"yT1":0,"xT2":1058.1,"yT2":0,"toosoon":0,"cond_shown":"Congruent","ratio_trial":300,"L_num":1,"L_den":30,"R_num":8,"R_den":24,"correct_side":2,"subjID":"MatiasLopez34","gender":"0","age":"9","school":"4","test":{"fix_dur":[250,1500],"timestim":1000,"targets_dim":[100,100],"targets_relative_coord":[0.3,0.7],"size_stim":[880,420],"start_dim":[100,100],"size_start":[300,300],"size_fix":60,"samplingrate":20,"img_types":["Congruent","Incongruent"],"ratios":[100,200,300],"rep_conds":19,"nTrials":120,"trials_to_rest":500,"Trials_order":[52,46,88,66,97,117,77,27,41,56,111,53,0,109,44,107,23,115,19,112,24,12,51,90,32,48,33,83,7,104,96,26,73,110,71,3,35,37,118,21,113,93,13,74,70,98,15,89,39,82,100,54,11,5,18,36,65,63,99,67,95,55,57,86,9,105,68,116,94,45,28,62,22,42,31,101,49,80,119,81,106,103,50,92,10,85,87,102,40,38,60,59,30,75,108,47,79,72,8,25,61,76,64,34,1,2,6,58,29,69,91,16,17,114,78,20,84,43,14,4],"cond_shown":["Congruent","Congruent","Congruent","Congruent","Incongruent","Incongruent","Incongruent","Incongruent","Incongruent","Congruent","Incongruent","Incongruent","Congruent","Incongruent","Congruent","Incongruent","Incongruent","Incongruent","Incongruent","Congruent","Congruent","Congruent","Incongruent","Congruent","Congruent","Congruent","Incongruent","Incongruent","Incongruent","Congruent","Congruent","Congruent","Incongruent","Congruent","Incongruent","Incongruent","Incongruent","Incongruent","Congruent","Incongruent","Incongruent","Incongruent","Incongruent","Congruent","Congruent","Congruent","Incongruent","Incongruent","Incongruent","Congruent","Congruent","Congruent","Incongruent","Incongruent","Congruent","Congruent","Incongruent","Incongruent","Incongruent","Incongruent","Incongruent","Incongruent","Incongruent","Congruent","Incongruent","Incongruent","Congruent","Congruent","Congruent","Incongruent","Congruent","Congruent","Congruent","Congruent","Incongruent","Incongruent","Incongruent","Congruent","Incongruent","Incongruent","Congruent","Incongruent","Congruent","Congruent","Congruent","Incongruent","Incongruent","Congruent","Congruent","Congruent","Congruent","Incongruent","Congruent","Incongruent","Congruent","Incongruent","Incongruent","Congruent","Congruent","Incongruent","Incongruent","Congruent","Congruent","Congruent","Incongruent","Congruent","Congruent","Congruent","Incongruent","Incongruent","Incongruent","Congruent","Incongruent","Congruent","Congruent","Congruent","Congruent","Incongruent","Congruent","Congruent"],"ratio_trial":[300,300,300,100,100,200,300,200,300,200,200,300,100,100,200,300,300,100,100,300,100,100,200,100,200,100,200,300,100,200,100,200,100,200,300,200,300,100,300,200,300,200,100,200,300,200,200,300,200,300,300,100,300,300,100,100,300,200,200,100,300,100,200,200,200,200,200,200,300,200,300,200,300,100,100,300,100,200,300,200,300,100,200,200,300,100,200,100,300,200,100,300,100,200,100,300,100,100,200,100,100,300,300,300,100,200,100,300,300,200,100,300,300,100,100,200,100,100,200,300],"left_num":[1,1,11,1,9,7,7,1,8,15,7,4,4,9,1,4,13,9,12,1,11,2,3,3,1,3,14,8,3,8,6,3,3,3,4,1,13,9,3,6,7,7,4,3,1,3,9,1,11,5,20,15,4,13,8,11,3,9,4,9,4,11,3,13,1,7,5,9,8,14,1,11,4,6,2,4,13,7,13,14,7,17,3,6,7,3,9,3,1,3,1,4,2,9,3,7,12,3,8,9,9,1,7,4,9,3,2,1,13,3,2,1,1,15,11,5,4,11,13,20],"right_num":[8,8,2,3,13,14,8,2,9,4,8,2,6,6,21,2,12,6,9,8,6,6,1,2,21,4,6,14,8,2,5,14,7,7,2,3,12,20,11,3,8,6,8,14,8,11,8,2,3,7,14,13,2,12,2,4,4,8,6,13,2,9,1,14,3,6,14,4,10,12,19,3,13,5,6,2,12,18,12,12,20,10,7,3,20,11,8,2,6,14,3,2,6,8,2,8,9,4,2,6,20,11,20,2,14,14,11,11,12,11,6,11,2,13,4,14,15,9,14,5],"left_den":[30,30,22,2,15,10,10,3,10,25,10,20,8,18,2,20,26,18,24,30,22,5,10,6,2,20,30,10,5,15,20,10,9,10,20,2,26,10,12,20,10,15,8,6,30,10,15,2,20,25,25,25,20,26,16,22,6,15,5,15,20,22,10,26,2,15,10,20,15,30,3,22,20,20,4,20,26,15,26,30,14,30,10,15,14,5,15,6,5,6,2,20,5,15,6,10,24,20,15,18,10,5,14,5,15,10,5,5,26,4,4,5,2,25,22,10,10,22,26,25],"right_den":[24,24,10,5,26,28,20,15,18,10,16,4,10,10,30,4,15,10,15,24,15,12,2,5,30,16,9,28,16,6,25,28,30,14,4,10,15,25,20,6,20,9,20,20,24,22,10,10,4,14,28,26,4,15,5,10,20,10,10,26,4,15,2,20,10,9,20,16,12,18,30,10,26,25,15,4,20,27,15,18,25,15,14,15,25,22,10,5,12,20,5,4,12,10,5,20,15,16,6,10,25,22,25,4,28,28,22,22,15,20,15,22,10,26,10,20,30,15,20,10],"correct_side":[2,2,1,2,1,1,1,1,1,1,1,2,2,2,2,2,2,2,2,2,1,2,2,1,2,2,2,1,1,1,1,2,1,2,2,1,2,1,2,2,1,2,1,2,2,2,2,1,2,2,1,1,2,2,1,1,1,2,1,1,2,2,2,2,1,2,2,1,2,2,2,1,2,1,1,2,2,2,2,2,2,2,2,1,2,1,2,1,2,2,2,2,2,2,1,1,2,2,1,2,1,2,2,1,1,2,2,2,2,1,1,2,1,1,1,2,2,2,2,1],"img_shown":["img2/300/Congruent/R/C_Dist_300_LN_1_LD_30_RN_8_RD_24_1.png","img2/300/Congruent/R/C_Dist_300_LN_1_LD_30_RN_8_RD_24_1.png","img2/300/Congruent/L/C_Dist_300_LN_11_LD_22_RN_2_RD_10_0.png","img2/100/Congruent/R/C_Dist_100_LN_1_LD_2_RN_3_RD_5_1.png","img2/100/Incongruent/L/I_Dist_100_LN_9_LD_15_RN_13_RD_26_0.png","img2/200/Incongruent/L/I_Dist_200_LN_7_LD_10_RN_14_RD_28_0.png","img2/300/Incongruent/L/I_Dist_300_LN_7_LD_10_RN_8_RD_20_0.png","img2/200/Incongruent/L/I_Dist_200_LN_1_LD_3_RN_2_RD_15_0.png","img2/300/Incongruent/L/I_Dist_300_LN_8_LD_10_RN_9_RD_18_0.png","img2/200/Congruent/L/C_Dist_200_LN_15_LD_25_RN_4_RD_10_0.png","img2/200/Incongruent/L/I_Dist_200_LN_7_LD_10_RN_8_RD_16_0.png","img2/300/Incongruent/R/I_Dist_300_LN_4_LD_20_RN_2_RD_4_1.png","img2/100/Congruent/R/C_Dist_100_LN_4_LD_8_RN_6_RD_10_1.png","img2/100/Incongruent/R/I_Dist_100_LN_9_LD_18_RN_6_RD_10_1.png","img2/200/Congruent/R/C_Dist_200_LN_1_LD_2_RN_21_RD_30_1.png","img2/300/Incongruent/R/I_Dist_300_LN_4_LD_20_RN_2_RD_4_1.png","img2/300/Incongruent/R/I_Dist_300_LN_13_LD_26_RN_12_RD_15_1.png","img2/100/Incongruent/R/I_Dist_100_LN_9_LD_18_RN_6_RD_10_1.png","img2/100/Incongruent/R/I_Dist_100_LN_12_LD_24_RN_9_RD_15_1.png","img2/300/Congruent/R/C_Dist_300_LN_1_LD_30_RN_8_RD_24_1.png","img2/100/Congruent/L/C_Dist_100_LN_11_LD_22_RN_6_RD_15_0.png","img2/100/Congruent/R/C_Dist_100_LN_2_LD_5_RN_6_RD_12_1.png","img2/200/Incongruent/R/I_Dist_200_LN_3_LD_10_RN_1_RD_2_1.png","img2/100/Congruent/L/C_Dist_100_LN_3_LD_6_RN_2_RD_5_0.png","img2/200/Congruent/R/C_Dist_200_LN_1_LD_2_RN_21_RD_30_1.png","img2/100/Congruent/R/C_Dist_100_LN_3_LD_20_RN_4_RD_16_1.png","img2/200/Incongruent/R/I_Dist_200_LN_14_LD_30_RN_6_RD_9_1.png","img2/300/Incongruent/L/I_Dist_300_LN_8_LD_10_RN_14_RD_28_0.png","img2/100/Incongruent/L/I_Dist_100_LN_3_LD_5_RN_8_RD_16_0.png","img2/200/Congruent/L/C_Dist_200_LN_8_LD_15_RN_2_RD_6_0.png","img2/100/Congruent/L/C_Dist_100_LN_6_LD_20_RN_5_RD_25_0.png","img2/200/Congruent/R/C_Dist_200_LN_3_LD_10_RN_14_RD_28_1.png","img2/100/Incongruent/L/I_Dist_100_LN_3_LD_9_RN_7_RD_30_0.png","img2/200/Congruent/R/C_Dist_200_LN_3_LD_10_RN_7_RD_14_1.png","img2/300/Incongruent/R/I_Dist_300_LN_4_LD_20_RN_2_RD_4_1.png","img2/200/Incongruent/L/I_Dist_200_LN_1_LD_2_RN_3_RD_10_0.png","img2/300/Incongruent/R/I_Dist_300_LN_13_LD_26_RN_12_RD_15_1.png","img2/100/Incongruent/L/I_Dist_100_LN_9_LD_10_RN_20_RD_25_0.png","img2/300/Congruent/R/C_Dist_300_LN_3_LD_12_RN_11_RD_20_1.png","img2/200/Incongruent/R/I_Dist_200_LN_6_LD_20_RN_3_RD_6_1.png","img2/300/Incongruent/L/I_Dist_300_LN_7_LD_10_RN_8_RD_20_0.png","img2/200/Incongruent/R/I_Dist_200_LN_7_LD_15_RN_6_RD_9_1.png","img2/100/Incongruent/L/I_Dist_100_LN_4_LD_8_RN_8_RD_20_0.png","img2/200/Congruent/R/C_Dist_200_LN_3_LD_6_RN_14_RD_20_1.png","img2/300/Congruent/R/C_Dist_300_LN_1_LD_30_RN_8_RD_24_1.png","img2/200/Congruent/R/C_Dist_200_LN_3_LD_10_RN_11_RD_22_1.png","img2/200/Incongruent/R/I_Dist_200_LN_9_LD_15_RN_8_RD_10_1.png","img2/300/Incongruent/L/I_Dist_300_LN_1_LD_2_RN_2_RD_10_0.png","img2/200/Incongruent/R/I_Dist_200_LN_11_LD_20_RN_3_RD_4_1.png","img2/300/Congruent/R/C_Dist_300_LN_5_LD_25_RN_7_RD_14_1.png","img2/300/Congruent/L/C_Dist_300_LN_20_LD_25_RN_14_RD_28_0.png","img2/100/Congruent/L/C_Dist_100_LN_15_LD_25_RN_13_RD_26_0.png","img2/300/Incongruent/R/I_Dist_300_LN_4_LD_20_RN_2_RD_4_1.png","img2/300/Incongruent/R/I_Dist_300_LN_13_LD_26_RN_12_RD_15_1.png","img2/100/Congruent/L/C_Dist_100_LN_8_LD_16_RN_2_RD_5_0.png","img2/100/Congruent/L/C_Dist_100_LN_11_LD_22_RN_4_RD_10_0.png","img2/300/Incongruent/L/I_Dist_300_LN_3_LD_6_RN_4_RD_20_0.png","img2/200/Incongruent/R/I_Dist_200_LN_9_LD_15_RN_8_RD_10_1.png","img2/200/Incongruent/L/I_Dist_200_LN_4_LD_5_RN_6_RD_10_0.png","img2/100/Incongruent/L/I_Dist_100_LN_9_LD_15_RN_13_RD_26_0.png","img2/300/Incongruent/R/I_Dist_300_LN_4_LD_20_RN_2_RD_4_1.png","img2/100/Incongruent/R/I_Dist_100_LN_11_LD_22_RN_9_RD_15_1.png","img2/200/Incongruent/R/I_Dist_200_LN_3_LD_10_RN_1_RD_2_1.png","img2/200/Congruent/R/C_Dist_200_LN_13_LD_26_RN_14_RD_20_1.png","img2/200/Incongruent/L/I_Dist_200_LN_1_LD_2_RN_3_RD_10_0.png","img2/200/Incongruent/R/I_Dist_200_LN_7_LD_15_RN_6_RD_9_1.png","img2/200/Congruent/R/C_Dist_200_LN_5_LD_10_RN_14_RD_20_1.png","img2/200/Congruent/L/C_Dist_200_LN_9_LD_20_RN_4_RD_16_0.png","img2/300/Congruent/R/C_Dist_300_LN_8_LD_15_RN_10_RD_12_1.png","img2/200/Incongruent/R/I_Dist_200_LN_14_LD_30_RN_12_RD_18_1.png","img2/300/Congruent/R/C_Dist_300_LN_1_LD_3_RN_19_RD_30_1.png","img2/200/Congruent/L/C_Dist_200_LN_11_LD_22_RN_3_RD_10_0.png","img2/300/Congruent/R/C_Dist_300_LN_4_LD_20_RN_13_RD_26_1.png","img2/100/Congruent/L/C_Dist_100_LN_6_LD_20_RN_5_RD_25_0.png","img2/100/Incongruent/L/I_Dist_100_LN_2_LD_4_RN_6_RD_15_0.png","img2/300/Incongruent/R/I_Dist_300_LN_4_LD_20_RN_2_RD_4_1.png","img2/100/Incongruent/R/I_Dist_100_LN_13_LD_26_RN_12_RD_20_1.png","img2/200/Congruent/R/C_Dist_200_LN_7_LD_15_RN_18_RD_27_1.png","img2/300/Incongruent/R/I_Dist_300_LN_13_LD_26_RN_12_RD_15_1.png","img2/200/Incongruent/R/I_Dist_200_LN_14_LD_30_RN_12_RD_18_1.png","img2/300/Congruent/R/C_Dist_300_LN_7_LD_14_RN_20_RD_25_1.png","img2/100/Incongruent/R/I_Dist_100_LN_17_LD_30_RN_10_RD_15_1.png","img2/200/Congruent/R/C_Dist_200_LN_3_LD_10_RN_7_RD_14_1.png","img2/200/Congruent/L/C_Dist_200_LN_6_LD_15_RN_3_RD_15_0.png","img2/300/Congruent/R/C_Dist_300_LN_7_LD_14_RN_20_RD_25_1.png","img2/100/Incongruent/L/I_Dist_100_LN_3_LD_5_RN_11_RD_22_0.png","img2/200/Incongruent/R/I_Dist_200_LN_9_LD_15_RN_8_RD_10_1.png","img2/100/Congruent/L/C_Dist_100_LN_3_LD_6_RN_2_RD_5_0.png","img2/300/Congruent/R/C_Dist_300_LN_1_LD_5_RN_6_RD_12_1.png","img2/200/Congruent/R/C_Dist_200_LN_3_LD_6_RN_14_RD_20_1.png","img2/100/Congruent/R/C_Dist_100_LN_1_LD_2_RN_3_RD_5_1.png","img2/300/Incongruent/R/I_Dist_300_LN_4_LD_20_RN_2_RD_4_1.png","img2/100/Congruent/R/C_Dist_100_LN_2_LD_5_RN_6_RD_12_1.png","img2/200/Incongruent/R/I_Dist_200_LN_9_LD_15_RN_8_RD_10_1.png","img2/100/Congruent/L/C_Dist_100_LN_3_LD_6_RN_2_RD_5_0.png","img2/300/Incongruent/L/I_Dist_300_LN_7_LD_10_RN_8_RD_20_0.png","img2/100/Incongruent/R/I_Dist_100_LN_12_LD_24_RN_9_RD_15_1.png","img2/100/Congruent/R/C_Dist_100_LN_3_LD_20_RN_4_RD_16_1.png","img2/200/Congruent/L/C_Dist_200_LN_8_LD_15_RN_2_RD_6_0.png","img2/100/Incongruent/R/I_Dist_100_LN_9_LD_18_RN_6_RD_10_1.png","img2/100/Incongruent/L/I_Dist_100_LN_9_LD_10_RN_20_RD_25_0.png","img2/300/Congruent/R/C_Dist_300_LN_1_LD_5_RN_11_RD_22_1.png","img2/300/Congruent/R/C_Dist_300_LN_7_LD_14_RN_20_RD_25_1.png","img2/300/Congruent/L/C_Dist_300_LN_4_LD_5_RN_2_RD_4_0.png","img2/100/Incongruent/L/I_Dist_100_LN_9_LD_15_RN_14_RD_28_0.png","img2/200/Congruent/R/C_Dist_200_LN_3_LD_10_RN_14_RD_28_1.png","img2/100/Congruent/R/C_Dist_100_LN_2_LD_5_RN_11_RD_22_1.png","img2/300/Congruent/R/C_Dist_300_LN_1_LD_5_RN_11_RD_22_1.png","img2/300/Incongruent/R/I_Dist_300_LN_13_LD_26_RN_12_RD_15_1.png","img2/200/Incongruent/L/I_Dist_200_LN_3_LD_4_RN_11_RD_20_0.png","img2/100/Incongruent/L/I_Dist_100_LN_2_LD_4_RN_6_RD_15_0.png","img2/300/Congruent/R/C_Dist_300_LN_1_LD_5_RN_11_RD_22_1.png","img2/300/Incongruent/L/I_Dist_300_LN_1_LD_2_RN_2_RD_10_0.png","img2/100/Congruent/L/C_Dist_100_LN_15_LD_25_RN_13_RD_26_0.png","img2/100/Congruent/L/C_Dist_100_LN_11_LD_22_RN_4_RD_10_0.png","img2/200/Congruent/R/C_Dist_200_LN_5_LD_10_RN_14_RD_20_1.png","img2/100/Congruent/R/C_Dist_100_LN_4_LD_10_RN_15_RD_30_1.png","img2/100/Incongruent/R/I_Dist_100_LN_11_LD_22_RN_9_RD_15_1.png","img2/200/Congruent/R/C_Dist_200_LN_13_LD_26_RN_14_RD_20_1.png","img2/300/Congruent/L/C_Dist_300_LN_20_LD_25_RN_5_RD_10_0.png"],"dist100_C":[["C_Dist_100_LN_10_LD_25_RN_3_RD_10_0.png","C_Dist_100_LN_11_LD_22_RN_4_RD_10_0.png","C_Dist_100_LN_11_LD_22_RN_6_RD_15_0.png","C_Dist_100_LN_15_LD_25_RN_13_RD_26_0.png","C_Dist_100_LN_3_LD_6_RN_2_RD_5_0.png","C_Dist_100_LN_6_LD_20_RN_5_RD_25_0.png","C_Dist_100_LN_8_LD_16_RN_2_RD_5_0.png","C_Dist_100_LN_9_LD_15_RN_8_RD_16_0.png"],["C_Dist_100_LN_1_LD_2_RN_18_RD_30_1.png","C_Dist_100_LN_1_LD_2_RN_3_RD_5_1.png","C_Dist_100_LN_12_LD_30_RN_13_RD_26_1.png","C_Dist_100_LN_2_LD_5_RN_11_RD_22_1.png","C_Dist_100_LN_2_LD_5_RN_6_RD_12_1.png","C_Dist_100_LN_3_LD_20_RN_4_RD_16_1.png","C_Dist_100_LN_4_LD_10_RN_15_RD_30_1.png","C_Dist_100_LN_4_LD_8_RN_6_RD_10_1.png","C_Dist_100_LN_6_LD_12_RN_15_RD_25_1.png","C_Dist_100_LN_7_LD_14_RN_15_RD_25_1.png","C_Dist_100_LN_7_LD_14_RN_9_RD_15_1.png"]],"dist100_I":[["I_Dist_100_LN_1_LD_2_RN_8_RD_20_0.png","I_Dist_100_LN_2_LD_4_RN_6_RD_15_0.png","I_Dist_100_LN_2_LD_4_RN_8_RD_20_0.png","I_Dist_100_LN_3_LD_5_RN_11_RD_22_0.png","I_Dist_100_LN_3_LD_5_RN_8_RD_16_0.png","I_Dist_100_LN_3_LD_6_RN_4_RD_10_0.png","I_Dist_100_LN_3_LD_9_RN_7_RD_30_0.png","I_Dist_100_LN_4_LD_8_RN_8_RD_20_0.png","I_Dist_100_LN_6_LD_10_RN_11_RD_22_0.png","I_Dist_100_LN_6_LD_10_RN_13_RD_26_0.png","I_Dist_100_LN_6_LD_10_RN_7_RD_14_0.png","I_Dist_100_LN_9_LD_10_RN_20_RD_25_0.png","I_Dist_100_LN_9_LD_15_RN_13_RD_26_0.png","I_Dist_100_LN_9_LD_15_RN_14_RD_28_0.png"],["I_Dist_100_LN_10_LD_25_RN_8_RD_16_1.png","I_Dist_100_LN_10_LD_25_RN_9_RD_18_1.png","I_Dist_100_LN_11_LD_22_RN_9_RD_15_1.png","I_Dist_100_LN_12_LD_24_RN_9_RD_15_1.png","I_Dist_100_LN_12_LD_30_RN_2_RD_4_1.png","I_Dist_100_LN_13_LD_26_RN_12_RD_20_1.png","I_Dist_100_LN_13_LD_26_RN_6_RD_10_1.png","I_Dist_100_LN_17_LD_30_RN_10_RD_15_1.png","I_Dist_100_LN_6_LD_12_RN_3_RD_5_1.png","I_Dist_100_LN_8_LD_16_RN_6_RD_10_1.png","I_Dist_100_LN_8_LD_20_RN_1_RD_2_1.png","I_Dist_100_LN_9_LD_18_RN_6_RD_10_1.png"]],"dist100_S":[["E_Dist_100_LN_2_LD_12_RN_2_RD_30_0.png","E_Dist_100_LN_6_LD_10_RN_6_RD_12_0.png"],["E_Dist_100_LN_6_LD_12_RN_6_RD_10_1.png"]],"dist200_C":[["C_Dist_200_LN_11_LD_22_RN_3_RD_10_0.png","C_Dist_200_LN_12_LD_15_RN_6_RD_10_0.png","C_Dist_200_LN_12_LD_20_RN_6_RD_15_0.png","C_Dist_200_LN_14_LD_28_RN_6_RD_20_0.png","C_Dist_200_LN_15_LD_25_RN_4_RD_10_0.png","C_Dist_200_LN_16_LD_20_RN_12_RD_20_0.png","C_Dist_200_LN_16_LD_30_RN_9_RD_27_0.png","C_Dist_200_LN_20_LD_25_RN_9_RD_15_0.png","C_Dist_200_LN_21_LD_30_RN_2_RD_4_0.png","C_Dist_200_LN_4_LD_10_RN_3_RD_15_0.png","C_Dist_200_LN_4_LD_8_RN_3_RD_10_0.png","C_Dist_200_LN_6_LD_15_RN_3_RD_15_0.png","C_Dist_200_LN_7_LD_21_RN_2_RD_15_0.png","C_Dist_200_LN_8_LD_15_RN_2_RD_6_0.png","C_Dist_200_LN_8_LD_15_RN_3_RD_9_0.png","C_Dist_200_LN_8_LD_15_RN_7_RD_21_0.png","C_Dist_200_LN_9_LD_20_RN_4_RD_16_0.png"],["C_Dist_200_LN_1_LD_2_RN_21_RD_30_1.png","C_Dist_200_LN_13_LD_26_RN_14_RD_20_1.png","C_Dist_200_LN_3_LD_10_RN_11_RD_22_1.png","C_Dist_200_LN_3_LD_10_RN_14_RD_28_1.png","C_Dist_200_LN_3_LD_10_RN_7_RD_14_1.png","C_Dist_200_LN_3_LD_12_RN_9_RD_20_1.png","C_Dist_200_LN_3_LD_6_RN_14_RD_20_1.png","C_Dist_200_LN_5_LD_10_RN_14_RD_20_1.png","C_Dist_200_LN_6_LD_12_RN_7_RD_10_1.png","C_Dist_200_LN_6_LD_20_RN_11_RD_22_1.png","C_Dist_200_LN_7_LD_15_RN_18_RD_27_1.png","C_Dist_200_LN_9_LD_30_RN_13_RD_26_1.png"]],"dist200_I":[["I_Dist_200_LN_1_LD_2_RN_3_RD_10_0.png","I_Dist_200_LN_1_LD_3_RN_2_RD_15_0.png","I_Dist_200_LN_3_LD_4_RN_11_RD_20_0.png","I_Dist_200_LN_4_LD_5_RN_6_RD_10_0.png","I_Dist_200_LN_4_LD_6_RN_14_RD_30_0.png","I_Dist_200_LN_7_LD_10_RN_12_RD_24_0.png","I_Dist_200_LN_7_LD_10_RN_14_RD_28_0.png","I_Dist_200_LN_7_LD_10_RN_8_RD_16_0.png"],["I_Dist_200_LN_11_LD_20_RN_3_RD_4_1.png","I_Dist_200_LN_14_LD_30_RN_12_RD_18_1.png","I_Dist_200_LN_14_LD_30_RN_6_RD_9_1.png","I_Dist_200_LN_3_LD_10_RN_1_RD_2_1.png","I_Dist_200_LN_4_LD_30_RN_1_RD_3_1.png","I_Dist_200_LN_6_LD_20_RN_3_RD_6_1.png","I_Dist_200_LN_7_LD_15_RN_4_RD_6_1.png","I_Dist_200_LN_7_LD_15_RN_6_RD_9_1.png","I_Dist_200_LN_9_LD_15_RN_8_RD_10_1.png"]],"dist200_S":[["E_Dist_200_LN_3_LD_6_RN_3_RD_10_0.png"],["E_Dist_200_LN_3_LD_10_RN_3_RD_6_1.png"]],"dist300_C":[["C_Dist_300_LN_11_LD_22_RN_1_RD_5_0.png","C_Dist_300_LN_11_LD_22_RN_2_RD_10_0.png","C_Dist_300_LN_11_LD_22_RN_4_RD_20_0.png","C_Dist_300_LN_12_LD_24_RN_2_RD_10_0.png","C_Dist_300_LN_18_LD_20_RN_9_RD_15_0.png","C_Dist_300_LN_20_LD_25_RN_13_RD_26_0.png","C_Dist_300_LN_20_LD_25_RN_14_RD_28_0.png","C_Dist_300_LN_20_LD_25_RN_5_RD_10_0.png","C_Dist_300_LN_20_LD_25_RN_8_RD_16_0.png","C_Dist_300_LN_20_LD_25_RN_9_RD_18_0.png","C_Dist_300_LN_24_LD_30_RN_2_RD_4_0.png","C_Dist_300_LN_24_LD_30_RN_8_RD_16_0.png","C_Dist_300_LN_3_LD_6_RN_2_RD_10_0.png","C_Dist_300_LN_4_LD_10_RN_1_RD_10_0.png","C_Dist_300_LN_4_LD_5_RN_2_RD_4_0.png","C_Dist_300_LN_8_LD_16_RN_1_RD_5_0.png","C_Dist_300_LN_9_LD_10_RN_3_RD_5_0.png"],["C_Dist_300_LN_1_LD_20_RN_7_RD_20_1.png","C_Dist_300_LN_1_LD_3_RN_19_RD_30_1.png","C_Dist_300_LN_1_LD_30_RN_8_RD_24_1.png","C_Dist_300_LN_1_LD_5_RN_11_RD_22_1.png","C_Dist_300_LN_1_LD_5_RN_3_RD_6_1.png","C_Dist_300_LN_1_LD_5_RN_6_RD_12_1.png","C_Dist_300_LN_2_LD_10_RN_12_RD_24_1.png","C_Dist_300_LN_2_LD_20_RN_10_RD_25_1.png","C_Dist_300_LN_3_LD_12_RN_11_RD_20_1.png","C_Dist_300_LN_3_LD_6_RN_4_RD_5_1.png","C_Dist_300_LN_4_LD_20_RN_13_RD_26_1.png","C_Dist_300_LN_5_LD_25_RN_6_RD_12_1.png","C_Dist_300_LN_5_LD_25_RN_7_RD_14_1.png","C_Dist_300_LN_7_LD_14_RN_20_RD_25_1.png","C_Dist_300_LN_8_LD_15_RN_10_RD_12_1.png"]],"dist300_I":[["I_Dist_300_LN_1_LD_2_RN_2_RD_10_0.png","I_Dist_300_LN_1_LD_2_RN_3_RD_15_0.png","I_Dist_300_LN_2_LD_4_RN_6_RD_30_0.png","I_Dist_300_LN_3_LD_6_RN_4_RD_20_0.png","I_Dist_300_LN_4_LD_5_RN_6_RD_12_0.png","I_Dist_300_LN_4_LD_5_RN_8_RD_16_0.png","I_Dist_300_LN_7_LD_10_RN_8_RD_20_0.png","I_Dist_300_LN_8_LD_10_RN_14_RD_28_0.png","I_Dist_300_LN_8_LD_10_RN_9_RD_18_0.png"],["I_Dist_300_LN_13_LD_26_RN_12_RD_15_1.png","I_Dist_300_LN_4_LD_20_RN_2_RD_4_1.png"]],"dist300_S":[["E_Dist_300_LN_9_LD_12_RN_9_RD_20_0.png"],["E_Dist_300_LN_18_LD_30_RN_18_RD_20_1.png","E_Dist_300_LN_3_LD_10_RN_3_RD_5_1.png","E_Dist_300_LN_9_LD_20_RN_9_RD_12_1.png"]],"dist500_C":[["C_Dist_500_LN_10_LD_13_RN_7_RD_26_0.png","C_Dist_500_LN_10_LD_15_RN_4_RD_24_0.png","C_Dist_500_LN_12_LD_16_RN_3_RD_12_0.png","C_Dist_500_LN_12_LD_18_RN_4_RD_24_0.png","C_Dist_500_LN_15_LD_18_RN_5_RD_15_0.png","C_Dist_500_LN_15_LD_20_RN_1_RD_4_0.png","C_Dist_500_LN_18_LD_27_RN_1_RD_6_0.png","C_Dist_500_LN_20_LD_24_RN_1_RD_3_0.png","C_Dist_500_LN_20_LD_24_RN_3_RD_9_0.png","C_Dist_500_LN_20_LD_24_RN_7_RD_21_0.png","C_Dist_500_LN_20_LD_28_RN_3_RD_14_0.png","C_Dist_500_LN_21_LD_28_RN_6_RD_24_0.png","C_Dist_500_LN_22_LD_28_RN_2_RD_7_0.png","C_Dist_500_LN_25_LD_30_RN_9_RD_27_0.png","C_Dist_500_LN_4_LD_6_RN_1_RD_6_0.png","C_Dist_500_LN_5_LD_6_RN_2_RD_6_0.png","C_Dist_500_LN_6_LD_9_RN_1_RD_6_0.png","C_Dist_500_LN_7_LD_10_RN_1_RD_5_0.png","C_Dist_500_LN_8_LD_12_RN_1_RD_6_0.png","C_Dist_500_LN_8_LD_12_RN_4_RD_24_0.png"],["C_Dist_500_LN_1_LD_4_RN_12_RD_16_1.png","C_Dist_500_LN_1_LD_4_RN_9_RD_12_1.png","C_Dist_500_LN_1_LD_9_RN_11_RD_18_1.png","C_Dist_500_LN_10_LD_24_RN_22_RD_24_1.png","C_Dist_500_LN_2_LD_12_RN_10_RD_15_1.png","C_Dist_500_LN_2_LD_12_RN_12_RD_18_1.png","C_Dist_500_LN_2_LD_12_RN_4_RD_6_1.png","C_Dist_500_LN_2_LD_24_RN_7_RD_12_1.png","C_Dist_500_LN_2_LD_5_RN_18_RD_20_1.png","C_Dist_500_LN_2_LD_5_RN_9_RD_10_1.png","C_Dist_500_LN_2_LD_8_RN_12_RD_16_1.png","C_Dist_500_LN_2_LD_8_RN_21_RD_28_1.png","C_Dist_500_LN_3_LD_10_RN_4_RD_5_1.png","C_Dist_500_LN_3_LD_12_RN_15_RD_20_1.png","C_Dist_500_LN_3_LD_30_RN_6_RD_10_1.png","C_Dist_500_LN_3_LD_8_RN_14_RD_16_1.png","C_Dist_500_LN_4_LD_16_RN_15_RD_20_1.png","C_Dist_500_LN_4_LD_24_RN_12_RD_18_1.png","C_Dist_500_LN_5_LD_14_RN_6_RD_7_1.png","C_Dist_500_LN_7_LD_21_RN_20_RD_24_1.png","C_Dist_500_LN_7_LD_28_RN_12_RD_16_1.png","C_Dist_500_LN_7_LD_28_RN_9_RD_12_1.png","C_Dist_500_LN_9_LD_27_RN_20_RD_24_1.png"]],"dist500_I":[["I_Dist_500_LN_2_LD_3_RN_4_RD_24_0.png","I_Dist_500_LN_5_LD_6_RN_6_RD_18_0.png","I_Dist_500_LN_7_LD_8_RN_9_RD_24_0.png"],["I_Dist_500_LN_7_LD_21_RN_5_RD_6_1.png"]],"dist500_S":[["E_Dist_500_LN_6_LD_8_RN_6_RD_24_0.png"],["E_Dist_500_LN_2_LD_12_RN_2_RD_3_1.png","E_Dist_500_LN_6_LD_24_RN_6_RD_8_1.png"]]}},{"start_time":1552327776909,"click_time":1552327779618,"finger_time":1552327778279,"fix_duration":909.5243596270562,"trial":1,"RT":1370,"MT":1339,"sideResp":2,"stimulus":[],"xmouse":[797,796,796,794,794,794,794,794,794,794,794,794,794,794,794,794,794,794,794,794,794,794,794,794,794,794,794,794,794,794,794,794,794,794,794,794,794,794,794,794,794,794,794,794,794,794,794,794,794,794,794,794,794,794,794,794,794,794,794,794,794,794,794,794,794,794,794,800,821,866,917,966,1008,1028,1036,1040,1041,1041,1034,1027,1020,1016,1011,1007,1005,1004,1000,992,988,983,973,961,949,949,950,950,950,950,956,958,958,958,958,958,958,958,956,954,953,952,950,947,940,935,932,928,926,926,926,926,926,929,960,990,1000,1024,1035,1042,1042,1043,1044,1047,1050,1057,1059,1066],"ymouse":[630,628,628,626,626,626,626,626,626,626,626,626,626,626,626,626,626,626,626,626,626,626,626,626,626,626,626,626,626,626,626,626,626,626,626,626,626,626,626,626,626,626,626,626,626,623,621,619,619,619,619,619,619,619,619,619,619,619,619,616,614,612,611,607,606,604,603,589,566,533,500,471,432,384,364,353,340,333,323,317,313,310,308,305,304,300,285,257,243,223,204,182,155,153,152,152,152,150,141,139,139,139,139,139,139,139,139,139,139,139,139,140,141,141,141,141,141,141,141,141,141,141,132,123,121,113,110,107,107,106,106,106,104,101,100,97],"timestamp_mouse":[9,46,48,69,88,109,130,149,170,189,208,229,249,268,289,309,330,349,368,389,410,429,449,469,489,510,529,549,568,589,609,628,649,668,690,710,729,749,769,790,809,829,849,868,889,909,929,949,969,989,1008,1028,1049,1069,1089,1109,1128,1149,1169,1188,1208,1230,1250,1269,1289,1309,1328,1349,1370,1389,1410,1428,1449,1468,1490,1508,1528,1548,1568,1588,1609,1628,1649,1668,1689,1708,1729,1749,1768,1789,1809,1829,1850,1868,1888,1908,1929,1949,1970,1989,2010,2029,2049,2069,2089,2109,2129,2149,2169,2188,2209,2228,2249,2269,2290,2308,2329,2350,2368,2388,2408,2429,2450,2469,2489,2508,2528,2549,2569,2589,2609,2628,2648,2668,2689,2709],"xSR":741.5,"ySR":573.95,"xT1":424.9,"yT1":0,"xT2":1058.1,"yT2":0,"toosoon":0,"cond_shown":"Congruent","ratio_trial":300,"L_num":1,"L_den":30,"R_num":8,"R_den":24,"correct_side":2,"subjID":"MatiasLopez34","gender":"0","school":"4","age":"9"},{"start_time":1552327783689,"click_time":1552327785897,"finger_time":1552327785278,"fix_duration":250,"trial":2,"RT":1589,"MT":619,"sideResp":1,"stimulus":[],"xmouse":[819,819,819,819,819,819,819,819,819,819,819,819,819,819,819,819,819,819,819,819,819,819,819,819,819,819,819,819,819,819,819,819,819,819,819,819,819,819,819,819,819,819,819,819,819,819,819,819,819,819,819,819,819,819,819,819,819,819,819,819,819,819,819,819,819,819,819,819,819,819,819,819,819,819,819,819,816,811,797,751,731,711,693,673,625,616,616,616,616,616,615,614,603,587,547,435,396,380,377,377,377,378,379,382,390,393,396,398,402,421,434],"ymouse":[650,650,650,650,650,650,650,650,650,650,650,650,650,650,650,650,650,650,650,650,650,650,650,650,650,650,650,650,650,650,650,650,650,650,650,650,650,650,650,650,650,650,650,650,650,650,650,650,650,650,650,650,650,650,650,650,650,650,650,650,650,650,650,650,650,650,650,650,650,650,650,650,650,650,649,640,627,603,574,473,413,350,295,237,162,153,153,153,153,153,153,153,155,156,149,108,86,74,72,72,71,70,70,70,70,70,70,70,70,75,80],"timestamp_mouse":[14,38,48,69,88,108,130,150,168,188,208,229,250,270,290,309,328,349,368,388,409,428,448,470,488,508,528,550,568,589,609,629,650,669,688,709,728,749,769,789,809,829,849,869,890,909,929,950,970,988,1008,1030,1050,1070,1088,1110,1128,1150,1169,1188,1209,1230,1248,1270,1289,1308,1330,1352,1369,1388,1410,1428,1450,1469,1488,1509,1528,1549,1568,1589,1609,1629,1648,1668,1689,1708,1730,1749,1768,1789,1808,1829,1848,1868,1888,1909,1929,1950,1969,1989,2008,2029,2048,2070,2089,2109,2128,2149,2168,2188,2208],"xSR":741.5,"ySR":573.95,"xT1":424.9,"yT1":0,"xT2":1058.1,"yT2":0,"toosoon":0,"cond_shown":"Congruent","ratio_trial":300,"L_num":11,"L_den":22,"R_num":2,"R_den":10,"correct_side":1,"subjID":"MatiasLopez34","gender":"0","school":"4","age":"9"},{"start_time":1552327791712,"click_time":1552327793798,"finger_time":1552327792897,"fix_duration":591.7029965834674,"trial":3,"RT":1185,"MT":901,"sideResp":2,"stimulus":[],"xmouse":[818,818,818,818,818,818,818,818,818,818,818,818,818,818,818,818,818,818,818,818,818,818,818,818,816,816,816,816,816,816,816,816,816,816,816,816,816,816,816,816,816,816,816,816,816,816,816,816,816,816,816,816,816,815,817,821,825,832,837,848,892,925,957,986,1002,1003,1003,1001,1001,1002,1005,1007,1008,1010,1011,1014,1026,1045,1066,1102,1108,1112,1114,1114,1115,1115,1114,1114,1112,1111,1111,1111,1111,1111,1111,1111,1111,1111,1111,1111,1111,1111,1111,1111,1111],"ymouse":[647,647,647,647,647,647,647,647,647,647,647,647,647,647,647,647,647,647,647,647,647,647,647,647,647,647,647,647,647,647,647,647,647,647,647,647,647,647,647,647,647,647,647,647,647,647,647,647,647,647,647,647,647,645,643,635,630,622,615,606,554,509,453,376,296,270,248,226,210,190,185,183,181,180,179,178,175,170,168,157,152,144,138,133,122,116,114,110,108,102,102,101,101,101,101,101,101,101,101,101,101,101,101,101,99],"timestamp_mouse":[12,36,46,66,86,106,127,145,166,186,205,227,246,265,285,306,325,347,367,385,406,426,447,466,485,505,526,547,567,585,605,627,645,666,686,706,725,747,765,786,807,827,847,865,885,906,926,945,966,985,1005,1027,1046,1065,1085,1106,1127,1146,1166,1185,1205,1226,1245,1265,1285,1305,1325,1345,1365,1386,1405,1425,1446,1466,1485,1505,1526,1545,1566,1585,1607,1626,1645,1665,1685,1705,1727,1746,1767,1786,1807,1825,1845,1866,1886,1906,1927,1946,1966,1985,2006,2027,2045,2066,2086],"xSR":741.5,"ySR":573.95,"xT1":424.9,"yT1":0,"xT2":1058.1,"yT2":0,"toosoon":0,"cond_shown":"Congruent","ratio_trial":100,"L_num":1,"L_den":2,"R_num":3,"R_den":5,"correct_side":2,"subjID":"MatiasLopez34","gender":"0","school":"4","age":"9"},{"start_time":1552327796733,"click_time":1552327798417,"finger_time":1552327798078,"fix_duration":1432.6841657802736,"trial":4,"RT":1345,"MT":339,"sideResp":2,"stimulus":[],"xmouse":[758,758,758,760,762,762,762,762,762,762,762,762,762,762,763,763,763,763,763,763,763,763,763,763,763,763,763,763,763,763,763,763,763,763,763,763,763,763,763,763,763,763,763,763,763,763,763,763,763,766,772,777,784,789,793,794,794,794,794,794,794,794,794,794,797,798,804,817,829,856,871,884,918,943,955,957,958,960,960,964,968,978,990,1009,1059],"ymouse":[619,619,619,618,617,617,617,617,617,617,617,617,617,617,617,617,617,617,617,617,617,617,617,617,617,617,617,617,617,617,617,617,617,617,617,617,617,617,617,617,617,617,617,617,617,617,617,617,617,616,614,610,605,602,600,600,600,600,600,600,600,600,600,600,596,593,583,563,544,498,464,425,321,222,143,122,97,89,80,69,62,51,41,33,30],"timestamp_mouse":[20,28,46,65,85,105,124,144,164,184,206,225,244,265,285,306,324,345,364,385,404,425,446,465,484,506,524,546,564,584,605,626,645,665,684,704,724,746,764,784,806,825,845,865,885,904,925,944,965,985,1004,1025,1044,1064,1086,1106,1125,1145,1166,1186,1204,1224,1246,1266,1284,1306,1324,1345,1364,1385,1406,1424,1444,1465,1484,1505,1524,1545,1565,1584,1604,1624,1644,1665,1684],"xSR":741.5,"ySR":573.95,"xT1":424.9,"yT1":0,"xT2":1058.1,"yT2":0,"toosoon":0,"cond_shown":"Incongruent","ratio_trial":100,"L_num":9,"L_den":15,"R_num":13,"R_den":26,"correct_side":1,"subjID":"MatiasLopez34","gender":"0","school":"4","age":"9"},{"start_time":1552327805492,"click_time":1552327806938,"finger_time":1552327806398,"fix_duration":250,"trial":5,"RT":906,"MT":540,"sideResp":2,"stimulus":[],"xmouse":[807,809,811,811,811,811,811,810,808,808,806,805,803,803,803,802,802,802,801,801,799,798,791,789,787,783,781,781,781,781,781,781,781,781,781,781,783,783,784,785,786,787,792,800,815,833,855,906,923,937,947,976,1001,1008,1031,1042,1043,1059,1065,1071,1080,1091,1106,1110,1112,1112,1112,1109,1108,1107,1106,1106,1105],"ymouse":[626,626,626,626,626,626,626,626,626,626,626,626,626,626,626,627,627,627,627,627,627,627,626,625,623,620,618,610,606,601,599,598,598,598,597,597,595,594,594,594,593,593,592,589,581,566,549,493,467,442,420,366,325,310,264,240,237,212,203,192,179,165,142,134,128,127,125,121,117,113,108,103,88],"timestamp_mouse":[14,35,45,65,86,104,126,145,165,185,206,225,244,265,285,306,326,345,365,385,405,426,445,465,485,505,525,544,565,585,604,624,645,666,685,706,726,746,766,785,805,826,845,865,885,906,925,945,965,985,1005,1026,1045,1066,1084,1105,1125,1145,1165,1185,1204,1225,1244,1266,1285,1306,1325,1345,1366,1385,1405,1425,1446],"xSR":741.5,"ySR":573.95,"xT1":424.9,"yT1":0,"xT2":1058.1,"yT2":0,"toosoon":0,"cond_shown":"Incongruent","ratio_trial":200,"L_num":7,"L_den":10,"R_num":14,"R_den":28,"correct_side":1,"subjID":"MatiasLopez34","gender":"0","school":"4","age":"9"},{"start_time":1552327812109,"click_time":1552327813638,"finger_time":1552327813397,"fix_duration":250,"trial":6,"RT":1288,"MT":241,"sideResp":1,"stimulus":[],"xmouse":[807,807,807,807,807,807,807,807,807,807,807,807,807,807,807,807,807,807,807,807,807,807,807,807,807,807,807,807,807,807,807,807,807,807,807,807,807,807,807,807,807,807,807,807,807,807,807,807,807,807,807,807,807,807,807,807,807,809,809,809,810,811,811,812,813,813,813,813,806,784,705,593,517,460,432,427,427],"ymouse":[602,602,602,602,602,602,602,602,602,602,602,602,602,602,602,602,602,602,602,602,602,602,602,602,602,602,602,602,602,602,602,602,602,602,602,602,602,602,602,602,602,602,602,602,602,602,602,602,602,602,602,602,602,602,601,600,598,593,591,587,586,581,578,575,571,567,561,538,519,483,395,300,226,164,123,101,64],"timestamp_mouse":[21,41,48,69,88,108,128,148,169,188,208,228,249,268,288,308,328,349,369,389,409,428,449,469,488,509,528,549,568,588,609,628,648,668,689,708,729,749,768,789,808,829,848,868,888,909,929,948,969,987,1009,1029,1049,1068,1088,1108,1128,1147,1168,1188,1209,1228,1249,1268,1288,1308,1329,1348,1368,1388,1407,1428,1448,1468,1488,1508,1529],"xSR":741.5,"ySR":573.95,"xT1":424.9,"yT1":0,"xT2":1058.1,"yT2":0,"toosoon":0,"cond_shown":"Incongruent","ratio_trial":300,"L_num":7,"L_den":10,"R_num":8,"R_den":20,"correct_side":1,"subjID":"MatiasLopez34","gender":"0","school":"4","age":"9"},{"start_time":1552327816630,"click_time":1552327818158,"finger_time":1552327816977,"fix_duration":352.991853618118,"trial":7,"RT":347,"MT":1181,"sideResp":2,"stimulus":[],"xmouse":[770,772,772,773,774,775,776,777,777,777,777,777,777,777,779,780,791,800,809,816,822,823,823,823,824,824,824,824,824,824,823,822,820,816,813,812,810,809,809,809,810,820,834,844,852,859,873,879,883,887,890,897,902,905,907,914,924,927,940,945,950,968,979,987,989,991,996,998,1002,1006,1011,1022,1032,1037,1043,1051,1065],"ymouse":[603,603,603,602,602,600,599,599,599,599,599,599,599,598,596,595,583,570,561,552,547,546,546,546,546,547,552,553,553,554,555,555,557,567,573,578,582,583,583,583,583,575,553,532,508,482,425,397,375,352,329,289,268,259,251,231,209,204,188,183,176,162,142,123,118,112,97,91,87,82,79,76,73,73,73,73,82],"timestamp_mouse":[13,43,47,66,88,108,127,148,167,188,208,227,248,266,287,307,327,347,367,387,408,428,448,467,488,507,528,547,568,587,607,627,647,667,687,706,727,747,768,787,807,827,848,866,886,907,926,948,968,987,1007,1027,1047,1067,1087,1107,1127,1148,1167,1186,1207,1226,1248,1268,1288,1308,1327,1347,1367,1388,1408,1427,1448,1466,1488,1506,1527],"xSR":741.5,"ySR":573.95,"xT1":424.9,"yT1":0,"xT2":1058.1,"yT2":0,"toosoon":0,"cond_shown":"Incongruent","ratio_trial":200,"L_num":1,"L_den":3,"R_num":2,"R_den":15,"correct_side":1,"subjID":"MatiasLopez34","gender":"0","school":"4","age":"9"},{"start_time":1552327819727,"click_time":1552327820797,"finger_time":1552327820057,"fix_duration":467.1259139783507,"trial":8,"RT":330,"MT":740,"sideResp":1,"stimulus":[],"xmouse":[786,786,786,786,786,786,786,786,786,786,786,786,786,786,786,785,764,737,727,687,652,614,614,614,614,615,616,616,616,616,616,615,615,613,610,605,600,587,577,568,561,547,544,543,541,538,534,532,531,531,531,531,527,524],"ymouse":[610,610,610,610,610,610,610,610,610,610,610,610,610,610,610,607,561,525,510,461,416,346,294,260,230,223,206,202,196,190,186,180,177,173,165,157,149,132,124,117,113,106,105,104,103,101,97,97,95,95,95,95,95,93],"timestamp_mouse":[18,30,49,71,90,110,130,150,171,190,210,230,250,270,290,309,330,350,370,391,410,430,450,471,489,509,530,550,570,590,610,630,650,671,690,711,730,750,770,789,810,830,850,870,890,910,930,951,971,990,1009,1031,1050,1070],"xSR":741.5,"ySR":573.95,"xT1":424.9,"yT1":0,"xT2":1058.1,"yT2":0,"toosoon":0,"cond_shown":"Incongruent","ratio_trial":300,"L_num":8,"L_den":10,"R_num":9,"R_den":18,"correct_side":1,"subjID":"MatiasLopez34","gender":"0","school":"4","age":"9"},{"start_time":1552327828819,"click_time":1552327830458,"finger_time":1552327829776,"fix_duration":759.4332165423476,"trial":9,"RT":957,"MT":682,"sideResp":1,"stimulus":[],"xmouse":[824,824,824,824,824,824,824,824,824,824,824,824,824,824,824,824,824,824,824,824,824,824,824,824,824,824,824,824,824,824,824,824,824,824,824,824,824,824,824,824,824,824,824,824,825,825,825,821,799,777,758,745,739,739,739,739,739,739,739,737,734,732,699,669,639,619,606,585,579,567,557,546,540,540,540,540,535,534,529,523,515,503],"ymouse":[639,639,639,639,639,639,639,639,639,639,639,639,639,639,639,639,639,639,639,639,639,639,639,639,639,639,639,639,639,639,639,639,639,639,639,639,639,639,639,639,639,639,639,639,635,624,586,572,514,482,459,444,436,436,436,436,436,436,436,434,430,425,400,378,358,345,335,309,293,277,263,248,236,230,219,205,181,170,150,141,122,96],"timestamp_mouse":[19,39,58,78,98,118,138,158,178,199,218,237,257,279,298,319,338,358,379,397,418,439,458,479,499,519,538,558,579,599,618,638,659,678,698,718,739,758,777,798,819,838,858,879,899,918,938,957,979,998,1019,1037,1058,1078,1097,1117,1138,1158,1178,1197,1218,1239,1259,1278,1298,1319,1338,1358,1378,1398,1418,1438,1459,1478,1498,1519,1537,1558,1578,1598,1619,1639],"xSR":741.5,"ySR":573.95,"xT1":424.9,"yT1":0,"xT2":1058.1,"yT2":0,"toosoon":0,"cond_shown":"Congruent","ratio_trial":200,"L_num":15,"L_den":25,"R_num":4,"R_den":10,"correct_side":1,"subjID":"MatiasLopez34","gender":"0","school":"4","age":"9"},{"start_time":1552327835513,"click_time":1552327837478,"finger_time":1552327836597,"fix_duration":654.1999104598119,"trial":10,"RT":1084,"MT":881,"sideResp":2,"stimulus":[],"xmouse":[773,773,773,773,773,773,773,770,770,768,765,765,764,762,762,762,762,762,762,762,762,762,762,762,762,762,762,762,762,762,762,762,762,762,762,762,761,761,761,761,761,761,761,761,761,761,761,761,761,761,761,759,756,751,739,731,726,724,722,722,722,722,722,722,731,746,765,803,857,1007,1120,1188,1246,1286,1322,1367,1382,1398,1408,1409,1409,1401,1385,1360,1332,1328,1325,1322,1317,1299,1296,1292,1286,1280,1266,1238,1200,1165,1128],"ymouse":[648,648,648,648,648,648,648,648,648,648,648,649,649,649,649,649,649,649,649,649,649,649,649,649,649,649,649,649,649,649,649,649,649,649,649,649,649,649,649,649,649,649,649,649,649,649,649,649,649,648,642,641,641,642,645,648,648,648,648,649,649,649,649,647,633,611,595,574,549,487,417,367,323,284,247,194,175,156,141,138,138,129,112,95,83,83,83,81,78,59,56,52,46,41,39,36,33,30,28],"timestamp_mouse":[14,35,44,64,85,105,124,144,165,183,204,224,244,265,284,303,325,344,365,385,405,424,445,464,484,504,525,543,565,583,604,624,645,665,685,703,724,745,764,784,804,825,844,864,884,904,923,945,965,984,1004,1024,1044,1064,1084,1103,1124,1144,1164,1184,1205,1224,1243,1263,1284,1304,1324,1345,1365,1384,1403,1426,1444,1463,1483,1504,1524,1545,1577,1584,1604,1624,1644,1663,1684,1703,1724,1743,1765,1784,1805,1824,1844,1863,1884,1904,1923,1943,1964],"xSR":741.5,"ySR":573.95,"xT1":424.9,"yT1":0,"xT2":1058.1,"yT2":0,"toosoon":0,"cond_shown":"Incongruent","ratio_trial":200,"L_num":7,"L_den":10,"R_num":8,"R_den":16,"correct_side":1,"subjID":"MatiasLopez34","gender":"0","school":"4","age":"9"},{"start_time":1552327843715,"click_time":1552327845817,"finger_time":1552327845437,"fix_duration":1138.0443759650896,"trial":11,"RT":1722,"MT":380,"sideResp":1,"stimulus":[],"xmouse":[806,805,805,803,802,801,801,800,800,800,800,800,800,800,800,800,800,800,800,800,800,800,800,800,800,798,798,798,798,798,798,798,798,798,798,798,798,798,798,798,798,798,798,798,798,798,798,798,798,798,798,798,798,798,798,798,797,797,797,797,797,797,797,797,797,797,797,797,797,797,797,797,797,797,797,797,797,797,794,793,789,784,783,781,780,777,765,717,676,659,648,642,621,571,516,327,316,309,311,316,316,316,320,330,362,429],"ymouse":[629,629,629,629,629,629,629,629,629,629,629,629,629,629,629,629,629,629,629,629,629,629,629,629,629,629,629,629,629,629,629,629,629,629,629,629,629,629,629,629,629,629,629,629,629,629,629,629,629,629,629,629,629,629,630,630,630,630,630,630,630,630,630,630,630,630,630,630,630,630,630,630,630,630,630,630,630,630,630,628,621,610,605,600,599,585,551,449,379,351,320,301,266,208,153,0,0,0,0,0,0,0,1,10,40,87],"timestamp_mouse":[11,40,42,62,82,102,123,141,162,182,203,221,243,263,282,302,321,341,363,383,403,422,443,463,482,502,521,541,562,582,602,622,642,663,683,701,722,742,763,782,802,822,843,863,882,901,921,943,962,983,1002,1022,1043,1063,1083,1102,1122,1143,1163,1183,1202,1223,1242,1263,1282,1302,1321,1343,1362,1383,1401,1422,1442,1462,1483,1502,1522,1542,1563,1582,1602,1622,1642,1663,1682,1702,1722,1742,1762,1782,1801,1822,1843,1862,1882,1910,1922,1942,1961,1981,2002,2021,2042,2063,2082,2102],"xSR":741.5,"ySR":573.95,"xT1":424.9,"yT1":0,"xT2":1058.1,"yT2":0,"toosoon":0,"cond_shown":"Incongruent","ratio_trial":300,"L_num":4,"L_den":20,"R_num":2,"R_den":4,"correct_side":2,"subjID":"MatiasLopez34","gender":"0","school":"4","age":"9"},{"start_time":1552327856213,"click_time":1552327858857,"finger_time":1552327857738,"fix_duration":393.3168699957773,"trial":12,"RT":1525,"MT":1119,"sideResp":1,"stimulus":[],"xmouse":[763,763,763,763,763,763,763,763,763,763,763,763,763,763,763,763,763,763,763,763,763,763,762,761,761,761,761,761,761,761,761,761,761,761,761,761,761,761,761,761,761,761,761,761,761,761,761,761,761,761,761,761,761,761,761,761,761,761,761,761,761,761,761,761,761,761,761,761,761,761,761,761,761,761,760,758,736,661,634,628,645,668,688,696,700,700,701,701,701,696,684,657,644,637,634,634,634,633,632,632,633,638,650,659,669,676,679,685,688,690,691,691,692,685,659,590,540,537,537,536,534,530,529,529,529,529,529,528,528,528,527,527,524],"ymouse":[622,622,622,622,622,622,622,622,622,622,622,622,622,622,622,622,622,622,622,622,622,622,622,622,622,622,622,622,622,622,622,622,622,622,622,622,622,622,622,622,622,622,622,622,622,622,622,622,622,622,622,622,622,622,622,622,622,622,622,622,622,622,622,622,622,622,622,622,622,622,622,622,622,622,622,622,593,441,344,274,231,196,157,144,135,133,132,132,129,121,113,100,95,92,92,92,92,92,94,98,102,109,121,128,131,133,133,132,130,130,129,129,128,120,106,67,42,42,42,42,42,47,51,52,53,53,53,54,54,54,54,54,55],"timestamp_mouse":[13,35,45,64,84,104,124,144,164,184,204,224,244,264,285,304,324,344,364,384,404,424,444,465,484,504,525,545,565,583,605,625,645,664,685,705,724,745,763,785,805,825,844,865,884,903,925,944,965,985,1004,1025,1045,1063,1085,1104,1125,1145,1164,1185,1204,1224,1245,1264,1285,1303,1325,1344,1365,1385,1405,1425,1444,1465,1484,1504,1525,1544,1564,1584,1604,1624,1644,1664,1684,1704,1725,1745,1764,1784,1804,1826,1843,1864,1883,1904,1925,1943,1964,1984,2004,2025,2044,2064,2084,2104,2123,2144,2164,2184,2204,2225,2243,2264,2284,2304,2326,2343,2364,2384,2404,2425,2444,2465,2484,2504,2524,2545,2563,2585,2604,2624,2644],"xSR":741.5,"ySR":573.95,"xT1":424.9,"yT1":0,"xT2":1058.1,"yT2":0,"toosoon":0,"cond_shown":"Congruent","ratio_trial":100,"L_num":4,"L_den":8,"R_num":6,"R_den":10,"correct_side":2,"subjID":"MatiasLopez34","gender":"0","school":"4","age":"9"},{"start_time":1552327863228,"click_time":1552327864761,"finger_time":1552327864457,"fix_duration":250,"trial":13,"RT":1229,"MT":304,"sideResp":1,"stimulus":[],"xmouse":[812,812,812,812,812,812,812,811,811,811,811,811,811,811,811,811,810,808,805,801,797,790,790,790,790,790,790,790,790,790,790,790,790,790,790,790,790,790,790,790,790,790,790,790,790,790,790,790,790,789,789,789,789,789,789,789,789,789,789,789,789,787,783,771,750,710,633,604,581,561,535,521,495,489,486,485,478],"ymouse":[648,648,648,648,648,648,648,647,647,647,647,647,647,647,647,647,644,638,628,614,601,577,575,575,575,575,575,575,575,575,575,575,575,575,575,575,575,575,575,575,575,575,575,575,575,575,575,575,575,574,574,574,574,574,574,574,574,574,574,574,574,567,557,537,501,432,279,207,136,78,12,0,0,0,0,0,1],"timestamp_mouse":[10,36,49,69,89,109,129,149,170,189,210,229,249,269,290,309,329,349,370,388,410,429,449,469,489,510,529,549,569,590,609,629,649,670,689,708,730,749,769,789,810,829,849,870,890,909,929,949,969,990,1009,1030,1049,1070,1088,1109,1129,1148,1170,1190,1210,1229,1248,1269,1290,1310,1329,1348,1369,1389,1410,1429,1450,1469,1488,1509,1533],"xSR":741.5,"ySR":573.95,"xT1":424.9,"yT1":0,"xT2":1058.1,"yT2":0,"toosoon":0,"cond_shown":"Incongruent","ratio_trial":100,"L_num":9,"L_den":18,"R_num":6,"R_den":10,"correct_side":2,"subjID":"MatiasLopez34","gender":"0","school":"4","age":"9"},{"start_time":1552327867599,"click_time":1552327868538,"finger_time":1552327867916,"fix_duration":1138.824930588121,"trial":14,"RT":317,"MT":622,"sideResp":2,"stimulus":[],"xmouse":[773,773,773,773,773,773,773,773,773,773,773,773,775,795,825,858,895,920,932,944,962,967,980,986,991,994,997,1001,1007,1011,1010,1001,996,996,999,1001,1001,1002,1004,1006,1007,1009,1014,1032,1040,1053,1066],"ymouse":[616,616,616,616,616,616,616,616,616,616,616,616,616,609,597,580,550,528,508,487,445,438,411,398,383,370,359,346,305,269,184,129,100,59,45,42,42,41,37,37,36,36,36,36,36,36,38],"timestamp_mouse":[18,39,58,77,98,117,138,158,179,197,218,238,257,277,297,317,337,358,377,397,417,438,459,478,498,517,539,558,577,597,617,637,657,677,699,717,737,757,777,798,818,837,857,877,897,917,939],"xSR":741.5,"ySR":573.95,"xT1":424.9,"yT1":0,"xT2":1058.1,"yT2":0,"toosoon":0,"cond_shown":"Congruent","ratio_trial":200,"L_num":1,"L_den":2,"R_num":21,"R_den":30,"correct_side":2,"subjID":"MatiasLopez34","gender":"0","school":"4","age":"9"},{"start_time":1552327875478,"click_time":1552327876598,"finger_time":1552327875877,"fix_duration":1000.3088599883687,"trial":15,"RT":399,"MT":721,"sideResp":1,"stimulus":[],"xmouse":[813,814,815,817,820,821,821,821,821,821,821,821,821,823,825,827,830,832,837,841,844,857,865,870,874,878,880,880,880,880,880,880,880,880,880,880,880,880,880,880,880,880,880,880,880,876,870,865,831,805,765,716,654,584,463],"ymouse":[603,602,601,600,597,597,597,597,597,597,597,597,597,597,595,594,587,581,564,553,543,515,498,489,479,476,473,472,472,472,472,472,472,472,472,472,472,472,472,472,472,472,472,472,468,463,458,451,424,405,376,341,288,226,78],"timestamp_mouse":[40,58,79,98,119,140,158,179,200,218,239,259,279,299,318,338,359,378,399,418,439,458,479,498,519,539,559,578,598,618,639,659,679,699,718,738,759,779,799,819,838,858,878,899,918,938,959,979,999,1019,1039,1058,1078,1099,1120],"xSR":741.5,"ySR":573.95,"xT1":424.9,"yT1":0,"xT2":1058.1,"yT2":0,"toosoon":0,"cond_shown":"Incongruent","ratio_trial":300,"L_num":4,"L_den":20,"R_num":2,"R_den":4,"correct_side":2,"subjID":"MatiasLopez34","gender":"0","school":"4","age":"9"},{"start_time":1552327884788,"click_time":1552327886016,"finger_time":1552327884998,"fix_duration":250,"trial":16,"RT":210,"MT":1018,"sideResp":1,"stimulus":[],"xmouse":[803,803,803,803,803,803,803,803,798,786,739,725,722,718,718,718,718,718,718,713,705,682,659,621,563,519,509,506,505,505,505,505,505,505,506,512,528,534,542,545,547,548,548,548,546,539,525,523,523,523,523,522,521,521,521,521,521,519,517,506,497,488],"ymouse":[652,652,652,652,652,652,652,652,627,599,512,478,467,449,447,445,445,444,442,437,431,413,397,372,338,312,303,300,295,288,279,262,258,253,249,242,225,216,208,200,195,185,176,168,158,146,128,125,125,125,125,125,125,125,125,125,125,125,125,115,103,87],"timestamp_mouse":[12,40,48,69,89,109,129,149,168,190,210,229,249,269,290,310,328,349,368,388,409,428,449,468,489,510,529,549,568,588,608,628,649,668,688,708,729,748,768,790,809,829,848,868,888,908,928,948,969,989,1008,1029,1048,1068,1089,1108,1128,1149,1169,1189,1209,1228],"xSR":741.5,"ySR":573.95,"xT1":424.9,"yT1":0,"xT2":1058.1,"yT2":0,"toosoon":0,"cond_shown":"Incongruent","ratio_trial":300,"L_num":13,"L_den":26,"R_num":12,"R_den":15,"correct_side":2,"subjID":"MatiasLopez34","gender":"0","school":"4","age":"9"},{"start_time":1552327891659,"click_time":1552327892356,"finger_time":1552327892056,"fix_duration":840.9666813221306,"trial":17,"RT":397,"MT":300,"sideResp":1,"stimulus":[],"xmouse":[769,769,769,769,770,772,782,793,794,794,794,796,805,808,815,817,826,833,838,842,850,861,889,899,906,914,922,922,893,857,809,752,617,541,472],"ymouse":[619,619,619,619,619,620,622,624,624,624,624,624,624,624,624,624,624,623,621,619,612,598,517,456,409,355,265,230,151,104,66,41,25,25,25],"timestamp_mouse":[17,41,58,78,98,117,137,158,178,197,218,237,258,277,297,319,338,358,378,397,418,437,458,477,497,517,537,557,577,598,618,639,659,677,697],"xSR":741.5,"ySR":573.95,"xT1":424.9,"yT1":0,"xT2":1058.1,"yT2":0,"toosoon":0,"cond_shown":"Incongruent","ratio_trial":100,"L_num":9,"L_den":18,"R_num":6,"R_den":10,"correct_side":2,"subjID":"MatiasLopez34","gender":"0","school":"4","age":"9"},{"start_time":1552327894273,"click_time":1552327895236,"finger_time":1552327894436,"fix_duration":597.9513573322221,"trial":18,"RT":163,"MT":800,"sideResp":2,"stimulus":[],"xmouse":[779,779,780,786,788,792,793,793,793,793,793,787,769,713,689,686,685,685,688,697,713,745,789,883,890,897,898,898,898,898,892,879,836,652,533,513,513,513,613,708,802,879,927,993,1058,1094,1115,1130,1146],"ymouse":[623,623,623,608,605,596,590,578,568,555,536,514,481,404,361,347,339,334,327,322,314,304,291,266,264,261,261,261,261,261,260,258,255,266,298,309,309,309,279,248,223,209,200,183,165,149,135,118,86],"timestamp_mouse":[4,24,43,64,83,103,124,144,163,183,203,224,243,263,284,303,324,344,363,383,403,423,443,463,484,503,524,545,564,585,603,623,644,664,684,704,724,743,764,785,803,823,843,864,883,904,923,943,963],"xSR":741.5,"ySR":573.95,"xT1":424.9,"yT1":0,"xT2":1058.1,"yT2":0,"toosoon":0,"cond_shown":"Incongruent","ratio_trial":100,"L_num":12,"L_den":24,"R_num":9,"R_den":15,"correct_side":2,"subjID":"MatiasLopez34","gender":"0","school":"4","age":"9"},{"start_time":1552327900930,"click_time":1552327902297,"finger_time":1552327901717,"fix_duration":1271.1657725816087,"trial":19,"RT":787,"MT":580,"sideResp":2,"stimulus":[],"xmouse":[798,812,812,818,819,819,819,819,819,819,819,819,819,819,819,819,819,819,819,819,819,819,819,819,819,819,819,819,819,819,818,817,817,817,817,817,820,821,830,840,880,903,928,943,946,947,947,947,947,947,947,947,947,947,951,977,1005,1029,1054,1077,1086,1105,1109,1113,1115,1115,1115,1115,1116],"ymouse":[644,639,639,637,637,637,637,637,637,637,637,637,637,637,637,637,637,637,637,637,637,637,637,637,637,637,637,637,637,637,637,637,637,637,637,637,629,622,594,565,464,414,370,332,314,307,305,305,305,305,305,305,301,293,265,165,103,39,0,0,0,0,0,0,0,0,0,0,1],"timestamp_mouse":[12,41,46,67,86,106,127,147,168,187,207,227,247,267,286,307,327,346,367,387,408,427,446,466,486,507,527,547,566,587,606,627,647,667,688,707,726,748,766,787,807,826,846,867,886,906,926,946,968,986,1007,1027,1046,1066,1087,1108,1126,1147,1166,1187,1206,1226,1246,1266,1286,1307,1327,1346,1367],"xSR":741.5,"ySR":573.95,"xT1":424.9,"yT1":0,"xT2":1058.1,"yT2":0,"toosoon":0,"cond_shown":"Congruent","ratio_trial":300,"L_num":1,"L_den":30,"R_num":8,"R_den":24,"correct_side":2,"subjID":"MatiasLopez34","gender":"0","school":"4","age":"9"},{"start_time":1552327909928,"click_time":1552327911616,"finger_time":1552327911237,"fix_duration":570.0895087857505,"trial":20,"RT":1309,"MT":379,"sideResp":1,"stimulus":[],"xmouse":[819,819,819,819,818,810,806,801,800,800,799,799,799,799,799,799,803,804,804,804,804,804,804,804,804,804,804,804,804,804,804,804,804,804,804,804,804,804,804,804,804,804,803,803,803,803,803,803,803,803,803,803,803,803,803,803,803,803,803,803,803,803,803,802,799,790,742,701,663,629,604,581,571,571,561,553,548,546,546,546,546,546,536,530,520],"ymouse":[583,583,583,583,584,589,593,598,599,600,600,600,600,600,600,600,601,601,601,601,601,601,601,601,601,601,601,601,601,601,601,601,601,601,601,601,601,601,601,601,602,602,602,603,603,603,603,603,603,603,603,603,603,603,603,603,603,603,603,603,603,603,603,599,582,552,432,368,311,266,228,190,172,172,155,140,133,129,129,129,129,128,109,102,90],"timestamp_mouse":[14,28,48,69,89,109,130,149,169,190,208,228,249,268,288,308,329,348,368,388,408,429,448,469,489,508,530,548,568,588,608,628,649,668,689,709,729,749,770,788,808,829,850,879,889,908,928,948,969,989,1009,1029,1048,1069,1089,1109,1129,1148,1169,1189,1209,1229,1249,1268,1288,1309,1330,1349,1368,1389,1408,1429,1449,1469,1488,1508,1528,1548,1569,1589,1608,1628,1648,1668,1688],"xSR":741.5,"ySR":573.95,"xT1":424.9,"yT1":0,"xT2":1058.1,"yT2":0,"toosoon":0,"cond_shown":"Congruent","ratio_trial":100,"L_num":11,"L_den":22,"R_num":6,"R_den":15,"correct_side":1,"subjID":"MatiasLopez34","gender":"0","school":"4","age":"9"},{"start_time":1552327914097,"click_time":1552327915557,"finger_time":1552327915437,"fix_duration":659.7349386328318,"trial":21,"RT":1340,"MT":120,"sideResp":2,"stimulus":[],"xmouse":[790,790,790,790,790,790,790,790,790,790,790,790,790,790,790,790,790,790,790,790,790,790,790,790,790,790,790,790,790,790,791,793,794,795,795,795,795,795,795,795,795,795,798,803,814,816,816,816,816,816,816,816,816,816,816,816,816,816,816,816,816,816,816,816,816,816,816,818,826,888,939,1004,1057,1111],"ymouse":[598,598,598,598,598,598,598,598,598,598,598,598,598,598,598,598,598,598,598,598,598,598,598,598,598,598,598,598,598,598,598,598,598,598,598,598,598,598,598,598,598,598,596,593,580,578,577,576,576,576,576,576,576,576,576,576,576,576,576,576,576,576,576,576,576,576,576,564,549,428,338,240,149,49],"timestamp_mouse":[1,19,46,59,79,101,119,140,160,181,199,220,239,260,279,299,319,339,360,379,400,420,439,459,479,499,519,539,559,579,599,621,639,660,679,699,719,739,760,779,799,819,840,859,879,899,919,940,960,979,1001,1021,1039,1059,1079,1101,1120,1140,1160,1179,1200,1219,1241,1260,1279,1300,1319,1340,1360,1380,1399,1419,1440,1460],"xSR":741.5,"ySR":573.95,"xT1":424.9,"yT1":0,"xT2":1058.1,"yT2":0,"toosoon":0,"cond_shown":"Congruent","ratio_trial":100,"L_num":2,"L_den":5,"R_num":6,"R_den":12,"correct_side":2,"subjID":"MatiasLopez34","gender":"0","school":"4","age":"9"},{"start_time":1552327929517,"click_time":1552327930915,"finger_time":1552327930575,"fix_duration":679.5937669021399,"trial":22,"RT":1058,"MT":340,"sideResp":1,"stimulus":[],"xmouse":[782,782,782,782,782,782,782,782,782,782,782,782,782,782,782,782,782,784,787,790,792,793,794,794,794,794,794,794,794,794,794,794,794,794,794,794,794,794,794,794,794,794,794,794,794,794,794,794,794,794,794,794,775,741,696,693,691,691,691,691,691,691,691,691,680,647,605,553,503,446],"ymouse":[604,604,604,604,604,604,604,604,604,604,604,604,604,604,604,604,604,602,597,589,586,582,580,580,579,579,579,579,579,579,579,579,579,579,579,579,579,579,579,579,579,579,579,579,579,579,579,579,579,579,579,579,565,540,497,489,485,484,484,484,484,484,484,482,449,382,312,234,163,62],"timestamp_mouse":[21,38,58,78,98,118,138,159,178,198,218,238,258,278,298,318,338,359,379,398,418,438,458,478,498,518,538,558,578,599,618,639,658,678,699,719,738,758,778,799,818,838,858,879,898,918,938,959,979,998,1018,1039,1058,1079,1098,1118,1138,1158,1179,1198,1218,1238,1259,1278,1298,1320,1338,1358,1379,1398],"xSR":741.5,"ySR":573.95,"xT1":424.9,"yT1":0,"xT2":1058.1,"yT2":0,"toosoon":0,"cond_shown":"Incongruent","ratio_trial":200,"L_num":3,"L_den":10,"R_num":1,"R_den":2,"correct_side":2,"subjID":"MatiasLopez34","gender":"0","school":"4","age":"9"},{"start_time":1552327935586,"click_time":1552327936435,"finger_time":1552327935876,"fix_duration":250,"trial":23,"RT":290,"MT":559,"sideResp":2,"stimulus":[],"xmouse":[817,817,817,817,817,817,817,817,817,817,817,816,804,792,784,780,779,779,779,779,779,779,779,779,779,779,779,779,779,779,779,777,777,777,777,777,776,776,823,856,976,1056,1150],"ymouse":[614,614,615,615,615,615,615,615,615,615,615,614,598,576,559,546,531,531,530,530,530,530,530,530,530,530,530,530,530,530,530,531,533,533,533,533,534,529,455,416,292,211,60],"timestamp_mouse":[11,37,50,69,90,110,130,150,169,189,210,229,249,269,290,309,330,349,369,389,409,430,451,470,490,509,530,549,570,589,609,630,649,669,689,710,729,749,770,790,809,830,849],"xSR":741.5,"ySR":573.95,"xT1":424.9,"yT1":0,"xT2":1058.1,"yT2":0,"toosoon":0,"cond_shown":"Congruent","ratio_trial":100,"L_num":3,"L_den":6,"R_num":2,"R_den":5,"correct_side":1,"subjID":"MatiasLopez34","gender":"0","school":"4","age":"9"},{"start_time":1552327938666,"click_time":1552327940616,"finger_time":1552327939796,"fix_duration":250,"trial":24,"RT":1130,"MT":820,"sideResp":2,"stimulus":[],"xmouse":[817,817,817,818,817,817,817,817,817,817,817,817,817,817,817,817,817,817,817,817,817,816,816,816,816,814,814,814,814,814,814,814,814,814,814,814,814,814,814,814,814,814,814,814,814,814,814,814,814,814,814,814,814,814,814,820,855,919,1019,1042,1075,1117,1206,1315,1381,1429,1453,1457,1458,1458,1458,1457,1442,1408,1391,1379,1373,1372,1372,1372,1372,1371,1371,1344,1322,1299,1277,1265,1263,1263,1263,1263,1263,1242,1223,1199,1175,1154],"ymouse":[648,648,648,649,650,650,650,650,650,650,650,650,650,650,650,650,650,650,650,650,650,652,652,652,652,653,653,653,653,653,653,653,653,653,653,653,653,653,653,653,653,653,653,653,653,653,653,653,653,653,653,653,653,653,653,646,615,562,422,356,278,201,66,0,0,0,0,0,0,0,0,4,40,109,150,178,193,194,194,194,194,194,194,188,182,176,170,167,166,166,166,166,165,150,136,122,108,96],"timestamp_mouse":[14,37,50,69,89,109,129,150,169,190,209,230,250,270,290,310,329,350,369,389,410,429,449,470,490,509,529,550,570,589,610,629,650,669,690,710,729,750,769,789,810,829,850,869,890,910,929,950,970,989,1009,1030,1049,1069,1089,1109,1130,1149,1169,1189,1209,1230,1249,1270,1289,1309,1329,1349,1369,1390,1410,1429,1451,1470,1489,1510,1530,1550,1570,1590,1609,1630,1650,1669,1691,1710,1729,1750,1769,1790,1810,1829,1849,1869,1891,1909,1930,1950],"xSR":741.5,"ySR":573.95,"xT1":424.9,"yT1":0,"xT2":1058.1,"yT2":0,"toosoon":0,"cond_shown":"Congruent","ratio_trial":200,"L_num":1,"L_den":2,"R_num":21,"R_den":30,"correct_side":2,"subjID":"MatiasLopez34","gender":"0","school":"4","age":"9"},{"start_time":1552327947305,"click_time":1552327949755,"finger_time":1552327948735,"fix_duration":1028.7412549046485,"trial":25,"RT":1430,"MT":1020,"sideResp":1,"stimulus":[],"xmouse":[811,811,811,811,811,811,811,811,811,811,811,811,811,811,811,811,811,811,811,811,811,811,811,811,811,811,811,811,811,809,805,804,804,804,804,804,804,804,804,804,804,804,804,801,799,797,795,794,794,794,794,794,794,794,794,794,794,794,794,794,794,794,794,794,794,795,795,798,803,812,837,887,1033,1107,1164,1205,1244,1314,1337,1348,1356,1357,1358,1357,1350,1338,1323,1290,1281,1277,1272,1267,1256,1251,1247,1240,1233,1201,1187,1170,1155,1139,1111,1099,1087,1073,1024,853,766,707,680,672,671,671,668,662,651,620,606,591,578,561,514],"ymouse":[633,633,633,633,633,633,633,633,633,633,633,633,633,633,633,633,633,633,633,633,633,633,633,633,633,633,633,633,633,633,633,633,633,633,633,633,633,633,633,633,633,633,633,634,638,641,646,650,650,650,650,650,650,650,650,650,650,650,650,650,650,650,650,650,650,650,649,641,634,623,599,563,464,411,359,306,251,125,71,30,4,0,0,0,0,0,0,12,17,21,25,32,52,61,69,79,87,117,131,150,169,187,214,220,222,220,193,96,53,28,18,15,15,15,15,15,18,34,39,45,49,53,57],"timestamp_mouse":[19,44,50,71,91,110,130,151,170,192,210,231,250,271,291,310,330,350,370,391,412,430,450,470,490,511,531,550,571,591,611,630,650,671,690,711,730,750,770,791,810,830,850,870,891,910,930,950,970,990,1010,1030,1050,1070,1091,1110,1130,1151,1170,1192,1210,1230,1250,1271,1290,1310,1331,1350,1370,1390,1410,1430,1450,1470,1491,1511,1530,1550,1571,1590,1610,1630,1650,1670,1691,1711,1731,1750,1769,1790,1811,1831,1852,1870,1890,1911,1931,1950,1972,1991,2010,2031,2050,2070,2091,2111,2130,2151,2170,2190,2211,2231,2251,2271,2291,2310,2330,2350,2372,2390,2410,2430,2450],"xSR":741.5,"ySR":573.95,"xT1":424.9,"yT1":0,"xT2":1058.1,"yT2":0,"toosoon":0,"cond_shown":"Congruent","ratio_trial":100,"L_num":3,"L_den":20,"R_num":4,"R_den":16,"correct_side":2,"subjID":"MatiasLopez34","gender":"0","school":"4","age":"9"},{"start_time":1552327953207,"click_time":1552327955395,"finger_time":1552327954557,"fix_duration":250,"trial":26,"RT":1350,"MT":838,"sideResp":1,"stimulus":[],"xmouse":[840,840,840,837,828,817,804,789,788,788,788,788,786,785,783,783,783,783,783,783,783,783,783,783,783,783,783,783,783,783,783,783,783,783,783,783,783,783,783,783,783,783,783,783,783,783,783,783,783,783,783,783,783,783,783,783,783,781,779,777,774,773,770,769,769,766,763,743,720,664,622,584,565,480,447,416,406,403,402,394,379,367,356,335,330,328,328,328,328,328,328,328,331,350,362,372,377,379,384,389,392,396,397,399,400,403,408,413,422,426],"ymouse":[636,636,636,636,637,637,637,640,640,640,640,640,642,649,656,662,666,668,668,668,668,668,669,669,669,669,669,669,669,669,669,669,669,669,669,669,669,669,669,669,669,669,669,669,669,669,669,669,669,669,669,669,669,669,669,666,664,658,655,651,643,640,633,631,628,620,609,559,500,367,257,130,62,0,0,0,0,0,5,28,64,100,134,178,187,189,189,189,189,189,189,187,184,166,155,142,129,118,100,93,89,85,83,82,82,82,82,82,84,84],"timestamp_mouse":[13,35,49,68,88,108,128,150,168,189,209,228,248,269,289,309,328,349,368,388,408,428,449,468,489,509,528,549,569,588,609,629,649,669,689,708,728,749,768,789,809,828,849,868,888,908,928,949,968,989,1009,1029,1049,1068,1088,1108,1128,1149,1168,1188,1209,1229,1249,1269,1290,1308,1328,1350,1368,1388,1408,1429,1448,1468,1488,1509,1528,1549,1569,1588,1608,1628,1649,1669,1689,1708,1728,1748,1769,1789,1809,1828,1848,1869,1889,1908,1929,1949,1969,1989,2008,2029,2049,2069,2088,2108,2129,2149,2168,2188],"xSR":741.5,"ySR":573.95,"xT1":424.9,"yT1":0,"xT2":1058.1,"yT2":0,"toosoon":0,"cond_shown":"Incongruent","ratio_trial":200,"L_num":14,"L_den":30,"R_num":6,"R_den":9,"correct_side":2,"subjID":"MatiasLopez34","gender":"0","school":"4","age":"9"},{"start_time":1552327959236,"click_time":1552327960336,"finger_time":1552327959656,"fix_duration":1296.3883959126488,"trial":27,"RT":420,"MT":680,"sideResp":2,"stimulus":[],"xmouse":[782,782,782,782,782,782,782,782,782,782,782,782,782,782,782,782,782,782,782,783,786,786,785,784,783,783,783,783,783,783,783,783,783,783,783,783,783,783,789,808,829,872,941,1095,1141,1163,1172,1174,1177,1178,1178,1178,1178,1176,1162,1157],"ymouse":[618,618,618,618,618,618,618,618,618,618,618,618,618,618,618,618,618,618,618,605,584,566,537,533,532,532,532,532,532,532,532,532,532,532,532,530,510,418,356,286,213,131,48,0,0,0,0,0,0,0,0,0,0,0,4,7],"timestamp_mouse":[1,20,40,59,79,99,119,139,159,179,199,219,239,261,279,299,319,339,359,380,400,420,439,459,480,500,519,540,560,579,600,619,640,660,680,699,720,739,759,779,799,819,840,859,880,899,918,939,960,979,1000,1019,1040,1059,1080,1099],"xSR":741.5,"ySR":573.95,"xT1":424.9,"yT1":0,"xT2":1058.1,"yT2":0,"toosoon":0,"cond_shown":"Incongruent","ratio_trial":300,"L_num":8,"L_den":10,"R_num":14,"R_den":28,"correct_side":1,"subjID":"MatiasLopez34","gender":"0","school":"4","age":"9"},{"start_time":1552327963057,"click_time":1552327964837,"finger_time":1552327964475,"fix_duration":399.76225051158076,"trial":28,"RT":1418,"MT":362,"sideResp":2,"stimulus":[],"xmouse":[779,769,761,758,756,756,756,756,756,756,756,756,756,756,756,756,753,749,747,747,747,748,748,748,748,749,751,757,762,766,768,770,770,770,770,770,770,770,770,770,770,770,770,770,770,770,770,770,770,770,770,770,770,770,770,770,770,770,770,770,770,770,770,770,770,770,770,771,772,778,788,842,868,895,919,949,1010,1040,1070,1100,1123,1152,1153,1153,1153,1153,1153,1153,1153],"ymouse":[648,646,644,644,644,644,644,644,644,644,644,644,644,644,644,644,640,630,621,613,608,599,599,599,599,598,598,596,595,593,592,592,592,592,592,592,592,592,592,592,592,592,592,592,592,592,592,592,592,592,592,592,592,592,592,592,592,592,592,592,592,592,592,592,592,592,592,592,589,574,551,407,323,233,149,72,0,0,0,0,0,0,0,0,0,0,0,0,2],"timestamp_mouse":[19,40,58,79,98,119,138,158,179,198,219,238,259,279,298,319,338,358,379,399,418,439,458,479,499,518,539,558,578,599,618,639,658,679,698,719,738,758,779,799,818,839,858,879,899,919,938,959,978,998,1019,1039,1058,1079,1099,1118,1139,1159,1178,1199,1219,1238,1258,1279,1298,1318,1338,1358,1379,1398,1418,1438,1458,1478,1498,1519,1538,1558,1578,1599,1618,1639,1659,1678,1698,1721,1739,1758,1779],"xSR":741.5,"ySR":573.95,"xT1":424.9,"yT1":0,"xT2":1058.1,"yT2":0,"toosoon":0,"cond_shown":"Incongruent","ratio_trial":100,"L_num":3,"L_den":5,"R_num":8,"R_den":16,"correct_side":1,"subjID":"MatiasLopez34","gender":"0","school":"4","age":"9"},{"start_time":1552327967106,"click_time":1552327968036,"finger_time":1552327967415,"fix_duration":508.7214966803111,"trial":29,"RT":309,"MT":621,"sideResp":1,"stimulus":[],"xmouse":[812,812,812,812,812,812,812,812,812,812,812,812,812,812,803,772,738,702,670,655,650,644,636,625,615,611,610,608,608,606,605,605,605,605,603,600,594,587,576,552,528,523,523,523,523,521,521],"ymouse":[634,634,634,634,634,634,634,634,634,634,634,634,634,634,616,567,525,484,445,424,416,406,398,388,373,366,362,356,353,340,333,324,309,289,233,195,151,109,68,20,0,0,0,0,0,0,1],"timestamp_mouse":[13,38,49,69,89,110,130,149,170,189,210,230,249,269,289,309,329,350,370,389,410,429,449,470,489,509,529,550,569,590,609,629,650,669,689,710,730,750,770,790,810,829,850,869,889,909,929],"xSR":741.5,"ySR":573.95,"xT1":424.9,"yT1":0,"xT2":1058.1,"yT2":0,"toosoon":0,"cond_shown":"Congruent","ratio_trial":200,"L_num":8,"L_den":15,"R_num":2,"R_den":6,"correct_side":1,"subjID":"MatiasLopez34","gender":"0","school":"4","age":"9"},{"start_time":1552327971173,"click_time":1552327972495,"finger_time":1552327971496,"fix_duration":1056.415674247638,"trial":30,"RT":323,"MT":999,"sideResp":2,"stimulus":[],"xmouse":[808,808,808,808,808,808,808,808,808,808,808,808,808,808,808,808,797,790,780,770,763,761,761,761,761,761,761,761,761,761,761,761,761,761,761,761,761,761,761,762,781,809,918,1017,1072,1097,1118,1147,1150,1152,1152,1152,1138,1122,1115,1109,1106,1106,1105,1105,1105,1105,1105,1105,1105,1107,1108],"ymouse":[596,596,596,596,596,596,596,596,596,596,596,596,596,596,596,590,509,455,402,369,352,349,349,349,349,349,349,349,349,349,349,349,349,349,349,349,349,349,349,348,343,336,313,289,273,266,259,238,234,228,220,202,167,145,137,131,128,124,123,121,121,121,121,119,112,105,95],"timestamp_mouse":[11,22,43,62,82,102,123,142,162,182,202,223,243,263,283,303,323,342,363,382,403,423,443,462,483,502,522,543,562,583,602,623,642,662,684,703,723,742,763,783,803,822,842,864,883,902,922,942,962,983,1002,1022,1042,1062,1082,1103,1123,1141,1162,1183,1202,1223,1242,1263,1282,1302,1322],"xSR":741.5,"ySR":573.95,"xT1":424.9,"yT1":0,"xT2":1058.1,"yT2":0,"toosoon":0,"cond_shown":"Congruent","ratio_trial":100,"L_num":6,"L_den":20,"R_num":5,"R_den":25,"correct_side":1,"subjID":"MatiasLopez34","gender":"0","school":"4","age":"9"},{"start_time":1552327976458,"click_time":1552327977716,"finger_time":1552327977276,"fix_duration":300.0115044845586,"trial":31,"RT":818,"MT":440,"sideResp":2,"stimulus":[],"xmouse":[776,776,776,776,776,776,776,776,776,776,776,776,776,776,776,776,776,776,776,776,776,776,776,776,776,776,776,782,788,791,794,795,795,795,795,796,797,798,811,824,848,888,984,1036,1073,1086,1088,1088,1088,1087,1086,1085,1085,1085,1085,1085,1085,1088,1088,1089,1089,1089,1079],"ymouse":[635,635,635,635,635,635,635,635,635,635,635,635,635,635,635,635,635,635,635,635,635,635,635,635,635,635,635,635,633,632,631,630,630,630,630,630,628,627,611,591,558,501,381,333,305,294,293,293,293,293,293,293,293,293,293,293,293,273,250,225,194,142,87],"timestamp_mouse":[17,41,57,77,98,117,138,157,177,197,217,237,257,277,298,319,337,357,377,397,418,437,457,477,497,518,538,557,577,598,617,638,657,678,698,718,738,758,777,798,818,839,857,877,898,917,937,957,977,997,1018,1037,1057,1078,1098,1118,1137,1157,1177,1197,1218,1237,1258],"xSR":741.5,"ySR":573.95,"xT1":424.9,"yT1":0,"xT2":1058.1,"yT2":0,"toosoon":0,"cond_shown":"Congruent","ratio_trial":200,"L_num":3,"L_den":10,"R_num":14,"R_den":28,"correct_side":2,"subjID":"MatiasLopez34","gender":"0","school":"4","age":"9"},{"start_time":1552327987765,"click_time":1552327989477,"finger_time":1552327989056,"fix_duration":608.7190586116394,"trial":32,"RT":1291,"MT":421,"sideResp":2,"stimulus":[],"xmouse":[814,814,814,814,814,814,814,814,814,814,814,814,814,814,814,813,813,812,807,800,791,787,787,787,787,787,787,787,786,786,786,786,785,784,779,778,778,778,778,778,778,780,782,785,788,788,788,788,788,788,788,788,788,788,787,784,780,775,773,771,771,771,776,784,822,833,859,873,952,996,1039,1088,1124,1172,1205,1219,1269,1296,1313,1320,1313,1292,1262,1197,1122,1115],"ymouse":[622,620,611,609,607,607,607,607,607,607,607,607,607,607,607,607,607,607,607,606,605,604,604,604,604,604,604,604,604,604,606,608,612,616,623,623,623,624,623,618,612,607,601,596,590,590,590,590,590,590,590,590,590,590,589,589,592,595,597,601,601,601,600,595,546,523,460,430,301,262,249,235,224,210,194,187,152,129,106,64,38,7,0,0,0,10],"timestamp_mouse":[13,33,51,71,90,111,131,150,170,191,211,230,250,270,291,311,331,350,371,390,410,430,451,470,491,511,531,550,571,590,611,630,650,671,691,710,731,752,771,792,812,832,852,870,890,912,931,951,970,992,1012,1031,1051,1072,1090,1112,1132,1152,1170,1190,1212,1231,1250,1271,1291,1311,1331,1352,1372,1391,1411,1432,1452,1472,1491,1511,1530,1550,1572,1590,1610,1631,1651,1671,1692,1712],"xSR":741.5,"ySR":573.95,"xT1":424.9,"yT1":0,"xT2":1058.1,"yT2":0,"toosoon":0,"cond_shown":"Incongruent","ratio_trial":100,"L_num":3,"L_den":9,"R_num":7,"R_den":30,"correct_side":1,"subjID":"MatiasLopez34","gender":"0","school":"4","age":"9"},{"start_time":1552327992538,"click_time":1552327994695,"finger_time":1552327993897,"fix_duration":780.2888439477563,"trial":33,"RT":1359,"MT":798,"sideResp":2,"stimulus":[],"xmouse":[807,807,807,807,807,807,807,807,807,807,807,807,807,807,807,807,807,807,806,806,806,805,805,805,805,805,805,805,805,805,805,805,805,805,805,805,805,805,805,805,805,805,805,805,805,805,805,805,805,805,805,805,805,805,805,804,804,804,804,804,804,804,804,804,804,820,833,851,872,904,975,1009,1022,1032,1033,1043,1049,1053,1053,1053,1050,1030,1023,1021,1021,1021,1024,1025,1030,1030,1033,1034,1035,1036,1038,1041,1042,1042,1045,1046,1046,1046,1046,1046,1047,1048,1055,1061],"ymouse":[636,636,636,636,636,636,636,636,636,636,636,636,636,636,636,636,636,636,634,634,634,633,633,633,633,633,633,633,633,633,633,633,633,633,633,633,633,633,633,633,631,629,627,627,627,627,627,627,627,627,627,627,627,626,626,626,626,626,623,623,622,622,622,622,621,596,579,554,522,478,376,345,335,322,317,279,258,234,196,163,142,111,105,103,103,96,92,88,83,83,82,82,82,82,80,80,80,80,80,80,80,80,80,80,80,80,80,79],"timestamp_mouse":[17,39,58,79,97,117,138,159,178,198,217,237,258,278,299,318,337,357,378,398,418,439,458,478,499,519,537,559,578,598,618,638,659,678,699,718,739,757,779,798,818,838,857,877,898,918,939,959,979,998,1018,1038,1057,1079,1098,1117,1138,1157,1179,1199,1217,1238,1257,1278,1299,1317,1338,1359,1379,1398,1418,1438,1459,1478,1497,1517,1537,1558,1578,1598,1618,1639,1658,1679,1698,1717,1737,1757,1778,1799,1818,1838,1859,1877,1897,1917,1938,1958,1978,1998,2018,2038,2058,2078,2098,2118,2138,2157],"xSR":741.5,"ySR":573.95,"xT1":424.9,"yT1":0,"xT2":1058.1,"yT2":0,"toosoon":0,"cond_shown":"Congruent","ratio_trial":200,"L_num":3,"L_den":10,"R_num":7,"R_den":14,"correct_side":2,"subjID":"MatiasLopez34","gender":"0","school":"4","age":"9"},{"start_time":1552327997628,"click_time":1552327999496,"finger_time":1552327999196,"fix_duration":250,"trial":34,"RT":1568,"MT":300,"sideResp":1,"stimulus":[],"xmouse":[799,799,799,793,787,781,777,770,770,770,770,768,767,766,766,765,765,765,766,767,768,769,771,772,772,772,772,772,772,772,772,772,772,772,772,772,772,772,772,771,771,771,771,771,771,771,771,771,771,771,771,771,770,770,770,770,770,769,769,769,769,768,768,767,766,766,766,766,766,766,766,766,766,768,769,769,767,746,719,699,682,666,643,635,630,625,624,609,597,579,551,520,458,439],"ymouse":[617,617,617,617,618,619,621,628,629,629,630,631,632,632,632,634,635,636,638,640,641,643,646,647,647,647,647,647,647,647,647,647,647,647,647,647,647,649,651,652,653,653,653,654,654,654,654,654,654,654,654,655,656,656,656,656,656,656,656,656,657,657,657,657,658,658,658,659,659,659,659,659,659,659,659,657,649,613,581,557,534,512,468,450,433,418,404,342,307,261,215,162,111,97],"timestamp_mouse":[14,28,47,68,89,108,127,147,169,188,209,228,248,269,289,307,328,348,368,389,409,428,448,469,489,508,528,547,567,589,608,628,649,669,688,707,727,748,768,789,807,828,849,867,888,907,928,949,967,989,1009,1028,1048,1068,1088,1108,1129,1148,1169,1188,1207,1229,1248,1267,1288,1308,1329,1347,1369,1388,1409,1427,1448,1468,1489,1508,1527,1548,1568,1587,1608,1629,1648,1668,1688,1707,1728,1748,1769,1787,1808,1828,1849,1868],"xSR":741.5,"ySR":573.95,"xT1":424.9,"yT1":0,"xT2":1058.1,"yT2":0,"toosoon":0,"cond_shown":"Incongruent","ratio_trial":300,"L_num":4,"L_den":20,"R_num":2,"R_den":4,"correct_side":2,"subjID":"MatiasLopez34","gender":"0","school":"4","age":"9"},{"start_time":1552328003187,"click_time":1552328006896,"finger_time":1552328004576,"fix_duration":710.138797522584,"trial":35,"RT":1389,"MT":2320,"sideResp":2,"stimulus":[],"xmouse":[800,800,800,800,800,800,800,800,800,800,800,798,795,794,793,793,793,793,793,793,793,793,793,793,793,793,793,793,793,793,795,795,795,796,797,798,798,799,802,807,807,807,807,807,808,809,809,810,811,811,811,812,812,813,813,813,813,813,814,814,814,814,814,814,814,814,814,818,827,853,871,881,881,881,872,841,826,825,824,826,824,812,796,775,756,745,744,743,741,735,733,732,731,731,731,731,732,739,743,759,770,783,797,815,848,866,891,924,979,1007,1034,1037,1037,1037,1042,1048,1058,1071,1079,1084,1084,1084,1085,1085,1085,1086,1087,1088,1089,1090,1092,1092,1093,1093,1094,1095,1096,1096,1097,1097,1098,1098,1099,1099,1099,1099,1099,1100,1100,1100,1100,1100,1100,1100,1100,1101,1101,1101,1101,1101,1101,1101,1101,1101,1101,1101,1101,1101,1101,1101,1101,1101,1101,1101,1101,1101,1101,1101,1101,1101,1101,1101,1102,1102,1102,1102],"ymouse":[640,640,640,640,640,640,640,640,640,640,640,641,643,644,645,645,645,645,645,645,645,645,645,645,645,645,645,645,645,645,645,645,645,645,645,645,645,645,645,645,645,645,645,645,645,645,645,645,645,645,645,645,645,646,646,646,646,646,646,646,646,646,646,646,646,646,646,646,644,629,616,606,598,587,573,506,473,464,436,395,373,349,326,306,291,283,282,281,277,270,266,265,264,264,264,264,263,260,257,251,246,240,234,226,214,208,200,192,175,166,157,155,155,155,154,150,146,140,137,136,136,136,135,135,135,135,134,133,132,131,129,128,126,126,125,123,122,120,118,117,115,113,112,110,109,109,108,107,107,106,106,106,106,106,106,105,105,105,105,105,105,105,105,105,105,105,105,105,105,105,105,105,105,105,105,105,105,104,104,104,104,103,102,101,100,99],"timestamp_mouse":[11,30,49,69,89,108,128,149,170,189,208,229,248,269,289,309,329,349,370,388,410,430,449,468,488,510,528,549,570,589,609,629,649,669,690,709,729,748,770,789,809,830,848,868,889,910,929,949,969,990,1009,1030,1050,1069,1088,1110,1130,1149,1169,1189,1209,1230,1249,1270,1289,1310,1330,1348,1369,1389,1409,1428,1450,1470,1489,1509,1530,1549,1570,1589,1609,1629,1650,1669,1690,1709,1730,1749,1770,1789,1809,1830,1850,1869,1890,1908,1929,1949,1968,1989,2009,2029,2049,2069,2090,2108,2128,2149,2169,2190,2210,2229,2250,2269,2290,2309,2329,2348,2368,2389,2409,2429,2450,2470,2488,2508,2529,2548,2570,2589,2609,2629,2650,2669,2690,2709,2729,2749,2769,2788,2809,2829,2849,2870,2889,2909,2928,2949,2969,2989,3009,3029,3050,3069,3089,3109,3130,3150,3170,3190,3210,3230,3249,3270,3289,3309,3330,3350,3370,3389,3409,3429,3449,3470,3490,3510,3528,3548,3569,3590,3610,3630,3649,3669,3689,3709],"xSR":741.5,"ySR":573.95,"xT1":424.9,"yT1":0,"xT2":1058.1,"yT2":0,"toosoon":0,"cond_shown":"Incongruent","ratio_trial":200,"L_num":1,"L_den":2,"R_num":3,"R_den":10,"correct_side":1,"subjID":"MatiasLopez34","gender":"0","school":"4","age":"9"},{"start_time":1552328008603,"click_time":1552328010276,"finger_time":1552328009677,"fix_duration":345.21786897255294,"trial":36,"RT":1074,"MT":599,"sideResp":1,"stimulus":[],"xmouse":[832,832,832,832,832,832,832,832,832,832,832,832,832,832,832,832,832,832,831,827,822,810,796,785,772,772,772,772,772,772,772,772,772,772,772,772,772,772,772,772,772,772,772,772,772,772,772,772,772,772,772,772,769,764,757,756,756,755,754,753,752,751,751,750,744,738,728,712,700,678,669,658,646,628,606,593,585,580,575,571,565,554,535,504],"ymouse":[638,638,638,638,638,638,638,638,638,638,638,638,638,638,638,638,638,638,638,635,631,623,612,605,596,596,596,596,596,596,596,596,596,596,596,596,596,596,596,596,596,596,596,596,596,596,596,596,596,596,595,592,579,566,542,538,537,533,527,514,507,501,497,492,459,428,388,331,287,211,182,157,139,117,98,91,87,85,83,83,82,81,76,71],"timestamp_mouse":[21,43,53,72,93,113,133,154,173,192,212,233,254,272,292,312,333,353,373,393,414,433,453,472,492,513,533,554,573,592,614,634,652,672,692,713,734,752,772,794,813,833,853,873,892,912,934,952,974,994,1013,1034,1052,1074,1093,1114,1132,1153,1174,1193,1213,1233,1252,1272,1292,1314,1333,1353,1374,1393,1413,1434,1454,1473,1493,1514,1533,1554,1573,1593,1613,1633,1654,1673],"xSR":741.5,"ySR":573.95,"xT1":424.9,"yT1":0,"xT2":1058.1,"yT2":0,"toosoon":0,"cond_shown":"Incongruent","ratio_trial":300,"L_num":13,"L_den":26,"R_num":12,"R_den":15,"correct_side":2,"subjID":"MatiasLopez34","gender":"0","school":"4","age":"9"},{"start_time":1552328014043,"click_time":1552328014816,"finger_time":1552328014297,"fix_duration":545.4619146015029,"trial":37,"RT":254,"MT":519,"sideResp":2,"stimulus":[],"xmouse":[784,784,784,784,784,784,784,784,788,791,809,829,893,931,963,986,1004,1022,1066,1104,1145,1168,1181,1181,1181,1181,1181,1181,1181,1181,1182,1183,1183,1180,1170,1156,1143,1136,1133],"ymouse":[651,651,651,651,651,651,651,651,650,649,639,625,582,559,540,527,512,498,462,437,415,406,401,401,401,401,401,401,401,400,394,386,376,349,330,298,252,192,53],"timestamp_mouse":[13,35,53,73,92,114,133,153,173,194,212,233,254,272,293,313,334,352,373,393,412,433,453,473,494,513,534,553,573,593,613,633,653,673,694,713,733,753,773],"xSR":741.5,"ySR":573.95,"xT1":424.9,"yT1":0,"xT2":1058.1,"yT2":0,"toosoon":0,"cond_shown":"Incongruent","ratio_trial":100,"L_num":9,"L_den":10,"R_num":20,"R_den":25,"correct_side":1,"subjID":"MatiasLopez34","gender":"0","school":"4","age":"9"},{"start_time":1552328021586,"click_time":1552328023418,"finger_time":1552328022996,"fix_duration":486.74522720991087,"trial":38,"RT":1410,"MT":422,"sideResp":2,"stimulus":[],"xmouse":[787,787,787,787,787,787,787,787,787,787,787,787,787,787,787,787,786,786,786,786,786,786,786,786,786,786,786,786,786,786,786,786,786,786,785,784,784,784,784,784,783,782,782,782,782,782,781,781,781,781,781,781,781,781,781,781,781,781,781,781,780,780,780,779,779,779,779,778,784,788,793,796,796,796,800,809,865,959,1062,1197,1240,1257,1260,1260,1260,1261,1250,1225,1215,1174,1138,1104],"ymouse":[660,660,660,660,660,660,660,660,660,660,660,659,659,659,659,659,658,657,657,657,657,657,657,657,657,657,657,657,657,657,657,657,656,656,656,656,656,656,656,656,656,656,656,656,656,656,656,656,656,656,656,656,656,656,656,656,656,656,656,656,656,656,656,656,656,656,656,652,625,599,562,496,471,452,435,412,370,345,329,306,304,303,303,302,301,288,249,218,207,172,137,78],"timestamp_mouse":[9,37,50,70,90,109,129,149,170,189,211,230,250,270,289,311,330,351,371,389,410,431,451,471,490,510,530,550,570,590,610,631,650,671,691,710,729,751,770,790,811,830,849,869,891,910,930,951,970,990,1010,1030,1051,1070,1090,1110,1131,1150,1169,1191,1211,1231,1249,1271,1290,1310,1330,1351,1369,1391,1410,1431,1450,1470,1490,1510,1531,1550,1570,1590,1610,1630,1650,1670,1690,1710,1731,1750,1770,1790,1809,1831],"xSR":741.5,"ySR":573.95,"xT1":424.9,"yT1":0,"xT2":1058.1,"yT2":0,"toosoon":0,"cond_shown":"Congruent","ratio_trial":300,"L_num":3,"L_den":12,"R_num":11,"R_den":20,"correct_side":2,"subjID":"MatiasLopez34","gender":"0","school":"4","age":"9"},{"start_time":1552328028946,"click_time":1552328030756,"finger_time":1552328030177,"fix_duration":250,"trial":39,"RT":1231,"MT":579,"sideResp":1,"stimulus":[],"xmouse":[778,778,778,778,778,778,778,778,778,778,778,778,778,778,778,778,778,778,778,778,779,779,780,780,780,780,780,780,780,780,780,780,780,780,780,780,780,780,780,780,780,780,780,780,780,780,780,781,781,781,781,781,781,781,781,781,781,781,781,779,775,768,759,746,731,666,598,572,507,475,473,472,472,472,479,481,484,490,495,501,521,534,547,559,567,546,532,491,469,459,450],"ymouse":[586,586,586,586,586,586,586,586,586,586,586,586,586,586,586,586,586,586,588,595,597,600,602,602,602,602,602,602,602,602,602,602,603,603,605,605,605,605,605,606,606,607,608,610,610,610,610,611,611,611,611,611,611,612,612,612,612,612,612,602,588,571,555,535,516,459,403,380,317,276,267,264,261,258,245,239,234,225,218,210,174,140,99,36,0,0,0,0,0,0,6],"timestamp_mouse":[10,29,56,70,90,110,131,150,170,190,209,230,251,270,289,309,330,351,369,389,410,431,451,471,490,510,529,551,570,590,610,629,651,671,690,710,730,751,770,790,810,830,850,869,891,909,929,950,971,989,1009,1030,1050,1070,1090,1109,1129,1149,1171,1190,1211,1231,1251,1271,1289,1310,1330,1350,1371,1390,1410,1430,1450,1470,1491,1510,1530,1550,1570,1590,1610,1630,1649,1670,1691,1710,1729,1750,1771,1791,1810],"xSR":741.5,"ySR":573.95,"xT1":424.9,"yT1":0,"xT2":1058.1,"yT2":0,"toosoon":0,"cond_shown":"Incongruent","ratio_trial":200,"L_num":6,"L_den":20,"R_num":3,"R_den":6,"correct_side":2,"subjID":"MatiasLopez34","gender":"0","school":"4","age":"9"},{"start_time":1552328035157,"click_time":1552328036616,"finger_time":1552328036437,"fix_duration":419.364394726342,"trial":40,"RT":1280,"MT":179,"sideResp":2,"stimulus":[],"xmouse":[783,783,783,783,783,783,783,783,783,783,783,783,783,783,783,783,783,783,783,783,783,783,783,783,783,783,783,783,783,783,783,783,783,783,783,783,783,783,783,783,783,783,783,783,783,783,783,783,783,783,783,783,783,783,783,783,783,783,783,783,786,790,837,885,952,966,967,967,967,977,1017,1049,1088],"ymouse":[608,608,608,608,608,608,608,608,608,608,608,608,608,608,608,608,608,608,608,608,608,608,608,608,608,608,608,608,608,608,608,608,608,608,608,608,608,608,608,608,608,608,608,608,608,608,608,608,608,608,608,608,608,608,608,608,608,608,608,608,608,608,588,560,485,441,405,361,320,259,169,132,93],"timestamp_mouse":[19,39,59,79,100,119,138,160,178,199,219,240,259,279,300,318,339,359,378,398,419,440,459,478,499,518,539,558,578,600,618,640,659,678,698,718,740,760,779,800,818,838,858,879,898,918,940,959,979,998,1019,1040,1058,1078,1099,1119,1138,1158,1180,1200,1219,1239,1260,1280,1299,1320,1339,1359,1380,1399,1420,1440,1459],"xSR":741.5,"ySR":573.95,"xT1":424.9,"yT1":0,"xT2":1058.1,"yT2":0,"toosoon":0,"cond_shown":"Incongruent","ratio_trial":300,"L_num":7,"L_den":10,"R_num":8,"R_den":20,"correct_side":1,"subjID":"MatiasLopez34","gender":"0","school":"4","age":"9"},{"start_time":1552328038449,"click_time":1552328040236,"finger_time":1552328040057,"fix_duration":250,"trial":41,"RT":1608,"MT":179,"sideResp":1,"stimulus":[],"xmouse":[832,831,831,829,827,825,821,821,821,821,821,821,821,821,821,821,821,821,821,821,821,821,821,821,821,821,821,821,821,821,821,821,821,821,821,821,821,818,818,818,818,818,818,818,818,816,816,816,816,816,816,816,816,816,815,815,815,814,814,814,814,814,814,814,814,813,813,813,812,812,812,812,812,812,811,801,788,769,760,754,739,720,694,662,632,577,557,542,529,516],"ymouse":[653,653,653,652,651,651,649,649,649,649,648,648,648,648,648,648,648,648,648,648,648,648,648,648,648,648,648,648,648,648,648,648,648,648,648,648,648,648,648,648,648,648,648,648,648,648,648,648,648,648,648,648,648,648,648,648,648,649,649,649,649,649,649,649,649,649,649,649,650,650,650,650,650,650,650,637,622,599,587,577,547,514,461,396,331,207,161,130,106,78],"timestamp_mouse":[12,42,48,66,87,106,126,148,166,188,206,227,248,267,286,307,326,346,367,387,407,426,446,466,488,507,527,548,566,587,608,626,647,668,686,706,727,747,768,787,807,828,847,867,887,907,928,948,968,987,1007,1027,1047,1066,1087,1106,1128,1146,1166,1187,1208,1226,1246,1266,1286,1308,1327,1346,1367,1387,1407,1428,1446,1467,1488,1508,1528,1546,1567,1587,1608,1627,1648,1666,1687,1708,1726,1746,1766,1787],"xSR":741.5,"ySR":573.95,"xT1":424.9,"yT1":0,"xT2":1058.1,"yT2":0,"toosoon":0,"cond_shown":"Incongruent","ratio_trial":200,"L_num":7,"L_den":15,"R_num":6,"R_den":9,"correct_side":2,"subjID":"MatiasLopez34","gender":"0","school":"4","age":"9"},{"start_time":1552328041928,"click_time":1552328042476,"finger_time":1552328041989,"fix_duration":250,"trial":42,"RT":61,"MT":487,"sideResp":2,"stimulus":[],"xmouse":[800,800,814,814,863,874,878,882,883,884,887,889,889,890,891,894,898,913,925,943,961,980,1011,1020,1027,1038,1049,1065],"ymouse":[632,632,564,564,459,432,416,389,377,367,358,351,348,347,345,338,328,298,275,247,219,190,134,116,99,81,63,44],"timestamp_mouse":[10,29,61,69,88,108,127,149,168,188,207,229,249,268,288,308,328,349,367,387,409,428,447,469,487,507,528,548],"xSR":741.5,"ySR":573.95,"xT1":424.9,"yT1":0,"xT2":1058.1,"yT2":0,"toosoon":0,"cond_shown":"Incongruent","ratio_trial":100,"L_num":4,"L_den":8,"R_num":8,"R_den":20,"correct_side":1,"subjID":"MatiasLopez34","gender":"0","school":"4","age":"9"},{"start_time":1552328043744,"click_time":1552328050217,"finger_time":1552328045256,"fix_duration":266.5981894578907,"trial":43,"RT":1512,"MT":4961,"sideResp":1,"stimulus":[],"xmouse":[828,828,828,828,828,828,828,828,828,828,828,828,828,828,828,828,828,828,828,828,828,828,828,828,828,828,828,828,828,828,828,828,828,828,828,828,828,828,828,828,828,828,828,828,828,828,828,828,828,828,828,828,828,828,828,828,828,828,828,828,828,828,828,828,828,828,828,828,828,828,828,828,828,828,831,850,892,1031,1086,1121,1135,1137,1137,1137,1137,1137,1137,1137,1137,1137,1135,1124,1119,1117,1113,1110,1099,1088,1082,1073,1057,1010,978,939,906,868,761,696,639,597,574,573,573,573,573,572,570,568,567,566,565,565,565,565,565,565,565,565,565,565,565,565,565,565,565,560,554,552,552,551,550,544,541,539,538,538,538,537,537,537,537,537,537,537,537,536,534,533,533,532,532,532,532,530,529,528,527,527,526,526,525,524,524,524,524,524,524,524,524,524,524,524,524,524,524,524,524,524,524,524,524,524,525,525,525,525,525,525,525,525,525,525,525,525,525,525,525,525,525,525,525,525,525,525,525,525,525,525,525,525,525,525,525,525,525,525,525,525,525,525,525,525,525,525,525,525,525,525,525,525,525,525,525,525,525,525,525,525,525,525,525,525,525,525,525,525,525,525,525,524,524,524,524,524,524,524,524,524,524,524,524,524,524,524,524,524,524,524,524,524,524,524,524,524,524,524,524,524,524,524,524,524,524,524,524,524,524,524,524,524,524,524,524,524,524,523,523,522,522,522,522,522,522,522,522,522,522,522,522,522,522,522,522,520],"ymouse":[607,607,607,607,607,607,607,607,607,607,607,607,607,607,607,607,607,607,607,607,607,607,607,607,607,607,607,607,607,607,607,607,607,607,607,607,607,607,607,607,607,607,607,607,607,607,607,607,607,607,607,607,607,607,607,607,607,607,607,607,607,607,607,607,607,607,607,607,607,607,607,607,607,596,582,536,464,298,231,182,152,145,145,145,145,145,145,145,145,145,146,154,157,160,165,169,176,181,184,187,193,195,195,195,195,195,195,195,195,195,194,194,194,194,194,193,188,183,180,176,173,173,173,173,173,173,173,173,173,173,173,173,173,173,172,169,165,165,164,163,162,152,147,145,143,143,143,142,142,142,142,142,142,142,142,141,139,138,136,136,136,136,135,133,131,129,127,125,124,123,122,122,122,121,120,119,119,119,119,119,119,118,118,117,117,117,116,115,113,113,112,112,110,109,109,109,109,109,109,109,109,109,109,109,109,109,109,109,109,109,109,109,109,109,109,106,105,104,104,104,104,104,104,104,104,104,104,104,104,104,104,104,104,103,102,102,102,102,102,102,102,102,102,102,102,102,102,102,102,102,102,102,102,102,102,102,102,102,101,101,101,101,101,101,101,101,101,101,101,101,101,101,101,101,101,101,101,101,101,101,101,101,101,101,101,101,101,101,101,101,101,101,101,101,101,101,101,101,101,101,101,101,101,101,101,101,100,100,100,100,100,100,100,100,100,100,100,100,100,100,100,100,100,99],"timestamp_mouse":[13,34,53,73,93,111,132,153,173,192,212,231,251,273,293,312,331,353,372,392,412,432,453,471,492,512,531,553,573,592,612,633,651,673,691,713,733,751,771,793,812,831,852,872,893,912,933,951,971,993,1013,1033,1051,1072,1092,1113,1133,1151,1171,1192,1212,1232,1253,1273,1293,1311,1331,1353,1371,1393,1411,1431,1453,1471,1493,1512,1531,1552,1573,1593,1612,1632,1652,1672,1692,1712,1732,1752,1773,1792,1813,1831,1853,1872,1892,1913,1932,1953,1973,1991,2011,2031,2051,2072,2093,2112,2132,2151,2171,2191,2211,2231,2252,2272,2291,2311,2331,2352,2371,2392,2413,2433,2452,2471,2491,2512,2532,2552,2573,2592,2612,2632,2652,2672,2692,2712,2732,2752,2773,2792,2812,2832,2852,2871,2893,2913,2932,2953,2971,2991,3012,3032,3053,3072,3092,3112,3132,3151,3173,3192,3213,3232,3251,3272,3292,3312,3332,3353,3373,3393,3412,3432,3452,3472,3492,3512,3532,3553,3572,3591,3612,3632,3651,3672,3692,3712,3732,3753,3772,3791,3812,3833,3853,3872,3892,3911,3933,3953,3972,3991,4011,4033,4053,4072,4092,4113,4132,4151,4173,4193,4212,4231,4251,4271,4292,4311,4333,4352,4372,4391,4412,4433,4453,4472,4492,4511,4533,4551,4573,4592,4612,4637,4651,4671,4692,4712,4733,4753,4773,4791,4811,4832,4851,4871,4893,4912,4933,4952,4971,4991,5011,5032,5051,5072,5091,5111,5132,5151,5171,5191,5211,5232,5253,5272,5292,5311,5333,5351,5372,5392,5411,5432,5451,5471,5491,5511,5533,5551,5571,5591,5611,5633,5652,5673,5692,5712,5731,5751,5772,5792,5812,5833,5852,5871,5891,5912,5932,5952,5972,5991,6012,6032,6051,6072,6091,6111,6131,6152,6172,6191,6212,6232,6252,6271,6292,6313,6333,6351,6372,6391,6412,6433,6452,6473],"xSR":741.5,"ySR":573.95,"xT1":424.9,"yT1":0,"xT2":1058.1,"yT2":0,"toosoon":0,"cond_shown":"Congruent","ratio_trial":200,"L_num":3,"L_den":6,"R_num":14,"R_den":20,"correct_side":2,"subjID":"MatiasLopez34","gender":"0","school":"4","age":"9"},{"start_time":1552328058274,"click_time":1552328059336,"finger_time":1552328058615,"fix_duration":396.50335498606694,"trial":44,"RT":341,"MT":721,"sideResp":1,"stimulus":[],"xmouse":[824,826,827,831,832,833,834,834,834,834,834,834,834,834,834,834,834,842,849,872,889,900,910,910,910,910,910,910,910,910,909,888,816,805,806,824,882,1135,1351,1430,1441,1441,1436,1432,1418,1378,1302,1136,1050,995,918,819,571,470],"ymouse":[618,614,607,597,591,588,586,586,586,585,585,585,585,585,585,585,582,553,516,407,324,246,117,41,0,0,0,0,0,0,0,14,139,190,214,229,238,244,244,237,231,227,216,211,207,196,178,149,136,129,116,106,76,70],"timestamp_mouse":[1,21,41,62,81,102,123,142,162,182,201,222,241,263,283,301,321,341,361,381,401,422,441,462,481,502,522,542,562,581,602,622,642,662,682,702,723,742,762,781,802,821,841,862,881,902,921,942,962,982,1002,1022,1042,1062],"xSR":741.5,"ySR":573.95,"xT1":424.9,"yT1":0,"xT2":1058.1,"yT2":0,"toosoon":0,"cond_shown":"Congruent","ratio_trial":300,"L_num":1,"L_den":30,"R_num":8,"R_den":24,"correct_side":2,"subjID":"MatiasLopez34","gender":"0","school":"4","age":"9"},{"start_time":1552328075373,"click_time":1552328076456,"finger_time":1552328075695,"fix_duration":255.55049673269582,"trial":45,"RT":322,"MT":761,"sideResp":2,"stimulus":[],"xmouse":[807,807,807,807,809,810,811,811,812,812,813,814,814,817,822,832,856,872,880,887,887,887,888,888,888,888,888,888,888,888,888,888,888,888,893,906,932,961,994,1030,1035,1036,1036,1036,1033,1027,1023,1020,1020,1020,1020,1028,1039,1050,1088],"ymouse":[608,608,608,607,608,610,610,611,611,612,613,613,613,613,612,609,602,595,588,580,577,574,574,574,574,574,574,574,574,574,574,574,574,574,557,536,499,462,413,328,304,291,288,288,290,301,308,312,312,312,307,290,262,223,83],"timestamp_mouse":[13,39,43,62,82,103,122,143,163,182,203,222,242,264,284,302,322,342,363,382,402,423,443,464,483,504,523,542,563,583,603,624,642,663,682,703,723,742,763,782,802,822,843,864,883,904,923,942,963,982,1004,1023,1043,1064,1082],"xSR":741.5,"ySR":573.95,"xT1":424.9,"yT1":0,"xT2":1058.1,"yT2":0,"toosoon":0,"cond_shown":"Congruent","ratio_trial":200,"L_num":3,"L_den":10,"R_num":11,"R_den":22,"correct_side":2,"subjID":"MatiasLopez34","gender":"0","school":"4","age":"9"},{"start_time":1552328081296,"click_time":1552328083076,"finger_time":1552328082516,"fix_duration":977.9359039724123,"trial":46,"RT":1220,"MT":560,"sideResp":1,"stimulus":[],"xmouse":[802,802,798,776,765,749,747,744,744,744,744,744,744,744,744,745,746,748,749,749,749,749,749,749,749,749,749,749,749,749,749,749,749,750,750,750,750,750,750,750,750,750,750,750,750,750,750,750,750,750,750,750,749,749,749,749,748,747,746,744,743,740,736,711,679,629,568,494,467,467,467,467,467,467,467,467,471,486,511,515,516,516,517,531,531,518,485,473,471,483],"ymouse":[607,607,607,620,630,644,646,650,650,650,650,650,650,650,650,649,647,643,640,640,638,637,636,633,632,631,630,630,630,630,630,630,630,630,630,630,629,629,629,629,629,629,629,629,629,629,629,629,629,629,627,627,627,625,625,624,622,616,609,597,588,569,543,462,409,338,266,181,141,140,140,140,140,140,140,140,142,155,169,171,171,171,138,0,0,0,0,0,0,78],"timestamp_mouse":[10,20,39,59,80,99,121,139,160,179,200,221,240,259,279,300,320,341,360,380,400,420,440,460,480,500,520,540,560,580,599,620,640,660,680,701,720,739,760,781,801,821,840,859,879,901,920,939,959,980,1001,1021,1039,1059,1080,1099,1120,1139,1160,1180,1201,1220,1240,1261,1279,1299,1320,1340,1360,1379,1399,1419,1439,1460,1480,1500,1521,1540,1560,1579,1600,1621,1641,1661,1681,1700,1719,1739,1759,1780],"xSR":741.5,"ySR":573.95,"xT1":424.9,"yT1":0,"xT2":1058.1,"yT2":0,"toosoon":0,"cond_shown":"Incongruent","ratio_trial":200,"L_num":9,"L_den":15,"R_num":8,"R_den":10,"correct_side":2,"subjID":"MatiasLopez34","gender":"0","school":"4","age":"9"},{"start_time":1552328086676,"click_time":1552328087736,"finger_time":1552328087176,"fix_duration":1399.9894108747544,"trial":47,"RT":500,"MT":560,"sideResp":2,"stimulus":[],"xmouse":[778,778,778,778,778,778,778,778,778,778,778,778,778,778,778,777,777,777,777,778,785,788,791,794,802,864,879,890,896,898,898,898,898,898,898,898,898,897,897,897,900,920,959,984,1039,1202,1232,1239,1239,1234,1210,1197,1171,1140],"ymouse":[613,613,613,613,613,613,613,613,613,613,613,613,613,613,613,613,613,613,613,613,613,610,606,603,597,570,557,546,538,536,536,536,536,536,536,536,536,536,536,536,517,475,422,390,338,132,57,20,0,0,0,0,0,6],"timestamp_mouse":[1,19,40,59,80,100,121,140,161,180,200,220,240,260,281,300,320,341,360,379,399,419,440,461,480,500,520,540,560,579,599,619,641,660,681,699,719,739,760,779,800,820,840,859,880,899,920,939,960,980,1000,1019,1040,1060],"xSR":741.5,"ySR":573.95,"xT1":424.9,"yT1":0,"xT2":1058.1,"yT2":0,"toosoon":0,"cond_shown":"Incongruent","ratio_trial":300,"L_num":1,"L_den":2,"R_num":2,"R_den":10,"correct_side":1,"subjID":"MatiasLopez34","gender":"0","school":"4","age":"9"},{"start_time":1552328093919,"click_time":1552328095596,"finger_time":1552328094215,"fix_duration":1402.693521546684,"trial":48,"RT":296,"MT":1381,"sideResp":2,"stimulus":[],"xmouse":[796,796,798,798,798,798,798,798,798,798,798,798,799,805,814,814,793,753,727,710,696,691,682,640,583,541,481,457,445,444,450,493,538,905,1024,1032,1015,760,442,297,242,240,240,275,294,311,318,341,397,407,413,415,415,414,414,414,413,417,499,631,802,985,1131,1302,1332,1340,1340,1340,1169,889,573,303,202,414,813,1239,1525,1525,1525,1525,1525,1554,1464,1064],"ymouse":[639,639,639,639,639,639,639,639,639,639,639,639,638,617,552,487,443,386,363,344,330,326,321,310,294,285,266,255,243,227,193,113,56,0,0,0,10,157,293,344,358,358,350,317,302,287,279,258,205,185,168,158,154,151,151,151,149,146,121,104,102,126,149,173,178,178,178,178,195,219,245,287,303,260,196,130,70,70,70,70,70,44,55,10],"timestamp_mouse":[31,36,57,78,97,116,138,158,178,197,217,237,257,276,296,316,336,357,376,396,417,436,457,476,498,517,537,557,576,596,616,638,657,677,698,717,737,759,777,796,817,836,857,877,896,916,937,958,978,997,1017,1036,1057,1077,1097,1118,1138,1158,1176,1198,1216,1237,1257,1276,1296,1317,1337,1357,1377,1397,1416,1437,1456,1476,1498,1518,1536,1556,1577,1597,1617,1637,1658,1677],"xSR":741.5,"ySR":573.95,"xT1":424.9,"yT1":0,"xT2":1058.1,"yT2":0,"toosoon":0,"cond_shown":"Incongruent","ratio_trial":200,"L_num":11,"L_den":20,"R_num":3,"R_den":4,"correct_side":2,"subjID":"MatiasLopez34","gender":"0","school":"4","age":"9"},{"start_time":1552328102486,"click_time":1552328104497,"finger_time":1552328103716,"fix_duration":1227.3894800124965,"trial":49,"RT":1230,"MT":781,"sideResp":2,"stimulus":[],"xmouse":[776,776,776,776,776,776,776,776,776,776,776,776,778,778,779,779,779,779,779,779,779,779,779,779,779,779,778,778,778,778,778,778,778,778,778,778,778,778,778,778,778,778,778,778,777,777,777,776,776,774,774,774,774,774,774,774,774,774,774,773,773,762,758,755,754,751,751,751,751,751,742,721,697,648,560,382,0,0,0,167,737,1377,1377,1377,1377,1546,1499,1498,1498,1492,1308,1370,1370,1370,1370,1370,1370,1370,1370,1513,1093],"ymouse":[611,611,611,611,611,611,611,611,611,611,611,611,611,610,610,610,610,610,610,610,610,610,610,608,607,606,605,605,605,605,605,605,605,605,605,605,605,605,605,605,605,605,605,605,605,605,604,603,603,603,603,603,603,603,603,603,603,603,603,598,593,564,546,532,528,522,513,506,481,431,363,177,60,0,0,0,0,0,0,1,1,0,0,0,0,0,6,6,8,7,0,0,0,0,0,0,0,0,0,13,60],"timestamp_mouse":[13,44,50,70,89,110,131,150,170,190,209,230,250,270,290,311,329,349,370,389,409,430,450,470,490,510,531,549,570,591,609,629,651,671,691,709,731,749,770,789,811,830,851,870,889,910,931,950,969,990,1009,1031,1050,1071,1091,1110,1129,1150,1170,1190,1209,1230,1249,1269,1290,1310,1329,1350,1369,1389,1410,1429,1452,1469,1489,1511,1531,1550,1571,1590,1610,1631,1650,1669,1690,1709,1729,1750,1770,1789,1810,1831,1849,1869,1890,1910,1931,1950,1970,1990,2011],"xSR":741.5,"ySR":573.95,"xT1":424.9,"yT1":0,"xT2":1058.1,"yT2":0,"toosoon":0,"cond_shown":"Congruent","ratio_trial":300,"L_num":5,"L_den":25,"R_num":7,"R_den":14,"correct_side":2,"subjID":"MatiasLopez34","gender":"0","school":"4","age":"9"},{"start_time":1552328109184,"click_time":1552328111996,"finger_time":1552328110216,"fix_duration":446.7504296975513,"trial":50,"RT":1032,"MT":1780,"sideResp":2,"stimulus":[],"xmouse":[763,763,763,763,763,763,763,763,763,763,763,763,763,763,763,763,763,763,763,763,763,763,763,763,763,763,763,763,763,763,763,756,754,754,754,754,754,754,754,754,754,754,754,754,754,754,756,765,772,780,786,794,795,795,795,795,795,795,796,796,796,796,796,796,796,796,796,796,794,794,793,791,781,777,772,766,741,720,683,666,655,651,651,651,651,653,658,662,667,672,677,681,686,687,688,689,690,695,698,709,737,875,1503,1503,1503,1503,1503,851,210,0,0,0,414,1058,1058,1058,1058,1534,1261,799,258,0,0,0,94,385,775,1435,1435,1435,1532,1215,245,0,0,17,215,1019,1185,1193,1150],"ymouse":[599,599,599,599,599,599,599,599,599,599,599,599,599,599,599,599,599,599,599,599,599,599,599,599,599,599,599,599,599,599,599,599,599,599,599,599,599,599,599,599,599,599,599,599,599,599,599,597,595,589,584,567,560,555,551,546,542,533,531,530,530,530,530,530,529,527,521,517,508,503,501,497,471,457,439,417,342,289,211,173,139,120,105,98,94,90,82,78,76,75,73,72,70,70,70,69,69,67,66,63,57,55,55,55,55,55,55,249,264,263,149,14,0,0,0,0,0,164,252,296,296,279,193,162,137,93,63,36,36,36,37,78,108,115,109,102,29,0,0,0,8],"timestamp_mouse":[14,36,51,71,91,113,132,151,172,191,211,232,251,271,291,312,332,352,373,391,411,431,451,471,491,511,533,553,572,593,613,632,652,671,693,711,731,752,772,792,812,831,852,872,892,913,931,951,971,992,1012,1032,1051,1072,1091,1111,1133,1152,1172,1193,1212,1232,1251,1271,1292,1312,1332,1351,1371,1391,1411,1431,1451,1471,1491,1511,1533,1551,1571,1591,1611,1631,1651,1671,1692,1712,1733,1751,1772,1791,1812,1832,1851,1871,1891,1912,1932,1951,1971,1991,2013,2031,2051,2072,2091,2112,2132,2151,2171,2191,2211,2231,2253,2271,2292,2311,2331,2353,2371,2391,2411,2432,2452,2471,2492,2512,2531,2552,2571,2591,2611,2632,2651,2671,2691,2711,2732,2752,2772,2792,2811],"xSR":741.5,"ySR":573.95,"xT1":424.9,"yT1":0,"xT2":1058.1,"yT2":0,"toosoon":0,"cond_shown":"Congruent","ratio_trial":300,"L_num":20,"L_den":25,"R_num":14,"R_den":28,"correct_side":1,"subjID":"MatiasLopez34","gender":"0","school":"4","age":"9"},{"start_time":1552328117695,"click_time":1552328119477,"finger_time":1552328118415,"fix_duration":1236.1352851063805,"trial":51,"RT":720,"MT":1062,"sideResp":2,"stimulus":[],"xmouse":[80