[{"start_time":1552327636183,"click_time":1552327639428,"finger_time":1552327637227,"fix_duration":668.3398353787533,"trial":0,"RT":1044,"MT":2201,"sideResp":2,"stimulus":[],"xmouse":[788,783,783,768,766,765,764,763,763,762,761,760,760,760,760,760,760,760,760,760,760,760,760,760,760,760,760,760,760,760,760,760,760,760,760,760,760,760,760,760,760,760,760,760,760,760,760,760,760,760,760,760,763,766,767,768,769,769,769,769,769,769,769,769,769,769,769,769,769,769,769,769,769,769,769,769,769,769,769,769,769,769,769,769,769,769,769,769,769,769,769,769,769,769,769,769,769,769,769,769,770,773,781,784,789,797,811,850,882,905,926,944,971,981,994,1007,1023,1050,1057,1069,1075,1080,1090,1095,1100,1104,1108,1114,1118,1122,1124,1125,1125,1125,1124,1122,1121,1119,1117,1116,1115,1113,1113,1113,1113,1113,1112,1110,1110,1110,1110,1110,1109,1109,1109,1109,1109,1109,1109,1109,1109,1109,1109],"ymouse":[493,489,489,476,473,472,472,472,471,471,471,470,470,470,470,470,470,470,470,470,470,470,470,470,470,470,470,470,470,470,470,470,470,470,470,470,470,470,470,470,470,470,470,470,470,470,470,470,470,470,470,470,469,468,467,467,467,467,467,467,467,467,467,467,467,467,467,467,467,467,467,467,467,467,467,467,467,467,467,467,467,467,467,467,467,467,467,467,467,467,467,467,467,467,467,467,467,467,467,467,467,465,462,460,459,455,450,436,421,405,390,377,355,350,344,339,329,306,297,280,271,261,241,229,217,207,196,180,173,162,155,148,141,137,134,131,128,124,120,119,116,114,112,111,110,110,106,104,104,104,104,104,103,103,103,103,102,102,100,100,100,100,99],"timestamp_mouse":[5,35,44,64,85,104,124,144,166,185,204,226,244,264,286,305,324,345,365,385,405,425,445,465,484,504,525,544,564,584,604,625,645,664,685,704,724,745,765,785,805,824,845,866,885,905,924,945,964,984,1005,1025,1044,1064,1085,1105,1124,1144,1165,1185,1205,1224,1244,1264,1284,1305,1325,1345,1364,1385,1405,1425,1444,1464,1485,1504,1525,1545,1565,1585,1605,1625,1644,1664,1685,1705,1725,1745,1765,1785,1804,1824,1844,1865,1885,1904,1925,1945,1965,1984,2005,2026,2044,2065,2084,2104,2124,2144,2166,2184,2204,2225,2244,2264,2284,2304,2324,2344,2364,2384,2404,2425,2445,2464,2485,2504,2524,2545,2564,2584,2605,2625,2644,2664,2684,2704,2725,2744,2765,2784,2804,2825,2845,2864,2884,2904,2925,2944,2965,2984,3004,3024,3045,3065,3084,3105,3125,3145,3164,3185,3204,3225,3244],"xSR":741.5,"ySR":469.95,"xT1":424.9,"yT1":0,"xT2":1058.1,"yT2":0,"toosoon":0,"cond_shown":"Congruent","ratio_trial":200,"L_num":6,"L_den":15,"R_num":3,"R_den":15,"correct_side":1,"subjID":"julianariconolarte3","gender":"1","age":"9","school":"4","test":{"fix_dur":[250,1500],"timestim":1000,"targets_dim":[100,100],"targets_relative_coord":[0.3,0.7],"size_stim":[880,420],"start_dim":[100,100],"size_start":[300,300],"size_fix":60,"samplingrate":20,"img_types":["Congruent","Incongruent"],"ratios":[100,200,300],"rep_conds":19,"nTrials":120,"trials_to_rest":500,"Trials_order":[14,86,27,13,68,99,56,51,32,3,118,48,105,109,28,33,74,30,101,110,92,108,69,95,77,60,54,29,94,85,57,82,90,4,87,115,50,71,65,16,84,18,37,112,78,119,5,52,55,75,2,53,100,72,91,81,10,36,19,38,41,76,63,25,96,8,67,22,11,43,61,47,21,12,31,35,66,117,104,46,7,6,83,15,42,64,97,26,114,59,103,34,89,40,49,39,88,80,106,23,116,70,20,1,111,79,107,58,24,102,9,98,44,73,113,17,93,62,45,0],"cond_shown":["Congruent","Congruent","Incongruent","Incongruent","Congruent","Incongruent","Congruent","Incongruent","Congruent","Incongruent","Congruent","Congruent","Incongruent","Incongruent","Congruent","Incongruent","Congruent","Congruent","Incongruent","Congruent","Congruent","Congruent","Incongruent","Incongruent","Incongruent","Congruent","Congruent","Incongruent","Congruent","Incongruent","Incongruent","Congruent","Congruent","Congruent","Incongruent","Incongruent","Congruent","Incongruent","Incongruent","Congruent","Congruent","Congruent","Incongruent","Congruent","Congruent","Incongruent","Incongruent","Congruent","Incongruent","Incongruent","Congruent","Incongruent","Congruent","Congruent","Incongruent","Incongruent","Congruent","Congruent","Incongruent","Congruent","Incongruent","Congruent","Incongruent","Incongruent","Congruent","Congruent","Incongruent","Congruent","Incongruent","Incongruent","Incongruent","Incongruent","Incongruent","Congruent","Incongruent","Incongruent","Congruent","Incongruent","Congruent","Congruent","Incongruent","Congruent","Incongruent","Incongruent","Congruent","Congruent","Incongruent","Congruent","Congruent","Incongruent","Incongruent","Congruent","Incongruent","Congruent","Incongruent","Incongruent","Congruent","Congruent","Congruent","Incongruent","Congruent","Congruent","Congruent","Incongruent","Incongruent","Incongruent","Incongruent","Congruent","Congruent","Congruent","Incongruent","Congruent","Congruent","Incongruent","Incongruent","Incongruent","Incongruent","Congruent","Incongruent","Congruent"],"ratio_trial":[200,200,200,100,200,200,200,200,200,200,300,100,200,100,300,200,200,100,300,200,200,100,200,300,300,100,100,300,300,100,200,300,100,300,200,100,200,300,300,300,100,100,100,300,100,300,300,300,100,200,200,300,300,100,100,200,300,100,100,200,300,300,200,100,100,200,100,300,300,100,100,300,200,100,100,300,100,200,200,300,100,100,300,200,100,300,100,200,100,300,100,300,300,300,100,200,300,200,300,300,200,300,200,100,200,100,300,300,100,100,200,200,200,100,300,300,200,200,200,100],"left_num":[6,1,7,6,3,14,21,4,21,3,20,15,14,2,5,7,6,1,4,7,16,2,3,2,13,12,4,4,1,11,7,1,6,20,4,12,8,4,1,20,15,6,17,1,10,4,3,2,13,14,3,8,4,6,9,7,1,9,10,5,3,4,6,3,12,4,12,8,13,6,6,8,7,2,3,13,10,7,4,9,12,3,13,9,2,1,6,3,6,3,13,8,13,1,10,4,1,14,20,4,4,11,14,6,4,6,4,1,1,8,9,15,7,6,4,4,14,13,14,10],"right_num":[3,21,6,3,7,6,2,14,2,11,9,13,6,6,6,12,11,3,2,18,12,6,1,6,12,13,15,8,11,9,4,6,15,13,6,2,7,2,2,14,13,5,10,3,3,6,4,10,6,6,9,9,2,5,14,14,7,8,9,14,4,2,3,8,13,3,2,10,12,3,13,14,12,11,8,12,3,8,3,3,9,2,12,8,11,6,11,7,15,4,12,10,12,19,9,6,8,6,5,2,3,1,6,7,14,11,2,3,18,2,8,4,2,13,6,2,12,14,6,3],"left_den":[15,2,15,12,10,30,30,6,30,4,25,25,30,4,25,10,20,2,20,15,20,5,10,4,26,30,10,5,5,22,15,5,12,25,5,30,15,20,2,25,25,20,30,5,25,5,6,20,26,30,12,10,5,20,15,10,20,15,25,10,6,5,20,5,30,8,30,15,26,12,10,10,10,5,5,26,25,10,8,10,24,6,26,15,5,5,10,10,12,6,26,15,26,3,25,5,30,28,25,20,10,22,28,10,6,10,20,5,2,16,15,25,21,10,5,20,30,26,30,25],"right_den":[15,30,9,5,14,9,4,30,4,20,18,26,9,15,12,24,22,5,4,27,20,12,2,30,15,26,30,16,22,15,6,12,25,26,10,4,21,4,10,28,26,25,15,6,10,12,20,25,10,9,20,18,4,25,28,28,20,16,18,20,20,4,6,16,26,10,4,12,15,5,26,28,24,22,16,15,10,16,10,5,15,5,15,10,22,12,22,14,25,20,20,12,15,30,18,10,24,20,10,4,15,5,20,14,30,22,4,6,30,5,10,10,15,26,12,4,18,20,9,10],"correct_side":[1,2,2,2,2,2,1,1,1,1,1,1,2,1,2,1,2,2,2,2,1,2,2,1,2,2,2,1,2,2,2,2,2,1,1,2,1,2,1,1,1,1,2,2,1,1,1,2,2,2,2,1,1,1,1,1,2,1,2,2,1,1,2,1,2,1,2,2,2,2,1,1,1,2,1,2,1,1,1,1,2,1,2,2,2,2,1,2,2,1,2,2,2,2,2,1,2,1,1,2,1,1,1,1,1,1,2,2,2,1,2,1,1,1,1,2,2,2,2,1],"img_shown":["img2/200/Congruent/L/C_Dist_200_LN_6_LD_15_RN_3_RD_15_0.png","img2/200/Congruent/R/C_Dist_200_LN_1_LD_2_RN_21_RD_30_1.png","img2/200/Incongruent/R/I_Dist_200_LN_7_LD_15_RN_6_RD_9_1.png","img2/100/Incongruent/R/I_Dist_100_LN_6_LD_12_RN_3_RD_5_1.png","img2/200/Congruent/R/C_Dist_200_LN_3_LD_10_RN_7_RD_14_1.png","img2/200/Incongruent/R/I_Dist_200_LN_14_LD_30_RN_6_RD_9_1.png","img2/200/Congruent/L/C_Dist_200_LN_21_LD_30_RN_2_RD_4_0.png","img2/200/Incongruent/L/I_Dist_200_LN_4_LD_6_RN_14_RD_30_0.png","img2/200/Congruent/L/C_Dist_200_LN_21_LD_30_RN_2_RD_4_0.png","img2/200/Incongruent/L/I_Dist_200_LN_3_LD_4_RN_11_RD_20_0.png","img2/300/Congruent/L/C_Dist_300_LN_20_LD_25_RN_9_RD_18_0.png","img2/100/Congruent/L/C_Dist_100_LN_15_LD_25_RN_13_RD_26_0.png","img2/200/Incongruent/R/I_Dist_200_LN_14_LD_30_RN_6_RD_9_1.png","img2/100/Incongruent/L/I_Dist_100_LN_2_LD_4_RN_6_RD_15_0.png","img2/300/Congruent/R/C_Dist_300_LN_5_LD_25_RN_6_RD_12_1.png","img2/200/Incongruent/L/I_Dist_200_LN_7_LD_10_RN_12_RD_24_0.png","img2/200/Congruent/R/C_Dist_200_LN_6_LD_20_RN_11_RD_22_1.png","img2/100/Congruent/R/C_Dist_100_LN_1_LD_2_RN_3_RD_5_1.png","img2/300/Incongruent/R/I_Dist_300_LN_4_LD_20_RN_2_RD_4_1.png","img2/200/Congruent/R/C_Dist_200_LN_7_LD_15_RN_18_RD_27_1.png","img2/200/Congruent/L/C_Dist_200_LN_16_LD_20_RN_12_RD_20_0.png","img2/100/Congruent/R/C_Dist_100_LN_2_LD_5_RN_6_RD_12_1.png","img2/200/Incongruent/R/I_Dist_200_LN_3_LD_10_RN_1_RD_2_1.png","img2/300/Incongruent/L/I_Dist_300_LN_2_LD_4_RN_6_RD_30_0.png","img2/300/Incongruent/R/I_Dist_300_LN_13_LD_26_RN_12_RD_15_1.png","img2/100/Congruent/R/C_Dist_100_LN_12_LD_30_RN_13_RD_26_1.png","img2/100/Congruent/R/C_Dist_100_LN_4_LD_10_RN_15_RD_30_1.png","img2/300/Incongruent/L/I_Dist_300_LN_4_LD_5_RN_8_RD_16_0.png","img2/300/Congruent/R/C_Dist_300_LN_1_LD_5_RN_11_RD_22_1.png","img2/100/Incongruent/R/I_Dist_100_LN_11_LD_22_RN_9_RD_15_1.png","img2/200/Incongruent/R/I_Dist_200_LN_7_LD_15_RN_4_RD_6_1.png","img2/300/Congruent/R/C_Dist_300_LN_1_LD_5_RN_6_RD_12_1.png","img2/100/Congruent/R/C_Dist_100_LN_6_LD_12_RN_15_RD_25_1.png","img2/300/Congruent/L/C_Dist_300_LN_20_LD_25_RN_13_RD_26_0.png","img2/200/Incongruent/L/I_Dist_200_LN_4_LD_5_RN_6_RD_10_0.png","img2/100/Incongruent/R/I_Dist_100_LN_12_LD_30_RN_2_RD_4_1.png","img2/200/Congruent/L/C_Dist_200_LN_8_LD_15_RN_7_RD_21_0.png","img2/300/Incongruent/R/I_Dist_300_LN_4_LD_20_RN_2_RD_4_1.png","img2/300/Incongruent/L/I_Dist_300_LN_1_LD_2_RN_2_RD_10_0.png","img2/300/Congruent/L/C_Dist_300_LN_20_LD_25_RN_14_RD_28_0.png","img2/100/Congruent/L/C_Dist_100_LN_15_LD_25_RN_13_RD_26_0.png","img2/100/Congruent/L/C_Dist_100_LN_6_LD_20_RN_5_RD_25_0.png","img2/100/Incongruent/R/I_Dist_100_LN_17_LD_30_RN_10_RD_15_1.png","img2/300/Congruent/R/C_Dist_300_LN_1_LD_5_RN_3_RD_6_1.png","img2/100/Congruent/L/C_Dist_100_LN_10_LD_25_RN_3_RD_10_0.png","img2/300/Incongruent/L/I_Dist_300_LN_4_LD_5_RN_6_RD_12_0.png","img2/300/Incongruent/L/I_Dist_300_LN_3_LD_6_RN_4_RD_20_0.png","img2/300/Congruent/R/C_Dist_300_LN_2_LD_20_RN_10_RD_25_1.png","img2/100/Incongruent/R/I_Dist_100_LN_13_LD_26_RN_6_RD_10_1.png","img2/200/Incongruent/R/I_Dist_200_LN_14_LD_30_RN_6_RD_9_1.png","img2/200/Congruent/R/C_Dist_200_LN_3_LD_12_RN_9_RD_20_1.png","img2/300/Incongruent/L/I_Dist_300_LN_8_LD_10_RN_9_RD_18_0.png","img2/300/Congruent/L/C_Dist_300_LN_4_LD_5_RN_2_RD_4_0.png","img2/100/Congruent/L/C_Dist_100_LN_6_LD_20_RN_5_RD_25_0.png","img2/100/Incongruent/L/I_Dist_100_LN_9_LD_15_RN_14_RD_28_0.png","img2/200/Incongruent/L/I_Dist_200_LN_7_LD_10_RN_14_RD_28_0.png","img2/300/Congruent/R/C_Dist_300_LN_1_LD_20_RN_7_RD_20_1.png","img2/100/Congruent/L/C_Dist_100_LN_9_LD_15_RN_8_RD_16_0.png","img2/100/Incongruent/R/I_Dist_100_LN_10_LD_25_RN_9_RD_18_1.png","img2/200/Congruent/R/C_Dist_200_LN_5_LD_10_RN_14_RD_20_1.png","img2/300/Incongruent/L/I_Dist_300_LN_3_LD_6_RN_4_RD_20_0.png","img2/300/Congruent/L/C_Dist_300_LN_4_LD_5_RN_2_RD_4_0.png","img2/200/Incongruent/R/I_Dist_200_LN_6_LD_20_RN_3_RD_6_1.png","img2/100/Incongruent/L/I_Dist_100_LN_3_LD_5_RN_8_RD_16_0.png","img2/100/Congruent/R/C_Dist_100_LN_12_LD_30_RN_13_RD_26_1.png","img2/200/Congruent/L/C_Dist_200_LN_4_LD_8_RN_3_RD_10_0.png","img2/100/Incongruent/R/I_Dist_100_LN_12_LD_30_RN_2_RD_4_1.png","img2/300/Congruent/R/C_Dist_300_LN_8_LD_15_RN_10_RD_12_1.png","img2/300/Incongruent/R/I_Dist_300_LN_13_LD_26_RN_12_RD_15_1.png","img2/100/Incongruent/R/I_Dist_100_LN_6_LD_12_RN_3_RD_5_1.png","img2/100/Incongruent/L/I_Dist_100_LN_6_LD_10_RN_13_RD_26_0.png","img2/300/Incongruent/L/I_Dist_300_LN_8_LD_10_RN_14_RD_28_0.png","img2/200/Incongruent/L/I_Dist_200_LN_7_LD_10_RN_12_RD_24_0.png","img2/100/Congruent/R/C_Dist_100_LN_2_LD_5_RN_11_RD_22_1.png","img2/100/Incongruent/L/I_Dist_100_LN_3_LD_5_RN_8_RD_16_0.png","img2/300/Incongruent/R/I_Dist_300_LN_13_LD_26_RN_12_RD_15_1.png","img2/100/Congruent/L/C_Dist_100_LN_10_LD_25_RN_3_RD_10_0.png","img2/200/Incongruent/L/I_Dist_200_LN_7_LD_10_RN_8_RD_16_0.png","img2/200/Congruent/L/C_Dist_200_LN_4_LD_8_RN_3_RD_10_0.png","img2/300/Congruent/L/C_Dist_300_LN_9_LD_10_RN_3_RD_5_0.png","img2/100/Incongruent/R/I_Dist_100_LN_12_LD_24_RN_9_RD_15_1.png","img2/100/Congruent/L/C_Dist_100_LN_3_LD_6_RN_2_RD_5_0.png","img2/300/Incongruent/R/I_Dist_300_LN_13_LD_26_RN_12_RD_15_1.png","img2/200/Incongruent/R/I_Dist_200_LN_9_LD_15_RN_8_RD_10_1.png","img2/100/Congruent/R/C_Dist_100_LN_2_LD_5_RN_11_RD_22_1.png","img2/300/Congruent/R/C_Dist_300_LN_1_LD_5_RN_6_RD_12_1.png","img2/100/Incongruent/L/I_Dist_100_LN_6_LD_10_RN_11_RD_22_0.png","img2/200/Congruent/R/C_Dist_200_LN_3_LD_10_RN_7_RD_14_1.png","img2/100/Congruent/R/C_Dist_100_LN_6_LD_12_RN_15_RD_25_1.png","img2/300/Incongruent/L/I_Dist_300_LN_3_LD_6_RN_4_RD_20_0.png","img2/100/Incongruent/R/I_Dist_100_LN_13_LD_26_RN_12_RD_20_1.png","img2/300/Congruent/R/C_Dist_300_LN_8_LD_15_RN_10_RD_12_1.png","img2/300/Incongruent/R/I_Dist_300_LN_13_LD_26_RN_12_RD_15_1.png","img2/300/Congruent/R/C_Dist_300_LN_1_LD_3_RN_19_RD_30_1.png","img2/100/Incongruent/R/I_Dist_100_LN_10_LD_25_RN_9_RD_18_1.png","img2/200/Incongruent/L/I_Dist_200_LN_4_LD_5_RN_6_RD_10_0.png","img2/300/Congruent/R/C_Dist_300_LN_1_LD_30_RN_8_RD_24_1.png","img2/200/Congruent/L/C_Dist_200_LN_14_LD_28_RN_6_RD_20_0.png","img2/300/Congruent/L/C_Dist_300_LN_20_LD_25_RN_5_RD_10_0.png","img2/300/Incongruent/R/I_Dist_300_LN_4_LD_20_RN_2_RD_4_1.png","img2/200/Congruent/L/C_Dist_200_LN_4_LD_10_RN_3_RD_15_0.png","img2/300/Congruent/L/C_Dist_300_LN_11_LD_22_RN_1_RD_5_0.png","img2/200/Congruent/L/C_Dist_200_LN_14_LD_28_RN_6_RD_20_0.png","img2/100/Incongruent/L/I_Dist_100_LN_6_LD_10_RN_7_RD_14_0.png","img2/200/Incongruent/L/I_Dist_200_LN_4_LD_6_RN_14_RD_30_0.png","img2/100/Incongruent/L/I_Dist_100_LN_6_LD_10_RN_11_RD_22_0.png","img2/300/Incongruent/R/I_Dist_300_LN_4_LD_20_RN_2_RD_4_1.png","img2/300/Congruent/R/C_Dist_300_LN_1_LD_5_RN_3_RD_6_1.png","img2/100/Congruent/R/C_Dist_100_LN_1_LD_2_RN_18_RD_30_1.png","img2/100/Congruent/L/C_Dist_100_LN_8_LD_16_RN_2_RD_5_0.png","img2/200/Incongruent/R/I_Dist_200_LN_9_LD_15_RN_8_RD_10_1.png","img2/200/Congruent/L/C_Dist_200_LN_15_LD_25_RN_4_RD_10_0.png","img2/200/Congruent/L/C_Dist_200_LN_7_LD_21_RN_2_RD_15_0.png","img2/100/Incongruent/L/I_Dist_100_LN_6_LD_10_RN_13_RD_26_0.png","img2/300/Incongruent/L/I_Dist_300_LN_4_LD_5_RN_6_RD_12_0.png","img2/300/Incongruent/R/I_Dist_300_LN_4_LD_20_RN_2_RD_4_1.png","img2/200/Incongruent/R/I_Dist_200_LN_14_LD_30_RN_12_RD_18_1.png","img2/200/Congruent/R/C_Dist_200_LN_13_LD_26_RN_14_RD_20_1.png","img2/200/Incongruent/R/I_Dist_200_LN_14_LD_30_RN_6_RD_9_1.png","img2/100/Congruent/L/C_Dist_100_LN_10_LD_25_RN_3_RD_10_0.png"],"dist100_C":[["C_Dist_100_LN_10_LD_25_RN_3_RD_10_0.png","C_Dist_100_LN_11_LD_22_RN_4_RD_10_0.png","C_Dist_100_LN_11_LD_22_RN_6_RD_15_0.png","C_Dist_100_LN_15_LD_25_RN_13_RD_26_0.png","C_Dist_100_LN_3_LD_6_RN_2_RD_5_0.png","C_Dist_100_LN_6_LD_20_RN_5_RD_25_0.png","C_Dist_100_LN_8_LD_16_RN_2_RD_5_0.png","C_Dist_100_LN_9_LD_15_RN_8_RD_16_0.png"],["C_Dist_100_LN_1_LD_2_RN_18_RD_30_1.png","C_Dist_100_LN_1_LD_2_RN_3_RD_5_1.png","C_Dist_100_LN_12_LD_30_RN_13_RD_26_1.png","C_Dist_100_LN_2_LD_5_RN_11_RD_22_1.png","C_Dist_100_LN_2_LD_5_RN_6_RD_12_1.png","C_Dist_100_LN_3_LD_20_RN_4_RD_16_1.png","C_Dist_100_LN_4_LD_10_RN_15_RD_30_1.png","C_Dist_100_LN_4_LD_8_RN_6_RD_10_1.png","C_Dist_100_LN_6_LD_12_RN_15_RD_25_1.png","C_Dist_100_LN_7_LD_14_RN_15_RD_25_1.png","C_Dist_100_LN_7_LD_14_RN_9_RD_15_1.png"]],"dist100_I":[["I_Dist_100_LN_1_LD_2_RN_8_RD_20_0.png","I_Dist_100_LN_2_LD_4_RN_6_RD_15_0.png","I_Dist_100_LN_2_LD_4_RN_8_RD_20_0.png","I_Dist_100_LN_3_LD_5_RN_11_RD_22_0.png","I_Dist_100_LN_3_LD_5_RN_8_RD_16_0.png","I_Dist_100_LN_3_LD_6_RN_4_RD_10_0.png","I_Dist_100_LN_3_LD_9_RN_7_RD_30_0.png","I_Dist_100_LN_4_LD_8_RN_8_RD_20_0.png","I_Dist_100_LN_6_LD_10_RN_11_RD_22_0.png","I_Dist_100_LN_6_LD_10_RN_13_RD_26_0.png","I_Dist_100_LN_6_LD_10_RN_7_RD_14_0.png","I_Dist_100_LN_9_LD_10_RN_20_RD_25_0.png","I_Dist_100_LN_9_LD_15_RN_13_RD_26_0.png","I_Dist_100_LN_9_LD_15_RN_14_RD_28_0.png"],["I_Dist_100_LN_10_LD_25_RN_8_RD_16_1.png","I_Dist_100_LN_10_LD_25_RN_9_RD_18_1.png","I_Dist_100_LN_11_LD_22_RN_9_RD_15_1.png","I_Dist_100_LN_12_LD_24_RN_9_RD_15_1.png","I_Dist_100_LN_12_LD_30_RN_2_RD_4_1.png","I_Dist_100_LN_13_LD_26_RN_12_RD_20_1.png","I_Dist_100_LN_13_LD_26_RN_6_RD_10_1.png","I_Dist_100_LN_17_LD_30_RN_10_RD_15_1.png","I_Dist_100_LN_6_LD_12_RN_3_RD_5_1.png","I_Dist_100_LN_8_LD_16_RN_6_RD_10_1.png","I_Dist_100_LN_8_LD_20_RN_1_RD_2_1.png","I_Dist_100_LN_9_LD_18_RN_6_RD_10_1.png"]],"dist100_S":[["E_Dist_100_LN_2_LD_12_RN_2_RD_30_0.png","E_Dist_100_LN_6_LD_10_RN_6_RD_12_0.png"],["E_Dist_100_LN_6_LD_12_RN_6_RD_10_1.png"]],"dist200_C":[["C_Dist_200_LN_11_LD_22_RN_3_RD_10_0.png","C_Dist_200_LN_12_LD_15_RN_6_RD_10_0.png","C_Dist_200_LN_12_LD_20_RN_6_RD_15_0.png","C_Dist_200_LN_14_LD_28_RN_6_RD_20_0.png","C_Dist_200_LN_15_LD_25_RN_4_RD_10_0.png","C_Dist_200_LN_16_LD_20_RN_12_RD_20_0.png","C_Dist_200_LN_16_LD_30_RN_9_RD_27_0.png","C_Dist_200_LN_20_LD_25_RN_9_RD_15_0.png","C_Dist_200_LN_21_LD_30_RN_2_RD_4_0.png","C_Dist_200_LN_4_LD_10_RN_3_RD_15_0.png","C_Dist_200_LN_4_LD_8_RN_3_RD_10_0.png","C_Dist_200_LN_6_LD_15_RN_3_RD_15_0.png","C_Dist_200_LN_7_LD_21_RN_2_RD_15_0.png","C_Dist_200_LN_8_LD_15_RN_2_RD_6_0.png","C_Dist_200_LN_8_LD_15_RN_3_RD_9_0.png","C_Dist_200_LN_8_LD_15_RN_7_RD_21_0.png","C_Dist_200_LN_9_LD_20_RN_4_RD_16_0.png"],["C_Dist_200_LN_1_LD_2_RN_21_RD_30_1.png","C_Dist_200_LN_13_LD_26_RN_14_RD_20_1.png","C_Dist_200_LN_3_LD_10_RN_11_RD_22_1.png","C_Dist_200_LN_3_LD_10_RN_14_RD_28_1.png","C_Dist_200_LN_3_LD_10_RN_7_RD_14_1.png","C_Dist_200_LN_3_LD_12_RN_9_RD_20_1.png","C_Dist_200_LN_3_LD_6_RN_14_RD_20_1.png","C_Dist_200_LN_5_LD_10_RN_14_RD_20_1.png","C_Dist_200_LN_6_LD_12_RN_7_RD_10_1.png","C_Dist_200_LN_6_LD_20_RN_11_RD_22_1.png","C_Dist_200_LN_7_LD_15_RN_18_RD_27_1.png","C_Dist_200_LN_9_LD_30_RN_13_RD_26_1.png"]],"dist200_I":[["I_Dist_200_LN_1_LD_2_RN_3_RD_10_0.png","I_Dist_200_LN_1_LD_3_RN_2_RD_15_0.png","I_Dist_200_LN_3_LD_4_RN_11_RD_20_0.png","I_Dist_200_LN_4_LD_5_RN_6_RD_10_0.png","I_Dist_200_LN_4_LD_6_RN_14_RD_30_0.png","I_Dist_200_LN_7_LD_10_RN_12_RD_24_0.png","I_Dist_200_LN_7_LD_10_RN_14_RD_28_0.png","I_Dist_200_LN_7_LD_10_RN_8_RD_16_0.png"],["I_Dist_200_LN_11_LD_20_RN_3_RD_4_1.png","I_Dist_200_LN_14_LD_30_RN_12_RD_18_1.png","I_Dist_200_LN_14_LD_30_RN_6_RD_9_1.png","I_Dist_200_LN_3_LD_10_RN_1_RD_2_1.png","I_Dist_200_LN_4_LD_30_RN_1_RD_3_1.png","I_Dist_200_LN_6_LD_20_RN_3_RD_6_1.png","I_Dist_200_LN_7_LD_15_RN_4_RD_6_1.png","I_Dist_200_LN_7_LD_15_RN_6_RD_9_1.png","I_Dist_200_LN_9_LD_15_RN_8_RD_10_1.png"]],"dist200_S":[["E_Dist_200_LN_3_LD_6_RN_3_RD_10_0.png"],["E_Dist_200_LN_3_LD_10_RN_3_RD_6_1.png"]],"dist300_C":[["C_Dist_300_LN_11_LD_22_RN_1_RD_5_0.png","C_Dist_300_LN_11_LD_22_RN_2_RD_10_0.png","C_Dist_300_LN_11_LD_22_RN_4_RD_20_0.png","C_Dist_300_LN_12_LD_24_RN_2_RD_10_0.png","C_Dist_300_LN_18_LD_20_RN_9_RD_15_0.png","C_Dist_300_LN_20_LD_25_RN_13_RD_26_0.png","C_Dist_300_LN_20_LD_25_RN_14_RD_28_0.png","C_Dist_300_LN_20_LD_25_RN_5_RD_10_0.png","C_Dist_300_LN_20_LD_25_RN_8_RD_16_0.png","C_Dist_300_LN_20_LD_25_RN_9_RD_18_0.png","C_Dist_300_LN_24_LD_30_RN_2_RD_4_0.png","C_Dist_300_LN_24_LD_30_RN_8_RD_16_0.png","C_Dist_300_LN_3_LD_6_RN_2_RD_10_0.png","C_Dist_300_LN_4_LD_10_RN_1_RD_10_0.png","C_Dist_300_LN_4_LD_5_RN_2_RD_4_0.png","C_Dist_300_LN_8_LD_16_RN_1_RD_5_0.png","C_Dist_300_LN_9_LD_10_RN_3_RD_5_0.png"],["C_Dist_300_LN_1_LD_20_RN_7_RD_20_1.png","C_Dist_300_LN_1_LD_3_RN_19_RD_30_1.png","C_Dist_300_LN_1_LD_30_RN_8_RD_24_1.png","C_Dist_300_LN_1_LD_5_RN_11_RD_22_1.png","C_Dist_300_LN_1_LD_5_RN_3_RD_6_1.png","C_Dist_300_LN_1_LD_5_RN_6_RD_12_1.png","C_Dist_300_LN_2_LD_10_RN_12_RD_24_1.png","C_Dist_300_LN_2_LD_20_RN_10_RD_25_1.png","C_Dist_300_LN_3_LD_12_RN_11_RD_20_1.png","C_Dist_300_LN_3_LD_6_RN_4_RD_5_1.png","C_Dist_300_LN_4_LD_20_RN_13_RD_26_1.png","C_Dist_300_LN_5_LD_25_RN_6_RD_12_1.png","C_Dist_300_LN_5_LD_25_RN_7_RD_14_1.png","C_Dist_300_LN_7_LD_14_RN_20_RD_25_1.png","C_Dist_300_LN_8_LD_15_RN_10_RD_12_1.png"]],"dist300_I":[["I_Dist_300_LN_1_LD_2_RN_2_RD_10_0.png","I_Dist_300_LN_1_LD_2_RN_3_RD_15_0.png","I_Dist_300_LN_2_LD_4_RN_6_RD_30_0.png","I_Dist_300_LN_3_LD_6_RN_4_RD_20_0.png","I_Dist_300_LN_4_LD_5_RN_6_RD_12_0.png","I_Dist_300_LN_4_LD_5_RN_8_RD_16_0.png","I_Dist_300_LN_7_LD_10_RN_8_RD_20_0.png","I_Dist_300_LN_8_LD_10_RN_14_RD_28_0.png","I_Dist_300_LN_8_LD_10_RN_9_RD_18_0.png"],["I_Dist_300_LN_13_LD_26_RN_12_RD_15_1.png","I_Dist_300_LN_4_LD_20_RN_2_RD_4_1.png"]],"dist300_S":[["E_Dist_300_LN_9_LD_12_RN_9_RD_20_0.png"],["E_Dist_300_LN_18_LD_30_RN_18_RD_20_1.png","E_Dist_300_LN_3_LD_10_RN_3_RD_5_1.png","E_Dist_300_LN_9_LD_20_RN_9_RD_12_1.png"]],"dist500_C":[["C_Dist_500_LN_10_LD_13_RN_7_RD_26_0.png","C_Dist_500_LN_10_LD_15_RN_4_RD_24_0.png","C_Dist_500_LN_12_LD_16_RN_3_RD_12_0.png","C_Dist_500_LN_12_LD_18_RN_4_RD_24_0.png","C_Dist_500_LN_15_LD_18_RN_5_RD_15_0.png","C_Dist_500_LN_15_LD_20_RN_1_RD_4_0.png","C_Dist_500_LN_18_LD_27_RN_1_RD_6_0.png","C_Dist_500_LN_20_LD_24_RN_1_RD_3_0.png","C_Dist_500_LN_20_LD_24_RN_3_RD_9_0.png","C_Dist_500_LN_20_LD_24_RN_7_RD_21_0.png","C_Dist_500_LN_20_LD_28_RN_3_RD_14_0.png","C_Dist_500_LN_21_LD_28_RN_6_RD_24_0.png","C_Dist_500_LN_22_LD_28_RN_2_RD_7_0.png","C_Dist_500_LN_25_LD_30_RN_9_RD_27_0.png","C_Dist_500_LN_4_LD_6_RN_1_RD_6_0.png","C_Dist_500_LN_5_LD_6_RN_2_RD_6_0.png","C_Dist_500_LN_6_LD_9_RN_1_RD_6_0.png","C_Dist_500_LN_7_LD_10_RN_1_RD_5_0.png","C_Dist_500_LN_8_LD_12_RN_1_RD_6_0.png","C_Dist_500_LN_8_LD_12_RN_4_RD_24_0.png"],["C_Dist_500_LN_1_LD_4_RN_12_RD_16_1.png","C_Dist_500_LN_1_LD_4_RN_9_RD_12_1.png","C_Dist_500_LN_1_LD_9_RN_11_RD_18_1.png","C_Dist_500_LN_10_LD_24_RN_22_RD_24_1.png","C_Dist_500_LN_2_LD_12_RN_10_RD_15_1.png","C_Dist_500_LN_2_LD_12_RN_12_RD_18_1.png","C_Dist_500_LN_2_LD_12_RN_4_RD_6_1.png","C_Dist_500_LN_2_LD_24_RN_7_RD_12_1.png","C_Dist_500_LN_2_LD_5_RN_18_RD_20_1.png","C_Dist_500_LN_2_LD_5_RN_9_RD_10_1.png","C_Dist_500_LN_2_LD_8_RN_12_RD_16_1.png","C_Dist_500_LN_2_LD_8_RN_21_RD_28_1.png","C_Dist_500_LN_3_LD_10_RN_4_RD_5_1.png","C_Dist_500_LN_3_LD_12_RN_15_RD_20_1.png","C_Dist_500_LN_3_LD_30_RN_6_RD_10_1.png","C_Dist_500_LN_3_LD_8_RN_14_RD_16_1.png","C_Dist_500_LN_4_LD_16_RN_15_RD_20_1.png","C_Dist_500_LN_4_LD_24_RN_12_RD_18_1.png","C_Dist_500_LN_5_LD_14_RN_6_RD_7_1.png","C_Dist_500_LN_7_LD_21_RN_20_RD_24_1.png","C_Dist_500_LN_7_LD_28_RN_12_RD_16_1.png","C_Dist_500_LN_7_LD_28_RN_9_RD_12_1.png","C_Dist_500_LN_9_LD_27_RN_20_RD_24_1.png"]],"dist500_I":[["I_Dist_500_LN_2_LD_3_RN_4_RD_24_0.png","I_Dist_500_LN_5_LD_6_RN_6_RD_18_0.png","I_Dist_500_LN_7_LD_8_RN_9_RD_24_0.png"],["I_Dist_500_LN_7_LD_21_RN_5_RD_6_1.png"]],"dist500_S":[["E_Dist_500_LN_6_LD_8_RN_6_RD_24_0.png"],["E_Dist_500_LN_2_LD_12_RN_2_RD_3_1.png","E_Dist_500_LN_6_LD_24_RN_6_RD_8_1.png"]]}},{"start_time":1552327642346,"click_time":1552327644368,"finger_time":1552327643348,"fix_duration":897.0742216584674,"trial":1,"RT":1002,"MT":1020,"sideResp":1,"stimulus":[],"xmouse":[785,785,785,785,785,785,785,785,785,785,785,785,785,785,785,785,785,785,785,785,785,785,785,785,785,785,785,785,785,785,785,785,785,785,785,785,785,785,785,785,785,785,785,785,785,785,785,777,769,748,712,712,711,711,711,711,711,711,711,711,711,711,711,713,715,719,719,720,721,721,721,719,712,706,698,684,679,675,672,667,655,645,631,618,604,585,579,569,561,556,553,550,549,547,545,542,541,540,538,533,525,520],"ymouse":[509,509,509,509,509,509,509,509,509,509,509,509,509,509,509,509,509,509,509,509,509,510,510,511,511,511,511,511,511,511,511,511,511,511,511,511,511,511,511,511,511,511,511,511,511,511,511,511,511,518,532,532,532,532,532,532,532,532,532,532,531,531,530,529,528,525,521,514,496,459,391,361,336,314,296,271,263,258,253,248,237,230,222,215,206,190,179,158,142,135,127,123,118,114,110,105,104,103,102,99,96,94],"timestamp_mouse":[12,31,41,61,81,101,121,142,161,181,201,221,242,263,281,301,321,341,362,383,402,422,441,462,481,501,521,543,562,581,602,621,642,662,681,701,721,742,762,781,802,821,843,862,882,902,921,941,961,981,1002,1021,1041,1061,1083,1102,1123,1142,1163,1183,1202,1222,1242,1261,1281,1301,1321,1341,1361,1382,1402,1421,1442,1461,1482,1501,1521,1541,1561,1582,1603,1622,1642,1661,1681,1701,1722,1741,1763,1782,1802,1821,1841,1862,1882,1901,1922,1942,1961,1982,2001,2021],"xSR":741.5,"ySR":469.95,"xT1":424.9,"yT1":0,"xT2":1058.1,"yT2":0,"toosoon":0,"cond_shown":"Congruent","ratio_trial":200,"L_num":1,"L_den":2,"R_num":21,"R_den":30,"correct_side":2,"subjID":"julianariconolarte3","gender":"1","school":"4","age":"9"},{"start_time":1552327646179,"click_time":1552327652227,"finger_time":1552327649709,"fix_duration":870.4198297475457,"trial":2,"RT":3530,"MT":2518,"sideResp":2,"stimulus":[],"xmouse":[753,753,753,753,753,755,755,755,755,755,755,755,755,755,755,755,755,755,755,755,757,758,758,758,758,758,758,758,760,760,760,760,760,760,760,760,761,761,762,762,762,762,762,762,762,762,762,762,762,762,762,762,762,762,762,762,762,762,762,762,762,762,762,762,762,762,762,762,762,762,762,762,762,762,762,762,762,762,762,762,762,762,762,762,762,762,762,762,762,762,762,762,762,762,762,762,762,762,762,762,762,762,762,762,762,762,762,762,762,762,762,762,762,762,762,762,762,762,762,762,762,762,762,762,762,762,762,762,762,762,762,762,762,762,762,762,762,762,762,762,762,762,762,762,762,762,762,762,762,762,762,762,762,762,762,762,762,762,762,762,762,762,764,765,769,773,777,780,781,784,789,797,807,823,831,836,842,852,866,896,910,921,932,950,970,984,998,1010,1018,1030,1035,1040,1043,1051,1057,1060,1062,1065,1072,1076,1079,1086,1089,1093,1096,1096,1097,1097,1098,1099,1099,1099,1099,1100,1100,1100,1100,1100,1100,1100,1099,1099,1098,1095,1094,1094,1094,1092,1089,1083,1082,1080,1079,1078,1076,1075,1075,1074,1073,1073,1072,1072,1072,1072,1072,1072,1072,1072,1073,1074,1074,1074,1074,1074,1074,1074,1074,1074,1074,1074,1074,1074,1074,1075,1077,1077,1077,1077,1078,1080,1080,1080,1081,1081,1081,1082,1082,1083,1084,1085,1085,1086,1086,1087,1087,1087,1087,1087,1087,1087,1087,1087,1087,1087,1087,1087,1087,1087,1087,1087,1087,1087,1087],"ymouse":[554,554,554,554,553,551,551,551,551,551,551,551,551,551,551,551,551,551,551,550,548,547,547,547,547,547,547,547,547,547,547,547,547,547,547,547,547,547,547,547,547,547,547,547,547,547,547,547,547,547,547,547,547,547,547,547,547,547,547,547,547,547,547,547,547,547,547,547,547,547,547,547,547,547,547,547,547,547,547,547,547,547,547,547,547,547,547,547,547,547,547,547,547,547,547,547,547,547,547,547,547,547,547,547,547,547,547,547,547,547,547,547,547,547,547,547,547,547,547,547,547,547,547,547,547,547,547,547,547,547,547,547,547,547,547,547,547,547,547,547,547,547,547,547,547,547,547,547,547,547,547,547,547,547,547,547,547,547,547,547,547,547,546,545,542,540,539,537,537,535,532,530,525,518,515,512,509,503,494,473,463,454,444,424,404,392,380,370,363,347,342,335,329,316,305,299,293,286,272,266,260,251,246,237,231,228,225,221,218,213,211,208,205,199,193,191,188,185,182,180,179,178,177,176,176,176,176,176,174,172,171,171,170,168,164,162,160,158,153,151,149,148,146,145,142,141,140,138,133,131,130,128,127,127,125,125,125,125,125,125,124,124,123,122,120,120,120,119,117,116,115,115,114,112,111,110,109,109,107,105,104,102,101,100,100,100,100,100,100,100,100,100,100,100,100,100,100,100,100,100,100,100,99],"timestamp_mouse":[13,31,49,68,89,109,129,148,170,188,209,230,249,268,289,308,330,348,369,388,409,428,449,468,488,508,528,548,569,589,609,628,648,669,688,708,728,749,768,788,808,829,849,868,888,909,929,948,970,989,1008,1028,1048,1068,1088,1108,1128,1148,1168,1189,1209,1228,1248,1268,1288,1308,1329,1348,1368,1388,1408,1429,1448,1470,1489,1509,1529,1548,1568,1590,1608,1629,1649,1668,1688,1709,1729,1749,1768,1790,1808,1828,1849,1868,1890,1909,1928,1949,1968,1990,2009,2029,2050,2069,2090,2109,2129,2149,2169,2189,2209,2228,2249,2268,2288,2308,2329,2349,2369,2388,2408,2428,2449,2469,2489,2509,2529,2550,2569,2588,2609,2628,2648,2669,2689,2708,2729,2749,2769,2789,2809,2828,2849,2868,2888,2909,2930,2949,2968,2989,3009,3029,3048,3068,3089,3108,3129,3149,3168,3188,3209,3229,3248,3268,3289,3308,3329,3348,3368,3388,3409,3429,3448,3468,3488,3508,3530,3548,3568,3588,3609,3628,3648,3669,3689,3708,3728,3748,3769,3788,3808,3829,3848,3870,3888,3909,3929,3948,3969,3988,4008,4028,4049,4069,4088,4109,4129,4148,4168,4188,4208,4228,4248,4268,4289,4308,4329,4349,4368,4388,4408,4428,4448,4470,4488,4508,4529,4548,4568,4588,4608,4628,4648,4669,4689,4709,4729,4749,4770,4789,4808,4828,4848,4868,4889,4908,4929,4948,4970,4988,5009,5028,5049,5069,5088,5109,5129,5149,5170,5188,5208,5228,5248,5268,5289,5308,5329,5349,5369,5389,5409,5429,5449,5469,5488,5508,5529,5548,5570,5588,5608,5628,5648,5670,5688,5708,5729,5748,5768,5788,5809,5830,5849,5869,5889,5908,5929,5948,5970,5988,6009,6028,6048],"xSR":741.5,"ySR":469.95,"xT1":424.9,"yT1":0,"xT2":1058.1,"yT2":0,"toosoon":0,"cond_shown":"Incongruent","ratio_trial":200,"L_num":7,"L_den":15,"R_num":6,"R_den":9,"correct_side":2,"subjID":"julianariconolarte3","gender":"1","school":"4","age":"9"},{"start_time":1552327654983,"click_time":1552327658228,"finger_time":1552327656247,"fix_duration":1394.4616693117223,"trial":3,"RT":1264,"MT":1981,"sideResp":2,"stimulus":[],"xmouse":[800,800,800,800,800,801,801,801,801,802,802,803,804,804,804,804,804,805,806,806,807,807,807,807,807,807,807,807,807,808,810,811,813,814,816,816,816,816,816,816,816,816,816,817,817,817,818,818,818,818,818,818,818,818,818,819,820,820,821,823,825,832,839,850,869,876,880,884,889,901,919,926,948,964,992,1008,1021,1034,1045,1058,1062,1064,1065,1065,1065,1065,1065,1066,1066,1066,1066,1066,1066,1066,1068,1069,1069,1070,1070,1071,1071,1072,1073,1073,1073,1073,1073,1073,1073,1074,1074,1074,1074,1074,1074,1075,1075,1075,1075,1075,1075,1075,1075,1075,1075,1075,1075,1075,1075,1075,1075,1075,1076,1076,1076,1076,1076,1076,1076,1076,1076,1076,1076,1076,1076,1076,1077,1077,1077,1077,1077,1077,1077,1077,1077,1077,1077,1077,1077,1077,1077,1077,1077],"ymouse":[498,498,498,498,498,497,497,497,497,496,495,495,494,494,494,494,494,493,491,491,490,490,490,490,490,490,490,490,490,489,488,488,486,486,486,486,486,486,486,486,486,486,486,486,486,486,485,485,485,485,485,485,485,485,485,485,485,485,485,487,489,489,489,488,478,474,470,466,462,456,447,443,431,419,395,381,366,348,330,295,282,271,262,255,240,233,227,221,214,200,194,187,185,182,177,175,174,171,168,162,157,152,147,145,140,139,138,138,138,136,135,134,134,133,133,133,133,133,132,132,129,128,128,127,124,123,121,119,117,113,112,111,110,109,107,106,105,104,103,103,103,103,103,103,103,103,102,102,102,102,101,101,101,100,100,100,100,100,100,100,100,100,99],"timestamp_mouse":[13,36,45,66,86,105,124,145,165,184,204,226,244,264,285,306,326,344,365,384,404,425,445,465,486,505,525,544,564,584,605,624,645,664,685,706,725,745,765,786,805,824,844,865,885,906,925,944,965,984,1004,1025,1045,1064,1086,1104,1125,1144,1164,1184,1205,1224,1244,1264,1285,1304,1324,1344,1365,1385,1404,1426,1444,1464,1485,1505,1524,1544,1564,1585,1605,1624,1645,1665,1685,1704,1724,1744,1765,1785,1806,1825,1845,1865,1884,1904,1924,1945,1965,1985,2004,2024,2044,2064,2085,2104,2124,2144,2164,2185,2204,2224,2244,2264,2285,2305,2324,2345,2365,2385,2404,2425,2445,2464,2485,2504,2524,2544,2564,2585,2605,2625,2645,2665,2685,2706,2725,2744,2765,2784,2804,2825,2845,2864,2885,2904,2924,2945,2964,2985,3005,3025,3044,3065,3085,3105,3125,3145,3164,3185,3205,3224,3245],"xSR":741.5,"ySR":469.95,"xT1":424.9,"yT1":0,"xT2":1058.1,"yT2":0,"toosoon":0,"cond_shown":"Incongruent","ratio_trial":100,"L_num":6,"L_den":12,"R_num":3,"R_den":5,"correct_side":2,"subjID":"julianariconolarte3","gender":"1","school":"4","age":"9"},{"start_time":1552327660172,"click_time":1552327664629,"finger_time":1552327661828,"fix_duration":682.7015974183896,"trial":4,"RT":1656,"MT":2801,"sideResp":1,"stimulus":[],"xmouse":[784,784,784,784,784,784,784,784,784,784,784,784,784,784,784,784,784,784,784,784,784,784,784,784,784,784,784,784,784,784,784,784,784,784,784,784,784,784,784,784,784,784,784,784,784,784,784,784,784,784,784,784,784,784,784,784,784,784,784,784,784,784,784,784,784,784,784,784,784,784,784,784,784,784,784,784,784,784,783,782,774,768,761,754,739,731,720,708,694,685,672,667,664,661,656,651,647,646,635,628,613,603,592,578,562,529,515,500,490,478,471,469,469,468,468,468,468,469,470,472,475,476,477,478,478,479,480,481,483,485,493,496,498,499,499,501,501,502,502,502,503,504,505,505,505,505,505,505,505,505,505,506,506,507,508,509,509,509,510,510,510,510,511,511,511,512,512,512,513,513,514,515,515,516,516,516,517,517,517,518,518,518,519,520,520,520,520,520,520,520,520,520,520,520,520,520,520,520,520,520,520,520,520,520,520,520,520,520,520,520,520,520,520,520,520,520,520,520,520,520,520,520,520],"ymouse":[509,509,509,509,509,509,509,509,509,509,509,509,509,509,509,509,509,509,509,509,509,509,509,509,509,509,509,509,509,509,509,509,509,509,509,509,509,509,509,509,509,509,509,509,509,509,509,509,509,509,509,509,509,509,509,509,509,509,509,509,509,509,509,509,509,509,509,509,509,509,509,509,509,509,509,509,507,506,503,498,479,470,457,445,417,405,389,373,352,342,324,318,312,306,299,288,280,277,265,259,246,239,231,221,212,195,187,178,173,166,162,160,158,156,153,150,149,146,144,143,140,139,139,138,137,136,135,133,132,131,128,127,126,125,124,122,121,119,118,116,113,111,109,108,107,105,105,105,105,105,105,104,104,104,104,104,104,104,104,104,103,103,103,103,103,103,103,103,103,103,103,103,103,103,103,103,103,103,103,103,102,102,101,101,100,100,100,100,100,100,100,100,100,100,100,100,100,100,100,100,100,100,100,100,100,100,100,100,100,100,100,100,100,100,100,100,100,100,100,100,100,100,99],"timestamp_mouse":[16,40,56,76,96,117,136,157,176,196,216,237,256,275,297,316,335,356,376,396,416,435,456,477,497,515,536,557,576,595,616,635,657,677,695,716,736,755,776,796,816,836,856,875,896,916,936,956,975,996,1015,1035,1056,1076,1095,1116,1135,1156,1176,1197,1216,1235,1255,1275,1295,1315,1336,1357,1377,1396,1415,1436,1456,1476,1497,1515,1536,1555,1575,1596,1615,1635,1656,1676,1697,1715,1735,1756,1776,1795,1816,1835,1855,1876,1896,1916,1935,1955,1975,1995,2015,2035,2055,2075,2095,2115,2137,2156,2176,2195,2216,2236,2255,2275,2296,2315,2335,2355,2375,2395,2415,2435,2455,2475,2497,2516,2535,2555,2575,2595,2616,2635,2657,2675,2696,2716,2735,2755,2775,2795,2815,2836,2856,2875,2896,2915,2937,2956,2976,2996,3016,3035,3055,3075,3096,3115,3136,3155,3176,3195,3215,3236,3256,3276,3296,3315,3335,3355,3375,3395,3415,3435,3455,3477,3497,3515,3536,3555,3575,3596,3615,3635,3655,3675,3695,3715,3737,3755,3776,3795,3815,3836,3856,3876,3895,3915,3936,3956,3975,3997,4015,4036,4056,4076,4095,4115,4136,4155,4176,4197,4216,4236,4255,4275,4295,4315,4335,4355,4375,4395,4416,4436,4456],"xSR":741.5,"ySR":469.95,"xT1":424.9,"yT1":0,"xT2":1058.1,"yT2":0,"toosoon":0,"cond_shown":"Congruent","ratio_trial":200,"L_num":3,"L_den":10,"R_num":7,"R_den":14,"correct_side":2,"subjID":"julianariconolarte3","gender":"1","school":"4","age":"9"},{"start_time":1552327666888,"click_time":1552327669527,"finger_time":1552327668427,"fix_duration":778.2138197353197,"trial":5,"RT":1539,"MT":1100,"sideResp":2,"stimulus":[],"xmouse":[790,790,791,791,792,792,792,792,792,792,792,792,792,792,792,792,792,792,792,792,792,792,792,792,792,792,792,792,792,792,792,792,792,792,792,792,792,792,792,792,792,792,792,792,792,792,792,792,792,792,792,792,792,793,794,796,796,797,797,797,797,797,797,797,798,798,798,798,798,798,798,798,798,798,803,807,836,853,873,892,941,978,996,1012,1023,1037,1042,1043,1045,1045,1041,1037,1033,1030,1029,1028,1028,1032,1036,1041,1048,1048,1050,1050,1052,1060,1062,1063,1063,1064,1064,1065,1065,1065,1066,1067,1068,1069,1069,1069,1069,1069,1069,1069,1069,1069,1069,1069,1069,1069,1069,1069,1069],"ymouse":[519,519,519,518,518,518,518,518,518,518,518,518,518,518,518,518,518,518,518,518,518,518,518,518,518,518,518,515,512,511,511,511,511,511,511,511,511,511,511,511,511,511,511,511,511,511,511,511,511,511,511,511,511,514,516,518,519,520,520,520,521,522,522,522,523,523,523,523,523,523,523,523,523,523,523,523,523,521,514,504,473,447,430,412,394,361,345,332,318,306,271,256,241,227,217,207,193,185,179,169,147,143,140,139,137,130,128,125,123,121,119,117,116,116,114,111,111,109,109,108,106,105,104,104,103,103,103,102,102,101,101,100,99],"timestamp_mouse":[2,24,40,60,80,101,120,139,159,179,199,220,240,259,279,300,321,341,359,380,400,419,440,461,480,499,519,539,559,579,599,621,639,660,679,699,719,741,760,779,799,819,839,860,879,900,920,939,961,980,999,1019,1039,1059,1079,1099,1119,1140,1159,1180,1199,1219,1239,1259,1280,1299,1320,1341,1361,1380,1401,1420,1440,1459,1479,1499,1519,1539,1560,1579,1601,1619,1639,1660,1680,1701,1719,1739,1760,1779,1801,1819,1839,1859,1880,1899,1919,1940,1959,1979,2001,2019,2039,2060,2079,2100,2119,2139,2160,2179,2200,2219,2239,2260,2279,2301,2319,2339,2359,2379,2400,2419,2439,2459,2480,2499,2520,2539,2559,2581,2600,2620,2639],"xSR":741.5,"ySR":469.95,"xT1":424.9,"yT1":0,"xT2":1058.1,"yT2":0,"toosoon":0,"cond_shown":"Incongruent","ratio_trial":200,"L_num":14,"L_den":30,"R_num":6,"R_den":9,"correct_side":2,"subjID":"julianariconolarte3","gender":"1","school":"4","age":"9"},{"start_time":1552327673093,"click_time":1552327674907,"finger_time":1552327673927,"fix_duration":1063.9649505734137,"trial":6,"RT":834,"MT":980,"sideResp":2,"stimulus":[],"xmouse":[801,801,801,801,801,801,799,797,795,795,795,795,795,795,795,795,795,795,795,795,795,795,795,794,794,794,794,794,794,794,794,794,794,794,794,794,795,798,802,809,835,853,869,885,900,923,937,945,950,956,966,971,974,976,978,986,993,998,1006,1013,1025,1029,1034,1041,1048,1058,1063,1066,1067,1069,1072,1074,1076,1079,1082,1084,1085,1085,1085,1085,1085,1085,1085,1085,1085,1085,1085,1085,1085,1086,1086],"ymouse":[519,519,519,519,519,519,519,519,519,519,519,519,519,519,519,519,519,519,519,519,519,519,519,519,519,519,519,519,519,519,519,519,519,519,519,519,519,517,514,510,494,481,469,457,445,424,412,405,398,388,372,365,359,352,346,328,308,292,276,261,238,226,214,202,193,174,162,157,152,146,136,132,127,120,114,110,105,105,105,105,105,104,104,104,103,103,103,101,101,100,98],"timestamp_mouse":[14,33,55,74,94,114,135,154,174,194,213,235,255,274,295,314,333,355,375,395,413,433,455,475,495,514,535,554,574,594,613,635,654,674,695,714,734,754,775,794,814,834,854,875,895,915,934,954,974,994,1015,1034,1054,1074,1094,1114,1134,1154,1173,1194,1214,1234,1254,1274,1295,1314,1334,1354,1375,1394,1415,1433,1454,1474,1495,1515,1534,1554,1573,1595,1615,1633,1654,1674,1694,1714,1735,1754,1774,1793,1814],"xSR":741.5,"ySR":469.95,"xT1":424.9,"yT1":0,"xT2":1058.1,"yT2":0,"toosoon":0,"cond_shown":"Congruent","ratio_trial":200,"L_num":21,"L_den":30,"R_num":2,"R_den":4,"correct_side":1,"subjID":"julianariconolarte3","gender":"1","school":"4","age":"9"},{"start_time":1552327676258,"click_time":1552327678407,"finger_time":1552327676298,"fix_duration":250,"trial":7,"RT":40,"MT":2109,"sideResp":1,"stimulus":[],"xmouse":[793,795,795,803,803,804,804,805,805,805,805,806,806,806,806,807,807,809,809,809,809,809,809,809,809,809,809,809,809,810,810,810,811,813,814,815,816,816,816,816,816,816,816,817,817,817,817,817,817,817,817,817,817,817,817,817,817,817,817,817,817,817,817,817,817,817,817,817,817,817,817,817,817,817,817,817,817,817,817,817,817,817,817,817,817,817,817,816,816,815,814,811,804,799,793,786,776,760,738,724,708,686,623,597,574,555,538,514],"ymouse":[567,571,571,578,578,579,579,579,579,579,579,579,579,579,579,579,579,575,574,573,573,573,573,573,573,573,572,572,571,571,571,570,567,565,563,562,560,560,560,560,560,559,559,557,557,557,557,557,556,556,556,556,556,556,555,555,555,555,555,555,555,555,555,555,553,553,552,552,550,549,549,549,548,548,548,548,548,548,548,547,547,546,545,544,543,543,542,541,539,536,531,523,501,490,478,463,446,418,380,356,327,288,200,164,133,111,93,70],"timestamp_mouse":[10,40,49,69,89,108,129,149,170,190,210,228,249,270,290,309,330,350,369,389,410,429,450,469,489,508,529,549,570,589,610,629,649,668,688,710,730,749,770,788,809,829,850,869,890,910,928,950,970,990,1009,1030,1049,1069,1090,1109,1129,1149,1170,1189,1209,1230,1249,1270,1289,1309,1328,1349,1369,1389,1409,1429,1449,1469,1490,1510,1529,1549,1569,1590,1610,1629,1649,1669,1689,1709,1730,1749,1769,1789,1810,1829,1850,1869,1889,1909,1929,1949,1968,1989,2009,2029,2051,2068,2088,2109,2128,2148],"xSR":741.5,"ySR":469.95,"xT1":424.9,"yT1":0,"xT2":1058.1,"yT2":0,"toosoon":0,"cond_shown":"Incongruent","ratio_trial":200,"L_num":4,"L_den":6,"R_num":14,"R_den":30,"correct_side":1,"subjID":"julianariconolarte3","gender":"1","school":"4","age":"9"},{"start_time":1552327679550,"click_time":1552327681267,"finger_time":1552327680227,"fix_duration":319.54936396512835,"trial":8,"RT":677,"MT":1040,"sideResp":2,"stimulus":[],"xmouse":[787,787,787,787,787,787,787,787,787,787,787,787,787,787,787,787,787,787,787,787,787,787,787,787,788,790,791,793,797,802,805,809,821,843,861,895,937,979,1057,1082,1100,1107,1109,1109,1109,1109,1110,1111,1112,1113,1114,1114,1114,1111,1107,1104,1100,1098,1095,1093,1089,1085,1084,1083,1083,1083,1083,1083,1083,1083,1083,1083,1083,1083,1083,1084,1084,1084,1084,1084,1084,1084,1084,1084,1084,1084],"ymouse":[531,531,531,531,531,531,531,531,531,531,531,531,531,531,531,531,531,530,529,529,529,529,529,529,529,529,529,528,528,527,526,525,518,502,487,458,423,390,323,299,285,278,275,274,273,272,270,268,259,254,248,240,226,209,198,189,180,175,164,158,149,137,132,126,124,122,121,120,116,114,114,111,110,108,108,107,107,106,105,104,104,102,101,100,100,98],"timestamp_mouse":[18,36,58,77,97,116,138,158,176,197,217,237,258,277,298,316,337,357,378,398,416,437,456,477,497,517,537,557,577,598,618,637,657,677,697,717,737,757,776,797,817,837,857,878,896,917,937,958,977,997,1017,1036,1057,1077,1097,1116,1137,1156,1176,1197,1217,1236,1257,1277,1297,1316,1337,1356,1377,1398,1417,1437,1457,1477,1498,1518,1537,1556,1577,1598,1618,1638,1657,1677,1696,1717],"xSR":741.5,"ySR":469.95,"xT1":424.9,"yT1":0,"xT2":1058.1,"yT2":0,"toosoon":0,"cond_shown":"Congruent","ratio_trial":200,"L_num":21,"L_den":30,"R_num":2,"R_den":4,"correct_side":1,"subjID":"julianariconolarte3","gender":"1","school":"4","age":"9"},{"start_time":1552327682279,"click_time":1552327683948,"finger_time":1552327683148,"fix_duration":250,"trial":9,"RT":869,"MT":800,"sideResp":1,"stimulus":[],"xmouse":[768,768,768,768,768,768,768,768,768,768,768,768,768,768,768,768,768,768,768,768,768,768,768,768,768,768,768,768,768,768,769,769,769,769,769,769,769,769,769,769,769,768,760,748,740,731,723,712,708,706,703,700,686,677,662,651,641,632,625,619,612,606,590,579,572,565,559,555,548,543,536,532,522,517,514,513,512,510,509,509,508,507,506,503],"ymouse":[515,515,515,515,515,515,515,515,515,515,515,515,515,515,515,515,515,515,515,515,515,515,515,515,515,515,515,515,515,515,515,515,515,515,515,515,515,515,515,512,509,503,475,446,428,412,398,372,363,354,345,335,307,296,280,270,262,250,242,236,228,223,211,204,199,194,189,187,182,179,174,170,160,151,146,143,138,128,123,119,115,111,105,95],"timestamp_mouse":[15,42,49,68,89,108,128,147,167,189,208,228,248,268,287,308,328,348,367,388,409,428,449,469,489,509,529,548,568,589,608,629,648,668,689,708,729,748,768,789,809,828,848,868,888,909,928,949,968,987,1007,1028,1048,1067,1088,1108,1128,1149,1168,1188,1208,1227,1248,1268,1288,1308,1329,1348,1367,1388,1409,1428,1449,1468,1489,1509,1529,1549,1568,1588,1608,1627,1648,1668],"xSR":741.5,"ySR":469.95,"xT1":424.9,"yT1":0,"xT2":1058.1,"yT2":0,"toosoon":0,"cond_shown":"Incongruent","ratio_trial":200,"L_num":3,"L_den":4,"R_num":11,"R_den":20,"correct_side":1,"subjID":"julianariconolarte3","gender":"1","school":"4","age":"9"},{"start_time":1552327685078,"click_time":1552327686947,"finger_time":1552327686527,"fix_duration":250,"trial":10,"RT":1449,"MT":420,"sideResp":1,"stimulus":[],"xmouse":[781,781,781,781,781,781,781,781,781,781,781,781,781,780,780,780,780,780,779,779,779,779,779,779,778,778,778,778,778,778,778,778,778,778,778,778,778,778,778,778,778,778,778,778,778,778,778,778,778,778,778,778,778,778,778,778,778,778,778,778,778,778,778,778,778,778,778,777,775,771,765,756,718,701,684,673,663,648,642,635,624,604,583,546,538,535,534,534,534,533,532,531,525,518],"ymouse":[533,533,533,532,532,532,532,532,532,532,532,531,531,531,531,531,531,531,530,530,529,529,529,529,527,527,527,527,527,527,527,527,527,527,527,527,527,527,527,527,527,527,527,527,527,527,527,527,527,527,527,527,527,527,527,527,527,527,527,527,527,527,527,527,527,527,525,522,517,508,495,474,400,368,339,314,295,254,228,194,153,109,72,21,11,7,6,6,6,6,6,6,13,25],"timestamp_mouse":[13,42,48,69,89,110,129,149,170,189,209,229,250,269,289,310,330,349,369,390,409,428,450,470,490,509,528,549,570,590,609,630,649,669,690,710,728,750,770,789,809,830,850,870,890,908,928,949,970,990,1008,1030,1050,1069,1089,1110,1130,1150,1170,1189,1210,1229,1250,1269,1290,1309,1329,1350,1369,1390,1409,1429,1449,1468,1489,1509,1530,1550,1569,1590,1609,1630,1649,1669,1689,1709,1730,1748,1769,1788,1809,1829,1849,1869],"xSR":741.5,"ySR":469.95,"xT1":424.9,"yT1":0,"xT2":1058.1,"yT2":0,"toosoon":0,"cond_shown":"Congruent","ratio_trial":300,"L_num":20,"L_den":25,"R_num":9,"R_den":18,"correct_side":1,"subjID":"julianariconolarte3","gender":"1","school":"4","age":"9"},{"start_time":1552327688600,"click_time":1552327690148,"finger_time":1552327689987,"fix_duration":250,"trial":11,"RT":1387,"MT":161,"sideResp":1,"stimulus":[],"xmouse":[805,805,805,805,804,804,804,804,803,802,802,802,802,802,802,802,802,802,802,802,802,802,802,802,802,802,802,802,802,802,802,802,802,802,802,802,802,802,802,802,802,802,802,802,802,802,802,802,802,802,802,802,802,802,802,802,802,802,802,802,802,802,802,802,802,802,802,799,794,786,778,763,712,660,640,572,526,485],"ymouse":[515,515,515,515,515,515,515,515,515,515,515,515,515,515,515,515,515,515,515,515,515,515,515,515,515,515,515,515,515,515,515,515,515,515,515,515,515,515,515,515,515,515,515,515,515,515,515,515,515,515,515,515,515,515,515,515,515,515,515,515,515,515,515,515,515,515,515,503,485,459,427,387,283,205,179,98,46,7],"timestamp_mouse":[16,26,47,67,87,108,127,148,166,186,208,226,248,267,286,308,327,346,368,388,408,427,447,467,488,508,528,548,567,587,607,628,647,668,688,708,727,748,767,788,808,826,848,867,887,907,927,947,967,986,1008,1028,1048,1068,1087,1107,1128,1148,1167,1187,1208,1228,1247,1267,1288,1307,1327,1346,1367,1387,1407,1426,1447,1467,1487,1507,1527,1547],"xSR":741.5,"ySR":469.95,"xT1":424.9,"yT1":0,"xT2":1058.1,"yT2":0,"toosoon":0,"cond_shown":"Congruent","ratio_trial":100,"L_num":15,"L_den":25,"R_num":13,"R_den":26,"correct_side":1,"subjID":"julianariconolarte3","gender":"1","school":"4","age":"9"},{"start_time":1552327693384,"click_time":1552327694367,"finger_time":1552327694147,"fix_duration":1095.8516590182408,"trial":12,"RT":763,"MT":220,"sideResp":2,"stimulus":[],"xmouse":[788,788,788,788,788,788,788,788,788,788,788,788,788,788,788,788,788,788,788,788,788,788,788,788,788,788,788,788,788,788,788,788,788,788,789,791,799,815,863,901,943,988,1029,1104,1114,1118,1118,1118,1118,1120],"ymouse":[507,507,507,507,507,507,507,507,507,507,507,507,507,507,507,507,507,507,507,507,507,507,507,507,507,507,507,507,507,507,507,507,507,506,503,501,496,488,455,422,378,315,250,127,108,104,103,102,101,97],"timestamp_mouse":[12,35,44,63,83,103,123,144,163,182,202,223,244,263,283,304,324,344,363,384,403,424,444,464,483,504,524,543,562,584,604,624,644,663,683,703,723,743,763,783,803,822,844,865,883,903,922,944,965,982],"xSR":741.5,"ySR":469.95,"xT1":424.9,"yT1":0,"xT2":1058.1,"yT2":0,"toosoon":0,"cond_shown":"Incongruent","ratio_trial":200,"L_num":14,"L_den":30,"R_num":6,"R_den":9,"correct_side":2,"subjID":"julianariconolarte3","gender":"1","school":"4","age":"9"},{"start_time":1552327695813,"click_time":1552327696967,"finger_time":1552327696487,"fix_duration":384.80435557816975,"trial":13,"RT":674,"MT":480,"sideResp":1,"stimulus":[],"xmouse":[799,799,799,799,799,799,799,799,799,799,799,799,799,799,799,799,799,799,799,799,799,799,799,799,799,799,799,799,799,798,795,788,765,751,740,728,715,680,667,657,649,645,631,622,615,607,599,582,574,567,556,550,541,538,536,532,526,513],"ymouse":[525,525,525,525,525,525,525,525,525,525,525,525,525,525,525,525,525,525,525,525,525,525,525,525,525,525,525,525,525,525,520,512,481,457,432,405,373,317,299,288,280,278,266,258,249,241,232,221,214,209,200,194,176,168,157,143,125,86],"timestamp_mouse":[14,37,54,74,94,115,134,155,175,193,215,234,255,274,294,314,335,355,373,394,415,433,453,474,494,514,535,553,574,594,614,635,654,674,693,713,734,753,774,794,815,834,854,874,894,914,934,954,974,994,1013,1034,1054,1073,1095,1114,1135,1154],"xSR":741.5,"ySR":469.95,"xT1":424.9,"yT1":0,"xT2":1058.1,"yT2":0,"toosoon":0,"cond_shown":"Incongruent","ratio_trial":100,"L_num":2,"L_den":4,"R_num":6,"R_den":15,"correct_side":1,"subjID":"julianariconolarte3","gender":"1","school":"4","age":"9"},{"start_time":1552327698739,"click_time":1552327700146,"finger_time":1552327699667,"fix_duration":691.8267398505635,"trial":14,"RT":928,"MT":479,"sideResp":2,"stimulus":[],"xmouse":[790,790,790,790,790,790,790,790,790,790,790,790,790,790,790,790,790,790,790,790,790,790,790,790,790,790,790,790,790,790,790,790,790,790,790,790,790,790,790,790,790,792,793,796,803,811,839,855,875,897,922,966,983,1000,1018,1028,1040,1041,1042,1043,1044,1049,1057,1063,1068,1074,1085,1090,1097,1104,1110],"ymouse":[496,496,496,496,496,496,496,496,496,496,496,496,496,496,496,496,496,496,496,496,496,496,496,496,496,496,496,496,496,496,496,496,496,496,496,496,496,496,496,496,496,495,494,492,488,483,463,451,437,422,407,380,365,349,325,313,298,296,294,293,290,277,259,244,227,210,172,153,136,116,98],"timestamp_mouse":[13,42,48,69,89,109,128,149,169,187,208,229,248,269,289,308,327,348,368,387,408,429,449,469,489,508,528,548,568,588,608,629,648,667,688,709,728,748,769,787,807,828,849,868,887,907,928,948,967,987,1009,1028,1047,1068,1088,1107,1128,1148,1169,1189,1207,1228,1248,1268,1288,1308,1328,1348,1367,1387,1407],"xSR":741.5,"ySR":469.95,"xT1":424.9,"yT1":0,"xT2":1058.1,"yT2":0,"toosoon":0,"cond_shown":"Congruent","ratio_trial":300,"L_num":5,"L_den":25,"R_num":6,"R_den":12,"correct_side":2,"subjID":"julianariconolarte3","gender":"1","school":"4","age":"9"},{"start_time":1552327701671,"click_time":1552327703507,"finger_time":1552327703007,"fix_duration":603.9970484573831,"trial":15,"RT":1336,"MT":500,"sideResp":1,"stimulus":[],"xmouse":[786,786,786,786,786,786,786,786,786,786,786,786,786,786,786,786,786,786,786,786,786,786,786,786,786,786,786,786,786,786,786,784,781,780,778,775,775,775,775,775,775,775,775,775,775,775,775,775,775,775,775,775,775,775,775,775,775,775,775,775,775,775,775,775,774,759,741,717,693,674,635,618,602,588,574,553,549,547,542,537,533,530,527,526,525,525,525,525,525,525,525,520],"ymouse":[521,521,521,521,521,521,521,521,521,521,521,521,521,521,521,521,521,521,521,521,521,521,521,521,521,521,521,521,521,519,515,508,503,498,496,493,492,492,492,492,492,492,492,492,492,492,492,492,492,492,492,492,492,492,492,492,492,492,492,492,492,492,492,492,492,486,475,460,444,430,397,374,353,324,299,239,217,196,173,126,103,83,67,60,58,58,58,58,58,58,58,58],"timestamp_mouse":[17,48,57,76,96,116,137,157,176,196,217,237,257,275,296,317,335,355,377,397,417,437,457,476,496,516,537,556,577,596,616,637,656,676,697,716,736,756,776,798,817,836,855,877,897,917,936,957,977,996,1015,1035,1057,1077,1096,1116,1137,1156,1177,1197,1217,1236,1257,1277,1297,1316,1336,1355,1375,1397,1415,1436,1456,1476,1496,1516,1536,1555,1577,1597,1615,1636,1656,1676,1697,1717,1737,1756,1776,1797,1816,1836],"xSR":741.5,"ySR":469.95,"xT1":424.9,"yT1":0,"xT2":1058.1,"yT2":0,"toosoon":0,"cond_shown":"Incongruent","ratio_trial":200,"L_num":7,"L_den":10,"R_num":12,"R_den":24,"correct_side":1,"subjID":"julianariconolarte3","gender":"1","school":"4","age":"9"},{"start_time":1552327707122,"click_time":1552327712068,"finger_time":1552327709087,"fix_duration":1273.5754749059993,"trial":16,"RT":1965,"MT":2981,"sideResp":1,"stimulus":[],"xmouse":[787,787,787,787,787,787,787,787,787,787,787,787,787,787,787,787,787,787,787,787,787,787,787,787,787,787,787,787,787,787,787,787,787,787,787,787,787,787,787,787,787,787,787,787,787,787,787,787,787,787,787,787,787,787,787,787,787,787,785,784,784,784,783,783,782,781,780,779,778,778,778,778,778,778,778,778,778,778,778,778,778,778,778,778,778,778,778,778,778,778,778,778,778,778,778,782,788,796,824,848,870,901,932,973,988,998,1007,1014,1021,1024,1025,1027,1028,1031,1031,1031,1031,1031,1031,1031,1031,1031,1031,1031,1031,1026,1010,989,931,874,833,786,748,689,671,653,637,618,592,583,581,580,578,577,576,574,569,564,555,553,552,551,551,551,551,550,549,549,548,545,545,544,543,542,541,539,539,538,537,537,537,537,536,535,534,533,533,532,531,530,529,529,528,528,528,528,528,528,528,528,528,528,528,526,526,525,525,525,525,525,525,525,525,525,525,525,525,525,525,525,525,525,525,525,525,525,525,525,525,525,525,525,525,525,525,525,525,525,525,525,525,525,525,525,525,525,525,525,525,525,525,525,525,525,525,525,525,524],"ymouse":[533,533,533,533,533,533,533,533,533,533,533,533,533,533,532,531,531,531,531,531,531,531,531,531,531,531,531,531,531,531,531,531,531,531,531,531,531,531,531,531,531,531,531,531,531,531,531,531,531,531,531,531,531,531,530,530,529,527,526,524,524,524,524,523,523,521,520,519,518,518,518,518,518,518,518,518,518,518,518,518,518,518,518,518,518,518,518,518,518,518,518,518,518,518,516,510,501,487,448,414,388,350,315,248,220,200,183,171,155,150,146,142,139,133,131,130,130,130,130,130,130,130,130,130,130,129,129,129,129,129,129,129,129,129,129,129,129,129,129,129,129,129,129,129,129,128,128,127,126,125,125,125,125,125,125,125,125,125,124,123,123,122,122,122,122,122,122,122,122,122,122,122,121,120,119,118,117,115,112,107,106,104,104,103,103,103,103,103,103,103,103,103,102,101,100,99,99,99,99,99,99,99,99,99,99,99,99,99,99,99,99,99,99,99,99,99,99,99,99,99,99,99,99,99,99,99,99,99,99,99,99,99,99,99,99,99,99,99,99,99,99,99,99,99,99,98,98,98],"timestamp_mouse":[20,28,45,65,86,106,126,145,166,186,205,224,245,265,284,305,326,345,366,385,404,426,445,464,486,505,525,546,566,585,605,624,645,665,685,704,725,745,765,785,804,825,845,866,884,905,926,945,965,985,1006,1025,1046,1066,1085,1106,1125,1145,1165,1185,1205,1226,1245,1265,1284,1305,1326,1345,1365,1386,1404,1425,1445,1465,1485,1505,1526,1545,1565,1584,1606,1626,1646,1665,1684,1706,1725,1746,1766,1786,1805,1826,1846,1865,1885,1905,1924,1945,1965,1986,2004,2025,2044,2065,2085,2104,2125,2145,2165,2186,2205,2224,2244,2265,2286,2305,2325,2346,2365,2385,2405,2426,2445,2465,2484,2505,2525,2545,2565,2585,2605,2625,2645,2666,2685,2705,2725,2746,2766,2786,2805,2825,2846,2866,2884,2905,2925,2945,2965,2984,3005,3024,3044,3065,3086,3106,3125,3146,3165,3184,3205,3226,3245,3266,3284,3305,3325,3345,3366,3386,3404,3426,3445,3465,3484,3506,3525,3545,3565,3585,3605,3626,3646,3666,3685,3706,3724,3746,3765,3786,3805,3826,3844,3866,3885,3905,3926,3946,3965,3985,4006,4026,4044,4066,4085,4105,4125,4145,4164,4186,4206,4225,4246,4265,4284,4304,4325,4345,4365,4386,4406,4425,4446,4465,4485,4505,4525,4545,4565,4585,4605,4625,4645,4666,4684,4705,4726,4746,4765,4785,4805,4826,4845,4865,4885,4905,4925,4945],"xSR":741.5,"ySR":469.95,"xT1":424.9,"yT1":0,"xT2":1058.1,"yT2":0,"toosoon":0,"cond_shown":"Congruent","ratio_trial":200,"L_num":6,"L_den":20,"R_num":11,"R_den":22,"correct_side":2,"subjID":"julianariconolarte3","gender":"1","school":"4","age":"9"},{"start_time":1552327714742,"click_time":1552327716707,"finger_time":1552327716546,"fix_duration":1293.024477909574,"trial":17,"RT":1804,"MT":161,"sideResp":1,"stimulus":[],"xmouse":[781,781,781,781,781,781,781,781,781,781,781,781,781,781,781,781,781,781,781,781,781,781,781,781,781,781,781,781,781,781,781,781,781,781,781,781,781,781,781,781,781,781,781,781,781,781,781,781,781,781,781,781,781,781,781,781,781,781,781,781,781,781,781,781,781,781,781,781,781,781,781,781,781,781,781,781,781,781,781,781,781,781,781,781,781,780,780,779,777,776,773,767,758,726,687,649,610,563,483],"ymouse":[495,495,495,495,495,495,495,495,495,495,495,495,495,495,495,495,495,495,495,495,495,495,495,495,495,495,495,495,495,495,495,495,495,495,495,495,493,492,491,490,489,489,488,487,487,487,487,487,487,487,487,487,487,487,487,487,487,487,487,487,487,487,487,487,487,487,487,487,487,487,487,487,487,487,487,487,487,487,487,487,487,487,487,485,483,479,477,476,473,470,464,451,433,383,314,257,202,150,59],"timestamp_mouse":[13,25,46,65,86,106,126,145,166,186,206,225,245,266,285,306,326,346,365,386,406,425,444,466,485,505,525,545,566,585,605,625,646,666,685,705,726,745,766,785,805,825,846,866,884,905,926,946,966,985,1005,1025,1046,1065,1084,1105,1133,1146,1166,1186,1205,1225,1246,1264,1286,1305,1326,1346,1366,1386,1405,1425,1444,1466,1485,1505,1525,1545,1564,1586,1605,1626,1646,1664,1685,1706,1725,1745,1764,1784,1804,1825,1846,1865,1885,1905,1925,1945,1965],"xSR":741.5,"ySR":469.95,"xT1":424.9,"yT1":0,"xT2":1058.1,"yT2":0,"toosoon":0,"cond_shown":"Congruent","ratio_trial":100,"L_num":1,"L_den":2,"R_num":3,"R_den":5,"correct_side":2,"subjID":"julianariconolarte3","gender":"1","school":"4","age":"9"},{"start_time":1552327718159,"click_time":1552327720147,"finger_time":1552327719668,"fix_duration":250,"trial":18,"RT":1509,"MT":479,"sideResp":2,"stimulus":[],"xmouse":[812,812,812,812,812,812,812,812,812,812,812,812,812,812,812,812,812,812,812,812,812,812,811,811,811,811,811,811,811,811,811,811,811,811,811,811,811,811,811,811,811,811,811,811,811,811,811,811,811,811,811,811,811,811,811,811,811,811,811,811,811,811,811,811,811,811,811,813,814,815,817,818,822,829,834,842,848,873,885,898,913,930,959,977,991,1002,1014,1034,1041,1047,1053,1061,1063,1074,1077,1079,1082,1084,1086,1086],"ymouse":[506,506,506,506,506,507,507,507,507,507,507,507,507,507,507,507,507,507,507,507,507,507,507,507,507,507,507,507,507,507,507,507,507,507,507,507,507,507,507,507,507,507,507,507,507,507,507,507,507,507,507,507,507,507,507,507,507,507,507,507,507,507,507,507,507,506,506,504,503,502,500,499,495,490,485,479,473,456,447,438,426,412,387,370,358,348,338,317,305,293,280,259,250,205,186,166,148,119,107,99],"timestamp_mouse":[12,36,48,69,89,108,127,148,168,188,208,228,248,268,288,309,327,348,369,388,409,428,449,468,488,509,528,548,569,589,609,629,648,668,689,708,728,748,768,789,809,829,848,868,888,908,929,948,969,989,1009,1029,1049,1069,1089,1109,1128,1148,1168,1189,1208,1229,1248,1269,1288,1308,1329,1348,1368,1388,1408,1429,1448,1467,1488,1509,1528,1549,1568,1587,1607,1629,1648,1668,1688,1708,1728,1748,1768,1788,1808,1829,1849,1868,1888,1909,1928,1948,1968,1988],"xSR":741.5,"ySR":469.95,"xT1":424.9,"yT1":0,"xT2":1058.1,"yT2":0,"toosoon":0,"cond_shown":"Incongruent","ratio_trial":300,"L_num":4,"L_den":20,"R_num":2,"R_den":4,"correct_side":2,"subjID":"julianariconolarte3","gender":"1","school":"4","age":"9"},{"start_time":1552327723554,"click_time":1552327726347,"finger_time":1552327725487,"fix_duration":865.4472590817992,"trial":19,"RT":1933,"MT":860,"sideResp":1,"stimulus":[],"xmouse":[792,792,792,792,792,792,792,792,792,792,792,792,792,792,792,792,792,792,792,792,792,792,792,792,792,792,792,792,792,792,792,792,792,792,792,792,792,792,792,792,792,792,792,792,792,792,792,792,792,792,792,792,792,792,792,792,792,792,792,792,792,792,792,792,792,792,792,792,792,792,792,792,788,781,777,773,771,770,770,770,770,770,770,770,770,770,770,770,770,770,770,770,770,768,764,756,743,724,693,606,563,487,442,365,341,325,316,314,314,314,314,314,314,321,330,341,351,363,386,398,401,403,403,403,403,403,403,405,409,411,416,420,422,423,423,423,423,423,423,425],"ymouse":[507,507,507,507,507,507,507,507,507,507,507,507,507,507,507,507,507,507,507,507,507,507,507,507,507,507,507,507,507,507,507,507,507,507,507,507,507,507,507,507,507,507,507,507,507,507,507,507,507,507,507,507,507,507,507,507,507,507,507,507,507,507,507,507,507,507,507,507,507,507,507,504,501,494,492,489,487,486,486,486,486,486,486,486,486,486,486,486,486,486,486,486,484,482,478,470,455,432,395,301,257,190,155,95,74,60,52,48,47,46,46,46,45,45,46,49,54,58,65,69,70,70,70,71,71,71,71,71,71,71,73,73,74,75,75,75,75,75,75,76],"timestamp_mouse":[21,41,54,73,94,113,133,154,174,192,213,234,252,273,293,314,334,353,372,394,414,433,452,474,493,513,533,553,574,593,614,634,654,674,693,714,733,753,774,793,814,833,853,873,894,914,934,953,974,993,1012,1034,1053,1072,1094,1113,1134,1154,1174,1193,1213,1234,1252,1272,1294,1313,1333,1353,1372,1393,1413,1434,1453,1473,1492,1513,1532,1553,1572,1594,1613,1634,1653,1674,1694,1713,1732,1754,1773,1794,1813,1834,1853,1872,1892,1914,1933,1953,1973,1993,2013,2033,2053,2074,2093,2113,2132,2153,2173,2193,2214,2234,2253,2273,2293,2314,2333,2353,2373,2394,2413,2433,2454,2473,2493,2513,2532,2554,2573,2594,2613,2633,2653,2673,2694,2714,2734,2752,2773,2793],"xSR":741.5,"ySR":469.95,"xT1":424.9,"yT1":0,"xT2":1058.1,"yT2":0,"toosoon":0,"cond_shown":"Congruent","ratio_trial":200,"L_num":7,"L_den":15,"R_num":18,"R_den":27,"correct_side":2,"subjID":"julianariconolarte3","gender":"1","school":"4","age":"9"},{"start_time":1552327728882,"click_time":1552327731447,"finger_time":1552327730428,"fix_duration":1174.9337226693744,"trial":20,"RT":1546,"MT":1019,"sideResp":1,"stimulus":[],"xmouse":[801,801,801,801,801,801,801,801,801,801,801,801,801,801,801,801,801,799,799,798,798,798,797,797,797,797,797,796,796,796,796,796,796,796,796,796,796,796,796,796,796,796,796,796,796,796,796,796,796,796,796,796,796,796,796,796,796,796,796,796,796,796,796,796,796,796,796,796,796,796,796,796,796,797,797,797,797,793,787,782,774,763,742,729,727,727,727,726,726,726,727,727,727,727,725,721,710,675,644,613,579,570,548,538,537,536,536,536,536,536,536,536,536,536,534,534,532,529,525,521,518,515,513,512,512,511,510,510,509],"ymouse":[505,505,505,505,505,505,505,505,505,505,505,505,505,505,505,504,504,504,504,504,504,504,504,504,504,504,504,504,504,504,504,504,504,504,504,504,504,504,504,504,504,504,504,504,504,504,504,504,504,504,504,504,504,504,504,504,504,504,504,504,504,504,504,504,504,504,504,504,504,504,504,503,500,490,483,478,473,460,451,440,427,411,387,372,370,369,368,368,368,365,359,351,341,316,304,294,279,242,218,198,177,172,162,157,156,156,156,156,156,156,156,156,156,156,155,154,151,140,133,124,119,115,112,108,107,105,103,101,99],"timestamp_mouse":[4,35,45,65,85,105,126,145,165,185,205,226,245,265,285,305,325,345,364,386,406,425,446,465,486,505,525,545,565,586,606,624,657,664,684,705,724,746,765,785,805,825,845,866,885,905,925,945,965,985,1004,1025,1045,1065,1084,1105,1126,1145,1165,1186,1205,1226,1245,1265,1285,1304,1324,1346,1365,1385,1405,1425,1445,1465,1484,1505,1525,1546,1565,1584,1605,1626,1645,1664,1685,1704,1725,1746,1764,1786,1804,1826,1845,1865,1885,1906,1925,1947,1964,1986,2004,2025,2045,2064,2085,2105,2125,2146,2166,2185,2204,2225,2244,2265,2285,2305,2325,2347,2365,2385,2405,2425,2445,2465,2485,2505,2524,2546,2565],"xSR":741.5,"ySR":469.95,"xT1":424.9,"yT1":0,"xT2":1058.1,"yT2":0,"toosoon":0,"cond_shown":"Congruent","ratio_trial":200,"L_num":16,"L_den":20,"R_num":12,"R_den":20,"correct_side":1,"subjID":"julianariconolarte3","gender":"1","school":"4","age":"9"},{"start_time":1552327733202,"click_time":1552327736086,"finger_time":1552327734807,"fix_duration":833.9278996408464,"trial":21,"RT":1605,"MT":1279,"sideResp":1,"stimulus":[],"xmouse":[782,782,782,782,784,784,784,784,784,784,784,784,784,784,784,784,784,784,784,784,784,784,784,784,784,784,784,784,784,784,784,784,784,784,784,784,784,784,784,784,784,784,784,784,784,784,784,784,784,784,784,784,784,784,784,784,784,784,784,784,784,784,784,784,785,785,785,785,785,785,785,785,785,787,787,789,789,789,789,786,783,779,775,773,771,769,766,760,753,743,733,720,682,639,606,575,548,513,505,502,502,502,502,502,502,502,502,502,502,502,502,502,502,503,503,503,503,499,497,495,494,493,492,492,492,492,492,492,492,492,492,492,492,493,493,493,493,493,494,494,494,494,494,494,494],"ymouse":[529,529,529,526,525,525,525,525,525,525,525,525,525,525,525,525,525,525,525,525,525,525,525,525,525,525,525,525,525,525,525,525,525,525,525,525,525,525,525,525,525,525,525,525,525,525,525,525,525,525,525,525,525,525,525,525,525,525,525,525,525,525,525,524,524,524,524,524,524,524,524,523,521,515,511,507,503,491,483,472,460,449,436,431,426,422,417,403,391,378,364,347,303,264,241,220,202,182,178,176,176,176,176,176,176,176,176,176,176,175,175,175,174,171,167,163,159,147,140,135,128,123,116,114,114,114,113,111,111,110,109,108,106,105,104,104,103,103,100,100,100,100,100,100,99],"timestamp_mouse":[13,24,45,65,84,106,125,145,165,185,204,224,246,266,284,306,326,344,364,385,406,426,444,464,485,506,524,544,565,585,605,625,646,666,685,705,724,746,766,786,805,824,846,864,885,906,925,946,966,986,1004,1026,1046,1065,1085,1105,1125,1146,1164,1185,1204,1225,1246,1264,1286,1304,1324,1345,1364,1385,1405,1425,1444,1466,1484,1505,1525,1544,1564,1585,1605,1625,1645,1664,1684,1706,1725,1744,1764,1784,1805,1826,1845,1865,1885,1906,1925,1945,1964,1986,2005,2026,2045,2065,2084,2105,2125,2146,2165,2185,2206,2226,2244,2265,2284,2305,2325,2345,2364,2384,2404,2425,2446,2464,2486,2504,2525,2545,2566,2586,2606,2625,2645,2666,2686,2705,2725,2744,2764,2786,2806,2826,2846,2866,2884],"xSR":741.5,"ySR":469.95,"xT1":424.9,"yT1":0,"xT2":1058.1,"yT2":0,"toosoon":0,"cond_shown":"Congruent","ratio_trial":100,"L_num":2,"L_den":5,"R_num":6,"R_den":12,"correct_side":2,"subjID":"julianariconolarte3","gender":"1","school":"4","age":"9"},{"start_time":1552327738039,"click_time":1552327740366,"finger_time":1552327739566,"fix_duration":730.6566646304623,"trial":22,"RT":1527,"MT":800,"sideResp":2,"stimulus":[],"xmouse":[791,791,791,791,790,788,785,781,777,769,754,750,747,746,746,746,746,746,746,746,746,746,746,746,746,746,746,746,746,747,753,757,759,759,759,761,764,770,780,782,786,786,786,786,786,786,786,786,786,786,786,787,787,790,793,795,796,796,796,796,797,798,799,799,799,800,800,801,803,805,814,820,825,830,839,844,851,856,865,883,892,904,916,930,947,1006,1038,1063,1102,1125,1152,1159,1163,1164,1164,1166,1168,1170,1174,1176,1180,1181,1182,1182,1182,1176,1170,1167,1165,1164,1164,1162,1161,1160,1159,1155],"ymouse":[542,542,542,542,542,542,542,542,542,544,551,553,553,553,553,553,553,553,553,553,553,553,553,553,553,553,553,553,553,551,546,543,541,540,539,532,524,513,495,491,484,484,484,484,484,484,484,484,484,484,484,483,483,483,483,483,483,483,483,483,484,485,485,485,485,486,487,487,489,490,491,491,491,491,491,491,491,489,486,479,475,472,467,457,446,399,368,334,281,250,215,208,205,204,204,203,200,196,186,177,159,146,133,118,102,75,66,62,61,61,60,60,60,60,60,62],"timestamp_mouse":[31,47,69,89,108,127,147,168,188,208,229,247,267,288,309,329,347,369,387,408,428,448,468,488,509,529,547,568,588,607,628,647,667,687,708,727,748,767,788,808,828,847,869,889,907,929,949,969,987,1008,1027,1048,1068,1087,1109,1128,1148,1167,1188,1207,1228,1247,1267,1289,1308,1328,1348,1368,1387,1408,1428,1447,1468,1487,1509,1527,1547,1568,1589,1610,1628,1647,1668,1688,1708,1727,1748,1768,1787,1808,1828,1848,1869,1889,1909,1927,1947,1967,1987,2007,2029,2048,2069,2088,2108,2128,2147,2168,2189,2208,2227,2247,2269,2287,2308,2327],"xSR":741.5,"ySR":469.95,"xT1":424.9,"yT1":0,"xT2":1058.1,"yT2":0,"toosoon":0,"cond_shown":"Incongruent","ratio_trial":200,"L_num":3,"L_den":10,"R_num":1,"R_den":2,"correct_side":2,"subjID":"julianariconolarte3","gender":"1","school":"4","age":"9"},{"start_time":1552327741539,"click_time":1552327744088,"finger_time":1552327742386,"fix_duration":250,"trial":23,"RT":847,"MT":1702,"sideResp":1,"stimulus":[],"xmouse":[780,780,780,781,781,781,781,781,781,782,782,782,782,782,782,782,782,782,782,782,783,783,784,784,785,785,785,785,785,785,785,785,785,785,785,785,785,785,785,785,785,785,785,785,785,785,785,784,784,784,784,784,784,784,783,783,780,778,776,775,771,762,755,753,753,752,751,751,751,751,751,751,751,751,751,751,751,750,750,750,752,758,762,770,775,782,794,798,801,803,804,807,808,809,811,812,815,816,817,818,819,826,830,836,840,843,851,854,857,861,866,879,890,896,899,901,901,901,901,895,887,848,790,749,695,642,529,497],"ymouse":[537,536,536,535,535,535,535,535,535,534,534,534,534,534,534,534,534,534,532,531,530,528,527,526,524,522,521,520,519,517,516,514,511,506,502,496,486,483,481,479,477,471,467,463,459,456,450,450,449,448,448,447,447,447,447,447,447,446,446,446,443,440,438,436,436,436,436,436,436,436,436,436,436,436,436,436,436,436,436,437,438,440,440,440,440,440,435,432,429,426,424,414,405,401,396,392,385,384,382,380,378,368,361,353,346,340,325,321,315,310,304,291,280,273,267,264,259,254,246,232,213,164,125,106,83,70,51,46],"timestamp_mouse":[20,44,48,67,87,109,127,147,169,189,207,229,248,268,288,308,327,347,369,387,407,427,448,467,489,507,527,547,567,587,608,627,648,667,688,707,728,747,767,788,808,827,847,867,887,907,928,947,968,987,1007,1028,1049,1067,1088,1107,1128,1149,1169,1188,1208,1228,1249,1268,1289,1307,1328,1348,1368,1388,1407,1428,1448,1468,1489,1508,1528,1549,1568,1588,1609,1628,1649,1667,1689,1708,1728,1749,1769,1789,1808,1827,1849,1868,1889,1908,1928,1948,1968,1987,2007,2028,2048,2068,2089,2108,2127,2147,2168,2188,2207,2228,2248,2268,2287,2307,2327,2349,2369,2388,2407,2428,2448,2467,2488,2507,2528,2549],"xSR":741.5,"ySR":469.95,"xT1":424.9,"yT1":0,"xT2":1058.1,"yT2":0,"toosoon":0,"cond_shown":"Incongruent","ratio_trial":300,"L_num":2,"L_den":4,"R_num":6,"R_den":30,"correct_side":1,"subjID":"julianariconolarte3","gender":"1","school":"4","age":"9"},{"start_time":1552327745848,"click_time":1552327748066,"finger_time":1552327747707,"fix_duration":579.1683239872307,"trial":24,"RT":1859,"MT":359,"sideResp":2,"stimulus":[],"xmouse":[786,786,786,786,786,786,786,786,786,786,786,786,786,786,786,786,786,786,786,786,786,786,786,786,786,786,786,786,786,786,786,786,786,786,786,786,786,786,786,786,786,786,786,786,786,786,786,786,786,786,786,786,786,786,786,786,786,786,786,786,786,786,786,786,786,786,786,786,786,786,786,786,786,786,786,786,786,786,786,786,786,786,786,786,786,786,785,785,786,786,791,798,809,830,853,915,931,944,954,962,981,989,1000,1011,1024,1041,1059,1066,1069,1073,1074],"ymouse":[511,511,511,511,511,511,511,511,511,511,511,511,511,511,511,511,511,511,511,511,511,511,511,511,511,511,511,511,511,511,511,511,511,511,511,511,511,511,511,511,511,511,511,511,511,511,511,511,511,511,511,511,511,511,511,511,511,511,511,511,511,511,511,511,511,511,511,511,511,511,511,511,511,511,511,511,511,511,511,511,511,511,511,511,511,511,511,510,509,508,499,489,467,433,395,315,298,287,277,268,247,238,228,218,202,179,142,128,115,105,96],"timestamp_mouse":[35,40,60,79,98,119,140,158,180,200,218,239,259,280,300,318,338,360,378,398,419,440,459,479,500,520,538,560,578,598,619,639,660,680,700,719,739,760,779,798,820,840,859,880,900,919,940,960,979,999,1019,1039,1060,1080,1098,1118,1140,1160,1180,1199,1219,1238,1260,1279,1299,1319,1339,1360,1379,1399,1420,1438,1458,1479,1500,1519,1539,1560,1580,1598,1618,1640,1659,1678,1699,1720,1739,1760,1778,1798,1820,1839,1859,1879,1899,1920,1938,1958,1980,1999,2020,2038,2060,2079,2100,2119,2138,2158,2179,2199,2218],"xSR":741.5,"ySR":469.95,"xT1":424.9,"yT1":0,"xT2":1058.1,"yT2":0,"toosoon":0,"cond_shown":"Incongruent","ratio_trial":300,"L_num":13,"L_den":26,"R_num":12,"R_den":15,"correct_side":2,"subjID":"julianariconolarte3","gender":"1","school":"4","age":"9"},{"start_time":1552327749458,"click_time":1552327751567,"finger_time":1552327751247,"fix_duration":530.8553204212897,"trial":25,"RT":1789,"MT":320,"sideResp":2,"stimulus":[],"xmouse":[788,788,788,788,788,788,788,788,788,788,788,788,788,788,788,788,788,788,788,788,788,788,788,788,788,788,788,788,788,788,788,788,788,788,788,788,788,788,788,788,788,788,788,788,788,788,788,788,788,788,788,788,788,788,788,788,788,788,788,788,788,788,788,788,788,788,788,788,788,788,788,788,788,788,788,788,788,788,788,788,788,788,788,788,790,793,799,805,813,823,839,876,898,927,943,959,988,1004,1022,1038,1051,1070,1082,1102,1115,1124],"ymouse":[520,520,520,520,520,520,520,520,520,520,520,520,520,520,520,520,520,520,520,520,520,520,520,520,520,520,520,520,520,520,520,520,520,520,520,520,520,520,520,520,520,520,520,520,520,520,520,520,520,520,520,520,520,520,520,520,520,520,520,520,520,520,520,520,520,520,520,520,520,520,520,520,520,520,520,520,520,520,520,520,520,520,518,515,510,504,492,484,473,458,438,395,373,349,333,313,269,245,225,205,191,168,150,122,100,85],"timestamp_mouse":[10,35,49,70,88,108,130,148,170,189,209,229,248,270,289,308,328,349,369,389,410,430,449,470,488,510,528,548,570,589,608,628,649,670,688,710,730,748,769,790,810,834,850,869,890,908,928,949,969,990,1010,1029,1049,1068,1090,1110,1128,1149,1169,1189,1210,1228,1249,1268,1290,1309,1329,1350,1370,1390,1408,1429,1449,1470,1490,1510,1530,1550,1569,1589,1610,1628,1649,1668,1689,1708,1729,1748,1769,1789,1810,1829,1848,1869,1888,1908,1929,1948,1970,1989,2010,2029,2049,2068,2089,2108],"xSR":741.5,"ySR":469.95,"xT1":424.9,"yT1":0,"xT2":1058.1,"yT2":0,"toosoon":0,"cond_shown":"Congruent","ratio_trial":100,"L_num":12,"L_den":30,"R_num":13,"R_den":26,"correct_side":2,"subjID":"julianariconolarte3","gender":"1","school":"4","age":"9"},{"start_time":1552327755090,"click_time":1552327757606,"finger_time":1552327756766,"fix_duration":1181.3917575369826,"trial":26,"RT":1676,"MT":840,"sideResp":1,"stimulus":[],"xmouse":[781,781,781,781,781,781,781,781,781,781,781,781,781,781,781,781,781,781,781,781,781,781,781,781,781,781,781,781,781,781,781,781,781,781,781,781,781,781,781,781,781,781,781,781,781,781,781,781,781,781,781,781,781,781,781,781,781,781,781,781,781,781,781,781,781,781,781,781,781,781,782,783,783,783,783,784,784,784,784,784,778,770,761,753,743,723,715,709,705,698,692,692,692,691,685,675,661,646,632,616,608,601,596,594,593,593,590,587,577,574,557,552,547,542,538,531,527,523,520,516,515,513,511,508,506,500],"ymouse":[516,516,516,516,516,516,516,516,516,516,516,516,516,516,516,516,516,516,516,516,516,516,516,516,516,516,516,516,516,516,516,516,516,516,516,516,516,516,516,516,516,516,516,516,516,516,516,516,516,516,516,516,516,516,516,516,516,516,516,516,516,516,516,516,516,516,516,516,516,516,515,513,513,513,513,512,512,510,507,506,495,484,470,449,426,373,343,321,298,272,260,259,259,258,252,244,236,226,218,211,210,209,209,209,209,209,208,205,193,187,161,159,157,157,156,151,147,143,140,137,135,134,131,126,118,94],"timestamp_mouse":[16,36,58,76,97,118,138,157,177,197,218,236,256,278,296,316,336,358,378,398,418,437,457,478,496,517,537,556,577,596,617,638,658,676,698,718,737,757,777,797,816,837,858,877,898,917,937,957,977,997,1016,1037,1057,1077,1097,1117,1137,1158,1177,1197,1216,1237,1257,1276,1297,1317,1337,1357,1377,1396,1417,1438,1457,1477,1498,1517,1536,1557,1576,1596,1618,1636,1657,1676,1697,1716,1737,1757,1778,1797,1816,1837,1857,1877,1898,1916,1936,1957,1977,1998,2017,2037,2057,2076,2097,2117,2137,2157,2178,2198,2217,2236,2257,2277,2297,2316,2336,2356,2376,2398,2416,2436,2458,2477,2497,2516],"xSR":741.5,"ySR":469.95,"xT1":424.9,"yT1":0,"xT2":1058.1,"yT2":0,"toosoon":0,"cond_shown":"Congruent","ratio_trial":100,"L_num":4,"L_den":10,"R_num":15,"R_den":30,"correct_side":2,"subjID":"julianariconolarte3","gender":"1","school":"4","age":"9"},{"start_time":1552327759099,"click_time":1552327763688,"finger_time":1552327759667,"fix_duration":292.95158084342586,"trial":27,"RT":568,"MT":4021,"sideResp":2,"stimulus":[],"xmouse":[794,794,794,794,794,794,794,794,794,794,794,794,794,794,794,794,794,794,794,794,794,794,794,794,794,787,779,772,765,757,743,735,727,718,705,680,669,654,644,632,618,612,609,608,606,604,602,598,594,589,569,557,543,530,517,505,505,505,505,504,504,504,504,504,505,510,525,540,547,554,563,567,569,569,569,569,569,569,569,569,569,569,569,569,569,569,569,569,569,569,569,569,569,570,571,573,576,577,578,580,589,595,602,610,620,631,661,670,678,682,688,690,691,693,696,701,704,706,707,708,709,709,709,709,709,709,709,709,709,709,709,709,709,709,709,709,709,709,709,709,709,709,709,709,708,707,706,705,705,705,705,705,705,705,705,705,705,705,705,705,705,705,705,705,705,705,705,705,705,705,705,705,705,705,705,705,705,705,705,705,705,705,705,705,705,705,705,705,705,705,709,719,726,737,754,870,994,1153,1321,1456,1561,1563,1563,1563,1563,1558,1518,1498,1479,1464,1441,1428,1410,1392,1375,1351,1343,1334,1326,1319,1308,1302,1295,1284,1268,1215,1197,1181,1166,1155],"ymouse":[519,519,519,519,519,519,519,519,519,519,519,519,519,519,519,519,519,519,519,519,519,519,517,516,511,496,482,470,460,449,429,417,401,386,367,332,315,286,267,248,219,210,205,202,201,198,196,195,193,191,188,187,186,186,186,186,186,186,186,186,187,192,198,207,216,229,257,279,289,298,309,315,318,318,318,318,318,318,318,318,318,318,318,318,318,318,318,318,318,318,318,318,318,318,315,314,310,309,309,308,304,302,298,295,291,286,273,271,268,267,265,264,264,262,261,259,258,257,257,257,256,256,256,256,256,256,256,256,256,256,256,256,256,256,256,256,256,256,256,256,256,255,255,255,254,252,251,250,250,250,250,250,250,250,250,250,250,250,250,250,250,250,250,250,250,250,250,250,250,250,250,250,250,250,250,250,250,250,250,250,250,250,250,250,250,250,250,250,250,249,249,249,249,249,249,233,198,159,130,112,95,92,90,90,89,87,76,73,71,71,71,71,71,70,69,69,69,69,68,67,67,67,67,67,68,80,85,86,86,86],"timestamp_mouse":[17,37,49,67,87,109,128,147,168,189,207,228,248,268,288,309,327,348,368,387,407,429,449,468,488,508,528,548,568,587,608,627,648,667,688,707,729,747,768,787,808,827,848,868,888,908,929,947,969,989,1009,1027,1048,1069,1088,1108,1127,1148,1168,1189,1207,1227,1249,1268,1289,1308,1328,1349,1367,1387,1408,1427,1448,1468,1489,1509,1529,1548,1568,1588,1607,1627,1649,1669,1687,1708,1728,1749,1768,1788,1807,1828,1848,1868,1889,1907,1928,1947,1967,1988,2007,2028,2049,2068,2088,2108,2128,2147,2167,2187,2208,2227,2248,2268,2288,2308,2327,2347,2367,2387,2409,2429,2447,2468,2488,2508,2529,2547,2569,2588,2608,2627,2648,2669,2688,2708,2729,2749,2768,2789,2807,2827,2847,2869,2888,2908,2928,2947,2967,2989,3008,3027,3047,3068,3088,3108,3129,3148,3169,3188,3207,3227,3247,3268,3289,3308,3329,3349,3369,3389,3408,3428,3447,3468,3487,3509,3528,3547,3568,3587,3608,3627,3648,3669,3688,3708,3729,3749,3769,3787,3808,3827,3848,3868,3889,3908,3927,3948,3969,3989,4009,4027,4049,4068,4089,4107,4128,4147,4168,4188,4207,4227,4247,4268,4288,4308,4328,4347,4368,4388,4409,4427,4447,4468,4488,4508,4528,4548,4568,4589],"xSR":741.5,"ySR":469.95,"xT1":424.9,"yT1":0,"xT2":1058.1,"yT2":0,"toosoon":0,"cond_shown":"Incongruent","ratio_trial":300,"L_num":4,"L_den":5,"R_num":8,"R_den":16,"correct_side":1,"subjID":"julianariconolarte3","gender":"1","school":"4","age":"9"},{"start_time":1552327764910,"click_time":1552327766746,"finger_time":1552327766267,"fix_duration":280.02688451495936,"trial":28,"RT":1357,"MT":479,"sideResp":1,"stimulus":[],"xmouse":[784,784,784,784,784,784,784,784,784,783,783,783,783,783,783,782,782,780,780,778,775,774,774,774,773,772,772,771,771,770,769,768,767,765,762,757,757,756,756,756,756,756,756,756,756,756,756,756,756,756,756,756,756,756,756,756,756,756,756,756,756,756,756,756,756,755,751,745,736,725,695,675,655,613,590,549,533,525,519,514,506,502,498,497,496,496,495,495,495,495,486,481],"ymouse":[546,546,546,546,546,546,545,543,542,538,535,534,533,532,531,529,527,524,521,519,513,511,510,509,508,507,505,504,503,501,500,499,498,496,493,486,486,485,485,485,485,485,485,485,485,485,485,485,485,485,485,485,485,485,485,485,485,485,485,485,485,485,485,485,485,482,474,459,438,412,352,319,294,257,243,225,221,218,216,214,207,204,199,195,192,186,180,172,160,144,102,84],"timestamp_mouse":[17,36,57,77,98,116,136,157,177,198,218,236,257,277,297,316,337,358,377,396,416,437,457,476,496,518,537,556,576,598,616,638,657,676,696,717,736,756,776,798,818,836,856,877,896,917,938,956,976,998,1017,1038,1057,1077,1096,1117,1137,1157,1177,1198,1218,1237,1257,1277,1298,1318,1336,1357,1377,1397,1416,1437,1457,1477,1497,1516,1536,1556,1576,1598,1616,1637,1656,1677,1696,1716,1736,1757,1777,1798,1816,1836],"xSR":741.5,"ySR":469.95,"xT1":424.9,"yT1":0,"xT2":1058.1,"yT2":0,"toosoon":0,"cond_shown":"Congruent","ratio_trial":300,"L_num":1,"L_den":5,"R_num":11,"R_den":22,"correct_side":2,"subjID":"julianariconolarte3","gender":"1","school":"4","age":"9"},{"start_time":1552327768378,"click_time":1552327770166,"finger_time":1552327769467,"fix_duration":250,"trial":29,"RT":1089,"MT":699,"sideResp":2,"stimulus":[],"xmouse":[794,794,794,794,794,794,794,794,794,794,794,794,794,794,794,794,794,794,794,794,794,794,794,794,794,794,794,794,794,794,794,794,794,794,794,794,794,794,794,794,794,794,794,794,794,794,794,794,794,797,799,802,812,819,828,839,850,878,899,916,930,942,960,967,971,975,977,981,984,986,987,988,990,990,991,991,992,998,1002,1012,1016,1020,1023,1025,1025,1027,1029,1037,1052,1061],"ymouse":[512,512,512,512,512,512,512,512,512,512,512,512,512,512,512,512,512,512,512,512,512,512,512,512,512,512,512,512,512,512,512,512,512,512,512,512,512,512,512,512,512,512,512,512,512,512,512,512,511,506,502,496,482,474,461,446,430,386,349,318,294,266,216,197,182,169,157,138,130,121,115,110,105,105,104,104,103,100,98,95,93,93,92,91,91,90,90,88,83,80],"timestamp_mouse":[12,37,49,69,90,109,128,150,169,188,208,230,248,268,290,310,329,350,369,388,410,429,448,469,490,509,529,548,570,588,610,629,650,668,690,710,729,749,768,790,808,828,850,869,888,909,929,948,970,988,1009,1029,1049,1068,1089,1109,1129,1148,1170,1189,1208,1228,1248,1268,1289,1308,1328,1349,1368,1388,1409,1429,1448,1468,1488,1508,1530,1549,1568,1589,1609,1629,1648,1669,1689,1709,1728,1749,1769,1788],"xSR":741.5,"ySR":469.95,"xT1":424.9,"yT1":0,"xT2":1058.1,"yT2":0,"toosoon":0,"cond_shown":"Incongruent","ratio_trial":100,"L_num":11,"L_den":22,"R_num":9,"R_den":15,"correct_side":2,"subjID":"julianariconolarte3","gender":"1","school":"4","age":"9"},{"start_time":1552327773559,"click_time":1552327777087,"finger_time":1552327775068,"fix_duration":1008.5964893054568,"trial":30,"RT":1509,"MT":2019,"sideResp":2,"stimulus":[],"xmouse":[793,792,792,792,792,792,792,792,792,790,790,790,789,789,789,788,788,788,788,788,788,788,788,788,788,788,787,785,784,780,777,775,773,771,769,769,769,769,769,769,769,769,769,769,769,769,769,769,769,769,769,769,769,769,769,769,769,769,769,769,769,769,769,769,769,769,769,769,769,769,769,769,772,779,787,801,816,839,852,875,884,890,894,898,907,910,913,914,915,915,915,915,915,915,915,915,915,916,918,920,922,925,927,933,934,936,942,945,948,954,955,957,957,957,958,959,960,963,963,966,967,968,969,970,971,971,971,971,971,971,971,971,971,971,971,971,971,971,971,971,971,971,971,971,971,971,971,971,971,971,971,971,971,971,973,973,974,975,976,978,980,981,984,986,991,994,997,1000,1002,1009,1013,1017,1022,1028,1043,1051,1060],"ymouse":[513,514,514,514,514,514,514,514,514,516,516,516,517,517,517,518,518,518,518,518,518,518,518,518,518,518,518,518,518,518,518,518,518,518,518,517,517,517,517,517,517,517,517,517,517,517,517,517,517,517,517,517,517,517,517,517,517,517,517,517,517,517,517,517,517,517,517,517,517,517,517,516,513,505,490,466,440,402,384,354,341,332,324,316,299,292,285,282,281,280,279,279,279,278,278,278,278,278,277,273,270,264,260,251,248,243,229,220,213,200,196,194,193,193,191,191,190,186,185,179,177,176,174,173,172,172,172,172,172,172,172,172,172,172,172,172,172,172,172,171,171,171,171,171,171,171,171,171,171,171,171,171,171,170,166,164,161,159,158,153,150,146,142,140,133,130,125,122,120,113,108,103,97,91,79,72,64],"timestamp_mouse":[12,33,47,68,89,107,128,148,167,187,208,227,247,268,287,308,327,349,367,389,407,429,447,467,487,509,527,547,567,589,608,627,648,667,687,709,729,748,767,788,809,828,849,868,888,909,929,947,969,988,1008,1029,1048,1067,1088,1109,1128,1149,1167,1187,1207,1229,1248,1268,1289,1307,1328,1347,1369,1387,1407,1428,1447,1469,1487,1509,1528,1548,1568,1587,1608,1628,1647,1668,1687,1708,1727,1748,1768,1787,1807,1827,1847,1869,1888,1908,1929,1948,1969,1987,2009,2029,2048,2069,2088,2108,2127,2148,2167,2187,2209,2228,2249,2268,2288,2308,2328,2347,2367,2388,2407,2427,2447,2469,2489,2509,2528,2549,2569,2587,2608,2627,2648,2668,2688,2708,2728,2749,2768,2787,2807,2827,2847,2868,2888,2909,2929,2948,2969,2987,3007,3027,3048,3068,3087,3108,3127,3148,3167,3187,3207,3229,3248,3269,3288,3308,3328,3348,3368,3388,3407,3428,3447,3467,3487,3508,3528],"xSR":741.5,"ySR":469.95,"xT1":424.9,"yT1":0,"xT2":1058.1,"yT2":0,"toosoon":0,"cond_shown":"Incongruent","ratio_trial":200,"L_num":7,"L_den":15,"R_num":4,"R_den":6,"correct_side":2,"subjID":"julianariconolarte3","gender":"1","school":"4","age":"9"},{"start_time":1552327779115,"click_time":1552327781407,"finger_time":1552327780626,"fix_duration":1006.7551415385003,"trial":31,"RT":1511,"MT":781,"sideResp":1,"stimulus":[],"xmouse":[788,788,788,788,788,788,788,788,788,788,788,788,788,788,788,788,788,788,788,788,788,788,788,788,788,788,788,788,788,788,788,788,788,788,788,788,788,787,787,787,787,787,787,787,787,787,787,787,787,787,787,787,787,787,787,787,787,787,787,787,787,787,787,787,787,787,787,787,787,787,787,787,787,787,783,776,747,708,683,659,641,620,614,611,611,611,611,610,607,603,597,582,577,572,569,566,562,557,547,534,520,496,487,477,463,454,446,446,446,446,446,445,447,452,458],"ymouse":[533,533,533,533,533,533,533,533,533,533,533,533,533,533,533,533,533,533,533,533,533,533,533,533,533,533,533,533,533,533,533,533,533,533,530,529,527,525,524,524,524,523,523,523,523,523,523,523,523,523,523,522,515,514,514,514,514,514,514,514,514,514,514,514,514,514,514,514,514,514,514,513,509,499,485,465,376,271,202,153,123,98,94,92,92,92,92,92,92,94,97,102,105,108,110,111,113,114,115,115,115,115,115,115,115,115,115,115,115,115,115,115,112,105,94],"timestamp_mouse":[11,32,63,71,93,113,131,153,173,192,213,231,251,272,292,313,332,352,373,391,413,432,452,473,492,512,531,552,573,593,611,631,652,673,692,712,732,751,772,793,813,832,851,873,893,912,931,952,973,993,1011,1031,1052,1071,1093,1113,1131,1153,1173,1192,1213,1231,1252,1272,1292,1311,1331,1352,1373,1392,1413,1433,1451,1473,1492,1511,1532,1551,1572,1592,1612,1632,1651,1672,1692,1713,1732,1751,1771,1792,1812,1833,1851,1873,1892,1913,1931,1952,1971,1992,2012,2033,2051,2072,2092,2113,2132,2152,2172,2192,2212,2233,2251,2271,2292],"xSR":741.5,"ySR":469.95,"xT1":424.9,"yT1":0,"xT2":1058.1,"yT2":0,"toosoon":0,"cond_shown":"Congruent","ratio_trial":300,"L_num":1,"L_den":5,"R_num":6,"R_den":12,"correct_side":2,"subjID":"julianariconolarte3","gender":"1","school":"4","age":"9"},{"start_time":1552327783814,"click_time":1552327785847,"finger_time":1552327784327,"fix_duration":1165.1837386821014,"trial":32,"RT":513,"MT":1520,"sideResp":1,"stimulus":[],"xmouse":[808,807,807,806,806,806,806,806,805,805,804,803,803,801,801,801,801,801,801,801,801,800,799,797,797,797,796,795,795,795,795,795,792,787,783,778,774,770,770,768,768,767,765,765,764,764,764,764,764,764,764,764,764,764,763,763,763,763,763,763,763,763,763,763,763,763,763,763,763,763,763,763,763,763,763,763,763,763,763,763,763,763,763,763,763,763,763,763,763,762,758,750,727,701,669,639,616,578,561,539,526,514],"ymouse":[514,514,514,513,513,513,513,513,513,513,513,513,513,513,513,513,513,513,513,513,511,506,492,483,474,469,467,467,467,467,467,466,467,469,470,472,473,475,475,476,477,478,482,483,484,484,484,484,484,484,484,484,484,485,485,485,485,485,485,485,485,485,485,485,485,485,485,485,485,485,485,485,485,485,485,485,485,485,485,485,485,485,485,485,485,485,485,485,485,481,468,449,390,340,287,240,209,155,132,101,83,67],"timestamp_mouse":[14,37,53,73,92,112,134,152,172,193,214,233,253,273,293,312,333,354,374,392,414,433,454,472,494,513,532,552,572,592,613,633,653,672,693,713,732,753,773,792,812,833,853,872,894,914,932,954,972,993,1013,1033,1054,1073,1093,1113,1133,1153,1173,1192,1212,1234,1254,1273,1294,1312,1334,1354,1372,1393,1414,1432,1453,1473,1493,1513,1533,1554,1574,1592,1613,1632,1654,1672,1693,1712,1734,1753,1773,1793,1812,1832,1853,1872,1893,1913,1934,1953,1973,1992,2013,2033],"xSR":741.5,"ySR":469.95,"xT1":424.9,"yT1":0,"xT2":1058.1,"yT2":0,"toosoon":0,"cond_shown":"Congruent","ratio_trial":100,"L_num":6,"L_den":12,"R_num":15,"R_den":25,"correct_side":2,"subjID":"julianariconolarte3","gender":"1","school":"4","age":"9"},{"start_time":1552327788690,"click_time":1552327790628,"finger_time":1552327790147,"fix_duration":579.2421765720334,"trial":33,"RT":1457,"MT":481,"sideResp":1,"stimulus":[],"xmouse":[813,813,813,813,813,813,813,813,813,813,813,813,813,813,813,813,813,813,813,813,813,813,813,813,813,813,813,813,813,813,813,813,813,813,813,813,813,813,813,813,813,813,813,813,813,813,813,813,813,813,813,813,813,813,813,813,813,813,813,813,813,813,813,813,813,813,813,813,813,808,801,792,781,768,724,705,688,672,645,634,626,619,612,595,587,581,575,571,563,558,555,551,543,532,502,486,474],"ymouse":[527,527,527,527,527,527,527,527,527,527,527,527,527,527,527,527,527,527,527,527,527,527,527,527,527,527,527,527,527,527,527,527,527,527,527,527,527,527,527,527,527,527,527,527,527,527,527,527,527,527,527,527,527,527,527,527,527,527,527,527,527,527,527,527,527,527,527,526,521,512,499,482,462,440,361,329,302,278,242,232,224,217,209,187,177,172,166,162,157,155,154,152,147,139,119,109,99],"timestamp_mouse":[17,45,57,78,98,117,136,156,177,197,216,238,258,276,296,316,338,357,376,397,418,437,457,476,498,518,536,556,578,597,617,636,657,677,698,718,738,756,776,796,816,836,858,876,897,918,937,958,978,998,1018,1037,1058,1077,1096,1117,1136,1156,1177,1198,1217,1237,1257,1276,1296,1316,1337,1357,1377,1397,1417,1436,1457,1477,1497,1516,1537,1557,1578,1597,1617,1637,1657,1678,1697,1716,1737,1756,1778,1798,1817,1837,1857,1878,1898,1917,1938],"xSR":741.5,"ySR":469.95,"xT1":424.9,"yT1":0,"xT2":1058.1,"yT2":0,"toosoon":0,"cond_shown":"Congruent","ratio_trial":300,"L_num":20,"L_den":25,"R_num":13,"R_den":26,"correct_side":1,"subjID":"julianariconolarte3","gender":"1","school":"4","age":"9"},{"start_time":1552327791599,"click_time":1552327793469,"finger_time":1552327793108,"fix_duration":250,"trial":34,"RT":1509,"MT":361,"sideResp":2,"stimulus":[],"xmouse":[780,780,780,780,780,780,780,780,780,780,780,780,780,780,780,780,780,780,780,780,780,780,780,780,780,780,780,780,780,780,780,780,780,780,780,780,780,780,780,780,780,780,780,780,780,780,780,780,780,780,780,780,780,780,780,780,780,780,780,780,780,780,780,780,780,780,780,780,780,780,780,781,783,786,801,820,831,871,897,949,965,978,986,991,999,1003,1008,1015,1019,1029,1036,1045,1053,1059],"ymouse":[515,515,515,515,515,515,515,515,515,515,515,515,515,515,515,515,515,515,515,515,515,515,515,515,515,515,515,515,515,515,515,515,515,515,515,515,515,515,515,515,515,515,515,515,515,515,515,515,515,515,515,515,515,515,515,515,515,515,515,515,515,515,515,515,515,515,515,515,515,515,515,513,512,509,495,467,451,396,364,307,288,273,263,254,241,233,223,211,203,181,160,134,107,89],"timestamp_mouse":[23,32,48,69,89,107,128,147,169,188,209,228,248,268,289,309,327,348,368,388,407,428,449,469,488,507,527,549,569,589,608,627,648,669,687,708,729,747,769,789,807,827,849,869,888,907,928,949,969,987,1007,1028,1047,1068,1088,1107,1129,1149,1167,1188,1209,1228,1249,1268,1288,1307,1329,1347,1369,1389,1409,1427,1447,1467,1488,1509,1528,1548,1568,1588,1607,1628,1647,1669,1687,1708,1728,1747,1767,1787,1807,1828,1847,1870],"xSR":741.5,"ySR":469.95,"xT1":424.9,"yT1":0,"xT2":1058.1,"yT2":0,"toosoon":0,"cond_shown":"Incongruent","ratio_trial":200,"L_num":4,"L_den":5,"R_num":6,"R_den":10,"correct_side":1,"subjID":"julianariconolarte3","gender":"1","school":"4","age":"9"},{"start_time":1552327795721,"click_time":1552327800006,"finger_time":1552327798507,"fix_duration":1233.9752392855708,"trial":35,"RT":2786,"MT":1499,"sideResp":2,"stimulus":[],"xmouse":[782,782,782,782,782,782,782,782,782,782,782,782,782,782,782,782,782,782,782,782,782,782,782,781,781,781,781,781,781,781,781,781,781,781,781,781,781,781,781,781,781,781,781,781,781,781,781,781,781,781,781,781,781,781,781,781,781,781,781,781,781,781,781,781,781,781,781,781,781,781,782,783,785,785,786,786,786,786,786,786,786,786,786,786,786,786,786,786,786,786,786,786,786,786,786,786,786,786,786,786,786,786,786,786,786,786,786,786,786,786,786,786,786,786,786,786,786,786,786,786,786,786,786,786,786,786,786,786,786,786,786,786,786,786,785,785,785,784,783,778,773,766,757,740,731,718,705,692,668,641,627,616,611,603,603,603,603,603,603,605,610,618,627,646,657,662,666,667,669,671,674,679,686,697,729,748,769,791,834,845,853,862,870,880,897,906,913,920,932,937,941,944,945,953,962,973,984,993,1008,1009,1011,1013,1016,1018,1019,1021,1022,1025,1030,1038,1041,1045,1048,1058,1063],"ymouse":[506,506,506,506,506,506,506,506,506,506,506,506,506,506,506,506,506,506,506,506,505,505,505,505,505,505,505,505,505,505,505,505,505,505,505,505,505,505,505,505,505,505,505,505,505,505,505,505,505,505,505,505,505,505,505,505,505,505,505,505,505,505,505,505,505,505,505,505,504,502,498,494,490,487,486,486,486,486,486,486,486,486,486,486,486,486,486,486,486,486,486,486,486,486,486,486,486,486,486,486,486,486,486,486,486,486,486,486,486,486,486,486,486,486,486,486,486,486,486,486,486,486,486,486,486,486,486,486,486,486,485,485,484,483,481,481,479,477,473,460,451,442,431,407,395,380,365,350,330,307,295,286,281,277,277,277,277,277,277,277,277,277,280,284,287,287,287,287,287,285,285,285,285,285,285,285,285,282,268,262,253,242,228,209,168,147,126,111,85,78,75,74,74,74,74,74,74,74,74,74,74,74,75,76,76,76,76,76,76,76,76,76,76,76,76],"timestamp_mouse":[12,37,46,65,85,107,125,146,165,186,206,227,246,265,286,305,325,346,367,386,406,426,446,465,487,507,526,546,565,585,606,625,645,666,687,707,726,745,765,785,805,825,846,865,887,906,925,945,965,986,1006,1027,1045,1065,1087,1105,1125,1147,1165,1186,1207,1225,1245,1265,1287,1306,1326,1346,1365,1386,1405,1427,1445,1466,1486,1505,1525,1546,1565,1586,1606,1627,1646,1665,1686,1706,1725,1747,1767,1785,1805,1826,1847,1867,1885,1907,1925,1946,1965,1987,2005,2026,2047,2065,2086,2107,2127,2146,2166,2186,2205,2227,2246,2266,2285,2305,2325,2346,2365,2387,2407,2426,2445,2465,2486,2507,2527,2546,2566,2585,2606,2627,2645,2666,2685,2707,2725,2746,2765,2786,2805,2826,2845,2867,2885,2906,2925,2946,2966,2986,3005,3025,3045,3066,3085,3105,3127,3146,3166,3185,3205,3226,3245,3266,3285,3306,3327,3346,3366,3385,3405,3426,3447,3465,3486,3505,3525,3545,3566,3585,3605,3625,3646,3666,3686,3706,3725,3746,3766,3786,3805,3825,3845,3867,3885,3906,3925,3947,3966,3985,4006,4025,4045,4067,4085,4106,4126,4145,4167,4185,4205,4226,4247,4266,4285],"xSR":741.5,"ySR":469.95,"xT1":424.9,"yT1":0,"xT2":1058.1,"yT2":0,"toosoon":0,"cond_shown":"Incongruent","ratio_trial":100,"L_num":12,"L_den":30,"R_num":2,"R_den":4,"correct_side":2,"subjID":"julianariconolarte3","gender":"1","school":"4","age":"9"},{"start_time":1552327801832,"click_time":1552327803707,"finger_time":1552327803467,"fix_duration":723.2164751100092,"trial":36,"RT":1635,"MT":240,"sideResp":1,"stimulus":[],"xmouse":[787,787,787,787,787,787,787,787,787,787,787,786,786,784,782,781,780,779,777,776,776,775,775,774,773,773,773,772,772,772,771,771,771,771,770,770,770,770,769,769,768,768,768,767,767,767,767,767,767,767,767,767,767,767,767,767,767,767,767,767,767,767,767,767,767,767,767,767,767,767,767,767,767,766,766,766,764,763,761,760,754,747,736,713,696,680,662,644,606,585,573,561,550,509],"ymouse":[521,521,521,521,521,521,521,521,521,521,521,521,520,520,519,519,518,518,517,516,515,515,514,514,513,513,513,512,511,511,510,510,509,509,507,507,507,506,506,506,505,505,503,503,502,502,502,502,502,502,502,502,502,502,502,502,502,502,502,502,502,502,502,502,502,502,502,502,502,502,502,502,501,499,498,498,494,492,487,484,470,456,433,389,364,343,321,297,244,212,193,175,150,86],"timestamp_mouse":[16,40,55,75,94,116,135,156,174,194,216,234,255,275,295,315,334,354,376,395,414,435,454,476,494,516,535,555,576,594,614,634,654,675,694,714,735,756,776,795,815,834,855,874,895,914,934,954,976,994,1014,1034,1055,1076,1095,1114,1136,1156,1174,1195,1216,1234,1254,1276,1295,1314,1335,1355,1376,1395,1414,1436,1454,1474,1495,1515,1534,1554,1574,1594,1614,1635,1655,1674,1694,1715,1734,1755,1775,1794,1814,1835,1855,1875],"xSR":741.5,"ySR":469.95,"xT1":424.9,"yT1":0,"xT2":1058.1,"yT2":0,"toosoon":0,"cond_shown":"Congruent","ratio_trial":200,"L_num":8,"L_den":15,"R_num":7,"R_den":21,"correct_side":1,"subjID":"julianariconolarte3","gender":"1","school":"4","age":"9"},{"start_time":1552327806857,"click_time":1552327810008,"finger_time":1552327809686,"fix_duration":547.1966131895119,"trial":37,"RT":2829,"MT":322,"sideResp":2,"stimulus":[],"xmouse":[800,800,800,800,800,800,800,800,800,800,800,800,800,800,800,800,800,800,800,800,800,800,800,800,800,800,800,800,800,800,800,800,800,800,800,800,800,800,800,799,799,799,799,799,799,799,799,799,799,799,799,799,799,799,799,799,798,798,798,797,797,797,797,796,796,796,796,796,796,796,796,796,796,796,796,796,796,796,796,796,796,796,796,796,796,796,796,796,796,796,796,796,796,796,796,796,796,796,796,796,796,796,796,796,796,796,796,796,796,796,795,795,795,795,795,795,795,795,795,795,795,795,795,795,795,795,795,795,795,795,795,795,795,795,795,795,795,795,796,797,803,811,821,853,869,887,904,944,956,968,979,987,1005,1012,1021,1030,1045,1066],"ymouse":[477,477,477,477,477,477,477,477,477,477,477,477,477,477,477,477,477,477,477,477,477,477,477,477,477,477,477,477,477,477,477,477,477,477,477,478,479,482,482,483,483,483,483,483,483,483,483,483,483,483,483,483,483,483,484,485,485,486,487,489,489,490,490,491,491,491,491,491,491,491,491,491,491,491,491,491,491,491,491,491,491,491,491,491,491,491,491,491,491,491,491,491,491,491,491,491,491,491,491,491,491,491,491,493,493,493,493,493,493,493,494,494,494,494,495,495,496,496,496,496,496,496,496,496,496,496,496,496,496,496,496,496,496,496,496,496,496,496,495,490,480,467,454,417,399,378,358,305,281,261,242,227,197,181,164,150,128,99],"timestamp_mouse":[12,35,50,69,91,109,130,150,170,190,210,229,250,270,290,310,329,349,369,390,411,430,449,469,490,511,531,550,570,590,611,630,650,670,690,710,730,750,770,791,810,830,850,871,891,910,930,949,971,991,1012,1031,1049,1069,1090,1110,1129,1149,1169,1191,1209,1229,1250,1270,1290,1309,1329,1349,1371,1390,1410,1431,1450,1469,1489,1510,1530,1550,1570,1589,1611,1631,1650,1671,1690,1709,1731,1749,1770,1789,1810,1829,1851,1871,1891,1910,1930,1950,1970,1989,2010,2030,2050,2071,2091,2109,2130,2151,2170,2189,2209,2231,2251,2269,2289,2310,2331,2350,2369,2390,2410,2430,2450,2471,2491,2509,2529,2550,2570,2590,2610,2630,2651,2670,2690,2710,2730,2751,2770,2789,2810,2829,2851,2869,2889,2909,2929,2951,2969,2989,3009,3029,3051,3069,3089,3110,3131,3151],"xSR":741.5,"ySR":469.95,"xT1":424.9,"yT1":0,"xT2":1058.1,"yT2":0,"toosoon":0,"cond_shown":"Incongruent","ratio_trial":300,"L_num":4,"L_den":20,"R_num":2,"R_den":4,"correct_side":2,"subjID":"julianariconolarte3","gender":"1","school":"4","age":"9"},{"start_time":1552327812232,"click_time":1552327814188,"finger_time":1552327813566,"fix_duration":1344.2344414412162,"trial":38,"RT":1334,"MT":622,"sideResp":1,"stimulus":[],"xmouse":[791,791,791,791,791,791,791,791,791,791,791,791,791,791,791,791,791,791,791,791,791,791,791,791,791,791,791,791,791,791,791,791,791,791,791,791,791,791,791,791,791,791,791,791,791,791,791,791,791,791,791,791,791,791,791,791,791,791,791,790,788,784,782,778,762,752,741,726,709,664,639,607,572,546,531,526,526,526,526,526,526,526,526,526,526,526,526,526,526,526,525,523,520,516,504,501,500,499],"ymouse":[519,519,519,519,522,522,522,522,522,522,522,522,522,522,522,522,522,522,522,522,522,522,522,522,522,522,522,522,522,522,522,522,522,522,522,522,522,522,522,522,522,522,522,522,522,522,522,522,522,522,522,522,522,522,522,522,522,522,522,523,523,523,523,523,519,514,508,498,486,451,427,387,335,283,252,234,234,234,234,234,234,233,232,231,214,202,191,179,171,161,157,152,145,136,114,107,103,99],"timestamp_mouse":[16,42,55,74,94,116,135,155,175,195,214,234,255,274,294,315,334,356,374,395,416,436,455,474,495,516,535,555,574,596,615,636,655,676,694,715,735,755,775,794,815,836,855,874,895,914,934,954,975,995,1014,1035,1055,1075,1094,1114,1135,1155,1175,1194,1215,1234,1254,1275,1294,1316,1334,1355,1374,1394,1415,1435,1455,1474,1494,1515,1535,1554,1574,1594,1615,1634,1655,1675,1695,1715,1734,1755,1774,1796,1816,1835,1854,1874,1895,1915,1934,1956],"xSR":741.5,"ySR":469.95,"xT1":424.9,"yT1":0,"xT2":1058.1,"yT2":0,"toosoon":0,"cond_shown":"Incongruent","ratio_trial":300,"L_num":1,"L_den":2,"R_num":2,"R_den":10,"correct_side":1,"subjID":"julianariconolart