[{"start_time":1552328253401,"click_time":1552328256026,"finger_time":1552328255786,"fix_duration":548.6846303992497,"trial":0,"RT":2385,"MT":240,"sideResp":1,"stimulus":"img/500/equaldotanddens/L/13_Ratio_500_L_12_R_6.png","xmouse":[795,795,795,795,795,795,795,795,795,795,795,795,795,795,795,795,795,795,795,795,795,795,795,795,795,795,795,795,795,795,795,795,795,795,795,795,795,795,795,795,795,795,795,795,795,795,795,795,795,795,795,795,795,795,795,795,795,795,795,795,795,795,795,795,795,795,795,795,795,795,795,795,795,795,795,795,795,795,795,795,795,795,795,795,795,795,795,795,795,795,795,795,795,795,795,795,795,795,795,798,798,798,798,798,798,798,798,798,798,798,798,798,798,798,798,798,799,804,804,804,798,749,683,654,633,618,597,557,544,532,525,522],"ymouse":[524,524,524,524,524,524,524,524,524,524,524,524,524,524,524,524,524,524,524,524,524,524,524,524,524,524,524,524,524,524,524,524,524,524,524,524,524,524,524,524,524,524,524,524,524,524,524,524,524,524,524,524,524,524,524,524,524,524,524,524,524,524,524,524,524,524,524,524,524,524,524,524,524,524,524,524,524,524,524,524,524,524,524,524,524,524,524,524,524,524,524,524,524,524,524,524,522,512,498,484,477,475,475,475,475,475,475,475,475,475,475,475,475,475,475,475,475,473,473,466,460,407,341,291,249,209,175,106,79,59,47,41],"timestamp_mouse":[9,38,45,65,86,105,125,145,165,186,205,224,246,266,284,304,324,346,364,385,406,424,445,464,485,505,525,546,566,586,605,625,645,664,685,706,725,744,764,785,805,824,844,866,885,904,924,944,964,986,1006,1025,1045,1065,1086,1104,1126,1146,1164,1185,1205,1225,1245,1264,1284,1305,1325,1345,1365,1385,1406,1426,1445,1466,1485,1505,1525,1545,1565,1585,1606,1626,1646,1665,1684,1705,1726,1745,1765,1785,1806,1825,1846,1866,1885,1904,1925,1944,1965,1984,2005,2024,2044,2064,2086,2105,2124,2146,2165,2186,2204,2225,2244,2266,2286,2306,2324,2344,2365,2385,2405,2427,2445,2465,2484,2504,2525,2544,2565,2585,2605,2624],"xSR":741.5,"ySR":469.95,"xT1":424.9,"yT1":0,"xT2":1058.1,"yT2":0,"toosoon":0,"cond_shown":"equaldotanddens","ratio_trial":500,"smaller_num":"6","larger_num":"12","correct_side":1,"subjID":"julianarinconolarte3","gender":"1","age":"9","school":"4","test":{"fix_dur":[250,1500],"timestim":300,"targets_dim":[100,100],"targets_relative_coord":[0.3,0.7],"size_stim":[880,420],"start_dim":[100,100],"size_start":[300,300],"size_fix":60,"samplingrate":20,"img_types":["equaldotsize","equaldotanddens","randomdotsizeEA"],"ratios":[250,500,750,900],"rep_conds":9,"nTrials":120,"trials_to_rest":500,"Trials_order":[64,107,70,29,5,80,67,45,66,48,104,25,84,102,78,89,68,2,41,31,101,113,114,37,85,108,81,112,106,58,0,20,3,42,73,93,13,9,39,65,119,7,38,99,98,100,34,32,71,110,8,83,79,92,51,76,11,49,19,14,26,88,94,103,47,12,27,87,75,50,23,21,46,69,57,55,10,95,117,62,4,56,28,63,6,97,40,111,72,43,52,74,17,24,109,44,1,86,105,16,22,33,90,59,60,54,18,30,77,36,96,82,15,91,53,35,116,61,115,118],"cond_shown":["equaldotanddens","randomdotsizeEA","equaldotanddens","randomdotsizeEA","randomdotsizeEA","randomdotsizeEA","equaldotanddens","equaldotsize","equaldotsize","equaldotsize","randomdotsizeEA","equaldotanddens","equaldotsize","equaldotsize","equaldotsize","randomdotsizeEA","randomdotsizeEA","randomdotsizeEA","randomdotsizeEA","equaldotanddens","randomdotsizeEA","randomdotsizeEA","equaldotsize","equaldotanddens","equaldotanddens","equaldotsize","equaldotsize","equaldotanddens","equaldotanddens","equaldotanddens","equaldotsize","randomdotsizeEA","equaldotsize","equaldotsize","equaldotanddens","equaldotsize","equaldotanddens","equaldotsize","equaldotsize","randomdotsizeEA","randomdotsizeEA","equaldotanddens","randomdotsizeEA","equaldotsize","randomdotsizeEA","equaldotanddens","equaldotanddens","randomdotsizeEA","randomdotsizeEA","randomdotsizeEA","randomdotsizeEA","randomdotsizeEA","equaldotanddens","randomdotsizeEA","equaldotsize","equaldotanddens","randomdotsizeEA","equaldotanddens","equaldotanddens","randomdotsizeEA","randomdotsizeEA","equaldotanddens","equaldotanddens","equaldotanddens","randomdotsizeEA","equaldotsize","equaldotsize","equaldotsize","equaldotsize","randomdotsizeEA","randomdotsizeEA","equaldotsize","equaldotanddens","equaldotsize","equaldotsize","equaldotanddens","equaldotanddens","randomdotsizeEA","equaldotsize","randomdotsizeEA","equaldotanddens","randomdotsizeEA","equaldotanddens","equaldotsize","equaldotsize","equaldotanddens","equaldotanddens","equaldotsize","equaldotsize","equaldotanddens","equaldotanddens","randomdotsizeEA","randomdotsizeEA","equaldotsize","equaldotanddens","randomdotsizeEA","equaldotanddens","randomdotsizeEA","equaldotsize","equaldotanddens","equaldotanddens","equaldotsize","equaldotsize","randomdotsizeEA","equaldotsize","equaldotsize","equaldotsize","equaldotsize","randomdotsizeEA","equaldotsize","equaldotsize","equaldotanddens","equaldotsize","equaldotanddens","randomdotsizeEA","randomdotsizeEA","randomdotsizeEA","equaldotanddens","equaldotanddens","equaldotanddens"],"ratio_trial":[500,900,900,500,500,750,750,900,750,250,750,250,250,750,750,500,750,250,500,750,500,500,750,250,250,250,900,500,900,900,250,750,500,750,250,900,250,900,500,500,900,750,250,500,250,500,900,750,900,250,750,900,750,750,500,500,900,250,750,250,250,500,900,750,900,250,500,500,500,250,900,900,900,900,900,750,900,900,900,250,500,750,500,500,750,250,500,500,250,750,500,250,500,250,250,750,250,250,900,500,900,900,750,900,250,750,750,750,500,250,250,900,500,750,500,900,750,250,750,900],"smaller_num":["6","18","18","9","5","15","15","18","6","4","15","2","4","15","3","9","3","3","1","3","6","1","3","1","2","4","18","9","18","18","3","12","9","6","2","9","3","9","9","3","18","6","3","2","3","5","18","15","18","1","3","9","3","15","1","3","18","2","9","5","2","2","18","12","18","3","5","4","5","3","18","9","9","18","9","6","9","9","18","3","2","18","9","2","15","6","1","2","3","3","2","3","6","3","2","3","2","3","18","1","9","9","15","18","2","18","3","3","9","2","2","18","10","15","2","18","3","3","15","9"],"larger_num":["12","20","20","18","10","20","20","20","8","16","20","8","16","20","4","18","4","12","2","4","12","2","4","4","8","16","20","18","20","20","12","16","18","8","8","10","12","10","18","6","20","8","12","4","12","10","20","20","20","4","4","10","4","20","2","6","20","8","12","20","8","4","20","16","20","12","10","8","10","12","20","10","10","20","10","8","10","10","20","12","4","24","18","4","20","24","2","4","12","4","4","12","12","12","8","4","8","12","20","2","10","10","20","20","8","24","4","4","18","8","8","20","20","20","4","20","4","12","20","10"],"correct_side":[1,2,1,1,2,2,1,2,2,1,2,2,1,2,2,2,1,2,2,1,1,2,1,2,2,2,2,2,1,1,2,2,2,1,1,2,2,1,1,2,2,1,2,2,2,2,2,2,2,2,1,2,1,2,2,2,2,1,2,2,1,1,2,2,1,2,1,1,1,1,1,1,2,1,2,1,2,2,1,2,1,1,2,2,1,2,2,1,2,2,1,2,1,2,1,2,2,2,1,2,2,2,2,2,2,1,1,1,1,2,1,1,2,2,1,2,2,1,2,2],"img_shown":["img/500/equaldotanddens/L/13_Ratio_500_L_12_R_6.png","img/900/randomdotsizeEA/R/9_Ratio_900_L_18_R_20.png","img/900/equaldotanddens/L/2_Ratio_900_L_20_R_18.png","img/500/randomdotsizeEA/L/4_Ratio_500_L_18_R_9.png","img/500/randomdotsizeEA/R/14_Ratio_500_L_5_R_10.png","img/750/randomdotsizeEA/R/5_Ratio_750_L_15_R_20.png","img/750/equaldotanddens/L/1_Ratio_750_L_20_R_15.png","img/900/equaldotsize/R/13_Ratio_900_L_18_R_20.png","img/750/equaldotsize/R/2_Ratio_750_L_6_R_8.png","img/250/equaldotsize/L/2_Ratio_250_L_16_R_4.png","img/750/randomdotsizeEA/R/5_Ratio_750_L_15_R_20.png","img/250/equaldotanddens/R/13_Ratio_250_L_2_R_8.png","img/250/equaldotsize/L/2_Ratio_250_L_16_R_4.png","img/750/equaldotsize/R/3_Ratio_750_L_15_R_20.png","img/750/equaldotsize/R/12_Ratio_750_L_3_R_4.png","img/500/randomdotsizeEA/R/1_Ratio_500_L_9_R_18.png","img/750/randomdotsizeEA/L/8_Ratio_750_L_4_R_3.png","img/250/randomdotsizeEA/R/9_Ratio_250_L_3_R_12.png","img/500/randomdotsizeEA/R/15_Ratio_500_L_1_R_2.png","img/750/equaldotanddens/L/9_Ratio_750_L_4_R_3.png","img/500/randomdotsizeEA/L/13_Ratio_500_L_12_R_6.png","img/500/randomdotsizeEA/R/12_Ratio_500_L_1_R_2.png","img/750/equaldotsize/L/8_Ratio_750_L_4_R_3.png","img/250/equaldotanddens/R/8_Ratio_250_L_1_R_4.png","img/250/equaldotanddens/R/13_Ratio_250_L_2_R_8.png","img/250/equaldotsize/R/10_Ratio_250_L_4_R_16.png","img/900/equaldotsize/R/14_Ratio_900_L_18_R_20.png","img/500/equaldotanddens/R/6_Ratio_500_L_9_R_18.png","img/900/equaldotanddens/L/8_Ratio_900_L_20_R_18.png","img/900/equaldotanddens/L/8_Ratio_900_L_20_R_18.png","img/250/equaldotsize/R/4_Ratio_250_L_3_R_12.png","img/750/randomdotsizeEA/R/11_Ratio_750_L_12_R_16.png","img/500/equaldotsize/R/1_Ratio_500_L_9_R_18.png","img/750/equaldotsize/L/14_Ratio_750_L_8_R_6.png","img/250/equaldotanddens/L/7_Ratio_250_L_8_R_2.png","img/900/equaldotsize/R/5_Ratio_900_L_9_R_10.png","img/250/equaldotanddens/R/9_Ratio_250_L_3_R_12.png","img/900/equaldotsize/L/1_Ratio_900_L_10_R_9.png","img/500/equaldotsize/L/4_Ratio_500_L_18_R_9.png","img/500/randomdotsizeEA/R/2_Ratio_500_L_3_R_6.png","img/900/randomdotsizeEA/R/12_Ratio_900_L_18_R_20.png","img/750/equaldotanddens/L/14_Ratio_750_L_8_R_6.png","img/250/randomdotsizeEA/R/4_Ratio_250_L_3_R_12.png","img/500/equaldotsize/R/9_Ratio_500_L_2_R_4.png","img/250/randomdotsizeEA/R/4_Ratio_250_L_3_R_12.png","img/500/equaldotanddens/R/14_Ratio_500_L_5_R_10.png","img/900/equaldotanddens/R/12_Ratio_900_L_18_R_20.png","img/750/randomdotsizeEA/R/5_Ratio_750_L_15_R_20.png","img/900/randomdotsizeEA/R/9_Ratio_900_L_18_R_20.png","img/250/randomdotsizeEA/R/8_Ratio_250_L_1_R_4.png","img/750/randomdotsizeEA/L/8_Ratio_750_L_4_R_3.png","img/900/randomdotsizeEA/R/3_Ratio_900_L_9_R_10.png","img/750/equaldotanddens/L/10_Ratio_750_L_4_R_3.png","img/750/randomdotsizeEA/R/4_Ratio_750_L_15_R_20.png","img/500/equaldotsize/R/12_Ratio_500_L_1_R_2.png","img/500/equaldotanddens/R/2_Ratio_500_L_3_R_6.png","img/900/randomdotsizeEA/R/13_Ratio_900_L_18_R_20.png","img/250/equaldotanddens/L/1_Ratio_250_L_8_R_2.png","img/750/equaldotanddens/R/15_Ratio_750_L_9_R_12.png","img/250/randomdotsizeEA/R/12_Ratio_250_L_5_R_20.png","img/250/randomdotsizeEA/L/3_Ratio_250_L_8_R_2.png","img/500/equaldotanddens/L/5_Ratio_500_L_4_R_2.png","img/900/equaldotanddens/R/9_Ratio_900_L_18_R_20.png","img/750/equaldotanddens/R/11_Ratio_750_L_12_R_16.png","img/900/randomdotsizeEA/L/10_Ratio_900_L_20_R_18.png","img/250/equaldotsize/R/9_Ratio_250_L_3_R_12.png","img/500/equaldotsize/L/7_Ratio_500_L_10_R_5.png","img/500/equaldotsize/L/8_Ratio_500_L_8_R_4.png","img/500/equaldotsize/L/7_Ratio_500_L_10_R_5.png","img/250/randomdotsizeEA/L/14_Ratio_250_L_12_R_3.png","img/900/randomdotsizeEA/L/10_Ratio_900_L_20_R_18.png","img/900/equaldotsize/L/1_Ratio_900_L_10_R_9.png","img/900/equaldotanddens/R/6_Ratio_900_L_9_R_10.png","img/900/equaldotsize/L/2_Ratio_900_L_20_R_18.png","img/900/equaldotsize/R/5_Ratio_900_L_9_R_10.png","img/750/equaldotanddens/L/14_Ratio_750_L_8_R_6.png","img/900/equaldotanddens/R/6_Ratio_900_L_9_R_10.png","img/900/randomdotsizeEA/R/5_Ratio_900_L_9_R_10.png","img/900/equaldotsize/L/10_Ratio_900_L_20_R_18.png","img/250/randomdotsizeEA/R/9_Ratio_250_L_3_R_12.png","img/500/equaldotanddens/L/10_Ratio_500_L_4_R_2.png","img/750/randomdotsizeEA/L/6_Ratio_750_L_24_R_18.png","img/500/equaldotanddens/R/1_Ratio_500_L_9_R_18.png","img/500/equaldotsize/R/9_Ratio_500_L_2_R_4.png","img/750/equaldotsize/L/1_Ratio_750_L_20_R_15.png","img/250/equaldotanddens/R/6_Ratio_250_L_6_R_24.png","img/500/equaldotanddens/R/12_Ratio_500_L_1_R_2.png","img/500/equaldotsize/L/10_Ratio_500_L_4_R_2.png","img/250/equaldotsize/R/11_Ratio_250_L_3_R_12.png","img/750/equaldotanddens/R/12_Ratio_750_L_3_R_4.png","img/500/equaldotanddens/L/10_Ratio_500_L_4_R_2.png","img/250/randomdotsizeEA/R/9_Ratio_250_L_3_R_12.png","img/500/randomdotsizeEA/L/11_Ratio_500_L_12_R_6.png","img/250/equaldotsize/R/9_Ratio_250_L_3_R_12.png","img/250/equaldotanddens/L/7_Ratio_250_L_8_R_2.png","img/750/randomdotsizeEA/R/12_Ratio_750_L_3_R_4.png","img/250/equaldotanddens/R/13_Ratio_250_L_2_R_8.png","img/250/randomdotsizeEA/R/9_Ratio_250_L_3_R_12.png","img/900/equaldotsize/L/2_Ratio_900_L_20_R_18.png","img/500/equaldotanddens/R/15_Ratio_500_L_1_R_2.png","img/900/equaldotanddens/R/3_Ratio_900_L_9_R_10.png","img/900/equaldotsize/R/5_Ratio_900_L_9_R_10.png","img/750/equaldotsize/R/3_Ratio_750_L_15_R_20.png","img/900/randomdotsizeEA/R/11_Ratio_900_L_18_R_20.png","img/250/equaldotsize/R/13_Ratio_250_L_2_R_8.png","img/750/equaldotsize/L/6_Ratio_750_L_24_R_18.png","img/750/equaldotsize/L/10_Ratio_750_L_4_R_3.png","img/750/equaldotsize/L/8_Ratio_750_L_4_R_3.png","img/500/randomdotsizeEA/L/4_Ratio_500_L_18_R_9.png","img/250/equaldotsize/R/13_Ratio_250_L_2_R_8.png","img/250/equaldotsize/L/7_Ratio_250_L_8_R_2.png","img/900/equaldotanddens/L/8_Ratio_900_L_20_R_18.png","img/500/equaldotsize/R/3_Ratio_500_L_10_R_20.png","img/750/equaldotanddens/R/4_Ratio_750_L_15_R_20.png","img/500/randomdotsizeEA/L/10_Ratio_500_L_4_R_2.png","img/900/randomdotsizeEA/R/11_Ratio_900_L_18_R_20.png","img/750/randomdotsizeEA/R/7_Ratio_750_L_3_R_4.png","img/250/equaldotanddens/L/15_Ratio_250_L_12_R_3.png","img/750/equaldotanddens/R/5_Ratio_750_L_15_R_20.png","img/900/equaldotanddens/R/15_Ratio_900_L_9_R_10.png"],"Rat0":[["12_Ratio_0_L_9_R_0.png","13_Ratio_0_L_6_R_0.png","5_Ratio_0_L_2_R_0.png","6_Ratio_0_L_4_R_0.png","8_Ratio_0_L_6_R_0.png"],["1_Ratio_0_L_0_R_17.png","10_Ratio_0_L_0_R_22.png","11_Ratio_0_L_0_R_1.png","14_Ratio_0_L_0_R_24.png","15_Ratio_0_L_0_R_4.png","2_Ratio_0_L_0_R_5.png","3_Ratio_0_L_0_R_17.png","4_Ratio_0_L_0_R_7.png","7_Ratio_0_L_0_R_19.png","9_Ratio_0_L_0_R_15.png"]],"Rat250":[["1_Ratio_250_L_8_R_2.png","14_Ratio_250_L_12_R_3.png","15_Ratio_250_L_12_R_3.png","2_Ratio_250_L_16_R_4.png","3_Ratio_250_L_8_R_2.png","5_Ratio_250_L_24_R_6.png","7_Ratio_250_L_8_R_2.png"],["10_Ratio_250_L_4_R_16.png","11_Ratio_250_L_3_R_12.png","12_Ratio_250_L_5_R_20.png","13_Ratio_250_L_2_R_8.png","4_Ratio_250_L_3_R_12.png","6_Ratio_250_L_6_R_24.png","8_Ratio_250_L_1_R_4.png","9_Ratio_250_L_3_R_12.png"]],"Rat500":[["10_Ratio_500_L_4_R_2.png","11_Ratio_500_L_12_R_6.png","13_Ratio_500_L_12_R_6.png","4_Ratio_500_L_18_R_9.png","5_Ratio_500_L_4_R_2.png","7_Ratio_500_L_10_R_5.png","8_Ratio_500_L_8_R_4.png"],["1_Ratio_500_L_9_R_18.png","12_Ratio_500_L_1_R_2.png","14_Ratio_500_L_5_R_10.png","15_Ratio_500_L_1_R_2.png","2_Ratio_500_L_3_R_6.png","3_Ratio_500_L_10_R_20.png","6_Ratio_500_L_9_R_18.png","9_Ratio_500_L_2_R_4.png"]],"Rat750":[["1_Ratio_750_L_20_R_15.png","10_Ratio_750_L_4_R_3.png","13_Ratio_750_L_8_R_6.png","14_Ratio_750_L_8_R_6.png","6_Ratio_750_L_24_R_18.png","8_Ratio_750_L_4_R_3.png","9_Ratio_750_L_4_R_3.png"],["11_Ratio_750_L_12_R_16.png","12_Ratio_750_L_3_R_4.png","15_Ratio_750_L_9_R_12.png","2_Ratio_750_L_6_R_8.png","3_Ratio_750_L_15_R_20.png","4_Ratio_750_L_15_R_20.png","5_Ratio_750_L_15_R_20.png","7_Ratio_750_L_3_R_4.png"]],"Rat900":[["1_Ratio_900_L_10_R_9.png","10_Ratio_900_L_20_R_18.png","2_Ratio_900_L_20_R_18.png","4_Ratio_900_L_20_R_18.png","8_Ratio_900_L_20_R_18.png"],["11_Ratio_900_L_18_R_20.png","12_Ratio_900_L_18_R_20.png","13_Ratio_900_L_18_R_20.png","14_Ratio_900_L_18_R_20.png","15_Ratio_900_L_9_R_10.png","3_Ratio_900_L_9_R_10.png","5_Ratio_900_L_9_R_10.png","6_Ratio_900_L_9_R_10.png","7_Ratio_900_L_9_R_10.png","9_Ratio_900_L_18_R_20.png"]],"Rat1000":[["10_Ratio_1000_L_16_R_16.png","11_Ratio_1000_L_6_R_6.png","12_Ratio_1000_L_14_R_14.png","13_Ratio_1000_L_20_R_20.png","15_Ratio_1000_L_15_R_15.png","2_Ratio_1000_L_17_R_17.png","4_Ratio_1000_L_9_R_9.png","5_Ratio_1000_L_6_R_6.png","6_Ratio_1000_L_19_R_19.png","8_Ratio_1000_L_14_R_14.png","9_Ratio_1000_L_25_R_25.png"],["1_Ratio_1000_L_1_R_1.png","14_Ratio_1000_L_17_R_17.png","3_Ratio_1000_L_17_R_17.png","7_Ratio_1000_L_6_R_6.png"]]}},{"start_time":1552328257878,"click_time":1552328259686,"finger_time":1552328259187,"fix_duration":769.9782785149895,"trial":1,"RT":1309,"MT":499,"sideResp":2,"stimulus":"img/900/randomdotsizeEA/R/9_Ratio_900_L_18_R_20.png","xmouse":[773,773,773,773,773,773,773,773,773,773,773,773,773,773,773,773,773,773,773,773,773,773,773,773,773,773,773,773,773,773,773,773,773,773,773,773,773,773,773,773,773,774,776,778,784,788,791,791,793,793,793,793,793,793,793,793,793,793,793,793,793,793,794,796,800,814,856,906,1029,1086,1130,1173,1203,1240,1259,1265,1282,1289,1302,1309,1313,1313,1313,1304,1281,1271,1244,1225,1205,1159,1144],"ymouse":[506,506,506,506,506,506,506,506,506,506,506,506,506,506,506,506,506,506,504,503,502,501,501,500,500,499,499,498,497,497,496,495,495,495,495,495,495,495,495,495,495,495,494,492,490,489,487,487,486,486,486,486,486,486,486,486,486,486,486,486,486,486,484,482,477,464,427,389,313,298,285,272,264,248,231,225,203,187,156,143,133,126,120,111,107,106,102,98,95,89,87],"timestamp_mouse":[14,34,48,68,87,107,129,149,168,187,209,227,247,268,288,309,329,347,367,388,409,427,448,468,489,508,527,549,568,588,607,629,648,667,689,708,727,747,769,788,808,828,848,867,888,908,929,948,967,987,1008,1029,1048,1067,1087,1108,1129,1148,1169,1189,1209,1228,1248,1268,1288,1309,1328,1348,1367,1387,1407,1428,1447,1468,1488,1509,1528,1548,1568,1588,1608,1628,1648,1668,1687,1708,1727,1748,1767,1788,1807],"xSR":741.5,"ySR":469.95,"xT1":424.9,"yT1":0,"xT2":1058.1,"yT2":0,"toosoon":0,"cond_shown":"randomdotsizeEA","ratio_trial":900,"smaller_num":"18","larger_num":"20","correct_side":2,"subjID":"julianarinconolarte3","gender":"1","age":"9","school":"4"},{"start_time":1552328261645,"click_time":1552328262807,"finger_time":1552328262326,"fix_duration":878.7936497604156,"trial":2,"RT":681,"MT":481,"sideResp":1,"stimulus":"img/900/equaldotanddens/L/2_Ratio_900_L_20_R_18.png","xmouse":[777,777,777,777,777,777,777,777,777,777,777,777,777,777,777,777,777,777,778,778,778,778,778,778,778,777,777,776,776,775,774,773,770,767,762,758,750,743,739,734,726,708,700,691,683,663,649,627,611,595,579,552,543,536,528,519,512,510,508],"ymouse":[510,510,510,510,510,510,510,510,510,510,510,510,510,510,510,510,510,510,509,507,505,504,503,502,501,500,500,498,498,497,493,490,484,477,467,454,423,393,377,359,334,276,252,231,213,183,172,156,146,134,127,114,111,108,106,103,101,100,99],"timestamp_mouse":[7,23,41,61,81,100,120,141,161,181,201,220,242,261,280,301,321,341,360,380,401,421,440,462,482,501,521,540,562,581,601,621,641,661,681,702,720,741,761,781,801,821,841,862,881,902,921,941,962,980,1001,1020,1040,1061,1082,1102,1120,1140,1161],"xSR":741.5,"ySR":469.95,"xT1":424.9,"yT1":0,"xT2":1058.1,"yT2":0,"toosoon":0,"cond_shown":"equaldotanddens","ratio_trial":900,"smaller_num":"18","larger_num":"20","correct_side":1,"subjID":"julianarinconolarte3","gender":"1","age":"9","school":"4"},{"start_time":1552328264176,"click_time":1552328265786,"finger_time":1552328265147,"fix_duration":309.5857740420446,"trial":3,"RT":971,"MT":639,"sideResp":1,"stimulus":"img/500/randomdotsizeEA/L/4_Ratio_500_L_18_R_9.png","xmouse":[798,798,798,798,798,798,798,798,798,798,798,798,798,798,798,798,798,798,798,798,798,798,798,798,798,798,798,798,798,798,798,798,798,798,798,798,798,800,800,802,803,804,804,804,804,804,804,803,798,795,789,782,777,771,767,765,763,757,752,732,720,707,695,686,663,650,635,617,592,587,585,583,582,581,573,569,564,559,552,532,524],"ymouse":[516,516,516,516,516,516,516,516,516,516,516,516,516,516,516,516,516,516,516,516,516,516,516,516,516,516,516,516,516,516,516,516,516,516,516,516,516,515,515,514,513,513,512,511,505,501,497,489,464,435,415,393,372,346,332,318,303,285,270,231,211,193,175,164,137,120,100,80,58,54,53,52,52,51,49,49,49,49,49,49,49],"timestamp_mouse":[9,44,50,70,91,110,130,151,169,191,210,230,250,269,289,311,331,351,369,391,409,431,451,470,490,509,530,551,570,591,609,631,651,669,689,710,731,750,770,789,809,831,849,870,890,909,930,949,971,990,1011,1030,1050,1071,1090,1110,1130,1150,1169,1189,1210,1230,1250,1270,1290,1309,1330,1350,1371,1389,1411,1430,1450,1469,1489,1510,1530,1549,1569,1589,1610],"xSR":741.5,"ySR":469.95,"xT1":424.9,"yT1":0,"xT2":1058.1,"yT2":0,"toosoon":0,"cond_shown":"randomdotsizeEA","ratio_trial":500,"smaller_num":"9","larger_num":"18","correct_side":1,"subjID":"julianarinconolarte3","gender":"1","age":"9","school":"4"},{"start_time":1552328267446,"click_time":1552328268966,"finger_time":1552328268407,"fix_duration":578.2434517820624,"trial":4,"RT":961,"MT":559,"sideResp":2,"stimulus":"img/500/randomdotsizeEA/R/14_Ratio_500_L_5_R_10.png","xmouse":[788,788,788,788,788,788,788,788,788,788,789,789,789,789,789,789,789,789,789,789,789,790,791,791,791,791,791,791,791,791,791,791,791,791,790,790,790,790,790,790,790,790,790,790,790,791,813,831,860,903,968,1113,1183,1229,1264,1275,1294,1306,1318,1328,1333,1336,1336,1329,1302,1280,1248,1235,1220,1208,1200,1185,1178,1170,1162,1159,1154],"ymouse":[526,526,526,526,526,526,526,526,526,526,525,525,525,525,525,525,525,525,525,524,524,522,522,522,522,520,520,520,520,519,517,515,513,510,507,506,506,506,506,506,506,505,505,505,505,505,498,493,481,463,433,369,343,329,317,312,293,280,267,258,249,231,223,211,183,162,139,132,124,117,111,102,95,88,80,76,71],"timestamp_mouse":[10,29,39,59,81,101,119,140,160,180,199,219,241,260,279,300,320,341,360,380,400,419,440,459,480,501,520,540,560,579,600,620,640,660,680,700,721,740,760,780,800,819,840,861,879,900,919,940,961,980,1000,1020,1041,1060,1080,1099,1120,1139,1159,1180,1200,1220,1241,1261,1281,1299,1320,1340,1361,1380,1400,1421,1439,1460,1479,1500,1520],"xSR":741.5,"ySR":469.95,"xT1":424.9,"yT1":0,"xT2":1058.1,"yT2":0,"toosoon":0,"cond_shown":"randomdotsizeEA","ratio_trial":500,"smaller_num":"5","larger_num":"10","correct_side":2,"subjID":"julianarinconolarte3","gender":"1","age":"9","school":"4"},{"start_time":1552328270480,"click_time":1552328271967,"finger_time":1552328271386,"fix_duration":370.4263707090496,"trial":5,"RT":906,"MT":581,"sideResp":2,"stimulus":"img/750/randomdotsizeEA/R/5_Ratio_750_L_15_R_20.png","xmouse":[779,779,779,779,779,779,779,779,779,779,779,779,779,779,779,779,779,779,779,779,779,779,779,779,779,780,783,785,787,790,792,793,794,794,795,795,795,795,795,797,800,803,810,822,838,892,936,973,1007,1051,1092,1123,1152,1189,1247,1266,1276,1283,1288,1291,1291,1287,1280,1264,1224,1215,1207,1197,1187,1179,1168,1167,1166,1164,1158],"ymouse":[532,532,532,533,533,533,534,534,534,534,535,535,535,535,535,535,535,535,535,535,535,535,535,535,535,535,535,533,531,528,527,526,525,524,524,524,523,523,523,521,519,517,514,508,499,467,445,424,407,387,369,355,340,322,282,263,251,242,234,219,213,203,194,180,157,151,146,139,133,128,118,114,112,108,97],"timestamp_mouse":[9,38,46,65,87,106,126,146,166,187,207,225,246,267,286,305,326,347,366,387,406,425,447,466,485,506,526,545,566,586,606,626,645,665,686,706,726,746,766,786,806,826,846,866,885,906,926,947,966,986,1005,1025,1046,1065,1087,1105,1127,1145,1166,1187,1205,1227,1247,1266,1287,1305,1325,1346,1365,1386,1407,1426,1446,1465,1487],"xSR":741.5,"ySR":469.95,"xT1":424.9,"yT1":0,"xT2":1058.1,"yT2":0,"toosoon":0,"cond_shown":"randomdotsizeEA","ratio_trial":750,"smaller_num":"15","larger_num":"20","correct_side":2,"subjID":"julianarinconolarte3","gender":"1","age":"9","school":"4"},{"start_time":1552328273942,"click_time":1552328274886,"finger_time":1552328274506,"fix_duration":853.6712761159822,"trial":6,"RT":564,"MT":380,"sideResp":1,"stimulus":"img/750/equaldotanddens/L/1_Ratio_750_L_20_R_15.png","xmouse":[783,783,783,783,783,783,783,783,783,783,783,783,783,783,783,783,783,783,783,783,783,783,783,783,783,783,781,768,758,749,741,726,717,707,697,680,663,640,630,623,614,604,584,574,565,558,542,517],"ymouse":[518,518,518,518,518,518,518,518,518,518,518,518,518,518,518,518,518,518,518,518,518,518,518,518,518,513,506,477,462,446,431,397,375,350,325,295,268,228,212,197,184,171,147,135,125,118,106,86],"timestamp_mouse":[12,24,45,64,85,103,125,145,164,184,205,225,244,264,285,304,325,343,364,384,404,424,444,464,483,505,524,543,564,585,605,626,643,664,684,705,725,744,764,783,804,823,843,865,884,904,924,944],"xSR":741.5,"ySR":469.95,"xT1":424.9,"yT1":0,"xT2":1058.1,"yT2":0,"toosoon":0,"cond_shown":"equaldotanddens","ratio_trial":750,"smaller_num":"15","larger_num":"20","correct_side":1,"subjID":"julianarinconolarte3","gender":"1","age":"9","school":"4"},{"start_time":1552328276683,"click_time":1552328277846,"finger_time":1552328277345,"fix_duration":895.427980236934,"trial":7,"RT":662,"MT":501,"sideResp":2,"stimulus":"img/900/equaldotsize/R/13_Ratio_900_L_18_R_20.png","xmouse":[781,781,781,781,781,781,781,781,781,781,781,781,781,781,781,781,781,781,781,781,781,781,781,781,781,781,781,781,781,782,791,802,819,847,886,972,1018,1064,1113,1187,1235,1245,1249,1250,1252,1254,1254,1254,1250,1242,1234,1219,1214,1208,1201,1180,1169,1160,1146],"ymouse":[512,512,512,512,512,512,512,512,512,512,512,512,512,512,512,512,512,512,512,512,512,512,512,512,512,512,512,512,512,512,507,500,491,475,455,411,393,371,347,307,280,269,261,251,241,218,207,197,185,168,157,139,132,124,117,102,95,89,79],"timestamp_mouse":[13,25,43,63,83,102,122,143,163,182,202,223,243,263,284,302,324,343,363,382,404,422,444,463,483,504,524,543,563,583,603,623,643,662,682,703,722,743,763,782,803,823,843,863,883,903,924,943,963,982,1003,1023,1043,1062,1083,1104,1123,1143,1163],"xSR":741.5,"ySR":469.95,"xT1":424.9,"yT1":0,"xT2":1058.1,"yT2":0,"toosoon":0,"cond_shown":"equaldotsize","ratio_trial":900,"smaller_num":"18","larger_num":"20","correct_side":2,"subjID":"julianarinconolarte3","gender":"1","age":"9","school":"4"},{"start_time":1552328279087,"click_time":1552328280387,"finger_time":1552328279906,"fix_duration":439.3957729566922,"trial":8,"RT":819,"MT":481,"sideResp":2,"stimulus":"img/750/equaldotsize/R/2_Ratio_750_L_6_R_8.png","xmouse":[792,793,793,793,793,793,793,793,793,794,794,794,794,794,794,794,794,795,795,795,795,795,795,795,795,795,795,795,795,795,795,795,795,795,795,795,796,800,807,820,836,881,910,945,982,1019,1079,1105,1122,1141,1160,1195,1211,1219,1223,1223,1207,1190,1178,1169,1155,1147,1137,1129,1122,1118],"ymouse":[524,523,523,522,522,522,522,522,521,521,520,520,518,518,518,517,516,516,515,514,512,511,510,510,510,510,510,510,510,510,510,510,510,510,510,510,509,508,507,506,503,490,476,458,436,415,388,371,359,342,326,285,261,241,226,213,181,160,148,140,129,122,116,109,104,99],"timestamp_mouse":[1,33,40,59,79,98,120,139,160,179,198,220,239,258,278,298,318,338,358,378,399,419,439,459,479,499,519,538,559,578,598,618,640,659,680,699,720,739,759,778,799,819,839,859,879,900,918,939,959,979,999,1018,1040,1058,1079,1098,1118,1139,1159,1180,1199,1218,1238,1259,1279,1300],"xSR":741.5,"ySR":469.95,"xT1":424.9,"yT1":0,"xT2":1058.1,"yT2":0,"toosoon":0,"cond_shown":"equaldotsize","ratio_trial":750,"smaller_num":"6","larger_num":"8","correct_side":2,"subjID":"julianarinconolarte3","gender":"1","age":"9","school":"4"},{"start_time":1552328282649,"click_time":1552328283706,"finger_time":1552328283267,"fix_duration":1442.7475585280295,"trial":9,"RT":618,"MT":439,"sideResp":1,"stimulus":"img/250/equaldotsize/L/2_Ratio_250_L_16_R_4.png","xmouse":[785,785,785,785,785,785,785,785,785,785,785,785,785,785,785,785,785,785,785,785,785,785,785,785,785,785,785,784,782,776,767,755,730,716,702,688,673,638,618,602,593,583,576,570,563,556,551,542,541,537,534,529,519],"ymouse":[518,518,518,518,518,518,518,518,518,518,518,518,518,518,518,518,518,518,518,518,518,518,518,518,518,517,514,504,496,481,462,440,385,357,325,290,248,166,129,101,81,62,55,51,47,43,40,37,37,37,37,37,37],"timestamp_mouse":[17,37,56,78,96,117,138,158,176,197,217,238,257,278,298,318,336,356,378,397,417,436,457,477,498,518,536,556,577,597,618,638,657,677,697,716,737,756,776,796,817,839,857,877,896,916,938,957,977,998,1018,1037,1057],"xSR":741.5,"ySR":469.95,"xT1":424.9,"yT1":0,"xT2":1058.1,"yT2":0,"toosoon":0,"cond_shown":"equaldotsize","ratio_trial":250,"smaller_num":"4","larger_num":"16","correct_side":1,"subjID":"julianarinconolarte3","gender":"1","age":"9","school":"4"},{"start_time":1552328285289,"click_time":1552328286326,"finger_time":1552328285887,"fix_duration":522.0005925399605,"trial":10,"RT":598,"MT":439,"sideResp":2,"stimulus":"img/750/randomdotsizeEA/R/5_Ratio_750_L_15_R_20.png","xmouse":[777,777,777,777,777,777,777,777,777,777,777,777,777,777,777,777,777,777,777,777,778,778,780,782,790,799,809,825,845,896,925,958,996,1012,1039,1049,1058,1066,1075,1097,1107,1118,1127,1130,1132,1132,1128,1121,1116,1115,1115],"ymouse":[509,509,509,509,509,509,509,509,509,509,509,509,509,509,509,509,509,509,509,509,509,509,507,506,501,496,488,476,463,428,412,394,377,367,345,334,322,308,291,253,233,213,196,189,172,161,145,128,117,107,98],"timestamp_mouse":[36,57,76,98,116,136,157,177,197,218,238,257,277,297,317,337,357,376,396,416,438,457,476,497,516,536,557,577,598,618,638,657,677,697,717,736,757,777,797,817,837,856,876,897,916,936,957,977,998,1017,1037],"xSR":741.5,"ySR":469.95,"xT1":424.9,"yT1":0,"xT2":1058.1,"yT2":0,"toosoon":0,"cond_shown":"randomdotsizeEA","ratio_trial":750,"smaller_num":"15","larger_num":"20","correct_side":2,"subjID":"julianarinconolarte3","gender":"1","age":"9","school":"4"},{"start_time":1552328287993,"click_time":1552328289127,"finger_time":1552328288686,"fix_duration":666.5829189129055,"trial":11,"RT":693,"MT":441,"sideResp":2,"stimulus":"img/250/equaldotanddens/R/13_Ratio_250_L_2_R_8.png","xmouse":[769,769,769,769,769,769,769,769,769,769,769,769,769,769,769,769,769,769,769,769,769,768,768,768,768,768,768,768,770,773,780,784,792,806,824,844,896,945,986,1025,1077,1094,1105,1109,1114,1117,1120,1123,1125,1126,1126,1126,1126,1126,1126,1126,1124],"ymouse":[500,500,500,500,500,500,500,500,500,500,500,500,500,500,500,500,500,500,498,497,495,492,491,491,491,491,491,491,490,490,487,486,481,473,461,448,410,369,335,303,256,239,223,210,197,190,175,166,160,155,143,136,131,125,120,115,96],"timestamp_mouse":[14,40,52,72,94,113,133,152,174,194,213,233,252,273,294,313,334,352,373,392,412,433,453,472,492,512,533,552,573,592,613,633,653,673,693,714,732,752,773,793,813,833,853,873,892,914,934,953,973,992,1014,1032,1053,1072,1093,1114,1134],"xSR":741.5,"ySR":469.95,"xT1":424.9,"yT1":0,"xT2":1058.1,"yT2":0,"toosoon":0,"cond_shown":"equaldotanddens","ratio_trial":250,"smaller_num":"2","larger_num":"8","correct_side":2,"subjID":"julianarinconolarte3","gender":"1","age":"9","school":"4"},{"start_time":1552328290847,"click_time":1552328291787,"finger_time":1552328291325,"fix_duration":739.1853939836891,"trial":12,"RT":478,"MT":462,"sideResp":1,"stimulus":"img/250/equaldotsize/L/2_Ratio_250_L_16_R_4.png","xmouse":[782,782,782,782,782,782,782,782,782,782,782,782,782,782,782,782,782,782,782,782,782,782,778,770,763,754,740,702,685,670,659,648,636,605,594,588,585,581,576,573,571,567,552,543,537,528,520],"ymouse":[522,522,522,521,521,521,521,521,521,521,521,521,521,521,521,521,521,520,519,517,514,511,500,469,446,416,374,295,264,238,218,200,178,128,113,103,97,91,80,76,72,68,54,49,46,41,39],"timestamp_mouse":[22,39,59,79,98,120,140,159,179,199,219,240,259,280,300,319,339,360,379,399,419,439,459,478,500,520,540,560,579,600,619,640,659,679,699,718,739,758,778,799,819,840,861,879,899,919,940],"xSR":741.5,"ySR":469.95,"xT1":424.9,"yT1":0,"xT2":1058.1,"yT2":0,"toosoon":0,"cond_shown":"equaldotsize","ratio_trial":250,"smaller_num":"4","larger_num":"16","correct_side":1,"subjID":"julianarinconolarte3","gender":"1","age":"9","school":"4"},{"start_time":1552328293169,"click_time":1552328294326,"finger_time":1552328293626,"fix_duration":442.0082451852185,"trial":13,"RT":457,"MT":700,"sideResp":2,"stimulus":"img/750/equaldotsize/R/3_Ratio_750_L_15_R_20.png","xmouse":[778,778,778,778,778,778,778,778,778,778,778,778,778,778,778,779,779,784,786,790,797,807,835,851,868,880,893,903,904,905,907,908,912,913,914,914,914,914,914,914,914,914,914,914,914,914,914,917,922,933,949,969,1025,1054,1078,1095,1117,1133],"ymouse":[511,511,511,511,511,511,511,511,511,511,511,511,511,511,511,509,508,502,499,492,484,472,439,424,411,400,390,381,379,377,374,369,363,360,358,358,358,358,358,358,358,358,358,358,358,358,358,357,352,340,319,296,231,196,163,136,103,76],"timestamp_mouse":[16,36,56,78,97,117,137,157,176,198,217,237,258,277,297,318,336,356,376,398,417,438,457,477,497,518,538,557,578,597,616,638,656,677,697,717,736,756,776,796,818,837,857,877,898,916,937,957,977,997,1017,1036,1057,1076,1097,1116,1138,1157],"xSR":741.5,"ySR":469.95,"xT1":424.9,"yT1":0,"xT2":1058.1,"yT2":0,"toosoon":0,"cond_shown":"equaldotsize","ratio_trial":750,"smaller_num":"15","larger_num":"20","correct_side":2,"subjID":"julianarinconolarte3","gender":"1","age":"9","school":"4"},{"start_time":1552328295789,"click_time":1552328297027,"finger_time":1552328296606,"fix_duration":741.8021493265456,"trial":14,"RT":817,"MT":421,"sideResp":2,"stimulus":"img/750/equaldotsize/R/12_Ratio_750_L_3_R_4.png","xmouse":[793,793,793,793,793,793,793,793,793,793,793,793,793,793,793,793,793,792,792,791,791,791,791,791,791,791,791,791,791,791,791,791,791,791,791,791,797,804,820,840,866,897,976,1051,1111,1163,1217,1232,1242,1248,1251,1255,1256,1256,1256,1252,1239,1230,1220,1204,1189,1156],"ymouse":[521,521,521,521,521,521,521,521,521,521,521,521,521,521,520,520,519,518,518,516,515,515,515,515,515,515,515,515,515,515,515,515,515,515,515,514,510,505,496,481,462,437,375,318,278,241,201,187,176,168,161,146,136,130,117,106,89,81,75,67,62,57],"timestamp_mouse":[17,37,57,77,96,118,138,157,177,198,217,237,257,276,296,316,337,356,377,397,416,437,458,478,497,516,537,557,578,596,617,637,658,676,697,717,737,757,777,797,817,836,858,878,897,917,938,956,976,997,1018,1037,1057,1077,1096,1117,1138,1156,1176,1198,1218,1237],"xSR":741.5,"ySR":469.95,"xT1":424.9,"yT1":0,"xT2":1058.1,"yT2":0,"toosoon":0,"cond_shown":"equaldotsize","ratio_trial":750,"smaller_num":"3","larger_num":"4","correct_side":2,"subjID":"julianarinconolarte3","gender":"1","age":"9","school":"4"},{"start_time":1552328299679,"click_time":1552328301967,"finger_time":1552328301627,"fix_duration":250,"trial":15,"RT":1948,"MT":340,"sideResp":2,"stimulus":"img/500/randomdotsizeEA/R/1_Ratio_500_L_9_R_18.png","xmouse":[777,777,777,777,777,777,777,777,777,777,777,777,777,777,777,777,777,777,777,777,777,777,777,777,777,777,777,777,777,777,777,777,777,777,777,777,777,777,777,777,777,777,777,777,776,773,768,768,763,763,763,763,763,763,763,763,763,763,763,763,763,763,763,763,763,763,763,763,763,763,763,763,762,762,762,761,761,761,761,761,761,761,761,761,761,761,761,761,762,762,762,762,763,773,787,808,835,897,995,1032,1054,1072,1086,1101,1107,1113,1116,1118,1122,1123,1124,1125,1126,1126,1127],"ymouse":[520,520,520,520,520,520,520,520,520,520,520,520,520,520,520,520,520,520,520,520,520,520,520,520,520,520,520,520,520,520,520,520,520,520,520,520,520,520,520,520,520,520,518,514,510,504,494,492,486,484,484,484,484,484,484,484,484,484,484,484,484,484,484,484,484,484,484,484,484,484,484,484,483,482,482,480,480,480,480,480,480,480,480,480,480,480,481,482,485,485,486,486,487,490,490,490,488,467,419,390,365,331,290,234,213,197,181,165,134,125,117,112,108,101,97],"timestamp_mouse":[12,29,48,67,88,106,128,147,167,188,207,228,248,268,288,307,328,347,367,388,408,428,448,467,488,507,528,548,568,588,607,628,647,668,688,706,727,748,768,787,808,827,848,867,888,908,928,948,967,987,1008,1028,1048,1068,1088,1107,1127,1148,1168,1188,1207,1227,1248,1267,1288,1307,1328,1348,1366,1388,1408,1428,1448,1467,1488,1508,1528,1547,1568,1588,1608,1627,1648,1667,1688,1708,1727,1748,1768,1787,1808,1827,1847,1867,1888,1907,1926,1948,1968,1987,2007,2028,2047,2067,2087,2108,2127,2148,2167,2188,2208,2228,2248,2267,2288],"xSR":741.5,"ySR":469.95,"xT1":424.9,"yT1":0,"xT2":1058.1,"yT2":0,"toosoon":0,"cond_shown":"randomdotsizeEA","ratio_trial":500,"smaller_num":"9","larger_num":"18","correct_side":2,"subjID":"julianarinconolarte3","gender":"1","age":"9","school":"4"},{"start_time":1552328303199,"click_time":1552328304568,"finger_time":1552328304146,"fix_duration":250,"trial":16,"RT":947,"MT":422,"sideResp":2,"stimulus":"img/750/randomdotsizeEA/L/8_Ratio_750_L_4_R_3.png","xmouse":[780,780,780,780,780,780,780,780,781,781,781,781,782,782,782,782,782,782,783,783,783,783,783,783,783,783,783,783,783,783,783,783,783,783,783,783,783,784,784,785,785,786,788,792,798,807,818,861,888,927,952,974,1017,1036,1048,1058,1064,1069,1078,1080,1081,1081,1081,1081,1081,1082,1083,1085,1087],"ymouse":[520,520,520,520,520,520,520,520,520,520,519,519,518,518,517,517,516,515,514,514,514,514,514,514,514,514,514,514,514,514,513,513,513,513,513,513,512,512,511,511,509,508,506,502,496,486,470,428,409,380,362,346,310,292,276,260,244,229,193,174,164,155,137,129,121,115,109,101,97],"timestamp_mouse":[12,31,47,68,88,108,127,148,168,188,208,228,247,267,287,307,328,348,367,387,407,428,447,467,488,508,528,547,568,588,608,627,647,668,687,707,728,747,768,788,808,828,847,867,887,907,927,947,968,987,1007,1027,1047,1067,1087,1107,1129,1147,1166,1187,1207,1227,1247,1268,1287,1307,1328,1348,1368],"xSR":741.5,"ySR":469.95,"xT1":424.9,"yT1":0,"xT2":1058.1,"yT2":0,"toosoon":0,"cond_shown":"randomdotsizeEA","ratio_trial":750,"smaller_num":"3","larger_num":"4","correct_side":1,"subjID":"julianarinconolarte3","gender":"1","age":"9","school":"4"},{"start_time":1552328306100,"click_time":1552328307348,"finger_time":1552328306986,"fix_duration":670.0412499821515,"trial":17,"RT":886,"MT":362,"sideResp":2,"stimulus":"img/250/randomdotsizeEA/R/9_Ratio_250_L_3_R_12.png","xmouse":[792,792,792,792,792,792,792,792,792,792,792,792,792,792,792,792,792,792,792,792,792,792,792,792,792,792,792,792,792,792,792,792,792,792,792,792,792,792,792,792,794,795,805,822,836,857,879,927,949,966,982,995,1022,1043,1054,1067,1078,1109,1125,1137,1144,1148,1148],"ymouse":[509,509,509,509,509,509,509,509,509,509,509,509,509,509,509,509,509,509,509,509,509,509,509,509,509,509,509,509,509,509,509,509,509,509,509,509,509,509,509,509,507,506,494,474,454,432,409,369,349,335,321,309,279,256,240,225,209,171,149,132,118,105,87],"timestamp_mouse":[12,31,47,67,86,107,126,146,167,187,206,227,247,265,287,307,327,346,366,388,407,426,446,467,487,507,526,546,567,587,607,627,646,667,687,707,727,747,766,787,806,826,846,867,886,907,926,947,966,986,1007,1027,1047,1066,1086,1106,1126,1147,1166,1186,1206,1226,1248],"xSR":741.5,"ySR":469.95,"xT1":424.9,"yT1":0,"xT2":1058.1,"yT2":0,"toosoon":0,"cond_shown":"randomdotsizeEA","ratio_trial":250,"smaller_num":"3","larger_num":"12","correct_side":2,"subjID":"julianarinconolarte3","gender":"1","age":"9","school":"4"},{"start_time":1552328308688,"click_time":1552328309826,"finger_time":1552328309625,"fix_duration":619.1552713514907,"trial":18,"RT":937,"MT":201,"sideResp":1,"stimulus":"img/500/randomdotsizeEA/R/15_Ratio_500_L_1_R_2.png","xmouse":[782,782,782,782,782,782,782,782,782,782,782,782,782,782,782,782,782,782,782,782,782,782,782,782,782,782,782,782,782,782,782,782,782,782,782,782,782,782,782,782,782,782,782,779,774,765,754,740,699,674,647,608,583,535,521,510,503],"ymouse":[526,526,526,526,526,526,526,526,526,526,526,526,526,526,526,526,526,526,526,526,526,526,526,526,526,526,526,526,526,526,526,526,526,526,526,526,526,526,526,526,525,522,514,506,493,476,462,443,385,352,317,275,241,147,123,103,85],"timestamp_mouse":[18,38,57,78,99,119,139,157,179,199,218,239,258,278,298,318,339,359,377,398,418,438,457,479,499,518,538,558,579,599,618,638,659,678,699,719,738,758,779,798,818,839,859,878,898,919,937,958,978,998,1019,1039,1059,1078,1098,1118,1138],"xSR":741.5,"ySR":469.95,"xT1":424.9,"yT1":0,"xT2":1058.1,"yT2":0,"toosoon":0,"cond_shown":"randomdotsizeEA","ratio_trial":500,"smaller_num":"1","larger_num":"2","correct_side":2,"subjID":"julianarinconolarte3","gender":"1","age":"9","school":"4"},{"start_time":1552328312371,"click_time":1552328313607,"finger_time":1552328313166,"fix_duration":1483.2427921848835,"trial":19,"RT":795,"MT":441,"sideResp":1,"stimulus":"img/750/equaldotanddens/L/9_Ratio_750_L_4_R_3.png","xmouse":[787,787,787,787,787,787,787,787,787,787,787,787,787,787,787,787,787,787,787,787,789,790,790,790,790,790,790,790,790,790,790,790,790,790,790,790,788,787,783,769,755,742,729,717,708,695,685,678,668,644,629,614,595,576,539,518,508,503,500,495,493,491],"ymouse":[514,514,514,514,514,514,514,514,514,514,514,514,514,514,514,514,514,514,514,514,514,513,512,512,512,512,512,512,512,512,512,512,512,511,509,508,505,501,494,464,441,420,399,384,372,347,323,303,285,251,231,216,198,181,150,134,126,122,117,107,101,95],"timestamp_mouse":[21,41,55,75,95,116,135,155,176,196,216,236,255,276,295,315,336,356,375,395,416,436,455,475,495,514,536,555,575,595,616,635,655,675,695,716,735,755,775,795,815,835,855,875,895,916,936,954,976,996,1015,1035,1055,1076,1095,1115,1136,1155,1176,1196,1216,1236],"xSR":741.5,"ySR":469.95,"xT1":424.9,"yT1":0,"xT2":1058.1,"yT2":0,"toosoon":0,"cond_shown":"equaldotanddens","ratio_trial":750,"smaller_num":"3","larger_num":"4","correct_side":1,"subjID":"julianarinconolarte3","gender":"1","age":"9","school":"4"},{"start_time":1552328314606,"click_time":1552328315968,"finger_time":1552328315666,"fix_duration":378.088443578815,"trial":20,"RT":1060,"MT":302,"sideResp":1,"stimulus":"img/500/randomdotsizeEA/L/13_Ratio_500_L_12_R_6.png","xmouse":[807,807,807,805,805,805,805,805,804,804,804,804,804,804,804,804,804,804,804,804,804,804,804,806,808,809,809,810,810,810,811,811,812,813,813,814,814,814,814,814,814,814,814,814,814,814,814,814,813,813,812,812,809,796,772,751,729,708,654,626,602,580,563,549,523,516,511,506,501],"ymouse":[518,518,518,517,517,517,517,517,517,517,517,517,517,517,517,517,517,517,517,517,516,516,516,515,514,514,513,513,513,512,512,511,511,511,510,510,510,510,510,509,509,509,508,507,506,505,502,501,494,492,488,484,475,442,402,378,357,335,287,261,239,218,199,182,141,124,111,101,93],"timestamp_mouse":[7,25,40,60,79,100,121,140,160,180,200,221,241,260,280,300,321,341,360,380,401,420,440,460,481,499,521,540,561,580,601,620,641,660,680,701,720,741,760,780,801,821,841,861,881,901,920,941,960,980,1000,1020,1040,1060,1080,1101,1120,1140,1161,1180,1201,1221,1241,1260,1281,1301,1321,1340,1362],"xSR":741.5,"ySR":469.95,"xT1":424.9,"yT1":0,"xT2":1058.1,"yT2":0,"toosoon":0,"cond_shown":"randomdotsizeEA","ratio_trial":500,"smaller_num":"6","larger_num":"12","correct_side":1,"subjID":"julianarinconolarte3","gender":"1","age":"9","school":"4"},{"start_time":1552328317809,"click_time":1552328319208,"finger_time":1552328318986,"fix_duration":1002.3590484910926,"trial":21,"RT":1177,"MT":222,"sideResp":2,"stimulus":"img/500/randomdotsizeEA/R/12_Ratio_500_L_1_R_2.png","xmouse":[772,772,772,772,772,772,772,772,772,772,772,772,772,772,772,772,772,772,772,772,772,772,772,772,772,772,772,773,775,777,779,781,781,782,782,782,782,782,782,782,782,782,782,782,782,782,782,782,782,782,782,782,782,783,786,791,798,812,867,922,987,1045,1104,1146,1158,1167,1171,1171,1162,1155],"ymouse":[511,511,511,511,511,511,511,511,511,511,511,511,511,511,511,511,511,511,511,511,511,511,511,511,511,511,511,509,507,505,503,502,501,500,500,500,500,500,500,500,500,500,500,500,500,500,500,500,500,500,500,500,500,499,498,497,493,489,464,434,393,349,289,228,201,178,156,133,71,48],"timestamp_mouse":[17,37,56,78,97,116,137,158,178,198,217,237,257,278,298,318,338,358,377,398,416,438,458,477,498,517,536,558,577,596,617,637,657,678,698,717,738,757,778,797,818,838,857,878,897,918,937,957,977,998,1016,1037,1058,1078,1097,1116,1138,1157,1177,1197,1218,1238,1257,1277,1297,1317,1338,1358,1377,1398],"xSR":741.5,"ySR":469.95,"xT1":424.9,"yT1":0,"xT2":1058.1,"yT2":0,"toosoon":0,"cond_shown":"randomdotsizeEA","ratio_trial":500,"smaller_num":"1","larger_num":"2","correct_side":2,"subjID":"julianarinconolarte3","gender":"1","age":"9","school":"4"},{"start_time":1552328320609,"click_time":1552328321326,"finger_time":1552328321126,"fix_duration":380.7341680593586,"trial":22,"RT":517,"MT":200,"sideResp":1,"stimulus":"img/750/equaldotsize/L/8_Ratio_750_L_4_R_3.png","xmouse":[764,764,764,764,764,764,764,764,764,764,764,764,764,764,764,764,764,764,764,764,763,762,761,756,752,746,739,729,699,671,661,629,606,560,538,522],"ymouse":[508,508,508,508,508,508,508,508,508,508,508,508,508,507,507,506,506,505,505,504,502,500,496,483,474,464,452,438,393,346,327,270,232,153,113,80],"timestamp_mouse":[17,37,58,77,97,117,137,157,177,196,218,238,257,277,296,317,338,358,377,397,417,437,457,477,496,517,538,557,577,597,618,638,657,677,697,717],"xSR":741.5,"ySR":469.95,"xT1":424.9,"yT1":0,"xT2":1058.1,"yT2":0,"toosoon":0,"cond_shown":"equaldotsize","ratio_trial":750,"smaller_num":"3","larger_num":"4","correct_side":1,"subjID":"julianarinconolarte3","gender":"1","age":"9","school":"4"},{"start_time":1552328323158,"click_time":1552328324187,"finger_time":1552328323686,"fix_duration":711.6248020986801,"trial":23,"RT":528,"MT":501,"sideResp":2,"stimulus":"img/250/equaldotanddens/R/8_Ratio_250_L_1_R_4.png","xmouse":[780,780,780,780,780,780,780,780,780,780,780,780,780,780,780,780,780,780,780,780,782,784,792,798,806,816,827,850,865,880,895,911,951,969,986,997,1013,1019,1023,1026,1027,1027,1026,1024,1023,1023,1023,1023,1024,1030,1042,1059],"ymouse":[498,498,498,498,498,498,498,498,498,498,498,498,498,498,498,498,498,498,498,498,496,494,489,485,481,474,466,448,435,422,410,397,359,339,319,302,266,249,231,212,197,170,149,139,131,125,110,102,96,90,83,77],"timestamp_mouse":[12,29,48,69,89,108,129,148,169,188,208,228,249,269,289,308,329,348,369,389,408,429,448,468,488,508,528,548,568,589,607,629,648,668,689,708,729,748,768,788,808,829,848,868,888,909,929,948,968,988,1009,1029],"xSR":741.5,"ySR":469.95,"xT1":424.9,"yT1":0,"xT2":1058.1,"yT2":0,"toosoon":0,"cond_shown":"equaldotanddens","ratio_trial":250,"smaller_num":"1","larger_num":"4","correct_side":2,"subjID":"julianarinconolarte3","gender":"1","age":"9","school":"4"},{"start_time":1552328326161,"click_time":1552328327489,"finger_time":1552328327026,"fix_duration":1094.899269286048,"trial":24,"RT":865,"MT":463,"sideResp":2,"stimulus":"img/250/equaldotanddens/R/13_Ratio_250_L_2_R_8.png","xmouse":[768,768,768,768,768,768,768,768,768,768,768,768,768,768,768,768,768,768,768,768,767,765,760,759,758,757,756,756,756,756,756,756,756,756,756,756,756,756,756,757,759,773,806,832,861,899,938,1017,1032,1045,1046,1046,1046,1045,1044,1042,1042,1039,1039,1039,1039,1040,1051,1059,1066,1071,1081],"ymouse":[509,509,509,509,509,509,509,509,509,509,509,509,509,509,509,509,509,508,505,503,501,496,487,484,483,482,482,482,482,482,482,482,482,482,482,482,482,482,482,482,482,480,474,467,453,429,399,316,284,245,225,211,201,192,181,171,160,146,142,138,135,130,120,113,109,104,95],"timestamp_mouse":[19,33,45,66,85,105,126,145,165,186,206,225,246,266,285,305,327,345,365,386,406,425,445,465,485,506,524,545,565,585,605,625,646,665,685,705,725,745,766,785,805,825,845,864,885,905,925,945,965,986,1005,1025,1044,1065,1085,1105,1125,1145,1166,1186,1206,1225,1245,1264,1285,1306,1327],"xSR":741.5,"ySR":469.95,"xT1":424.9,"yT1":0,"xT2":1058.1,"yT2":0,"toosoon":0,"cond_shown":"equaldotanddens","ratio_trial":250,"smaller_num":"2","larger_num":"8","correct_side":2,"subjID":"julianarinconolarte3","gender":"1","age":"9","school":"4"},{"start_time":1552328328699,"click_time":1552328329726,"finger_time":1552328329367,"fix_duration":250,"trial":25,"RT":668,"MT":359,"sideResp":2,"stimulus":"img/250/equaldotsize/R/10_Ratio_250_L_4_R_16.png","xmouse":[788,788,787,786,785,785,785,785,785,785,785,785,785,785,785,785,785,785,785,785,785,785,785,785,785,785,787,788,790,794,803,813,824,844,861,910,940,969,991,1019,1044,1098,1137,1144,1154,1153,1148,1143,1140,1139,1134,1131],"ymouse":[505,506,507,508,509,509,509,509,509,509,509,509,509,509,509,509,509,509,509,509,509,509,509,509,509,509,508,506,504,502,494,487,478,461,447,417,399,382,369,349,329,283,248,241,219,193,174,156,142,130,109,99],"timestamp_mouse":[14,27,51,67,87,107,127,147,168,188,208,227,247,268,287,307,327,348,366,388,408,428,448,467,488,507,527,547,568,587,607,627,646,668,687,707,728,748,767,789,807,827,847,867,887,907,927,947,967,987,1007,1027],"xSR":741.5,"ySR":469.95,"xT1":424.9,"yT1":0,"xT2":1058.1,"yT2":0,"toosoon":0,"cond_shown":"equaldotsize","ratio_trial":250,"smaller_num":"4","larger_num":"16","correct_side":2,"subjID":"julianarinconolarte3","gender":"1","age":"9","school":"4"},{"start_time":1552328330920,"click_time":1552328332926,"finger_time":1552328331806,"fix_duration":250,"trial":26,"RT":886,"MT":1120,"sideResp":1,"stimulus":"img/900/equaldotsize/R/14_Ratio_900_L_18_R_20.png","xmouse":[796,796,796,796,796,796,797,797,798,799,799,799,799,799,801,802,804,806,809,820,826,827,829,830,832,833,834,834,834,834,834,834,834,834,834,834,834,834,834,834,834,834,834,834,836,837,837,837,837,834,829,815,804,792,768,762,758,757,757,758,775,793,815,836,863,933,973,1007,1034,1049,1063,1065,1067,1068,1068,1068,1066,1063,1057,1045,987,919,861,802,658,587,524,474,443,425,416,414,413,412,411,411,411,413,416,423,432],"ymouse":[516,516,516,516,516,516,516,516,516,516,516,516,516,516,515,515,513,511,509,503,500,499,498,497,496,495,494,494,494,494,494,494,494,493,492,490,489,485,483,480,479,477,476,475,469,464,460,456,451,436,425,407,391,378,355,350,345,344,343,340,338,335,331,326,321,301,284,266,249,234,205,195,184,174,159,153,147,143,137,133,128,128,128,128,128,128,128,124,119,115,108,104,102,100,97,94,91,88,86,81,79],"timestamp_mouse":[10,38,47,67,86,105,126,146,167,187,207,227,246,266,286,306,326,346,366,386,407,426,446,466,486,506,527,547,566,586,607,627,658,667,687,706,727,746,765,786,807,826,846,866,886,907,926,947,966,987,1005,1026,1046,1066,1087,1106,1127,1146,1166,1187,1206,1226,1247,1266,1286,1306,1326,1346,1366,1387,1406,1426,1446,1466,1487,1506,1527,1546,1566,1587,1606,1626,1646,1666,1687,1706,1727,1747,1767,1787,1807,1826,1846,1867,1886,1906,1926,1946,1965,1987,2006],"xSR":741.5,"ySR":469.95,"xT1":424.9,"yT1":0,"xT2":1058.1,"yT2":0,"toosoon":0,"cond_shown":"equaldotsize","ratio_trial":900,"smaller_num":"18","larger_num":"20","correct_side":2,"subjID":"julianarinconolarte3","gender":"1","age":"9","school":"4"},{"start_time":1552328335546,"click_time":1552328336586,"finger_time":1552328336287,"fix_duration":1438.562194542066,"trial":27,"RT":741,"MT":299,"sideResp":2,"stimulus":"img/500/equaldotanddens/R/6_Ratio_500_L_9_R_18.png","xmouse":[777,777,777,777,777,777,777,777,777,777,777,777,777,777,777,777,777,777,777,777,777,777,777,777,777,777,777,777,777,777,778,780,783,786,798,807,820,850,862,936,965,989,1008,1022,1039,1042,1046,1051,1060,1071,1077,1080,1082],"ymouse":[532,532,532,532,532,532,532,532,532,532,532,532,532,532,532,532,532,532,532,532,532,532,532,532,532,532,532,532,532,532,530,529,528,528,526,522,513,487,475,381,340,307,283,269,248,239,225,211,185,146,126,109,95],"timestamp_mouse":[10,20,41,61,80,100,120,140,160,181,201,220,241,260,281,301,321,340,360,380,400,420,439,460,480,500,520,540,560,579,600,621,640,660,680,700,721,741,760,780,800,820,840,861,880,900,920,941,961,980,1000,1019,1040],"xSR":741.5,"ySR":469.95,"xT1":424.9,"yT1":0,"xT2":1058.1,"yT2":0,"toosoon":0,"cond_shown":"equaldotanddens","ratio_trial":500,"smaller_num":"9","larger_num":"18","correct_side":2,"subjID":"julianarinconolarte3","gender":"1","age":"9","school":"4"},{"start_time":1552328337736,"click_time":1552328338826,"finger_time":1552328338407,"fix_duration":308.5063999010381,"trial":28,"RT":671,"MT":419,"sideResp":1,"stimulus":"img/900/equaldotanddens/L/8_Ratio_900_L_20_R_18.png","xmouse":[796,795,795,794,794,794,794,794,793,791,791,791,791,791,791,791,791,791,791,791,791,791,791,791,791,791,791,791,791,790,787,784,779,769,738,698,685,655,640,623,618,612,606,600,589,581,578,569,565,555,550,545,538,531,517],"ymouse":[510,510,510,510,510,510,510,510,510,510,510,510,510,510,510,510,510,510,510,510,510,510,510,510,510,510,510,510,510,509,503,494,479,456,384,313,296,243,222,197,189,182,175,166,152,142,138,127,122,108,101,95,90,85,76],"timestamp_mouse":[13,36,50,70,91,110,131,150,170,190,209,231,251,270,290,311,330,349,370,391,411,430,451,471,491,509,531,551,570,590,610,630,650,671,690,710,730,749,771,791,810,830,850,870,890,910,930,950,971,990,1010,1031,1050,1070,1090],"xSR":741.5,"ySR":469.95,"xT1":424.9,"yT1":0,"xT2":1058.1,"yT2":0,"toosoon":0,"cond_shown":"equaldotanddens","ratio_trial":900,"smaller_num":"18","larger_num":"20","correct_side":1,"subjID":"julianarinconolarte3","gender":"1","age":"9","school":"4"},{"start_time":1552328340701,"click_time":1552328341826,"finger_time":1552328341405,"fix_duration":874.5675676531058,"trial":29,"RT":704,"MT":421,"sideResp":1,"stimulus":"img/900/equaldotanddens/L/8_Ratio_900_L_20_R_18.png","xmouse":[776,776,776,776,777,777,777,777,777,778,778,778,778,779,780,782,784,786,790,794,795,798,802,803,806,810,813,819,819,821,821,821,821,821,821,817,799,778,764,746,730,695,674,657,636,619,600,573,558,553,550,545,536,531,529,525,523],"ymouse":[516,516,516,516,516,516,516,516,516,516,516,516,516,516,516,516,516,516,516,515,515,513,510,509,506,503,501,494,494,492,491,488,486,481,476,466,436,407,390,371,352,300,263,225,181,146,112,70,54,49,46,42,36,33,30,28,28],"timestamp_mouse":[10,25,45,65,86,106,125,145,166,186,205,225,244,266,285,305,326,346,365,386,405,425,445,466,486,505,525,545,565,585,605,625,645,666,685,704,727,745,765,785,806,826,845,865,885,906,926,945,965,985,1004,1026,1045,1065,1086,1105,1125],"xSR":741.5,"ySR":469.95,"xT1":424.9,"yT1":0,"xT2":1058.1,"yT2":0,"toosoon":0,"cond_shown":"equaldotanddens","ratio_trial":900,"smaller_num":"18","larger_num":"20","correct_side":1,"subjID":"julianarinconolarte3","gender":"1","age":"9","school":"4"},{"start_time":1552328343195,"click_time":1552328344067,"finger_time":1552328343745,"fix_duration":367.44039458055767,"trial":30,"RT":550,"MT":322,"sideResp":2,"stimulus":"img/250/equaldotsize/R/4_Ratio_250_L_3_R_12.png","xmouse":[790,790,790,790,790,790,790,790,790,790,790,790,790,790,790,790,790,790,790,790,790,790,790,791,798,805,832,850,876,908,943,971,1024,1034,1042,1050,1057,1071,1077,1082,1084,1086,1088,1092],"ymouse":[517,517,517,517,517,517,517,517,517,517,517,517,517,517,517,517,517,517,517,517,517,517,517,517,517,516,508,500,486,467,445,422,364,343,326,308,291,249,225,204,185,162,102,93],"timestamp_mouse":[13,32,51,71,92,111,131,151,171,191,212,232,251,272,292,312,332,352,372,391,412,431,452,471,492,512,532,550,571,592,612,631,651,671,691,711,730,750,772,790,811,831,851,872],"xSR":741.5,"ySR":469.95,"xT1":424.9,"yT1":0,"xT2":1058.1,"yT2":0,"toosoon":0,"cond_shown":"equaldotsize","ratio_trial":250,"smaller_num":"3","larger_num":"12","correct_side":2,"subjID":"julianarinconolarte3","gender":"1","age":"9","school":"4"},{"start_time":1552328347032,"click_time":1552328348226,"finger_time":1552328347826,"fix_duration":624.9344306034591,"trial":31,"RT":794,"MT":400,"sideResp":2,"stimulus":"img/750/randomdotsizeEA/R/11_Ratio_750_L_12_R_16.png","xmouse":[777,777,777,777,777,777,777,778,779,781,784,785,785,785,785,785,785,785,785,785,785,785,785,785,785,785,786,786,787,787,789,791,794,796,800,807,816,825,838,851,893,915,935,952,962,980,989,1003,1012,1021,1033,1037,1042,1047,1053,1065,1070,1074,1076,1077],"ymouse":[543,542,541,540,539,538,538,538,538,538,539,539,539,539,539,539,539,539,539,539,539,539,539,539,539,539,539,539,539,538,536,535,534,533,531,525,516,504,486,468,413,378,348,321,299,269,253,233,219,207,187,179,169,159,150,128,118,107,101,96],"timestamp_mouse":[19,39,55,74,95,114,134,154,174,194,214,234,254,274,295,314,334,355,374,394,414,434,455,475,494,515,535,554,575,594,614,634,654,675,695,714,735,754,775,794,815,835,855,874,894,914,935,955,974,993,1014,1033,1054,1074,1094,1114,1134,1154,1175,1194],"xSR":741.5,"ySR":469.95,"xT1":424.9,"yT1":0,"xT2":1058.1,"yT2":0,"toosoon":0,"cond_shown":"randomdotsizeEA","ratio_trial":750,"smaller_num":"12","larger_num":"16","correct_side":2,"subjID":"julianarinconolarte3","gender":"1","age":"9","school":"4"},{"start_time":1552328349327,"click_time":1552328350366,"finger_time":1552328349946,"fix_duration":260.50324058984376,"trial":32,"RT":619,"MT":420,"sideResp":2,"stimulus":"img/500/equaldotsize/R/1_Ratio_500_L_9_R_18.png","xmouse":[787,787,787,787,787,787,787,787,787,787,787,787,787,787,787,787,787,787,787,787,787,787,787,787,787,787,789,794,802,811,839,871,891,909,923,936,961,974,993,1009,1039,1055,1067,1075,1079,1082,1086,1088,1091,1096,1106,1113],"ymouse":[522,522,522,522,522,522,522,522,522,522,522,522,522,522,522,522,522,522,522,522,522,522,522,522,521,517,512,507,497,487,455,411,385,365,346,329,293,277,262,251,229,213,204,198,194,191,182,176,169,157,129,99],"timestamp_mouse":[20,41,59,80,100,119,139,161,180,199,220,239,259,279,300,319,339,359,379,400,420,439,459,480,499,519,539,559,580,599,619,639,659,679,699,719,739,759,779,799,820,839,859,879,899,919,939,959,980,999,1020,1039],"xSR":741.5,"ySR":469.95,"xT1":424.9,"yT1":0,"xT2":1058.1,"yT2":0,"toosoon":0,"cond_shown":"equaldotsize","ratio_trial":500,"smaller_num":"9","larger_num":"18","correct_side":2,"subjID":"julianarinconolarte3","gender":"1","age":"9","school":"4"},{"start_time":1552328352516,"click_time":1552328353386,"finger_time":1552328353005,"fix_duration":1269.7580371066956,"trial":33,"RT":489,"MT":381,"sideResp":1,"stimulus":"img/750/equaldotsize/L/14_Ratio_750_L_8_R_6.png","xmouse":[789,789,789,789,789,789,789,789,789,789,789,789,789,789,789,789,789,789,789,789,789,789,789,788,788,787,787,787,787,787,787,787,787,787,786,781,773,739,712,680,650,600,547,517],"ymouse":[512,512,512,512,512,512,512,512,512,512,512,512,512,512,512,512,512,510,506,502,492,481,472,471,469,468,466,464,464,464,463,458,456,451,446,435,417,367,332,293,260,202,138,94],"timestamp_mouse":[12,31,50,70,90,110,131,150,170,191,210,230,251,271,290,311,331,349,370,390,410,430,451,470,489,510,531,550,570,590,610,632,650,670,690,711,730,750,771,790,810,830,850,870],"xSR":741.5,"ySR":469.95,"xT1":424.9,"yT1":0,"xT2":1058.1,"yT2":0,"toosoon":0,"cond_shown":"equaldotsize","ratio_trial":750,"smaller_num":"6","larger_num":"8","correct_side":1,"subjID":"julianarinconolarte3","gender":"1","age":"9","school":"4"},{"start_time":1552328355880,"click_time":1552328356747,"finger_time":1552328356486,"fix_duration":1372.525534825146,"trial":34,"RT":606,"MT":261,"sideResp":1,"stimulus":"img/250/equaldotanddens/L/7_Ratio_250_L_8_R_2.png","xmouse":[783,783,783,783,783,783,783,783,782,782,782,782,782,782,782,782,782,782,782,782,782,782,782,782,781,780,780,778,775,763,751,735,698,671,609,582,556,537,518,504,483,477,472,469],"ymouse":[503,503,503,503,503,503,503,504,505,505,505,505,505,505,505,505,505,505,505,505,505,505,505,505,504,502,501,499,495,477,461,440,392,357,287,253,221,198,173,153,121,111,102,97],"timestamp_mouse":[10,31,47,67,86,107,126,146,166,185,206,226,247,266,287,306,327,346,365,386,406,427,446,466,486,506,527,546,567,586,606,625,646,667,687,706,726,746,766,787,806,826,846,867],"xSR":741.5,"ySR":469.95,"xT1":424.9,"yT1":0,"xT2":1058.1,"yT2":0,"toosoon":0,"cond_shown":"equaldotanddens","ratio_trial":250,"smaller_num":"2","larger_num":"8","correct_side":1,"subjID":"julianarinconolarte3","gender":"1","age":"9","school":"4"},{"start_time":1552328358098,"click_time":1552328359347,"finger_time":1552328358667,"fix_duration":250,"trial":35,"RT":569,"MT":680,"sideResp":1,"stimulus":"img/900/equaldotsize/R/5_Ratio_900_L_9_R_10.png","xmouse":[762,762,762,762,762,762,762,761,760,760,760,760,760,760,760,760,760,760,759,759,759,759,759,759,762,766,767,769,773,775,778,780,782,783,783,783,783,783,775,760,747,733,720,697,685,671,662,653,646,642,639,636,631,613,604,594,587,576,555,539,533,527,522],"ymouse":[501,501,501,501,501,500,500,500,499,499,499,499,499,499,499,499,499,499,498,497,495,491,486,478,475,473,472,471,467,464,461,457,455,453,451,449,447,442,430,411,393,372,352,312,285,252,226,208,190,181,176,168,159,132,122,112,107,99,85,76,73,69,66],"timestamp_mouse":[9,37,49,67,87,109,129,149,168,189,208,229,249,268,288,309,327,348,368,387,408,428,449,468,488,508,529,548,568,588,608,628,649,668,688,708,728,748,768,788,808,829,848,868,888,908,928,949,969,988,1008,1028,1048,1069,1088,1108,1128,1149,1169,1188,1209,1228,1248],"xSR":741.5,"ySR":469.95,"xT1":424.9,"yT1":0,"xT2":1058.1,"yT2":0,"toosoon":0,"cond_shown":"equaldotsize","ratio_trial":900,"smaller_num":"9","larger_num":"10","correct_side":2,"subjID":"julianarinconolarte3","gender":"1","age":"9","school":"4"},{"start_time":1552328361146,"click_time":1552328362046,"finger_time":1552328361786,"fix_duration":936.337606174404,"trial":36,"RT":640,"MT":260,"sideResp":2,"stimulus":"img/250/equaldotanddens/R/9_Ratio_250_L_3_R_12.png","xmouse":[796,796,796,796,796,796,796,796,796,796,796,796,796,796,796,796,796,796,796,796,796,796,796,796,796,796,796,796,796,800,808,816,842,856,879,907,948,987,1003,1017,1029,1039,1056,1063,1066,1066],"ymouse":[523,523,523,523,523,523,523,523,523,523,523,523,523,523,523,523,523,523,523,523,523,523,523,523,523,523,523,521,521,516,508,497,465,447,421,388,347,305,281,257,228,204,154,129,109,92],"timestamp_mouse":[17,27,40,60,80,101,121,141,160,181,199,221,241,259,280,301,321,340,360,381,401,420,441,461,480,501,521,540,559,580,600,620,640,660,680,700,720,740,760,780,800,821,840,860,880,900],"xSR":741.5,"ySR":469.95,"xT1":424.9,"yT1":0,"xT2":1058.1,"yT2":0,"toosoon":0,"cond_shown":"equaldotanddens","ratio_trial":250,"smaller_num":"3","larger_num":"12","correct_side":2,"subjID":"julianarinconolarte3","gender":"1","age":"9","school":"4"},{"start_time":1552328363839,"click_time":1552328364947,"finger_time":1552328364386,"fix_duration":931.7076977362244,"trial":37,"RT":547,"MT":561,"sideResp":1,"stimulus":"img/900/equaldotsize/L/1_Ratio_900_L_10_R_9.png","xmouse":[796,796,796,796,796,796,796,796,796,796,796,796,796,796,796,796,796,796,796,796,796,796,795,793,790,785,776,758,750,740,725,714,683,669,658,648,640,628,622,617,614,612,609,605,601,596,593,584,581,574,567,558,542,534,529,523],"ymouse":[516,516,516,516,516,516,516,516,516,516,516,516,516,516,516,516,516,516,516,516,516,516,514,511,506,497,481,451,435,418,391,370,313,289,265,247,232,209,193,182,178,174,169,164,159,153,149,140,136,128,123,117,109,104,101,98],"timestamp_mouse":[12,26,49,68,87,108,127,147,168,186,208,227,248,268,287,308,328,348,368,388,408,427,448,467,487,508,527,547,567,587,607,627,647,667,687,707,728,747,766,787,807,826,847,867,887,907,927,947,967,987,1007,1028,1047,1067,1087,1108],"xSR":741.5,"ySR":469.95,"xT1":424.9,"yT1":0,"xT2":1058.1,"yT2":0,"toosoon":0,"cond_shown":"equaldotsize","ratio_trial":900,"smaller_num":"9","larger_num":"10","correct_side":1,"subjID":"julianarinconolarte3","gender":"1","age":"9","school":"4"},{"start_time":1552328368708,"click_time":1552328369927,"finger_time":1552328369327,"fix_duration":1401.5387722921703,"trial":38,"RT":619,"MT":600,"sideResp":1,"stimulus":"img/500/equaldotsize/L/4_Ratio_500_L_18_R_9.png","xmouse":[783,783,783,783,783,783,783,783,783,783,783,783,783,783,783,783,783,783,783,783,783,783,783,783,783,784,784,786,788,789,788,782,772,744,731,716,701,686,671,654,645,635,624,612,575,559,545,533,520,513,504,496,490,489,487,487,487,487,489,491,493],"ymouse":[509,509,509,509,509,509,509,509,509,509,509,509,509,509,509,509,509,509,509,509,509,509,509,509,509,509,506,502,488,474,458,437,413,358,340,325,310,297,282,258,247,233,221,210,181,170,160,152,143,138,131,124,119,116,113,113,111,109,103,100,96],"timestamp_mouse":[25,38,58,79,99,118,138,159,179,197,219,239,258,279,299,319,338,359,378,399,418,438,457,479,498,518,538,558,579,598,619,639,659,679,698,718,738,758,778,798,818,838,859,877,897,918,938,958,979,998,1019,1038,1058,1078,1098,1119,1138,1158,1180,1198,1219],"xSR":741.5,"ySR":469.95,"xT1":424.9,"yT1":0,"xT2":1058.1,"yT2":0,"toosoon":0,"cond_shown":"equaldotsize","ratio_trial":500,"smaller_num":"9","larger_num":"18","correct_side":1,"subjID":"julianarinconolarte3","gender":"1","age":"9","school":"4"},{"start_time":1552328371310,"click_time":1552328372386,"finger_time":1552328372127,"fix_duration":540.6673808733883,"trial":39,"RT":817,"MT":259,"sideResp":2,"stimulus":"img/500/randomdotsizeEA/R/2_Ratio_500_L_3_R_6.png","xmouse":[782,782,782,782,782,782,782,782,782,782,782,782,782,782,782,782,782,782,782,782,782,782,782,782,782,782,782,782,782,783,783,783,783,783,783,783,785,785,787,796,805,820,851,876,941,974,1000,1029,1050,1082,1091,1093,1096,1097],"ymouse":[507,507,507,507,507,507,507,507,507,507,507,507,507,507,507,507,507,507,507,507,507,507,506,506,504,503,500,499,497,492,490,489,488,488,488,487,485,484,483,473,464,452,426,404,341,303,267,225,195,148,124,119,106,98],"timestamp_mouse":[28,36,57,76,97,117,137,156,176,197,215,236,256,277,297,317,336,356,376,397,417,435,457,475,496,516,536,556,577,597,616,637,656,676,696,716,736,757,776,796,817,836,856,877,896,916,936,956,976,996,1016,1037,1057,1076],"xSR":741.5,"ySR":469.95,"xT1":424.9,"yT1":0,"xT2":1058.1,"yT2":0,"toosoon":0,"cond_shown":"randomdotsizeEA","ratio_trial":500,"smaller_num":"3","larger_num":"6","correct_side":2,"subjID":"julianarinconolarte3","gender":"1","age":"9","school":"4"},{"start_time":1552328373698,"click_time":1552328374907,"finger_time":1552328374426,"fix_duration":250,"trial":40,"RT":728,"MT":481,"sideResp":1,"stimulus":"img/900/randomdotsizeEA/R/12_Ratio_900_L_18_R_20.png","xmouse":[749,749,749,749,749,749,749,749,749,749,749,749,749,749,749,749,749,749,749,749,749,749,749,749,749,749,749,749,749,749,749,749,749,749,749,749,745,735,721,703,643,593,565,541,516,470,452,442,439,439,439,439,439,439,439,442,447,456,469,479,498],"ymouse":[520,520,520,520,519,518,518,518,518,518,518,518,518,518,518,518,518,518,518,518,518,518,518,518,518,518,518,518,518,517,515,511,502,495,488,472,460,444,427,406,355,319,299,282,266,235,222,213,210,210,208,206,204,203,201,192,178,153,126,106,76],"timestamp_mouse":[9,42,48,69,88,108,129,149,169,189,209,228,249,268,289,308,329,349,369,389,408,429,449,467,489,509,529,548,569,588,608,628,648,668,688,708,728,748,768,788,807,828,849,869,888,909,928,948,968,987,1008,1028,1048,1069,1088,1109,1128,1149,1168,1188,1209],"xSR":741.5,"ySR":469.95,"xT1":424.9,"yT1":0,"xT2":1058.1,"yT2":0,"toosoon":0,"cond_shown":"randomdotsizeEA","ratio_trial":900,"smaller_num":"18","larger_num":"20","correct_side":2,"subjID":"julianarinconolarte3","gender":"1","age":"9","school":"4"},{"start_time":1552328376483,"click_time":1552328377426,"finger_time":1552328377126,"fix_duration":374.04771137925417,"trial":41,"RT":643,"MT":300,"sideResp":1,"stimulus":"img/750/equaldotanddens/L/14_Ratio_750_L_8_R_6.png","xmouse":[781,781,781,781,781,781,781,782,782,782,782,782,782,782,782,782,782,782,782,782,782,782,782,783,783,784,783,782,781,779,777,772,741,720,690,660,629,601,554,546,534,515,493,486,479,478,478,485],"ymouse":[506,506,506,506,508,509,512,514,515,515,515,515,515,515,515,515,515,515,515,515,515,515,515,516,516,515,510,506,503,496,491,482,435,404,365,326,298,276,243,237,227,206,166,147,130,118,107,89],"timestamp_mouse":[2,23,43,63,83,103,123,143,163,183,203,223,242,264,284,303,324,343,364,384,404,423,443,463,484,503,524,543,563,584,603,624,643,663,683,703,724,743,763,783,803,823,844,863,884,903,923,943],"xSR":741.5,"ySR":469.95,"xT1":424.9,"yT1":0,"xT2":1058.1,"yT2":0,"toosoon":0,"cond_shown":"equaldotanddens","ratio_trial":750,"smaller_num":"6","larger_num":"8","correct_side":1,"subjID":"julianarinconolarte3","gender":"1","age":"9","school":"4"},{"start_time":1552328379089,"click_time":1552328380526,"finger_time":1552328379786,"fix_duration":941.426859068335,"trial":42,"RT":697,"MT":740,"sideResp":2,"stimulus":"img/250/randomdotsizeEA/R/4_Ratio_250_L_3_R_12.png","xmouse":[780,780,780,780,780,780,780,780,780,780,780,780,780,780,780,780,780,780,780,780,780,780,780,780,780,780,780,780,780,780,781,782,782,784,786,790,797,803,810,821,838,864,880,897,913,926,954,966,978,995,1006,1015,1015,1015,1017,1017,1017,1017,1018,1019,1022,1023,1023,1025,1028,1032,1039,1041,1044,1049,1052,1062],"ymouse":[488,488,488,488,488,488,488,488,488,488,488,488,488,488,488,488,488,488,488,488,488,488,488,488,488,486,484,483,483,480,478,475,473,470,467,463,455,449,441,429,405,373,357,338,318,298,262,245,229,204,188,145,131,126,124,124,124,124,123,121,118,116,116,115,113,108,98,96,92,87,84,79],"timestamp_mouse":[17,37,58,78,98,117,138,158,177,198,218,238,258,277,297,317,337,358,378,398,418,438,457,477,497,518,537,558,577,597,617,636,657,677,697,717,737,758,777,798,817,838,857,877,897,917,936,958,977,997,1017,1036,1057,1078,1097,1117,1137,1157,1177,1198,1217,1236,1258,1278,1297,1318,1337,1358,1378,1398,1417,1437],"xSR":741.5,"ySR":469.95,"xT1":424.9,"yT1":0,"xT2":1058.1,"yT2":0,"toosoon":0,"cond_shown":"randomdotsizeEA","ratio_trial":250,"smaller_num":"3","larger_num":"12","correct_side":2,"subjID":"julianarinconolarte3","gender":"1","age":"9","school":"4"},{"start_time":1552328381639,"click_time":1552328382807,"finger_time":1552328382287,"fix_duration":250,"trial":43,"RT":648,"MT":520,"sideResp":2,"stimulus":"img/500/equaldotsize/R/9_Ratio_500_L_2_R_4.png","xmouse":[763,763,763,763,763,763,763,763,763,763,763,763,763,763,763,763,763,763,763,763,763,763,763,763,763,763,764,765,769,784,793,812,822,834,859,871,885,900,921,960,979,996,1002,1009,1016,1028,1033,1040,1045,1056,1062,1072,1079,1084,1097,1102,1106,1111,1118],"ymouse":[522,522,522,522,522,522,522,522,522,522,522,522,522,522,522,522,522,522,522,522,522,522,522,522,522,522,520,520,516,504,495,477,468,456,425,412,393,376,352,315,300,283,276,266,257,236,226,217,210,195,185,169,157,146,127,119,111,102,90],"timestamp_mouse":[19,40,48,68,87,108,127,148,168,187,208,228,248,267,287,307,327,347,367,386,406,427,447,467,488,507,528,548,567,587,606,627,648,667,688,707,727,747,767,788,808,827,848,867,887,907,927,947,966,988,1007,1028,1047,1067,1087,1107,1127,1147,1168],"xSR":741.5,"ySR":469.95,"xT1":424.9,"yT1":0,"xT2":1058.1,"yT2":0,"toosoon":0,"cond_shown":"equaldotsize","ratio_trial":500,"smaller_num":"2","larger_num":"4","correct_side":2,"subjID":"julianarinconolarte3","gender":"1","age":"9","school":"4"},{"start_time":1552328384687,"click_time":1552328385728,"finger_time":1552328385445,"fix_duration":860.7203795243572,"trial":44,"RT":758,"MT":283,"sideResp":2,"stimulus":"img/250/randomdotsizeEA/R/4_Ratio_250_L_3_R_12.png","xmouse":[790,790,790,790,790,790,790,790,790,790,790,790,790,790,790,790,790,790,790,790,790,790,790,790,790,789,789,789,789,789,789,789,789,789,791,793,806,825,844,864,887,962,1000,1043,1070,1088,1105,1130,1135,1137,1140,1141],"ymouse":[493,493,493,493,493,493,493,493,493,493,493,493,493,493,493,493,493,493,493,493,493,493,493,493,493,493,493,493,493,493,493,492,492,490,488,486,471,452,435,417,397,328,291,256,233,215,197,166,153,143,129,97],"timestamp_mouse":[20,39,60,80,99,119,139,159,179,199,220,239,259,280,300,320,339,359,379,400,420,439,460,480,500,520,540,558,578,600,619,639,659,680,699,719,739,758,779,798,819,841,859,879,898,920,939,959,979,999,1019,1041],"xSR":741.5,"ySR":469.95,"xT1":424.9,"yT1":0,"xT2":1058.1,"yT2":0,"toosoon":0,"cond_shown":"randomdotsizeEA","ratio_trial":250,"smaller_num":"3","larger_num":"12","correct_side":2,"subjID":"julianarinconolarte3","gender":"1","age":"9","school":"4"},{"start_time":1552328387559,"click_time":1552328388507,"finger_time":1552328388227,"fix_duration":851.0297026208477,"trial":45,"RT":668,"MT":280,"sideResp":2,"stimulus":"img/500/equaldotanddens/R/14_Ratio_500_L_5_R_10.png","xmouse":[789,789,789,789,789,789,789,789,789,789,789,789,789,789,789,789,789,789,789,789,789,790,790,790,791,791,792,792,793,799,804,810,825,830,865,881,899,917,938,973,985,1004,1008,1041,1053,1063,1072,1078],"ymouse":[531,531,531,531,531,531,531,531,531,531,531,531,531,531,531,531,531,531,531,530,526,524,523,522,521,520,519,519,517,508,501,493,473,467,426,407,386,360,332,276,254,221,211,157,136,120,105,95],"timestamp_mouse":[12,30,48,68,88,106,128,148,168,187,208,228,247,268,286,306,327,347,368,387,407,427,448,467,488,507,528,548,568,587,608,627,647,668,687,708,727,747,767,787,808,827,847,869,888,908,927,948],"xSR":741.5,"ySR":469.95,"xT1":424.9,"yT1":0,"xT2":1058.1,"yT2":0,"toosoon":0,"cond_shown":"equaldotanddens","ratio_trial":500,"smaller_num":"5","larger_num":"10","correct_side":2,"subjID":"julianarinconolarte3","gender":"1","age":"9","school":"4"},{"start_time":1552328390180,"click_time":1552328391166,"finger_time":1552328390786,"fix_duration":692.5636161447803,"trial":46,"RT":606,"MT":380,"sideResp":1,"stimulus":"img/900/equaldotanddens/R/12_Ratio_900_L_18_R_20.png","xmouse":[778,778,778,778,778,778,778,778,778,778,778,778,778,778,778,778,778,778,778,778,778,778,778,778,778,778,778,776,771,768,757,742,725,682,666,654,646,643,638,635,629,624,615,598,589,581,572,563,538,520],"ymouse":[532,532,532,532,532,532,532,532,532,532,532,532,532,532,532,532,532,532,532,532,532,532,532,532,532,532,532,525,507,489,451,420,391,339,322,310,304,300,295,289,278,266,253,220,203,186,164,141,86,54],"timestamp_mouse":[13,32,46,67,87,107,125,146,167,187,207,226,246,267,286,307,326,347,365,387,406,427,446,466,486,507,525,546,566,586,606,626,646,667,686,706,726,747,766,786,806,826,846,866,886,906,926,946,966,986],"xSR":741.5,"ySR":469.95,"xT1":424.9,"yT1":0,"xT2":1058.1,"yT2":0,"toosoon":0,"cond_shown":"equaldotanddens","ratio_trial":900,"smaller_num":"18","larger_num":"20","correct_side":2,"subjID":"julianarinconolarte3","gender":"1","age":"9","school":"4"},{"start_time":1552328392338,"click_time":1552328393666,"finger_time":1552328393406,"fix_duration":250,"trial":47,"RT":1068,"MT":260,"sideResp":1,"stimulus":"img/750/randomdotsizeEA/R/5_Ratio_750_L_15_R_20.png","xmouse":[786,786,786,786,786,786,786,786,786,786,786,786,786,786,786,786,786,786,786,786,786,786,786,786,786,786,786,786,786,786,787,788,789,790,790,790,790,790,790,790,790,792,795,798,800,804,805,806,806,806,806,806,806,805,796,785,748,729,708,688,668,600,575,557,543,525,520],"ymouse":[496,496,496,496,496,496,496,497,499,500,501,502,503,504,504,504,504,505,506,507,509,509,509,509,509,509,509,509,509,509,509,509,509,508,508,508,508,508,508,508,508,506,503,499,497,494,491,490,490,490,489,485,480,469,452,431,377,350,326,298,272,176,144,122,111,94,90],"timestamp_mouse":[15,34,47,67,89,108,128,148,168,188,208,228,248,267,288,309,328,348,368,388,408,428,447,468,488,508,528,548,568,588,608,628,648,668,689,708,727,749,769,789,807,828,848,868,888,908,929,947,968,988,1009,1028,1048,1068,1088,1109,1128,1148,1168,1188,1209,1229,1248,1268,1289,1309,1328],"xSR":741.5,"ySR":469.95,"xT1":424.9,"yT1":0,"xT2":1058.1,"yT2":0,"toosoon":0,"cond_shown":"randomdotsizeEA","ratio_trial":750,"smaller_num":"15","larger_num":"20","correct_side":2,"subjID":"julianarinconolarte3","gender":"1","age":"9","school":"4"},{"start_time":1552328394697,"click_time":1552328396447,"finger_time":1552328395726,"fix_duration":250,"trial":48,"RT":1029,"MT":721,"sideResp":1,"stimulus":"img/900/randomdotsizeEA/R/9_Ratio_900_L_18_R_20.png","xmouse":[784,784,784,784,784,784,784,784,784,784,784,784,784,784,784,784,784,784,784,784,784,784,784,784,784,785,785,785,785,786,786,786,787,787,787,787,787,787,787,787,787,787,787,788,789,790,791,793,798,802,807,814,825,826,828,830,830,831,831,829,823,815,804,765,744,725,702,678,634,611,589,571,554,548,546,544,542,537,535,533,530,526,519,514,513,511,509,507],"ymouse":[499,499,499,499,499,499,499,499,499,499,499,501,503,503,503,504,505,505,505,505,505,505,505,505,505,505,505,505,505,505,505,505,505,504,504,504,504,504,504,504,504,504,504,504,503,502,500,498,490,484,478,468,446,439,435,428,422,411,406,400,393,383,371,339,324,310,293,273,233,207,182,161,147,141,138,136,133,127,125,122,119,114,111,107,105,103,100,98],"timestamp_mouse":[20,42,49,70,90,110,130,149,168,190,209,229,250,269,290,310,330,350,369,389,409,430,449,470,489,509,529,550,570,588,609,629,650,669,688,710,730,748,769,790,810,829,850,870,889,909,930,949,969,989,1009,1029,1051,1069,1089,1110,1129,1151,1169,1189,1209,1229,1248,1268,1290,1309,1329,1349,1369,1389,1410,1430,1449,1469,1490,1509,1529,1550,1569,1589,1608,1628,1649,1669,1689,1710,1729,1750],"xSR":741.5,"ySR":469.95,"xT1":424.9,"yT1":0,"xT2":1058.1,"yT2":0,"toosoon":0,"cond_shown":"randomdotsizeEA","ratio_trial":900,"smaller_num":"18","larger_num":"20","correct_side":2,"subjID":"julianarinconolarte3","gender":"1","age":"9","school":"4"},{"start_time":1552328399119,"click_time":1552328400387,"finger_time":1552328400046,"fix_duration":250,"trial":49,"RT":927,"MT":341,"sideResp":2,"stimulus":"img/250/randomdotsizeEA/R/8_Ratio_250_L_1_R_4.png","xmouse":[787,787,787,787,787,787,787,787,787,787,787,787,787,787,787,787,787,787,787,787,787,787,787,787,787,787,787,786,786,786,786,786,786,786,786,786,786,786,786,786,787,788,789,796,807,823,847,920,1010,1074,1125,1163,1198,1204,1206,1206,1206,1200,1190,1186,1178,1171,1159,1151],"ymouse":[499,499,499,499,499,499,499,499,499,499,499,499,499,499,499,499,499,499,499,499,499,499,499,499,499,499,499,499,499,499,499,499,499,499,499,499,499,499,499,500,501,501,501,501,493,480,460,384,285,217,163,119,75,63,57,52,46,30,18,15,11,8,8,8],"timestamp_mouse":[12,31,47,68,86,108,128,147,168,188,207,227,247,268,287,306,327,348,367,388,407,426,448,468,487,507,528,547,568,588,607,627,647,667,687,707,728,747,766,787,807,828,847,867,888,908,927,947,966,987,1008,1027,1047,1067,1087,1107,1128,1147,1166,1188,1208,1227,1248,1267],"xSR":741.5,"ySR":469.95,"xT1":424.9,"yT1":0,"xT2":1058.1,"yT2":0,"toosoon":0,"cond_shown":"randomdotsizeEA","ratio_trial":250,"smaller_num":"1","larger_num":"4","correct_side":2,"subjID":"julianarinconolarte3","gender":"1","age":"9","school":"4"},{"start_time":1552328403610,"click_time":1552328404626,"finger_time":1552328404247,"fix_duration":740.8672787183824,"trial":50,"RT":637,"MT":379,"sideResp":1,"stimulus":"img/750/randomdotsizeEA/L/8_Ratio_750_L_4_R_3.png","xmouse":[783,783,783,783,783,783,783,783,783,783,783,783,783,783,783,783,783,783,783,783,783,783,783,783,783,783,783,783,778,767,752,721,679,656,656,614,599,587,574,571,566,562,557,546,540,534,529,519,513,508,502],"ymouse":[518,518,518,518,518,518,518,518,518,518,518,518,518,518,518,518,518,518,518,518,518,518,518,518,518,518,518,518,512,498,475,430,368,331,331,273,256,243,231,228,224,219,209,191,180,168,157,133,120,107,94],"timestamp_mouse":[17,36,56,76,97,117,137,157,176,197,216,237,257,275,297,317,336,357,376,397,417,436,457,477,496,517,537,556,576,596,617,637,657,676,696,716,736,756,775,796,816,836,857,876,896,917,937,957,976,996,1016],"xSR":741.5,"ySR":469.95,"xT1":424.9,"yT1":0,"xT2":1058.1,"yT2":0,"toosoon":0,"cond_shown":"randomdotsizeEA","ratio_trial":750,"smaller_num":"3","larger_num":"4","correct_side":1,"subjID":"julianarinconolarte3","gender":"1","age":"9","school":"4"},{"start_time":1552328406132,"click_time":1552328407386,"finger_time":1552328406986,"fix_duration":624.2668819137831,"trial":51,"RT":854,"MT":400,"sideResp":1,"stimulus":"img/900/randomdotsizeEA/R/3_Ratio_900_L_9_R_10.png","xmouse":[783,784,785,785,785,785,785,785,785,785,785,785,785,785,785,785,785,786,786,787,787,787,787,787,787,788,788,788,788,788,788,788,788,788,788,788,788,788,788,785,780,771,748,734,707,686,665,619,601,582,569,559,547,544,542,540,538,538,538,535,533,530,520],"ymouse":[516,517,519,521,521,521,521,521,521,521,521,521,521,521,521,521,521,522,522,522,522,522,522,522,522,523,523,523,523,523,523,523,523,523,523,523,523,523,519,514,507,495,465,448,421,399,379,337,319,298,280,264,238,228,222,214,202,181,168,151,138,122,95],"timestamp_mouse":[14,36,54,73,94,115,133,155,175,193,215,235,254,275,293,314,335,355,374,394,413,435,454,475,495,514,535,554,575,595,614,633,655,674,694,715,733,754,774,793,815,834,854,874,893,915,935,955,974,994,1014,1035,1053,1074,1094,1114,1134,1154,1174,1194,1214,1235,1253],"xSR":741.5,"ySR":469.95,"xT1":424.9,"yT1":0,"xT2":1058.1,"yT2":0,"toosoon":0,"cond_shown":"randomdotsizeEA","ratio_trial":900,"smaller_num":"9","larger_num":"10","correct_side":2,"subjID":"julianarinconolarte3","gender":"1","age":"9","school":"4"},{"start_time":1552328409681,"click_time":1552328410906,"finger_time":1552328410226,"fix_duration":1392.0448376403408,"trial":52,"RT":545,"MT":680,"sideResp":1,"stimulus":"img/750/equaldotanddens/L/10_Ratio_750_L_4_R_3.png","xmouse":[800,800,800,800,800,800,800,798,798,798,797,797,797,796,796,796,795,795,795,795,794,793,792,791,788,784,779,775,771,764,749,739,728,719,709,691,680,674,669,663,657,642,632,622,612,596,587,583,579,577,573,562,553,545,535,522,512,509,507,505,502,499],"ymouse":[525,525,525,525,525,525,525,525,525,525,524,524,524,524,524,524,523,523,523,523,522,519,516,509,502,487,476,467,456,445,424,413,404,396,388,375,369,365,361,356,351,337,326,314,304,282,265,259,252,246,237,212,197,183,167,142,127,120,115,110,102,96],"timestamp_mouse":[9,31,46,66,85,105,126,145,165,184,206,226,246,265,286,305,326,345,364,385,406,425,445,466,485,505,526,545,566,585,605,625,646,665,685,706,724,745,765,786,806,825,846,865,885,906,925,945,965,986,1005,1025,1045,1065,1085,1106,1125,1145,1165,1185,1206,1225],"xSR":741.5,"ySR":469.95,"xT1":424.9,"yT1":0,"xT2":1058.1,"yT2":0,"toosoon":0,"cond_shown":"equaldotanddens","ratio_trial":750,"smaller_num":"3","larger_num":"4","correct_side":1,"subjID":"julianarinconolarte3","gender":"1","age":"9","school":"4"},{"start_time":1552328414085,"click_time":1552328415207,"finger_time":1552328414806,"fix_duration":676.655901208555,"trial":53,"RT":721,"MT":401,"sideResp":1,"stimulus":"img/750/randomdotsizeEA/R/4_Ratio_750_L_15_R_20.png","xmouse":[784,784,784,784,784,784,784,784,784,784,784,784,784,784,784,784,784,784,784,784,784,784,784,784,784,784,784,784,784,784,784,784,784,783,778,771,746,731,717,705,691,654,637,625,615,600,582,576,573,566,559,549,545,541,532,526,507],"ymouse":[509,509,509,509,509,509,509,509,509,509,509,509,509,509,509,509,509,509,509,509,509,509,509,509,509,509,509,509,509,509,509,509,508,506,499,489,463,449,436,418,395,329,300,273,253,227,201,188,176,162,149,134,130,126,120,114,98],"timestamp_mouse":[9,30,40,61,82,101,122,141,160,181,202,222,242,261,281,301,321,342,362,381,401,421,442,461,481,501,521,541,561,582,601,622,641,661,682,702,721,741,761,781,801,821,842,862,881,901,921,941,960,982,1001,1021,1041,1061,1081,1101,1121],"xSR":741.5,"ySR":469.95,"xT1":424.9,"yT1":0,"xT2":1058.1,"yT2":0,"toosoon":0,"cond_shown":"randomdotsizeEA","ratio_trial":750,"smaller_num":"15","larger_num":"20","correct_side":2,"subjID":"julianarinconolarte3","gender":"1","age":"9","school":"4"},{"start_time":1552328416519,"click_time":1552328417927,"finger_time":1552328417687,"fix_duration":250,"trial":54,"RT":1168,"MT":240,"sideResp":2,"stimulus":"img/500/equaldotsize/R/12_Ratio_500_L_1_R_2.png","xmouse":[789,789,789,789,789,789,789,789,789,789,789,789,789,789,789,789,789,789,789,789,789,789,789,789,789,789,789,789,789,789,789,789,789,789,789,789,789,789,789,789,789,789,789,789,789,789,789,789,789,789,789,789,789,789,795,800,810,820,833,864,878,911,936,959,998,1014,1023,1033,1042,1049,1062],"ymouse":[514,514,514,514,514,514,514,514,514,514,514,514,514,514,514,514,514,514,514,514,514,514,514,514,514,514,514,514,514,514,514,514,514,514,515,515,515,515,515,515,515,515,515,515,515,515,515,515,515,515,515,515,515,514,508,500,489,477,462,423,397,339,294,256,196,166,141,119,98,81,54],"timestamp_mouse":[27,37,46,67,87,108,127,147,167,187,208,227,247,267,287,308,328,347,367,387,407,427,448,467,487,507,528,548,566,587,607,627,646,667,688,707,727,747,767,788,808,827,848,867,886,908,927,947,968,987,1008,1027,1048,1067,1087,1107,1127,1148,1168,1187,1207,1227,1247,1267,1287,1306,1327,1347,1368,1387,1408],"xSR":741.5,"ySR":469.95,"xT1":424.9,"yT1":0,"xT2":1058.1,"yT2":0,"toosoon":0,"cond_shown":"equaldotsize","ratio_trial":500,"smaller_num":"1","larger_num":"2","correct_side":2,"subjID":"julianarinconolarte3","gender":"1","age":"9","school":"4"},{"start_time":1552328420280,"click_time":1552328421266,"finger_time":1552328420946,"fix_duration":1353.9888899796451,"trial":55,"RT":666,"MT":320,"sideResp":2,"stimulus":"img/500/equaldotanddens/R/2_Ratio_500_L_3_R_6.png","xmouse":[757,757,755,755,755,755,755,755,755,755,755,755,755,755,755,755,755,755,755,755,755,755,755,755,755,755,755,755,755,755,755,755,759,763,769,775,791,801,812,820,829,841,857,870,888,913,945,1011,1041,1060],"ymouse":[487,487,487,486,486,486,486,486,486,486,486,486,486,486,486,486,486,486,486,486,486,486,486,486,486,486,486,486,486,486,486,484,473,465,455,442,416,402,385,371,356,336,312,295,268,230,186,100,64,43],"timestamp_mouse":[7,27,51,67,86,106,126,145,167,187,207,226,246,265,287,306,326,346,366,387,406,425,446,467,486,507,526,547,567,586,606,626,647,666,686,706,727,746,766,786,806,826,845,866,886,906,926,945,967,986],"xSR":741.5,"ySR":469.95,"xT1":424.9,"yT1":0,"xT2":1058.1,"yT2":0,"toosoon":0,"cond_shown":"equaldotanddens","ratio_trial":500,"smaller_num":"3","larger_num":"6","correct_side":2,"subjID":"julianarinconolarte3","gender":"1","age":"9","school":"4"},{"start_time":1552328423323,"click_time":1552328424526,"finger_time":1552328423885,"fix_duration":1135.133744880666,"trial":56,"RT":562,"MT":641,"sideResp":1,"stimulus":"img/900/randomdotsizeEA/R/13_Ratio_900_L_18_R_20.png","xmouse":[789,789,789,789,789,789,789,789,789,789,789,789,789,789,789,789,789,789,789,788,785,783,779,774,770,757,750,742,735,726,711,703,694,681,666,646,637,626,616,610,599,591,581,573,566,555,550,548,545,540,534,532,531,530,530,529,529,528,527,527,522],"ymouse":[525,525,525,525,525,525,525,525,525,525,525,525,525,525,525,525,525,525,525,525,525,524,522,520,516,504,497,490,483,473,454,439,422,400,371,326,306,291,276,265,239,221,200,177,155,114,91,85,72,63,50,46,43,43,42,42,42,42,42,42,44],"timestamp_mouse":[9,31,43,63,82,104,124,142,164,182,203,224,244,263,283,303,324,343,364,383,403,423,444,463,483,503,523,543,562,582,603,622,643,663,684,702,722,743,763,783,803,823,842,864,884,903,923,943,964,983,1002,1023,1044,1064,1083,1103,1124,1143,1163,1183,1203],"xSR":741.5,"ySR":469.95,"xT1":424.9,"yT1":0,"xT2":1058.1,"yT2":0,"toosoon":0,"cond_shown":"randomdotsizeEA","ratio_trial":900,"smaller_num":"18","larger_num":"20","correct_side":2,"subjID":"julianarinconolarte3","gender":"1","age":"9","school":"4"},{"start_time":1552328426112,"click_time":1552328426866,"finger_time":1552328426526,"fix_duration":644.745877468593,"trial":57,"RT":414,"MT":340,"sideResp":1,"stimulus":"img/250/equaldotanddens/L/1_Ratio_250_L_8_R_2.png","xmouse":[814,814,814,814,814,814,814,814,814,814,814,814,813,812,812,812,810,809,807,801,792,784,773,760,744,708,689,656,640,624,598,582,567,551,538,520,514,513],"ymouse":[516,516,516,516,516,516,516,516,516,516,516,516,516,516,515,515,513,509,501,485,454,436,419,402,382,341,322,289,269,252,221,201,182,163,148,123,108,98],"timestamp_mouse":[14,34,54,74,94,114,134,154,174,194,214,234,255,274,295,315,335,354,374,395,414,434,454,474,495,513,535,554,575,594,615,634,654,674,695,715,734,754],"xSR":741.5,"ySR":469.95,"xT1":424.9,"yT1":0,"xT2":1058.1,"yT2":0,"toosoon":0,"cond_shown":"equaldotanddens","ratio_trial":250,"smaller_num":"2","larger_num":"8","correct_side":1,"subjID":"julianarinconolarte3","gender":"1","age":"9","school":"4"},{"start_time":1552328428167,"click_time":1552328429126,"finger_time":1552328428826,"fix_duration":338.24078787984536,"trial":58,"RT":659,"MT":300,"sideResp":2,"stimulus":"img/750/equaldotanddens/R/15_Ratio_750_L_9_R_12.png","xmouse":[771,771,771,771,771,771,771,771,771,771,771,771,771,771,771,771,771,771,771,771,771,771,771,771,771,770,770,770,770,770,774,784,796,832,842,853,864,873,884,910,928,949,970,1005,1026,1037,1049,1056,1064],"ymouse":[506,506,506,506,506,506,506,506,506,506,506,506,506,506,506,506,506,506,506,506,506,506,506,503,502,501,500,499,499,496,492,483,472,444,438,430,419,406,390,355,330,299,269,208,162,131,104,86,71],"timestamp_mouse":[1,19,39,59,80,100,119,138,159,180,198,219,239,259,280,299,320,340,360,379,399,419,438,460,479,499,519,540,559,579,600,620,640,659,679,699,720,739,758,778,799,819,839,860,878,899,919,940,958],"xSR":741.5,"ySR":469.95,"xT1":424.9,"yT1":0,"xT2":1058.1,"yT2":0,"toosoon":0,"cond_shown":"equaldotanddens","ratio_trial":750,"smaller_num":"9","larger_num":"12","correct_side":2,"subjID":"julianarinconolarte3","gender":"1","age":"9","school":"4"},{"start_time":1552328430299,"click_time":1552328431427,"finger_time":1552328431307,"fix_duration":250,"trial":59,"RT":1008,"MT":120,"sideResp":2,"stimulus":"img/250/randomdotsizeEA/R/12_Ratio_250_L_5_R_20.png","xmouse":[808,808,808,808,808,807,806,802,799,797,796,793,788,785,781,777,775,772,772,772,772,771,769,768,768,768,768,768,768,768,768,768,768,768,768,768,768,768,768,768,768,768,768,769,769,769,769,770,773,778,790,864,920,982,1032,1067,1114],"ymouse":[502,502,502,502,502,502,502,500,500,499,499,498,496,494,493,491,491,491,491,491,491,490,490,488,488,488,488,488,488,488,488,488,488,488,488,488,488,488,488,488,488,489,489,490,490,490,490,490,489,480,459,359,297,232,175,135,82],"timestamp_mouse":[13,30,47,68,86,107,127,148,168,187,207,227,247,268,287,308,327,347,367,388,406,428,447,467,488,507,526,548,568,588,608,628,647,667,688,707,727,746,768,787,807,826,847,867,888,907,928,948,967,987,1008,1028,1047,1067,1088,1108,1128],"xSR":741.5,"ySR":469.95,"xT1":424.9,"yT1":0,"xT2":1058.1,"yT2":0,"toosoon":0,"cond_shown":"randomdotsizeEA","ratio_trial":250,"smaller_num":"5","larger_num":"20","correct_side":2,"subjID":"julianarinconolarte3","gender":"1","age":"9","school":"4"},{"start_time":1552328433748,"click_time":1552328434686,"finger_time":1552328434306,"fix_duration":1160.5356863269067,"trial":60,"RT":558,"MT":380,"sideResp":1,"stimulus":"img/250/randomdotsizeEA/L/3_Ratio_250_L_8_R_2.png","xmouse":[809,809,809,809,809,809,809,809,809,809,809,809,809,809,809,809,809,809,809,809,809,808,803,797,780,767,755,741,725,688,672,645,629,613,584,566,546,525,506,475,466,464,461,460,456,452,450],"ymouse":[507,508,509,510,511,511,511,511,511,511,511,511,511,511,511,511,511,511,511,511,511,511,511,509,503,498,492,485,474,448,434,412,398,382,343,312,275,242,211,169,157,153,147,140,119,106,99],"timestamp_mouse":[18,42,58,79,98,118,138,158,178,199,218,239,259,278,298,318,339,359,379,399,419,438,459,478,498,518,538,558,578,598,617,638,659,678,698,718,738,758,777,799,818,838,858,878,898,918,938],"xSR":741.5,"ySR":469.95,"xT1":424.9,"yT1":0,"xT2":1058.1,"yT2":0,"toosoon":0,"cond_shown":"randomdotsizeEA","ratio_trial":250,"smaller_num":"2","larger_num":"8","correct_side":1,"subjID":"julianarinconolarte3","gender":"1","age":"9","school":"4"},{"start_time":1552328435899,"click_time":1552328437127,"finger_time":1552328436687,"fix_duration":250,"trial":61,"RT":788,"MT":440,"sideResp":1,"stimulus":"img/500/equaldotanddens/L/5_Ratio_500_L_4_R_2.png","xmouse":[763,763,763,763,763,763,763,763,763,763,763,763,763,763,763,763,763,763,763,763,762,761,757,753,752,752,752,752,752,752,752,752,752,752,752,752,752,750,747,741,732,718,681,654,633,607,586,553,541,532,523,515,503,494,490,484,480,473,468,465,463,461],"ymouse":[496,496,496,496,496,496,496,496,496,496,496,496,496,496,496,496,496,496,496,496,494,494,489,487,486,486,486,486,486,486,486,486,486,486,486,486,486,485,483,479,473,462,430,395,367,322,287,230,210,195,181,169,152,139,133,126,120,113,107,103,101,97],"timestamp_mouse":[11,31,47,67,87,107,127,147,168,188,208,228,247,267,287,307,327,346,368,387,407,427,447,467,488,508,528,547,567,587,608,628,647,667,688,708,727,747,766,788,807,827,847,866,887,907,927,948,967,987,1008,1027,1048,1067,1087,1107,1127,1147,1166,1187,1207,1228],"xSR":741.5,"ySR":469.95,"xT1":424.9,"yT1":0,"xT2":1058.1,"yT2":0,"toosoon":0,"cond_shown":"equaldotanddens","ratio_trial":500,"smaller_num":"2","larger_num":"4","correct_side":1,"subjID":"julianarinconolarte3","gender":"1","age":"9","school":"4"},{"start_time":1552328439081,"click_time":1552328440686,"finger_time":1552328439906,"fix_duration":832.9060737920602,"trial":62,"RT":825,"MT":780,"sideResp":2,"stimulus":"img/900/equaldotanddens/R/9_Ratio_900_L_18_R_20.png","xmouse":[774,774,774,774,774,774,774,774,774,774,774,774,774,774,774,774,774,774,774,774,774,774,774,774,774,774,774,774,775,776,778,779,779,779,780,780,781,781,781,778,774,769,755,750,715,699,685,676,673,669,668,668,668,668,671,674,682,694,715,761,785,812,838,873,903,918,935,945,956,974,983,991,999,1011,1023,1028,1032,1035,1040,1056,1066],"ymouse":[501,501,501,501,501,501,501,501,501,501,501,501,501,501,501,501,501,501,501,501,501,501,501,501,501,501,501,501,501,500,499,497,497,495,494,494,493,492,489,482,475,468,452,446,412,395,379,367,359,351,348,344,342,340,335,333,330,329,323,312,305,297,290,273,251,237,223,211,197,172,158,145,133,117,102,98,94,91,87,75,68],"timestamp_mouse":[9,32,45,66,85,105,125,145,166,186,205,225,246,266,286,305,326,345,364,386,406,426,446,465,485,506,525,545,565,584,605,625,644,666,686,705,726,745,764,785,806,825,846,865,885,905,925,944,965,985,1006,1025,1045,1065,1085,1105,1126,1145,1165,1185,1205,1226,1245,1265,1285,1305,1325,1346,1365,1384,1405,1426,1445,1465,1486,1506,1526,1545,1565,1585,1605],"xSR":741.5,"ySR":469.95,"xT1":424.9,"yT1":0,"xT2":1058.1,"yT2":0,"toosoon":0,"cond_shown":"equaldotanddens","ratio_trial":900,"smaller_num":"18","larger_num":"20","correct_side":2,"subjID":"julianarinconolarte3","gender":"1","age":"9","school":"4"},{"start_time":1552328444109,"click_time":1552328445167,"finger_time":1552328444906,"fix_duration":1000.5651108875243,"trial":63,"RT":797,"MT":261,"sideResp":2,"stimulus":"img/750/equaldotanddens/R/11_Ratio_750_L_12_R_16.png","xmouse":[777,777,777,777,777,777,777,777,777,777,777,777,777,777,777,777,777,777,777,777,777,777,777,777,777,777,777,777,777,777,777,777,777,777,779,784,787,805,831,843,885,922,1005,1046,1073,1092,1104,1113,1119,1123,1126,1127,1129],"ymouse":[513,513,513,513,513,513,513,513,513,513,513,513,513,513,513,513,513,513,513,513,513,513,513,513,513,513,513,513,513,513,513,513,513,513,513,511,509,496,477,466,429,390,307,271,241,217,198,179,146,123,110,101,84],"timestamp_mouse":[18,38,57,77,97,117,136,158,177,198,218,238,258,276,297,317,337,358,378,398,417,437,456,478,498,518,537,557,578,597,618,637,657,677,697,718,738,757,777,797,817,837,857,877,897,917,937,958,977,996,1016,1036,1058],"xSR":741.5,"ySR":469.95,"xT1":424.9,"yT1":0,"xT2":1058.1,"yT2":0,"toosoon":0,"cond_shown":"equaldotanddens","ratio_trial":750,"smaller_num":"12","larger_num":"16","correct_side":2,"subjID":"julianarinconolarte3","gender":"1","age":"9","school":"4"},{"start_time":1552328446479,"click_time":1552328447606,"finger_time":1552328447166,"fix_duration":250,"trial":64,"RT":687,"MT":440,"sideResp":1,"stimulus":"img/900/randomdotsizeEA/L/10_Ratio_900_L_20_R_18.png","xmouse":[798,798,798,798,798,798,798,798,798,798,798,798,798,798,798,797,797,797,796,796,796,796,795,795,794,794,793,793,793,792,788,785,779,769,743,727,710,693,675,647,632,621,613,606,590,581,573,566,560,539,531,524,517,510,505,496,493],"ymouse":[520,520,520,520,520,520,520,520,520,520,519,519,519,519,519,519,519,519,518,518,518,518,517,517,515,514,513,513,510,509,505,500,493,481,451,432,409,386,362,317,287,271,257,245,221,211,203,194,186,168,162,155,145,135,123,100,91],"timestamp_mouse":[12,32,47,67,88,107,126,148,167,187,207,228,248,268,288,307,327,346,367,387,407,427,447,467,487,507,528,547,567,587,608,627,648,667,687,706,727,747,767,788,807,827,848,867,888,906,928,947,968,988,1007,1027,1047,1067,1086,1106,1127],"xSR":741.5,"ySR":469.95,"xT1":424.9,"yT1":0,"xT2":1058.1,"yT2":0,"toosoon":0,"cond_shown":"randomdotsizeEA","ratio_trial":900,"smaller_num":"18","larger_num":"20","correct_side":1,"subjID":"julianarinconolarte3","gender":"1","age":"9","school":"4"},{"start_time":1552328448996,"click_time":1552328449767,"finger_time":1552328449426,"fix_duration":467.5177749070497,"trial":65,"RT":430,"MT":341,"sideResp":2,"stimulus":"img/250/equaldotsize/R/9_Ratio_250_L_3_R_12.png","xmouse":[797,797,797,797,797,797,797,797,797,797,797,797,797,797,797,797,797,797,799,807,816,835,842,873,885,893,903,912,921,943,952,967,980,993,1021,1031,1042,1052,1060],"ymouse":[501,501,501,501,501,501,501,501,501,501,501,501,501,501,501,501,501,501,498,485,473,449,441,395,378,359,337,314,289,246,230,210,194,174,132,112,92,76,63],"timestamp_mouse":[10,36,50,70,90,110,130,150,171,190,210,230,251,270,291,311,329,350,371,389,409,430,450,472,490,510,531,550,570,590,610,630,650,669,690,710,730,750,771],"xSR":741.5,"ySR":469.95,"xT1":424.9,"yT1":0,"xT2":1058.1,"yT2":0,"toosoon":0,"cond_shown":"equaldotsize","ratio_trial":250,"smaller_num":"3","larger_num":"12","correct_side":2,"subjID":"julianarinconolarte3","gender":"1","age":"9","school":"4"},{"start_time":1552328451678,"click_time":1552328452386,"finger_time":1552328452127,"fix_duration":1171.285367301142,"trial":66,"RT":449,"MT":259,"sideResp":1,"stimulus":"img/500/equaldotsize/L/7_Ratio_500_L_10_R_5.png","xmouse":[768,768,768,768,768,768,768,768,768,768,768,768,768,768,768,768,768,768,768,767,759,752,741,728,715,690,669,652,637,616,561,533,506,487,477,467],"ymouse":[506,506,506,506,506,506,506,506,506,506,506,506,506,506,506,506,506,506,506,503,490,477,458,435,413,378,355,334,316,288,224,191,161,141,124,97],"timestamp_mouse":[12,28,48,69,88,108,128,148,169,188,208,228,248,267,289,308,328,348,368,388,408,428,449,469,489,508,529,548,569,588,607,628,649,668,689,708],"xSR":741.5,"ySR":469.95,"xT1":424.9,"yT1":0,"xT2":1058.1,"yT2":0,"toosoon":0,"cond_shown":"equaldotsize","ratio_trial":500,"smaller_num":"5","larger_num":"10","correct_side":1,"subjID":"julianarinconolarte3","gender":"1","age":"9","school":"4"},{"start_time":1552328454557,"click_time":1552328455465,"finger_time":1552328455086,"fix_duration":1489.8373715832497,"trial":67,"RT":529,"MT":379,"sideResp":1,"stimulus":"img/500/equaldotsize/L/8_Ratio_500_L_8_R_4.png","xmouse":[812,812,812,812,812,812,812,812,812,812,812,812,812,812,812,812,812,812,812,812,812,812,812,812,812,810,808,806,803,795,782,748,732,706,675,642,608,564,549,536,529,512,509,501,495,490],"ymouse":[485,485,485,485,485,485,485,485,485,485,485,485,485,485,485,485,485,485,485,485,485,483,481,477,473,471,468,466,464,459,450,426,411,384,347,305,265,208,190,177,168,143,132,117,104,90],"timestamp_mouse":[9,29,65,69,89,110,129,149,169,189,209,230,249,268,289,309,328,350,369,388,408,428,448,468,489,508,529,548,570,589,609,630,649,669,688,708,730,749,770,789,808,830,849,868,889,908],"xSR":741.5,"ySR":469.95,"xT1":424.9,"yT1":0,"xT2":1058.1,"yT2":0,"toosoon":0,"cond_shown":"equaldotsize","ratio_trial":500,"smaller_num":"4","larger_num":"8","correct_side":1,"subjID":"julianarinconolarte3","gender":"1","age":"9","school":"4"},{"start_time":1552328457812,"click_time":1552328458686,"finger_time":1552328458305,"fix_duration":1464.5223768861572,"trial":68,"RT":493,"MT":381,"sideResp":1,"stimulus":"img/500/equaldotsize/L/7_Ratio_500_L_10_R_5.png","xmouse":[773,773,773,773,773,773,773,773,773,773,773,773,773,773,773,773,773,773,773,773,773,771,769,764,747,727,702,663,638,598,582,567,554,543,528,523,520,517,516,514,514,514,512,511],"ymouse":[514,514,514,514,514,514,514,514,514,514,514,514,514,514,514,514,514,514,514,514,514,511,507,498,466,437,403,350,322,277,262,248,234,220,198,189,181,173,166,152,141,128,111,90],"timestamp_mouse":[15,35,54,74,93,115,134,154,175,193,214,234,253,275,294,315,334,355,374,394,414,434,455,475,493,514,534,555,574,593,614,634,654,674,694,714,734,754,774,794,815,834,854,874],"xSR":741.5,"ySR":469.95,"xT1":424.9,"yT1":0,"xT2":1058.1,"yT2":0,"toosoon":0,"cond_shown":"equaldotsize","ratio_trial":500,"smaller_num":"5","larger_num":"10","correct_side":1,"subjID":"julianarinconolarte3","gender":"1","age":"9","school":"4"},{"start_time":1552328460072,"click_time":1552328461146,"finger_time":1552328460566,"fix_duration":346.7347449307383,"trial":69,"RT":494,"MT":580,"sideResp":1,"stimulus":"img/250/randomdotsizeEA/L/14_Ratio_250_L_12_R_3.png","xmouse":[792,791,789,789,786,786,785,785,784,784,784,784,784,784,784,784,784,784,784,783,781,773,771,764,753,745,725,716,707,698,691,663,651,633,623,611,586,572,556,545,534,524,511,503,499,494,490,488,488,488,486,485,480,477],"ymouse":[514,514,515,515,516,516,516,516,516,516,516,516,516,516,516,516,516,516,516,516,515,503,498,485,461,442,410,396,384,371,359,319,302,277,262,250,226,216,206,199,192,185,175,171,166,161,156,154,153,150,146,130,107,87],"timestamp_mouse":[21,34,54,75,95,115,134,154,175,195,214,235,254,274,294,315,335,353,374,394,414,434,454,474,494,514,534,554,574,593,614,633,655,673,695,714,734,754,774,794,815,834,854,874,895,914,935,955,975,994,1014,1034,105