[{"start_time":1552312986915,"click_time":1552312997141,"finger_time":1552312986921,"fix_duration":870.7157045527699,"trial":0,"RT":6,"MT":10220,"sideResp":1,"stimulus":[],"xmouse":[786,798,833,840,844,845,844,836,836,836,836,836,836,836,836,836,836,833,826,819,806,803,802,802,802,802,802,802,802,802,802,802,802,802,802,802,802,802,802,802,802,802,802,802,802,802,802,802,802,802,802,802,802,802,802,802,802,802,802,802,802,802,802,802,802,802,802,802,802,802,802,802,802,802,802,802,802,802,802,802,802,802,802,802,802,802,802,802,802,802,802,802,802,802,802,802,802,802,802,802,802,802,802,802,802,802,802,802,802,802,802,802,802,802,802,802,802,802,802,802,802,802,802,802,802,802,802,802,802,802,802,802,802,802,802,802,802,802,802,802,802,802,802,802,802,802,802,802,802,802,802,802,802,802,802,802,802,802,802,802,802,802,802,802,802,802,802,802,802,802,802,802,802,802,802,802,802,802,802,802,802,802,802,802,802,802,802,802,802,802,802,802,802,802,802,802,802,802,802,802,802,802,802,802,802,802,802,802,802,802,802,802,802,802,802,802,802,802,802,802,802,802,802,802,802,802,802,802,802,802,802,802,802,802,802,802,802,802,802,802,802,802,802,802,802,802,802,802,802,802,802,802,802,802,802,802,809,824,833,837,838,838,838,838,838,838,838,838,838,838,838,838,838,838,838,838,838,838,838,838,838,838,838,838,838,838,838,838,838,838,838,838,838,838,838,838,838,838,838,838,838,838,838,838,838,838,833,812,793,772,751,735,721,717,714,710,705,698,697,695,693,690,679,673,664,654,645,627,623,622,622,622,622,622,622,622,631,639,648,661,675,691,729,743,750,758,761,766,767,768,771,771,779,780,780,780,780,780,780,780,780,781,784,787,787,788,788,788,788,789,791,792,794,794,794,794,794,794,794,794,795,796,796,796,797,797,797,797,797,797,796,792,791,790,788,787,785,783,782,781,779,777,773,773,772,771,769,768,768,768,768,768,768,768,768,768,768,768,768,768,768,768,768,768,768,768,768,765,761,756,751,740,736,733,730,725,717,715,712,711,709,707,705,705,704,703,702,698,698,696,694,690,688,688,687,687,685,679,679,679,683,690,715,727,738,747,759,760,760,760,760,760,760,760,761,764,771,781,783,784,785,785,785,785,785,785,785,785,785,785,785,785,785,785,785,785,785,783,768,752,726,666,618,606,578,565,546,535,527,521,517,509],"ymouse":[551,567,589,589,584,574,559,533,529,529,529,529,529,529,529,529,529,528,533,542,555,559,560,561,562,562,563,567,574,585,597,606,609,609,609,609,609,609,609,609,609,609,609,609,609,609,609,609,609,609,609,609,609,609,609,609,609,609,609,609,609,609,609,609,609,609,609,609,609,609,609,609,609,609,609,609,609,609,609,609,609,609,609,609,609,609,609,609,609,609,609,609,609,609,609,609,609,609,609,609,609,609,609,609,609,609,609,609,609,609,609,609,609,609,609,609,609,609,609,609,609,609,609,609,609,609,609,609,609,609,609,609,609,609,609,609,609,609,609,609,609,609,609,609,609,609,609,609,609,609,609,609,609,609,609,609,609,609,609,609,609,609,609,609,609,609,609,609,609,609,609,609,609,609,609,609,609,609,609,609,609,609,609,609,609,609,609,609,609,609,609,609,609,609,609,609,609,609,609,609,609,609,609,609,609,609,609,609,609,609,609,609,609,609,609,609,609,609,609,609,609,609,609,609,609,609,609,609,609,609,609,609,609,609,609,609,609,609,609,609,609,609,609,609,609,609,609,609,609,609,609,609,609,609,609,609,609,611,614,615,615,615,615,615,615,615,615,615,615,615,615,615,615,615,615,615,615,615,615,615,615,615,615,615,615,615,615,615,615,615,615,615,615,615,615,615,615,615,615,615,615,615,615,615,615,616,619,623,626,629,634,637,637,637,636,636,636,638,639,642,646,655,691,713,734,755,771,791,795,797,797,797,797,797,797,795,783,769,754,736,719,700,666,659,652,649,647,644,644,643,641,640,636,635,635,635,635,635,635,635,635,634,631,628,628,627,627,627,625,622,617,610,600,599,599,599,599,599,598,597,593,586,581,578,577,576,576,576,574,572,567,554,549,542,536,531,525,516,512,508,502,494,480,477,472,465,457,454,453,453,452,452,450,448,446,444,438,435,430,426,422,415,405,400,392,383,373,350,340,329,318,292,281,271,262,252,238,235,231,231,230,229,229,229,228,226,225,224,224,224,224,229,233,237,241,247,254,279,299,323,347,378,456,485,510,531,556,558,558,558,558,558,558,560,567,574,587,603,606,607,607,607,607,609,610,610,610,610,610,610,610,610,610,610,610,610,610,599,548,483,394,186,44,15,0,0,0,0,0,0,0,3],"timestamp_mouse":[6,24,44,64,85,104,124,145,165,184,205,225,245,264,284,304,325,345,365,384,404,425,444,464,485,505,525,544,565,585,605,624,644,665,685,705,725,744,764,784,805,824,845,864,885,905,925,944,965,984,1004,1024,1044,1064,1084,1105,1124,1144,1164,1185,1205,1224,1244,1264,1284,1305,1324,1344,1364,1385,1404,1425,1444,1464,1484,1504,1524,1545,1564,1584,1604,1624,1645,1664,1684,1704,1724,1744,1764,1785,1805,1825,1844,1864,1885,1905,1925,1944,1964,1984,2005,2024,2045,2065,2085,2104,2125,2145,2165,2184,2205,2225,2245,2265,2285,2305,2324,2345,2366,2384,2405,2424,2445,2464,2484,2505,2524,2544,2564,2584,2605,2625,2645,2664,2685,2705,2724,2744,2764,2785,2805,2825,2844,2864,2885,2904,2925,2944,2964,2985,3004,3024,3045,3065,3084,3105,3125,3144,3164,3184,3205,3225,3245,3264,3285,3304,3324,3344,3364,3384,3405,3425,3445,3464,3484,3505,3524,3544,3565,3584,3604,3625,3645,3664,3684,3704,3724,3745,3765,3785,3804,3824,3845,3864,3885,3904,3925,3945,3964,3985,4005,4024,4044,4065,4085,4104,4125,4144,4165,4184,4204,4224,4246,4265,4284,4304,4324,4345,4365,4384,4404,4425,4445,4464,4484,4504,4524,4545,4564,4584,4605,4625,4644,4664,4684,4704,4725,4744,4764,4785,4804,4824,4844,4864,4884,4904,4924,4944,4965,4986,5004,5024,5044,5064,5084,5104,5124,5144,5165,5185,5204,5224,5244,5264,5285,5304,5324,5345,5364,5384,5404,5424,5444,5464,5484,5505,5525,5544,5564,5585,5604,5625,5644,5664,5684,5704,5724,5744,5765,5785,5804,5824,5844,5864,5885,5904,5924,5944,5965,5985,6006,6025,6045,6064,6084,6104,6124,6145,6164,6185,6204,6224,6244,6265,6285,6304,6325,6345,6365,6384,6404,6424,6444,6464,6484,6504,6524,6544,6564,6584,6604,6624,6644,6664,6684,6704,6725,6744,6764,6784,6804,6825,6844,6864,6885,6904,6925,6944,6965,6984,7004,7025,7044,7065,7084,7104,7124,7144,7165,7184,7205,7224,7244,7264,7285,7305,7324,7345,7365,7385,7404,7424,7445,7464,7485,7504,7524,7544,7565,7584,7605,7625,7645,7664,7685,7704,7724,7744,7764,7784,7804,7825,7845,7864,7885,7904,7926,7944,7964,7984,8005,8024,8044,8064,8084,8105,8125,8144,8165,8184,8204,8224,8244,8264,8285,8304,8325,8344,8364,8385,8405,8425,8445,8465,8485,8504,8524,8544,8565,8585,8604,8625,8644,8665,8684,8704,8725,8744,8765,8784,8804,8824,8845,8864,8885,8904,8925,8944,8965,8984,9005,9025,9044,9065,9085,9104,9124,9144,9164,9185,9205,9224,9245,9265,9285,9305,9325,9344,9365,9385,9404,9425,9444,9464,9484,9504,9524,9544,9565,9584,9605,9625,9645,9664,9685,9705,9725,9745,9765,9784,9805,9825,9845,9865,9885,9905,9925,9944,9965,9985,10005,10025,10044,10065,10084,10104,10126,10145,10164,10184,10204,10225],"xSR":741.5,"ySR":500.5,"xT1":424.9,"yT1":0,"xT2":1058.1,"yT2":0,"toosoon":0,"cond_shown":"Incongruent","ratio_trial":200,"L_num":4,"L_den":30,"R_num":1,"R_den":3,"correct_side":2,"subjID":"Miguel Angel Castro Herrera No 11","gender":"0","age":"9","school":"4","test":{"fix_dur":[250,1500],"timestim":1000,"targets_dim":[100,100],"targets_relative_coord":[0.3,0.7],"size_stim":[880,420],"start_dim":[100,100],"size_start":[300,300],"size_fix":60,"samplingrate":20,"img_types":["Congruent","Incongruent"],"ratios":[100,200,300],"rep_conds":19,"nTrials":120,"trials_to_rest":500,"Trials_order":[99,67,101,4,52,9,115,43,18,31,24,97,60,72,61,10,73,88,114,20,83,16,102,100,98,38,59,32,75,51,45,19,111,85,105,71,14,22,110,23,81,0,46,112,89,103,108,21,95,106,1,33,35,55,74,96,7,47,104,17,37,25,29,49,116,34,13,62,42,119,3,2,56,66,93,87,54,44,76,27,90,65,57,63,107,109,79,39,15,58,78,117,86,82,118,70,30,68,41,91,28,92,113,64,50,80,11,77,12,26,84,5,8,53,40,48,94,6,36,69],"cond_shown":["Incongruent","Incongruent","Incongruent","Congruent","Congruent","Incongruent","Incongruent","Incongruent","Congruent","Incongruent","Congruent","Incongruent","Congruent","Congruent","Incongruent","Congruent","Incongruent","Congruent","Congruent","Congruent","Incongruent","Congruent","Congruent","Congruent","Congruent","Congruent","Incongruent","Congruent","Incongruent","Incongruent","Incongruent","Incongruent","Incongruent","Incongruent","Incongruent","Incongruent","Congruent","Congruent","Congruent","Incongruent","Incongruent","Congruent","Congruent","Congruent","Incongruent","Incongruent","Congruent","Incongruent","Incongruent","Congruent","Incongruent","Incongruent","Incongruent","Incongruent","Congruent","Congruent","Incongruent","Incongruent","Congruent","Incongruent","Incongruent","Incongruent","Incongruent","Incongruent","Congruent","Congruent","Incongruent","Congruent","Congruent","Incongruent","Incongruent","Congruent","Congruent","Congruent","Incongruent","Incongruent","Congruent","Congruent","Congruent","Incongruent","Congruent","Incongruent","Incongruent","Incongruent","Incongruent","Incongruent","Incongruent","Incongruent","Incongruent","Congruent","Congruent","Incongruent","Congruent","Congruent","Congruent","Congruent","Congruent","Congruent","Incongruent","Incongruent","Congruent","Congruent","Incongruent","Congruent","Congruent","Congruent","Incongruent","Incongruent","Congruent","Congruent","Congruent","Incongruent","Congruent","Incongruent","Congruent","Congruent","Congruent","Congruent","Congruent","Incongruent"],"ratio_trial":[200,100,300,300,300,200,100,100,100,100,100,100,100,100,100,300,100,300,100,200,300,300,100,300,200,200,300,200,200,200,200,100,200,100,200,300,200,300,200,300,200,100,300,300,300,100,100,200,300,300,100,200,300,100,200,100,100,300,200,300,100,100,300,100,200,300,100,200,100,300,200,200,200,100,200,200,100,200,300,200,100,300,200,200,300,100,100,200,200,300,100,200,200,300,300,300,100,200,300,100,300,200,300,300,200,200,300,300,100,200,100,300,200,300,300,100,300,100,100,200],"left_num":[4,12,4,8,5,6,9,6,3,13,12,13,1,2,13,3,10,12,3,5,2,3,15,7,21,4,8,3,9,7,7,6,7,9,14,8,20,3,3,4,4,2,11,3,4,11,3,1,4,20,2,11,4,9,16,7,10,8,5,8,6,9,4,13,8,1,8,3,9,7,3,6,4,7,14,4,4,12,8,1,7,4,1,4,7,9,9,4,3,11,9,14,16,3,2,1,10,5,13,3,24,3,4,4,5,3,13,13,4,3,3,4,21,8,20,8,8,11,3,4],"right_num":[1,2,8,1,6,3,13,13,2,6,13,12,18,6,12,4,8,2,2,14,6,2,13,20,2,3,14,14,8,12,8,13,14,14,6,9,9,11,14,2,1,11,2,2,6,9,2,2,2,5,8,3,6,6,12,15,8,14,14,14,13,6,2,6,3,8,6,14,8,8,1,7,3,9,12,14,15,6,10,3,9,2,3,6,8,20,13,14,11,4,8,12,12,11,10,7,3,14,12,7,2,11,8,1,14,9,12,12,15,7,2,2,2,9,8,2,1,4,4,6],"left_den":[30,30,5,16,25,20,15,10,6,26,30,26,2,5,26,6,25,24,6,10,4,6,25,14,30,8,10,6,15,10,10,10,10,15,30,10,25,12,10,20,30,5,22,6,5,22,6,3,20,25,4,20,5,18,20,14,25,10,10,10,10,18,20,26,15,30,16,6,15,10,10,12,8,14,30,6,10,15,15,2,14,20,2,5,10,10,15,6,4,22,15,30,20,12,20,20,25,10,26,9,30,10,5,10,10,12,26,26,10,10,6,20,30,10,25,16,16,22,20,5],"right_den":[3,4,16,5,12,6,26,26,5,10,26,20,30,12,20,5,16,10,5,20,30,10,26,25,4,10,28,20,10,24,16,26,28,28,9,18,15,20,28,4,3,22,10,10,12,15,5,15,4,10,20,4,12,10,20,25,16,28,20,28,26,10,4,10,9,24,10,20,16,20,2,10,10,15,18,30,30,10,12,10,15,4,10,10,20,25,26,30,20,20,16,18,20,20,25,20,10,20,15,30,4,22,16,10,20,20,15,15,30,14,5,4,4,18,16,5,5,10,16,10],"correct_side":[2,2,1,1,2,2,1,1,1,2,2,2,2,2,2,2,2,1,1,2,1,1,1,2,1,1,1,2,2,1,1,1,1,1,2,1,1,2,2,2,2,2,1,1,1,2,1,1,2,1,1,2,1,2,1,2,2,1,2,1,1,2,2,2,1,2,2,2,1,1,2,2,1,2,2,1,2,1,2,1,2,2,1,1,1,1,1,1,1,1,1,2,1,2,2,2,1,2,2,1,1,2,1,1,2,2,2,2,2,2,1,2,1,1,1,1,1,1,2,1],"img_shown":["img2/200/Incongruent/R/I_Dist_200_LN_4_LD_30_RN_1_RD_3_1.png","img2/100/Incongruent/R/I_Dist_100_LN_12_LD_30_RN_2_RD_4_1.png","img2/300/Incongruent/L/I_Dist_300_LN_4_LD_5_RN_8_RD_16_0.png","img2/300/Congruent/L/C_Dist_300_LN_8_LD_16_RN_1_RD_5_0.png","img2/300/Congruent/R/C_Dist_300_LN_5_LD_25_RN_6_RD_12_1.png","img2/200/Incongruent/R/I_Dist_200_LN_6_LD_20_RN_3_RD_6_1.png","img2/100/Incongruent/L/I_Dist_100_LN_9_LD_15_RN_13_RD_26_0.png","img2/100/Incongruent/L/I_Dist_100_LN_6_LD_10_RN_13_RD_26_0.png","img2/100/Congruent/L/C_Dist_100_LN_3_LD_6_RN_2_RD_5_0.png","img2/100/Incongruent/R/I_Dist_100_LN_13_LD_26_RN_6_RD_10_1.png","img2/100/Congruent/R/C_Dist_100_LN_12_LD_30_RN_13_RD_26_1.png","img2/100/Incongruent/R/I_Dist_100_LN_13_LD_26_RN_12_RD_20_1.png","img2/100/Congruent/R/C_Dist_100_LN_1_LD_2_RN_18_RD_30_1.png","img2/100/Congruent/R/C_Dist_100_LN_2_LD_5_RN_6_RD_12_1.png","img2/100/Incongruent/R/I_Dist_100_LN_13_LD_26_RN_12_RD_20_1.png","img2/300/Congruent/R/C_Dist_300_LN_3_LD_6_RN_4_RD_5_1.png","img2/100/Incongruent/R/I_Dist_100_LN_10_LD_25_RN_8_RD_16_1.png","img2/300/Congruent/L/C_Dist_300_LN_12_LD_24_RN_2_RD_10_0.png","img2/100/Congruent/L/C_Dist_100_LN_3_LD_6_RN_2_RD_5_0.png","img2/200/Congruent/R/C_Dist_200_LN_5_LD_10_RN_14_RD_20_1.png","img2/300/Incongruent/L/I_Dist_300_LN_2_LD_4_RN_6_RD_30_0.png","img2/300/Congruent/L/C_Dist_300_LN_3_LD_6_RN_2_RD_10_0.png","img2/100/Congruent/L/C_Dist_100_LN_15_LD_25_RN_13_RD_26_0.png","img2/300/Congruent/R/C_Dist_300_LN_7_LD_14_RN_20_RD_25_1.png","img2/200/Congruent/L/C_Dist_200_LN_21_LD_30_RN_2_RD_4_0.png","img2/200/Congruent/L/C_Dist_200_LN_4_LD_8_RN_3_RD_10_0.png","img2/300/Incongruent/L/I_Dist_300_LN_8_LD_10_RN_14_RD_28_0.png","img2/200/Congruent/R/C_Dist_200_LN_3_LD_6_RN_14_RD_20_1.png","img2/200/Incongruent/R/I_Dist_200_LN_9_LD_15_RN_8_RD_10_1.png","img2/200/Incongruent/L/I_Dist_200_LN_7_LD_10_RN_12_RD_24_0.png","img2/200/Incongruent/L/I_Dist_200_LN_7_LD_10_RN_8_RD_16_0.png","img2/100/Incongruent/L/I_Dist_100_LN_6_LD_10_RN_13_RD_26_0.png","img2/200/Incongruent/L/I_Dist_200_LN_7_LD_10_RN_14_RD_28_0.png","img2/100/Incongruent/L/I_Dist_100_LN_9_LD_15_RN_14_RD_28_0.png","img2/200/Incongruent/R/I_Dist_200_LN_14_LD_30_RN_6_RD_9_1.png","img2/300/Incongruent/L/I_Dist_300_LN_8_LD_10_RN_9_RD_18_0.png","img2/200/Congruent/L/C_Dist_200_LN_20_LD_25_RN_9_RD_15_0.png","img2/300/Congruent/R/C_Dist_300_LN_3_LD_12_RN_11_RD_20_1.png","img2/200/Congruent/R/C_Dist_200_LN_3_LD_10_RN_14_RD_28_1.png","img2/300/Incongruent/R/I_Dist_300_LN_4_LD_20_RN_2_RD_4_1.png","img2/200/Incongruent/R/I_Dist_200_LN_4_LD_30_RN_1_RD_3_1.png","img2/100/Congruent/R/C_Dist_100_LN_2_LD_5_RN_11_RD_22_1.png","img2/300/Congruent/L/C_Dist_300_LN_11_LD_22_RN_2_RD_10_0.png","img2/300/Congruent/L/C_Dist_300_LN_3_LD_6_RN_2_RD_10_0.png","img2/300/Incongruent/L/I_Dist_300_LN_4_LD_5_RN_6_RD_12_0.png","img2/100/Incongruent/R/I_Dist_100_LN_11_LD_22_RN_9_RD_15_1.png","img2/100/Congruent/L/C_Dist_100_LN_3_LD_6_RN_2_RD_5_0.png","img2/200/Incongruent/L/I_Dist_200_LN_1_LD_3_RN_2_RD_15_0.png","img2/300/Incongruent/R/I_Dist_300_LN_4_LD_20_RN_2_RD_4_1.png","img2/300/Congruent/L/C_Dist_300_LN_20_LD_25_RN_5_RD_10_0.png","img2/100/Incongruent/L/I_Dist_100_LN_2_LD_4_RN_8_RD_20_0.png","img2/200/Incongruent/R/I_Dist_200_LN_11_LD_20_RN_3_RD_4_1.png","img2/300/Incongruent/L/I_Dist_300_LN_4_LD_5_RN_6_RD_12_0.png","img2/100/Incongruent/R/I_Dist_100_LN_9_LD_18_RN_6_RD_10_1.png","img2/200/Congruent/L/C_Dist_200_LN_16_LD_20_RN_12_RD_20_0.png","img2/100/Congruent/R/C_Dist_100_LN_7_LD_14_RN_15_RD_25_1.png","img2/100/Incongruent/R/I_Dist_100_LN_10_LD_25_RN_8_RD_16_1.png","img2/300/Incongruent/L/I_Dist_300_LN_8_LD_10_RN_14_RD_28_0.png","img2/200/Congruent/R/C_Dist_200_LN_5_LD_10_RN_14_RD_20_1.png","img2/300/Incongruent/L/I_Dist_300_LN_8_LD_10_RN_14_RD_28_0.png","img2/100/Incongruent/L/I_Dist_100_LN_6_LD_10_RN_13_RD_26_0.png","img2/100/Incongruent/R/I_Dist_100_LN_9_LD_18_RN_6_RD_10_1.png","img2/300/Incongruent/R/I_Dist_300_LN_4_LD_20_RN_2_RD_4_1.png","img2/100/Incongruent/R/I_Dist_100_LN_13_LD_26_RN_6_RD_10_1.png","img2/200/Congruent/L/C_Dist_200_LN_8_LD_15_RN_3_RD_9_0.png","img2/300/Congruent/R/C_Dist_300_LN_1_LD_30_RN_8_RD_24_1.png","img2/100/Incongruent/R/I_Dist_100_LN_8_LD_16_RN_6_RD_10_1.png","img2/200/Congruent/R/C_Dist_200_LN_3_LD_6_RN_14_RD_20_1.png","img2/100/Congruent/L/C_Dist_100_LN_9_LD_15_RN_8_RD_16_0.png","img2/300/Incongruent/L/I_Dist_300_LN_7_LD_10_RN_8_RD_20_0.png","img2/200/Incongruent/R/I_Dist_200_LN_3_LD_10_RN_1_RD_2_1.png","img2/200/Congruent/R/C_Dist_200_LN_6_LD_12_RN_7_RD_10_1.png","img2/200/Congruent/L/C_Dist_200_LN_4_LD_8_RN_3_RD_10_0.png","img2/100/Congruent/R/C_Dist_100_LN_7_LD_14_RN_9_RD_15_1.png","img2/200/Incongruent/R/I_Dist_200_LN_14_LD_30_RN_12_RD_18_1.png","img2/200/Incongruent/L/I_Dist_200_LN_4_LD_6_RN_14_RD_30_0.png","img2/100/Congruent/R/C_Dist_100_LN_4_LD_10_RN_15_RD_30_1.png","img2/200/Congruent/L/C_Dist_200_LN_12_LD_15_RN_6_RD_10_0.png","img2/300/Congruent/R/C_Dist_300_LN_8_LD_15_RN_10_RD_12_1.png","img2/200/Incongruent/L/I_Dist_200_LN_1_LD_2_RN_3_RD_10_0.png","img2/100/Congruent/R/C_Dist_100_LN_7_LD_14_RN_9_RD_15_1.png","img2/300/Incongruent/R/I_Dist_300_LN_4_LD_20_RN_2_RD_4_1.png","img2/200/Incongruent/L/I_Dist_200_LN_1_LD_2_RN_3_RD_10_0.png","img2/200/Incongruent/L/I_Dist_200_LN_4_LD_5_RN_6_RD_10_0.png","img2/300/Incongruent/L/I_Dist_300_LN_7_LD_10_RN_8_RD_20_0.png","img2/100/Incongruent/L/I_Dist_100_LN_9_LD_10_RN_20_RD_25_0.png","img2/100/Incongruent/L/I_Dist_100_LN_9_LD_15_RN_13_RD_26_0.png","img2/200/Incongruent/L/I_Dist_200_LN_4_LD_6_RN_14_RD_30_0.png","img2/200/Incongruent/L/I_Dist_200_LN_3_LD_4_RN_11_RD_20_0.png","img2/300/Congruent/L/C_Dist_300_LN_11_LD_22_RN_4_RD_20_0.png","img2/100/Congruent/L/C_Dist_100_LN_9_LD_15_RN_8_RD_16_0.png","img2/200/Incongruent/R/I_Dist_200_LN_14_LD_30_RN_12_RD_18_1.png","img2/200/Congruent/L/C_Dist_200_LN_16_LD_20_RN_12_RD_20_0.png","img2/300/Congruent/R/C_Dist_300_LN_3_LD_12_RN_11_RD_20_1.png","img2/300/Congruent/R/C_Dist_300_LN_2_LD_20_RN_10_RD_25_1.png","img2/300/Congruent/R/C_Dist_300_LN_1_LD_20_RN_7_RD_20_1.png","img2/100/Congruent/L/C_Dist_100_LN_10_LD_25_RN_3_RD_10_0.png","img2/200/Congruent/R/C_Dist_200_LN_5_LD_10_RN_14_RD_20_1.png","img2/300/Incongruent/R/I_Dist_300_LN_13_LD_26_RN_12_RD_15_1.png","img2/100/Incongruent/L/I_Dist_100_LN_3_LD_9_RN_7_RD_30_0.png","img2/300/Congruent/L/C_Dist_300_LN_24_LD_30_RN_2_RD_4_0.png","img2/200/Congruent/R/C_Dist_200_LN_3_LD_10_RN_11_RD_22_1.png","img2/300/Incongruent/L/I_Dist_300_LN_4_LD_5_RN_8_RD_16_0.png","img2/300/Congruent/L/C_Dist_300_LN_4_LD_10_RN_1_RD_10_0.png","img2/200/Congruent/R/C_Dist_200_LN_5_LD_10_RN_14_RD_20_1.png","img2/200/Congruent/R/C_Dist_200_LN_3_LD_12_RN_9_RD_20_1.png","img2/300/Incongruent/R/I_Dist_300_LN_13_LD_26_RN_12_RD_15_1.png","img2/300/Incongruent/R/I_Dist_300_LN_13_LD_26_RN_12_RD_15_1.png","img2/100/Congruent/R/C_Dist_100_LN_4_LD_10_RN_15_RD_30_1.png","img2/200/Congruent/R/C_Dist_200_LN_3_LD_10_RN_7_RD_14_1.png","img2/100/Congruent/L/C_Dist_100_LN_3_LD_6_RN_2_RD_5_0.png","img2/300/Incongruent/R/I_Dist_300_LN_4_LD_20_RN_2_RD_4_1.png","img2/200/Congruent/L/C_Dist_200_LN_21_LD_30_RN_2_RD_4_0.png","img2/300/Incongruent/L/I_Dist_300_LN_8_LD_10_RN_9_RD_18_0.png","img2/300/Congruent/L/C_Dist_300_LN_20_LD_25_RN_8_RD_16_0.png","img2/100/Congruent/L/C_Dist_100_LN_8_LD_16_RN_2_RD_5_0.png","img2/300/Congruent/L/C_Dist_300_LN_8_LD_16_RN_1_RD_5_0.png","img2/100/Congruent/L/C_Dist_100_LN_11_LD_22_RN_4_RD_10_0.png","img2/100/Congruent/R/C_Dist_100_LN_3_LD_20_RN_4_RD_16_1.png","img2/200/Incongruent/L/I_Dist_200_LN_4_LD_5_RN_6_RD_10_0.png"],"dist100_C":[["C_Dist_100_LN_10_LD_25_RN_3_RD_10_0.png","C_Dist_100_LN_11_LD_22_RN_4_RD_10_0.png","C_Dist_100_LN_11_LD_22_RN_6_RD_15_0.png","C_Dist_100_LN_15_LD_25_RN_13_RD_26_0.png","C_Dist_100_LN_3_LD_6_RN_2_RD_5_0.png","C_Dist_100_LN_6_LD_20_RN_5_RD_25_0.png","C_Dist_100_LN_8_LD_16_RN_2_RD_5_0.png","C_Dist_100_LN_9_LD_15_RN_8_RD_16_0.png"],["C_Dist_100_LN_1_LD_2_RN_18_RD_30_1.png","C_Dist_100_LN_1_LD_2_RN_3_RD_5_1.png","C_Dist_100_LN_12_LD_30_RN_13_RD_26_1.png","C_Dist_100_LN_2_LD_5_RN_11_RD_22_1.png","C_Dist_100_LN_2_LD_5_RN_6_RD_12_1.png","C_Dist_100_LN_3_LD_20_RN_4_RD_16_1.png","C_Dist_100_LN_4_LD_10_RN_15_RD_30_1.png","C_Dist_100_LN_4_LD_8_RN_6_RD_10_1.png","C_Dist_100_LN_6_LD_12_RN_15_RD_25_1.png","C_Dist_100_LN_7_LD_14_RN_15_RD_25_1.png","C_Dist_100_LN_7_LD_14_RN_9_RD_15_1.png"]],"dist100_I":[["I_Dist_100_LN_1_LD_2_RN_8_RD_20_0.png","I_Dist_100_LN_2_LD_4_RN_6_RD_15_0.png","I_Dist_100_LN_2_LD_4_RN_8_RD_20_0.png","I_Dist_100_LN_3_LD_5_RN_11_RD_22_0.png","I_Dist_100_LN_3_LD_5_RN_8_RD_16_0.png","I_Dist_100_LN_3_LD_6_RN_4_RD_10_0.png","I_Dist_100_LN_3_LD_9_RN_7_RD_30_0.png","I_Dist_100_LN_4_LD_8_RN_8_RD_20_0.png","I_Dist_100_LN_6_LD_10_RN_11_RD_22_0.png","I_Dist_100_LN_6_LD_10_RN_13_RD_26_0.png","I_Dist_100_LN_6_LD_10_RN_7_RD_14_0.png","I_Dist_100_LN_9_LD_10_RN_20_RD_25_0.png","I_Dist_100_LN_9_LD_15_RN_13_RD_26_0.png","I_Dist_100_LN_9_LD_15_RN_14_RD_28_0.png"],["I_Dist_100_LN_10_LD_25_RN_8_RD_16_1.png","I_Dist_100_LN_10_LD_25_RN_9_RD_18_1.png","I_Dist_100_LN_11_LD_22_RN_9_RD_15_1.png","I_Dist_100_LN_12_LD_24_RN_9_RD_15_1.png","I_Dist_100_LN_12_LD_30_RN_2_RD_4_1.png","I_Dist_100_LN_13_LD_26_RN_12_RD_20_1.png","I_Dist_100_LN_13_LD_26_RN_6_RD_10_1.png","I_Dist_100_LN_17_LD_30_RN_10_RD_15_1.png","I_Dist_100_LN_6_LD_12_RN_3_RD_5_1.png","I_Dist_100_LN_8_LD_16_RN_6_RD_10_1.png","I_Dist_100_LN_8_LD_20_RN_1_RD_2_1.png","I_Dist_100_LN_9_LD_18_RN_6_RD_10_1.png"]],"dist100_S":[["E_Dist_100_LN_2_LD_12_RN_2_RD_30_0.png","E_Dist_100_LN_6_LD_10_RN_6_RD_12_0.png"],["E_Dist_100_LN_6_LD_12_RN_6_RD_10_1.png"]],"dist200_C":[["C_Dist_200_LN_11_LD_22_RN_3_RD_10_0.png","C_Dist_200_LN_12_LD_15_RN_6_RD_10_0.png","C_Dist_200_LN_12_LD_20_RN_6_RD_15_0.png","C_Dist_200_LN_14_LD_28_RN_6_RD_20_0.png","C_Dist_200_LN_15_LD_25_RN_4_RD_10_0.png","C_Dist_200_LN_16_LD_20_RN_12_RD_20_0.png","C_Dist_200_LN_16_LD_30_RN_9_RD_27_0.png","C_Dist_200_LN_20_LD_25_RN_9_RD_15_0.png","C_Dist_200_LN_21_LD_30_RN_2_RD_4_0.png","C_Dist_200_LN_4_LD_10_RN_3_RD_15_0.png","C_Dist_200_LN_4_LD_8_RN_3_RD_10_0.png","C_Dist_200_LN_6_LD_15_RN_3_RD_15_0.png","C_Dist_200_LN_7_LD_21_RN_2_RD_15_0.png","C_Dist_200_LN_8_LD_15_RN_2_RD_6_0.png","C_Dist_200_LN_8_LD_15_RN_3_RD_9_0.png","C_Dist_200_LN_8_LD_15_RN_7_RD_21_0.png","C_Dist_200_LN_9_LD_20_RN_4_RD_16_0.png"],["C_Dist_200_LN_1_LD_2_RN_21_RD_30_1.png","C_Dist_200_LN_13_LD_26_RN_14_RD_20_1.png","C_Dist_200_LN_3_LD_10_RN_11_RD_22_1.png","C_Dist_200_LN_3_LD_10_RN_14_RD_28_1.png","C_Dist_200_LN_3_LD_10_RN_7_RD_14_1.png","C_Dist_200_LN_3_LD_12_RN_9_RD_20_1.png","C_Dist_200_LN_3_LD_6_RN_14_RD_20_1.png","C_Dist_200_LN_5_LD_10_RN_14_RD_20_1.png","C_Dist_200_LN_6_LD_12_RN_7_RD_10_1.png","C_Dist_200_LN_6_LD_20_RN_11_RD_22_1.png","C_Dist_200_LN_7_LD_15_RN_18_RD_27_1.png","C_Dist_200_LN_9_LD_30_RN_13_RD_26_1.png"]],"dist200_I":[["I_Dist_200_LN_1_LD_2_RN_3_RD_10_0.png","I_Dist_200_LN_1_LD_3_RN_2_RD_15_0.png","I_Dist_200_LN_3_LD_4_RN_11_RD_20_0.png","I_Dist_200_LN_4_LD_5_RN_6_RD_10_0.png","I_Dist_200_LN_4_LD_6_RN_14_RD_30_0.png","I_Dist_200_LN_7_LD_10_RN_12_RD_24_0.png","I_Dist_200_LN_7_LD_10_RN_14_RD_28_0.png","I_Dist_200_LN_7_LD_10_RN_8_RD_16_0.png"],["I_Dist_200_LN_11_LD_20_RN_3_RD_4_1.png","I_Dist_200_LN_14_LD_30_RN_12_RD_18_1.png","I_Dist_200_LN_14_LD_30_RN_6_RD_9_1.png","I_Dist_200_LN_3_LD_10_RN_1_RD_2_1.png","I_Dist_200_LN_4_LD_30_RN_1_RD_3_1.png","I_Dist_200_LN_6_LD_20_RN_3_RD_6_1.png","I_Dist_200_LN_7_LD_15_RN_4_RD_6_1.png","I_Dist_200_LN_7_LD_15_RN_6_RD_9_1.png","I_Dist_200_LN_9_LD_15_RN_8_RD_10_1.png"]],"dist200_S":[["E_Dist_200_LN_3_LD_6_RN_3_RD_10_0.png"],["E_Dist_200_LN_3_LD_10_RN_3_RD_6_1.png"]],"dist300_C":[["C_Dist_300_LN_11_LD_22_RN_1_RD_5_0.png","C_Dist_300_LN_11_LD_22_RN_2_RD_10_0.png","C_Dist_300_LN_11_LD_22_RN_4_RD_20_0.png","C_Dist_300_LN_12_LD_24_RN_2_RD_10_0.png","C_Dist_300_LN_18_LD_20_RN_9_RD_15_0.png","C_Dist_300_LN_20_LD_25_RN_13_RD_26_0.png","C_Dist_300_LN_20_LD_25_RN_14_RD_28_0.png","C_Dist_300_LN_20_LD_25_RN_5_RD_10_0.png","C_Dist_300_LN_20_LD_25_RN_8_RD_16_0.png","C_Dist_300_LN_20_LD_25_RN_9_RD_18_0.png","C_Dist_300_LN_24_LD_30_RN_2_RD_4_0.png","C_Dist_300_LN_24_LD_30_RN_8_RD_16_0.png","C_Dist_300_LN_3_LD_6_RN_2_RD_10_0.png","C_Dist_300_LN_4_LD_10_RN_1_RD_10_0.png","C_Dist_300_LN_4_LD_5_RN_2_RD_4_0.png","C_Dist_300_LN_8_LD_16_RN_1_RD_5_0.png","C_Dist_300_LN_9_LD_10_RN_3_RD_5_0.png"],["C_Dist_300_LN_1_LD_20_RN_7_RD_20_1.png","C_Dist_300_LN_1_LD_3_RN_19_RD_30_1.png","C_Dist_300_LN_1_LD_30_RN_8_RD_24_1.png","C_Dist_300_LN_1_LD_5_RN_11_RD_22_1.png","C_Dist_300_LN_1_LD_5_RN_3_RD_6_1.png","C_Dist_300_LN_1_LD_5_RN_6_RD_12_1.png","C_Dist_300_LN_2_LD_10_RN_12_RD_24_1.png","C_Dist_300_LN_2_LD_20_RN_10_RD_25_1.png","C_Dist_300_LN_3_LD_12_RN_11_RD_20_1.png","C_Dist_300_LN_3_LD_6_RN_4_RD_5_1.png","C_Dist_300_LN_4_LD_20_RN_13_RD_26_1.png","C_Dist_300_LN_5_LD_25_RN_6_RD_12_1.png","C_Dist_300_LN_5_LD_25_RN_7_RD_14_1.png","C_Dist_300_LN_7_LD_14_RN_20_RD_25_1.png","C_Dist_300_LN_8_LD_15_RN_10_RD_12_1.png"]],"dist300_I":[["I_Dist_300_LN_1_LD_2_RN_2_RD_10_0.png","I_Dist_300_LN_1_LD_2_RN_3_RD_15_0.png","I_Dist_300_LN_2_LD_4_RN_6_RD_30_0.png","I_Dist_300_LN_3_LD_6_RN_4_RD_20_0.png","I_Dist_300_LN_4_LD_5_RN_6_RD_12_0.png","I_Dist_300_LN_4_LD_5_RN_8_RD_16_0.png","I_Dist_300_LN_7_LD_10_RN_8_RD_20_0.png","I_Dist_300_LN_8_LD_10_RN_14_RD_28_0.png","I_Dist_300_LN_8_LD_10_RN_9_RD_18_0.png"],["I_Dist_300_LN_13_LD_26_RN_12_RD_15_1.png","I_Dist_300_LN_4_LD_20_RN_2_RD_4_1.png"]],"dist300_S":[["E_Dist_300_LN_9_LD_12_RN_9_RD_20_0.png"],["E_Dist_300_LN_18_LD_30_RN_18_RD_20_1.png","E_Dist_300_LN_3_LD_10_RN_3_RD_5_1.png","E_Dist_300_LN_9_LD_20_RN_9_RD_12_1.png"]],"dist500_C":[["C_Dist_500_LN_10_LD_13_RN_7_RD_26_0.png","C_Dist_500_LN_10_LD_15_RN_4_RD_24_0.png","C_Dist_500_LN_12_LD_16_RN_3_RD_12_0.png","C_Dist_500_LN_12_LD_18_RN_4_RD_24_0.png","C_Dist_500_LN_15_LD_18_RN_5_RD_15_0.png","C_Dist_500_LN_15_LD_20_RN_1_RD_4_0.png","C_Dist_500_LN_18_LD_27_RN_1_RD_6_0.png","C_Dist_500_LN_20_LD_24_RN_1_RD_3_0.png","C_Dist_500_LN_20_LD_24_RN_3_RD_9_0.png","C_Dist_500_LN_20_LD_24_RN_7_RD_21_0.png","C_Dist_500_LN_20_LD_28_RN_3_RD_14_0.png","C_Dist_500_LN_21_LD_28_RN_6_RD_24_0.png","C_Dist_500_LN_22_LD_28_RN_2_RD_7_0.png","C_Dist_500_LN_25_LD_30_RN_9_RD_27_0.png","C_Dist_500_LN_4_LD_6_RN_1_RD_6_0.png","C_Dist_500_LN_5_LD_6_RN_2_RD_6_0.png","C_Dist_500_LN_6_LD_9_RN_1_RD_6_0.png","C_Dist_500_LN_7_LD_10_RN_1_RD_5_0.png","C_Dist_500_LN_8_LD_12_RN_1_RD_6_0.png","C_Dist_500_LN_8_LD_12_RN_4_RD_24_0.png"],["C_Dist_500_LN_1_LD_4_RN_12_RD_16_1.png","C_Dist_500_LN_1_LD_4_RN_9_RD_12_1.png","C_Dist_500_LN_1_LD_9_RN_11_RD_18_1.png","C_Dist_500_LN_10_LD_24_RN_22_RD_24_1.png","C_Dist_500_LN_2_LD_12_RN_10_RD_15_1.png","C_Dist_500_LN_2_LD_12_RN_12_RD_18_1.png","C_Dist_500_LN_2_LD_12_RN_4_RD_6_1.png","C_Dist_500_LN_2_LD_24_RN_7_RD_12_1.png","C_Dist_500_LN_2_LD_5_RN_18_RD_20_1.png","C_Dist_500_LN_2_LD_5_RN_9_RD_10_1.png","C_Dist_500_LN_2_LD_8_RN_12_RD_16_1.png","C_Dist_500_LN_2_LD_8_RN_21_RD_28_1.png","C_Dist_500_LN_3_LD_10_RN_4_RD_5_1.png","C_Dist_500_LN_3_LD_12_RN_15_RD_20_1.png","C_Dist_500_LN_3_LD_30_RN_6_RD_10_1.png","C_Dist_500_LN_3_LD_8_RN_14_RD_16_1.png","C_Dist_500_LN_4_LD_16_RN_15_RD_20_1.png","C_Dist_500_LN_4_LD_24_RN_12_RD_18_1.png","C_Dist_500_LN_5_LD_14_RN_6_RD_7_1.png","C_Dist_500_LN_7_LD_21_RN_20_RD_24_1.png","C_Dist_500_LN_7_LD_28_RN_12_RD_16_1.png","C_Dist_500_LN_7_LD_28_RN_9_RD_12_1.png","C_Dist_500_LN_9_LD_27_RN_20_RD_24_1.png"]],"dist500_I":[["I_Dist_500_LN_2_LD_3_RN_4_RD_24_0.png","I_Dist_500_LN_5_LD_6_RN_6_RD_18_0.png","I_Dist_500_LN_7_LD_8_RN_9_RD_24_0.png"],["I_Dist_500_LN_7_LD_21_RN_5_RD_6_1.png"]],"dist500_S":[["E_Dist_500_LN_6_LD_8_RN_6_RD_24_0.png"],["E_Dist_500_LN_2_LD_12_RN_2_RD_3_1.png","E_Dist_500_LN_6_LD_24_RN_6_RD_8_1.png"]]}},{"start_time":1552312999683,"click_time":1552313003780,"finger_time":1552313002360,"fix_duration":1222.0098047338681,"trial":1,"RT":2677,"MT":1420,"sideResp":2,"stimulus":[],"xmouse":[790,790,790,790,789,789,790,792,794,797,801,803,803,803,803,801,800,799,799,799,798,798,797,797,796,796,796,796,796,796,796,796,796,796,796,796,796,796,796,796,796,796,796,795,795,795,795,795,795,795,795,795,795,795,795,795,795,794,794,794,794,794,794,794,794,794,794,794,794,794,794,794,794,794,794,794,794,794,794,794,794,794,794,794,794,794,794,794,794,794,794,794,794,794,794,794,794,794,794,794,794,794,794,794,794,794,794,794,794,794,794,794,794,794,794,794,794,794,794,794,792,786,784,782,781,779,779,776,775,773,772,772,770,770,770,770,770,770,770,770,770,770,770,770,770,769,769,769,769,769,769,770,772,773,773,773,773,773,773,773,773,773,773,773,775,785,799,834,850,863,881,906,933,941,948,955,961,962,964,966,969,973,979,984,989,991,995,996,998,999,999,1000,1009,1012,1013,1013,1020,1026,1030,1034,1037,1042,1055,1059],"ymouse":[604,604,604,613,618,623,627,630,631,632,632,631,619,611,604,600,597,596,596,596,596,596,596,596,596,596,596,596,596,596,596,596,596,596,596,596,596,596,596,596,596,596,597,598,599,599,599,599,599,599,599,599,599,599,601,602,603,604,604,604,604,604,604,604,604,604,605,606,606,606,606,606,606,606,606,606,606,606,606,606,606,606,606,606,606,606,606,606,606,606,606,606,606,606,606,606,606,606,606,606,606,606,606,606,606,606,606,606,606,608,609,611,611,611,611,611,611,611,611,612,610,601,597,593,589,587,584,581,578,577,575,574,572,571,571,571,571,571,570,570,570,570,570,570,570,570,572,573,573,573,575,580,584,584,584,584,584,584,584,584,584,584,584,584,584,581,572,535,508,472,427,337,249,217,194,173,141,130,117,106,97,88,86,86,86,87,87,87,87,87,87,87,87,87,87,87,84,80,79,78,77,76,76,76],"timestamp_mouse":[16,63,77,96,116,136,156,176,197,216,237,256,277,296,317,336,357,376,396,417,436,456,477,497,517,537,556,576,597,616,637,656,677,696,716,736,757,777,796,817,836,857,877,896,917,937,956,977,996,1017,1037,1057,1076,1097,1117,1136,1157,1177,1197,1217,1236,1257,1276,1297,1317,1336,1356,1376,1396,1417,1437,1457,1476,1497,1516,1536,1557,1576,1596,1617,1636,1656,1677,1696,1716,1736,1757,1777,1796,1817,1837,1857,1876,1897,1916,1937,1956,1977,1997,2017,2036,2057,2077,2097,2117,2136,2156,2176,2196,2216,2236,2257,2276,2297,2316,2336,2356,2376,2397,2416,2436,2457,2476,2496,2516,2536,2557,2576,2597,2617,2637,2656,2677,2696,2716,2736,2756,2776,2796,2816,2837,2857,2877,2896,2917,2936,2957,2977,2996,3017,3036,3057,3077,3096,3116,3136,3156,3177,3196,3217,3237,3256,3277,3296,3316,3336,3357,3377,3397,3416,3436,3457,3477,3496,3516,3536,3557,3576,3597,3616,3637,3656,3677,3697,3716,3737,3757,3776,3797,3816,3836,3856,3876,3897,3916,3936,3957,3976,3996,4017,4037,4057,4076,4096],"xSR":741.5,"ySR":573.95,"xT1":424.9,"yT1":0,"xT2":1058.1,"yT2":0,"toosoon":0,"cond_shown":"Incongruent","ratio_trial":100,"L_num":12,"L_den":30,"R_num":2,"R_den":4,"correct_side":2,"subjID":"Miguel Angel Castro Herrera No 11","gender":"0","school":"4","age":"9"},{"start_time":1552313009465,"click_time":1552313012340,"finger_time":1552313011459,"fix_duration":1404.899330699498,"trial":2,"RT":1994,"MT":881,"sideResp":1,"stimulus":[],"xmouse":[797,796,796,795,793,793,793,793,793,793,793,793,793,793,793,793,793,793,793,793,793,793,793,793,793,793,793,794,795,795,795,795,795,795,795,795,795,795,795,795,795,795,795,795,795,795,795,795,795,795,795,795,795,795,795,795,795,795,795,795,795,795,795,795,795,795,795,795,795,795,795,795,795,795,795,795,795,795,796,796,796,796,797,797,797,797,797,797,797,797,797,797,797,797,797,798,798,798,790,784,777,766,754,718,702,688,671,651,614,607,604,602,601,599,595,593,592,591,587,584,579,575,569,547,537,536,536,536,536,533,530,528,528,528,528,528,528,528,528,528,528,528,526,522],"ymouse":[628,628,628,626,625,625,625,625,625,625,625,625,625,625,625,625,625,625,625,625,625,625,625,625,625,625,625,626,626,626,626,626,626,626,626,626,626,626,626,626,626,626,626,626,626,626,626,626,626,626,626,626,626,626,626,626,626,626,626,626,626,626,626,626,626,626,626,626,626,626,626,626,626,626,626,626,626,626,626,626,626,626,626,626,626,626,626,626,626,626,626,626,626,626,626,624,620,614,586,567,543,507,461,340,298,268,236,206,143,124,107,96,90,85,79,77,77,77,77,79,80,81,81,81,80,80,80,80,80,80,80,79,79,79,79,79,79,79,79,79,79,79,78,75],"timestamp_mouse":[14,34,56,74,94,115,135,154,174,194,215,235,255,275,294,314,334,354,375,394,415,434,454,474,494,514,535,554,574,595,614,635,654,674,695,715,734,755,775,794,814,834,854,875,896,914,934,954,974,994,1014,1035,1054,1075,1095,1115,1135,1154,1175,1195,1214,1235,1254,1274,1295,1314,1334,1354,1375,1394,1414,1434,1455,1474,1494,1515,1534,1555,1574,1595,1614,1634,1655,1674,1694,1715,1734,1754,1775,1794,1814,1835,1854,1874,1895,1914,1935,1955,1975,1994,2014,2035,2055,2076,2094,2115,2135,2155,2175,2194,2214,2234,2254,2274,2294,2314,2335,2354,2375,2394,2415,2434,2454,2475,2494,2514,2534,2555,2574,2594,2614,2635,2656,2674,2695,2714,2735,2754,2774,2795,2815,2835,2854,2875],"xSR":741.5,"ySR":573.95,"xT1":424.9,"yT1":0,"xT2":1058.1,"yT2":0,"toosoon":0,"cond_shown":"Incongruent","ratio_trial":300,"L_num":4,"L_den":5,"R_num":8,"R_den":16,"correct_side":1,"subjID":"Miguel Angel Castro Herrera No 11","gender":"0","school":"4","age":"9"},{"start_time":1552313015917,"click_time":1552313017601,"finger_time":1552313016139,"fix_duration":395.3004944883324,"trial":3,"RT":222,"MT":1462,"sideResp":1,"stimulus":[],"xmouse":[840,840,840,840,840,840,841,841,841,841,841,842,842,842,842,842,842,842,842,842,842,842,842,842,842,842,842,842,842,842,842,842,841,838,832,826,819,815,814,814,814,814,814,814,814,814,814,814,814,814,814,814,814,814,814,814,814,814,814,809,805,783,761,749,740,728,663,617,560,515,490,481,479,479,479,479,479,479,479,479,479,479,479,478,474],"ymouse":[631,631,631,631,631,630,630,630,630,630,630,629,629,629,629,629,629,629,629,629,629,629,629,629,629,629,629,629,629,629,629,629,628,628,626,624,620,619,619,619,619,619,619,619,619,619,619,619,619,619,619,619,619,619,619,619,619,619,619,614,609,583,556,535,516,490,402,350,294,250,223,209,202,199,194,188,175,169,165,163,159,145,124,111,97],"timestamp_mouse":[9,22,42,63,82,102,123,143,163,182,203,222,243,263,282,302,323,342,363,383,403,423,443,462,482,503,523,541,562,582,603,623,642,662,683,702,723,742,763,782,802,823,843,863,883,902,922,943,963,983,1002,1022,1043,1063,1083,1103,1122,1142,1163,1182,1203,1223,1243,1263,1282,1302,1323,1341,1363,1382,1403,1422,1442,1462,1482,1504,1523,1542,1562,1583,1603,1623,1642,1663,1683],"xSR":741.5,"ySR":573.95,"xT1":424.9,"yT1":0,"xT2":1058.1,"yT2":0,"toosoon":0,"cond_shown":"Congruent","ratio_trial":300,"L_num":8,"L_den":16,"R_num":1,"R_den":5,"correct_side":1,"subjID":"Miguel Angel Castro Herrera No 11","gender":"0","school":"4","age":"9"},{"start_time":1552313019058,"click_time":1552313022359,"finger_time":1552313021620,"fix_duration":615.5532122513617,"trial":4,"RT":2562,"MT":739,"sideResp":2,"stimulus":[],"xmouse":[788,788,788,788,788,788,788,788,788,788,788,788,788,788,788,788,788,788,788,788,788,788,788,788,788,788,788,788,788,788,788,788,788,788,788,788,788,788,788,788,788,788,788,788,788,788,788,788,788,788,788,788,788,788,788,788,788,788,788,788,788,788,788,788,788,788,788,788,788,788,788,788,788,788,788,788,788,788,788,788,788,788,788,788,788,788,788,788,788,788,788,788,788,788,788,790,790,790,790,790,790,790,789,789,789,789,789,789,789,789,789,789,789,789,789,789,789,789,789,789,789,789,789,788,788,788,788,788,788,789,791,794,798,804,829,840,853,864,874,895,906,916,929,943,954,977,980,981,983,989,993,996,997,997,998,1009,1016,1024,1033,1039,1069,1079,1085,1088,1094,1098],"ymouse":[616,616,616,616,616,616,616,616,616,616,616,616,616,616,616,616,616,616,616,616,616,616,616,616,616,616,616,616,616,616,616,616,616,616,616,616,616,616,616,616,616,616,616,616,616,616,616,616,616,616,616,616,616,616,616,616,616,616,616,616,616,616,616,616,616,616,616,616,616,616,616,616,616,616,616,616,616,616,616,616,616,616,616,616,616,616,616,616,616,616,616,616,616,616,615,611,610,608,607,606,606,606,606,606,606,606,606,606,606,606,606,606,606,606,606,606,606,606,606,606,606,606,606,604,599,589,583,577,572,560,551,539,524,505,446,423,400,381,357,308,285,263,244,223,207,168,156,148,144,137,134,132,130,130,129,127,127,127,126,124,120,118,117,114,106,97],"timestamp_mouse":[11,24,41,62,82,102,122,142,162,181,202,221,241,262,281,302,321,342,361,382,402,421,441,462,482,502,522,541,562,582,601,621,642,662,681,702,722,741,762,782,801,822,842,862,881,901,922,942,961,982,1001,1022,1041,1062,1081,1103,1121,1142,1161,1182,1202,1221,1241,1262,1282,1302,1322,1341,1362,1382,1402,1422,1442,1461,1481,1502,1522,1541,1561,1582,1602,1622,1642,1661,1682,1701,1721,1741,1762,1781,1802,1822,1842,1861,1882,1901,1921,1942,1961,1981,2001,2021,2042,2061,2081,2103,2121,2141,2161,2182,2202,2221,2242,2261,2281,2301,2321,2341,2361,2381,2402,2421,2441,2461,2482,2501,2521,2541,2562,2582,2601,2621,2642,2661,2682,2701,2722,2742,2762,2782,2801,2821,2841,2861,2882,2901,2921,2942,2961,2982,3001,3021,3042,3062,3082,3102,3122,3141,3162,3181,3201,3222,3241,3261,3282,3301],"xSR":741.5,"ySR":573.95,"xT1":424.9,"yT1":0,"xT2":1058.1,"yT2":0,"toosoon":0,"cond_shown":"Congruent","ratio_trial":300,"L_num":5,"L_den":25,"R_num":6,"R_den":12,"correct_side":2,"subjID":"Miguel Angel Castro Herrera No 11","gender":"0","school":"4","age":"9"},{"start_time":1552313031929,"click_time":1552313034119,"finger_time":1552313033399,"fix_duration":1008.1932886989832,"trial":5,"RT":1470,"MT":720,"sideResp":2,"stimulus":[],"xmouse":[798,798,799,799,799,799,799,799,799,799,799,799,799,799,799,799,799,799,799,799,799,799,799,799,799,799,799,799,799,799,799,799,799,799,799,799,799,799,799,799,799,799,799,799,799,799,799,799,799,799,799,799,799,799,799,799,799,799,799,799,799,799,799,799,799,799,799,799,803,808,818,834,841,849,860,886,899,911,924,939,956,986,1002,1008,1012,1014,1014,1014,1014,1014,1018,1022,1028,1033,1038,1044,1047,1049,1051,1053,1053,1054,1054,1054,1054,1056,1058,1060,1065,1075],"ymouse":[653,653,653,653,653,653,653,653,653,653,653,653,653,653,653,653,653,653,653,653,653,653,653,653,653,653,653,653,653,653,653,653,653,653,653,653,653,653,653,653,653,653,653,653,653,653,653,653,653,653,653,653,653,653,653,653,653,653,653,653,653,653,653,653,653,653,653,653,652,650,647,636,627,617,602,574,563,549,532,515,498,466,445,432,416,385,373,364,356,347,322,304,294,283,268,231,213,200,188,178,171,158,147,140,134,118,113,108,100,89],"timestamp_mouse":[18,30,51,71,89,111,131,151,171,190,210,230,250,270,291,311,331,351,370,391,410,430,451,471,491,510,530,551,571,590,610,630,651,670,690,711,731,751,770,791,810,831,851,870,890,910,931,950,970,991,1011,1030,1051,1071,1091,1110,1130,1151,1170,1190,1210,1230,1250,1270,1291,1310,1331,1351,1370,1391,1410,1430,1450,1470,1490,1510,1530,1550,1571,1590,1610,1631,1650,1670,1690,1710,1731,1750,1771,1790,1811,1830,1851,1872,1890,1910,1930,1950,1970,1990,2011,2030,2050,2070,2090,2110,2130,2150,2170,2190],"xSR":741.5,"ySR":573.95,"xT1":424.9,"yT1":0,"xT2":1058.1,"yT2":0,"toosoon":0,"cond_shown":"Incongruent","ratio_trial":200,"L_num":6,"L_den":20,"R_num":3,"R_den":6,"correct_side":2,"subjID":"Miguel Angel Castro Herrera No 11","gender":"0","school":"4","age":"9"},{"start_time":1552313036500,"click_time":1552313038499,"finger_time":1552313038359,"fix_duration":1358.1039007051722,"trial":6,"RT":1859,"MT":140,"sideResp":1,"stimulus":[],"xmouse":[821,821,821,821,821,821,821,821,821,821,821,821,821,821,821,821,821,821,821,821,821,821,821,821,821,821,821,821,821,821,821,821,821,821,821,821,821,821,821,821,821,821,821,821,821,821,821,821,821,821,821,821,821,821,821,821,821,821,821,821,821,821,821,821,821,821,821,821,821,821,821,821,821,821,821,821,821,821,821,821,821,821,821,821,821,821,821,821,821,821,821,814,806,767,751,738,718,694,618,553,484],"ymouse":[629,629,629,629,629,629,629,629,629,629,629,629,629,629,629,629,629,629,629,629,629,629,629,629,629,629,629,629,629,629,629,629,629,629,629,629,629,629,629,629,629,629,629,629,629,629,629,629,629,629,629,629,629,629,629,629,629,629,629,629,629,629,629,629,629,629,629,629,629,629,629,629,629,629,629,629,629,629,629,629,629,629,629,629,629,629,629,629,629,629,629,615,605,548,524,499,455,394,226,132,39],"timestamp_mouse":[2,22,40,60,79,99,119,140,159,180,200,220,241,259,279,299,319,340,359,379,399,419,439,460,479,499,520,539,559,580,599,620,640,660,679,700,720,739,759,779,799,820,839,860,879,899,919,940,960,980,999,1019,1040,1060,1080,1100,1119,1140,1160,1181,1200,1219,1240,1260,1280,1300,1320,1340,1360,1379,1399,1419,1440,1460,1479,1500,1519,1539,1560,1580,1599,1619,1640,1660,1680,1700,1719,1739,1759,1780,1799,1820,1840,1859,1880,1900,1919,1940,1959,1980,1999],"xSR":741.5,"ySR":573.95,"xT1":424.9,"yT1":0,"xT2":1058.1,"yT2":0,"toosoon":0,"cond_shown":"Incongruent","ratio_trial":100,"L_num":9,"L_den":15,"R_num":13,"R_den":26,"correct_side":1,"subjID":"Miguel Angel Castro Herrera No 11","gender":"0","school":"4","age":"9"},{"start_time":1552313041992,"click_time":1552313043601,"finger_time":1552313043480,"fix_duration":330.282596725604,"trial":7,"RT":1488,"MT":121,"sideResp":1,"stimulus":[],"xmouse":[802,802,802,802,802,802,802,802,802,802,802,802,802,802,802,802,802,802,802,802,802,802,802,802,802,802,802,802,802,802,802,802,802,802,802,802,802,802,802,802,802,802,802,802,802,802,802,802,802,802,802,802,802,802,802,802,802,802,802,802,802,802,802,802,802,802,802,802,802,802,802,802,802,802,797,782,758,662,603,552,516],"ymouse":[631,631,631,631,631,631,631,631,631,631,631,631,631,631,631,631,631,631,631,631,631,631,631,631,631,631,631,631,631,631,631,631,631,631,631,631,631,631,631,631,631,631,631,631,631,631,631,631,631,631,631,631,631,631,631,631,631,631,631,631,631,631,631,631,631,631,631,631,631,631,631,631,627,580,516,451,393,247,186,132,89],"timestamp_mouse":[10,37,48,67,87,107,128,147,167,187,207,227,248,268,287,307,328,347,367,387,408,428,447,468,488,507,528,548,568,587,608,627,647,668,687,708,728,748,768,788,808,828,847,868,888,908,928,948,968,987,1008,1028,1047,1068,1088,1108,1128,1147,1168,1188,1208,1229,1248,1268,1289,1307,1328,1347,1368,1387,1407,1427,1447,1467,1488,1508,1528,1548,1567,1587,1608],"xSR":741.5,"ySR":573.95,"xT1":424.9,"yT1":0,"xT2":1058.1,"yT2":0,"toosoon":0,"cond_shown":"Incongruent","ratio_trial":100,"L_num":6,"L_den":10,"R_num":13,"R_den":26,"correct_side":1,"subjID":"Miguel Angel Castro Herrera No 11","gender":"0","school":"4","age":"9"},{"start_time":1552313045398,"click_time":1552313049542,"finger_time":1552313048959,"fix_duration":558.3010236424723,"trial":8,"RT":3561,"MT":583,"sideResp":1,"stimulus":[],"xmouse":[782,782,783,783,783,783,783,783,783,783,783,783,783,783,783,783,783,783,783,783,783,783,783,783,783,783,783,783,783,783,783,783,783,783,783,783,783,783,783,783,783,783,783,783,783,783,783,783,783,783,783,783,783,783,783,783,783,783,783,783,783,783,783,783,783,783,783,783,783,783,783,783,783,783,783,783,783,783,783,783,783,783,783,783,783,783,783,783,783,783,783,783,783,783,783,783,783,783,783,783,783,783,783,783,783,783,783,783,783,783,783,783,783,783,783,783,783,783,783,783,783,783,783,783,783,783,783,783,783,783,783,783,783,783,783,783,783,783,783,783,783,783,783,783,783,783,783,783,783,783,783,783,783,783,783,783,783,783,783,783,783,783,783,783,783,783,783,783,783,783,783,783,783,783,783,783,783,780,774,765,754,743,718,709,699,693,684,681,664,658,654,651,646,631,622,611,587,549,460,455,453,451,448,436,434,434,434,439],"ymouse":[612,612,612,612,612,612,612,612,612,612,612,612,612,612,612,612,612,612,612,612,612,612,612,612,612,612,612,612,612,612,612,612,612,612,612,612,612,612,612,612,612,612,612,612,612,612,612,612,612,612,612,612,612,612,612,612,612,612,612,612,612,612,612,612,612,612,612,612,612,612,612,612,612,612,612,612,612,612,612,612,612,612,612,612,612,612,612,612,612,612,612,612,612,612,612,612,612,612,612,612,612,612,612,612,612,612,612,612,612,612,612,612,612,612,612,612,612,612,612,612,612,612,612,612,612,612,612,612,612,612,612,612,612,612,612,612,612,612,612,612,612,612,612,612,612,612,612,612,612,612,612,612,612,612,612,612,612,612,612,612,612,612,612,612,612,612,612,612,612,612,612,612,612,612,612,612,612,593,570,538,498,457,405,384,368,353,333,325,294,283,275,266,254,222,201,177,141,94,0,0,0,0,0,0,0,0,0,17],"timestamp_mouse":[11,22,41,63,81,101,121,141,161,181,202,222,241,261,281,301,321,342,362,382,402,422,441,462,481,501,523,542,561,581,602,622,642,662,682,702,722,742,761,781,801,822,842,862,881,901,922,941,961,981,1001,1021,1042,1062,1081,1101,1121,1142,1161,1183,1201,1221,1242,1262,1281,1302,1322,1341,1362,1382,1403,1422,1442,1461,1481,1502,1523,1542,1562,1582,1602,1621,1641,1661,1683,1702,1721,1742,1761,1782,1802,1821,1842,1861,1883,1902,1922,1942,1962,1982,2002,2021,2042,2062,2083,2102,2122,2141,2161,2182,2202,2223,2243,2262,2282,2301,2322,2342,2362,2382,2402,2422,2442,2462,2482,2502,2521,2542,2561,2581,2601,2621,2641,2662,2682,2702,2721,2741,2761,2781,2802,2822,2842,2861,2882,2902,2922,2942,2963,2981,3002,3021,3041,3063,3082,3102,3122,3141,3161,3182,3202,3221,3242,3262,3281,3301,3321,3341,3362,3382,3402,3421,3443,3462,3482,3503,3521,3542,3561,3582,3603,3621,3642,3661,3682,3701,3722,3743,3762,3782,3801,3823,3841,3861,3881,3901,3922,3941,3962,3981,4001,4022,4041,4061,4082,4102,4121,4144],"xSR":741.5,"ySR":573.95,"xT1":424.9,"yT1":0,"xT2":1058.1,"yT2":0,"toosoon":0,"cond_shown":"Congruent","ratio_trial":100,"L_num":3,"L_den":6,"R_num":2,"R_den":5,"correct_side":1,"subjID":"Miguel Angel Castro Herrera No 11","gender":"0","school":"4","age":"9"},{"start_time":1552313051012,"click_time":1552313052859,"finger_time":1552313052459,"fix_duration":250,"trial":9,"RT":1447,"MT":400,"sideResp":2,"stimulus":[],"xmouse":[782,782,782,782,782,782,782,782,782,782,782,782,782,782,782,782,782,782,782,782,782,782,782,782,782,782,782,782,782,782,782,782,782,782,782,782,782,782,782,782,782,782,782,782,782,782,782,782,782,783,783,783,783,783,783,783,783,783,783,783,783,783,783,783,783,783,783,783,783,787,801,836,902,926,949,978,989,1030,1040,1051,1061,1070,1081,1085,1086,1088,1088,1090,1092,1094,1095,1095,1088],"ymouse":[604,604,604,604,604,604,604,604,604,604,604,604,604,604,604,604,604,604,604,604,604,604,604,604,604,604,604,604,604,604,604,604,604,604,604,604,604,604,604,604,604,604,604,604,604,604,604,604,604,605,605,605,605,605,605,605,605,605,605,605,605,605,605,605,605,605,605,605,605,605,600,585,544,521,495,453,432,341,316,295,276,262,245,236,227,216,189,157,146,137,126,116,91],"timestamp_mouse":[11,28,47,68,87,108,128,147,167,188,207,228,248,267,288,307,327,347,367,388,407,429,448,468,488,508,528,548,569,588,608,628,647,668,688,708,727,747,767,788,826,827,847,868,889,907,928,947,968,988,1007,1027,1048,1067,1088,1108,1128,1147,1168,1187,1208,1229,1248,1268,1287,1307,1327,1347,1367,1388,1408,1428,1447,1467,1487,1507,1528,1547,1568,1587,1607,1627,1647,1667,1688,1707,1727,1748,1768,1788,1807,1828,1847],"xSR":741.5,"ySR":573.95,"xT1":424.9,"yT1":0,"xT2":1058.1,"yT2":0,"toosoon":0,"cond_shown":"Incongruent","ratio_trial":100,"L_num":13,"L_den":26,"R_num":6,"R_den":10,"correct_side":2,"subjID":"Miguel Angel Castro Herrera No 11","gender":"0","school":"4","age":"9"},{"start_time":1552313054458,"click_time":1552313056680,"finger_time":1552313056560,"fix_duration":936.8070587630315,"trial":10,"RT":2102,"MT":120,"sideResp":1,"stimulus":[],"xmouse":[816,816,816,816,816,816,816,816,816,816,816,816,816,816,816,816,816,816,816,816,816,816,816,816,816,816,816,816,816,816,816,816,816,816,816,816,816,816,816,816,816,816,816,816,816,816,816,816,816,816,816,816,816,816,816,816,816,816,816,816,816,816,816,816,816,816,816,816,816,816,816,816,816,816,816,816,816,816,816,816,816,816,816,816,816,816,816,816,816,816,816,816,816,816,816,816,816,816,816,816,816,817,817,817,817,805,792,773,746,714,605,522],"ymouse":[617,617,617,617,617,617,617,617,617,617,617,617,617,617,617,617,617,617,617,617,617,617,617,617,617,617,617,617,617,617,617,617,617,617,617,617,617,617,617,617,617,617,617,617,617,617,617,617,617,617,617,617,617,617,617,617,617,617,617,617,617,617,617,617,617,617,617,617,617,617,617,617,617,617,617,617,617,617,617,617,617,617,617,617,617,617,617,617,617,617,617,617,617,617,617,617,617,617,617,617,617,613,606,592,588,557,535,498,444,378,191,74],"timestamp_mouse":[9,21,42,63,81,101,122,143,161,182,201,221,242,261,282,302,321,342,362,382,402,422,441,461,482,501,521,542,561,581,601,622,642,661,682,702,722,742,762,782,802,821,842,862,882,902,921,941,962,982,1001,1021,1042,1061,1081,1101,1122,1142,1162,1181,1201,1222,1241,1262,1282,1301,1322,1341,1361,1381,1402,1421,1442,1462,1483,1501,1521,1541,1561,1582,1602,1621,1642,1661,1681,1702,1721,1741,1762,1781,1801,1822,1842,1862,1881,1902,1921,1943,1962,1981,2001,2022,2042,2061,2081,2102,2121,2141,2161,2181,2201,2221],"xSR":741.5,"ySR":573.95,"xT1":424.9,"yT1":0,"xT2":1058.1,"yT2":0,"toosoon":0,"cond_shown":"Congruent","ratio_trial":100,"L_num":12,"L_den":30,"R_num":13,"R_den":26,"correct_side":2,"subjID":"Miguel Angel Castro Herrera No 11","gender":"0","school":"4","age":"9"},{"start_time":1552313058746,"click_time":1552313061159,"finger_time":1552313060720,"fix_duration":1144.6669111541025,"trial":11,"RT":1974,"MT":439,"sideResp":2,"stimulus":[],"xmouse":[815,815,815,815,815,815,815,815,815,815,815,815,815,815,815,815,815,815,815,815,815,815,815,815,815,815,815,815,815,815,815,815,815,815,815,815,815,815,815,815,815,815,815,815,815,815,815,815,815,815,815,815,815,815,815,815,815,815,815,815,815,815,815,815,815,815,815,815,815,815,815,815,815,815,815,815,815,815,815,815,815,815,815,815,815,815,815,815,815,815,815,815,815,815,816,822,831,839,847,858,864,868,871,875,887,893,900,907,917,928,954,965,979,997,1033,1056,1083,1101,1117,1126,1114],"ymouse":[616,616,616,616,616,616,616,616,616,616,616,616,616,616,616,616,616,616,616,616,616,616,616,616,616,616,616,616,616,616,616,616,616,616,616,616,616,616,616,616,616,616,616,616,616,616,616,616,616,616,616,616,616,616,616,616,616,616,616,616,616,616,616,616,616,616,616,616,616,616,616,616,616,616,616,616,616,616,616,616,616,616,616,616,616,616,616,616,616,616,616,616,616,616,617,617,611,605,597,579,569,561,553,544,518,504,489,475,458,439,393,372,344,315,262,235,205,186,166,131,51],"timestamp_mouse":[14,37,53,73,93,114,133,154,173,193,214,235,253,274,293,313,334,355,374,394,413,434,455,473,494,515,533,553,574,593,614,634,653,674,694,714,733,754,774,794,813,833,854,874,894,914,933,954,973,993,1014,1033,1053,1074,1093,1113,1133,1154,1174,1194,1214,1233,1254,1273,1294,1313,1334,1354,1374,1394,1413,1434,1454,1473,1493,1513,1534,1553,1574,1593,1613,1633,1654,1675,1694,1713,1733,1754,1774,1793,1814,1834,1853,1873,1893,1913,1934,1953,1974,1994,2013,2034,2053,2074,2094,2113,2133,2153,2173,2193,2214,2233,2254,2274,2294,2313,2334,2354,2374,2393,2413],"xSR":741.5,"ySR":573.95,"xT1":424.9,"yT1":0,"xT2":1058.1,"yT2":0,"toosoon":0,"cond_shown":"Incongruent","ratio_trial":100,"L_num":13,"L_den":26,"R_num":12,"R_den":20,"correct_side":2,"subjID":"Miguel Angel Castro Herrera No 11","gender":"0","school":"4","age":"9"},{"start_time":1552313063351,"click_time":1552313065620,"finger_time":1552313065239,"fix_duration":930.7881759307237,"trial":12,"RT":1888,"MT":381,"sideResp":1,"stimulus":[],"xmouse":[801,800,799,798,798,796,796,796,796,796,796,796,796,796,796,796,796,796,796,796,796,796,796,796,796,796,796,796,796,796,796,796,796,796,796,796,796,796,796,796,796,796,796,796,796,796,796,796,796,796,796,796,796,796,796,796,796,796,796,796,796,796,796,796,796,796,796,796,796,797,802,806,809,810,811,811,811,811,811,811,811,811,811,811,811,811,811,811,811,811,811,808,800,782,754,692,673,662,651,643,625,613,601,594,590,582,576,570,560,553,538,534,528,521],"ymouse":[624,625,626,626,626,627,627,627,627,627,627,627,627,627,627,627,627,627,627,627,627,627,627,627,627,627,627,627,627,627,627,627,627,627,627,627,627,627,627,627,627,627,627,627,627,627,627,627,627,627,627,627,627,627,627,627,627,627,627,627,627,627,627,627,627,627,627,627,627,627,624,622,620,619,618,618,617,617,617,617,617,617,617,617,617,617,617,617,617,617,617,612,600,576,537,446,412,387,361,336,277,254,235,220,203,175,160,144,129,120,103,99,94,88],"timestamp_mouse":[14,28,49,71,89,109,128,148,168,188,209,229,248,268,288,308,328,349,368,388,408,428,448,469,488,508,528,548,568,588,608,629,648,668,689,709,728,749,770,788,809,830,849,869,889,909,929,948,968,988,1008,1028,1048,1070,1088,1109,1130,1149,1168,1189,1209,1229,1249,1269,1288,1309,1328,1349,1368,1388,1408,1428,1448,1468,1489,1508,1529,1548,1568,1588,1608,1630,1648,1669,1689,1708,1729,1748,1769,1788,1809,1828,1848,1868,1888,1908,1928,1948,1969,1990,2009,2029,2048,2069,2088,2108,2128,2148,2169,2188,2208,2229,2249,2269],"xSR":741.5,"ySR":573.95,"xT1":424.9,"yT1":0,"xT2":1058.1,"yT2":0,"toosoon":0,"cond_shown":"Congruent","ratio_trial":100,"L_num":1,"L_den":2,"R_num":18,"R_den":30,"correct_side":2,"subjID":"Miguel Angel Castro Herrera No 11","gender":"0","school":"4","age":"9"},{"start_time":1552313067698,"click_time":1552313070059,"finger_time":1552313069800,"fix_duration":1057.4058016068057,"trial":13,"RT":2102,"MT":259,"sideResp":1,"stimulus":[],"xmouse":[792,792,792,792,792,792,792,792,792,792,792,792,792,792,792,792,792,792,792,792,792,792,792,792,792,792,792,792,792,792,792,792,792,792,792,792,792,792,792,792,792,792,792,792,792,792,792,792,792,792,792,792,792,792,792,792,792,792,792,792,792,792,792,792,792,792,792,792,792,792,792,792,792,792,792,792,792,792,792,792,792,792,792,792,792,792,792,792,792,792,792,792,792,792,792,792,792,792,792,792,792,792,785,777,770,762,752,742,727,719,714,710,706,695,688,676,656,620,499],"ymouse":[614,614,614,614,614,614,614,614,614,614,614,614,614,614,614,614,614,614,614,614,614,614,614,614,614,614,614,614,614,614,614,614,614,614,614,614,614,614,614,614,614,614,614,614,614,614,614,614,614,614,614,614,614,614,614,614,614,614,614,614,614,614,614,614,614,614,614,614,614,614,614,614,614,614,614,614,614,614,614,614,614,614,614,614,614,614,614,614,614,614,614,614,614,614,614,614,614,614,614,614,614,614,604,592,579,565,546,527,493,481,474,468,464,450,438,416,367,284,87],"timestamp_mouse":[11,21,41,61,81,101,121,141,161,181,201,221,241,261,281,302,322,343,361,382,401,421,441,463,482,501,523,541,561,582,602,621,641,662,681,702,721,741,761,782,802,821,841,862,881,901,921,942,961,982,1001,1021,1042,1061,1081,1101,1121,1142,1161,1181,1201,1221,1243,1261,1281,1301,1322,1342,1361,1383,1401,1422,1442,1462,1482,1502,1522,1542,1562,1581,1602,1622,1641,1662,1682,1701,1721,1741,1761,1782,1801,1821,1842,1861,1882,1901,1921,1941,1961,1982,2001,2021,2042,2062,2081,2102,2122,2142,2161,2181,2202,2221,2241,2262,2282,2302,2321,2341,2361],"xSR":741.5,"ySR":573.95,"xT1":424.9,"yT1":0,"xT2":1058.1,"yT2":0,"toosoon":0,"cond_shown":"Congruent","ratio_trial":100,"L_num":2,"L_den":5,"R_num":6,"R_den":12,"correct_side":2,"subjID":"Miguel Angel Castro Herrera No 11","gender":"0","school":"4","age":"9"},{"start_time":1552313071492,"click_time":1552313075760,"finger_time":1552313075039,"fix_duration":471.0764367684242,"trial":14,"RT":3547,"MT":721,"sideResp":2,"stimulus":[],"xmouse":[779,779,779,779,779,779,779,779,779,779,779,779,779,779,779,779,779,779,779,779,779,779,779,779,779,779,779,779,779,779,779,779,779,779,779,779,779,779,779,779,779,779,779,779,779,779,779,779,779,779,779,779,779,779,779,779,779,779,779,779,779,779,779,779,779,779,779,779,779,779,779,779,779,779,779,779,779,779,779,779,779,779,779,779,779,779,779,779,779,779,779,779,779,779,779,779,779,779,779,779,779,779,779,779,779,779,779,779,779,779,779,779,779,779,779,779,779,779,779,779,779,779,779,779,779,779,779,779,779,779,779,779,779,779,779,779,779,779,779,779,779,779,779,779,779,779,779,779,779,779,779,779,779,779,779,779,779,779,779,779,779,779,779,779,779,779,779,779,779,779,779,779,779,779,780,812,837,846,846,846,846,846,846,846,846,846,846,846,846,846,846,846,846,847,847,847,847,848,854,859,865,870,884,932,956,973,991,1008,1040,1059,1076,1093,1118,1139],"ymouse":[596,596,596,596,596,596,596,596,596,596,596,596,596,596,596,596,596,596,596,596,596,596,596,596,596,596,596,596,596,596,596,596,596,596,596,596,596,596,596,596,596,596,596,596,596,596,596,596,596,596,596,596,596,596,596,596,596,596,596,596,596,596,596,596,596,596,596,596,596,596,596,596,596,596,596,596,596,596,596,596,596,596,596,596,596,596,596,596,596,596,596,596,596,596,596,596,596,596,596,596,596,596,596,596,596,596,596,596,596,596,596,596,596,596,596,596,596,596,596,596,596,596,596,596,596,596,596,596,596,596,596,596,596,596,596,596,596,596,596,596,596,596,596,596,596,596,596,596,596,596,596,596,596,596,596,596,596,596,596,596,596,596,596,596,596,596,596,596,596,596,596,596,596,596,594,596,608,613,613,613,613,613,613,613,613,613,613,613,613,613,613,613,613,613,613,613,613,613,595,578,559,537,508,426,392,359,325,287,221,187,163,141,112,79],"timestamp_mouse":[13,36,48,67,88,109,128,147,167,187,208,228,248,268,288,308,327,347,367,388,407,428,447,468,488,508,528,547,568,587,607,627,648,667,688,708,728,748,769,788,808,828,847,868,888,907,927,948,967,987,1008,1027,1047,1067,1088,1107,1127,1148,1167,1187,1207,1228,1248,1268,1287,1308,1328,1349,1368,1388,1408,1428,1448,1468,1488,1508,1528,1547,1568,1587,1608,1627,1647,1668,1688,1708,1727,1749,1768,1788,1807,1828,1847,1867,1888,1908,1928,1948,1967,1988,2007,2028,2048,2068,2088,2108,2129,2147,2167,2187,2208,2228,2247,2267,2289,2308,2328,2347,2368,2387,2408,2427,2448,2467,2488,2508,2527,2547,2568,2587,2607,2627,2647,2668,2687,2708,2727,2748,2768,2788,2808,2827,2848,2867,2888,2908,2929,2947,2967,2987,3007,3027,3047,3067,3088,3108,3128,3149,3167,3187,3207,3227,3247,3268,3287,3307,3328,3347,3367,3387,3407,3428,3447,3467,3487,3508,3527,3547,3567,3587,3609,3627,3647,3667,3687,3707,3727,3748,3767,3788,3808,3827,3847,3868,3887,3908,3927,3947,3967,3987,4007,4028,4047,4067,4087,4109,4127,4147,4167,4187,4208,4227,4247,4268],"xSR":741.5,"ySR":573.95,"xT1":424.9,"yT1":0,"xT2":1058.1,"yT2":0,"toosoon":0,"cond_shown":"Incongruent","ratio_trial":100,"L_num":13,"L_den":26,"R_num":12,"R_den":20,"correct_side":2,"subjID":"Miguel Angel Castro Herrera No 11","gender":"0","school":"4","age":"9"},{"start_time":1552313077252,"click_time":1552313079059,"finger_time":1552313078680,"fix_duration":250,"trial":15,"RT":1428,"MT":379,"sideResp":2,"stimulus":[],"xmouse":[795,795,795,795,795,795,795,795,795,795,795,795,795,795,795,795,795,795,795,795,795,795,795,795,795,795,795,795,795,795,795,795,795,795,795,795,795,795,795,795,795,795,795,795,795,795,795,795,795,795,795,795,795,795,795,795,795,795,795,795,795,795,795,795,795,795,795,795,795,795,827,894,960,1067,1124,1200,1222,1233,1247,1258,1271,1276,1281,1283,1283,1277,1258,1233,1209,1189,1146],"ymouse":[625,625,625,625,625,625,625,625,625,625,625,625,625,625,625,625,625,625,625,625,625,625,625,625,625,625,625,625,625,625,625,625,625,625,625,625,625,625,625,625,625,625,625,625,625,625,625,625,625,625,625,625,625,625,625,625,625,625,625,625,625,625,625,625,625,625,625,625,625,625,590,521,466,368,306,204,164,133,109,89,55,44,33,27,24,23,20,20,20,20,11],"timestamp_mouse":[9,39,47,67,87,108,127,147,167,189,208,228,247,267,288,307,328,349,368,388,408,427,448,468,487,507,529,548,568,587,608,628,648,668,687,708,729,748,768,787,808,828,847,867,887,908,928,948,968,988,1008,1028,1049,1068,1088,1108,1128,1148,1167,1188,1207,1227,1248,1268,1287,1309,1328,1347,1368,1389,1407,1428,1447,1467,1487,1507,1528,1548,1568,1587,1607,1627,1647,1668,1688,1709,1728,1747,1767,1787,1807],"xSR":741.5,"ySR":573.95,"xT1":424.9,"yT1":0,"xT2":1058.1,"yT2":0,"toosoon":0,"cond_shown":"Congruent","ratio_trial":300,"L_num":3,"L_den":6,"R_num":4,"R_den":5,"correct_side":2,"subjID":"Miguel Angel Castro Herrera No 11","gender":"0","school":"4","age":"9"},{"start_time":1552313081156,"click_time":1552313084559,"finger_time":1552313084440,"fix_duration":754.7211985705147,"trial":16,"RT":3284,"MT":119,"sideResp":2,"stimulus":[],"xmouse":[784,784,784,784,784,784,784,784,784,784,784,784,784,784,784,784,784,784,784,784,784,784,784,784,784,784,784,784,784,784,784,784,784,784,784,784,784,784,784,784,784,784,784,784,784,784,784,784,784,784,784,784,784,784,784,784,784,784,784,784,784,784,784,784,784,784,784,784,784,784,784,784,784,784,784,784,784,784,784,784,784,784,784,784,784,784,784,784,784,784,784,784,784,784,784,784,784,784,784,784,784,784,784,784,784,784,784,784,784,784,784,784,784,784,784,784,784,784,784,784,784,784,784,784,784,784,784,784,784,784,784,784,784,784,784,784,784,784,784,784,784,784,784,784,784,784,784,784,784,784,784,784,784,784,784,784,784,784,784,784,784,786,799,817,849,933,988,1051,1067,1092,1130],"ymouse":[613,613,613,613,613,613,613,613,613,613,613,613,613,613,613,613,613,613,613,613,613,613,613,613,613,613,613,613,613,613,613,613,613,613,613,613,613,613,613,613,613,613,613,613,613,613,613,613,613,613,613,613,613,613,613,613,613,613,613,613,613,613,613,613,613,613,613,613,613,613,613,613,613,613,613,613,613,613,613,613,613,613,613,613,613,613,613,613,613,613,613,613,613,613,613,613,613,613,613,613,613,613,613,613,613,613,613,613,613,613,613,613,613,613,613,613,613,613,613,613,613,613,613,615,628,645,645,645,645,645,645,645,645,645,645,645,645,645,645,645,645,645,645,645,645,645,645,645,645,645,645,645,645,645,645,645,645,645,645,645,645,641,620,588,534,404,323,224,195,145,41],"timestamp_mouse":[9,38,44,63,84,104,124,144,163,184,203,223,244,263,284,304,324,345,364,383,404,424,443,463,484,504,524,543,563,584,603,625,644,664,684,704,725,743,763,783,804,823,843,864,884,904,924,944,964,984,1003,1024,1043,1064,1083,1104,1124,1145,1164,1183,1204,1223,1243,1263,1283,1303,1323,1343,1364,1385,1403,1423,1444,1463,1483,1503,1523,1543,1564,1584,1603,1624,1644,1663,1683,1703,1724,1744,1765,1783,1803,1824,1843,1864,1883,1903,1925,1944,1963,1984,2003,2023,2043,2064,2084,2103,2123,2143,2163,2184,2203,2224,2243,2263,2285,2304,2323,2344,2365,2384,2404,2424,2443,2463,2483,2504,2523,2544,2563,2584,2604,2624,2643,2663,2683,2703,2729,2744,2763,2783,2804,2823,2843,2864,2884,2903,2924,2943,2964,2983,3003,3024,3043,3063,3084,3103,3125,3144,3163,3183,3203,3223,3244,3263,3284,3303,3323,3344,3364,3383,3403],"xSR":741.5,"ySR":573.95,"xT1":424.9,"yT1":0,"xT2":1058.1,"yT2":0,"toosoon":0,"cond_shown":"Incongruent","ratio_trial":100,"L_num":10,"L_den":25,"R_num":8,"R_den":16,"correct_side":2,"subjID":"Miguel Angel Castro Herrera No 11","gender":"0","school":"4","age":"9"},{"start_time":1552313088441,"click_time":1552313089841,"finger_time":1552313089521,"fix_duration":1259.3607020956802,"trial":17,"RT":1080,"MT":320,"sideResp":1,"stimulus":[],"xmouse":[769,769,769,769,769,769,769,769,769,769,769,769,769,769,769,769,769,769,769,769,769,769,769,769,769,769,769,769,769,769,769,769,769,769,769,769,769,769,769,769,769,769,769,769,769,769,769,769,769,767,763,760,757,755,752,745,740,730,720,699,691,683,673,655,643,610,589,563,540,495],"ymouse":[640,640,640,640,640,640,640,640,640,640,640,640,640,640,640,640,640,640,640,640,640,640,640,640,640,640,640,640,640,640,640,640,640,640,640,640,640,640,640,640,640,640,640,640,640,640,640,640,640,638,623,600,580,561,540,501,468,429,392,347,330,314,292,263,240,184,154,120,91,45],"timestamp_mouse":[18,46,58,78,99,119,139,159,178,199,218,238,258,279,298,318,338,359,379,398,418,439,460,479,498,519,539,559,578,598,620,639,659,679,699,718,739,760,779,799,819,839,859,878,898,919,939,958,979,999,1018,1038,1058,1080,1099,1118,1138,1158,1179,1199,1218,1238,1258,1279,1298,1318,1339,1358,1379,1399],"xSR":741.5,"ySR":573.95,"xT1":424.9,"yT1":0,"xT2":1058.1,"yT2":0,"toosoon":0,"cond_shown":"Congruent","ratio_trial":300,"L_num":12,"L_den":24,"R_num":2,"R_den":10,"correct_side":1,"subjID":"Miguel Angel Castro Herrera No 11","gender":"0","school":"4","age":"9"},{"start_time":1552313093732,"click_time":1552313096079,"finger_time":1552313095539,"fix_duration":250,"trial":18,"RT":1807,"MT":540,"sideResp":1,"stimulus":[],"xmouse":[773,773,774,775,778,781,784,786,788,791,793,798,801,802,802,802,802,802,802,802,802,802,802,802,802,802,802,802,802,802,802,802,802,802,802,802,802,802,801,801,801,801,801,801,801,801,801,801,801,801,801,801,801,801,801,801,801,801,801,801,801,801,801,801,801,801,801,801,801,801,801,801,801,801,801,801,801,801,801,801,801,800,800,800,800,800,800,800,800,800,792,760,747,741,739,727,683,655,621,614,603,603,602,599,597,595,591,591,591,591,590,588,587,586,583,577,543,519],"ymouse":[658,658,658,658,656,656,654,653,651,644,638,627,622,620,620,620,620,620,620,620,620,620,620,620,620,620,620,620,620,620,620,620,620,620,620,620,620,620,620,620,620,620,620,620,620,620,620,620,620,620,620,620,620,620,620,620,620,620,620,620,620,620,620,620,620,620,620,620,620,620,620,620,620,620,620,620,620,620,620,620,620,620,617,616,616,616,616,616,614,605,552,323,220,118,15,0,0,0,0,0,0,0,0,5,15,27,36,37,37,37,37,37,37,37,38,38,39,39],"timestamp_mouse":[12,39,48,67,87,107,127,148,168,188,207,228,247,267,287,307,328,348,368,389,408,427,447,467,489,508,528,547,568,587,607,627,649,667,687,708,727,748,767,788,807,828,848,869,888,908,928,947,968,988,1007,1028,1047,1067,1087,1108,1127,1147,1168,1187,1207,1227,1248,1268,1289,1308,1328,1348,1367,1387,1409,1428,1448,1468,1487,1507,1528,1548,1568,1588,1608,1628,1647,1667,1688,1708,1727,1748,1767,1787,1807,1828,1847,1867,1887,1909,1928,1948,1967,1988,2007,2027,2053,2067,2087,2108,2127,2148,2167,2187,2209,2228,2247,2267,2287,2307,2327,2347],"xSR":741.5,"ySR":573.95,"xT1":424.9,"yT1":0,"xT2":1058.1,"yT2":0,"toosoon":0,"cond_shown":"Congruent","ratio_trial":100,"L_num":3,"L_den":6,"R_num":2,"R_den":5,"correct_side":1,"subjID":"Miguel Angel Castro Herrera No 11","gender":"0","school":"4","age":"9"},{"start_time":1552313098490,"click_time":1552313100800,"finger_time":1552313100140,"fix_duration":1447.6540893259557,"trial":19,"RT":1650,"MT":660,"sideResp":2,"stimulus":[],"xmouse":[766,766,766,766,766,766,766,766,766,766,766,766,766,766,766,766,766,766,766,766,766,766,766,766,766,766,766,766,766,766,766,766,766,766,766,766,766,766,766,766,766,766,766,766,766,766,766,766,766,766,766,766,766,766,766,766,766,766,766,766,766,766,766,766,766,766,766,766,766,766,766,766,766,766,766,766,766,766,768,777,785,791,805,811,816,823,829,845,855,866,880,907,918,967,982,999,1013,1025,1045,1052,1058,1058,1059,1059,1059,1059,1059,1059,1059,1059,1059,1059,1059,1059,1059,1059],"ymouse":[623,623,623,623,623,623,623,623,623,623,623,623,623,623,623,623,623,623,623,623,623,623,623,623,623,623,623,623,623,623,623,623,623,623,623,623,623,623,623,623,623,623,623,623,623,623,623,623,623,623,623,623,623,623,623,623,623,623,623,623,623,623,623,623,623,623,623,623,623,623,623,623,623,623,623,623,623,623,620,610,600,592,572,562,550,533,518,477,449,411,366,301,278,182,155,126,99,72,23,1,0,0,0,0,0,0,0,0,0,0,0,0,0,0,0,1],"timestamp_mouse":[9,40,49,70,90,110,129,150,171,189,209,229,249,270,289,310,329,349,369,389,409,429,450,469,490,511,529,549,569,590,610,630,649,670,690,710,730,750,769,790,810,829,849,869,891,910,930,950,969,989,1009,1029,1049,1069,1089,1109,1129,1149,1170,1189,1209,1231,1249,1270,1289,1309,1329,1349,1369,1390,1410,1430,1449,1470,1490,1509,1529,1550,1569,1589,1609,1629,1650,1669,1689,1709,1729,1750,1769,1789,1809,1829,1850,1870,1889,1910,1929,1950,1969,1989,2010,2030,2049,2070,2090,2109,2130,2149,2169,2189,2209,2229,2250,2271,2290,2310],"xSR":741.5,"ySR":573.95,"xT1":424.9,"yT1":0,"xT2":1058.1,"yT2":0,"toosoon":0,"cond_shown":"Congruent","ratio_trial":200,"L_num":5,"L_den":10,"R_num":14,"R_den":20,"correct_side":2,"subjID":"Miguel Angel Castro Herrera No 11","gender":"0","school":"4","age":"9"},{"start_time":1552313102615,"click_time":1552313104259,"finger_time":1552313103900,"fix_duration":313.2274552787819,"trial":20,"RT":1285,"MT":359,"sideResp":1,"stimulus":[],"xmouse":[794,794,794,794,794,794,794,794,794,794,794,794,794,794,794,794,794,794,794,794,794,794,794,794,794,794,794,794,794,794,794,794,794,794,794,794,794,794,794,794,794,794,794,794,794,794,794,794,794,794,794,794,794,794,794,794,794,794,794,794,794,794,794,793,785,768,764,741,730,719,709,695,673,663,657,652,646,636,622,603,567,529,452],"ymouse":[613,613,613,613,613,613,613,613,613,613,613,613,613,613,613,613,613,613,613,613,613,613,613,613,613,613,613,613,613,613,613,613,613,613,613,613,613,613,613,613,613,613,613,613,613,613,613,613,613,613,613,613,613,613,613,613,613,613,627,641,649,649,630,579,514,437,425,376,360,344,329,312,285,278,272,264,251,231,211,188,156,129,77],"timestamp_mouse":[10,24,44,65,85,105,125,145,164,184,204,224,244,266,285,304,324,344,364,384,405,424,444,464,485,505,524,544,564,584,604,625,646,665,685,705,724,744,765,784,805,825,844,864,884,904,925,945,964,984,1004,1025,1045,1065,1085,1105,1126,1144,1164,1184,1204,1225,1244,1264,1285,1304,1325,1345,1364,1385,1404,1425,1444,1465,1485,1505,1524,1544,1564,1585,1604,1625,1644],"xSR":741.5,"ySR":573.95,"xT1":424.9,"yT1":0,"xT2":1058.1,"yT2":0,"toosoon":0,"cond_shown":"Incongruent","ratio_trial":300,"L_num":2,"L_den":4,"R_num":6,"R_den":30,"correct_side":1,"subjID":"Miguel Angel Castro Herrera No 11","gender":"0","school":"4","age":"9"},{"start_time":1552313105852,"click_time":1552313108160,"finger_time":1552313107620,"fix_duration":250,"trial":21,"RT":1768,"MT":540,"sideResp":1,"stimulus":[],"xmouse":[793,793,794,795,795,795,795,795,795,795,795,795,795,795,795,795,795,795,795,795,795,795,795,795,795,795,795,795,795,795,795,795,795,795,795,795,795,795,795,795,795,795,795,795,795,795,795,795,795,795,795,795,795,795,795,795,795,795,795,795,795,795,795,795,795,795,795,795,795,795,795,795,795,795,795,795,795,795,795,795,795,795,795,795,795,795,795,795,795,790,781,765,737,700,666,621,616,614,609,587,570,553,540,539,539,539,538,538,538,537,535,534,534,534,533,524],"ymouse":[626,626,625,624,624,624,624,624,624,624,624,624,624,624,624,624,624,624,624,624,624,624,624,624,624,624,624,624,624,624,624,624,624,624,624,624,624,624,624,624,624,624,624,624,624,624,624,624,624,624,624,624,624,624,624,624,624,624,624,624,624,624,624,624,624,624,624,624,624,624,624,624,624,624,624,624,624,624,624,624,624,624,624,624,624,615,600,583,567,526,501,477,440,395,350,283,265,245,223,176,156,144,135,134,134,134,129,119,110,104,98,97,95,95,92,79],"timestamp_mouse":[14,27,47,67,87,107,128,147,168,188,209,227,247,267,288,308,327,349,368,387,407,427,448,468,489,509,528,547,567,587,607,627,648,667,687,707,727,749,767,787,807,828,847,869,887,908,928,947,968,989,1008,1028,1048,1067,1088,1107,1128,1147,1167,1189,1207,1227,1247,1268,1288,1307,1327,1348,1368,1388,1408,1428,1447,1467,1488,1507,1527,1548,1567,1587,1607,1628,1647,1667,1687,1708,1727,1748,1768,1788,1807,1827,1847,1867,1887,1907,1928,1948,1968,1988,2007,2027,2048,2068,2088,2107,2127,2147,2168,2188,2207,2227,2247,2267,2287,2308],"xSR":741.5,"ySR":573.95,"xT1":424.9,"yT1":0,"xT2":1058.1,"yT2":0,"toosoon":0,"cond_shown":"Congruent","ratio_trial":300,"L_num":3,"L_den":6,"R_num":2,"R_den":10,"correct_side":1,"subjID":"Miguel Angel Castro Herrera No 11","gender":"0","school":"4","age":"9"},{"start_time":1552313109652,"click_time":1552313111300,"finger_time":1552313111139,"fix_duration":492.8443287897026,"trial":22,"RT":1487,"MT":161,"sideResp":1,"stimulus":[],"xmouse":[793,793,793,793,793,793,793,793,793,793,793,793,793,793,793,793,793,793,793,793,793,793,793,793,793,793,793,793,793,793,793,793,793,793,793,793,793,793,793,793,793,793,793,793,793,793,793,793,793,793,793,793,793,793,793,793,793,793,793,793,793,793,793,793,793,793,793,793,793,793,793,793,795,795,762,684,638,607,590,567,541,508,470],"ymouse":[619,619,619,619,619,619,619,619,619,619,619,619,619,619,619,619,619,619,619,619,619,619,619,619,619,619,619,619,619,619,619,619,619,619,619,619,619,619,619,619,619,619,619,619,619,619,619,619,619,619,619,619,619,619,619,619,619,619,619,619,619,619,619,619,619,619,619,619,619,619,619,619,618,615,569,445,377,328,288,223,175,133,92],"timestamp_mouse":[12,43,47,67,87,108,127,147,168,188,207,229,248,268,287,307,327,349,368,388,408,428,447,467,488,507,528,548,567,587,608,628,649,667,687,707,728,748,767,788,808,827,848,869,888,907,927,947,968,988,1007,1028,1047,1067,1088,1107,1128,1148,1167,1189,1208,1227,1247,1269,1287,1307,1329,1348,1367,1388,1408,1428,1447,1468,1487,1507,1527,1548,1567,1588,1607,1628,1648],"xSR":741.5,"ySR":573.95,"xT1":424.9,"yT1":0,"xT2":1058.1,"yT2":0,"toosoon":0,"cond_shown":"Congruent","ratio_trial":100,"L_num":15,"L_den":25,"R_num":13,"R_den":26,"correct_side":1,"subjID":"Miguel Angel Castro Herrera No 11","gender":"0","school":"4","age":"9"},{"start_time":1552313116494,"click_time":1552313117959,"finger_time":1552313117440,"fix_duration":973.7035145514559,"trial":23,"RT":946,"MT":519,"sideResp":2,"stimulus":[],"xmouse":[780,780,780,780,780,780,780,780,780,780,780,780,780,780,780,780,780,780,780,780,780,780,780,780,780,780,780,780,780,780,780,780,780,780,780,780,780,780,780,780,780,780,780,780,780,780,803,847,858,863,867,873,889,909,928,946,962,979,980,980,987,993,996,994,991,991,994,1009,1016,1021,1026,1031,1053,1064],"ymouse":[635,635,635,635,635,635,635,635,635,635,635,635,635,635,635,635,635,635,635,635,635,635,635,635,635,635,635,635,635,635,635,635,635,635,635,635,635,635,635,635,635,635,635,635,635,635,635,621,617,613,607,596,561,521,483,435,383,284,255,233,216,201,164,149,130,111,92,60,48,42,39,37,37,37],"timestamp_mouse":[9,43,45,67,86,106,127,146,166,185,206,226,245,265,285,307,325,346,365,386,406,426,446,466,486,505,526,545,565,585,605,625,645,665,685,706,726,745,766,786,805,826,846,865,887,906,925,946,965,985,1005,1026,1046,1065,1085,1106,1125,1146,1165,1185,1205,1226,1246,1265,1286,1306,1325,1346,1365,1385,1405,1426,1446,1465],"xSR":741.5,"ySR":573.95,"xT1":424.9,"yT1":0,"xT2":1058.1,"yT2":0,"toosoon":0,"cond_shown":"Congruent","ratio_trial":300,"L_num":7,"L_den":14,"R_num":20,"R_den":25,"correct_side":2,"subjID":"Miguel Angel Castro Herrera No 11","gender":"0","school":"4","age":"9"},{"start_time":1552313125506,"click_time":1552313127460,"finger_time":1552313127100,"fix_duration":1264.9960228855448,"trial":24,"RT":1594,"MT":360,"sideResp":1,"stimulus":[],"xmouse":[810,810,810,810,810,810,810,810,810,810,810,810,810,810,810,810,810,810,810,810,810,810,810,810,810,810,810,810,810,810,810,810,810,810,810,810,810,810,810,810,810,810,810,810,810,810,810,810,810,810,810,807,807,807,807,807,807,807,807,807,807,807,807,807,807,807,807,807,807,807,807,807,807,807,807,807,807,807,807,807,801,774,750,728,721,703,645,609,570,535,512,470,462,461,461,461,461,456],"ymouse":[638,638,638,638,638,638,638,638,638,638,638,638,638,638,638,638,638,638,638,638,638,638,638,638,638,638,638,638,638,638,638,638,638,638,638,638,638,638,638,638,638,638,638,638,638,638,638,638,638,638,638,638,638,638,638,638,638,638,638,638,638,638,638,638,638,638,638,638,638,638,638,638,638,638,638,638,623,604,579,551,511,428,379,322,303,248,133,76,30,0,0,0,0,0,0,0,0,5],"timestamp_mouse":[14,34,64,73,94,113,135,154,174,193,214,233,253,273,294,314,333,353,374,393,414,435,453,473,494,513,533,553,575,594,615,633,653,674,694,714,733,753,773,793,814,835,853,873,894,913,934,953,973,993,1013,1034,1060,1073,1093,1113,1133,1153,1173,1194,1213,1234,1254,1274,1294,1313,1333,1354,1373,1394,1414,1433,1453,1474,1494,1514,1534,1553,1573,1594,1613,1633,1653,1676,1693,1713,1734,1753,1773,1794,1814,1834,1853,1875,1893,1913,1934,1953],"xSR":741.5,"ySR":573.95,"xT1":424.9,"yT1":0,"xT2":1058.1,"yT2":0,"toosoon":0,"cond_shown":"Congruent","ratio_trial":200,"L_num":21,"L_den":30,"R_num":2,"R_den":4,"correct_side":1,"subjID":"Miguel Angel Castro Herrera No 11","gender":"0","school":"4","age":"9"},{"start_time":1552313129610,"click_time":1552313131459,"finger_time":1552313131199,"fix_duration":1249.1707256688821,"trial":25,"RT":1589,"MT":260,"sideResp":1,"stimulus":[],"xmouse":[805,805,805,805,805,805,805,805,805,805,805,805,805,805,805,805,805,805,805,805,805,805,805,805,805,805,805,805,805,805,805,805,805,805,805,805,805,805,805,805,805,805,805,805,805,805,805,805,805,805,805,805,805,805,805,805,805,805,805,805,805,805,805,805,805,805,805,805,805,805,805,805,805,805,805,805,803,797,792,787,783,773,725,686,649,601,589,568,564,557,547,530,485],"ymouse":[637,637,637,637,637,637,637,637,637,637,637,637,637,637,637,637,637,637,637,637,637,637,637,637,637,637,637,637,637,637,637,637,637,637,637,637,637,636,636,636,636,636,636,636,636,636,636,636,636,636,636,636,636,636,636,636,636,636,636,636,636,636,636,636,636,636,636,636,636,636,636,636,636,636,636,636,634,607,586,571,555,531,441,387,337,268,251,204,186,166,143,119,71],"timestamp_mouse":[9,37,50,69,90,109,130,149,170,190,211,230,250,270,290,309,330,350,370,390,410,430,449,470,489,510,530,550,569,589,610,629,650,669,690,709,729,750,769,790,809,830,850,869,890,910,930,949,969,990,1011,1030,1051,1069,1089,1110,1129,1149,1169,1189,1209,1229,1249,1270,1290,1310,1330,1349,1370,1389,1410,1431,1450,1470,1489,1509,1529,1550,1569,1589,1610,1629,1649,1669,1689,1710,1730,1749,1769,1790,1809,1829,1849],"xSR":741.5,"ySR":573.95,"xT1":424.9,"yT1":0,"xT2":1058.1,"yT2":0,"toosoon":0,"cond_shown":"Congruent","ratio_trial":200,"L_num":4,"L_den":8,"R_num":3,"R_den":10,"correct_side":1,"subjID":"Miguel Angel Castro Herrera No 11","gender":"0","school":"4","age":"9"},{"start_time":1552313133660,"click_time":1552313135360,"finger_time":1552313135240,"fix_duration":1258.1546598267291,"trial":26,"RT":1580,"MT":120,"sideResp":1,"stimulus":[],"xmouse":[794,794,794,794,794,794,794,794,794,794,794,794,794,794,794,794,794,794,794,794,794,794,794,794,794,794,794,794,794,794,794,794,794,794,794,794,794,794,794,794,794,794,794,794,794,794,794,794,794,794,794,794,794,794,794,794,794,794,794,794,794,794,794,794,794,794,794,794,794,794,794,794,794,794,794,794,794,794,792,766,716,664,621,579,550,449],"ymouse":[600,600,600,600,600,600,600,600,600,600,600,600,600,600,600,600,600,600,600,600,600,600,600,600,600,600,600,600,600,600,600,600,600,600,600,600,600,600,600,600,600,600,600,600,600,600,600,600,600,600,600,600,600,600,600,600,600,600,600,600,600,600,600,600,600,600,600,600,600,600,600,600,600,600,600,600,600,600,597,564,505,443,390,325,265,82],"timestamp_mouse":[6,27,44,60,80,99,120,140,159,180,200,220,239,260,280,300,320,340,360,379,399,419,439,460,480,500,519,540,560,579,600,621,640,659,679,699,721,740,759,780,799,821,839,860,880,900,921,940,960,980,999,1020,1039,1060,1080,1099,1119,1140,1160,1179,1200,1219,1239,1260,1280,1300,1319,1340,1361,1380,1399,1420,1439,1460,1480,1500,1520,1540,1559,1580,1599,1620,1640,1660,1679,1700],"xSR":741.5,"ySR":573.95,"xT1":424.9,"yT1":0,"xT2":1058.1,"yT2":0,"toosoon":0,"cond_shown":"Incongruent","ratio_trial":300,"L_num":8,"L_den":10,"R_num":14,"R_den":28,"correct_side":1,"subjID":"Miguel Angel Castro Herrera No 11","gender":"0","school":"4","age":"9"},{"start_time":1552313137141,"click_time":1552313140281,"finger_time":1552313139800,"fix_duration":559.9644827427593,"trial":27,"RT":2659,"MT":481,"sideResp":1,"stimulus":[],"xmouse":[759,759,759,759,759,759,759,759,759,759,759,759,759,759,759,759,759,759,759,759,759,759,759,759,759,759,759,759,759,759,759,759,759,759,759,759,759,759,759,759,759,759,759,759,759,759,759,759,759,759,759,759,759,759,759,759,759,759,759,759,759,759,759,759,759,759,759,759,759,759,759,759,759,759,759,759,759,759,759,759,759,759,759,759,759,759,759,759,759,759,759,759,759,759,760,761,765,767,767,767,767,767,767,767,767,767,767,767,767,767,767,767,767,767,767,767,767,767,767,767,767,767,767,767,767,767,767,767,767,767,767,774,783,793,807,820,843,844,836,800,783,714,700,694,691,687,654,637,631,630,629,620,613,603,590,556,537,522],"ymouse":[619,619,619,619,619,619,619,619,619,619,619,619,619,619,619,619,619,619,619,619,619,619,619,619,619,619,619,619,619,619,619,619,619,619,619,619,619,619,619,619,619,619,619,619,619,619,619,619,619,619,619,619,619,619,619,619,619,619,619,619,619,619,619,619,619,619,619,619,619,619,619,619,619,619,619,619,619,619,619,619,619,619,619,619,619,619,619,619,619,619,619,619,619,619,619,616,601,598,597,597,597,597,597,597,597,597,597,597,597,597,597,597,597,597,597,597,597,597,597,597,597,597,597,597,597,597,597,597,597,597,596,589,578,562,541,517,452,413,360,275,251,172,158,146,126,90,0,0,0,0,0,0,2,3,6,12,16,21],"timestamp_mouse":[1,20,39,58,78,99,118,139,158,178,200,218,239,258,279,298,319,339,358,379,399,418,438,459,478,498,519,539,559,578,598,619,639,658,679,698,719,739,758,778,799,819,839,858,879,898,918,939,959,978,999,1018,1038,1059,1078,1099,1118,1139,1159,1179,1199,1219,1239,1259,1278,1299,1318,1339,1359,1379,1398,1419,1438,1459,1479,1499,1518,1539,1560,1579,1599,1618,1639,1659,1679,1698,1719,1739,1759,1779,1799,1818,1839,1858,1878,1898,1918,1938,1960,1979,1998,2018,2040,2059,2079,2099,2118,2139,2159,2179,2199,2218,2239,2259,2278,2299,2319,2339,2359,2379,2398,2419,2439,2458,2478,2498,2518,2540,2559,2579,2598,2618,2638,2659,2678,2698,2718,2739,2758,2778,2798,2818,2839,2859,2878,2898,2918,2938,2959,2980,2998,3018,3039,3058,3079,3100,3118,3139],"xSR":741.5,"ySR":573.95,"xT1":424.9,"yT1":0,"xT2":1058.1,"yT2":0,"toosoon":0,"cond_shown":"Congruent","ratio_trial":200,"L_num":3,"L_den":6,"R_num":14,"R_den":20,"correct_side":2,"subjID":"Miguel Angel Castro Herrera No 11","gender":"0","school":"4","age":"9"},{"start_time":1552313141653,"click_time":1552313143319,"finger_time":1552313143119,"fix_duration":272.74983910091254,"trial":28,"RT":1466,"MT":200,"sideResp":2,"stimulus":[],"xmouse":[749,749,749,749,749,749,749,749,749,749,749,749,749,749,749,749,749,749,749,749,749,749,749,749,749,749,749,749,749,749,749,749,749,749,749,749,749,749,749,749,749,749,749,749,749,749,749,749,749,749,749,749,749,749,749,749,749,749,749,749,749,749,749,749,749,749,749,749,749,749,749,749,758,778,792,872,906,939,969,1002,1048,1066,1085,1100],"ymouse":[602,602,602,602,602,602,602,602,602,602,602,602,602,602,602,602,602,602,602,602,602,602,602,602,602,602,602,602,602,602,602,602,602,602,602,602,602,602,602,602,602,602,602,602,602,602,602,602,602,602,602,602,602,602,602,602,602,602,602,602,602,602,602,602,602,602,602,602,602,602,602,602,590,563,546,453,413,375,336,284,198,155,107,60],"timestamp_mouse":[12,26,46,66,86,106,126,146,166,187,206,226,246,268,287,307,326,346,366,386,406,427,448,466,487,506,526,547,567,587,607,627,646,666,686,707,727,747,766,787,807,826,847,868,887,908,927,947,968,987,1006,1027,1046,1066,1087,1106,1128,1147,1167,1187,1207,1226,1246,1266,1286,1306,1328,1347,1366,1386,1406,1427,1446,1466,1487,1506,1526,1546,1566,1587,1606,1626,1647,1666],"xSR":741.5,"ySR":573.95,"xT1":424.9,"yT1":0,"xT2":1058.1,"yT2":0,"toosoon":0,"cond_shown":"Incongruent","ratio_trial":200,"L_num":9,"L_den":15,"R_num":8,"R_den":10,"correct_side":2,"subjID":"Miguel Angel Castro Herrera No 11","gender":"0","school":"4","age":"9"},{"start_time":1552313147243,"click_time":1552313148700,"finger_time":1552313148579,"fix_duration":1422.3137022129176,"trial":29,"RT":1336,"MT":121,"sideResp":1,"stimulus":[],"xmouse":[809,809,809,809,809,809,809,809,809,809,809,809,809,809,809,809,809,809,809,809,809,809,809,809,809,809,809,809,809,809,809,809,809,809,809,809,809,809,809,809,809,809,809,809,809,809,809,809,809,809,809,809,809,809,809,809,809,809,809,809,809,809,809,809,809,801,787,766,730,687,589,547,524],"ymouse":[618,618,618,618,618,618,618,618,618,618,618,618,618,618,618,618,618,618,618,618,618,618,618,618,618,618,618,618,618,618,618,618,618,618,618,618,618,618,618,618,618,618,618,618,618,618,618,618,618,618,618,618,618,618,618,618,618,618,618,618,618,618,618,618,618,581,529,464,383,288,127,58,13],"timestamp_mouse":[16,36,57,76,97,116,136,156,177,196,216,237,256,276,296,318,337,356,377,396,417,436,458,476,497,518,537,557,576,596,616,636,656,676,696,716,737,756,776,796,817,837,856,876,896,917,936,957,977,996,1017,1036,1056,1077,1096,1116,1138,1157,1177,1196,1216,1236,1257,1276,1296,1316,1336,1357,1376,1397,1416,1437,1456],"xSR":741.5,"ySR":573.95,"xT1":424.9,"yT1":0,"xT2":1058.1,"yT2":0,"toosoon":0,"cond_shown":"Incongruent","ratio_trial":200,"L_num":7,"L_den":10,"R_num":12,"R_den":24,"correct_side":1,"subjID":"Miguel Angel Castro Herrera No 11","gender":"0","school":"4","age":"9"},{"start_time":1552313151453,"click_time":1552313153279,"finger_time":1552313152620,"fix_duration":250,"trial":30,"RT":1167,"MT":659,"sideResp":1,"stimulus":[],"xmouse":[833,833,833,833,833,833,833,833,829,823,822,822,822,822,822,822,822,822,822,822,822,822,822,822,822,822,822,822,822,822,822,822,822,822,822,822,822,822,822,822,822,822,822,822,822,822,822,822,822,822,822,822,822,822,822,822,822,822,822,813,813,813,813,813,811,784,753,718,693,666,663,663,663,663,662,656,649,643,637,621,609,598,586,579,573,563,559,553,549,542,527,512],"ymouse":[621,621,621,621,621,621,621,621,614,603,602,602,602,602,602,602,602,602,602,602,602,602,602,602,602,602,602,602,602,602,602,602,602,602,602,602,602,602,602,602,602,602,602,602,602,602,602,602,602,602,602,602,602,602,602,602,602,585,533,485,484,481,478,474,459,408,364,328,304,282,281,281,281,281,279,260,248,233,218,185,164,146,127,115,106,86,80,73,67,60,48,41],"timestamp_mouse":[10,26,46,67,86,107,126,146,166,187,208,227,247,267,287,306,326,347,366,386,407,427,446,466,486,506,526,546,568,587,606,626,646,667,687,706,727,747,767,786,807,826,847,866,887,907,927,947,967,987,1008,1026,1047,1067,1086,1106,1126,1147,1167,1187,1206,1226,1246,1267,1286,1306,1327,1347,1366,1387,1406,1426,1446,1467,1486,1507,1527,1547,1566,1587,1606,1627,1647,1667,1686,1707,1727,1748,1767,1786,1806,1826],"xSR":741.5,"ySR":573.95,"xT1":424.9,"yT1":0,"xT2":1058.1,"yT2":0,"toosoon":0,"cond_shown":"Incongruent","ratio_trial":200,"L_num":7,"L_den":10,"R_num":8,"R_den":16,"correct_side":1,"subjID":"Miguel Angel Castro Herrera No 11","gender":"0","school":"4","age":"9"},{"start_time":1552313156411,"click_time":1552313158459,"finger_time":1552313158059,"fix_duration":250,"trial":31,"RT":1648,"MT":400,"sideResp":1,"stimulus":[],"xmouse":[754,754,754,754,754,754,754,754,754,754,754,754,754,754,754,754,754,754,754,754,754,754,754,754,754,754,754,754,754,754,754,754,754,754,754,754,754,754,754,754,754,754,754,754,754,754,754,754,754,754,754,754,754,754,754,754,754,754,754,754,754,754,754,754,754,754,754,754,754,754,754,754,754,754,754,754,754,754,754,754,754,754,752,736,727,722,716,711,711,711,710,707,704,699,692,668,620,594,583,578,574,569,522],"ymouse":[630,628,628,628,628,628,628,628,628,628,628,628,628,628,628,628,628,628,628,628,628,628,628,628,628,628,628,628,628,628,628,628,628,628,628,628,628,628,628,628,628,628,628,628,628,628,628,628,628,628,628,628,628,628,628,628,628,628,628,628,628,628,628,628,628,628,628,628,628,628,628,628,628,628,628,628,628,628,628,628,625,613,433,335,277,257,227,210,208,207,204,198,194,187,174,145,93,75,69,68,67,63,26],"timestamp_mouse":[10,37,49,68,88,108,128,149,169,189,209,229,248,269,289,309,329,349,368,388,409,428,449,469,489,508,529,548,569,590,609,628,648,669,688,709,728,749,768,789,810,828,849,869,889,909,928,949,969,988,1008,1029,1048,1068,1088,1109,1128,1148,1168,1189,1208,1229,1249,1269,1289,1309,1329,1348,1369,1389,1409,1430,1448,1469,1489,1510,1529,1548,1570,1588,1608,1628,1648,1668,1688,1709,1728,1749,1769,1788,1809,1828,1848,1868,1888,1909,1928,1948,1968,1988,2008,2029,2048],"xSR":741.5,"ySR":573.95,"xT1":424.9,"yT1":0,"xT2":1058.1,"yT2":0,"toosoon":0,"cond_shown":"Incongruent","ratio_trial":100,"L_num":6,"L_den":10,"R_num":13,"R_den":26,"correct_side":1,"subjID":"Miguel Angel Castro Herrera No 11","gender":"0","school":"4","age":"9"},{"start_time":1552313160645,"click_time":1552313162020,"finger_time":1552313161879,"fix_duration":1104.0516574360868,"trial":32,"RT":1234,"MT":141,"sideResp":1,"stimulus":[],"xmouse":[773,773,773,773,773,773,773,773,773,776,780,782,782,782,782,782,782,782,782,782,782,782,782,782,783,785,785,785,785,785,785,785,785,783,775,773,773,773,773,773,773,773,773,773,773,773,773,773,773,773,773,773,773,773,773,773,773,773,773,773,773,768,761,747,721,594,537,488,454],"ymouse":[619,619,619,619,619,619,619,619,619,619,618,618,618,618,618,618,618,618,618,618,618,618,618,617,616,615,615,615,615,615,615,615,615,614,612,611,611,611,611,611,611,611,611,611,611,611,611,611,611,611,611,611,611,611,611,611,611,611,611,599,582,561,536,499,447,263,188,127,80],"timestamp_mouse":[14,35,55,84,95,114,135,154,174,194,214,234,255,274,295,315,334,355,374,395,414,434,455,474,494,514,536,555,574,595,614,636,654,674,695,714,734,754,774,794,814,835,854,875,894,915,934,955,974,994,1015,1036,1054,1075,1095,1114,1134,1156,1174,1195,1214,1234,1254,1275,1294,1314,1335,1356,1375],"xSR":741.5,"ySR":573.95,"xT1":424.9,"yT1":0,"xT2":1058.1,"yT2":0,"toosoon":0,"cond_shown":"Incongruent","ratio_trial":200,"L_num":7,"L_den":10,"R_num":14,"R_den":28,"correct_side":1,"subjID":"Miguel Angel Castro Herrera No 11","gender":"0","school":"4","age":"9"},{"start_time":1552313163631,"click_time":1552313165540,"finger_time":1552313164899,"fix_duration":250,"trial":33,"RT":1268,"MT":641,"sideResp":1,"stimulus":[],"xmouse":[804,804,804,804,804,804,804,804,804,804,804,804,804,804,805,806,807,807,807,807,807,807,807,807,807,807,807,807,807,807,808,808,806,804,800,799,799,799,799,799,799,799,799,799,799,799,799,799,799,799,799,799,799,799,799,799,799,799,799,799,796,792,787,781,767,748,671,637,621,619,619,619,619,619,619,619,619,619,619,619,619,619,619,619,619,619,618,617,614,611,607,597,587,572,546,493],"ymouse":[649,649,649,649,649,649,649,649,649,649,649,649,649,649,648,648,648,648,648,648,648,648,648,648,648,648,648,648,648,648,648,647,647,647,646,646,646,646,646,646,646,646,646,646,646,646,646,646,646,646,646,646,646,646,646,646,646,646,646,646,629,614,592,558,500,427,203,122,77,69,69,69,69,68,68,68,68,68,68,68,68,68,68,68,68,68,68,63,60,58,55,52,49,41,31,12],"timestamp_mouse":[18,47,48,68,87,109,129,149,169,188,209,229,248,268,289,308,328,348,368,389,408,428,449,469,488,509,529,549,568,588,609,628,649,668,688,709,729,749,769,788,808,828,849,868,888,909,929,949,968,988,1009,1029,1049,1068,1088,1109,1128,1148,1169,1188,1209,1228,1248,1268,1289,1309,1328,1348,1368,1389,1408,1428,1448,1469,1488,1508,1529,1548,1569,1588,1609,1628,1649,1668,1688,1708,1727,1748,1769,1788,1808,1828,1849,1868,1889,1908],"xSR":741.5,"ySR":573.95,"xT1":424.9,"yT1":0,"xT2":1058.1,"yT2":0,"toosoon":0,"cond_shown":"Incongruent","ratio_trial":100,"L_num":9,"L_den":15,"R_num":14,"R_den":28,"correct_side":1,"subjID":"Miguel Angel Castro Herrera No 11","gender":"0","school":"4","age":"9"},{"start_time":1552313168730,"click_time":1552313170959,"finger_time":1552313170539,"fix_duration":250,"trial":34,"RT":1809,"MT":420,"sideResp":2,"stimulus":[],"xmouse":[776,776,776,776,776,776,776,776,776,776,776,776,776,776,776,776,776,776,776,776,776,776,776,776,776,776,776,776,776,776,776,776,776,776,776,776,776,776,776,776,776,776,776,776,776,776,776,776,776,776,776,776,776,776,776,776,776,776,776,776,776,776,776,776,776,776,776,776,776,776,776,776,776,776,776,776,776,776,776,777,783,797,806,810,812,812,812,812,815,821,857,924,951,977,994,1020,1028,1035,1040,1046,1052,1081,1089,1096,1100,1102,1107,1109,1111,1115,1115,1118],"ymouse":[634,634,634,634,634,634,634,634,634,634,634,634,634,634,634,634,634,634,634,634,634,634,634,634,634,634,634,634,634,634,634,634,634,634,634,634,634,634,634,634,634,634,634,634,634,634,634,634,634,634,634,634,634,634,634,634,634,634,634,634,634,634,634,634,634,634,634,634,634,634,634,634,634,634,634,634,634,634,634,634,635,637,640,641,642,642,642,642,642,634,574,478,435,399,370,330,318,310,304,295,283,236,219,200,182,168,142,132,124,110,107,87],"timestamp_mouse":[12,44,49,69,89,110,130,149,170,190,209,230,249,270,290,309,329,350,370,389,409,430,450,470,490,510,529,550,569,590,609,629,650,669,689,710,729,749,770,789,810,829,850,869,890,909,929,950,970,990,1009,1029,1050,1070,1090,1110,1129,1150,1169,1190,1209,1230,1250,1269,1290,1309,1329,1350,1370,1389,1410,1429,1450,1470,1489,1510,1529,1550,1570,1590,1609,1629,1649,1669,1689,1710,1730,1749,1769,1789,1809,1829,1849,1869,1889,1910,1928,1949,1970,1989,2009,2029,2049,2070,2089,2109,2129,2149,2169,2190,2209,2229],"xSR":741.5,"ySR":573.95,"xT1":424.9,"yT1":0,"xT2":1058.1,"yT2":0,"toosoon":0,"cond_shown":"Incongruent","ratio_trial":200,"L_num":14,"L_den":30,"R_num":6,"R_den":9,"correct_side":2,"subjID":"Miguel Angel Castro Herrera No 11","gender":"0","school":"4","age":"9"},{"start_time":1552313175195,"click_time":1552313176867,"finger_time":1552313176699,"fix_duration":1173.8756803754513,"trial":35,"RT":1504,"MT":168,"sideResp":1,"stimulus":[],"xmouse":[796,796,796,796,796,796,796,796,796,796,796,796,796,796,796,796,796,796,796,796,796,796,796,796,796,797,797,797,797,797,797,797,797,797,797,797,797,797,797,797,797,797,797,797,797,797,797,797,797,797,797,797,797,797,797,797,797,797,797,797,797,797,797,797,797,797,797,797,797,797,797,797,796,793,786,775,755,708,629,589,547,514,489,469],"ymouse":[599,599,599,599,599,599,599,599,599,599,599,599,599,599,599,599,599,599,599,599,599,599,599,599,599,599,599,599,599,599,599,599,599,599,599,599,599,599,599,599,599,599,599,599,599,599,599,599,599,599,599,599,599,599,599,599,599,599,599,599,599,599,599,599,599,599,599,599,599,599,599,597,592,587,576,556,523,445,311,247,187,142,115,93],"timestamp_mouse":[10,24,44,65,84,105,125,144,165,184,204,224,245,264,285,305,324,345,364,385,405,424,445,464,485,504,524,545,564,585,604,625,644,665,684,705,725,744,764,785,805,824,845,864,884,905,925,944,965,985,1005,1025,1044,1064,1084,1104,1124,1144,1164,1184,1205,1224,1244,1264,1285,1304,1324,1344,1364,1384,1405,1424,1444,1464,1485,1504,1524,1544,1566,1585,1605,1625,1645,1672],"xSR":741.5,"ySR":573.95,"xT1":424.9,"yT1":0,"xT2":1058.1,"yT2":0,"toosoon":0,"cond_shown":"Incongruent","ratio_trial":300,"L_num":8,"L_den":10,"R_num":9,"R_den":18,"correct_side":1,"subjID":"Miguel Angel Castro Herrera No 11","gender":"0","school":"4","age":"9"},{"start_time":1552313178392,"click_time":1552313179961,"finger_time":1552313179659,"fix_duration":250,"trial":36,"RT":1267,"MT":302,"sideResp":1,"stimulus":[],"xmouse":[795,795,795,795,795,795,795,795,795,795,795,795,795,795,795,795,795,795,795,795,795,795,795,795,795,795,795,795,795,795,795,795,795,795,795,795,795,795,795,795,795,795,795,795,795,795,795,795,795,795,795,795,795,795,795,795,795,795,795,795,795,796,791,783,772,750,714,642,540,514,501,497,493,489,482,476,472,469,469],"ymouse":[626,626,626,626,626,626,626,626,626,626,626,626,626,626,626,626,626,626,626,626,626,626,626,626,626,626,626,626,626,626,626,626,626,626,626,626,626,626,626,626,626,626,626,626,626,626,626,626,626,626,626,626,626,626,626,626,626,626,626,626,626,623,595,571,540,491,425,324,206,176,158,152,146,139,128,117,107,100,99],"timestamp_mouse":[9,40,48,67,87,107,128,148,168,187,208,227,248,268,288,309,328,347,367,387,408,428,447,467,487,508,528,548,568,587,607,627,648,668,687,707,728,747,768,788,807,828,847,868,888,907,928,948,968,988,1007,1027,1047,1067,1088,1107,1127,1148,1168,1188,1208,1227,1247,1267,1287,1307,1327,1347,1368,1388,1408,1427,1448,1467,1487,1507,1527,1547,1568],"xSR":741.5,"ySR":573.95,"xT1":424.9,"yT1":0,"xT2":1058.1,"yT2":0,"toosoon":0,"cond_shown":"Congruent","ratio_trial":200,"L_num":20,"L_den":25,"R_num":9,"R_den":15,"correct_side":1,"subjID":"Miguel Angel Castro Herrera No 11","gender":"0","school":"4","age":"9"},{"start_time":1552313182795,"click_time":1552313185844,"finger_time":1552313184839,"fix_duration":1454.4654279348947,"trial":37,"RT":2044,"MT":1005,"sideResp":1,"stimulus":[],"xmouse":[786,786,786,786,786,786,786,786,786,786,786,786,786,786,786,786,786,786,786,786,786,786,786,786,786,786,786,786,786,786,786,786,786,786,786,786,786,786,786,786,786,786,786,786,786,786,786,786,786,786,786,786,786,786,786,786,786,784,784,784,784,784,784,784,784,784,784,784,781,776,770,762,755,755,755,755,755,757,758,758,758,758,758,758,760,763,768,770,770,770,770,770,770,770,770,770,770,776,797,813,825,834,843,843,843,843,843,843,843,843,843,843,843,843,843,843,843,843,843,842,838,832,817,813,812,812,812,812,812,812,809,808,802,794,784,780,779,777,769,764,754,739,678,649,632,622,612,608,572,548,525,504,491],"ymouse":[638,638,638,638,638,638,638,638,638,638,638,638,638,638,638,638,638,638,638,638,638,638,638,638,638,638,638,638,638,638,638,638,638,638,638,638,638,638,638,638,638,638,638,638,638,638,638,638,638,638,638,638,638,638,638,638,638,637,637,637,637,637,637,637,637,637,637,637,630,626,625,625,627,627,627,627,627,627,627,627,627,627,627,627,627,627,627,627,627,627,627,627,627,627,627,627,627,626,626,626,626,626,626,626,626,626,626,626,626,626,626,626,626,626,626,626,626,626,626,625,625,622,617,616,616,616,616,616,612,607,602,599,593,590,584,580,577,534,431,369,309,250,139,88,57,35,15,10,0,0,0,0,2],"timestamp_mouse":[10,24,45,65,85,104,124,145,165,184,204,225,244,265,285,304,324,345,364,384,405,424,445,464,485,504,524,544,564,585,605,624,644,664,684,705,725,745,764,785,804,824,845,864,884,904,925,945,964,984,1004,1024,1044,1064,1085,1105,1124,1145,1164,1185,1204,1224,1245,1264,1284,1304,1325,1344,1364,1384,1404,1425,1444,1465,1484,1504,1524,1544,1565,1584,1604,1624,1645,1664,1685,1704,1724,1745,1764,1785,1804,1825,1844,1864,1884,1904,1925,1944,1964,1984,2004,2024,2044,2064,2084,2104,2124,2145,2165,2184,2205,2225,2245,2264,2284,2305,2324,2345,2365,2384,2405,2425,2444,2464,2485,2504,2525,2545,2564,2584,2604,2624,2646,2664,2684,2705,2725,2744,2764,2784,2804,2825,2844,2864,2884,2904,2925,2945,2964,2984,3005,3024,3048],"xSR":741.5,"ySR":573.95,"xT1":424.9,"yT1":0,"xT2":1058.1,"yT2":0,"toosoon":0,"cond_shown":"Congruent","ratio_trial":300,"L_num":3,"L_den":12,"R_num":11,"R_den":20,"correct_side":2,"subjID":"Miguel Angel Castro Herrera No 11","gender":"0","school":"4","age":"9"},{"start_time":1552313189721,"click_time":1552313191521,"finger_time":1552313191339,"fix_duration":479.9071767093482,"trial":38,"RT":1618,"MT":182,"sideResp":2,"stimulus":[],"xmouse":[774,774,774,774,774,774,774,774,774,774,774,774,774,774,774,774,774,774,774,774,774,774,774,774,774,774,774,774,774,774,774,774,774,774,774,774,774,774,774,774,774,774,774,774,774,774,774,774,774,774,774,774,774,774,774,774,774,774,774,774,774,774,774,774,774,774,774,774,776,776,776,777,778,778,778,779,780,788,806,831,865,938,960,975,989,1042,1071,1087,1091,1088],"ymouse":[608,608,608,608,608,608,608,608,608,608,608,608,608,608,608,608,608,608,608,608,608,608,608,608,608,608,608,608,608,608,608,608,608,608,608,608,608,608,608,608,608,608,608,608,608,608,608,608,608,608,608,608,608,608,608,608,608,608,608,608,608,608,608,608,608,608,608,608,609,609,609,609,609,609,609,609,609,607,594,576,551,487,470,453,437,366,306,226,131,46],"timestamp_mouse":[18,38,59,79,99,119,138,159,179,199,219,239,259,279,299,318,339,359,378,399,418,439,458,479,499,519,539,559,578,598,618,638,658,679,699,719,738,758,778,799,818,839,858,879,898,919,939,959,979,999,1018,1038,1058,1078,1099,1119,1138,1160,1178,1199,1219,1239,1259,1278,1299,1319,1339,1359,1379,1398,1418,1439,1458,1478,1498,1518,1538,1558,1579,1599,1618,1639,1658,1678,1698,1718,1738,1758,1778,1799],"xSR":741.5,"ySR":573.95,"xT1":424.9,"yT1":0,"xT2":1058.1,"yT2":0,"toosoon":0,"cond_shown":"Congruent","ratio_trial":200,"L_num":3,"L_den":10,"R_num":14,"R_den":28,"correct_side":2,"subjID":"Miguel Angel Castro Herrera No 11","gender":"0","school":"4","age":"9"},{"start_time":1552313193216,"click_time":1552313195200,"finger_time":1552313194539,"fix_duration":894.4437648758661,"trial":39,"RT":1323,"MT":661,"sideResp":2,"stimulus":[],"xmouse":[803,803,803,803,803,803,803,803,803,803,803,803,803,803,803,803,803,803,803,803,803,803,803,803,803,803,803,803,803,803,803,803,803,803,803,803,803,803,803,803,803,803,803,803,803,803,803,803,803,803,803,803,803,803,803,803,803,803,803,803,803,803,805,807,814,828,854,881,887,897,913,955,979,1005,1028,1051,1072,1110,1119,1124,1128,1135,1139,1144,1147,1150,1150,1146,1141,1138,1136,1134,1131,1130,1129,1127,1126,1122,1120,1118],"ymouse":[612,612,612,612,612,612,612,612,612,612,612,612,612,612,612,612,612,612,612,612,612,612,612,612,612,612,612,612,612,612,612,612,612,612,612,612,612,612,612,612,612,612,612,612,612,612,612,612,612,612,612,612,612,612,612,612,612,612,612,612,612,612,612,612,607,594,549,477,463,452,442,417,406,392,378,365,353,323,317,313,309,300,294,284,274,251,236,206,192,179,170,164,154,149,143,137,124,107,101,96],"timestamp_mouse":[13,28,44,64,83,104,124,143,164,184,204,224,244,264,284,304,324,344,364,384,404,424,444,464,483,504,524,543,564,584,604,623,644,664,684,704,724,744,763,784,804,823,843,864,884,904,924,944,964,984,1003,1023,1044,1064,1084,1104,1123,1143,1163,1182,1202,1222,1242,1262,1284,1303,1323,1343,1363,1383,1404,1423,1443,1463,1483,1504,1523,1543,1564,1584,1603,1624,1643,1663,1683,1704,1723,1743,1764,1784,1803,1823,1843,1863,1883,1904,1923,1943,1964,1984],"xSR":741.5,"ySR":573.95,"xT1":424.9,"yT1":0,"xT2":1058.1,"yT2":0,"toosoon":0,"cond_shown":"Incongruent","ratio_trial":300,"L_num":4,"L_den":20,"R_num":