[{"start_time":1552313633245,"click_time":1552313636345,"finger_time":1552313635024,"fix_duration":1196.6268556660082,"trial":0,"RT":1779,"MT":1321,"sideResp":1,"stimulus":"img/900/equaldotsize/L/2_Ratio_900_L_20_R_18.png","xmouse":[804,804,804,804,804,804,804,804,804,804,804,804,804,804,804,804,804,804,804,804,804,804,804,804,804,804,804,804,804,804,804,804,804,804,804,804,804,804,804,804,804,804,804,804,804,804,804,804,804,804,804,804,804,804,804,804,804,804,804,804,804,804,804,804,804,804,804,804,804,804,804,804,804,804,804,804,804,804,804,804,804,804,804,804,804,804,804,810,822,892,909,909,910,921,928,928,928,921,921,921,921,921,921,921,921,921,921,921,921,921,921,921,921,164,19,0,0,0,0,0,0,8,27,52,74,85,103,123,162,174,181,183,184,186,196,198,202,204,215,222,230,238,248,266,288,303,320,342,380,400,431,452,470,502,515,520],"ymouse":[552,552,552,552,552,552,552,552,552,552,552,552,552,552,552,552,552,552,552,552,552,552,552,552,552,552,552,552,552,552,552,552,552,552,552,552,552,552,552,552,552,552,552,552,552,552,552,552,552,552,552,552,552,552,552,552,552,552,552,552,552,552,552,552,552,552,552,552,552,552,552,552,552,552,552,552,552,552,552,552,552,552,552,552,552,552,552,552,552,495,438,403,378,298,195,127,62,10,10,10,10,10,10,10,10,10,10,10,10,10,10,10,10,8,84,130,164,187,243,288,344,403,444,477,479,479,477,477,480,481,482,482,482,481,459,437,413,393,354,336,322,306,293,288,288,285,276,256,217,201,170,152,142,119,102,93],"timestamp_mouse":[11,20,43,60,80,100,120,140,159,180,200,220,240,261,280,299,319,339,359,380,400,419,440,460,480,500,520,540,559,580,599,620,640,660,679,700,720,740,759,780,799,820,839,860,879,900,919,940,959,980,999,1019,1040,1060,1080,1099,1120,1139,1159,1180,1200,1220,1241,1260,1280,1299,1319,1340,1360,1380,1399,1420,1440,1460,1479,1500,1520,1540,1559,1580,1599,1619,1639,1660,1680,1700,1719,1739,1760,1779,1799,1820,1839,1860,1879,1899,1920,1939,1959,1980,1999,2020,2039,2060,2079,2099,2120,2139,2160,2179,2199,2219,2239,2260,2279,2299,2319,2340,2360,2379,2399,2419,2439,2459,2480,2499,2519,2539,2560,2579,2600,2620,2639,2660,2679,2699,2720,2739,2761,2779,2799,2819,2839,2859,2879,2899,2920,2940,2959,2979,2999,3020,3040,3059,3079,3100],"xSR":741.5,"ySR":500.5,"xT1":424.9,"yT1":0,"xT2":1058.1,"yT2":0,"toosoon":0,"cond_shown":"equaldotsize","ratio_trial":900,"smaller_num":"18","larger_num":"20","correct_side":1,"subjID":"miguelangelcastro11","gender":"0","age":"9","school":"4","test":{"fix_dur":[250,1500],"timestim":300,"targets_dim":[100,100],"targets_relative_coord":[0.3,0.7],"size_stim":[880,420],"start_dim":[100,100],"size_start":[300,300],"size_fix":60,"samplingrate":20,"img_types":["equaldotsize","equaldotanddens","randomdotsizeEA"],"ratios":[250,500,750,900],"rep_conds":9,"nTrials":120,"trials_to_rest":500,"Trials_order":[9,89,110,115,57,113,117,66,39,50,47,69,118,2,14,56,93,49,52,41,12,98,116,71,79,78,60,33,48,25,67,103,54,35,1,106,64,24,38,82,114,13,10,95,21,16,32,23,100,104,94,44,86,19,3,68,99,58,43,42,63,102,77,88,40,112,0,31,26,28,11,76,84,22,96,15,7,27,105,8,61,34,101,5,80,91,29,20,4,51,111,75,119,97,73,70,90,30,72,45,85,17,62,36,92,46,81,18,55,87,59,74,6,109,107,83,108,53,37,65],"cond_shown":["equaldotsize","randomdotsizeEA","randomdotsizeEA","equaldotanddens","equaldotsize","randomdotsizeEA","equaldotsize","equaldotsize","equaldotsize","randomdotsizeEA","randomdotsizeEA","equaldotsize","equaldotanddens","randomdotsizeEA","randomdotsizeEA","randomdotsizeEA","equaldotsize","equaldotanddens","equaldotanddens","randomdotsizeEA","equaldotsize","randomdotsizeEA","randomdotsizeEA","randomdotsizeEA","equaldotanddens","equaldotsize","equaldotsize","equaldotsize","equaldotsize","equaldotanddens","equaldotanddens","equaldotanddens","equaldotsize","randomdotsizeEA","equaldotanddens","equaldotanddens","equaldotanddens","equaldotsize","randomdotsizeEA","equaldotanddens","equaldotsize","equaldotanddens","equaldotanddens","randomdotsizeEA","equaldotsize","equaldotanddens","randomdotsizeEA","randomdotsizeEA","equaldotanddens","randomdotsizeEA","equaldotanddens","randomdotsizeEA","randomdotsizeEA","equaldotanddens","equaldotsize","randomdotsizeEA","equaldotsize","equaldotanddens","equaldotanddens","equaldotsize","equaldotsize","equaldotsize","randomdotsizeEA","equaldotanddens","equaldotanddens","equaldotanddens","equaldotsize","equaldotanddens","randomdotsizeEA","equaldotanddens","randomdotsizeEA","equaldotanddens","equaldotsize","equaldotanddens","equaldotsize","equaldotsize","equaldotanddens","equaldotsize","equaldotsize","randomdotsizeEA","equaldotanddens","equaldotanddens","randomdotsizeEA","randomdotsizeEA","randomdotsizeEA","equaldotanddens","randomdotsizeEA","randomdotsizeEA","equaldotanddens","equaldotsize","equaldotsize","equaldotsize","randomdotsizeEA","equaldotanddens","equaldotanddens","equaldotanddens","equaldotsize","equaldotsize","equaldotsize","equaldotsize","equaldotanddens","randomdotsizeEA","randomdotsizeEA","equaldotsize","randomdotsizeEA","equaldotanddens","equaldotsize","equaldotsize","equaldotanddens","equaldotsize","randomdotsizeEA","randomdotsizeEA","equaldotsize","equaldotanddens","randomdotsizeEA","randomdotsizeEA","equaldotsize","randomdotsizeEA","equaldotanddens","randomdotsizeEA"],"ratio_trial":[900,500,250,750,900,500,900,750,500,250,900,900,900,250,250,750,900,250,500,500,250,250,750,900,750,750,250,900,250,250,750,750,750,900,250,900,500,250,250,900,750,250,900,900,900,500,750,900,500,750,900,750,250,750,500,750,500,900,750,750,500,750,500,500,500,500,250,750,250,500,900,500,250,900,250,500,750,500,900,750,250,900,500,500,750,750,500,750,500,500,500,500,900,250,250,900,750,750,250,900,250,500,250,250,750,900,900,750,750,500,900,250,750,250,900,900,250,500,250,500],"smaller_num":["18","10","2","18","18","5","9","6","6","3","18","18","18","1","4","9","9","3","5","2","4","4","15","18","6","15","3","18","3","3","15","15","15","9","2","18","6","6","2","9","3","3","18","18","9","10","12","18","6","3","18","15","2","3","6","6","6","18","15","18","6","15","6","4","2","9","5","6","3","6","18","5","4","18","4","1","3","5","18","3","4","18","2","3","15","18","5","3","10","9","6","2","9","3","6","9","6","3","1","9","3","9","3","6","6","18","18","15","18","9","18","3","3","2","9","18","6","5","6","1"],"larger_num":["20","20","8","24","20","10","10","8","12","12","20","20","20","4","16","12","10","12","10","4","16","16","20","20","8","20","12","20","12","12","20","20","20","10","8","20","12","24","8","10","4","12","20","20","10","20","16","20","12","4","20","20","8","4","12","8","12","20","20","24","12","20","12","8","4","18","20","8","12","12","20","10","16","20","16","2","4","10","20","4","16","20","4","6","20","24","10","4","20","18","12","4","10","12","24","10","8","4","4","10","12","18","12","24","8","20","20","20","24","18","20","12","4","8","10","20","24","10","24","2"],"correct_side":[1,2,1,1,2,2,2,1,1,1,2,2,1,2,1,2,2,1,2,1,2,2,2,1,2,2,1,1,1,1,2,2,2,1,2,2,1,2,1,1,1,2,2,2,2,2,2,1,1,2,1,2,1,2,1,2,1,2,2,1,1,2,1,1,1,2,2,2,2,1,2,1,1,2,1,2,1,1,1,1,1,1,1,2,2,1,2,1,2,2,1,2,1,1,1,1,1,2,2,2,1,2,1,1,1,1,2,2,1,1,2,1,2,1,2,1,2,2,2,2],"img_shown":["img/900/equaldotsize/L/2_Ratio_900_L_20_R_18.png","img/500/randomdotsizeEA/R/3_Ratio_500_L_10_R_20.png","img/250/randomdotsizeEA/L/7_Ratio_250_L_8_R_2.png","img/750/equaldotanddens/L/6_Ratio_750_L_24_R_18.png","img/900/equaldotsize/R/12_Ratio_900_L_18_R_20.png","img/500/randomdotsizeEA/R/14_Ratio_500_L_5_R_10.png","img/900/equaldotsize/R/5_Ratio_900_L_9_R_10.png","img/750/equaldotsize/L/13_Ratio_750_L_8_R_6.png","img/500/equaldotsize/L/11_Ratio_500_L_12_R_6.png","img/250/randomdotsizeEA/L/14_Ratio_250_L_12_R_3.png","img/900/randomdotsizeEA/R/9_Ratio_900_L_18_R_20.png","img/900/equaldotsize/R/11_Ratio_900_L_18_R_20.png","img/900/equaldotanddens/L/8_Ratio_900_L_20_R_18.png","img/250/randomdotsizeEA/R/8_Ratio_250_L_1_R_4.png","img/250/randomdotsizeEA/L/2_Ratio_250_L_16_R_4.png","img/750/randomdotsizeEA/R/15_Ratio_750_L_9_R_12.png","img/900/equaldotsize/R/15_Ratio_900_L_9_R_10.png","img/250/equaldotanddens/L/14_Ratio_250_L_12_R_3.png","img/500/equaldotanddens/R/14_Ratio_500_L_5_R_10.png","img/500/randomdotsizeEA/L/10_Ratio_500_L_4_R_2.png","img/250/equaldotsize/R/10_Ratio_250_L_4_R_16.png","img/250/randomdotsizeEA/R/10_Ratio_250_L_4_R_16.png","img/750/randomdotsizeEA/R/5_Ratio_750_L_15_R_20.png","img/900/randomdotsizeEA/L/10_Ratio_900_L_20_R_18.png","img/750/equaldotanddens/R/2_Ratio_750_L_6_R_8.png","img/750/equaldotsize/R/3_Ratio_750_L_15_R_20.png","img/250/equaldotsize/L/15_Ratio_250_L_12_R_3.png","img/900/equaldotsize/L/2_Ratio_900_L_20_R_18.png","img/250/equaldotsize/L/15_Ratio_250_L_12_R_3.png","img/250/equaldotanddens/L/15_Ratio_250_L_12_R_3.png","img/750/equaldotanddens/R/4_Ratio_750_L_15_R_20.png","img/750/equaldotanddens/R/5_Ratio_750_L_15_R_20.png","img/750/equaldotsize/R/4_Ratio_750_L_15_R_20.png","img/900/randomdotsizeEA/L/1_Ratio_900_L_10_R_9.png","img/250/equaldotanddens/R/13_Ratio_250_L_2_R_8.png","img/900/equaldotanddens/R/9_Ratio_900_L_18_R_20.png","img/500/equaldotanddens/L/11_Ratio_500_L_12_R_6.png","img/250/equaldotsize/R/6_Ratio_250_L_6_R_24.png","img/250/randomdotsizeEA/L/3_Ratio_250_L_8_R_2.png","img/900/equaldotanddens/L/1_Ratio_900_L_10_R_9.png","img/750/equaldotsize/L/9_Ratio_750_L_4_R_3.png","img/250/equaldotanddens/R/11_Ratio_250_L_3_R_12.png","img/900/equaldotanddens/R/11_Ratio_900_L_18_R_20.png","img/900/randomdotsizeEA/R/13_Ratio_900_L_18_R_20.png","img/900/equaldotsize/R/5_Ratio_900_L_9_R_10.png","img/500/equaldotanddens/R/3_Ratio_500_L_10_R_20.png","img/750/randomdotsizeEA/R/11_Ratio_750_L_12_R_16.png","img/900/randomdotsizeEA/L/4_Ratio_900_L_20_R_18.png","img/500/equaldotanddens/L/11_Ratio_500_L_12_R_6.png","img/750/randomdotsizeEA/R/12_Ratio_750_L_3_R_4.png","img/900/equaldotanddens/L/8_Ratio_900_L_20_R_18.png","img/750/randomdotsizeEA/R/4_Ratio_750_L_15_R_20.png","img/250/randomdotsizeEA/L/1_Ratio_250_L_8_R_2.png","img/750/equaldotanddens/R/7_Ratio_750_L_3_R_4.png","img/500/equaldotsize/L/13_Ratio_500_L_12_R_6.png","img/750/randomdotsizeEA/R/2_Ratio_750_L_6_R_8.png","img/500/equaldotsize/L/11_Ratio_500_L_12_R_6.png","img/900/equaldotanddens/R/13_Ratio_900_L_18_R_20.png","img/750/equaldotanddens/R/4_Ratio_750_L_15_R_20.png","img/750/equaldotsize/L/6_Ratio_750_L_24_R_18.png","img/500/equaldotsize/L/13_Ratio_500_L_12_R_6.png","img/750/equaldotsize/R/3_Ratio_750_L_15_R_20.png","img/500/randomdotsizeEA/L/11_Ratio_500_L_12_R_6.png","img/500/equaldotanddens/L/8_Ratio_500_L_8_R_4.png","img/500/equaldotanddens/L/5_Ratio_500_L_4_R_2.png","img/500/equaldotanddens/R/1_Ratio_500_L_9_R_18.png","img/250/equaldotsize/R/12_Ratio_250_L_5_R_20.png","img/750/equaldotanddens/R/2_Ratio_750_L_6_R_8.png","img/250/randomdotsizeEA/R/4_Ratio_250_L_3_R_12.png","img/500/equaldotanddens/L/11_Ratio_500_L_12_R_6.png","img/900/randomdotsizeEA/R/11_Ratio_900_L_18_R_20.png","img/500/equaldotanddens/L/7_Ratio_500_L_10_R_5.png","img/250/equaldotsize/L/2_Ratio_250_L_16_R_4.png","img/900/equaldotanddens/R/14_Ratio_900_L_18_R_20.png","img/250/equaldotsize/L/2_Ratio_250_L_16_R_4.png","img/500/equaldotsize/R/12_Ratio_500_L_1_R_2.png","img/750/equaldotanddens/L/9_Ratio_750_L_4_R_3.png","img/500/equaldotsize/L/7_Ratio_500_L_10_R_5.png","img/900/equaldotsize/L/2_Ratio_900_L_20_R_18.png","img/750/randomdotsizeEA/L/10_Ratio_750_L_4_R_3.png","img/250/equaldotanddens/L/2_Ratio_250_L_16_R_4.png","img/900/equaldotanddens/L/4_Ratio_900_L_20_R_18.png","img/500/randomdotsizeEA/L/10_Ratio_500_L_4_R_2.png","img/500/randomdotsizeEA/R/2_Ratio_500_L_3_R_6.png","img/750/randomdotsizeEA/R/5_Ratio_750_L_15_R_20.png","img/750/equaldotanddens/L/6_Ratio_750_L_24_R_18.png","img/500/randomdotsizeEA/R/14_Ratio_500_L_5_R_10.png","img/750/randomdotsizeEA/L/8_Ratio_750_L_4_R_3.png","img/500/equaldotanddens/R/3_Ratio_500_L_10_R_20.png","img/500/equaldotsize/R/6_Ratio_500_L_9_R_18.png","img/500/equaldotsize/L/11_Ratio_500_L_12_R_6.png","img/500/equaldotsize/R/9_Ratio_500_L_2_R_4.png","img/900/randomdotsizeEA/L/1_Ratio_900_L_10_R_9.png","img/250/equaldotanddens/L/14_Ratio_250_L_12_R_3.png","img/250/equaldotanddens/L/5_Ratio_250_L_24_R_6.png","img/900/equaldotanddens/L/1_Ratio_900_L_10_R_9.png","img/750/equaldotsize/L/14_Ratio_750_L_8_R_6.png","img/750/equaldotsize/R/12_Ratio_750_L_3_R_4.png","img/250/equaldotsize/R/8_Ratio_250_L_1_R_4.png","img/900/equaldotsize/R/7_Ratio_900_L_9_R_10.png","img/250/equaldotanddens/L/14_Ratio_250_L_12_R_3.png","img/500/randomdotsizeEA/R/6_Ratio_500_L_9_R_18.png","img/250/randomdotsizeEA/L/15_Ratio_250_L_12_R_3.png","img/250/equaldotsize/L/5_Ratio_250_L_24_R_6.png","img/750/randomdotsizeEA/L/13_Ratio_750_L_8_R_6.png","img/900/equaldotanddens/L/4_Ratio_900_L_20_R_18.png","img/900/equaldotsize/R/14_Ratio_900_L_18_R_20.png","img/750/equaldotsize/R/5_Ratio_750_L_15_R_20.png","img/750/equaldotanddens/L/6_Ratio_750_L_24_R_18.png","img/500/equaldotsize/L/4_Ratio_500_L_18_R_9.png","img/900/randomdotsizeEA/R/12_Ratio_900_L_18_R_20.png","img/250/randomdotsizeEA/L/14_Ratio_250_L_12_R_3.png","img/750/equaldotsize/R/7_Ratio_750_L_3_R_4.png","img/250/equaldotanddens/L/3_Ratio_250_L_8_R_2.png","img/900/randomdotsizeEA/R/7_Ratio_900_L_9_R_10.png","img/900/randomdotsizeEA/L/4_Ratio_900_L_20_R_18.png","img/250/equaldotsize/R/6_Ratio_250_L_6_R_24.png","img/500/randomdotsizeEA/R/14_Ratio_500_L_5_R_10.png","img/250/equaldotanddens/R/6_Ratio_250_L_6_R_24.png","img/500/randomdotsizeEA/R/12_Ratio_500_L_1_R_2.png"],"Rat0":[["12_Ratio_0_L_9_R_0.png","13_Ratio_0_L_6_R_0.png","5_Ratio_0_L_2_R_0.png","6_Ratio_0_L_4_R_0.png","8_Ratio_0_L_6_R_0.png"],["1_Ratio_0_L_0_R_17.png","10_Ratio_0_L_0_R_22.png","11_Ratio_0_L_0_R_1.png","14_Ratio_0_L_0_R_24.png","15_Ratio_0_L_0_R_4.png","2_Ratio_0_L_0_R_5.png","3_Ratio_0_L_0_R_17.png","4_Ratio_0_L_0_R_7.png","7_Ratio_0_L_0_R_19.png","9_Ratio_0_L_0_R_15.png"]],"Rat250":[["1_Ratio_250_L_8_R_2.png","14_Ratio_250_L_12_R_3.png","15_Ratio_250_L_12_R_3.png","2_Ratio_250_L_16_R_4.png","3_Ratio_250_L_8_R_2.png","5_Ratio_250_L_24_R_6.png","7_Ratio_250_L_8_R_2.png"],["10_Ratio_250_L_4_R_16.png","11_Ratio_250_L_3_R_12.png","12_Ratio_250_L_5_R_20.png","13_Ratio_250_L_2_R_8.png","4_Ratio_250_L_3_R_12.png","6_Ratio_250_L_6_R_24.png","8_Ratio_250_L_1_R_4.png","9_Ratio_250_L_3_R_12.png"]],"Rat500":[["10_Ratio_500_L_4_R_2.png","11_Ratio_500_L_12_R_6.png","13_Ratio_500_L_12_R_6.png","4_Ratio_500_L_18_R_9.png","5_Ratio_500_L_4_R_2.png","7_Ratio_500_L_10_R_5.png","8_Ratio_500_L_8_R_4.png"],["1_Ratio_500_L_9_R_18.png","12_Ratio_500_L_1_R_2.png","14_Ratio_500_L_5_R_10.png","15_Ratio_500_L_1_R_2.png","2_Ratio_500_L_3_R_6.png","3_Ratio_500_L_10_R_20.png","6_Ratio_500_L_9_R_18.png","9_Ratio_500_L_2_R_4.png"]],"Rat750":[["1_Ratio_750_L_20_R_15.png","10_Ratio_750_L_4_R_3.png","13_Ratio_750_L_8_R_6.png","14_Ratio_750_L_8_R_6.png","6_Ratio_750_L_24_R_18.png","8_Ratio_750_L_4_R_3.png","9_Ratio_750_L_4_R_3.png"],["11_Ratio_750_L_12_R_16.png","12_Ratio_750_L_3_R_4.png","15_Ratio_750_L_9_R_12.png","2_Ratio_750_L_6_R_8.png","3_Ratio_750_L_15_R_20.png","4_Ratio_750_L_15_R_20.png","5_Ratio_750_L_15_R_20.png","7_Ratio_750_L_3_R_4.png"]],"Rat900":[["1_Ratio_900_L_10_R_9.png","10_Ratio_900_L_20_R_18.png","2_Ratio_900_L_20_R_18.png","4_Ratio_900_L_20_R_18.png","8_Ratio_900_L_20_R_18.png"],["11_Ratio_900_L_18_R_20.png","12_Ratio_900_L_18_R_20.png","13_Ratio_900_L_18_R_20.png","14_Ratio_900_L_18_R_20.png","15_Ratio_900_L_9_R_10.png","3_Ratio_900_L_9_R_10.png","5_Ratio_900_L_9_R_10.png","6_Ratio_900_L_9_R_10.png","7_Ratio_900_L_9_R_10.png","9_Ratio_900_L_18_R_20.png"]],"Rat1000":[["10_Ratio_1000_L_16_R_16.png","11_Ratio_1000_L_6_R_6.png","12_Ratio_1000_L_14_R_14.png","13_Ratio_1000_L_20_R_20.png","15_Ratio_1000_L_15_R_15.png","2_Ratio_1000_L_17_R_17.png","4_Ratio_1000_L_9_R_9.png","5_Ratio_1000_L_6_R_6.png","6_Ratio_1000_L_19_R_19.png","8_Ratio_1000_L_14_R_14.png","9_Ratio_1000_L_25_R_25.png"],["1_Ratio_1000_L_1_R_1.png","14_Ratio_1000_L_17_R_17.png","3_Ratio_1000_L_17_R_17.png","7_Ratio_1000_L_6_R_6.png"]]}},{"start_time":1552313640413,"click_time":1552313642145,"finger_time":1552313641925,"fix_duration":845.4950293552457,"trial":1,"RT":1512,"MT":220,"sideResp":2,"stimulus":"img/500/randomdotsizeEA/R/3_Ratio_500_L_10_R_20.png","xmouse":[792,792,792,792,792,792,792,792,792,792,792,792,792,792,792,792,792,792,792,792,792,792,792,792,792,792,792,792,792,792,792,792,792,792,792,792,792,792,792,792,792,792,792,792,792,792,792,792,792,792,792,792,792,792,792,792,792,792,792,792,792,792,792,792,792,792,792,792,792,792,792,792,792,795,820,841,852,861,871,898,923,958,990,1019,1047,1058,1060],"ymouse":[534,534,534,534,534,534,534,534,534,534,534,534,534,534,534,534,534,534,534,534,534,534,534,534,534,534,534,534,534,534,534,534,534,534,534,534,534,534,534,534,534,534,534,534,534,534,534,534,534,534,534,534,534,534,534,534,534,534,534,534,534,534,534,534,534,534,534,534,534,534,534,534,535,533,486,448,431,418,404,366,329,280,221,166,100,79,75],"timestamp_mouse":[11,31,52,72,91,112,132,152,171,192,212,231,252,271,291,311,331,352,372,392,411,431,452,472,492,511,531,552,571,592,611,631,651,672,691,711,732,751,772,792,812,832,851,871,891,912,932,952,972,992,1011,1032,1051,1071,1092,1112,1131,1152,1171,1191,1212,1231,1251,1272,1291,1312,1331,1351,1372,1392,1412,1432,1451,1471,1492,1512,1531,1552,1571,1593,1611,1632,1651,1672,1692,1711,1731],"xSR":741.5,"ySR":469.95,"xT1":424.9,"yT1":0,"xT2":1058.1,"yT2":0,"toosoon":0,"cond_shown":"randomdotsizeEA","ratio_trial":500,"smaller_num":"10","larger_num":"20","correct_side":2,"subjID":"miguelangelcastro11","gender":"0","age":"9","school":"4"},{"start_time":1552313644404,"click_time":1552313645924,"finger_time":1552313645704,"fix_duration":1178.5426002213642,"trial":2,"RT":1300,"MT":220,"sideResp":1,"stimulus":"img/250/randomdotsizeEA/L/7_Ratio_250_L_8_R_2.png","xmouse":[789,789,789,789,789,789,789,789,789,789,789,789,789,789,789,789,789,789,789,789,789,789,789,789,789,789,789,789,789,789,789,789,789,789,789,789,789,789,789,788,788,788,788,788,788,788,788,788,788,788,788,788,788,788,788,788,788,788,785,781,771,753,749,749,749,748,738,732,724,716,703,657,622,586,554,534,497],"ymouse":[492,492,492,492,492,492,492,492,492,492,492,492,492,492,492,492,492,492,492,492,492,492,492,492,492,492,492,492,492,492,492,492,492,492,492,492,492,492,492,493,495,495,495,495,495,495,495,495,495,495,495,495,495,495,495,495,495,495,496,496,496,496,495,490,472,425,399,391,383,371,353,283,231,182,138,109,59],"timestamp_mouse":[9,20,40,68,81,100,121,141,162,181,201,220,241,261,281,301,321,341,361,380,401,421,440,462,481,500,520,541,560,581,600,620,640,661,680,701,720,740,761,780,800,821,841,860,880,901,921,941,961,981,1001,1020,1041,1061,1081,1100,1121,1140,1161,1181,1200,1220,1240,1260,1281,1300,1320,1340,1360,1380,1400,1420,1440,1460,1481,1501,1520],"xSR":741.5,"ySR":469.95,"xT1":424.9,"yT1":0,"xT2":1058.1,"yT2":0,"toosoon":0,"cond_shown":"randomdotsizeEA","ratio_trial":250,"smaller_num":"2","larger_num":"8","correct_side":1,"subjID":"miguelangelcastro11","gender":"0","age":"9","school":"4"},{"start_time":1552313647919,"click_time":1552313649505,"finger_time":1552313648844,"fix_duration":774.1092798151697,"trial":3,"RT":925,"MT":661,"sideResp":1,"stimulus":"img/750/equaldotanddens/L/6_Ratio_750_L_24_R_18.png","xmouse":[794,794,794,794,794,794,794,794,794,794,794,794,794,794,794,794,794,794,794,794,794,794,794,794,794,794,794,794,794,794,794,794,794,794,794,794,794,794,794,794,794,794,794,794,794,794,770,715,566,566,566,566,566,566,566,566,566,566,566,566,238,260,287,316,340,373,379,387,394,401,405,406,408,409,415,417,419,422,424,431],"ymouse":[502,502,502,502,502,502,502,502,502,502,502,502,502,502,502,502,502,502,502,502,502,502,502,502,502,502,502,502,502,502,502,502,502,502,502,502,502,502,502,502,502,502,502,502,501,477,393,264,12,12,12,12,12,12,12,12,12,12,12,12,44,77,107,129,141,143,139,133,125,115,106,103,100,96,82,78,74,70,68,66],"timestamp_mouse":[10,38,45,65,85,106,127,146,166,186,205,226,245,266,286,306,326,346,366,385,406,425,445,466,485,505,525,546,565,586,605,625,646,666,686,706,725,746,766,785,806,825,845,865,885,905,925,945,965,985,1005,1025,1045,1066,1085,1105,1126,1146,1166,1186,1205,1225,1245,1265,1285,1305,1325,1345,1366,1385,1406,1425,1446,1465,1485,1505,1525,1545,1565,1586],"xSR":741.5,"ySR":469.95,"xT1":424.9,"yT1":0,"xT2":1058.1,"yT2":0,"toosoon":0,"cond_shown":"equaldotanddens","ratio_trial":750,"smaller_num":"18","larger_num":"24","correct_side":1,"subjID":"miguelangelcastro11","gender":"0","age":"9","school":"4"},{"start_time":1552313651478,"click_time":1552313652885,"finger_time":1552313652525,"fix_duration":1091.4155185308286,"trial":4,"RT":1047,"MT":360,"sideResp":1,"stimulus":"img/900/equaldotsize/R/12_Ratio_900_L_18_R_20.png","xmouse":[794,794,794,794,794,794,794,794,794,794,794,794,794,794,794,794,794,794,794,794,794,794,794,794,794,794,794,794,794,794,794,794,794,794,794,794,794,794,794,794,794,794,794,794,795,795,795,795,795,795,795,796,782,753,714,677,654,635,629,623,615,606,593,591,589,588,587,575,565,547,512],"ymouse":[538,538,538,538,538,538,538,538,538,538,538,538,538,538,538,538,538,538,538,538,538,538,538,538,538,538,538,538,538,538,538,538,538,538,538,538,538,538,538,538,538,538,538,538,538,538,538,538,538,538,538,490,408,318,239,180,146,125,122,120,116,112,104,102,98,96,94,80,66,41,1],"timestamp_mouse":[10,26,46,67,87,106,126,146,167,187,207,227,246,267,287,306,327,347,366,386,406,427,447,467,486,507,526,547,566,587,606,626,647,666,686,706,727,747,767,787,806,827,847,866,887,907,927,947,967,987,1006,1027,1047,1066,1087,1106,1126,1146,1167,1186,1206,1226,1246,1266,1287,1306,1326,1346,1366,1386,1407],"xSR":741.5,"ySR":469.95,"xT1":424.9,"yT1":0,"xT2":1058.1,"yT2":0,"toosoon":0,"cond_shown":"equaldotsize","ratio_trial":900,"smaller_num":"18","larger_num":"20","correct_side":2,"subjID":"miguelangelcastro11","gender":"0","age":"9","school":"4"},{"start_time":1552313659385,"click_time":1552313660844,"finger_time":1552313660385,"fix_duration":1499.0711550265646,"trial":5,"RT":1000,"MT":459,"sideResp":2,"stimulus":"img/500/randomdotsizeEA/R/14_Ratio_500_L_5_R_10.png","xmouse":[783,783,783,783,783,783,783,783,783,783,783,783,783,783,783,783,783,783,783,783,783,783,783,783,783,783,783,783,783,783,783,783,783,783,783,783,783,783,783,783,783,783,783,783,783,783,783,783,794,817,853,956,998,998,998,998,998,998,998,998,998,998,998,998,998,998,998,998,998,998,998,998,998,1084],"ymouse":[567,567,567,567,567,567,567,567,567,567,567,567,567,567,567,567,567,567,567,567,567,567,567,567,567,567,567,567,567,567,567,567,567,567,567,567,567,567,567,567,567,567,567,567,567,567,567,567,549,495,412,154,24,24,24,24,24,24,24,24,24,24,24,24,24,24,24,24,24,24,24,24,24,2],"timestamp_mouse":[5,19,43,60,79,99,119,140,159,180,199,220,240,260,279,299,319,340,359,380,400,419,439,459,480,499,519,539,559,579,600,620,639,660,680,699,719,740,759,780,799,820,839,859,879,899,920,940,959,979,1000,1020,1039,1060,1079,1100,1119,1139,1159,1179,1199,1220,1240,1259,1279,1299,1320,1339,1359,1380,1399,1420,1440,1459],"xSR":741.5,"ySR":469.95,"xT1":424.9,"yT1":0,"xT2":1058.1,"yT2":0,"toosoon":0,"cond_shown":"randomdotsizeEA","ratio_trial":500,"smaller_num":"5","larger_num":"10","correct_side":2,"subjID":"miguelangelcastro11","gender":"0","age":"9","school":"4"},{"start_time":1552313662677,"click_time":1552313664126,"finger_time":1552313663804,"fix_duration":730.3807359904766,"trial":6,"RT":1127,"MT":322,"sideResp":1,"stimulus":"img/900/equaldotsize/R/5_Ratio_900_L_9_R_10.png","xmouse":[803,803,803,803,803,803,803,803,803,803,803,803,803,803,803,803,803,803,803,803,803,803,803,803,803,803,803,803,803,804,807,811,816,816,817,817,817,817,817,817,817,817,817,817,817,817,813,812,811,811,811,811,811,811,807,804,787,741,721,699,678,627,592,559,542,539,539,539,539,538,538,531,518],"ymouse":[566,566,566,566,566,566,566,566,566,566,566,566,566,566,566,566,566,566,566,566,566,566,566,566,566,566,566,566,564,560,547,534,510,505,505,505,505,505,505,505,505,505,505,505,506,510,518,522,523,523,523,523,523,523,510,499,454,338,295,253,218,137,95,59,41,39,39,39,39,39,39,39,43],"timestamp_mouse":[9,28,48,68,88,107,127,149,168,188,207,227,248,268,288,308,328,348,367,388,407,428,447,468,488,508,528,547,567,587,608,627,648,667,688,708,727,748,768,787,807,828,848,868,887,907,927,947,967,987,1008,1028,1048,1068,1088,1107,1127,1147,1167,1188,1208,1229,1247,1267,1287,1307,1328,1348,1368,1387,1408,1428,1448],"xSR":741.5,"ySR":469.95,"xT1":424.9,"yT1":0,"xT2":1058.1,"yT2":0,"toosoon":0,"cond_shown":"equaldotsize","ratio_trial":900,"smaller_num":"9","larger_num":"10","correct_side":2,"subjID":"miguelangelcastro11","gender":"0","age":"9","school":"4"},{"start_time":1552313665277,"click_time":1552313666644,"finger_time":1552313666125,"fix_duration":250,"trial":7,"RT":848,"MT":519,"sideResp":1,"stimulus":"img/750/equaldotsize/L/13_Ratio_750_L_8_R_6.png","xmouse":[802,802,802,802,802,802,802,802,802,802,802,802,802,802,802,802,802,802,802,802,802,802,802,802,802,802,802,802,802,802,802,802,802,802,802,802,802,802,802,802,802,813,820,830,842,848,861,863,863,859,850,827,800,779,761,742,725,684,662,638,617,580,572,568,565,563,558,533,509],"ymouse":[505,505,505,505,505,505,505,505,505,505,505,505,505,505,505,505,505,505,505,505,505,505,505,505,505,505,505,505,505,505,505,505,505,505,505,505,505,505,505,505,504,484,466,440,411,385,332,307,285,267,253,230,220,213,207,200,195,179,168,158,148,122,115,108,104,97,90,77,70],"timestamp_mouse":[9,27,47,67,87,107,128,148,167,187,207,227,248,268,288,307,328,347,367,387,407,428,448,468,487,508,528,548,567,588,608,628,648,667,688,708,728,748,767,787,808,828,848,867,887,908,928,947,967,987,1007,1028,1047,1067,1087,1107,1128,1147,1167,1187,1208,1228,1247,1267,1288,1307,1327,1347,1367],"xSR":741.5,"ySR":469.95,"xT1":424.9,"yT1":0,"xT2":1058.1,"yT2":0,"toosoon":0,"cond_shown":"equaldotsize","ratio_trial":750,"smaller_num":"6","larger_num":"8","correct_side":1,"subjID":"miguelangelcastro11","gender":"0","age":"9","school":"4"},{"start_time":1552313668225,"click_time":1552313669384,"finger_time":1552313669005,"fix_duration":599.5094987631439,"trial":8,"RT":780,"MT":379,"sideResp":1,"stimulus":"img/500/equaldotsize/L/11_Ratio_500_L_12_R_6.png","xmouse":[774,774,774,774,774,774,774,774,774,774,774,774,774,774,774,774,774,774,774,774,774,774,774,774,774,774,774,774,774,774,774,774,774,774,774,774,774,775,775,764,745,720,694,668,641,606,603,601,600,598,597,594,589,581,575,565,555,538,522],"ymouse":[519,519,519,519,519,519,519,519,519,519,519,519,519,519,519,519,519,519,519,519,519,519,519,519,519,519,519,519,519,519,519,519,519,519,519,519,519,519,515,428,363,306,263,227,193,155,152,150,149,148,146,142,138,133,130,124,117,104,89],"timestamp_mouse":[2,20,50,59,79,99,120,139,159,179,200,219,239,259,279,300,319,341,359,379,400,420,440,460,480,499,520,539,560,579,599,619,639,660,680,699,720,740,759,780,799,820,839,860,879,899,919,938,959,980,999,1019,1039,1059,1079,1098,1119,1139,1159],"xSR":741.5,"ySR":469.95,"xT1":424.9,"yT1":0,"xT2":1058.1,"yT2":0,"toosoon":0,"cond_shown":"equaldotsize","ratio_trial":500,"smaller_num":"6","larger_num":"12","correct_side":1,"subjID":"miguelangelcastro11","gender":"0","age":"9","school":"4"},{"start_time":1552313671349,"click_time":1552313672564,"finger_time":1552313672344,"fix_duration":1242.6001515334149,"trial":9,"RT":995,"MT":220,"sideResp":1,"stimulus":"img/250/randomdotsizeEA/L/14_Ratio_250_L_12_R_3.png","xmouse":[780,780,780,780,780,780,780,780,780,780,780,780,780,780,780,780,780,780,780,780,780,780,780,780,780,780,780,780,780,780,780,780,780,780,780,781,784,795,797,801,803,805,806,806,806,806,806,806,801,783,745,694,645,601,595,591,587,564,546,531,522],"ymouse":[532,532,532,532,532,532,532,532,532,532,532,532,532,532,532,532,532,532,532,532,532,532,532,532,532,532,532,532,532,532,532,532,532,532,532,532,532,525,523,521,518,516,514,513,513,513,513,513,494,450,364,258,167,61,40,27,18,7,4,4,4],"timestamp_mouse":[15,39,55,75,95,116,135,155,175,196,215,235,256,276,295,315,335,355,375,395,415,435,455,475,496,515,535,556,576,595,614,636,656,674,696,715,736,756,774,795,816,834,855,876,895,915,935,955,975,995,1016,1035,1056,1075,1095,1115,1135,1156,1175,1195,1215],"xSR":741.5,"ySR":469.95,"xT1":424.9,"yT1":0,"xT2":1058.1,"yT2":0,"toosoon":0,"cond_shown":"randomdotsizeEA","ratio_trial":250,"smaller_num":"3","larger_num":"12","correct_side":1,"subjID":"miguelangelcastro11","gender":"0","age":"9","school":"4"},{"start_time":1552313675252,"click_time":1552313675964,"finger_time":1552313675845,"fix_duration":524.2237899502579,"trial":10,"RT":593,"MT":119,"sideResp":1,"stimulus":"img/900/randomdotsizeEA/R/9_Ratio_900_L_18_R_20.png","xmouse":[798,798,798,798,798,798,798,798,798,798,798,798,798,798,798,798,798,798,798,798,798,798,798,798,798,798,798,792,786,777,757,727,650,588,552,524],"ymouse":[514,514,514,514,514,514,514,514,514,514,514,514,514,514,514,514,514,514,514,514,514,514,514,514,514,514,514,497,475,444,396,328,193,110,60,28],"timestamp_mouse":[12,49,52,73,92,112,132,152,171,192,213,233,252,273,293,312,332,352,372,392,412,432,452,473,492,512,532,553,572,593,611,632,654,671,692,712],"xSR":741.5,"ySR":469.95,"xT1":424.9,"yT1":0,"xT2":1058.1,"yT2":0,"toosoon":0,"cond_shown":"randomdotsizeEA","ratio_trial":900,"smaller_num":"18","larger_num":"20","correct_side":2,"subjID":"miguelangelcastro11","gender":"0","age":"9","school":"4"},{"start_time":1552313677865,"click_time":1552313679005,"finger_time":1552313678784,"fix_duration":1178.3740402846295,"trial":11,"RT":919,"MT":221,"sideResp":1,"stimulus":"img/900/equaldotsize/R/11_Ratio_900_L_18_R_20.png","xmouse":[776,776,776,776,776,776,776,776,776,776,776,776,776,776,776,776,776,776,776,776,776,776,776,776,776,776,776,776,776,776,776,776,776,776,776,776,776,776,776,776,776,776,776,776,775,775,774,762,719,689,658,630,579,569,560,546,535,507],"ymouse":[501,501,501,501,501,501,501,501,501,501,501,501,501,501,501,501,501,501,501,501,501,501,501,501,501,501,501,501,501,501,501,501,501,501,501,501,501,501,501,501,501,501,501,501,498,476,441,385,236,168,120,83,39,39,36,34,33,33],"timestamp_mouse":[1,20,41,60,80,99,120,139,160,178,200,220,238,260,279,299,320,340,359,379,399,419,439,459,479,500,519,539,558,580,599,620,640,658,679,700,719,739,760,779,799,819,840,860,878,899,919,939,959,979,999,1019,1040,1058,1079,1099,1120,1139],"xSR":741.5,"ySR":469.95,"xT1":424.9,"yT1":0,"xT2":1058.1,"yT2":0,"toosoon":0,"cond_shown":"equaldotsize","ratio_trial":900,"smaller_num":"18","larger_num":"20","correct_side":2,"subjID":"miguelangelcastro11","gender":"0","age":"9","school":"4"},{"start_time":1552313681084,"click_time":1552313683485,"finger_time":1552313682204,"fix_duration":1198.4174900601147,"trial":12,"RT":1120,"MT":1281,"sideResp":1,"stimulus":"img/900/equaldotanddens/L/8_Ratio_900_L_20_R_18.png","xmouse":[781,781,781,781,781,781,781,781,781,781,781,781,781,781,781,781,781,781,781,781,781,781,781,781,781,781,781,781,781,781,781,781,781,781,781,781,781,781,781,781,781,781,781,781,781,781,781,781,781,781,781,781,781,781,781,780,778,774,765,758,751,748,761,777,788,792,793,792,791,790,789,777,774,772,771,771,771,771,771,771,770,764,752,737,726,716,708,707,707,705,703,697,686,677,667,658,648,626,615,609,604,596,589,587,584,579,567,558,552,547,542,533,529,529,529,529,529,528,527,526,524],"ymouse":[496,496,496,496,496,496,496,496,496,496,496,496,496,496,496,496,496,496,496,496,496,496,496,496,496,496,496,496,496,496,496,496,496,496,496,496,496,496,496,496,496,496,496,496,496,496,496,496,496,496,491,487,479,477,474,471,459,445,426,406,383,322,236,184,152,133,124,115,109,101,93,67,61,58,57,57,57,57,57,57,57,51,43,33,28,23,20,19,19,19,19,19,19,20,23,25,28,38,43,45,47,50,52,53,54,55,57,58,58,59,60,61,62,62,62,62,62,63,64,65,67],"timestamp_mouse":[1,21,42,60,81,100,121,139,160,181,200,221,239,260,280,300,321,341,359,380,400,420,440,460,481,501,519,540,561,581,601,619,640,661,681,700,720,741,761,779,800,821,840,859,880,899,920,941,960,980,1000,1020,1040,1060,1081,1100,1120,1140,1160,1181,1201,1222,1239,1260,1280,1300,1320,1340,1360,1380,1400,1421,1440,1460,1480,1499,1521,1541,1559,1580,1601,1622,1639,1660,1680,1700,1721,1740,1760,1780,1800,1821,1840,1860,1880,1901,1920,1940,1960,1980,2000,2021,2040,2060,2080,2100,2122,2139,2160,2180,2201,2221,2240,2260,2280,2301,2320,2340,2361,2380,2401],"xSR":741.5,"ySR":469.95,"xT1":424.9,"yT1":0,"xT2":1058.1,"yT2":0,"toosoon":0,"cond_shown":"equaldotanddens","ratio_trial":900,"smaller_num":"18","larger_num":"20","correct_side":1,"subjID":"miguelangelcastro11","gender":"0","age":"9","school":"4"},{"start_time":1552313686482,"click_time":1552313688824,"finger_time":1552313688004,"fix_duration":1257.596938339895,"trial":13,"RT":1522,"MT":820,"sideResp":2,"stimulus":"img/250/randomdotsizeEA/R/8_Ratio_250_L_1_R_4.png","xmouse":[782,782,782,782,782,782,782,782,782,782,782,782,782,782,782,782,782,782,782,782,782,782,782,782,782,782,782,782,782,782,782,782,782,782,782,782,781,781,781,781,781,781,781,781,781,781,781,781,781,781,781,781,781,781,781,781,781,781,781,781,781,781,781,781,781,781,781,781,781,781,781,781,792,807,824,836,854,860,865,872,878,882,896,902,909,914,920,923,926,933,936,952,959,967,980,991,1000,1017,1027,1035,1049,1055,1078,1082,1086,1090,1098,1101,1102,1105,1106,1107,1107,1107,1107,1107,1107,1107],"ymouse":[532,532,532,532,532,532,532,532,532,532,532,532,532,532,532,532,532,532,532,532,532,532,532,532,532,532,532,532,532,532,532,532,532,532,532,532,532,532,532,532,532,532,532,532,532,532,532,532,532,532,532,532,532,532,532,532,532,532,532,532,532,532,532,532,532,532,532,532,532,532,532,532,521,509,494,479,446,437,430,421,414,411,391,381,373,365,354,349,345,338,334,319,313,305,293,280,268,245,234,225,213,208,191,186,179,171,154,149,144,138,131,121,114,111,110,107,104,99],"timestamp_mouse":[11,36,43,61,83,101,123,143,162,182,201,222,243,261,283,302,323,343,362,383,402,422,443,462,481,503,523,542,563,582,602,622,642,663,683,703,723,742,761,782,802,823,842,863,883,902,922,943,963,982,1003,1022,1042,1062,1082,1102,1123,1142,1163,1183,1203,1223,1243,1262,1282,1303,1323,1343,1362,1383,1403,1422,1443,1462,1482,1502,1522,1542,1562,1581,1603,1622,1642,1662,1682,1702,1723,1742,1762,1782,1802,1824,1841,1862,1882,1902,1923,1942,1961,1982,2003,2022,2043,2063,2083,2102,2123,2141,2162,2183,2202,2223,2242,2263,2283,2302,2322,2342],"xSR":741.5,"ySR":469.95,"xT1":424.9,"yT1":0,"xT2":1058.1,"yT2":0,"toosoon":0,"cond_shown":"randomdotsizeEA","ratio_trial":250,"smaller_num":"1","larger_num":"4","correct_side":2,"subjID":"miguelangelcastro11","gender":"0","age":"9","school":"4"},{"start_time":1552313691237,"click_time":1552313692905,"finger_time":1552313692365,"fix_duration":851.4669915667578,"trial":14,"RT":1128,"MT":540,"sideResp":1,"stimulus":"img/250/randomdotsizeEA/L/2_Ratio_250_L_16_R_4.png","xmouse":[797,797,797,797,797,797,797,797,797,797,797,797,797,797,797,797,797,797,797,797,797,797,797,797,797,797,797,797,797,797,797,797,797,797,797,797,797,797,797,797,797,797,797,797,797,797,797,797,797,797,797,797,797,797,795,789,776,751,714,632,583,530,479,407,393,383,377,371,370,370,370,370,370,370,370,370,370,370,370,370,370,370,370,432],"ymouse":[481,481,481,481,481,481,481,481,481,481,481,481,481,481,481,481,481,481,481,481,481,481,481,481,481,481,481,481,481,481,481,481,481,481,481,481,481,481,481,481,481,481,481,481,481,481,481,481,481,481,481,481,481,481,481,476,457,428,389,314,268,215,171,101,81,64,42,16,3,3,3,3,3,3,3,3,3,3,3,3,3,3,3,25],"timestamp_mouse":[9,46,46,68,88,107,128,147,167,188,207,227,247,268,288,307,327,348,367,388,407,427,447,468,488,508,526,548,568,588,606,628,647,668,688,708,728,748,768,787,807,828,848,867,888,906,928,948,967,987,1007,1026,1047,1066,1087,1107,1128,1147,1167,1187,1207,1227,1247,1268,1286,1307,1328,1347,1368,1387,1407,1427,1448,1467,1487,1508,1527,1548,1568,1587,1608,1627,1647,1668],"xSR":741.5,"ySR":469.95,"xT1":424.9,"yT1":0,"xT2":1058.1,"yT2":0,"toosoon":0,"cond_shown":"randomdotsizeEA","ratio_trial":250,"smaller_num":"4","larger_num":"16","correct_side":1,"subjID":"miguelangelcastro11","gender":"0","age":"9","school":"4"},{"start_time":1552313696751,"click_time":1552313698144,"finger_time":1552313697764,"fix_duration":1345.471264969838,"trial":15,"RT":1013,"MT":380,"sideResp":2,"stimulus":"img/750/randomdotsizeEA/R/15_Ratio_750_L_9_R_12.png","xmouse":[789,789,789,789,789,789,789,789,789,789,789,789,789,789,789,789,789,789,789,789,789,789,789,789,789,789,789,789,789,789,789,789,790,790,790,791,791,791,791,791,791,791,791,791,791,791,792,794,803,809,819,834,861,872,882,893,904,919,944,963,979,994,1008,1029,1041,1051,1059,1065,1084,1088],"ymouse":[537,537,537,537,537,537,537,537,537,537,537,537,537,537,537,537,537,537,537,537,537,537,537,537,537,537,537,537,537,537,537,537,535,529,527,526,525,525,525,525,525,525,525,525,525,525,523,517,493,476,454,425,374,353,333,313,294,274,253,244,239,232,222,193,180,167,157,146,107,91],"timestamp_mouse":[13,33,53,73,93,113,133,152,174,194,212,233,254,274,294,314,333,352,372,394,414,433,454,473,493,514,534,554,574,594,613,632,654,673,694,713,733,754,774,793,813,834,854,872,894,914,933,953,973,993,1013,1033,1054,1073,1094,1113,1133,1153,1174,1192,1214,1234,1254,1273,1294,1314,1334,1353,1374,1393],"xSR":741.5,"ySR":469.95,"xT1":424.9,"yT1":0,"xT2":1058.1,"yT2":0,"toosoon":0,"cond_shown":"randomdotsizeEA","ratio_trial":750,"smaller_num":"9","larger_num":"12","correct_side":2,"subjID":"miguelangelcastro11","gender":"0","age":"9","school":"4"},{"start_time":1552313699898,"click_time":1552313701464,"finger_time":1552313701124,"fix_duration":872.6326805738659,"trial":16,"RT":1226,"MT":340,"sideResp":1,"stimulus":"img/900/equaldotsize/R/15_Ratio_900_L_9_R_10.png","xmouse":[798,798,798,798,798,798,798,798,798,798,798,798,798,798,798,798,798,798,798,798,798,798,798,798,798,798,798,798,798,798,798,798,798,798,798,798,798,798,798,798,798,798,798,798,798,798,798,798,798,798,798,798,798,798,798,798,798,798,798,793,769,728,700,673,647,630,607,596,585,569,553,516,509,505,503,501,495,490,483],"ymouse":[535,535,535,535,535,535,535,535,535,535,535,535,535,535,535,535,535,535,535,535,535,535,535,535,535,535,535,535,535,535,535,535,535,535,535,535,535,535,535,535,535,535,535,535,535,535,535,535,535,535,535,535,535,535,535,535,535,535,535,533,491,431,392,353,317,297,264,249,235,217,202,174,168,164,159,153,133,115,93],"timestamp_mouse":[10,27,47,66,86,106,125,146,166,187,206,226,247,267,286,305,325,347,367,386,405,427,447,467,487,507,527,547,566,587,606,626,646,666,687,706,726,745,765,786,806,827,846,867,886,906,926,947,966,987,1006,1027,1047,1066,1087,1106,1126,1146,1166,1186,1206,1226,1246,1266,1286,1306,1325,1347,1366,1385,1405,1425,1445,1466,1485,1506,1525,1546,1566],"xSR":741.5,"ySR":469.95,"xT1":424.9,"yT1":0,"xT2":1058.1,"yT2":0,"toosoon":0,"cond_shown":"equaldotsize","ratio_trial":900,"smaller_num":"9","larger_num":"10","correct_side":2,"subjID":"miguelangelcastro11","gender":"0","age":"9","school":"4"},{"start_time":1552313703075,"click_time":1552313704284,"finger_time":1552313703925,"fix_duration":408.118880996883,"trial":17,"RT":850,"MT":359,"sideResp":1,"stimulus":"img/250/equaldotanddens/L/14_Ratio_250_L_12_R_3.png","xmouse":[760,760,760,760,760,760,760,760,760,760,760,760,760,760,760,760,760,760,760,760,760,760,760,760,760,760,760,760,760,760,760,760,760,760,760,760,760,760,760,760,760,761,730,702,684,665,636,623,611,599,588,575,570,567,563,559,553,543,536,529,519],"ymouse":[540,540,540,540,540,540,540,540,540,540,540,540,540,540,540,540,540,540,540,540,540,540,540,540,540,540,540,540,540,540,540,540,540,540,540,540,540,540,540,540,540,531,473,421,375,329,274,254,233,209,188,160,139,125,112,103,95,85,82,81,80],"timestamp_mouse":[12,30,48,70,89,109,129,149,169,189,209,229,249,269,290,310,329,348,369,389,410,429,449,469,489,510,530,548,568,590,609,628,648,670,690,709,729,749,770,789,809,829,850,869,889,909,930,949,969,989,1010,1030,1049,1069,1090,1109,1129,1149,1169,1189,1209],"xSR":741.5,"ySR":469.95,"xT1":424.9,"yT1":0,"xT2":1058.1,"yT2":0,"toosoon":0,"cond_shown":"equaldotanddens","ratio_trial":250,"smaller_num":"3","larger_num":"12","correct_side":1,"subjID":"miguelangelcastro11","gender":"0","age":"9","school":"4"},{"start_time":1552313707838,"click_time":1552313709205,"finger_time":1552313708765,"fix_duration":1292.830832637021,"trial":18,"RT":927,"MT":440,"sideResp":2,"stimulus":"img/500/equaldotanddens/R/14_Ratio_500_L_5_R_10.png","xmouse":[793,793,793,793,793,793,793,793,793,793,793,793,793,793,793,793,793,793,793,793,793,793,793,793,793,793,793,793,793,793,793,793,793,793,793,793,793,793,793,793,793,793,793,793,796,814,862,930,997,1087,1104,1117,1129,1136,1151,1158,1162,1166,1175,1175,1175,1175,1175,1175,1167,1162,1153,1143,1131],"ymouse":[555,555,555,555,555,555,555,555,555,555,555,555,555,555,555,555,555,555,555,555,555,555,555,555,555,555,555,555,555,555,555,555,555,555,555,555,555,555,555,555,555,555,555,555,555,546,525,493,454,381,361,344,326,312,281,267,251,235,202,186,172,161,155,150,139,133,124,115,99],"timestamp_mouse":[9,26,46,66,86,106,125,147,166,187,207,226,246,267,287,306,326,346,367,387,407,427,446,466,485,507,527,547,567,587,605,626,647,667,687,707,726,747,766,787,806,827,846,866,886,906,927,946,966,986,1006,1026,1046,1066,1086,1106,1127,1146,1167,1185,1206,1226,1245,1266,1286,1306,1327,1346,1367],"xSR":741.5,"ySR":469.95,"xT1":424.9,"yT1":0,"xT2":1058.1,"yT2":0,"toosoon":0,"cond_shown":"equaldotanddens","ratio_trial":500,"smaller_num":"5","larger_num":"10","correct_side":2,"subjID":"miguelangelcastro11","gender":"0","age":"9","school":"4"},{"start_time":1552313710829,"click_time":1552313711944,"finger_time":1552313711624,"fix_duration":744.5770407867077,"trial":19,"RT":795,"MT":320,"sideResp":1,"stimulus":"img/500/randomdotsizeEA/L/10_Ratio_500_L_4_R_2.png","xmouse":[773,773,773,773,773,773,773,773,773,773,773,773,773,773,773,773,773,773,773,773,773,773,773,773,773,773,773,773,773,773,773,773,773,773,773,773,778,788,798,822,823,819,798,761,739,727,714,704,682,663,650,636,625,592,548,516],"ymouse":[509,509,509,509,509,509,509,509,509,509,509,509,509,509,509,509,509,509,509,509,509,509,509,509,509,509,509,509,509,509,509,509,509,509,509,509,509,503,486,356,272,192,133,82,60,52,47,44,34,29,23,18,15,11,6,3],"timestamp_mouse":[14,35,55,76,95,115,134,156,175,194,215,236,256,276,295,315,335,356,374,396,415,436,456,475,494,515,536,555,576,595,615,635,654,676,696,715,735,755,775,795,815,835,854,876,894,915,935,955,976,995,1016,1036,1056,1076,1095,1115],"xSR":741.5,"ySR":469.95,"xT1":424.9,"yT1":0,"xT2":1058.1,"yT2":0,"toosoon":0,"cond_shown":"randomdotsizeEA","ratio_trial":500,"smaller_num":"2","larger_num":"4","correct_side":1,"subjID":"miguelangelcastro11","gender":"0","age":"9","school":"4"},{"start_time":1552313713568,"click_time":1552313714905,"finger_time":1552313714464,"fix_duration":682.7793432338032,"trial":20,"RT":896,"MT":441,"sideResp":2,"stimulus":"img/250/equaldotsize/R/10_Ratio_250_L_4_R_16.png","xmouse":[769,769,769,769,769,769,769,769,769,769,769,769,769,769,769,769,769,769,769,769,769,769,769,769,769,769,769,769,769,769,769,769,769,769,769,769,769,769,769,769,769,784,816,838,861,903,932,934,934,933,931,931,934,938,942,944,949,956,961,967,976,995,1005,1018,1031,1046,1063],"ymouse":[515,515,515,515,515,515,515,515,515,515,515,515,515,515,515,515,515,515,515,515,515,515,515,515,515,515,515,515,515,515,515,515,515,515,515,515,515,515,515,515,515,505,484,471,454,424,390,379,360,343,319,250,241,233,227,221,202,186,178,167,154,131,121,109,100,91,81],"timestamp_mouse":[17,40,56,76,97,117,136,156,177,197,216,237,256,276,295,316,337,356,377,397,417,436,456,477,497,516,536,557,575,597,617,637,656,675,697,717,735,757,777,797,816,836,856,876,896,915,938,957,976,996,1015,1038,1056,1075,1097,1117,1137,1155,1176,1197,1217,1237,1255,1276,1296,1317,1337],"xSR":741.5,"ySR":469.95,"xT1":424.9,"yT1":0,"xT2":1058.1,"yT2":0,"toosoon":0,"cond_shown":"equaldotsize","ratio_trial":250,"smaller_num":"4","larger_num":"16","correct_side":2,"subjID":"miguelangelcastro11","gender":"0","age":"9","school":"4"},{"start_time":1552313721198,"click_time":1552313722284,"finger_time":1552313721925,"fix_duration":391.6369155463353,"trial":21,"RT":727,"MT":359,"sideResp":2,"stimulus":"img/250/randomdotsizeEA/R/10_Ratio_250_L_4_R_16.png","xmouse":[804,804,804,804,804,804,804,804,804,804,804,804,804,804,804,804,804,804,804,804,804,804,804,804,804,804,804,804,804,804,804,804,804,804,804,799,796,792,785,780,775,774,774,774,774,774,778,786,797,815,835,959,1025,1081,1124],"ymouse":[505,505,505,505,505,505,505,505,505,505,505,505,505,505,505,505,505,505,505,505,505,505,505,505,505,505,505,505,505,505,505,505,505,505,502,473,450,427,404,385,364,360,358,358,357,355,353,348,342,332,317,242,190,134,79],"timestamp_mouse":[11,40,46,66,86,106,126,147,167,186,206,227,247,267,286,305,326,346,367,386,407,427,445,467,487,507,526,545,566,585,607,626,647,667,687,706,727,745,767,786,807,826,845,866,887,906,926,946,966,986,1005,1025,1047,1067,1086],"xSR":741.5,"ySR":469.95,"xT1":424.9,"yT1":0,"xT2":1058.1,"yT2":0,"toosoon":0,"cond_shown":"randomdotsizeEA","ratio_trial":250,"smaller_num":"4","larger_num":"16","correct_side":2,"subjID":"miguelangelcastro11","gender":"0","age":"9","school":"4"},{"start_time":1552313723899,"click_time":1552313725944,"finger_time":1552313725224,"fix_duration":392.73653489857486,"trial":22,"RT":1325,"MT":720,"sideResp":1,"stimulus":"img/750/randomdotsizeEA/R/5_Ratio_750_L_15_R_20.png","xmouse":[745,745,745,745,745,750,752,755,758,759,760,761,761,761,761,761,761,761,761,761,761,763,772,786,797,803,803,803,803,803,803,803,803,803,803,803,803,803,803,803,803,803,803,803,803,803,803,803,803,803,803,803,803,803,803,803,803,803,803,803,803,803,803,803,803,803,799,791,773,750,709,679,664,649,631,618,596,586,575,561,533,533,533,533,533,533,416,396,379,370,364,370,388,416,452,478,501,506,512,518,522,519,506],"ymouse":[545,545,545,545,545,545,545,544,544,544,544,544,544,544,544,544,544,544,544,544,544,543,533,522,514,510,510,510,510,510,510,510,510,510,510,510,510,510,510,510,510,510,510,510,510,510,510,510,510,510,510,510,510,510,510,510,510,510,510,510,510,510,510,510,508,501,427,385,335,288,228,184,153,115,79,56,33,28,22,15,2,2,2,2,2,2,16,42,66,85,108,137,155,167,177,183,186,186,181,172,159,112,86],"timestamp_mouse":[9,25,49,66,85,106,125,146,166,186,204,225,246,265,285,305,325,345,365,385,405,424,445,465,485,506,524,545,566,585,606,625,646,666,686,705,726,746,766,786,804,826,846,865,885,906,925,944,966,986,1005,1025,1046,1065,1086,1104,1126,1146,1165,1185,1205,1225,1245,1266,1285,1304,1325,1345,1365,1385,1406,1424,1445,1464,1484,1505,1525,1546,1564,1586,1605,1626,1645,1665,1685,1706,1725,1745,1765,1785,1805,1825,1845,1865,1886,1904,1925,1945,1964,1985,2005,2026,2045],"xSR":741.5,"ySR":469.95,"xT1":424.9,"yT1":0,"xT2":1058.1,"yT2":0,"toosoon":0,"cond_shown":"randomdotsizeEA","ratio_trial":750,"smaller_num":"15","larger_num":"20","correct_side":2,"subjID":"miguelangelcastro11","gender":"0","age":"9","school":"4"},{"start_time":1552313727217,"click_time":1552313728224,"finger_time":1552313727804,"fix_duration":250,"trial":23,"RT":587,"MT":420,"sideResp":2,"stimulus":"img/900/randomdotsizeEA/L/10_Ratio_900_L_20_R_18.png","xmouse":[780,780,780,780,780,780,780,780,780,780,780,780,780,780,780,780,780,780,780,780,780,780,780,780,780,780,780,781,787,842,880,909,936,956,981,999,1009,1017,1025,1031,1044,1049,1051,1053,1054,1066,1074,1084,1094,1106,1145],"ymouse":[524,524,524,524,524,524,524,524,524,524,524,524,524,524,524,524,524,524,524,524,524,524,524,524,524,524,524,524,522,473,442,424,410,401,383,359,344,329,315,302,277,269,264,261,259,243,229,212,190,159,38],"timestamp_mouse":[12,27,47,68,87,108,126,147,168,188,208,227,246,267,287,307,328,347,367,388,407,428,447,467,487,508,527,546,567,587,607,627,646,668,688,707,727,747,766,786,807,827,848,868,888,907,927,946,966,986,1006],"xSR":741.5,"ySR":469.95,"xT1":424.9,"yT1":0,"xT2":1058.1,"yT2":0,"toosoon":0,"cond_shown":"randomdotsizeEA","ratio_trial":900,"smaller_num":"18","larger_num":"20","correct_side":1,"subjID":"miguelangelcastro11","gender":"0","age":"9","school":"4"},{"start_time":1552313732375,"click_time":1552313733743,"finger_time":1552313733403,"fix_duration":1430.6794944600579,"trial":24,"RT":1028,"MT":340,"sideResp":1,"stimulus":"img/750/equaldotanddens/R/2_Ratio_750_L_6_R_8.png","xmouse":[771,771,771,771,771,771,771,771,771,771,771,771,771,771,771,771,771,771,771,771,771,771,771,771,771,771,771,771,771,771,771,771,771,771,771,771,771,771,771,771,771,771,771,771,771,771,771,771,771,772,772,758,739,724,710,701,671,661,656,654,654,654,654,649,641,626,608,547,518],"ymouse":[529,529,529,529,529,529,529,529,529,529,529,529,529,529,529,529,529,529,529,529,529,529,529,529,529,529,529,529,529,529,529,529,529,529,529,529,529,529,529,529,529,529,529,529,529,529,529,529,529,502,472,338,278,238,210,193,150,139,133,130,130,130,129,129,126,120,112,86,75],"timestamp_mouse":[9,29,62,70,89,109,129,149,168,188,209,229,249,268,288,308,328,350,368,389,409,429,450,469,489,508,529,550,569,588,608,630,649,668,689,709,728,749,769,790,809,828,849,869,889,909,929,948,968,989,1008,1028,1048,1069,1089,1109,1130,1148,1168,1189,1210,1229,1248,1268,1288,1309,1328,1349,1368],"xSR":741.5,"ySR":469.95,"xT1":424.9,"yT1":0,"xT2":1058.1,"yT2":0,"toosoon":0,"cond_shown":"equaldotanddens","ratio_trial":750,"smaller_num":"6","larger_num":"8","correct_side":2,"subjID":"miguelangelcastro11","gender":"0","age":"9","school":"4"},{"start_time":1552313735159,"click_time":1552313736963,"finger_time":1552313736204,"fix_duration":513.682492704173,"trial":25,"RT":1045,"MT":759,"sideResp":2,"stimulus":"img/750/equaldotsize/R/3_Ratio_750_L_15_R_20.png","xmouse":[791,791,791,791,791,791,791,791,791,791,791,791,791,791,791,791,791,791,791,791,791,791,791,791,791,791,791,791,791,791,791,791,791,791,791,791,791,791,791,791,791,791,791,791,791,791,791,791,791,791,795,799,820,831,844,853,861,872,887,897,904,910,920,922,922,923,923,923,923,923,923,923,923,923,922,922,921,920,920,922,927,933,940,955,965,979,990,1018,1034,1055,1077],"ymouse":[496,496,496,496,496,496,496,496,496,496,496,496,496,496,496,496,496,496,496,496,496,496,496,496,496,496,496,496,496,496,496,496,496,496,496,496,496,496,496,496,496,496,496,496,496,496,496,496,496,496,491,487,458,445,430,417,405,394,381,374,367,361,351,349,347,347,347,347,347,347,347,347,346,346,345,341,329,282,242,220,198,181,168,150,141,133,127,109,100,85,71],"timestamp_mouse":[9,25,45,75,85,106,125,145,164,185,204,225,246,265,284,304,326,344,364,384,405,426,444,465,485,506,524,544,565,584,605,624,645,664,686,706,726,744,765,785,808,825,846,865,884,905,925,944,964,984,1005,1024,1045,1064,1084,1104,1124,1145,1164,1184,1206,1225,1246,1264,1284,1305,1326,1346,1365,1385,1405,1425,1445,1466,1485,1504,1524,1545,1564,1584,1605,1624,1645,1664,1684,1705,1724,1746,1766,1784,1804],"xSR":741.5,"ySR":469.95,"xT1":424.9,"yT1":0,"xT2":1058.1,"yT2":0,"toosoon":0,"cond_shown":"equaldotsize","ratio_trial":750,"smaller_num":"15","larger_num":"20","correct_side":2,"subjID":"miguelangelcastro11","gender":"0","age":"9","school":"4"},{"start_time":1552313738575,"click_time":1552313739724,"finger_time":1552313739223,"fix_duration":529.3105201575304,"trial":26,"RT":648,"MT":501,"sideResp":1,"stimulus":"img/250/equaldotsize/L/15_Ratio_250_L_12_R_3.png","xmouse":[771,771,771,771,771,771,771,771,771,771,771,771,771,771,771,771,771,771,771,771,771,771,771,771,771,771,771,771,771,771,771,771,771,767,756,731,659,648,645,643,642,641,638,631,622,611,601,584,579,573,569,565,565,563,558,551,536,477],"ymouse":[506,506,506,506,506,506,506,506,506,506,506,506,506,506,506,506,506,506,506,506,506,506,506,506,506,506,506,506,506,506,506,491,468,434,376,309,206,199,197,195,194,193,191,184,174,160,146,105,86,68,55,44,43,43,43,43,43,48],"timestamp_mouse":[9,40,49,69,89,109,128,149,170,189,209,229,248,269,288,309,329,349,368,388,409,428,448,470,489,509,529,549,568,588,609,629,648,669,688,709,730,748,769,788,808,829,848,868,889,908,928,949,968,988,1008,1029,1048,1068,1089,1109,1128,1149],"xSR":741.5,"ySR":469.95,"xT1":424.9,"yT1":0,"xT2":1058.1,"yT2":0,"toosoon":0,"cond_shown":"equaldotsize","ratio_trial":250,"smaller_num":"3","larger_num":"12","correct_side":1,"subjID":"miguelangelcastro11","gender":"0","age":"9","school":"4"},{"start_time":1552313742044,"click_time":1552313743525,"finger_time":1552313743104,"fix_duration":478.44177974656196,"trial":27,"RT":1060,"MT":421,"sideResp":1,"stimulus":"img/900/equaldotsize/L/2_Ratio_900_L_20_R_18.png","xmouse":[783,783,783,783,783,783,783,783,783,783,783,783,783,783,783,783,783,783,783,783,783,783,783,783,783,783,783,783,783,783,783,783,783,783,786,789,793,795,797,800,805,814,821,824,826,826,826,827,827,828,829,830,828,786,761,741,727,716,702,695,684,677,673,671,671,671,667,655,629,618,602,581,555,530,472],"ymouse":[552,553,553,553,553,553,553,553,553,553,553,553,553,553,553,553,553,553,553,553,553,553,553,553,553,553,553,553,553,553,553,553,553,552,542,537,529,528,527,527,527,531,534,536,538,538,538,538,538,535,529,516,493,369,315,269,234,208,168,153,137,126,119,114,114,114,113,111,107,106,104,101,98,94,83],"timestamp_mouse":[1,31,39,59,81,100,119,139,159,180,199,219,239,259,280,300,320,340,359,379,400,420,441,460,480,499,520,540,560,580,600,620,640,659,680,699,719,740,760,779,800,819,840,860,880,900,919,940,961,979,999,1019,1041,1060,1079,1099,1119,1139,1160,1179,1200,1220,1239,1260,1279,1299,1319,1339,1360,1379,1399,1419,1441,1459,1481],"xSR":741.5,"ySR":469.95,"xT1":424.9,"yT1":0,"xT2":1058.1,"yT2":0,"toosoon":0,"cond_shown":"equaldotsize","ratio_trial":900,"smaller_num":"18","larger_num":"20","correct_side":1,"subjID":"miguelangelcastro11","gender":"0","age":"9","school":"4"},{"start_time":1552313745955,"click_time":1552313746943,"finger_time":1552313746725,"fix_duration":1429.720401731082,"trial":28,"RT":770,"MT":218,"sideResp":1,"stimulus":"img/250/equaldotsize/L/15_Ratio_250_L_12_R_3.png","xmouse":[772,772,772,772,772,772,772,772,772,772,772,772,772,772,772,772,772,772,772,772,772,772,772,772,772,772,772,772,772,772,772,772,772,772,772,772,772,771,752,729,698,674,630,609,591,570,544,495,475,469],"ymouse":[489,489,489,489,489,489,489,489,489,489,489,489,489,489,489,489,489,489,489,489,489,489,489,489,489,489,489,489,489,489,489,489,489,489,489,489,489,486,440,404,363,331,284,260,236,212,180,124,100,92],"timestamp_mouse":[12,37,49,69,90,108,129,150,169,189,208,229,249,269,288,308,328,348,368,388,409,430,448,469,490,508,529,550,568,589,609,629,650,669,689,708,730,748,770,788,808,828,850,868,888,909,929,949,969,988],"xSR":741.5,"ySR":469.95,"xT1":424.9,"yT1":0,"xT2":1058.1,"yT2":0,"toosoon":0,"cond_shown":"equaldotsize","ratio_trial":250,"smaller_num":"3","larger_num":"12","correct_side":1,"subjID":"miguelangelcastro11","gender":"0","age":"9","school":"4"},{"start_time":1552313748793,"click_time":1552313749884,"finger_time":1552313749445,"fix_duration":626.9881380643432,"trial":29,"RT":652,"MT":439,"sideResp":1,"stimulus":"img/250/equaldotanddens/L/15_Ratio_250_L_12_R_3.png","xmouse":[773,773,773,773,773,773,773,773,773,773,773,773,773,773,773,773,773,773,773,773,773,773,773,773,773,773,773,773,773,773,773,772,763,742,709,682,659,658,654,647,635,630,627,626,624,620,617,615,612,607,585,571,553,533,516],"ymouse":[538,538,538,538,538,538,538,538,538,538,538,538,538,538,538,538,538,538,538,538,538,538,538,538,538,538,538,538,538,538,538,517,463,392,316,278,243,240,234,228,218,212,206,201,195,178,166,158,147,129,87,69,53,35,22],"timestamp_mouse":[10,41,51,71,90,110,131,150,170,191,211,232,251,271,291,311,331,350,370,391,411,432,451,470,490,511,531,551,570,592,611,630,652,671,690,710,730,751,771,791,812,830,851,870,891,912,930,950,971,990,1011,1030,1051,1071,1091],"xSR":741.5,"ySR":469.95,"xT1":424.9,"yT1":0,"xT2":1058.1,"yT2":0,"toosoon":0,"cond_shown":"equaldotanddens","ratio_trial":250,"smaller_num":"3","larger_num":"12","correct_side":1,"subjID":"miguelangelcastro11","gender":"0","age":"9","school":"4"},{"start_time":1552313751808,"click_time":1552313752843,"finger_time":1552313752143,"fix_duration":1003.574288642407,"trial":30,"RT":335,"MT":700,"sideResp":2,"stimulus":"img/750/equaldotanddens/R/4_Ratio_750_L_15_R_20.png","xmouse":[801,801,801,801,801,801,801,801,802,802,802,802,802,802,802,804,805,807,808,811,812,813,814,814,813,811,811,811,811,811,810,810,810,810,810,832,846,861,875,900,912,931,947,957,974,1028,1032,1035,1039,1044,1054,1060],"ymouse":[483,483,483,483,483,482,481,479,477,477,477,477,477,477,476,470,467,462,457,442,433,424,407,402,389,385,384,384,384,384,383,383,383,382,382,358,341,326,311,279,259,230,205,187,169,133,129,123,112,99,84,80],"timestamp_mouse":[15,46,56,75,95,117,135,155,176,196,216,235,256,277,295,317,335,356,375,395,415,436,455,476,495,516,537,556,576,596,616,636,656,676,696,715,735,756,775,797,815,836,856,876,895,916,935,955,975,996,1015,1035],"xSR":741.5,"ySR":469.95,"xT1":424.9,"yT1":0,"xT2":1058.1,"yT2":0,"toosoon":0,"cond_shown":"equaldotanddens","ratio_trial":750,"smaller_num":"15","larger_num":"20","correct_side":2,"subjID":"miguelangelcastro11","gender":"0","age":"9","school":"4"},{"start_time":1552313753994,"click_time":1552313754743,"finger_time":1552313754604,"fix_duration":349.55262853812064,"trial":31,"RT":610,"MT":139,"sideResp":2,"stimulus":"img/750/equaldotanddens/R/5_Ratio_750_L_15_R_20.png","xmouse":[816,806,801,799,795,795,795,795,795,795,795,795,795,795,795,795,795,795,795,795,795,795,795,795,795,795,795,808,829,883,912,943,975,1013,1080,1093,1100],"ymouse":[535,537,537,537,537,537,537,537,537,537,537,537,537,537,537,537,537,537,537,537,537,537,537,537,537,537,537,530,516,463,422,378,331,276,148,114,91],"timestamp_mouse":[29,49,69,90,109,130,150,170,189,209,230,250,270,289,309,331,350,370,390,409,431,449,470,490,510,530,549,570,589,610,629,650,670,689,710,730,749],"xSR":741.5,"ySR":469.95,"xT1":424.9,"yT1":0,"xT2":1058.1,"yT2":0,"toosoon":0,"cond_shown":"equaldotanddens","ratio_trial":750,"smaller_num":"15","larger_num":"20","correct_side":2,"subjID":"miguelangelcastro11","gender":"0","age":"9","school":"4"},{"start_time":1552313757455,"click_time":1552313758463,"finger_time":1552313758103,"fix_duration":250,"trial":32,"RT":648,"MT":360,"sideResp":2,"stimulus":"img/750/equaldotsize/R/4_Ratio_750_L_15_R_20.png","xmouse":[805,805,805,805,805,805,805,805,805,805,805,805,805,805,805,805,805,805,805,805,805,805,805,805,805,805,805,805,805,805,809,820,872,921,945,960,970,983,988,997,1007,1018,1035,1039,1043,1048,1052,1057,1060,1065,1071],"ymouse":[538,538,538,538,538,538,538,538,538,538,538,538,538,538,538,538,538,538,538,538,538,538,538,538,538,538,538,538,538,537,530,513,433,353,317,299,291,280,275,266,252,238,207,195,181,168,157,138,124,109,93],"timestamp_mouse":[13,29,49,69,88,108,128,149,170,188,209,228,248,268,288,309,328,349,369,388,408,429,448,468,488,509,529,548,569,589,609,628,648,669,689,708,728,749,768,788,808,829,850,868,888,910,929,949,968,988,1008],"xSR":741.5,"ySR":469.95,"xT1":424.9,"yT1":0,"xT2":1058.1,"yT2":0,"toosoon":0,"cond_shown":"equaldotsize","ratio_trial":750,"smaller_num":"15","larger_num":"20","correct_side":2,"subjID":"miguelangelcastro11","gender":"0","age":"9","school":"4"},{"start_time":1552313759805,"click_time":1552313761224,"finger_time":1552313760384,"fix_duration":581.4710640310374,"trial":33,"RT":579,"MT":840,"sideResp":1,"stimulus":"img/900/randomdotsizeEA/L/1_Ratio_900_L_10_R_9.png","xmouse":[786,786,786,786,786,786,786,786,786,786,786,786,786,786,786,786,786,786,786,786,786,786,786,786,786,786,786,786,786,786,782,770,759,748,741,738,734,721,702,669,669,669,669,669,669,669,669,669,669,669,356,329,315,312,312,312,312,312,312,326,344,366,390,411,443,447,450,452,453,453,453],"ymouse":[504,504,504,504,504,504,504,504,504,504,504,504,504,504,504,504,504,504,504,504,504,504,504,504,502,486,477,470,463,450,378,332,282,255,235,227,207,163,95,19,19,19,19,19,19,19,19,19,19,19,6,47,72,82,85,85,85,85,86,94,102,107,108,108,106,103,102,100,100,100,99],"timestamp_mouse":[18,40,59,80,100,118,139,159,178,199,219,238,258,278,299,318,340,359,379,398,420,439,459,478,498,518,538,558,579,599,618,638,658,679,700,718,739,758,779,799,819,838,858,878,899,919,938,958,979,998,1018,1038,1058,1078,1100,1118,1138,1158,1180,1199,1218,1239,1258,1278,1299,1319,1338,1359,1379,1400,1419],"xSR":741.5,"ySR":469.95,"xT1":424.9,"yT1":0,"xT2":1058.1,"yT2":0,"toosoon":0,"cond_shown":"randomdotsizeEA","ratio_trial":900,"smaller_num":"9","larger_num":"10","correct_side":1,"subjID":"miguelangelcastro11","gender":"0","age":"9","school":"4"},{"start_time":1552313763800,"click_time":1552313764944,"finger_time":1552313764423,"fix_duration":1394.8120787132402,"trial":34,"RT":623,"MT":521,"sideResp":2,"stimulus":"img/250/equaldotanddens/R/13_Ratio_250_L_2_R_8.png","xmouse":[765,765,765,765,765,765,765,765,765,765,765,765,765,765,765,765,765,765,765,765,765,765,765,765,765,765,765,765,766,770,791,809,828,844,860,879,932,953,967,986,1010,1017,1021,1022,1024,1028,1045,1051,1055,1056,1056,1059,1063,1067,1073,1081,1085,1088],"ymouse":[508,508,508,508,508,508,508,508,508,508,508,508,508,508,508,508,508,508,508,508,508,508,508,508,508,508,508,508,506,502,480,460,444,430,420,410,392,385,375,362,341,335,330,327,324,319,289,272,254,233,190,169,147,132,120,108,103,99],"timestamp_mouse":[9,24,48,64,83,103,125,145,164,183,203,224,244,264,284,304,323,345,363,383,403,425,444,464,484,503,523,543,563,583,603,623,643,664,683,704,724,743,763,784,804,823,844,863,884,904,923,943,964,983,1003,1023,1043,1063,1083,1103,1124,1143],"xSR":741.5,"ySR":469.95,"xT1":424.9,"yT1":0,"xT2":1058.1,"yT2":0,"toosoon":0,"cond_shown":"equaldotanddens","ratio_trial":250,"smaller_num":"2","larger_num":"8","correct_side":2,"subjID":"miguelangelcastro11","gender":"0","age":"9","school":"4"},{"start_time":1552313766470,"click_time":1552313768243,"finger_time":1552313767343,"fix_duration":446.3277615919155,"trial":35,"RT":873,"MT":900,"sideResp":1,"stimulus":"img/900/equaldotanddens/R/9_Ratio_900_L_18_R_20.png","xmouse":[768,768,768,768,768,768,768,768,768,768,768,768,768,768,768,768,768,768,768,768,768,768,768,768,768,768,768,768,768,768,768,768,768,768,768,768,769,769,772,775,778,779,779,779,780,783,785,785,779,773,758,716,682,659,640,620,597,574,574,574,574,574,574,574,574,574,574,574,574,574,424,412,409,409,409,409,409,409,408,407,407,407,407,407,407,408,415,422,433],"ymouse":[539,539,539,539,539,539,539,539,539,539,539,539,539,539,539,539,539,539,539,539,539,539,539,539,539,539,539,538,537,537,537,536,535,535,535,535,534,532,524,512,497,477,470,461,449,429,376,345,318,292,259,187,137,110,88,65,38,11,11,11,11,11,11,11,11,11,11,11,11,11,1,20,25,25,25,25,25,25,30,35,38,39,39,39,40,40,41,44,49],"timestamp_mouse":[13,33,64,73,95,114,133,153,174,193,213,233,253,274,293,313,333,355,374,394,414,434,455,474,494,513,534,553,575,594,613,633,653,673,694,714,734,753,773,793,813,834,854,873,894,913,935,953,973,993,1013,1034,1054,1074,1094,1114,1134,1155,1175,1193,1214,1234,1254,1273,1294,1313,1334,1354,1373,1395,1414,1433,1454,1473,1493,1513,1535,1553,1573,1594,1613,1634,1654,1673,1693,1713,1734,1753,1773],"xSR":741.5,"ySR":469.95,"xT1":424.9,"yT1":0,"xT2":1058.1,"yT2":0,"toosoon":0,"cond_shown":"equaldotanddens","ratio_trial":900,"smaller_num":"18","larger_num":"20","correct_side":2,"subjID":"miguelangelcastro11","gender":"0","age":"9","school":"4"},{"start_time":1552313774272,"click_time":1552313775344,"finger_time":1552313774924,"fix_duration":1047.1752556493793,"trial":36,"RT":652,"MT":420,"sideResp":1,"stimulus":"img/500/equaldotanddens/L/11_Ratio_500_L_12_R_6.png","xmouse":[815,814,813,813,813,813,813,813,813,813,813,813,813,813,813,813,813,813,813,813,813,813,813,813,813,813,813,814,814,814,814,806,781,766,757,752,744,739,735,730,729,728,728,728,728,726,718,685,663,641,620,598,539,514],"ymouse":[530,532,534,534,534,534,534,534,534,534,534,534,534,534,534,534,534,534,534,534,534,534,534,534,534,533,533,531,526,521,509,488,412,372,344,316,216,195,179,164,158,155,155,155,155,154,150,136,127,117,108,98,67,54],"timestamp_mouse":[12,32,53,72,91,111,132,152,171,191,211,233,251,271,292,313,331,352,382,391,411,433,453,471,492,513,532,553,572,591,611,631,652,671,691,712,732,751,772,791,812,832,851,872,892,911,931,951,971,993,1012,1031,1051,1071],"xSR":741.5,"ySR":469.95,"xT1":424.9,"yT1":0,"xT2":1058.1,"yT2":0,"toosoon":0,"cond_shown":"equaldotanddens","ratio_trial":500,"smaller_num":"6","larger_num":"12","correct_side":1,"subjID":"miguelangelcastro11","gender":"0","age":"9","school":"4"},{"start_time":1552313777150,"click_time":1552313778524,"finger_time":1552313777763,"fix_duration":745.6201980681744,"trial":37,"RT":613,"MT":761,"sideResp":2,"stimulus":"img/250/equaldotsize/R/6_Ratio_250_L_6_R_24.png","xmouse":[783,783,783,783,783,783,783,783,783,783,783,783,783,783,783,783,783,783,783,783,783,783,783,783,783,783,785,785,789,801,819,839,855,885,898,909,920,941,949,954,959,962,970,972,972,972,972,973,975,979,982,987,996,1005,1015,1025,1039,1055,1068,1075,1080,1081,1082,1082,1082,1084,1086,1092,1123],"ymouse":[483,483,483,483,483,483,483,483,483,483,483,483,483,483,483,483,483,483,483,483,483,483,483,483,483,483,483,483,480,472,458,441,427,401,392,384,376,358,348,340,332,323,303,290,281,272,263,240,234,224,216,205,188,177,168,160,153,143,134,131,128,127,126,125,125,122,118,109,75],"timestamp_mouse":[13,33,54,74,93,114,134,155,174,195,215,234,254,273,295,313,333,354,373,393,414,433,455,474,494,513,534,553,574,593,613,634,654,673,693,713,734,755,774,794,813,834,854,873,894,914,933,954,973,993,1014,1033,1054,1073,1093,1113,1135,1155,1174,1193,1214,1233,1254,1273,1294,1314,1334,1353,1374],"xSR":741.5,"ySR":469.95,"xT1":424.9,"yT1":0,"xT2":1058.1,"yT2":0,"toosoon":0,"cond_shown":"equaldotsize","ratio_trial":250,"smaller_num":"6","larger_num":"24","correct_side":2,"subjID":"miguelangelcastro11","gender":"0","age":"9","school":"4"},{"start_time":1552313782064,"click_time":1552313783444,"finger_time":1552313782764,"fix_duration":1219.7633679830124,"trial":38,"RT":700,"MT":680,"sideResp":1,"stimulus":"img/250/randomdotsizeEA/L/3_Ratio_250_L_8_R_2.png","xmouse":[814,814,814,814,814,814,814,814,813,813,813,813,813,813,813,811,808,808,808,808,808,808,808,808,808,808,808,808,808,808,808,808,806,802,798,794,790,774,761,748,738,730,730,730,730,730,730,730,730,730,730,730,730,730,730,730,730,730,730,730,730,730,730,730,730,730,730,730,730,501],"ymouse":[486,486,486,486,486,486,486,486,486,486,486,486,486,486,486,486,486,486,486,486,486,486,486,486,486,486,486,486,486,486,486,486,486,481,472,459,436,319,232,148,79,13,13,13,13,13,13,13,13,13,13,13,13,13,13,13,13,13,13,13,13,13,13,13,13,13,13,13,13,1],"timestamp_mouse":[1,19,40,60,80,99,119,141,159,180,200,220,239,259,279,299,321,340,361,379,399,421,439,461,480,500,519,539,561,579,599,620,639,660,679,700,720,740,759,779,799,819,840,860,879,899,919,940,960,980,1000,1020,1039,1061,1080,1101,1119,1140,1160,1181,1200,1220,1241,1259,1280,1300,1319,1340,1359,1380],"xSR":741.5,"ySR":469.95,"xT1":424.9,"yT1":0,"xT2":1058.1,"yT2":0,"toosoon":0,"cond_shown":"randomdotsizeEA","ratio_trial":250,"smaller_num":"2","larger_num":"8","correct_side":1,"subjID":"miguelangelcastro11","gender":"0","age":"9","school":"4"},{"start_time":1552313785160,"click_time":1552313787364,"finger_time":1552313787124,"fix_duration":513.5816952564448,"trial":39,"RT":1964,"MT":240,"sideResp":2,"stimulus":"img/900/equaldotanddens/L/1_Ratio_900_L_10_R_9.png","xmouse":[770,770,770,770,770,770,770,770,770,770,770,770,770,770,770,770,770,770,770,770,770,770,770,770,770,770,770,770,770,770,770,770,770,770,770,770,770,770,770,770,770,770,770,770,770,770,770,770,770,770,770,770,770,770,770,770,770,770,770,770,770,770,770,770,770,770,770,770,770,770,770,770,770,770,770,770,770,770,770,770,770,770,763,754,748,747,747,747,747,747,750,752,753,753,755,757,762,785,791,795,799,805,826,851,903,937,955,1043,1080,1120,1154],"ymouse":[509,509,509,509,509,509,509,509,509,509,509,509,509,509,509,509,509,509,509,509,509,509,509,509,509,509,509,509,509,509,509,509,509,509,509,509,509,509,509,509,509,509,509,509,509,509,509,509,509,509,509,509,509,509,509,509,509,509,509,509,509,509,509,509,509,509,509,509,509,509,509,509,509,509,509,509,509,509,509,509,509,509,518,532,548,559,562,562,562,562,557,554,553,553,551,549,541,487,465,450,440,435,422,406,369,342,327,212,167,117,79],"timestamp_mouse":[9,24,46,63,84,105,123,143,163,183,204,223,243,264,285,303,323,344,363,385,404,424,443,464,485,505,524,544,563,583,603,624,644,665,683,704,724,743,763,783,805,824,844,863,885,903,924,944,964,985,1004,1024,1044,1063,1084,1103,1124,1143,1163,1184,1204,1224,1244,1264,1284,1303,1325,1343,1365,1383,1404,1423,1443,1464,1484,1505,1524,1543,1563,1585,1604,1623,1644,1663,1684,1703,1725,1745,1764,1783,1804,1823,1844,1864,1885,1904,1924,1943,1964,1983,2003,2024,2044,2063,2095,2103,2124,2144,2163,2183,2204],"xSR":741.5,"ySR":469.95,"xT1":424.9,"yT1":0,"xT2":1058.1,"yT2":0,"toosoon":0,"cond_shown":"equaldotanddens","ratio_trial":900,"smaller_num":"9","larger_num":"10","correct_side":1,"subjID":"miguelangelcastro11","gender":"0","age":"9","school":"4"},{"start_time":1552313790931,"click_time":1552313792344,"finger_time":1552313791664,"fix_duration":1044.2466672122532,"trial":40,"RT":733,"MT":680,"sideResp":1,"stimulus":"img/750/equaldotsize/L/9_Ratio_750_L_4_R_3.png","xmouse":[801,801,801,801,801,801,801,801,801,801,801,801,801,801,801,801,801,801,801,801,801,801,801,801,801,801,800,800,800,800,800,800,800,800,800,799,789,765,643,558,558,558,558,558,558,558,558,558,558,558,558,558,558,558,558,558,558,558,558,558,558,558,558,558,558,558,402,402,409,424,447],"ymouse":[521,521,521,521,521,521,521,521,521,521,521,521,521,521,521,521,521,521,521,521,521,521,521,521,521,521,518,516,508,507,506,506,506,506,506,491,449,365,144,32,32,32,32,32,32,32,32,32,32,32,32,32,32,32,32,32,32,32,32,32,32,32,32,32,32,32,0,0,0,1,4],"timestamp_mouse":[13,39,53,72,94,113,134,152,173,194,213,232,254,273,292,313,334,353,374,393,413,433,452,472,492,513,532,554,573,593,613,633,654,673,692,713,733,752,774,792,814,833,853,872,893,913,933,954,973,993,1013,1033,1054,1073,1093,1113,1133,1153,1173,1194,1213,1234,1254,1273,1294,1313,1333,1354,1373,1393,1413],"xSR":741.5,"ySR":469.95,"xT1":424.9,"yT1":0,"xT2":1058.1,"yT2":0,"toosoon":0,"cond_shown":"equaldotsize","ratio_trial":750,"smaller_num":"3","larger_num":"4","correct_side":1,"subjID":"miguelangelcastro11","gender":"0","age":"9","school":"4"},{"start_time":1552313796136,"click_time":1552313797224,"finger_time":1552313796645,"fix_duration":250,"trial":41,"RT":509,"MT":579,"sideResp":2,"stimulus":"img/250/equaldotanddens/R/11_Ratio_250_L_3_R_12.png","xmouse":[762,762,762,762,762,762,762,763,764,765,765,766,767,767,767,767,767,767,767,767,767,767,767,769,770,771,772,772,772,772,774,780,790,837,885,922,940,946,950,956,962,970,976,988,992,995,995,995,995,995,996,1003,1014,1047,1067],"ymouse":[509,509,509,509,509,509,510,508,506,505,504,502,502,501,501,501,501,501,501,501,501,500,498,484,475,469,466,465,465,465,463,457,445,394,335,273,233,206,162,135,121,108,99,81,77,75,74,74,74,74,74,73,71,66,64],"timestamp_mouse":[13,38,48,68,89,107,127,149,168,189,207,228,248,267,288,309,328,349,369,389,409,429,448,468,487,509,527,548,569,588,607,628,648,669,687,708,729,748,769,788,808,828,848,868,887,909,928,948,968,988,1009,1028,1049,1069,1087],"xSR":741.5,"ySR":469.95,"xT1":424.9,"yT1":0,"xT2":1058.1,"yT2":0,"toosoon":0,"cond_shown":"equaldotanddens","ratio_trial":250,"smaller_num":"3","larger_num":"12","correct_side":2,"subjID":"miguelangelcastro11","gender":"0","age":"9","school":"4"},{"start_time":1552313800321,"click_time":1552313801383,"finger_time":1552313800743,"fix_duration":575.6613070529485,"trial":42,"RT":422,"MT":640,"sideResp":2,"stimulus":"img/900/equaldotanddens/R/11_Ratio_900_L_18_R_20.png","xmouse":[806,806,806,806,806,806,806,806,806,806,806,806,806,806,806,806,806,806,806,806,811,818,830,842,856,858,860,860,861,864,875,885,899,912,940,952,964,977,989,1007,1021,1026,1030,1036,1045,1049,1054,1056,1058,1061,1063,1066,1069,1071],"ymouse":[508,508,508,508,508,508,508,508,508,508,508,508,508,508,508,508,508,508,508,508,491,469,420,379,325,308,301,298,296,294,278,267,254,244,229,222,215,205,195,179,168,164,161,154,143,137,129,122,118,111,108,105,101,98],"timestamp_mouse":[9,23,48,63,83,103,123,144,164,183,203,224,243,264,284,303,323,344,363,382,404,422,444,463,484,503,524,543,563,583,603,622,643,663,683,703,723,742,762,784,804,823,843,863,884,903,923,943,963,984,1003,1022,1042,1062],"xSR":741.5,"ySR":469.95,"xT1":424.9,"yT1":0,"xT2":1058.1,"yT2":0,"toosoon":0,"cond_shown":"equaldotanddens","ratio_trial":900,"smaller_num":"18","larger_num":"20","correct_side":2,"subjID":"miguelangelcastro11","gender":"0","age":"9","school":"4"},{"start_time":1552313803437,"click_time":1552313806123,"finger_time":1552313804004,"fix_duration":1012.3209307084305,"trial":43,"RT":567,"MT":2119,"sideResp":1,"stimulus":"img/900/randomdotsizeEA/R/13_Ratio_900_L_18_R_20.png","xmouse":[754,754,754,754,754,754,754,754,754,754,754,754,754,754,754,754,754,754,754,754,754,754,754,754,754,754,757,760,766,767,768,769,770,770,771,772,775,779,793,799,805,807,808,808,808,808,807,807,805,805,805,805,805,804,799,796,791,784,766,758,752,746,738,720,708,701,696,693,693,693,693,693,696,711,750,786,829,888,1007,1069,1116,1158,1181,1214,1227,1235,1243,1258,1281,1286,1288,1288,1288,1288,1288,1286,1277,1266,1248,1246,1246,1246,1245,1239,1182,1139,1094,1048,928,872,821,782,759,740,709,701,691,681,663,653,642,630,617,617,617,617,617,617,617,617,617,617,617,617,437],"ymouse":[496,496,496,496,496,496,496,496,496,496,496,496,496,496,496,496,496,496,496,496,496,496,496,496,496,496,495,488,465,450,438,431,427,423,421,417,407,392,345,316,283,251,227,209,184,178,173,168,160,159,159,158,156,152,133,119,101,84,52,43,40,39,38,36,34,33,32,32,32,32,32,32,32,32,35,41,58,83,162,203,235,257,270,282,283,283,280,271,252,248,245,244,244,244,244,243,242,239,232,231,231,231,230,227,199,181,161,141,87,64,41,30,25,22,15,13,12,10,8,6,5,2,0,0,0,0,0,0,0,0,0,0,0,0,2],"timestamp_mouse":[13,29,46,67,87,108,127,147,167,188,208,227,247,268,288,307,328,348,367,388,408,428,447,467,486,506,527,546,567,586,606,627,647,668,688,706,727,747,767,787,807,827,846,867,886,906,928,947,968,986,1007,1026,1048,1067,1088,1107,1128,1147,1168,1186,1207,1227,1247,1267,1286,1307,1328,1346,1366,1387,1407,1428,1447,1468,1488,1507,1527,1547,1568,1586,1608,1627,1647,1668,1686,1707,1728,1747,1768,1786,1807,1827,1848,1867,1887,1907,1928,1947,1967,1987,2006,2026,2046,2067,2086,2107,2128,2147,2168,2186,2207,2228,2248,2267,2287,2307,2327,2348,2367,2387,2407,2426,2448,2467,2486,2506,2527,2548,2567,2587,2607,2627,2648,2667,2686],"xSR":741.5,"ySR":469.95,"xT1":424.9,"yT1":0,"xT2":1058.1,"yT2":0,"toosoon":0,"cond_shown":"randomdotsizeEA","ratio_trial":900,"smaller_num":"18","larger_num":"20","correct_side":2,"subjID":"miguelangelcastro11","gender":"0","age":"9","school":"4"},{"start_time":1552313810049,"click_time":1552313811344,"finger_time":1552313810784,"fix_duration":583.5769195489879,"trial":44,"RT":735,"MT":560,"sideResp":1,"stimulus":"img/900/equaldotsize/R/5_Ratio_900_L_9_R_10.png","xmouse":[785,785,785,785,785,785,785,785,785,785,785,785,785,785,785,785,785,785,785,785,785,785,785,785,785,785,785,785,785,785,786,787,796,803,805,806,806,802,796,791,787,784,778,772,766,759,747,733,726,718,712,707,703,693,691,690,689,687,672,658,640,618,569,533,509],"ymouse":[551,551,551,551,551,551,551,551,551,551,551,551,551,551,551,551,551,551,551,551,551,551,551,551,551,551,551,551,551,551,551,550,526,498,486,472,459,439,428,417,412,407,400,385,365,337,296,205,161,129,105,88,74,52,50,49,49,49,48,46,46,44,37,33,28],"timestamp_mouse":[14,38,55,75,95,115,134,155,174,195,215,236,256,275,294,316,336,355,374,396,416,436,454,476,496,515,535,556,575,595,614,635,655,675,694,716,735,756,775,795,815,836,856,875,895,915,935,955,974,995,1015,1035,1055,1075,1094,1116,1135,1155,1174,1195,1214,1235,1256,1275,1295],"xSR":741.5,"ySR":469.95,"xT1":424.9,"yT1":0,"xT2":1058.1,"yT2":0,"toosoon":0,"cond_shown":"equaldotsize","ratio_trial":900,"smaller_num":"9","larger_num":"10","correct_side":2,"subjID":"miguelangelcastro11","gender":"0","age":"9","school":"4"},{"start_time":1552313815178,"click_time":1552313816685,"finger_time":1552313816045,"fix_duration":1372.8292380211142,"trial":45,"RT":867,"MT":640,"sideResp":2,"stimulus":"img/500/equaldotanddens/R/3_Ratio_500_L_10_R_20.png","xmouse":[783,783,783,783,783,783,783,783,783,783,783,783,783,783,783,783,783,783,783,783,783,783,783,783,783,783,783,783,783,783,783,783,783,783,783,783,783,783,783,783,784,805,826,849,869,886,919,929,939,946,954,965,985,997,1011,1027,1056,1069,1083,1098,1117,1148,1173,1198,1217,1230,1230,1230,1230,1230,1230,1230,1230,1230,1230,1152],"ymouse":[504,504,504,504,504,504,504,504,504,504,504,504,504,504,504,504,504,504,504,504,504,504,504,504,504,504,504,504,504,504,504,504,504,504,504,504,504,504,504,504,504,498,492,478,464,450,424,415,408,402,395,387,373,368,358,348,322,306,289,265,231,158,113,68,34,5,5,5,5,5,5,5,5,5,5,7],"timestamp_mouse":[11,26,46,66,86,107,127,146,165,187,206,227,245,265,286,306,326,347,367,386,406,427,447,467,487,507,527,546,565,586,606,626,646,666,687,707,725,747,766,786,805,826,845,867,886,907,927,946,966,986,1007,1026,1046,1067,1087,1105,1126,1145,1165,1186,1207,1226,1245,1266,1286,1307,1326,1346,1367,1386,1407,1426,1447,1466,1486,1507],"xSR":741.5,"ySR":469.95,"xT1":424.9,"yT1":0,"xT2":1058.1,"yT2":0,"toosoon":0,"cond_shown":"equaldotanddens","ratio_trial":500,"smaller_num":"10","larger_num":"20","correct_side":2,"subjID":"miguelangelcastro11","gender":"0","age":"9","school":"4"},{"start_time":1552313819157,"click_time":1552313820465,"finger_time":1552313819965,"fix_duration":250,"trial":46,"RT":808,"MT":500,"sideResp":2,"stimulus":"img/750/randomdotsizeEA/R/11_Ratio_750_L_12_R_16.png","xmouse":[799,799,799,799,799,799,799,799,799,799,799,799,799,799,799,799,799,799,799,799,799,799,799,799,799,799,799,799,799,799,799,799,799,799,799,799,804,812,825,837,849,868,902,921,940,954,970,985,1021,1047,1085,1125,1198,1217,1227,1231,1234,1234,1234,1234,1234,1234,1234,1216,1181,1138],"ymouse":[517,517,517,517,517,517,517,517,517,517,517,517,517,517,517,517,517,517,517,517,517,517,517,517,517,517,517,517,517,517,517,517,517,517,517,517,515,505,490,476,461,439,400,381,365,353,340,328,297,274,241,207,130,102,81,63,56,54,54,54,54,54,54,60,79,96],"timestamp_mouse":[10,42,47,67,87,107,128,148,168,188,207,226,247,268,288,307,328,346,367,388,408,427,447,467,488,508,527,548,567,588,606,628,648,667,688,706,727,747,767,786,808,827,848,866,886,907,927,947,968,987,1008,1027,1047,1066,1087,1107,1127,1148,1168,1188,1206,1227,1247,1266,1287,1308],"xSR":741.5,"ySR":469.95,"xT1":424.9,"yT1":0,"xT2":1058.1,"yT2":0,"toosoon":0,"cond_shown":"randomdotsizeEA","ratio_trial":750,"smaller_num":"12","larger_num":"16","correct_side":2,"subjID":"miguelangelcastro11","gender":"0","age":"9","school":"4"},{"start_time":1552313822434,"click_time":1552313824123,"finger_time":1552313823304,"fix_duration":928.7056384849423,"trial":47,"RT":870,"MT":819,"sideResp":1,"stimulus":"img/900/randomdotsizeEA/L/4_Ratio_900_L_20_R_18.png","xmouse":[773,773,773,773,773,773,773,773,773,773,773,773,773,773,773,773,773,773,773,773,773,773,773,773,773,773,773,773,773,773,773,773,773,773,773,773,773,773,773,773,774,777,787,800,808,812,813,811,802,800,800,800,800,795,780,766,754,740,719,708,693,674,643,586,564,564,564,564,564,564,255,248,240,237,240,245,257,278,330,359,383,401,413,423,435],"ymouse":[503,503,503,503,503,503,503,503,503,503,503,503,503,503,503,503,503,503,503,503,503,503,503,503,503,503,503,503,503,503,503,503,503,503,503,503,503,503,503,503,503,498,472,433,387,344,310,285,254,250,250,250,250,244,220,200,184,167,145,135,121,101,70,23,9,9,9,9,9,9,0,9,28,47,51,56,62,71,86,93,96,96,96,95,90],"timestamp_mouse":[10,31,50,71,91,110,130,150,170,190,210,230,249,271,291,310,329,350,371,390,411,430,451,470,490,511,531,550,571,589,609,630,651,670,691,710,731,750,770,791,811,830,851,870,891,910,931,950,971,990,1010,1031,1050,1071,1089,1110,1130,1150,1170,1190,1210,1230,1250,1270,1291,1310,1330,1350,1371,1390,1409,1430,1449,1471,1490,1510,1531,1551,1571,1589,1610,1631,1651,1670,1689],"xSR":741.5,"ySR":469.95,"xT1":424.9,"yT1":0,"xT2":1058.1,"yT2":0,"toosoon":0,"cond_shown":"randomdotsizeEA","ratio_trial":900,"smaller_num":"18","larger_num":"20","correct_side":1,"subjID":"miguelangelcastro11","gender":"0","age":"9","school":"4"},{"start_time":1552313825277,"click_time":1552313826444,"finger_time":1552313826084,"fix_duration":250,"trial":48,"RT":807,"MT":360,"sideResp":1,"stimulus":"img/500/equaldotanddens/L/11_Ratio_500_L_12_R_6.png","xmouse":[750,750,750,747,747,747,747,747,747,747,747,747,747,747,747,747,747,747,747,747,747,747,747,747,747,747,747,747,747,747,747,747,747,747,747,747,747,746,746,748,748,719,701,687,679,675,667,664,659,654,646,611,595,580,567,557,538,526,517],"ymouse":[524,524,524,524,524,524,524,524,524,524,524,524,524,524,524,524,524,524,524,524,524,524,524,524,524,524,524,524,524,524,524,524,524,524,524,524,524,520,512,485,448,317,285,267,255,247,232,227,217,205,188,141,128,119,111,107,94,85,79],"timestamp_mouse":[12,27,47,68,88,107,128,147,168,187,206,227,248,267,287,308,327,348,368,387,408,428,448,467,488,508,528,547,566,587,607,627,646,668,688,706,727,747,767,787,807,828,846,867,887,908,927,947,967,986,1008,1027,1047,1068,1087,1107,1126,1147,1166],"xSR":741.5,"ySR":469.95,"xT1":424.9,"yT1":0,"xT2":1058.1,"yT2":0,"toosoon":0,"cond_shown":"equaldotanddens","ratio_trial":500,"smaller_num":"6","larger_num":"12","correct_side":1,"subjID":"miguelangelcastro11","gender":"0","age":"9","school":"4"},{"start_time":1552313828180,"click_time":1552313829664,"finger_time":1552313829164,"fix_duration":995.4704159183798,"trial":49,"RT":984,"MT":500,"sideResp":2,"stimulus":"img/750/randomdotsizeEA/R/12_Ratio_750_L_3_R_4.png","xmouse":[779,779,779,779,779,779,779,779,779,779,779,779,779,779,779,779,779,779,779,779,779,779,779,779,779,779,779,779,779,779,779,779,779,780,780,780,780,782,783,783,784,785,787,788,791,794,799,800,802,806,812,832,847,872,903,934,977,1006,1031,1056,1081,1101,1143,1176,1223,1306,1306,1306,1306,1306,1306,1306,1211,1176,1145],"ymouse":[545,545,545,545,545,545,545,545,545,545,545,545,545,545,545,545,545,545,545,545,545,545,545,545,545,545,545,545,545,545,545,544,544,543,543,543,542,538,536,535,534,530,525,519,510,501,482,479,475,467,460,440,426,408,386,363,333,311,294,276,258,244,212,184,137,27,27,27,27,27,27,27,16,24,25],"timestamp_mouse":[14,24,44,65,84,104,124,143,165,184,205,224,243,264,285,304,324,345,364,384,405,424,445,465,484,505,524,545,565,585,605,624,643,664,685,704,723,745,763,784,803,824,843,865,884,905,924,945,963,984,1003,1024,1043,1064,1084,1104,1124,1143,1164,1184,1205,1224,1244,1265,1284,1304,1324,1345,1365,1384,1405,1424,1444,1465,1484],"xSR":741.5,"ySR":469.95,"xT1":424.9,"yT1":0,"xT2":1058.1,"yT2":0,"toosoon":0,"cond_shown":"randomdotsizeEA","ratio_trial":750,"smaller_num":"3","larger_num":"4","correct_side":2,"subjID":"miguelangelcastro11","gender":"0","age":"9","school":"4"},{"start_time":1552313831454,"click_time":1552313832804,"finger_time":1552313832284,"fix_duration":549.1953184350458,"trial":50,"RT":830,"MT":520,"sideResp":1,"stimulus":"img/900/equaldotanddens/L/8_Ratio_900_L_20_R_18.png","xmouse":[802,802,802,802,802,802,802,802,802,802,802,802,802,802,802,802,802,802,802,802,802,802,802,802,802,802,802,802,802,802,802,802,802,802,802,802,802,802,802,802,802,802,797,762,737,703,703,703,703,703,703,703,703,703,703,703,703,703,703,703,703,703,703,703,703,703,703,456],"ymouse":[504,504,504,504,504,504,504,504,504,504,504,504,504,504,504,504,504,504,504,504,504,504,504,504,504,504,504,504,504,504,504,504,504,504,504,504,504,504,504,497,479,448,403,228,139,38,38,38,38,38,38,38,38,38,38,38,38,38,38,38,38,38,38,38,38,38,38,1],"timestamp_mouse":[13,38,50,71,90,111,131,149,171,190,211,229,250,271,290,311,331,349,371,391,411,431,450,471,491,510,531,551,571,591,611,630,650,670,691,709,730,751,769,791,809,830,850,871,890,910,930,950,970,990,1011,1031,1051,1070,1091,1110,1130,1150,1170,1190,1210,1230,1250,1270,1290,1310,1329,1350],"xSR":741.5,"ySR":469.95,"xT1":424.9,"yT1":0,"xT2":1058.1,"yT2":0,"toosoon":0,"cond_shown":"equaldotanddens","ratio_trial":900,"smaller_num":"18","larger_num":"20","correct_side":1,"subjID":"miguelangelcastro11","gender":"0","age":"9","school":"4"},{"start_time":1552313835936,"click_time":1552313837684,"finger_time":1552313837064,"fix_duration":290.0649183038992,"trial":51,"RT":1128,"MT":620,"sideResp":2,"stimulus":"img/750/randomdotsizeEA/R/4_Ratio_750_L_15_R_20.png","xmouse":[784,784,784,784,784,784,784,784,784,784,784,784,784,784,784,784,784,784,784,784,784,784,784,784,784,784,784,784,784,784,784,784,784,784,784,784,784,784,784,784,784,784,784,784,784,784,784,784,784,784,786,790,798,809,821,837,851,865,878,914,935,957,981,1029,1061,1095,1132,1171,1223,1238,1243,1246,1248,1248,1250,1250,1242,1231,1207,1205,1204,1204,1203,1196,1191,1182,1170,1156],"ymouse":[510,510,510,510,510,510,510,510,510,510,510,510,510,510,510,510,510,510,510,510,510,510,510,510,510,510,510,510,510,510,510,510,510,510,510,510,510,510,510,510,510,510,510,510,510,510,510,510,510,510,510,510,510,510,507,503,497,490,485,468,456,441,426,391,368,343,311,272,211,190,184,178,173,169,156,140,120,101,82,81,80,80,80,75,74,73,73,73],"timestamp_mouse":[13,29,49,68,88,107,129,147,168,188,209,227,248,269,287,307,328,348,368,388,409,428,449,469,489,507,529,549,568,588,609,629,648,669,688,709,727,749,769,788,809,828,848,868,888,909,929,948,969,988,1008,1028,1047,1068,1088,1109,1128,1147,1167,1189,1208,1227,1248,1269,1287,1308,1327,1348,1369,1387,1408,1428,1448,1468,1487,1508,1528,1548,1569,1587,1609,1628,1648,1669,1688,1708,1728,1748],"xSR":741.5,"ySR":469.95,"xT1":424.9,"yT1":0,"xT2":1058.1,"yT2":0,"toosoon":0,"cond_shown":"randomdotsizeEA","ratio_trial":750,"smaller_num":"15","larger_num":"20","correct_side":2,"subjID":"miguelangelcastro11","gender":"0","age":"9","school":"4"},{"start_time":1552313838612,"click_time":1552313839824,"finger_time":1552313839365,"fix_duration":306.8647283192151,"trial":52,"RT":753,"MT":459,"sideResp":1,"stimulus":"img/250/randomdotsizeEA/L/1_Ratio_250_L_8_R_2.png","xmouse":[826,826,826,826,826,826,826,826,826,826,826,826,826,826,826,826,826,826,826,826,826,826,826,826,826,826,826,826,826,826,826,826,826,826,826,826,827,828,828,812,786,759,735,722,711,711,711,711,708,700,690,676,662,645,631,595,578,565,554,532,521],"ymouse":[497,497,497,497,497,497,497,497,497,497,497,497,497,497,497,497,497,497,497,497,497,497,497,497,497,497,497,497,497,497,497,497,497,497,497,497,487,463,419,284,207,145,108,90,78,78,78,78,75,70,67,63,58,54,48,32,24,19,15,10,7],"timestamp_mouse":[12,35,52,72,92,112,132,153,173,192,212,232,253,273,293,313,332,352,372,391,412,433,452,471,493,513,532,553,572,593,611,632,653,673,692,713,732,753,772,793,811,832,852,873,893,911,932,953,972,993,1011,1032,1052,1072,1092,1113,1132,1153,1172,1192,1211],"xSR":741.5,"ySR":469.95,"xT1":424.9,"yT1":0,"xT2":1058.1,"yT2":0,"toosoon":0,"cond_shown":"randomdotsizeEA","ratio_trial":250,"smaller_num":"2","larger_num":"8","correct_side":1,"subjID":"miguelangelcastro11","gender":"0","age":"9","school":"4"},{"start_time":1552313842531,"click_time":1552313843805,"finger_time":1552313843284,"fix_duration":1403.8538781136212,"trial":53,"RT":753,"MT":521,"sideResp":2,"stimulus":"img/750/equaldotanddens/R/7_Ratio_750_L_3_R_4.png","xmouse":[811,811,811,811,811,811,811,811,811,811,811,811,811,811,811,811,811,813,823,831,836,839,839,839,839,839,839,839,839,839,839,839,839,839,839,839,839,844,860,887,912,931,951,997,1023,1045,1060,1075,1098,1107,1113,1120,1126,1143,1151,1161,1171,1173,1173,1173,1173,1173,1170,1143],"ymouse":[517,517,517,517,517,517,517,517,517,517,517,517,517,517,517,517,517,517,517,517,515,513,513,513,513,513,513,513,513,513,513,513,513,513,513,513,513,510,492,463,438,421,406,376,362,348,336,323,297,286,278,270,259,231,213,185,149,125,114,113,113,113,110,76],"timestamp_mouse":[13,42,53,73,93,112,134,154,172,193,213,232,254,273,292,312,334,354,373,394,412,434,453,472,492,514,534,553,572,593,613,634,652,674,694,714,734,753,774,793,813,834,853,874,892,912,933,954,973,992,1013,1034,1054,1074,1092,1113,1133,1154,1173,1193,1212,1233,1252,1273],"xSR":741.5,"ySR":469.95,"xT1":424.9,"yT1":0,"xT2":1058.1,"yT2":0,"toosoon":0,"cond_shown":"equaldotanddens","ratio_trial":750,"smaller_num":"3","larger_num":"4","correct_side":2,"subjID":"miguelangelcastro11","gender":"0","age":"9","school":"4"},{"start_time":1552313846959,"click_time":1552313848083,"finger_time":1552313847704,"fix_duration":834.3431945704009,"trial":54,"RT":745,"MT":379,"sideResp":1,"stimulus":"img/500/equaldotsize/L/13_Ratio_500_L_12_R_6.png","xmouse":[794,794,794,794,794,794,794,794,794,794,794,794,794,794,794,794,794,794,794,794,794,794,794,794,794,795,795,795,793,792,792,792,792,792,792,792,792,788,772,758,740,719,696,629,599,571,559,555,554,554,554,554,550,545,539,529,513],"ymouse":[538,538,538,538,538,538,538,538,538,538,538,538,538,538,538,538,538,538,538,538,538,538,538,538,538,537,536,533,526,524,521,521,521,521,520,516,503,468,427,403,372,335,293,161,96,55,38,30,29,29,29,29,29,29,29,30,34],"timestamp_mouse":[9,24,45,66,86,105,126,144,166,186,205,225,245,266,285,305,326,346,366,385,405,426,445,464,486,505,526,544,566,585,606,624,646,666,686,705,726,745,765,784,806,825,845,865,884,904,925,946,965,985,1004,1025,1046,1064,1085,1105,1124],"xSR":741.5,"ySR":469.95,"xT1":424.9,"yT1":0,"xT2":1058.1,"yT2":0,"toosoon":0,"cond_shown":"equaldotsize","ratio_trial":500,"smaller_num":"6","larger_num":"12","correct_side":1,"subjID":"miguelangelcastro11","gender":"0","age":"9","school":"4"},{"start_time":1552313851069,"click_time":1552313852764,"finger_time":1552313852124,"fix_duration":384.8415727029231,"trial":55,"RT":1055,"MT":640,"sideResp":1,"stimulus":"img/750/randomdotsizeEA/R/2_Ratio_750_L_6_R_8.png","xmouse":[767,767,767,767,767,767,767,767,767,767,767,767,767,767,767,767,767,767,767,767,767,767,767,767,767,767,767,767,767,767,767,767,767,767,767,767,767,767,767,767,767,767,767,767,767,767,767,767,767,768,770,781,807,815,819,823,823,823,822,819,810,759,722,706,689,666,616,593,577,562,549,534,531,531,531,531,531,531,531,531,531,531,531,531,464],"ymouse":[526,526,526,526,526,526,526,526,526,526,526,526,526,526,526,526,526,526,526,526,526,526,526,526,526,526,526,526,526,526,526,526,526,526,526,526,526,526,526,526,526,526,526,526,526,526,526,526,526,526,523,510,449,424,404,390,378,375,371,367,360,329,304,289,267,232,153,120,90,62,40,8,1,1,1,1,1,1,1,1,1,1,1,1,3],"timestamp_mouse":[15,35,56,76,96,114,134,156,175,196,216,234,255,275,294,316,335,356,376,394,415,436,456,475,496,514,535,556,576,595,614,635,655,675,696,716,734,754,776,796,815,835,855,875,896,916,936,954,974,995,1015,1035,1055,1074,1095,1115,1135,1154,1175,1194,1215,1235,1255,1274,1295,1315,1335,1354,1375,1395,1415,1435,1455,1476,1495,1515,1535,1555,1574,1595,1614,1635,1655,1675,1695],"xSR":741.5,"ySR":469.95,"xT1":424.9,"yT1":0,"xT2":1058.1,"yT2":0,"toosoon":0,"cond_shown":"randomdotsizeEA","ratio_trial":750,"smaller_num":"6","larger_num":"8","correct_side":2,"subjID":"miguelangelcastro11","gender":"0","age":"9","school":"4"},{"start_time":1552313856419,"click_time":1552313857624,"finger_time":1552313857103,"fix_duration":813.4069807063037,"trial":56,"RT":684,"MT":521,"sideResp":1,"stimulus":"img/500/equaldotsize/L/11_Ratio_500_L_12_R_6.png","xmouse":[820,820,820,820,820,820,820,820,820,820,820,820,820,820,820,820,820,820,820,820,820,820,820,820,820,820,820,820,820,820,820,821,823,828,828,822,814,806,797,770,747,716,671,600,529,529,529,529,529,529,529,529,529,529,529,529,529,529,529,420,434],"ymouse":[527,527,527,527,527,527,527,527,527,527,527,527,527,527,527,527,527,527,527,527,527,527,527,527,527,527,527,527,527,527,527,523,515,491,434,392,368,344,323,276,249,214,164,100,19,19,19,19,19,19,19,19,19,19,19,19,19,19,19,29,39],"timestamp_mouse":[12,36,45,65,86,106,126,146,166,186,206,225,245,266,286,305,325,345,366,385,406,426,445,466,486,506,525,545,566,585,605,626,645,666,684,705,724,746,765,786,804,825,845,865,885,906,925,945,966,985,1005,1025,1045,1065,1084,1104,1124,1144,1164,1185,1204],"xSR":741.5,"ySR":469.95,"xT1":424.9,"yT1":0,"xT2":1058.1,"yT2":0,"toosoon":0,"cond_shown":"equaldotsize","ratio_trial":500,"smaller_num":"6","larger_num":"12","correct_side":1,"subjID":"miguelangelcastro11","gender":"0","age":"9","school":"4"},{"start_time":1552313860892,"click_time":1552313862724,"finger_time":1552313861605,"fix_duration":787.5477625432886,"trial":57,"RT":713,"MT":1119,"sideResp":2,"stimulus":"img/900/equaldotanddens/R/13_Ratio_900_L_18_R_20.png","xmouse":[772,772,772,772,772,772,772,772,772,772,772,772,772,772,772,772,772,772,772,772,772,772,772,772,772,773,775,778,781,784,789,791,796,802,811,846,862,873,884,891,912,927,939,952,966,996,1008,1024,1038,1048,1071,1080,1087,1092,1098,1106,1118,1122,1124,1127,1127,1126,1125,1125,1125,1125,1125,1125,1125,1125,1124,1124,1123,1123,1122,1118,1111,1099,1084,1072,1048,1042,1042,1042,1042,1042,1042,1042,1042,1042,1084,1110],"ymouse":[523,523,523,523,523,523,523,523,523,523,523,523,523,523,523,523,523,523,523,523,523,523,523,523,523,523,523,521,518,516,509,507,503,498,493,475,469,463,456,451,433,416,404,395,385,371,366,358,349,343,327,318,310,303,294,280,258,246,236,224,202,193,187,185,183,182,179,176,171,167,166,166,165,165,165,164,164,165,167,168,168,168,168,168,168,168,168,168,167,165,115,83],"timestamp_mouse":[11,43,51,72,91,113,131,151,173,191,211,232,252,271,292,312,333,351,372,391,411,431,452,473,492,513,532,552,572,592,612,631,652,673,692,713,733,752,771,792,812,832,852,872,892,913,931,952,971,992,1013,1031,1052,1072,1092,1112,1133,1153,1171,1191,1212,1232,1251,1272,1292,1312,1331,1353,1372,1393,1412,1432,1452,1472,1491,1511,1531,1553,1572,1592,1612,1632,1652,1672,1691,1711,1732,1753,1772,1792,1812,1831],"xSR":741.5,"ySR":469.95,"xT1":424.9,"yT1":0,"xT2":1058.1,"yT2":0,"toosoon":0,"cond_shown":"equaldotanddens","ratio_trial":900,"smaller_num":"18","larger_num":"20","correct_side":2,"subjID":"miguelangelcastro11","gender":"0","age":"9","school":"4"},{"start_time":1552313865146,"click_time":1552313866424,"finger_time":1552313865844,"fix_duration":1159.1984844456076,"trial":58,"RT":698,"MT":580,"sideResp":2,"stimulus":"img/750/equaldotanddens/R/4_Ratio_750_L_15_R_20.png","xmouse":[797,797,797,797,797,797,797,797,797,797,797,797,797,797,797,797,797,797,797,797,797,797,797,797,797,797,797,797,797,797,797,797,798,802,818,843,877,928,1040,1099,1121,1137,1152,1170,1174,1177,1180,1184,1203,1219,1228,1231,1232,1232,1231,1227,1222,1217,1206,1194,1185,1177,1168,1161,1147],"ymouse":[522,522,522,522,522,522,522,522,522,522,522,522,522,522,522,522,522,522,522,522,522,522,522,522,522,522,522,522,522,522,522,522,522,522,511,493,468,426,337,290,277,265,254,239,235,231,227,220,184,151,128,111,106,105,105,105,104,103,100,96,93,90,86,84,75],"timestamp_mouse":[1,18,41,58,79,97,117,139,158,178,199,219,239,258,278,299,318,337,357,379,399,418,438,459,478,498,518,539,558,578,597,619,638,657,677,698,717,738,759,778,798,818,838,858,878,898,918,938,958,978,997,1017,1037,1057,1078,1098,1118,1139,1158,1179,1198,1219,1238,1258,1278],"xSR":741.5,"ySR":469.95,"xT1":424.9,"yT1":0,"xT2":1058.1,"yT2":0,"toosoon":0,"cond_shown":"equaldotanddens","ratio_trial":750,"smaller_num":"15","larger_num":"20","correct_side":2,"subjID":"miguelangelcastro11","gender":"0","age":"9","school":"4"},{"start_time":1552313867930,"click_time":1552313868984,"finger_time":1552313868744,"fix_duration":704.4725833819132,"trial":59,"RT":814,"MT":240,"sideResp":1,"stimulus":"img/750/equaldotsize/L/6_Ratio_750_L_24_R_18.png","xmouse":[827,827,827,827,827,827,827,827,827,827,827,827,827,827,827,827,827,827,827,827,827,827,827,827,827,827,827,827,827,827,827,827,827,827,827,827,827,827,827,824,814,807,801,787,779,770,760,750,710,647,598,542,509],"ymouse":[501,501,501,501,501,501,501,501,501,501,501,501,501,501,501,501,501,501,501,501,501,501,501,501,501,501,501,501,501,501,501,501,501,501,501,501,501,501,499,481,457,441,430,388,362,339,316,287,222,153,109,61,28],"timestamp_mouse":[14,36,54,73,94,115,134,155,173,193,214,235,253,274,294,314,335,353,375,395,415,433,453,475,493,513,535,555,575,594,614,635,654,673,695,715,733,755,774,795,814,834,853,874,893,914,934,954,974,994,1014,1034,1054],"xSR":741.5,"ySR":469.95,"xT1":424.9,"yT1":0,"xT2":1058.1,"yT2":0,"toosoon":0,"cond_shown":"equaldotsize","ratio_trial":750,"smaller_num":"18","larger_num":"24","correct_side":1,"subjID":"miguelangelcastro11","gender":"0","age":"9","school":"4"},{"start_time":1552313871445,"click_time":1552313872164,"finger_time":1552313872024,"fix_duration":1439.5131973483144,"trial":60,"RT":579,"MT":140,"sideResp":1,"stimulus":"img/500/equaldotsize/L/13_Ratio_500_L_12_R_6.png","xmouse":[754,754,754,754,754,754,754,754,754,754,754,754,754,754,754,754,754,754,754,754,754,754,754,754,754,754,754,754,751,736,714,683,645,553,537,529,524],"ymouse":[529,529,529,529,529,529,529,529,529,529,529,529,529,529,529,529,529,529,529,529,529,529,529,529,529,529,529,525,499,454,394,321,252,123,103,91,78],"timestamp_mouse":[1,18,42,59,79,100,120,139,159,180,200,220,238,260,279,298,320,339,359,378,398,420,440,458,479,500,519,539,559,579,600,619,639,659,679,698,719],"xSR":741.5,"ySR":469.95,"xT1":424.9,"yT1":0,"xT2":1058.1,"yT2":0,"toosoon":0,"cond_shown":"equaldotsize","ratio_trial":500,"smaller_num":"6","larger_num":"12","correct_side":1,"subjID":"miguelangelcastro11","gender":"0","age":"9","school":"4"},{"start_time":1552313875814,"click_time":1552313877525,"finger_time":1552313876804,"fix_duration":1387.545628319814,"trial":61,"RT":990,"MT":721,"sideResp":2,"stimulus":"img/750/equaldotsize/R/3_Ratio_750_L_15_R_20.png","xmouse":[807,807,807,807,807,807,807,807,806,805,805,805,805,805,805,805,805,805,805,805,805,805,805,805,805,803,802,802,802,802,802,802,802,802,802,802,801,798,798,798,798,796,795,794,793,793,794,808,824,853,866,892,912,945,994,1021,1035,1048,1060,1078,1088,1096,1102,1106,1117,1118,1122,1124,1129,1138,1143,1152,1160,1171,1186,1197,1205,1213,1219,1223,1223,1223,1223,1223,1175,1148],"ymouse":[537,537,537,537,537,537,537,537,535,532,531,531,531,531,531,531,531,531,531,531,531,531,531,530,518,516,516,516,516,516,516,516,516,516,516,516,516,514,514,514,514,513,513,512,512,512,509,506,501,484,476,466,456,445,434,421,413,402,393,378,370,363,357,351,334,326,318,311,302,278,263,245,224,203,162,133,112,96,78,47,37,34,34,34,38,42],"timestamp_mouse":[19,37,49,70,89,110,129,149,170,190,211,229,250,270,290,310,329,351,371,390,411,430,450,470,490,510,530,549,571,589,610,630,651,669,690,711,730,751,771,790,811,831,850,871,889,911,930,950,969,990,1009,1030,1050,1070,1089,1109,1130,1150,1170,1190,1209,1229,1249,1271,1290,1310,1329,1350,1370,1390,1409,1429,1449,1469,1491,1511,1529,1550,1570,1590,1609,1630,1651,1670,1691,1711],"xSR":741.5,"ySR":469.95,"xT1":424.9,"yT1":0,"xT2":1058.1,"yT2":0,"toosoon":0,"cond_shown":"equaldotsize","ratio_trial":750,"smaller_num":"15","larger_num":"20","correct_side":2,"subjID":"miguelangelcastro11","gender":"0","age":"9","school":"4"},{"start_time":1552313879201,"click_time":1552313880604,"finger_time":1552313880004,"fix_duration":654.2533695245493,"trial":62,"RT":803,"MT":600,"sideResp":1,"stimulus":"img/500/randomdotsizeEA/L/11_Ratio_500_L_12_R_6.png","xmouse":[806,806,806,806,806,806,806,806,806,806,806,803,801,795,792,788,788,788,788,788,788,788,788,788,788,788,788,787,784,781,778,776,776,775,774,772,772,772,771,770,763,758,750,738,725,705,698,690,680,669,649,641,633,627,622,600,588,579,571,568,564,558,553,548,543,539,533,533,532,529,522],"ymouse":[514,514,514,514,514,514,514,514,514,514,514,514,514,515,515,515,515,515,515,515,515,515,515,515,515,515,515,515,514,510,503,500,498,495,493,486,486,484,481,477,464,452,440,419,399,364,351,337,312,