[{"start_time":1552054895804,"click_time":1552054897324,"finger_time":1552054896625,"fix_duration":633.7339477750043,"trial":0,"RT":821,"MT":699,"sideResp":2,"stimulus":"img/250/equaldotanddens/R/12_Ratio_250_L_5_R_20.png","xmouse":[793,793,793,793,793,793,793,793,793,793,793,793,793,793,793,793,793,793,793,793,793,793,793,793,793,793,793,793,793,793,793,793,793,793,793,793,793,793,793,793,793,794,797,829,872,922,957,975,1000,1010,1018,1028,1036,1070,1099,1120,1137,1150,1161,1172,1172,1172,1172,1172,1174,1175,1175,1175,1175,1174,1173,1172,1170,1164,1162,1160,1157],"ymouse":[577,577,577,577,577,577,577,577,577,577,577,577,577,577,577,577,577,577,577,577,577,577,577,577,577,577,577,577,577,577,577,577,577,577,577,577,577,577,577,577,577,571,556,469,382,281,208,160,94,72,52,31,15,0,0,0,0,0,0,0,0,0,0,0,3,9,13,15,18,21,23,25,29,37,39,41,44],"timestamp_mouse":[10,21,54,60,80,100,120,141,160,181,200,221,240,260,281,301,320,340,361,379,400,420,439,460,481,500,520,541,560,580,599,620,640,660,680,700,721,740,761,780,799,821,840,860,880,900,920,940,960,980,1000,1020,1041,1061,1081,1100,1120,1141,1161,1180,1200,1220,1240,1261,1280,1299,1321,1340,1362,1380,1400,1421,1439,1459,1480,1501,1520],"xSR":741.5,"ySR":501.8,"xT1":424.9,"yT1":0,"xT2":1058.1,"yT2":0,"toosoon":0,"cond_shown":"equaldotanddens","ratio_trial":250,"smaller_num":"5","larger_num":"20","correct_side":2,"subjID":"mnikisabogal15","gender":"0","age":"9","school":"4","test":{"fix_dur":[250,1500],"timestim":300,"targets_dim":[100,100],"targets_relative_coord":[0.3,0.7],"size_stim":[880,420],"start_dim":[100,100],"size_start":[300,300],"size_fix":60,"samplingrate":20,"img_types":["equaldotsize","equaldotanddens","randomdotsizeEA"],"ratios":[250,500,750,900],"rep_conds":9,"nTrials":120,"trials_to_rest":500,"Trials_order":[49,36,45,39,56,10,101,25,95,30,50,116,60,115,44,16,59,62,17,34,89,77,113,104,69,3,11,97,90,110,51,6,88,71,103,52,21,72,83,12,112,54,9,117,76,102,87,82,48,85,67,31,8,2,119,63,81,14,37,92,33,75,5,111,22,38,107,114,1,93,42,109,91,96,40,29,47,99,73,18,4,65,105,43,64,100,55,74,20,46,7,15,19,53,13,0,118,24,66,58,106,108,98,86,41,57,94,84,61,68,35,70,26,32,80,23,79,28,27,78],"cond_shown":["equaldotanddens","equaldotsize","equaldotsize","equaldotsize","randomdotsizeEA","equaldotanddens","randomdotsizeEA","equaldotanddens","randomdotsizeEA","equaldotsize","randomdotsizeEA","randomdotsizeEA","equaldotsize","equaldotanddens","randomdotsizeEA","equaldotanddens","randomdotsizeEA","randomdotsizeEA","randomdotsizeEA","equaldotanddens","randomdotsizeEA","randomdotsizeEA","randomdotsizeEA","randomdotsizeEA","equaldotsize","equaldotsize","randomdotsizeEA","equaldotanddens","equaldotsize","randomdotsizeEA","equaldotsize","equaldotsize","equaldotanddens","randomdotsizeEA","equaldotanddens","equaldotanddens","equaldotsize","equaldotsize","randomdotsizeEA","equaldotsize","equaldotanddens","equaldotsize","equaldotsize","equaldotsize","equaldotanddens","equaldotsize","equaldotsize","equaldotanddens","equaldotsize","equaldotanddens","equaldotanddens","equaldotanddens","randomdotsizeEA","randomdotsizeEA","randomdotsizeEA","equaldotsize","equaldotsize","randomdotsizeEA","equaldotanddens","randomdotsizeEA","equaldotsize","equaldotsize","randomdotsizeEA","equaldotsize","equaldotanddens","randomdotsizeEA","randomdotsizeEA","equaldotsize","equaldotanddens","equaldotsize","equaldotsize","equaldotanddens","equaldotanddens","equaldotsize","equaldotanddens","randomdotsizeEA","randomdotsizeEA","equaldotsize","equaldotanddens","equaldotsize","equaldotanddens","randomdotsizeEA","equaldotsize","equaldotanddens","equaldotanddens","equaldotanddens","equaldotanddens","randomdotsizeEA","randomdotsizeEA","equaldotanddens","equaldotanddens","equaldotsize","equaldotanddens","randomdotsizeEA","equaldotanddens","equaldotsize","equaldotanddens","equaldotsize","equaldotsize","equaldotanddens","equaldotanddens","equaldotsize","randomdotsizeEA","randomdotsizeEA","randomdotsizeEA","equaldotsize","equaldotanddens","equaldotsize","equaldotanddens","randomdotsizeEA","randomdotsizeEA","equaldotanddens","randomdotsizeEA","randomdotsizeEA","randomdotsizeEA","randomdotsizeEA","equaldotanddens","equaldotanddens","equaldotsize","equaldotsize"],"ratio_trial":[250,250,900,500,750,900,500,250,900,750,250,750,250,750,750,500,900,250,500,900,500,500,500,750,900,500,900,250,750,250,500,750,500,900,750,500,900,250,900,250,500,750,900,900,500,750,500,900,250,250,750,750,750,250,900,500,900,250,250,750,900,500,500,500,900,250,900,750,250,900,750,250,750,250,500,500,900,500,250,750,500,500,900,750,500,500,750,250,750,900,750,500,750,500,250,250,900,250,750,900,900,250,250,250,500,900,900,250,250,750,900,900,250,750,750,900,750,500,500,750],"smaller_num":["5","1","18","6","9","9","9","2","9","15","4","15","6","15","3","9","18","2","2","18","2","5","5","3","18","1","18","4","3","3","1","3","4","18","3","4","18","2","18","4","6","6","18","18","4","3","9","9","2","4","3","15","3","5","18","2","9","6","3","6","18","9","4","4","18","5","18","3","3","18","3","2","6","2","6","5","9","6","3","9","6","2","9","3","4","3","6","3","12","18","15","9","15","4","3","3","18","5","18","9","18","2","4","2","1","18","18","3","4","3","9","9","3","3","18","9","15","5","5","15"],"larger_num":["20","4","20","12","12","10","18","8","10","20","16","20","24","20","4","18","20","8","4","20","4","10","10","4","20","2","20","16","4","12","2","4","8","20","4","8","20","8","20","16","12","8","20","20","8","4","18","10","8","16","4","20","4","20","20","4","10","24","12","8","20","18","8","8","20","20","20","4","12","20","4","8","8","8","12","10","10","12","12","12","12","4","10","4","8","6","8","12","16","20","20","18","20","8","12","12","20","20","24","10","20","8","16","8","2","20","20","12","16","4","10","10","12","4","24","10","20","10","10","20"],"correct_side":[2,2,1,1,2,1,2,1,1,2,2,2,1,2,2,2,1,1,1,1,2,1,2,2,1,2,1,2,1,1,2,1,1,1,2,1,1,1,2,2,1,2,1,1,1,1,2,2,1,2,1,2,2,2,1,2,2,2,2,1,1,1,1,1,2,2,2,1,2,1,1,2,2,1,1,1,2,1,2,2,1,1,1,2,1,2,1,2,2,2,2,2,2,1,2,1,1,2,1,1,2,2,1,1,2,1,1,2,1,1,2,1,1,1,1,2,2,2,2,2],"img_shown":["img/250/equaldotanddens/R/12_Ratio_250_L_5_R_20.png","img/250/equaldotsize/R/8_Ratio_250_L_1_R_4.png","img/900/equaldotsize/L/2_Ratio_900_L_20_R_18.png","img/500/equaldotsize/L/11_Ratio_500_L_12_R_6.png","img/750/randomdotsizeEA/R/15_Ratio_750_L_9_R_12.png","img/900/equaldotanddens/L/1_Ratio_900_L_10_R_9.png","img/500/randomdotsizeEA/R/1_Ratio_500_L_9_R_18.png","img/250/equaldotanddens/L/3_Ratio_250_L_8_R_2.png","img/900/randomdotsizeEA/L/1_Ratio_900_L_10_R_9.png","img/750/equaldotsize/R/5_Ratio_750_L_15_R_20.png","img/250/randomdotsizeEA/R/10_Ratio_250_L_4_R_16.png","img/750/randomdotsizeEA/R/5_Ratio_750_L_15_R_20.png","img/250/equaldotsize/L/5_Ratio_250_L_24_R_6.png","img/750/equaldotanddens/R/3_Ratio_750_L_15_R_20.png","img/750/randomdotsizeEA/R/12_Ratio_750_L_3_R_4.png","img/500/equaldotanddens/R/1_Ratio_500_L_9_R_18.png","img/900/randomdotsizeEA/L/4_Ratio_900_L_20_R_18.png","img/250/randomdotsizeEA/L/7_Ratio_250_L_8_R_2.png","img/500/randomdotsizeEA/L/10_Ratio_500_L_4_R_2.png","img/900/equaldotanddens/L/8_Ratio_900_L_20_R_18.png","img/500/randomdotsizeEA/R/9_Ratio_500_L_2_R_4.png","img/500/randomdotsizeEA/L/7_Ratio_500_L_10_R_5.png","img/500/randomdotsizeEA/R/14_Ratio_500_L_5_R_10.png","img/750/randomdotsizeEA/R/7_Ratio_750_L_3_R_4.png","img/900/equaldotsize/L/4_Ratio_900_L_20_R_18.png","img/500/equaldotsize/R/12_Ratio_500_L_1_R_2.png","img/900/randomdotsizeEA/L/2_Ratio_900_L_20_R_18.png","img/250/equaldotanddens/R/10_Ratio_250_L_4_R_16.png","img/750/equaldotsize/L/9_Ratio_750_L_4_R_3.png","img/250/randomdotsizeEA/L/15_Ratio_250_L_12_R_3.png","img/500/equaldotsize/R/12_Ratio_500_L_1_R_2.png","img/750/equaldotsize/L/8_Ratio_750_L_4_R_3.png","img/500/equaldotanddens/L/8_Ratio_500_L_8_R_4.png","img/900/randomdotsizeEA/L/2_Ratio_900_L_20_R_18.png","img/750/equaldotanddens/R/12_Ratio_750_L_3_R_4.png","img/500/equaldotanddens/L/8_Ratio_500_L_8_R_4.png","img/900/equaldotsize/L/2_Ratio_900_L_20_R_18.png","img/250/equaldotsize/L/7_Ratio_250_L_8_R_2.png","img/900/randomdotsizeEA/R/9_Ratio_900_L_18_R_20.png","img/250/equaldotsize/R/10_Ratio_250_L_4_R_16.png","img/500/equaldotanddens/L/11_Ratio_500_L_12_R_6.png","img/750/equaldotsize/R/2_Ratio_750_L_6_R_8.png","img/900/equaldotsize/L/8_Ratio_900_L_20_R_18.png","img/900/equaldotsize/L/10_Ratio_900_L_20_R_18.png","img/500/equaldotanddens/L/8_Ratio_500_L_8_R_4.png","img/750/equaldotsize/L/8_Ratio_750_L_4_R_3.png","img/500/equaldotsize/R/6_Ratio_500_L_9_R_18.png","img/900/equaldotanddens/R/7_Ratio_900_L_9_R_10.png","img/250/equaldotsize/L/7_Ratio_250_L_8_R_2.png","img/250/equaldotanddens/R/10_Ratio_250_L_4_R_16.png","img/750/equaldotanddens/L/8_Ratio_750_L_4_R_3.png","img/750/equaldotanddens/R/5_Ratio_750_L_15_R_20.png","img/750/randomdotsizeEA/R/7_Ratio_750_L_3_R_4.png","img/250/randomdotsizeEA/R/12_Ratio_250_L_5_R_20.png","img/900/randomdotsizeEA/L/2_Ratio_900_L_20_R_18.png","img/500/equaldotsize/R/9_Ratio_500_L_2_R_4.png","img/900/equaldotsize/R/7_Ratio_900_L_9_R_10.png","img/250/randomdotsizeEA/R/6_Ratio_250_L_6_R_24.png","img/250/equaldotanddens/R/9_Ratio_250_L_3_R_12.png","img/750/randomdotsizeEA/L/13_Ratio_750_L_8_R_6.png","img/900/equaldotsize/L/2_Ratio_900_L_20_R_18.png","img/500/equaldotsize/L/4_Ratio_500_L_18_R_9.png","img/500/randomdotsizeEA/L/8_Ratio_500_L_8_R_4.png","img/500/equaldotsize/L/8_Ratio_500_L_8_R_4.png","img/900/equaldotanddens/R/9_Ratio_900_L_18_R_20.png","img/250/randomdotsizeEA/R/12_Ratio_250_L_5_R_20.png","img/900/randomdotsizeEA/R/14_Ratio_900_L_18_R_20.png","img/750/equaldotsize/L/10_Ratio_750_L_4_R_3.png","img/250/equaldotanddens/R/4_Ratio_250_L_3_R_12.png","img/900/equaldotsize/L/10_Ratio_900_L_20_R_18.png","img/750/equaldotsize/L/9_Ratio_750_L_4_R_3.png","img/250/equaldotanddens/R/13_Ratio_250_L_2_R_8.png","img/750/equaldotanddens/R/2_Ratio_750_L_6_R_8.png","img/250/equaldotsize/L/3_Ratio_250_L_8_R_2.png","img/500/equaldotanddens/L/11_Ratio_500_L_12_R_6.png","img/500/randomdotsizeEA/L/7_Ratio_500_L_10_R_5.png","img/900/randomdotsizeEA/R/5_Ratio_900_L_9_R_10.png","img/500/equaldotsize/L/11_Ratio_500_L_12_R_6.png","img/250/equaldotanddens/R/11_Ratio_250_L_3_R_12.png","img/750/equaldotsize/R/15_Ratio_750_L_9_R_12.png","img/500/equaldotanddens/L/13_Ratio_500_L_12_R_6.png","img/500/randomdotsizeEA/L/5_Ratio_500_L_4_R_2.png","img/900/equaldotsize/L/1_Ratio_900_L_10_R_9.png","img/750/equaldotanddens/R/7_Ratio_750_L_3_R_4.png","img/500/equaldotanddens/L/8_Ratio_500_L_8_R_4.png","img/500/equaldotanddens/R/2_Ratio_500_L_3_R_6.png","img/750/equaldotanddens/L/14_Ratio_750_L_8_R_6.png","img/250/randomdotsizeEA/R/11_Ratio_250_L_3_R_12.png","img/750/randomdotsizeEA/R/11_Ratio_750_L_12_R_16.png","img/900/equaldotanddens/R/11_Ratio_900_L_18_R_20.png","img/750/equaldotanddens/R/5_Ratio_750_L_15_R_20.png","img/500/equaldotsize/R/6_Ratio_500_L_9_R_18.png","img/750/equaldotanddens/R/5_Ratio_750_L_15_R_20.png","img/500/randomdotsizeEA/L/8_Ratio_500_L_8_R_4.png","img/250/equaldotanddens/R/9_Ratio_250_L_3_R_12.png","img/250/equaldotsize/L/15_Ratio_250_L_12_R_3.png","img/900/equaldotanddens/L/2_Ratio_900_L_20_R_18.png","img/250/equaldotsize/R/12_Ratio_250_L_5_R_20.png","img/750/equaldotsize/L/6_Ratio_750_L_24_R_18.png","img/900/equaldotanddens/L/1_Ratio_900_L_10_R_9.png","img/900/equaldotanddens/R/12_Ratio_900_L_18_R_20.png","img/250/equaldotsize/R/13_Ratio_250_L_2_R_8.png","img/250/randomdotsizeEA/L/2_Ratio_250_L_16_R_4.png","img/250/randomdotsizeEA/L/1_Ratio_250_L_8_R_2.png","img/500/randomdotsizeEA/R/15_Ratio_500_L_1_R_2.png","img/900/equaldotsize/L/2_Ratio_900_L_20_R_18.png","img/900/equaldotanddens/L/8_Ratio_900_L_20_R_18.png","img/250/equaldotsize/R/4_Ratio_250_L_3_R_12.png","img/250/equaldotanddens/L/2_Ratio_250_L_16_R_4.png","img/750/randomdotsizeEA/L/10_Ratio_750_L_4_R_3.png","img/900/randomdotsizeEA/R/15_Ratio_900_L_9_R_10.png","img/900/equaldotanddens/L/1_Ratio_900_L_10_R_9.png","img/250/randomdotsizeEA/L/14_Ratio_250_L_12_R_3.png","img/750/randomdotsizeEA/L/9_Ratio_750_L_4_R_3.png","img/750/randomdotsizeEA/L/6_Ratio_750_L_24_R_18.png","img/900/randomdotsizeEA/R/3_Ratio_900_L_9_R_10.png","img/750/equaldotanddens/R/5_Ratio_750_L_15_R_20.png","img/500/equaldotanddens/R/14_Ratio_500_L_5_R_10.png","img/500/equaldotsize/R/14_Ratio_500_L_5_R_10.png","img/750/equaldotsize/R/5_Ratio_750_L_15_R_20.png"],"Rat0":[["12_Ratio_0_L_9_R_0.png","13_Ratio_0_L_6_R_0.png","5_Ratio_0_L_2_R_0.png","6_Ratio_0_L_4_R_0.png","8_Ratio_0_L_6_R_0.png"],["1_Ratio_0_L_0_R_17.png","10_Ratio_0_L_0_R_22.png","11_Ratio_0_L_0_R_1.png","14_Ratio_0_L_0_R_24.png","15_Ratio_0_L_0_R_4.png","2_Ratio_0_L_0_R_5.png","3_Ratio_0_L_0_R_17.png","4_Ratio_0_L_0_R_7.png","7_Ratio_0_L_0_R_19.png","9_Ratio_0_L_0_R_15.png"]],"Rat250":[["1_Ratio_250_L_8_R_2.png","14_Ratio_250_L_12_R_3.png","15_Ratio_250_L_12_R_3.png","2_Ratio_250_L_16_R_4.png","3_Ratio_250_L_8_R_2.png","5_Ratio_250_L_24_R_6.png","7_Ratio_250_L_8_R_2.png"],["10_Ratio_250_L_4_R_16.png","11_Ratio_250_L_3_R_12.png","12_Ratio_250_L_5_R_20.png","13_Ratio_250_L_2_R_8.png","4_Ratio_250_L_3_R_12.png","6_Ratio_250_L_6_R_24.png","8_Ratio_250_L_1_R_4.png","9_Ratio_250_L_3_R_12.png"]],"Rat500":[["10_Ratio_500_L_4_R_2.png","11_Ratio_500_L_12_R_6.png","13_Ratio_500_L_12_R_6.png","4_Ratio_500_L_18_R_9.png","5_Ratio_500_L_4_R_2.png","7_Ratio_500_L_10_R_5.png","8_Ratio_500_L_8_R_4.png"],["1_Ratio_500_L_9_R_18.png","12_Ratio_500_L_1_R_2.png","14_Ratio_500_L_5_R_10.png","15_Ratio_500_L_1_R_2.png","2_Ratio_500_L_3_R_6.png","3_Ratio_500_L_10_R_20.png","6_Ratio_500_L_9_R_18.png","9_Ratio_500_L_2_R_4.png"]],"Rat750":[["1_Ratio_750_L_20_R_15.png","10_Ratio_750_L_4_R_3.png","13_Ratio_750_L_8_R_6.png","14_Ratio_750_L_8_R_6.png","6_Ratio_750_L_24_R_18.png","8_Ratio_750_L_4_R_3.png","9_Ratio_750_L_4_R_3.png"],["11_Ratio_750_L_12_R_16.png","12_Ratio_750_L_3_R_4.png","15_Ratio_750_L_9_R_12.png","2_Ratio_750_L_6_R_8.png","3_Ratio_750_L_15_R_20.png","4_Ratio_750_L_15_R_20.png","5_Ratio_750_L_15_R_20.png","7_Ratio_750_L_3_R_4.png"]],"Rat900":[["1_Ratio_900_L_10_R_9.png","10_Ratio_900_L_20_R_18.png","2_Ratio_900_L_20_R_18.png","4_Ratio_900_L_20_R_18.png","8_Ratio_900_L_20_R_18.png"],["11_Ratio_900_L_18_R_20.png","12_Ratio_900_L_18_R_20.png","13_Ratio_900_L_18_R_20.png","14_Ratio_900_L_18_R_20.png","15_Ratio_900_L_9_R_10.png","3_Ratio_900_L_9_R_10.png","5_Ratio_900_L_9_R_10.png","6_Ratio_900_L_9_R_10.png","7_Ratio_900_L_9_R_10.png","9_Ratio_900_L_18_R_20.png"]],"Rat1000":[["10_Ratio_1000_L_16_R_16.png","11_Ratio_1000_L_6_R_6.png","12_Ratio_1000_L_14_R_14.png","13_Ratio_1000_L_20_R_20.png","15_Ratio_1000_L_15_R_15.png","2_Ratio_1000_L_17_R_17.png","4_Ratio_1000_L_9_R_9.png","5_Ratio_1000_L_6_R_6.png","6_Ratio_1000_L_19_R_19.png","8_Ratio_1000_L_14_R_14.png","9_Ratio_1000_L_25_R_25.png"],["1_Ratio_1000_L_1_R_1.png","14_Ratio_1000_L_17_R_17.png","3_Ratio_1000_L_17_R_17.png","7_Ratio_1000_L_6_R_6.png"]]}},{"start_time":1552054900142,"click_time":1552054901466,"finger_time":1552054901124,"fix_duration":356.290332982358,"trial":1,"RT":982,"MT":342,"sideResp":2,"stimulus":"img/250/equaldotsize/R/8_Ratio_250_L_1_R_4.png","xmouse":[773,773,773,773,773,773,773,773,773,773,773,773,773,773,773,773,773,773,773,773,773,773,774,774,776,776,777,779,780,780,780,780,780,780,780,780,780,780,780,780,780,780,780,780,780,780,782,791,814,857,908,991,1070,1086,1096,1102,1118,1126,1134,1143,1151,1160,1171,1172,1172,1169,1154],"ymouse":[627,627,627,627,627,627,627,627,627,627,627,627,627,627,627,627,627,627,627,627,627,627,626,626,626,626,627,627,628,628,628,628,628,628,628,628,628,628,628,628,628,628,628,628,628,628,628,627,612,588,555,483,373,344,327,314,277,258,240,218,197,175,118,99,85,72,49],"timestamp_mouse":[17,40,41,62,82,102,122,142,163,181,201,222,242,263,283,302,322,343,363,382,403,421,442,462,482,502,523,542,563,581,603,623,642,663,682,702,723,742,762,782,803,823,842,862,881,901,922,942,963,982,1002,1022,1043,1062,1082,1102,1123,1142,1162,1182,1201,1222,1242,1262,1282,1302,1323],"xSR":741.5,"ySR":573.95,"xT1":424.9,"yT1":0,"xT2":1058.1,"yT2":0,"toosoon":0,"cond_shown":"equaldotsize","ratio_trial":250,"smaller_num":"1","larger_num":"4","correct_side":2,"subjID":"mnikisabogal15","gender":"0","age":"9","school":"4"},{"start_time":1552054903507,"click_time":1552054904846,"finger_time":1552054904324,"fix_duration":1081.2109946013754,"trial":2,"RT":817,"MT":522,"sideResp":1,"stimulus":"img/900/equaldotsize/L/2_Ratio_900_L_20_R_18.png","xmouse":[840,840,840,840,840,840,840,840,840,840,840,840,840,840,840,840,840,840,840,840,840,840,840,840,840,840,840,840,840,840,840,840,840,840,840,840,840,840,840,840,815,780,726,656,647,646,645,644,631,623,616,613,611,608,607,604,598,594,583,575,565,552,545,516,495,467,439],"ymouse":[615,615,615,615,615,615,615,615,615,615,615,615,615,615,615,615,615,615,615,615,615,615,615,615,615,615,615,615,615,615,615,615,615,615,615,615,615,615,615,598,539,475,409,348,341,340,339,338,325,315,299,289,282,262,253,238,221,206,179,163,150,135,128,115,109,100,91],"timestamp_mouse":[17,43,57,76,97,118,138,157,178,197,218,237,257,277,297,317,337,357,377,397,417,438,457,477,497,517,537,558,577,598,618,637,657,678,698,717,736,758,778,798,817,838,857,877,897,917,937,957,977,997,1017,1037,1057,1077,1097,1117,1138,1158,1177,1197,1217,1238,1257,1277,1297,1317,1338],"xSR":741.5,"ySR":573.95,"xT1":424.9,"yT1":0,"xT2":1058.1,"yT2":0,"toosoon":0,"cond_shown":"equaldotsize","ratio_trial":900,"smaller_num":"18","larger_num":"20","correct_side":1,"subjID":"mnikisabogal15","gender":"0","age":"9","school":"4"},{"start_time":1552054906218,"click_time":1552054907304,"finger_time":1552054906884,"fix_duration":613.2622227645662,"trial":3,"RT":666,"MT":420,"sideResp":1,"stimulus":"img/500/equaldotsize/L/11_Ratio_500_L_12_R_6.png","xmouse":[775,775,775,775,775,775,775,775,775,775,775,775,775,775,775,775,775,775,775,775,775,775,775,775,775,775,775,775,775,775,773,767,755,696,663,654,650,645,619,594,571,553,543,537,535,523,513,505,499,495,494,494,495,500,504],"ymouse":[628,628,628,628,628,628,628,628,628,628,628,628,628,628,628,628,628,628,628,628,628,628,628,628,628,628,628,628,628,628,616,605,574,456,391,368,354,346,322,308,295,282,273,261,254,236,222,209,199,185,176,164,148,116,92],"timestamp_mouse":[20,27,46,66,86,105,126,146,165,187,206,226,246,266,287,307,327,346,366,385,406,426,446,466,487,505,527,546,566,586,606,627,645,666,686,706,726,746,766,786,806,827,847,867,886,906,927,947,966,986,1006,1027,1046,1066,1086],"xSR":741.5,"ySR":573.95,"xT1":424.9,"yT1":0,"xT2":1058.1,"yT2":0,"toosoon":0,"cond_shown":"equaldotsize","ratio_trial":500,"smaller_num":"6","larger_num":"12","correct_side":1,"subjID":"mnikisabogal15","gender":"0","age":"9","school":"4"},{"start_time":1552054908557,"click_time":1552054910144,"finger_time":1552054909324,"fix_duration":250,"trial":4,"RT":767,"MT":820,"sideResp":2,"stimulus":"img/750/randomdotsizeEA/R/15_Ratio_750_L_9_R_12.png","xmouse":[815,815,815,815,815,815,815,815,815,815,815,815,815,815,815,815,815,815,815,815,815,815,815,815,815,815,815,815,815,815,815,815,815,815,816,817,818,827,829,832,835,835,839,841,842,844,845,851,857,867,879,895,936,955,971,980,1007,1016,1027,1038,1045,1050,1055,1056,1057,1058,1059,1063,1064,1065,1066,1067,1069,1071,1072,1074,1078,1082,1084,1086],"ymouse":[594,594,594,594,594,594,594,594,594,594,594,594,594,594,594,594,594,594,594,594,594,594,594,594,594,594,594,594,594,594,594,594,594,594,594,593,592,579,572,565,560,558,552,549,547,543,539,527,513,490,461,428,352,321,294,278,240,224,205,187,176,166,156,154,152,148,146,137,133,131,130,127,122,120,118,115,110,104,102,99],"timestamp_mouse":[12,28,46,67,87,106,127,147,167,188,207,227,247,268,287,307,328,348,367,387,408,427,448,467,487,508,527,548,567,588,608,627,648,667,687,708,727,748,767,787,807,827,847,867,888,907,927,948,967,988,1007,1028,1047,1067,1087,1108,1128,1147,1168,1187,1208,1227,1247,1268,1288,1307,1326,1347,1367,1388,1407,1428,1446,1467,1487,1507,1526,1547,1567,1587],"xSR":741.5,"ySR":573.95,"xT1":424.9,"yT1":0,"xT2":1058.1,"yT2":0,"toosoon":0,"cond_shown":"randomdotsizeEA","ratio_trial":750,"smaller_num":"9","larger_num":"12","correct_side":2,"subjID":"mnikisabogal15","gender":"0","age":"9","school":"4"},{"start_time":1552054911945,"click_time":1552054913085,"finger_time":1552054912664,"fix_duration":397.68848559293,"trial":5,"RT":719,"MT":421,"sideResp":2,"stimulus":"img/900/equaldotanddens/L/1_Ratio_900_L_10_R_9.png","xmouse":[832,832,832,832,832,832,832,832,832,832,832,832,832,833,833,833,833,833,833,833,833,833,833,833,833,833,833,833,833,833,834,834,834,835,835,836,843,849,874,895,936,1001,1063,1118,1122,1122,1123,1125,1126,1126,1126,1126,1124,1116,1110,1109,1105,1103],"ymouse":[596,596,596,596,596,596,596,596,596,596,596,596,596,596,597,597,597,597,597,597,597,597,597,597,597,597,597,597,597,597,597,597,597,597,597,597,595,586,557,536,498,438,375,320,315,312,304,290,259,241,222,203,187,156,138,131,109,92],"timestamp_mouse":[1,21,39,60,80,99,119,139,159,180,200,219,239,259,278,300,320,339,360,379,399,420,440,459,479,499,519,540,560,579,600,619,640,659,679,698,719,740,759,779,799,819,839,859,879,900,919,939,959,978,999,1019,1040,1060,1079,1100,1119,1140],"xSR":741.5,"ySR":573.95,"xT1":424.9,"yT1":0,"xT2":1058.1,"yT2":0,"toosoon":0,"cond_shown":"equaldotanddens","ratio_trial":900,"smaller_num":"9","larger_num":"10","correct_side":1,"subjID":"mnikisabogal15","gender":"0","age":"9","school":"4"},{"start_time":1552054914216,"click_time":1552054916005,"finger_time":1552054915624,"fix_duration":250,"trial":6,"RT":1408,"MT":381,"sideResp":1,"stimulus":"img/500/randomdotsizeEA/R/1_Ratio_500_L_9_R_18.png","xmouse":[759,759,759,759,761,761,761,762,762,762,762,762,762,762,762,762,762,762,762,762,762,762,762,762,762,762,762,762,762,762,762,762,762,762,762,762,762,762,762,762,762,762,762,762,762,762,762,761,761,761,760,760,760,760,760,760,760,760,760,760,760,760,760,760,760,760,760,760,760,743,716,662,636,629,626,626,626,625,624,621,621,621,621,621,614,603,587,567,541,476],"ymouse":[658,658,658,658,658,658,658,658,658,658,658,658,658,658,658,658,658,658,658,658,658,658,658,658,658,658,658,658,658,658,658,658,658,658,658,658,658,658,658,658,658,658,658,658,658,657,655,652,651,651,650,650,650,650,650,650,650,650,650,650,650,650,650,650,650,650,650,650,642,604,559,471,428,398,350,333,319,308,300,292,283,274,263,247,214,196,174,154,128,72],"timestamp_mouse":[11,36,49,69,89,108,128,149,169,189,208,229,248,269,288,308,329,348,369,389,408,428,448,469,489,508,529,548,569,588,608,627,649,669,688,708,729,748,768,787,808,828,849,869,888,908,929,949,967,988,1009,1028,1049,1068,1089,1108,1128,1149,1169,1189,1209,1229,1247,1268,1289,1309,1328,1348,1369,1388,1408,1428,1448,1469,1489,1508,1528,1547,1568,1588,1608,1629,1649,1669,1688,1708,1728,1748,1768,1789],"xSR":741.5,"ySR":573.95,"xT1":424.9,"yT1":0,"xT2":1058.1,"yT2":0,"toosoon":0,"cond_shown":"randomdotsizeEA","ratio_trial":500,"smaller_num":"9","larger_num":"18","correct_side":2,"subjID":"mnikisabogal15","gender":"0","age":"9","school":"4"},{"start_time":1552054919257,"click_time":1552054920504,"finger_time":1552054920425,"fix_duration":810.3069006499608,"trial":7,"RT":1168,"MT":79,"sideResp":1,"stimulus":"img/250/equaldotanddens/L/3_Ratio_250_L_8_R_2.png","xmouse":[799,799,799,799,799,799,799,799,799,799,799,799,799,799,799,799,799,799,799,799,799,799,799,799,799,799,799,799,799,799,799,799,799,799,799,799,799,799,799,799,799,799,799,799,799,799,799,799,799,799,799,799,799,799,799,799,798,792,698,608,517,470,461],"ymouse":[647,647,647,647,647,647,647,647,647,647,647,647,647,647,647,647,647,647,647,647,647,647,647,647,647,647,647,647,647,647,647,647,647,647,647,647,647,647,647,647,647,647,647,647,647,647,647,647,647,647,647,647,647,647,647,647,638,616,432,309,202,127,93],"timestamp_mouse":[12,34,47,67,88,108,128,147,167,187,208,228,248,267,288,308,326,348,367,388,407,428,448,468,487,508,528,547,567,588,608,627,648,667,688,708,727,748,767,787,807,827,847,867,888,906,927,948,968,987,1007,1027,1047,1067,1087,1107,1128,1148,1168,1188,1207,1227,1247],"xSR":741.5,"ySR":573.95,"xT1":424.9,"yT1":0,"xT2":1058.1,"yT2":0,"toosoon":0,"cond_shown":"equaldotanddens","ratio_trial":250,"smaller_num":"2","larger_num":"8","correct_side":1,"subjID":"mnikisabogal15","gender":"0","age":"9","school":"4"},{"start_time":1552054921866,"click_time":1552054923604,"finger_time":1552054923364,"fix_duration":660.6178493672714,"trial":8,"RT":1498,"MT":240,"sideResp":1,"stimulus":"img/900/randomdotsizeEA/L/1_Ratio_900_L_10_R_9.png","xmouse":[830,830,830,830,830,830,830,830,830,830,830,830,830,830,830,830,830,830,830,830,830,830,830,830,830,830,830,830,830,830,830,830,830,830,830,830,830,830,830,830,830,830,830,830,830,830,830,830,830,830,830,830,830,830,830,830,830,830,830,830,830,830,830,830,830,830,830,830,830,830,830,830,826,808,781,743,695,603,568,548,541,540,539,537,535,528,523],"ymouse":[655,655,655,655,655,655,655,655,655,655,655,655,655,655,655,655,655,655,655,655,655,655,655,655,655,655,655,655,655,655,655,655,655,655,655,655,655,655,655,655,655,655,655,655,655,655,655,655,655,655,655,655,655,655,655,655,655,655,655,655,655,655,655,655,655,655,655,655,655,655,655,655,639,597,535,456,376,238,184,158,148,145,140,135,126,109,99],"timestamp_mouse":[18,41,58,78,98,119,139,158,178,198,219,238,259,278,298,318,339,359,378,398,419,438,459,477,499,519,539,559,578,598,619,639,659,679,698,719,738,759,779,799,819,839,858,879,899,918,939,959,978,998,1019,1038,1059,1078,1098,1119,1138,1159,1179,1198,1219,1238,1259,1279,1298,1318,1339,1358,1378,1399,1418,1437,1458,1478,1498,1518,1538,1558,1577,1598,1618,1638,1658,1678,1698,1718,1738],"xSR":741.5,"ySR":573.95,"xT1":424.9,"yT1":0,"xT2":1058.1,"yT2":0,"toosoon":0,"cond_shown":"randomdotsizeEA","ratio_trial":900,"smaller_num":"9","larger_num":"10","correct_side":1,"subjID":"mnikisabogal15","gender":"0","age":"9","school":"4"},{"start_time":1552054925249,"click_time":1552054926785,"finger_time":1552054926325,"fix_duration":923.5803015207807,"trial":9,"RT":1076,"MT":460,"sideResp":1,"stimulus":"img/750/equaldotsize/R/5_Ratio_750_L_15_R_20.png","xmouse":[799,799,799,799,799,799,799,799,799,799,799,799,799,804,811,812,812,812,813,815,815,815,816,816,816,817,818,818,818,818,818,818,818,819,819,819,819,819,819,819,819,819,819,819,819,819,819,819,819,819,819,819,820,812,771,733,696,667,650,628,621,613,605,594,585,579,572,561,541,538,535,533,531,525,524,521,519],"ymouse":[578,578,578,578,578,578,578,578,578,578,578,578,579,580,584,585,585,585,585,585,586,586,586,586,586,587,588,589,590,591,591,592,593,594,594,595,595,595,595,595,596,596,596,596,596,596,596,596,596,596,596,596,589,551,470,415,370,333,312,277,264,249,241,227,214,207,197,181,154,145,138,133,128,116,109,102,94],"timestamp_mouse":[16,40,55,76,96,115,136,156,176,196,215,236,256,276,294,316,336,355,375,395,415,435,455,475,496,514,535,555,575,595,616,634,655,674,695,715,735,755,775,795,816,835,855,875,896,916,936,956,976,996,1014,1036,1056,1076,1095,1115,1135,1155,1176,1195,1216,1235,1255,1275,1295,1315,1336,1355,1376,1395,1415,1436,1455,1476,1494,1515,1536],"xSR":741.5,"ySR":573.95,"xT1":424.9,"yT1":0,"xT2":1058.1,"yT2":0,"toosoon":0,"cond_shown":"equaldotsize","ratio_trial":750,"smaller_num":"15","larger_num":"20","correct_side":2,"subjID":"mnikisabogal15","gender":"0","age":"9","school":"4"},{"start_time":1552054930369,"click_time":1552054932044,"finger_time":1552054931745,"fix_duration":1264.6028324911315,"trial":10,"RT":1376,"MT":299,"sideResp":1,"stimulus":"img/250/randomdotsizeEA/R/10_Ratio_250_L_4_R_16.png","xmouse":[820,820,820,820,820,820,820,820,820,820,820,820,820,820,820,820,820,820,820,820,820,820,820,820,820,820,820,820,820,820,820,820,820,820,820,820,820,820,820,820,820,820,820,820,820,820,820,820,820,820,820,822,822,823,824,825,825,826,826,826,826,826,826,826,826,826,818,802,720,663,619,603,600,599,594,592,584,577,564,556,547,534,525,514],"ymouse":[639,639,639,639,639,639,639,639,639,639,639,639,639,639,639,639,639,639,639,639,639,639,639,639,639,639,639,639,639,639,639,639,639,639,639,639,639,639,639,639,639,639,639,639,639,639,639,639,639,639,639,639,639,639,638,637,636,636,635,635,635,635,635,635,634,632,626,609,531,479,437,418,413,408,393,374,349,324,255,208,159,117,82,17],"timestamp_mouse":[19,37,55,75,96,116,135,155,175,195,215,235,255,275,296,316,335,355,375,395,416,435,456,476,495,516,535,554,575,596,616,635,656,675,696,715,736,755,776,795,816,836,856,876,896,916,935,956,976,996,1015,1035,1056,1075,1095,1116,1134,1156,1176,1194,1215,1235,1255,1275,1295,1315,1335,1355,1376,1395,1415,1436,1455,1474,1495,1515,1535,1556,1575,1595,1615,1635,1656,1675],"xSR":741.5,"ySR":573.95,"xT1":424.9,"yT1":0,"xT2":1058.1,"yT2":0,"toosoon":0,"cond_shown":"randomdotsizeEA","ratio_trial":250,"smaller_num":"4","larger_num":"16","correct_side":2,"subjID":"mnikisabogal15","gender":"0","age":"9","school":"4"},{"start_time":1552054933357,"click_time":1552054934824,"finger_time":1552054933764,"fix_duration":290.5651693922396,"trial":11,"RT":407,"MT":1060,"sideResp":1,"stimulus":"img/750/randomdotsizeEA/R/5_Ratio_750_L_15_R_20.png","xmouse":[832,833,833,834,835,835,835,835,835,835,835,835,835,835,835,835,835,835,836,838,842,845,850,857,874,886,888,888,888,888,888,888,888,888,888,888,888,889,889,889,889,890,893,897,905,932,940,944,945,946,946,946,946,946,946,946,946,946,946,946,948,948,948,948,945,920,897,867,827,787,691,637,584,518],"ymouse":[620,620,620,619,619,619,619,619,619,619,619,619,619,619,619,619,619,619,618,617,613,608,596,572,514,463,451,450,449,449,449,449,449,449,449,449,449,448,448,448,448,446,443,438,429,406,400,397,396,396,396,396,396,396,396,396,396,396,396,396,392,388,385,383,378,366,356,341,323,303,233,184,119,44],"timestamp_mouse":[15,38,48,68,87,108,128,147,168,188,207,228,248,267,287,307,328,347,367,388,407,428,448,468,488,508,527,548,567,588,608,627,647,666,688,706,727,748,767,787,807,828,847,867,887,907,927,947,967,988,1007,1027,1048,1068,1087,1107,1127,1147,1167,1188,1206,1228,1248,1268,1287,1308,1328,1348,1367,1387,1407,1427,1448,1466],"xSR":741.5,"ySR":573.95,"xT1":424.9,"yT1":0,"xT2":1058.1,"yT2":0,"toosoon":0,"cond_shown":"randomdotsizeEA","ratio_trial":750,"smaller_num":"15","larger_num":"20","correct_side":2,"subjID":"mnikisabogal15","gender":"0","age":"9","school":"4"},{"start_time":1552054936717,"click_time":1552054938544,"finger_time":1552054937345,"fix_duration":250,"trial":12,"RT":628,"MT":1199,"sideResp":1,"stimulus":"img/250/equaldotsize/L/5_Ratio_250_L_24_R_6.png","xmouse":[807,807,807,807,807,807,807,807,807,807,807,807,808,808,808,808,808,808,808,808,808,808,808,808,808,808,808,808,808,808,809,815,839,846,859,864,873,891,898,907,915,923,932,933,933,933,933,933,933,933,933,933,933,931,924,882,735,408,264,168,121,108,99,97,94,91,89,89,89,89,89,90,94,133,172,190,199,206,209,216,223,232,255,271,275,289,304,349,374,400,420,431],"ymouse":[580,580,580,580,580,580,580,580,580,580,580,580,580,580,580,580,580,580,580,580,580,580,580,580,580,580,580,580,580,580,580,572,539,527,507,498,484,456,443,431,420,409,396,394,394,394,394,394,393,393,393,393,393,393,391,381,348,244,168,93,35,0,0,0,0,0,0,0,0,0,0,0,0,0,0,0,0,0,0,0,1,2,5,7,7,11,13,21,25,28,31,33],"timestamp_mouse":[19,27,48,67,87,108,128,147,167,186,207,227,247,268,288,307,326,348,368,387,408,427,447,467,487,507,527,547,568,588,607,628,647,667,688,708,727,747,768,788,807,827,847,867,887,907,928,947,968,987,1007,1028,1047,1067,1088,1107,1128,1147,1167,1187,1207,1227,1248,1266,1287,1308,1327,1348,1367,1386,1407,1428,1447,1467,1487,1507,1527,1546,1567,1587,1607,1628,1647,1667,1688,1707,1728,1748,1767,1788,1807,1827],"xSR":741.5,"ySR":573.95,"xT1":424.9,"yT1":0,"xT2":1058.1,"yT2":0,"toosoon":0,"cond_shown":"equaldotsize","ratio_trial":250,"smaller_num":"6","larger_num":"24","correct_side":1,"subjID":"mnikisabogal15","gender":"0","age":"9","school":"4"},{"start_time":1552054940734,"click_time":1552054942144,"finger_time":1552054941504,"fix_duration":969.7595731728053,"trial":13,"RT":770,"MT":640,"sideResp":2,"stimulus":"img/750/equaldotanddens/R/3_Ratio_750_L_15_R_20.png","xmouse":[755,755,755,755,755,755,755,755,757,760,764,769,769,770,770,770,772,774,775,776,777,777,777,777,777,777,777,777,777,777,777,777,779,781,790,800,803,813,854,873,897,917,961,972,982,986,987,994,999,1007,1012,1015,1015,1015,1015,1015,1015,1015,1016,1017,1020,1022,1040,1053,1068,1084,1106,1117,1132,1144,1154],"ymouse":[596,596,596,596,596,596,596,596,597,597,599,600,600,600,601,601,601,602,603,603,604,604,604,604,604,604,604,604,604,604,604,604,604,606,606,605,603,595,550,527,490,451,361,343,331,326,325,316,310,302,294,289,289,289,289,289,289,289,288,286,283,279,253,237,219,199,165,147,127,108,91],"timestamp_mouse":[13,37,50,70,91,111,131,150,171,190,210,230,251,270,291,311,330,350,370,390,410,430,450,471,489,511,531,550,570,591,610,630,651,670,691,710,730,769,770,790,811,830,850,871,890,910,930,950,970,990,1009,1031,1050,1070,1091,1111,1130,1150,1170,1191,1211,1230,1251,1270,1291,1310,1330,1350,1370,1391,1410],"xSR":741.5,"ySR":573.95,"xT1":424.9,"yT1":0,"xT2":1058.1,"yT2":0,"toosoon":0,"cond_shown":"equaldotanddens","ratio_trial":750,"smaller_num":"15","larger_num":"20","correct_side":2,"subjID":"mnikisabogal15","gender":"0","age":"9","school":"4"},{"start_time":1552054943617,"click_time":1552054945945,"finger_time":1552054945724,"fix_duration":250,"trial":14,"RT":2107,"MT":221,"sideResp":1,"stimulus":"img/750/randomdotsizeEA/R/12_Ratio_750_L_3_R_4.png","xmouse":[792,792,794,794,795,795,795,795,795,795,795,795,795,795,795,795,795,795,795,795,795,795,795,795,795,795,795,795,795,795,795,795,795,795,795,795,795,795,795,795,795,795,795,795,795,796,794,789,784,783,783,783,783,783,786,788,790,791,793,793,794,795,795,795,796,796,797,798,799,800,800,800,801,801,801,801,801,801,801,801,801,801,801,801,801,801,801,801,802,802,802,802,802,802,802,802,802,802,802,802,802,800,795,775,752,728,702,664,610,581,559,537,524,504,498,493,487],"ymouse":[658,658,658,658,657,657,657,657,657,657,657,657,657,657,657,657,657,657,657,657,657,657,657,657,657,657,657,657,657,657,657,657,657,657,657,657,657,657,657,657,657,657,657,657,657,656,652,647,641,640,639,639,639,639,639,639,639,639,640,640,640,640,640,640,640,640,640,640,640,640,640,640,639,639,639,639,639,639,639,639,639,639,639,639,639,639,639,639,639,639,639,639,639,639,639,639,639,639,639,639,637,634,628,605,578,540,504,440,338,287,238,201,172,136,125,113,96],"timestamp_mouse":[19,27,48,67,87,108,127,147,168,187,207,227,247,266,288,307,327,348,366,387,408,427,447,467,487,506,528,548,568,587,608,627,647,668,688,708,727,747,767,787,807,828,846,867,888,907,927,948,967,988,1008,1027,1047,1067,1088,1107,1126,1147,1167,1187,1208,1227,1248,1267,1288,1307,1328,1347,1366,1387,1408,1426,1448,1468,1486,1507,1528,1548,1567,1588,1607,1627,1648,1667,1688,1708,1728,1747,1768,1788,1808,1828,1848,1867,1888,1908,1928,1948,1967,1987,2008,2027,2048,2067,2088,2107,2128,2148,2167,2187,2207,2227,2247,2267,2287,2307,2328],"xSR":741.5,"ySR":573.95,"xT1":424.9,"yT1":0,"xT2":1058.1,"yT2":0,"toosoon":0,"cond_shown":"randomdotsizeEA","ratio_trial":750,"smaller_num":"3","larger_num":"4","correct_side":2,"subjID":"mnikisabogal15","gender":"0","age":"9","school":"4"},{"start_time":1552054947118,"click_time":1552054948285,"finger_time":1552054947825,"fix_duration":250,"trial":15,"RT":707,"MT":460,"sideResp":2,"stimulus":"img/500/equaldotanddens/R/1_Ratio_500_L_9_R_18.png","xmouse":[819,819,819,819,819,820,820,820,820,820,821,822,823,826,828,829,830,831,832,833,834,835,836,836,836,836,837,837,837,837,837,837,837,837,838,846,857,869,887,901,905,921,931,940,954,964,980,996,1037,1054,1066,1080,1089,1097,1099,1100,1103,1105,1110],"ymouse":[621,621,621,621,621,621,621,621,621,621,621,621,620,619,618,617,616,616,615,615,615,614,614,614,614,614,614,614,614,614,614,614,614,614,613,607,596,584,556,529,520,490,470,452,410,378,341,309,256,236,221,201,190,176,168,156,142,124,92],"timestamp_mouse":[12,34,46,68,86,107,127,147,166,186,206,227,246,266,287,308,327,347,366,386,407,426,447,468,487,507,526,547,566,587,606,627,647,666,686,707,726,747,766,786,806,827,848,866,887,906,927,946,966,988,1007,1027,1047,1066,1086,1106,1126,1147,1166],"xSR":741.5,"ySR":573.95,"xT1":424.9,"yT1":0,"xT2":1058.1,"yT2":0,"toosoon":0,"cond_shown":"equaldotanddens","ratio_trial":500,"smaller_num":"9","larger_num":"18","correct_side":2,"subjID":"mnikisabogal15","gender":"0","age":"9","school":"4"},{"start_time":1552054949955,"click_time":1552054951045,"finger_time":1552054950905,"fix_duration":250,"trial":16,"RT":950,"MT":140,"sideResp":2,"stimulus":"img/900/randomdotsizeEA/L/4_Ratio_900_L_20_R_18.png","xmouse":[761,761,761,761,761,761,761,761,761,761,761,761,761,761,761,761,762,762,762,762,762,763,763,763,763,763,763,763,763,763,763,763,763,763,763,763,763,763,764,765,765,766,770,779,787,799,821,908,954,992,1027,1081,1100,1115,1131],"ymouse":[651,651,651,651,651,651,651,651,651,651,651,651,651,652,652,652,652,653,653,653,653,653,653,653,653,653,653,653,653,653,653,653,653,653,653,653,653,654,654,654,654,654,654,647,636,615,578,435,350,286,223,147,125,105,87],"timestamp_mouse":[22,38,49,69,90,110,130,149,170,189,211,230,250,270,290,311,330,350,369,389,411,430,449,469,489,510,530,550,570,589,610,629,650,671,689,710,730,749,769,790,810,829,849,869,891,910,929,950,969,989,1009,1030,1049,1070,1090],"xSR":741.5,"ySR":573.95,"xT1":424.9,"yT1":0,"xT2":1058.1,"yT2":0,"toosoon":0,"cond_shown":"randomdotsizeEA","ratio_trial":900,"smaller_num":"18","larger_num":"20","correct_side":1,"subjID":"mnikisabogal15","gender":"0","age":"9","school":"4"},{"start_time":1552054953618,"click_time":1552054955004,"finger_time":1552054954545,"fix_duration":250,"trial":17,"RT":927,"MT":459,"sideResp":1,"stimulus":"img/250/randomdotsizeEA/L/7_Ratio_250_L_8_R_2.png","xmouse":[801,801,801,801,801,801,801,801,801,801,801,801,801,800,800,800,800,800,800,800,800,800,800,800,800,800,800,800,800,800,800,800,800,800,800,800,800,800,800,800,800,800,799,797,788,778,766,747,727,653,619,598,579,558,538,532,529,526,524,524,524,524,524,527,530,530,530,530,528,522],"ymouse":[631,631,631,631,631,631,631,631,631,631,631,631,629,628,627,626,626,626,626,626,626,626,626,626,626,626,626,626,626,626,626,626,626,626,626,626,626,626,626,626,626,626,623,613,591,577,562,546,526,458,435,418,402,376,342,325,306,286,266,226,208,191,171,156,126,110,92,79,66,51],"timestamp_mouse":[13,36,46,66,86,106,127,147,167,186,206,227,246,266,286,306,327,346,366,386,407,427,446,467,487,507,526,546,568,587,606,627,646,668,686,707,727,747,767,786,806,826,847,867,886,906,927,947,967,986,1007,1026,1047,1066,1086,1106,1127,1146,1166,1186,1206,1226,1246,1266,1286,1307,1326,1347,1368,1386],"xSR":741.5,"ySR":573.95,"xT1":424.9,"yT1":0,"xT2":1058.1,"yT2":0,"toosoon":0,"cond_shown":"randomdotsizeEA","ratio_trial":250,"smaller_num":"2","larger_num":"8","correct_side":1,"subjID":"mnikisabogal15","gender":"0","age":"9","school":"4"},{"start_time":1552054956401,"click_time":1552054957724,"finger_time":1552054957224,"fix_duration":514.2540819933413,"trial":18,"RT":823,"MT":500,"sideResp":1,"stimulus":"img/500/randomdotsizeEA/L/10_Ratio_500_L_4_R_2.png","xmouse":[805,805,805,805,805,805,805,805,805,805,805,805,805,805,805,805,805,805,805,805,805,805,805,805,805,806,806,806,806,806,806,806,806,806,806,806,806,806,806,805,800,789,782,766,752,730,718,705,692,678,644,620,609,601,598,594,590,588,585,582,573,559,545,525,503,462,450],"ymouse":[633,633,633,633,633,633,633,633,633,633,633,633,633,633,633,633,633,633,633,633,633,633,633,633,633,634,634,634,634,634,634,634,634,634,634,634,634,634,634,620,591,553,536,499,476,443,427,408,389,367,319,288,273,263,257,244,238,232,227,220,206,193,183,168,150,107,88],"timestamp_mouse":[12,34,43,63,84,104,125,143,164,184,204,224,245,263,283,303,323,343,364,383,403,424,445,464,484,503,524,544,563,584,605,623,644,665,684,703,723,743,763,784,803,823,844,864,884,903,923,944,963,983,1003,1023,1043,1063,1084,1103,1124,1144,1163,1183,1203,1223,1243,1264,1284,1303,1323],"xSR":741.5,"ySR":573.95,"xT1":424.9,"yT1":0,"xT2":1058.1,"yT2":0,"toosoon":0,"cond_shown":"randomdotsizeEA","ratio_trial":500,"smaller_num":"2","larger_num":"4","correct_side":1,"subjID":"mnikisabogal15","gender":"0","age":"9","school":"4"},{"start_time":1552054960541,"click_time":1552054962025,"finger_time":1552054961425,"fix_duration":574.3691138822323,"trial":19,"RT":884,"MT":600,"sideResp":1,"stimulus":"img/900/equaldotanddens/L/8_Ratio_900_L_20_R_18.png","xmouse":[745,745,745,745,745,747,747,748,748,748,748,748,748,750,752,752,752,752,752,752,752,752,752,752,752,752,752,752,752,752,752,752,752,752,752,752,752,752,752,752,752,752,752,747,741,732,724,719,717,713,710,705,699,689,659,650,646,640,636,627,621,612,599,585,566,564,561,559,557,554,549,545,539,531,522],"ymouse":[625,625,625,625,625,626,626,626,626,626,626,631,634,646,656,658,658,658,658,658,658,658,658,658,658,658,658,658,658,658,658,658,658,658,658,658,658,658,658,658,658,658,658,642,628,609,591,579,570,556,545,529,509,482,415,394,375,358,340,311,295,278,260,244,223,220,216,212,209,198,186,174,160,135,90],"timestamp_mouse":[21,29,43,63,83,104,124,144,164,184,204,223,243,263,283,304,323,345,365,383,403,424,443,464,484,503,524,544,564,585,605,623,644,665,683,704,725,744,764,783,804,824,843,864,884,904,923,944,963,983,1003,1023,1043,1064,1083,1105,1124,1144,1164,1183,1203,1224,1244,1263,1284,1303,1324,1343,1364,1383,1404,1423,1444,1463,1484],"xSR":741.5,"ySR":573.95,"xT1":424.9,"yT1":0,"xT2":1058.1,"yT2":0,"toosoon":0,"cond_shown":"equaldotanddens","ratio_trial":900,"smaller_num":"18","larger_num":"20","correct_side":1,"subjID":"mnikisabogal15","gender":"0","age":"9","school":"4"},{"start_time":1552054964585,"click_time":1552054965445,"finger_time":1552054965365,"fix_duration":318.84360105691513,"trial":20,"RT":780,"MT":80,"sideResp":1,"stimulus":"img/500/randomdotsizeEA/R/9_Ratio_500_L_2_R_4.png","xmouse":[814,814,814,814,814,814,814,814,814,814,814,814,814,814,814,814,814,814,814,814,814,814,814,814,814,814,814,814,814,814,814,814,814,814,814,814,814,812,793,753,695,594,470,433],"ymouse":[638,638,638,638,638,638,638,638,638,638,638,638,638,638,638,638,638,638,638,638,638,638,638,638,638,638,638,638,638,638,638,638,638,638,638,638,638,637,607,542,458,319,150,89],"timestamp_mouse":[1,20,40,59,80,100,119,140,161,180,200,220,240,261,280,300,320,340,359,379,399,421,440,460,480,499,519,541,561,579,600,620,639,660,679,700,720,740,760,780,800,819,839,860],"xSR":741.5,"ySR":573.95,"xT1":424.9,"yT1":0,"xT2":1058.1,"yT2":0,"toosoon":0,"cond_shown":"randomdotsizeEA","ratio_trial":500,"smaller_num":"2","larger_num":"4","correct_side":2,"subjID":"mnikisabogal15","gender":"0","age":"9","school":"4"},{"start_time":1552054967500,"click_time":1552054968725,"finger_time":1552054968405,"fix_duration":312.71712918133187,"trial":21,"RT":905,"MT":320,"sideResp":1,"stimulus":"img/500/randomdotsizeEA/L/7_Ratio_500_L_10_R_5.png","xmouse":[807,807,807,807,807,807,807,807,807,807,807,807,807,807,807,807,807,807,807,807,807,807,807,807,807,807,807,807,807,807,807,807,807,807,807,807,807,807,807,807,807,807,807,807,799,784,761,702,675,656,642,635,626,622,616,610,601,583,569,556,543,523],"ymouse":[626,626,626,626,626,626,626,626,626,626,626,626,626,626,626,626,626,626,626,626,626,626,626,626,626,626,626,626,626,626,626,626,626,626,626,626,626,626,626,626,626,626,626,623,594,544,478,353,314,290,270,256,235,226,214,197,177,137,117,100,85,62],"timestamp_mouse":[12,38,45,66,84,105,124,145,166,184,204,225,244,264,284,304,325,346,365,385,405,424,444,465,486,504,525,544,565,584,605,626,644,665,685,704,724,745,765,786,806,825,844,864,884,905,924,944,964,984,1004,1024,1044,1064,1084,1105,1124,1144,1165,1184,1204,1225],"xSR":741.5,"ySR":573.95,"xT1":424.9,"yT1":0,"xT2":1058.1,"yT2":0,"toosoon":0,"cond_shown":"randomdotsizeEA","ratio_trial":500,"smaller_num":"5","larger_num":"10","correct_side":1,"subjID":"mnikisabogal15","gender":"0","age":"9","school":"4"},{"start_time":1552054970435,"click_time":1552054971525,"finger_time":1552054971284,"fix_duration":948.8771502667369,"trial":22,"RT":849,"MT":241,"sideResp":2,"stimulus":"img/500/randomdotsizeEA/R/14_Ratio_500_L_5_R_10.png","xmouse":[829,829,829,829,829,829,829,829,829,829,829,829,829,829,829,829,829,829,829,829,829,829,829,829,829,829,829,829,829,829,829,829,829,829,829,829,830,830,830,831,832,835,844,849,875,917,939,957,970,979,999,1016,1043,1074,1127],"ymouse":[602,602,602,602,602,602,602,602,602,602,602,602,602,602,602,602,602,602,602,602,602,602,602,602,602,602,602,602,602,602,602,602,602,602,602,602,602,603,603,603,603,600,584,574,528,442,400,364,340,322,286,253,208,157,71],"timestamp_mouse":[12,39,49,70,89,111,131,150,170,190,209,230,249,270,289,309,330,349,371,389,409,430,450,470,490,509,531,550,571,590,609,629,651,670,690,709,729,750,771,790,810,829,849,870,889,911,930,949,970,990,1009,1031,1050,1070,1090],"xSR":741.5,"ySR":573.95,"xT1":424.9,"yT1":0,"xT2":1058.1,"yT2":0,"toosoon":0,"cond_shown":"randomdotsizeEA","ratio_trial":500,"smaller_num":"5","larger_num":"10","correct_side":2,"subjID":"mnikisabogal15","gender":"0","age":"9","school":"4"},{"start_time":1552054975255,"click_time":1552054977025,"finger_time":1552054976805,"fix_duration":1308.3635351400198,"trial":23,"RT":1550,"MT":220,"sideResp":2,"stimulus":"img/750/randomdotsizeEA/R/7_Ratio_750_L_3_R_4.png","xmouse":[773,773,773,773,773,774,774,774,774,775,775,775,775,775,776,776,776,776,777,777,777,777,778,778,780,780,781,781,782,784,784,786,786,786,787,787,787,787,787,787,787,787,787,787,787,787,787,787,787,787,787,787,787,787,787,787,787,787,787,787,787,788,791,793,797,805,808,809,810,810,810,811,811,812,814,816,818,823,829,864,891,924,965,1006,1053,1062,1069,1077,1082],"ymouse":[621,621,621,621,621,621,621,620,620,620,620,620,620,620,619,619,619,619,619,619,619,619,619,618,617,617,617,617,616,616,615,614,614,614,613,613,613,613,613,613,613,613,613,613,613,613,613,613,613,613,613,613,613,613,613,613,613,613,613,613,613,611,606,604,599,592,590,590,589,588,588,588,587,586,584,581,578,572,562,508,461,402,338,278,182,160,138,112,87],"timestamp_mouse":[14,39,50,70,89,109,129,149,170,189,209,230,250,269,290,309,330,350,369,389,409,429,450,469,489,509,529,549,571,589,609,630,649,669,690,709,730,749,770,789,809,830,850,870,889,909,930,949,971,990,1010,1030,1051,1070,1090,1110,1129,1150,1171,1189,1210,1229,1249,1269,1289,1309,1331,1351,1369,1389,1409,1430,1450,1470,1490,1509,1530,1550,1570,1590,1609,1630,1650,1669,1690,1709,1730,1749,1769],"xSR":741.5,"ySR":573.95,"xT1":424.9,"yT1":0,"xT2":1058.1,"yT2":0,"toosoon":0,"cond_shown":"randomdotsizeEA","ratio_trial":750,"smaller_num":"3","larger_num":"4","correct_side":2,"subjID":"mnikisabogal15","gender":"0","age":"9","school":"4"},{"start_time":1552054979576,"click_time":1552054981164,"finger_time":1552054980364,"fix_duration":1409.2967039541775,"trial":24,"RT":788,"MT":800,"sideResp":1,"stimulus":"img/900/equaldotsize/L/4_Ratio_900_L_20_R_18.png","xmouse":[811,811,811,811,811,811,811,811,811,811,811,811,811,811,811,811,811,811,811,811,811,811,811,811,811,811,811,811,811,811,811,811,811,811,811,811,812,813,820,815,802,791,786,772,758,754,753,752,752,749,746,742,735,718,704,697,693,693,692,692,692,692,692,692,682,672,661,651,642,619,608,594,577,569,567,567,566,561,546,521],"ymouse":[595,595,595,595,595,595,595,595,595,595,595,595,595,595,595,595,595,595,595,595,595,595,595,595,595,595,595,595,595,595,595,595,595,595,595,595,595,595,587,568,552,534,524,492,461,451,446,443,439,421,403,375,341,283,224,206,192,187,185,185,184,182,171,154,105,78,58,41,30,19,18,18,19,21,22,22,23,27,34,48],"timestamp_mouse":[19,45,49,69,88,109,129,150,168,188,210,229,248,269,289,310,328,348,369,389,410,429,449,469,488,509,530,549,568,589,609,629,649,670,689,708,728,749,770,788,809,829,849,869,888,909,928,948,970,989,1010,1029,1049,1068,1088,1108,1128,1148,1168,1188,1209,1229,1250,1269,1288,1308,1328,1349,1369,1388,1409,1428,1448,1468,1488,1509,1530,1549,1568,1588],"xSR":741.5,"ySR":573.95,"xT1":424.9,"yT1":0,"xT2":1058.1,"yT2":0,"toosoon":0,"cond_shown":"equaldotsize","ratio_trial":900,"smaller_num":"18","larger_num":"20","correct_side":1,"subjID":"mnikisabogal15","gender":"0","age":"9","school":"4"},{"start_time":1552054982215,"click_time":1552054983825,"finger_time":1552054982884,"fix_duration":250,"trial":25,"RT":669,"MT":941,"sideResp":2,"stimulus":"img/500/equaldotsize/R/12_Ratio_500_L_1_R_2.png","xmouse":[771,771,771,771,771,771,771,771,771,771,771,771,771,771,771,771,771,771,771,771,771,771,771,771,771,771,771,771,771,771,771,774,806,825,837,846,857,883,913,927,991,1035,1126,1152,1168,1177,1183,1200,1212,1230,1239,1241,1241,1241,1241,1240,1239,1234,1227,1220,1213,1208,1191,1181,1172,1168,1168,1168,1168,1167,1167,1167,1167,1167,1167,1167,1167,1165,1162,1159,1158],"ymouse":[637,637,637,637,637,637,637,637,637,637,637,637,637,637,637,637,637,637,637,637,637,637,637,637,637,637,637,637,637,637,635,631,586,564,546,530,513,476,423,392,240,135,0,0,0,0,0,0,0,0,0,0,0,0,0,2,5,23,36,47,57,64,74,78,80,81,81,81,81,81,81,81,81,81,81,81,81,81,81,81,81],"timestamp_mouse":[12,34,50,69,89,110,130,149,169,190,211,230,250,269,289,310,330,351,370,390,409,430,450,469,491,510,529,551,569,589,609,629,650,669,690,709,729,749,769,790,810,829,849,869,889,910,930,949,969,989,1010,1030,1049,1069,1089,1109,1131,1149,1169,1189,1210,1229,1249,1269,1289,1309,1329,1350,1370,1390,1410,1430,1450,1469,1489,1510,1529,1549,1571,1590,1610],"xSR":741.5,"ySR":573.95,"xT1":424.9,"yT1":0,"xT2":1058.1,"yT2":0,"toosoon":0,"cond_shown":"equaldotsize","ratio_trial":500,"smaller_num":"1","larger_num":"2","correct_side":2,"subjID":"mnikisabogal15","gender":"0","age":"9","school":"4"},{"start_time":1552054985417,"click_time":1552054986584,"finger_time":1552054986185,"fix_duration":250,"trial":26,"RT":768,"MT":399,"sideResp":1,"stimulus":"img/900/randomdotsizeEA/L/2_Ratio_900_L_20_R_18.png","xmouse":[797,797,797,797,797,797,797,797,797,797,797,797,797,797,797,797,797,797,797,797,797,797,797,797,797,797,797,797,797,797,797,797,797,797,797,797,796,795,778,760,731,697,666,605,575,553,540,530,506,500,496,492,492,492,492,492,492,492,492],"ymouse":[636,636,636,636,636,636,636,636,636,636,636,636,636,636,636,636,636,636,636,636,636,636,636,636,636,636,636,636,636,636,636,636,636,636,636,634,630,612,532,459,384,306,234,115,62,13,0,0,0,0,0,0,0,0,0,0,0,0,4],"timestamp_mouse":[12,36,48,68,88,109,128,147,168,188,207,227,247,268,288,307,327,348,368,387,408,429,449,468,487,507,527,548,567,587,607,628,647,669,687,707,727,747,768,787,808,827,848,867,888,908,927,947,968,988,1008,1027,1048,1068,1087,1108,1128,1149,1167],"xSR":741.5,"ySR":573.95,"xT1":424.9,"yT1":0,"xT2":1058.1,"yT2":0,"toosoon":0,"cond_shown":"randomdotsizeEA","ratio_trial":900,"smaller_num":"18","larger_num":"20","correct_side":1,"subjID":"mnikisabogal15","gender":"0","age":"9","school":"4"},{"start_time":1552054988524,"click_time":1552054989205,"finger_time":1552054989124,"fix_duration":838.8110866106445,"trial":27,"RT":600,"MT":81,"sideResp":2,"stimulus":"img/250/equaldotanddens/R/10_Ratio_250_L_4_R_16.png","xmouse":[820,820,820,820,820,820,820,821,822,822,824,824,825,827,827,827,828,828,828,828,828,829,829,829,829,829,830,830,832,837,851,885,949,1052,1085],"ymouse":[631,631,630,630,629,629,629,628,626,625,624,623,622,621,621,621,620,620,620,620,620,620,620,620,620,620,620,620,620,618,593,515,363,157,96],"timestamp_mouse":[10,21,40,60,81,101,121,141,160,180,200,220,240,260,281,301,320,340,360,381,401,420,440,461,481,501,521,540,560,581,600,620,641,662,680],"xSR":741.5,"ySR":573.95,"xT1":424.9,"yT1":0,"xT2":1058.1,"yT2":0,"toosoon":0,"cond_shown":"equaldotanddens","ratio_trial":250,"smaller_num":"4","larger_num":"16","correct_side":2,"subjID":"mnikisabogal15","gender":"0","age":"9","school":"4"},{"start_time":1552054990837,"click_time":1552054991625,"finger_time":1552054991545,"fix_duration":690.202110105738,"trial":28,"RT":708,"MT":80,"sideResp":1,"stimulus":"img/750/equaldotsize/L/9_Ratio_750_L_4_R_3.png","xmouse":[813,813,813,813,813,813,813,813,813,813,813,813,813,813,813,813,813,813,813,813,813,813,813,813,813,813,813,813,813,813,813,813,813,811,800,784,743,683,530,489],"ymouse":[632,632,632,632,632,632,632,632,632,632,632,632,622,617,612,611,611,611,611,611,611,611,611,611,611,611,611,611,611,611,611,611,611,605,574,528,442,333,140,88],"timestamp_mouse":[25,38,47,67,88,108,127,147,167,187,207,228,247,268,287,308,328,347,368,387,408,428,447,467,487,508,527,548,567,588,608,628,647,667,687,708,727,747,767,788],"xSR":741.5,"ySR":573.95,"xT1":424.9,"yT1":0,"xT2":1058.1,"yT2":0,"toosoon":0,"cond_shown":"equaldotsize","ratio_trial":750,"smaller_num":"3","larger_num":"4","correct_side":1,"subjID":"mnikisabogal15","gender":"0","age":"9","school":"4"},{"start_time":1552054993937,"click_time":1552054994965,"finger_time":1552054994845,"fix_duration":1371.5629696152855,"trial":29,"RT":908,"MT":120,"sideResp":1,"stimulus":"img/250/randomdotsizeEA/L/15_Ratio_250_L_12_R_3.png","xmouse":[780,780,780,781,781,781,781,782,783,783,784,784,785,785,785,786,786,787,787,787,787,788,788,788,788,788,788,788,788,788,788,788,788,788,788,788,788,788,788,788,788,788,788,789,787,778,761,653,589,535,498,484],"ymouse":[611,611,611,611,611,611,611,611,611,611,610,610,610,609,609,609,609,609,609,609,609,609,609,609,609,609,609,609,609,609,609,609,609,609,609,609,609,609,609,609,609,609,609,604,591,569,529,315,223,157,107,81],"timestamp_mouse":[11,34,48,68,87,109,128,147,167,188,208,228,248,268,288,307,327,348,367,388,408,427,448,468,488,507,527,547,568,588,609,627,648,667,687,708,728,747,769,787,808,827,847,867,888,908,927,948,967,988,1008,1028],"xSR":741.5,"ySR":573.95,"xT1":424.9,"yT1":0,"xT2":1058.1,"yT2":0,"toosoon":0,"cond_shown":"randomdotsizeEA","ratio_trial":250,"smaller_num":"3","larger_num":"12","correct_side":1,"subjID":"mnikisabogal15","gender":"0","age":"9","school":"4"},{"start_time":1552054995877,"click_time":1552054996926,"finger_time":1552054996785,"fix_duration":250,"trial":30,"RT":908,"MT":141,"sideResp":2,"stimulus":"img/500/equaldotsize/R/12_Ratio_500_L_1_R_2.png","xmouse":[803,803,803,803,803,803,803,803,803,803,803,803,803,803,803,803,803,803,803,803,803,803,803,803,803,803,803,803,803,803,803,803,803,803,803,803,803,803,803,803,803,803,804,805,809,826,837,854,876,908,949,1093,1153],"ymouse":[667,667,667,667,667,667,667,667,667,667,667,667,667,667,667,667,667,667,667,667,667,667,667,667,667,667,667,667,667,667,667,667,667,667,667,667,667,667,667,667,667,667,662,639,613,564,542,514,474,430,368,144,35],"timestamp_mouse":[17,37,48,67,87,108,127,148,167,188,208,228,247,269,287,308,328,347,368,388,408,427,448,467,488,508,527,547,568,588,607,629,649,668,687,708,728,748,768,788,807,827,847,867,888,908,928,948,968,987,1008,1027,1048],"xSR":741.5,"ySR":573.95,"xT1":424.9,"yT1":0,"xT2":1058.1,"yT2":0,"toosoon":0,"cond_shown":"equaldotsize","ratio_trial":500,"smaller_num":"1","larger_num":"2","correct_side":2,"subjID":"mnikisabogal15","gender":"0","age":"9","school":"4"},{"start_time":1552054998826,"click_time":1552054999845,"finger_time":1552054999604,"fix_duration":960.9531309138486,"trial":31,"RT":778,"MT":241,"sideResp":1,"stimulus":"img/750/equaldotsize/L/8_Ratio_750_L_4_R_3.png","xmouse":[755,755,755,755,756,756,756,756,756,757,757,757,757,757,757,758,758,758,758,759,759,759,759,759,759,759,759,759,759,759,759,759,759,759,759,759,760,759,736,709,645,586,519,451,440,435,431,430,430,430,430],"ymouse":[635,635,635,635,635,636,636,636,636,637,637,637,637,637,637,638,639,639,639,640,640,640,640,640,640,640,640,640,640,640,640,640,640,640,640,640,640,635,576,531,457,402,351,264,237,211,187,167,126,107,78],"timestamp_mouse":[34,38,58,79,99,118,139,159,180,198,219,238,259,278,300,319,339,359,380,398,419,439,459,479,498,518,538,560,579,599,619,638,658,678,698,719,738,759,778,798,818,838,859,878,898,918,938,958,978,998,1019],"xSR":741.5,"ySR":573.95,"xT1":424.9,"yT1":0,"xT2":1058.1,"yT2":0,"toosoon":0,"cond_shown":"equaldotsize","ratio_trial":750,"smaller_num":"3","larger_num":"4","correct_side":1,"subjID":"mnikisabogal15","gender":"0","age":"9","school":"4"},{"start_time":1552055002218,"click_time":1552055003504,"finger_time":1552055003124,"fix_duration":250,"trial":32,"RT":906,"MT":380,"sideResp":1,"stimulus":"img/500/equaldotanddens/L/8_Ratio_500_L_8_R_4.png","xmouse":[806,807,807,808,809,809,810,810,811,812,812,812,812,812,812,812,812,812,812,812,812,812,812,812,812,812,812,812,812,812,812,812,812,812,812,812,812,812,812,812,812,812,812,807,787,773,758,747,743,738,736,731,725,719,703,695,686,672,656,617,575,556,543,532,521],"ymouse":[614,614,614,614,614,614,614,614,614,615,615,615,615,615,615,615,615,615,615,615,615,615,615,615,615,615,615,615,615,615,615,615,615,615,615,615,615,615,615,615,615,615,615,611,590,570,546,522,501,451,408,383,356,337,300,285,267,244,221,179,149,131,118,104,89],"timestamp_mouse":[12,37,47,67,87,106,126,146,167,186,208,228,247,266,287,306,326,346,367,387,406,426,447,468,486,506,527,547,566,586,607,628,647,667,687,707,727,747,768,787,807,827,847,866,887,906,926,946,967,987,1006,1027,1046,1067,1087,1106,1126,1146,1167,1187,1207,1226,1246,1266,1286],"xSR":741.5,"ySR":573.95,"xT1":424.9,"yT1":0,"xT2":1058.1,"yT2":0,"toosoon":0,"cond_shown":"equaldotanddens","ratio_trial":500,"smaller_num":"4","larger_num":"8","correct_side":1,"subjID":"mnikisabogal15","gender":"0","age":"9","school":"4"},{"start_time":1552055005797,"click_time":1552055007144,"finger_time":1552055006464,"fix_duration":1010.1037453809257,"trial":33,"RT":667,"MT":680,"sideResp":1,"stimulus":"img/900/randomdotsizeEA/L/2_Ratio_900_L_20_R_18.png","xmouse":[798,798,798,798,798,798,798,798,798,798,798,799,799,800,800,800,801,801,801,802,802,802,802,802,803,804,805,807,807,807,807,809,810,810,812,812,812,812,812,815,818,847,880,914,935,952,974,995,1005,1018,1035,1044,1044,1044,1044,1044,1044,1044,1044,1043,1038,983,913,824,732,652,548,520],"ymouse":[605,605,605,605,605,605,605,605,605,605,605,603,602,602,602,602,599,598,598,597,597,597,597,597,596,596,592,591,590,589,588,582,577,573,569,568,568,567,566,559,550,492,448,407,387,373,357,339,331,318,303,297,296,296,296,296,296,296,296,294,293,265,237,198,157,123,75,63],"timestamp_mouse":[12,41,47,68,87,109,128,147,167,187,208,228,248,268,288,307,327,347,367,388,408,428,447,468,487,507,527,548,567,587,607,628,647,667,687,708,727,747,767,788,807,827,847,867,887,907,928,947,968,988,1007,1027,1047,1068,1087,1108,1129,1148,1168,1188,1207,1227,1247,1267,1288,1308,1327,1347],"xSR":741.5,"ySR":573.95,"xT1":424.9,"yT1":0,"xT2":1058.1,"yT2":0,"toosoon":0,"cond_shown":"randomdotsizeEA","ratio_trial":900,"smaller_num":"18","larger_num":"20","correct_side":1,"subjID":"mnikisabogal15","gender":"0","age":"9","school":"4"},{"start_time":1552055009524,"click_time":1552055010546,"finger_time":1552055010244,"fix_duration":1438.1440191539255,"trial":34,"RT":720,"MT":302,"sideResp":2,"stimulus":"img/750/equaldotanddens/R/12_Ratio_750_L_3_R_4.png","xmouse":[783,783,783,783,783,783,783,783,783,783,783,783,783,783,783,783,783,783,783,783,783,783,783,783,783,783,783,783,783,783,783,783,783,783,785,818,853,889,910,924,936,955,980,1006,1031,1065,1076,1087,1095,1101,1118,1123],"ymouse":[590,590,590,590,590,590,590,590,590,590,590,590,590,590,590,590,590,590,590,590,590,590,590,590,590,590,590,590,590,590,590,590,590,590,591,575,558,540,528,519,507,473,431,386,341,262,238,211,184,161,105,79],"timestamp_mouse":[10,37,40,60,81,102,121,141,161,181,201,222,241,260,280,300,320,341,360,381,401,422,440,461,481,502,521,541,561,580,600,620,641,662,680,700,720,741,760,782,800,820,841,860,880,900,920,940,961,980,1000,1021],"xSR":741.5,"ySR":573.95,"xT1":424.9,"yT1":0,"xT2":1058.1,"yT2":0,"toosoon":0,"cond_shown":"equaldotanddens","ratio_trial":750,"smaller_num":"3","larger_num":"4","correct_side":2,"subjID":"mnikisabogal15","gender":"0","age":"9","school":"4"},{"start_time":1552055012977,"click_time":1552055014065,"finger_time":1552055013644,"fix_duration":250,"trial":35,"RT":667,"MT":421,"sideResp":1,"stimulus":"img/500/equaldotanddens/L/8_Ratio_500_L_8_R_4.png","xmouse":[798,798,798,798,798,798,798,798,798,798,798,798,798,798,798,798,798,798,798,798,798,798,798,798,798,798,798,798,798,798,798,797,784,720,661,598,545,519,516,516,516,516,516,516,516,516,517,518,522,522,523,523,522,508,498],"ymouse":[656,656,656,656,656,656,656,656,656,656,656,656,656,656,656,656,656,656,656,656,656,656,656,656,656,656,656,656,656,656,647,637,610,513,443,378,327,295,271,265,260,253,244,233,232,231,228,224,211,205,199,192,183,124,91],"timestamp_mouse":[20,29,48,67,88,107,127,148,169,188,208,227,248,267,287,308,327,348,369,388,408,428,448,468,489,507,528,547,569,587,608,627,648,667,688,708,727,748,768,788,808,827,847,867,888,908,927,948,967,987,1007,1027,1047,1067,1087],"xSR":741.5,"ySR":573.95,"xT1":424.9,"yT1":0,"xT2":1058.1,"yT2":0,"toosoon":0,"cond_shown":"equaldotanddens","ratio_trial":500,"smaller_num":"4","larger_num":"8","correct_side":1,"subjID":"mnikisabogal15","gender":"0","age":"9","school":"4"},{"start_time":1552055019303,"click_time":1552055020564,"finger_time":1552055020024,"fix_duration":1337.741442699714,"trial":36,"RT":721,"MT":540,"sideResp":1,"stimulus":"img/900/equaldotsize/L/2_Ratio_900_L_20_R_18.png","xmouse":[827,827,827,827,827,827,827,827,827,827,827,827,827,827,827,827,827,827,827,827,827,827,827,827,827,827,827,827,827,827,827,827,827,826,814,799,787,770,756,743,720,681,547,492,462,447,436,431,422,421,421,421,421,421,421,421,421,421,421,421,421,421,424,426],"ymouse":[622,622,622,622,622,622,622,622,622,622,622,622,622,622,622,622,622,622,622,622,622,622,622,622,622,622,622,622,622,622,622,622,622,616,596,577,557,523,490,463,428,382,283,245,226,213,203,195,157,134,109,82,40,33,33,33,33,33,33,33,33,32,35,44],"timestamp_mouse":[10,22,42,62,81,102,122,141,161,182,202,222,243,262,282,301,323,342,362,381,401,421,443,463,482,501,522,542,561,581,602,622,641,661,682,701,721,742,761,782,801,822,841,861,881,901,921,941,961,982,1003,1021,1042,1061,1081,1102,1121,1143,1163,1182,1201,1221,1241,1261],"xSR":741.5,"ySR":573.95,"xT1":424.9,"yT1":0,"xT2":1058.1,"yT2":0,"toosoon":0,"cond_shown":"equaldotsize","ratio_trial":900,"smaller_num":"18","larger_num":"20","correct_side":1,"subjID":"mnikisabogal15","gender":"0","age":"9","school":"4"},{"start_time":1552055023287,"click_time":1552055024444,"finger_time":1552055024105,"fix_duration":1121.8413961948743,"trial":37,"RT":818,"MT":339,"sideResp":1,"stimulus":"img/250/equaldotsize/L/7_Ratio_250_L_8_R_2.png","xmouse":[790,792,795,798,801,803,804,805,805,805,805,805,805,805,805,805,806,806,806,806,806,806,806,806,806,806,806,806,806,806,806,806,806,806,806,806,806,806,806,777,709,634,549,440,420,412,412,422,448,453,454,454,454,455,458,460,460,460],"ymouse":[610,614,622,627,632,636,640,642,643,643,643,643,643,643,643,643,644,644,644,644,644,644,644,644,644,644,644,644,644,644,644,644,644,644,644,644,644,644,644,625,579,534,484,424,400,377,337,311,247,228,208,196,181,149,131,115,104,98],"timestamp_mouse":[17,39,58,77,98,117,138,159,177,197,219,237,257,277,298,317,339,357,378,399,418,438,457,477,497,518,537,557,577,598,617,639,658,677,698,717,738,757,778,797,818,838,858,877,897,918,937,957,978,998,1017,1037,1058,1077,1098,1118,1137,1157],"xSR":741.5,"ySR":573.95,"xT1":424.9,"yT1":0,"xT2":1058.1,"yT2":0,"toosoon":0,"cond_shown":"equaldotsize","ratio_trial":250,"smaller_num":"2","larger_num":"8","correct_side":1,"subjID":"mnikisabogal15","gender":"0","age":"9","school":"4"},{"start_time":1552055026400,"click_time":1552055029064,"finger_time":1552055027164,"fix_duration":652.6632078538111,"trial":38,"RT":764,"MT":1900,"sideResp":1,"stimulus":"img/900/randomdotsizeEA/R/9_Ratio_900_L_18_R_20.png","xmouse":[813,813,813,813,813,813,813,813,813,813,813,813,813,814,814,815,815,815,818,819,819,819,820,824,826,828,829,829,830,830,830,830,830,830,830,830,830,827,814,791,732,693,657,598,582,570,564,563,562,562,562,562,561,560,560,560,560,560,560,563,565,584,623,767,848,917,960,979,980,980,980,980,982,1023,1063,1102,1131,1142,1142,1142,1142,1142,1142,1142,1142,1141,1138,1135,1135,1135,1135,1134,1133,1129,1123,1108,1092,1067,1001,965,898,861,819,751,732,724,722,722,722,720,702,679,637,544,544,534,534,534,534,534,534,534,534,534,534,534,534,534,534,534,534,534,534,518],"ymouse":[618,618,618,618,618,618,618,618,618,618,618,618,618,618,618,618,618,618,617,617,617,617,616,612,610,606,604,603,602,602,602,602,602,602,602,602,602,587,551,504,417,365,313,233,208,189,178,174,173,169,160,152,147,144,144,144,144,144,144,144,144,149,156,175,175,176,176,176,176,176,176,176,176,153,135,123,115,114,114,114,114,114,114,114,114,114,113,113,112,112,112,112,112,111,110,109,108,108,108,108,105,101,97,97,97,97,97,97,97,97,93,91,84,74,74,72,72,72,72,72,72,72,72,72,72,72,72,72,72,72,72,72,72,72],"timestamp_mouse":[12,38,44,64,86,105,124,145,166,184,204,224,244,265,284,305,326,344,364,385,404,425,444,464,484,506,525,544,565,586,604,624,644,665,684,705,724,746,764,785,804,824,844,864,885,904,924,945,965,986,1005,1025,1044,1064,1085,1106,1124,1145,1164,1185,1206,1226,1245,1264,1284,1305,1324,1344,1364,1385,1404,1425,1444,1464,1484,1505,1525,1544,1564,1585,1604,1626,1645,1664,1684,1705,1725,1744,1765,1785,1805,1824,1844,1864,1884,1905,1924,1944,1964,1985,2005,2025,2044,2064,2084,2105,2124,2145,2165,2185,2205,2225,2244,2264,2284,2304,2325,2344,2365,2384,2405,2424,2446,2465,2484,2505,2525,2544,2565,2586,2606,2624,2645,2664],"xSR":741.5,"ySR":573.95,"xT1":424.9,"yT1":0,"xT2":1058.1,"yT2":0,"toosoon":0,"cond_shown":"randomdotsizeEA","ratio_trial":900,"smaller_num":"18","larger_num":"20","correct_side":2,"subjID":"mnikisabogal15","gender":"0","age":"9","school":"4"},{"start_time":1552055030772,"click_time":1552055031765,"finger_time":1552055031384,"fix_duration":326.1034914942814,"trial":39,"RT":612,"MT":381,"sideResp":2,"stimulus":"img/250/equaldotsize/R/10_Ratio_250_L_4_R_16.png","xmouse":[794,794,794,794,794,794,794,794,794,794,794,794,794,794,794,794,794,794,794,794,794,794,794,794,794,794,794,794,794,794,819,849,887,925,964,1030,1059,1078,1088,1096,1097,1097,1097,1097,1097,1097,1097,1097,1097,1097],"ymouse":[601,601,601,601,601,601,601,601,601,601,601,601,601,601,601,601,601,601,601,601,601,601,601,601,601,601,601,601,601,601,557,507,438,371,319,225,184,150,130,105,104,104,104,104,104,104,104,104,102,93],"timestamp_mouse":[30,33,53,73,92,113,132,153,172,192,212,233,252,273,293,314,332,353,373,394,413,433,453,474,492,512,532,552,574,592,612,632,653,672,692,712,733,753,772,793,812,833,853,873,892,913,933,952,973,993],"xSR":741.5,"ySR":573.95,"xT1":424.9,"yT1":0,"xT2":1058.1,"yT2":0,"toosoon":0,"cond_shown":"equaldotsize","ratio_trial":250,"smaller_num":"4","larger_num":"16","correct_side":2,"subjID":"mnikisabogal15","gender":"0","age":"9","school":"4"},{"start_time":1552055037551,"click_time":1552055038545,"finger_time":1552055038226,"fix_duration":1345.3559762798898,"trial":40,"RT":675,"MT":319,"sideResp":1,"stimulus":"img/500/equaldotanddens/L/11_Ratio_500_L_12_R_6.png","xmouse":[765,765,765,765,765,765,765,765,765,765,765,765,765,765,765,765,765,765,765,765,765,765,765,765,765,765,765,765,765,765,765,765,757,742,724,702,661,635,623,613,604,583,577,573,570,565,543,510,478,438],"ymouse":[609,609,609,609,609,609,609,609,609,609,609,609,609,609,609,609,609,609,609,609,609,609,609,609,609,609,609,609,609,609,609,604,583,556,517,478,406,359,338,316,293,252,242,235,228,219,187,156,129,94],"timestamp_mouse":[20,41,53,73,94,114,134,154,174,193,215,234,254,275,294,313,334,354,374,393,415,433,454,474,495,514,533,554,574,594,614,633,653,675,694,713,733,753,774,793,813,834,853,873,893,914,933,953,974,994],"xSR":741.5,"ySR":573.95,"xT1":424.9,"yT1":0,"xT2":1058.1,"yT2":0,"toosoon":0,"cond_shown":"equaldotanddens","ratio_trial":500,"smaller_num":"6","larger_num":"12","correct_side":1,"subjID":"mnikisabogal15","gender":"0","age":"9","school":"4"},{"start_time":1552055042828,"click_time":1552055044204,"finger_time":1552055043786,"fix_duration":1342.4280708752283,"trial":41,"RT":958,"MT":418,"sideResp":2,"stimulus":"img/750/equaldotsize/R/2_Ratio_750_L_6_R_8.png","xmouse":[787,787,787,787,787,787,787,787,787,787,787,787,787,787,787,787,787,787,787,787,787,787,787,787,787,787,787,787,787,787,787,787,787,787,787,787,787,787,787,787,787,787,787,787,787,800,819,851,957,995,1013,1049,1064,1073,1073,1073,1073,1074,1075,1075,1075,1075,1075,1073,1072,1072,1072,1072,1072],"ymouse":[650,650,650,650,650,650,650,650,650,650,650,650,650,650,650,650,650,650,650,650,650,650,650,650,650,650,650,650,650,650,650,650,650,650,650,650,650,650,650,650,650,650,650,650,650,629,605,561,425,370,345,265,230,197,195,192,189,184,169,158,142,131,123,110,108,108,108,107,98],"timestamp_mouse":[17,36,57,78,96,116,136,158,176,196,217,238,256,276,297,317,337,356,377,396,418,438,456,476,497,517,536,557,577,596,618,637,657,678,697,717,737,756,777,798,817,837,858,877,896,917,937,958,977,996,1016,1036,1057,1076,1096,1116,1136,1156,1176,1197,1217,1236,1257,1277,1297,1317,1336,1357,1376],"xSR":741.5,"ySR":573.95,"xT1":424.9,"yT1":0,"xT2":1058.1,"yT2":0,"toosoon":0,"cond_shown":"equaldotsize","ratio_trial":750,"smaller_num":"6","larger_num":"8","correct_side":2,"subjID":"mnikisabogal15","gender":"0","age":"9","school":"4"},{"start_time":1552055046250,"click_time":1552055047185,"finger_time":1552055046904,"fix_duration":824.4621554128431,"trial":42,"RT":654,"MT":281,"sideResp":2,"stimulus":"img/900/equaldotsize/L/8_Ratio_900_L_20_R_18.png","xmouse":[805,805,805,805,805,805,805,805,805,805,805,805,805,805,805,805,805,805,805,805,805,805,805,805,805,805,805,805,805,805,805,805,829,849,866,877,893,917,993,1013,1025,1032,1038,1049,1054,1056,1060],"ymouse":[603,603,603,603,603,603,603,603,603,603,603,603,603,603,603,603,603,603,603,603,603,603,603,603,603,603,603,603,603,603,603,601,556,528,503,482,444,387,218,172,145,127,113,89,79,72,66],"timestamp_mouse":[16,36,54,76,94,115,135,154,174,195,214,235,256,274,295,315,335,354,375,396,416,435,455,476,495,515,534,555,576,595,615,634,654,675,695,714,734,754,774,795,814,835,854,874,894,915,935],"xSR":741.5,"ySR":573.95,"xT1":424.9,"yT1":0,"xT2":1058.1,"yT2":0,"toosoon":0,"cond_shown":"equaldotsize","ratio_trial":900,"smaller_num":"18","larger_num":"20","correct_side":1,"subjID":"mnikisabogal15","gender":"0","age":"9","school":"4"},{"start_time":1552055048837,"click_time":1552055049844,"finger_time":1552055049524,"fix_duration":250,"trial":43,"RT":687,"MT":320,"sideResp":1,"stimulus":"img/900/equaldotsize/L/10_Ratio_900_L_20_R_18.png","xmouse":[760,760,760,760,760,760,760,760,760,760,760,760,760,760,760,760,760,760,760,760,760,760,760,760,760,760,760,760,760,760,760,760,760,755,739,725,711,698,675,628,599,571,544,528,512,510,509,509,509,509,509],"ymouse":[640,640,640,640,640,640,640,640,640,640,640,640,640,640,640,640,640,640,640,640,640,640,640,640,640,640,640,640,640,640,640,639,628,583,466,426,394,369,323,256,232,213,197,187,173,168,162,146,134,106,93],"timestamp_mouse":[13,30,47,67,87,107,127,148,169,188,208,228,247,268,287,309,328,347,367,387,408,428,447,468,487,509,528,548,567,587,608,627,648,667,687,708,727,747,768,789,808,828,848,867,887,908,927,948,967,987,1007],"xSR":741.5,"ySR":573.95,"xT1":424.9,"yT1":0,"xT2":1058.1,"yT2":0,"toosoon":0,"cond_shown":"equaldotsize","ratio_trial":900,"smaller_num":"18","larger_num":"20","correct_side":1,"subjID":"mnikisabogal15","gender":"0","age":"9","school":"4"},{"start_time":1552055052759,"click_time":1552055054225,"finger_time":1552055053444,"fix_duration":611.643409465215,"trial":44,"RT":685,"MT":781,"sideResp":1,"stimulus":"img/500/equaldotanddens/L/8_Ratio_500_L_8_R_4.png","xmouse":[759,759,759,759,759,759,759,759,759,759,759,759,759,759,759,759,759,759,759,759,759,759,759,759,759,759,759,759,759,759,759,759,759,750,731,716,698,680,642,633,613,602,600,599,598,596,596,594,593,583,571,561,547,535,535,535,535,534,532,532,531,531,531,531,531,531,531,531,531,531,531,529,525,512],"ymouse":[638,638,638,638,638,638,638,638,638,638,638,638,638,638,638,638,638,638,638,638,638,638,638,638,638,638,638,638,638,638,638,638,638,618,567,508,438,378,290,277,248,231,224,214,208,201,194,188,182,165,143,129,116,103,102,102,102,102,98,97,97,97,97,97,97,97,97,97,97,97,97,95,90,79],"timestamp_mouse":[12,34,45,65,87,105,126,146,166,185,206,225,245,266,287,305,326,347,365,386,405,427,446,465,486,505,526,545,567,587,606,625,645,665,685,706,726,746,766,786,805,825,845,866,885,905,927,947,965,986,1006,1025,1045,1066,1086,1105,1125,1145,1165,1186,1206,1227,1246,1266,1286,1305,1325,1345,1366,1385,1407,1426,1446,1466],"xSR":741.5,"ySR":573.95,"xT1":424.9,"yT1":0,"xT2":1058.1,"yT2":0,"toosoon":0,"cond_shown":"equaldotanddens","ratio_trial":500,"smaller_num":"4","larger_num":"8","correct_side":1,"subjID":"mnikisabogal15","gender":"0","age":"9","school":"4"},{"start_time":1552055056094,"click_time":1552055056985,"finger_time":1552055056144,"fix_duration":708.5403016422374,"trial":45,"RT":50,"MT":841,"sideResp":1,"stimulus":"img/750/equaldotsize/L/8_Ratio_750_L_4_R_3.png","xmouse":[795,795,795,795,795,793,793,793,793,793,793,793,793,793,793,793,793,793,793,793,792,792,790,790,790,790,790,790,789,783,777,767,762,759,756,753,749,730,710,678,640,555,502,475,448],"ymouse":[602,587,572,567,563,560,559,558,558,558,558,558,558,558,558,558,558,558,558,558,558,558,558,559,559,559,559,559,559,523,496,474,467,461,456,450,444,415,387,350,315,226,150,104,66],"timestamp_mouse":[20,36,50,70,91,110,131,150,170,191,212,230,251,270,291,310,331,351,370,390,410,432,451,472,490,511,531,551,570,591,612,631,651,670,690,711,730,750,770,790,810,831,850,871,891],"xSR":741.5,"ySR":573.95,"xT1":424.9,"yT1":0,"xT2":1058.1,"yT2":0,"toosoon":0,"cond_shown":"equaldotsize","ratio_trial":750,"smaller_num":"3","larger_num":"4","correct_side":1,"subjID":"mnikisabogal15","gender":"0","age":"9","school":"4"},{"start_time":1552055060001,"click_time":1552055061085,"finger_time":1552055060644,"fix_duration":775.4938248850924,"trial":46,"RT":643,"MT":441,"sideResp":2,"stimulus":"img/500/equaldotsize/R/6_Ratio_500_L_9_R_18.png","xmouse":[794,794,794,794,794,794,794,794,794,794,794,794,794,794,794,794,794,794,794,794,794,794,794,794,794,794,794,794,794,794,797,800,814,826,840,863,877,902,911,916,921,926,934,937,943,948,950,953,961,969,981,995,1041,1053,1111],"ymouse":[627,627,627,627,627,627,627,627,627,627,627,627,627,627,627,627,627,627,627,627,627,627,627,627,627,627,627,627,627,627,621,613,568,528,482,408,368,309,291,274,260,249,235,227,216,209,204,196,180,168,152,137,90,79,41],"timestamp_mouse":[12,24,43,65,83,105,123,143,163,185,203,224,243,263,283,303,323,343,363,385,404,424,443,465,484,504,524,544,564,584,603,624,643,664,683,703,723,744,763,783,803,824,843,864,883,903,923,943,963,984,1004,1024,1044,1064,1083],"xSR":741.5,"ySR":573.95,"xT1":424.9,"yT1":0,"xT2":1058.1,"yT2":0,"toosoon":0,"cond_shown":"equaldotsize","ratio_trial":500,"smaller_num":"9","larger_num":"18","correct_side":2,"subjID":"mnikisabogal15","gender":"0","age":"9","school":"4"},{"start_time":1552055063452,"click_time":1552055065345,"finger_time":1552055064344,"fix_duration":1205.5891996476523,"trial":47,"RT":892,"MT":1001,"sideResp":1,"stimulus":"img/900/equaldotanddens/R/7_Ratio_900_L_9_R_10.png","xmouse":[792,792,792,792,792,792,792,792,792,792,792,792,792,792,792,792,792,792,792,792,792,792,792,792,792,792,792,793,793,793,793,793,793,793,793,793,793,793,793,793,791,789,786,780,775,756,741,726,708,665,650,634,624,613,606,594,589,583,577,572,571,569,567,566,566,565,565,564,563,563,563,563,561,557,542,537,536,535,535,535,535,535,535,535,535,535,535,535,535,535,533,531,529,525,519],"ymouse":[658,658,658,658,658,658,658,658,658,658,658,658,658,658,658,658,658,658,658,658,658,658,658,658,658,658,658,657,656,648,644,642,641,640,639,638,635,633,632,628,618,612,602,586,571,529,505,481,458,346,292,235,190,154,131,103,93,86,79,74,73,73,72,71,71,71,71,71,71,71,71,71,71,71,71,71,71,71,71,71,71,71,71,71,71,71,71,71,71,71,72,73,75,77,80],"timestamp_mouse":[13,40,53,72,93,113,134,153,173,192,212,233,252,273,293,313,332,352,373,392,413,434,454,474,492,513,533,552,573,593,613,632,652,672,693,712,733,752,772,792,813,832,853,872,892,912,933,953,973,993,1014,1032,1053,1072,1093,1112,1133,1153,1172,1193,1213,1234,1252,1272,1293,1314,1333,1352,1372,1393,1413,1432,1454,1473,1493,1512,1533,1552,1572,1593,1614,1632,1652,1672,1693,1712,1734,1752,1772,1792,1814,1833,1853,1872,1893],"xSR":741.5,"ySR":573.95,"xT1":424.9,"yT1":0,"xT2":1058.1,"yT2":0,"toosoon":0,"cond_shown":"equaldotanddens","ratio_trial":900,"smaller_num":"9","larger_num":"10","correct_side":2,"subjID":"mnikisabogal15","gender":"0","age":"9","school":"4"},{"start_time":1552055066916,"click_time":1552055068305,"finger_time":1552055067644,"fix_duration":250,"trial":48,"RT":728,"MT":661,"sideResp":1,"stimulus":"img/250/equaldotsize/L/7_Ratio_250_L_8_R_2.png","xmouse":[811,811,811,811,811,811,811,811,811,811,811,811,811,811,811,811,811,811,811,811,811,811,811,811,811,811,811,811,811,811,811,811,811,811,811,806,800,766,735,696,645,611,537,502,457,443,410,388,387,386,386,386,387,387,387,387,387,387,387,387,387,387,387,387,387,387,388,401,423,449],"ymouse":[589,589,589,589,589,589,589,589,589,589,589,589,589,589,589,589,589,589,589,589,589,589,589,589,589,589,589,589,589,589,589,589,589,589,586,575,561,504,453,407,367,333,243,198,145,130,102,84,81,80,80,78,72,70,69,69,69,69,69,69,69,69,69,69,69,69,68,63,59,54],"timestamp_mouse":[12,36,48,68,88,109,128,148,169,188,209,229,248,268,289,309,329,348,368,389,409,428,448,469,488,509,529,548,569,589,609,629,650,669,688,709,728,748,768,788,808,828,848,868,889,909,929,950,969,988,1008,1028,1048,1068,1088,1108,1128,1149,1168,1189,1208,1228,1248,1268,1289,1308,1328,1348,1368,1389],"xSR":741.5,"ySR":573.95,"xT1":424.9,"yT1":0,"xT2":1058.1,"yT2":0,"toosoon":0,"cond_shown":"equaldotsize","ratio_trial":250,"smaller_num":"2","larger_num":"8","correct_side":1,"subjID":"mnikisabogal15","gender":"0","age":"9","school":"4"},{"start_time":1552055069915,"click_time":1552055070746,"finger_time":1552055070585,"fix_duration":310.8726608521358,"trial":49,"RT":670,"MT":161,"sideResp":2,"stimulus":"img/250/equaldotanddens/R/10_Ratio_250_L_4_R_16.png","xmouse":[768,768,768,768,768,768,768,768,768,768,768,768,768,768,768,768,768,768,768,768,768,768,768,768,768,768,768,768,768,768,768,768,789,839,860,917,942,998,1031,1067,1091,1112],"ymouse":[636,636,636,636,636,636,636,636,636,636,636,636,636,636,636,636,636,636,636,636,636,636,636,636,636,636,636,636,636,636,636,628,591,498,461,365,325,236,191,150,121,97],"timestamp_mouse":[12,34,49,69,90,110,130,149,169,189,209,230,249,270,290,309,330,350,369,389,409,430,449,469,490,509,529,550,569,590,609,630,649,670,689,709,731,749,769,789,809,831],"xSR":741.5,"ySR":573.95,"xT1":424.9,"yT1":0,"xT2":1058.1,"yT2":0,"toosoon":0,"cond_shown":"equaldotanddens","ratio_trial":250,"smaller_num":"4","larger_num":"16","correct_side":2,"subjID":"mnikisabogal15","gender":"0","age":"9","school":"4"},{"start_time":1552055072742,"click_time":1552055073684,"finger_time":1552055073304,"fix_duration":995.0669173617327,"trial":50,"RT":562,"MT":380,"sideResp":1,"stimulus":"img/750/equaldotanddens/L/8_Ratio_750_L_4_R_3.png","xmouse":[805,805,805,805,805,805,805,805,805,805,805,805,805,805,805,805,805,805,805,805,805,805,805,805,805,805,805,797,782,756,717,573,489,455,440,433,431,431,431,433,434,438,439,439,439,436,434,433],"ymouse":[595,595,595,595,595,595,595,595,595,595,595,595,595,595,595,595,595,595,595,595,595,595,595,595,595,595,594,580,564,536,502,386,306,266,242,227,214,212,208,203,198,183,155,139,123,111,104,93],"timestamp_mouse":[12,33,42,63,82,103,122,142,163,182,203,223,242,263,283,302,323,343,363,383,403,423,442,463,482,502,523,542,562,582,602,622,643,663,683,702,723,742,762,783,802,822,842,862,882,903,923,942],"xSR":741.5,"ySR":573.95,"xT1":424.9,"yT1":0,"xT2":1058.1,"yT2":0,"toosoon":0,"cond_shown":"equaldotanddens","ratio_trial":750,"smaller_num":"3","larger_num":"4","correct_side":1,"subjID":"mnikisabogal15","gender":"0","age":"9","school":"4"},{"start_time":1552055075670,"click_time":1552055076884,"finger_time":1552055076465,"fix_duration":1044.4836942171648,"trial":51,"RT":795,"MT":419,"sideResp":2,"stimulus":"img/750/equaldotanddens/R/5_Ratio_750_L_15_R_20.png","xmouse":[793,793,793,793,793,793,793,793,793,793,793,793,793,793,793,793,793,793,793,793,793,793,793,793,793,793,793,793,793,793,793,793,793,793,793,793,794,797,797,801,818,835,871,887,942,1001,1037,1064,1091,1108,1126,1127,1127,1124,1119,1103,1096,1088,1081,1076,1073],"ymouse":[627,627,627,627,627,627,627,627,627,627,627,627,627,627,627,627,627,627,627,627,627,627,627,627,627,627,627,627,627,627,627,627,627,627,627,627,611,591,577,558,529,515,489,478,434,385,359,340,319,302,268,252,236,222,205,168,152,134,120,109,98],"timestamp_mouse":[14,42,55,74,94,114,135,154,174,195,214,234,255,274,295,315,334,354,375,394,415,435,454,474,494,514,535,555,574,595,615,634,655,675,694,715,734,754,775,795,814,835,854,875,894,915,935,954,974,995,1014,1034,1054,1075,1094,1114,1134,1154,1175,1194,1214],"xSR":741.5,"ySR":573.95,"xT1":424.9,"yT1":0,"xT2":1058.1,"yT2":0,"toosoon":0,"cond_shown":"equaldotanddens","ratio_trial":750,"smaller_num":"15","larger_num":"20","correct_side":2,"subjID":"mnikisabogal15","gender":"0","age":"9","school":"4"},{"start_time":1552055078858,"click_time":1552055080687,"finger_time":1552055080304,"fix_duration":452.2120962403875,"trial":52,"RT":1446,"MT":383,"sideResp":2,"stimulus":"img/750/randomdotsizeEA/R/7_Ratio_750_L_3_R_4.png","xmouse":[767,767,767,767,767,767,767,767,767,767,767,767,767,767,767,767,767,767,767,767,767,767,767,767,767,767,767,767,767,767,767,767,767,767,767,767,767,767,767,767,767,767,767,767,767,767,767,767,767,767,767,767,767,767,767,767,767,767,767,767,767,767,767,767,767,767,767,767,767,767,767,767,787,815,853,882,914,922,930,941,958,998,1016,1042,1056,1064,1065,1065,1065,1065,1066,1078],"ymouse":[598,598,598,598,598,598,598,598,598,598,598,598,598,598,598,598,598,598,598,598,598,598,598,598,598,598,598,598,598,598,598,598,598,598,598,598,598,598,598,598,598,598,598,598,598,598,598,598,598,598,598,598,598,598,598,598,598,598,598,598,598,598,598,598,598,598,598,598,598,598,598,598,562,521,468,408,326,277,214,141,78,0,0,0,0,0,0,0,0,0,0,8],"timestamp_mouse":[13,37,47,66,86,106,128,147,166,186,207,227,247,267,286,307,326,347,367,386,406,426,447,466,486,506,526,547,566,586,606,627,647,667,687,706,727,747,767,787,806,827,847,867,886,907,926,947,967,986,1006,1027,1046,1067,1087,1106,1127,1147,1166,1186,1206,1227,1246,1266,1287,1307,1327,1347,1367,1388,1407,1426,1446,1466,1486,1506,1525,1546,1566,1586,1606,1627,1647,1666,1687,1706,1727,1746,1766,1787,1807,1828],"xSR":741.5,"ySR":573.95,"xT1":424.9,"yT1":0,"xT2":1058.1,"yT2":0,"toosoon":0,"cond_shown":"randomdotsizeEA","ratio_trial":750,"smaller_num":"3","larger_num":"4","correct_side":2,"subjID":"mnikisabogal15","gender":"0","age":"9","school":"4"},{"start_time":1552055082393,"click_time":1552055083745,"finger_time":1552055083264,"fix_duration":787.3718392073274,"trial":53,"RT":871,"MT":481,"sideResp":2,"stimulus":"img/250/randomdotsizeEA/R/12_Ratio_250_L_5_R_20.png","xmouse":[832,832,832,832,832,832,832,832,832,832,832,832,832,832,832,832,832,832,832,832,832,832,832,832,832,832,832,832,832,832,832,832,832,832,832,832,832,832,832,832,832,832,836,850,857,899,934,986,1055,1114,1176,1188,1198,1208,1214,1222,1225,1226,1226,1226,1226,1226,1224,1220,1204,1172,1162,1156],"ymouse":[608,608,608,608,608,608,608,608,608,608,608,608,608,608,608,608,608,608,608,608,608,608,608,608,608,608,608,608,608,608,608,608,608,608,608,608,608,608,608,607,602,593,578,550,539,467,406,320,227,143,25,0,0,0,0,0,0,0,0,0,0,0,1,8,28,55,61,66],"timestamp_mouse":[14,38,51,71,92,111,132,151,172,192,211,231,252,271,292,312,332,351,371,391,411,431,451,472,492,513,532,552,571,591,611,631,652,671,691,711,731,751,772,791,811,832,851,871,892,911,932,953,971,991,1011,1032,1052,1071,1091,1111,1131,1152,1171,1191,1211,1231,1251,1272,1292,1311,1331,1352],"xSR":741.5,"ySR":573.95,"xT1":424.9,"yT1":0,"xT2":1058.1,"yT2":0,"toosoon":0,"cond_shown":"randomdotsizeEA","ratio_trial":250,"smaller_num":"5","larger_num":"20","correct_side":2,"subjID":"mnikisabogal15","gender":"0","age":"9","school":"4"},{"start_time":1552055084988,"click_time":1552055087985,"finger_time":1552055087524,"fix_duration":342.4338595276263,"trial":54,"RT":2536,"MT":461,"sideResp":1,"stimulus":"img/900/randomdotsizeEA/L/2_Ratio_900_L_20_R_18.png","xmouse":[790,790,790,790,790,790,790,790,790,790,790,790,790,790,790,790,790,790,790,790,790,790,790,790,790,790,790,790,790,790,790,790,790,790,790,790,790,790,790,790,790,790,790,790,790,790,790,790,790,790,790,790,790,790,790,790,790,790,790,790,790,790,790,790,790,790,790,790,790,790,790,790,790,790,790,790,790,790,790,790,790,790,790,790,790,790,790,790,790,790,790,790,790,790,790,790,790,790,790,790,790,790,790,790,790,790,790,790,790,790,790,790,790,790,790,790,790,790,790,790,790,790,790,790,788,769,736,688,623,550,412,387,364,362,362,362,362,359,356,355,355,355,355,359,372,407,418,422,424,426],"ymouse":[633,633,633,633,633,633,633,633,633,633,633,633,633,633,633,633,633,633,633,633,633,633,633,633,633,633,633,633,633,633,633,633,633,633,633,633,633,633,633,633,633,633,633,633,633,633,633,633,633,633,633,633,633,633,633,633,633,633,633,633,633,633,633,633,633,633,633,633,633,633,633,633,633,633,633,633,633,633,633,633,633,633,633,633,633,633,633,633,633,633,633,633,633,633,633,633,633,633,633,633,633,633,633,633,633,633,633,633,633,633,633,633,633,633,633,633,633,633,633,633,633,633,633,633,631,610,572,516,440,364,239,214,195,193,193,191,185,178,173,171,168,164,160,152,138,110,101,96,93,92],"timestamp_mouse":[21,37,56,76,96,116,136,156,176,196,216,236,256,277,297,317,337,356,376,396,417,436,456,477,497,516,537,556,577,597,617,637,656,677,697,717,736,756,777,797,817,837,857,876,897,916,937,957,977,997,1016,1036,1057,1077,1097,1116,1137,1157,1176,1197,1216,1237,1257,1278,1297,1317,1337,1356,1376,1397,1417,1436,1457,1477,1497,1516,1536,1557,1577,1597,1616,1637,1657,1677,1697,1717,1737,1757,1776,1797,1817,1836,1857,1877,1897,1917,1937,1957,1976,1996,2016,2036,2056,2077,2097,2116,2137,2157,2176,2197,2216,2236,2257,2277,2297,2316,2337,2357,2377,2396,2417,2437,2456,2477,2496,2516,2536,2557,2576,2596,2616,2637,2656,2676,2696,2716,2736,2756,2776,2796,2817,2836,2857,2877,2897,2916,2936,2956,2977,2997],"xSR":741.5,"ySR":573.95,"xT1":424.9,"yT1":0,"xT2":1058.1,"yT2":0,"toosoon":0,"cond_shown":"randomdotsizeEA","ratio_trial":900,"smaller_num":"18","larger_num":"20","correct_side":1,"subjID":"mnikisabogal15","gender":"0","age":"9","school":"4"},{"start_time":1552055090466,"click_time":1552055091544,"finger_time":1552055091165,"fix_duration":959.0742809790863,"trial":55,"RT":699,"MT":379,"sideResp":2,"stimulus":"img/500/equaldotsize/R/9_Ratio_500_L_2_R_4.png","xmouse":[779,779,779,779,779,779,779,779,779,779,779,779,779,779,779,779,779,779,779,779,779,779,779,779,779,779,779,779,779,779,779,780,784,795,810,835,896,934,972,1010,1030,1046,1065,1074,1083,1091,1097,1098,1097,1090,1087,1085,1082,1081],"ymouse":[601,601,601,601,601,601,601,601,601,601,601,601,601,601,601,601,601,601,601,601,601,601,601,601,601,601,601,601,601,601,601,601,599,587,570,541,477,436,399,368,344,325,291,274,257,241,222,195,174,153,141,131,109,98],"timestamp_mouse":[19,39,59,78,99,119,139,158,178,199,218,238,259,278,299,318,338,359,378,399,418,438,458,479,500,518,539,558,578,599,618,638,658,678,699,719,739,758,779,798,818,838,858,878,898,919,939,958,978,999,1018,1038,1058,1078],"xSR":741.5,"ySR":573.95,"xT1":424.9,"yT1":0,"xT2":1058.1,"yT2":0,"toosoon":0,"cond_shown":"equaldotsize","ratio_trial":500,"smaller_num":"2","larger_num":"4","correct_side":2,"subjID":"mnikisabogal15","gender":"0","age":"9","school":"4"},{"start_time":1552055092850,"click_time":1552055094204,"finger_time":1552055093605,"fix_duration":544.4005913198484,"trial":56,"RT":755,"MT":599,"sideResp":2,"stimulus":"img/900/equaldotsize/R/7_Ratio_900_L_9_R_10.png","xmouse":[821,821,821,821,821,821,821,821,821,821,821,821,821,821,821,821,821,821,821,821,821,821,821,821,821,821,821,821,821,821,821,821,821,821,821,825,833,844,898,951,1037,1117,1183,1227,1228,1228,1216,1203,1184,1179,1175,1172,1171,1170,1170,1170,1170,1170,1170,1170,1170,1170,1170,1170,1168,1164,1162,1150],"ymouse":[613,613,613,613,613,613,613,613,613,613,613,613,613,613,613,613,613,613,613,613,613,613,613,613,613,613,613,613,613,613,613,613,613,613,613,601,579,558,501,448,376,309,243,174,160,147,124,106,86,79,75,70,69,68,68,68,68,68,68,68,68,68,68,68,67,65,65,65],"timestamp_mouse":[14,39,55,74,94,115,135,154,175,194,215,234,255,274,294,314,333,355,374,395,415,435,455,475,494,514,534,554,574,594,614,634,655,675,694,714,734,755,774,794,815,835,855,874,894,914,935,955,974,994,1015,1035,1054,1075,1095,1114,1134,1155,1174,1194,1215,1234,1255,1274,1295,1315,1335,1354],"xSR":741.5,"ySR":573.95,"xT1":424.9,"yT1":0,"xT2":1058.1,"yT2":0,"toosoon":0,"cond_shown":"equaldotsize","ratio_trial":900,"smaller_num":"9","larger_num":"10","correct_side":2,"subjID":"mnikisabogal15","gender":"0","age":"9","school":"4"},{"start_time":1552055096276,"click_time":1552055097864,"finger_time":1552055096804,"fix_duration":769.0686257740357,"trial":57,"RT":528,"MT":1060,"sideResp":2,"stimulus":"img/250/randomdotsizeEA/R/6_Ratio_250_L_6_R_24.png","xmouse":[829,829,829,829,829,829,829,829,829,829,829,829,829,829,829,829,829,829,829,829,829,829,829,827,823,816,810,802,801,801,801,801,801,801,801,801,801,801,801,801,801,801,806,824,844,866,910,1026,1103,1176,1228,1254,1269,1295,1300,1310,1314,1316,1316,1316,1316,1316,1313,1299,1278,1252,1226,1204,1187,1184,1184,1183,1183,1182,1182,1181,1180,1169,1161,1149],"ymouse":[629,629,629,629,629,629,629,629,629,629,629,629,629,629,629,629,629,629,629,629,629,629,629,625,607,585,563,545,545,545,545,545,545,545,545,545,544,544,544,544,544,540,521,491,459,430,383,280,218,155,102,59,24,0,0,0,0,0,0,0,0,0,8,19,30,42,53,62,70,71,71,71,71,71,71,72,72,75,76,78],"timestamp_mouse":[14,29,48,68,88,108,128,148,168,190,208,228,248,268,288,309,328,349,368,389,408,428,449,468,488,508,528,548,570,589,608,628,648,669,689,708,729,748,768,788,808,829,848,868,888,909,929,948,968,988,1008,1029,1048,1068,1088,1109,1128,1149,1168,1188,1208,1229,1249,1268,1289,1308,1329,1348,1368,1389,1408,1429,1449,1468,1488,1508,1529,1548,1569,1588],"xSR":741.5,"ySR":573.95,"xT1":424.9,"yT1":0,"xT2":1058.1,"yT2":0,"toosoon":0,"cond_shown":"randomdotsizeEA","ratio_trial":250,"smaller_num":"6","larger_num":"24","correct_side":2,"subjID":"mnikisabogal15","gender":"0","age":"9","school":"4"},{"start_time":1552055099660,"click_time":1552055100765,"finger_time":1552055100284,"fix_duration":874.3528052471638,"trial":58,"RT":624,"MT":481,"sideResp":2,"stimulus":"img/250/equaldotanddens/R/9_Ratio_250_L_3_R_12.png","xmouse":[801,801,801,801,801,801,801,801,801,801,801,801,801,801,801,801,801,801,801,801,801,801,801,801,801,801,801,801,801,801,801,804,807,830,899,931,953,965,979,982,982,982,982,982,982,982,982,982,982,982,982,984,996,1010,1050,1069],"ymouse":[575,575,575,575,575,575,575,575,575,575,575,575,575,575,575,575,575,575,575,575,575,575,575,575,575,575,575,575,575,575,575,570,562,511,359,286,230,191,108,81,57,36,19,16,16,16,16,16,16,16,16,16,16,16,16,16],"timestamp_mouse":[12,37,44,65,85,105,124,145,165,184,205,225,245,264,284,304,325,344,364,384,404,424,445,465,484,504,525,544,564,584,604,624,644,664,684,704,724,745,765,784,805,824,844,865,884,904,924,944,965,984,1004,1023,1044,1064,1085,1104],"xSR":741.5,"ySR":573.95,"xT1":424.9,"yT1":0,"xT2":1058.1,"yT2":0,"toosoon":0,"cond_shown":"equaldotanddens","ratio_trial":250,"smaller_num":"3","larger_num":"12","correct_side":2,"subjID":"mnikisabogal15","gender":"0","age":"9","school":"4"},{"start_time":1552055102857,"click_time":1552055103845,"finger_time":1552055103664,"fix_duration":1111.727834516097,"trial":59,"RT":807,"MT":181,"sideResp":1,"stimulus":"img/750/randomdotsizeEA/L/13_Ratio_750_L_8_R_6.png","xmouse":[784,784,784,784,784,784,784,784,784,784,784,784,784,784,784,784,784,784,784,784,784,784,784,784,784,784,784,784,784,784,784,784,784,784,784,784,784,784,784,779,752,724,685,643,594,576,561,547,533,497],"ymouse":[607,607,607,607,607,607,607,607,607,607,607,607,607,607,607,607,607,607,607,607,607,607,607,607,607,607,607,607,607,607,607,607,607,607,607,607,607,607,607,590,514,447,368,291,192,152,121,97,76,31],"timestamp_mouse":[12,34,47,68,87,108,128,148,168,188,207,227,248,268,288,308,327,347,368,388,407,428,447,468,488,508,527,548,568,588,607,627,648,667,687,707,727,747,768,787,807,827,847,867,887,907,928,947,967,988],"xSR":741.5,"ySR":573.95,"xT1":424.9,"yT1":0,"xT2":1058.1,"yT2":0,"toosoon":0,"cond_shown":"randomdotsizeEA","ratio_trial":750,"smaller_num":"6","larger_num":"8","correct_side":1,"subjID":"mnikisabogal15","gender":"0","age":"9","school":"4"},{"start_time":1552055105717,"click_time":1552055106745,"finger_time":1552055106444,"fix_duration":250,"trial":60,"RT":727,"MT":301,"sideResp":1,"stimulus":"img/900/equaldotsize/L/2_Ratio_900_L_20_R_18.png","xmouse":[818,818,818,818,818,818,818,818,818,818,818,818,818,818,818,818,818,818,818,818,818,818,818,818,818,818,818,818,818,818,818,818,818,818,818,809,756,666,607,563,524,461,439,430,426,423,420,420,421,422,424,426],"ymouse":[621,621,621,621,622,622,622,622,622,622,622,622,622,622,622,622,622,622,622,622,622,622,622,622,622,622,622,622,622,622,622,622,622,622,622,611,536,446,398,365,330,239,197,172,152,128,96,89,87,84,83,77],"timestamp_mouse":[10,36,47,67,88,108,128,148,168,188,208,228,247,267,288,308,327,348,368,388,407,427,448,467,488,508,527,547,567,588,607,627,647,668,687,707,727,747,767,788,807,827,847,867,887,907,927,947,967,988,1007,1027],"xSR":741.5,"ySR":573.95,"xT1":424.9,"yT1":0,"xT2":1058.1,"yT2":0,"toosoon":0,"cond_shown":"equaldotsize","ratio_trial":900,"smaller_num":"18","larger_num":"20","correct_side":1,"subjID":"mnikisabogal15","gender":"0","age":"9","school":"4"},{"start_time":1552055110277,"click_time":1552055111324,"finger_time":1552055110964,"fix_duration":1432.0141964252523,"trial":61,"RT":687,"MT":360,"sideResp":1,"stimulus":"img/500/equaldotsize/L/4_Ratio_500_L_18_R_9.png","xmouse":[752,752,752,752,752,752,752,752,752,752,752,752,752,752,752,752,752,752,752,752,752,752,752,752,752,752,752,752,752,752,752,750,747,742,724,704,679,656,630,615,614,613,612,612,612,612,612,608,600,568,549,533,513],"ymouse":[612,612,612,612,612,612,612,612,612,612,612,612,612,612,612,612,612,612,612,612,612,612,612,612,612,612,612,612,612,612,612,611,606,583,529,490,452,425,395,368,358,348,336,322,282,261,228,205,178,114,82,53,28],"timestamp_mouse":[14,41,47,68,87,108,128,147,167,187,207,227,248,268,288,307,328,348,367,388,407,428,448,467,487,508,527,547,568,588,608,627,647,668,687,707,728,748,767,787,807,828,847,867,887,907,927,948,968,988,1008,1027,1047],"xSR":741.5,"ySR":573.95,"xT1":424.9,"yT1":0,"xT2":1058.1,"yT2":0,"toosoon":0,"cond_shown":"equaldotsize","ratio_trial":500,"smaller_num":"9","larger_num":"18","correct_side":1,"subjID":"mnikisabogal15","gender":"0","age":"9","school":"4"},{"start_time":1552055113048,"click_time":1552055114844,"finger_time":1552055114204,"fix_duration":603.3000954143909,"trial":62,"RT":1156,"MT":640,"sideResp":1,"stimulus":"img/500/randomdotsizeEA/L/8_Ratio_500_L_8_R_4.png","xmouse":[774,774,773,773,773,772,772,772,772,772,772,772,772,772,772,772,772,772,772,772,772,772,772,772,772,772,772,772,771,771,771,771,769,769,768,767,765,764,762,760,758,758,757,757,757,757,757,756,755,755,753,752,751,750,749,744,743,740,739,736,733,722,716,705,695,658,642,628,615,603,575,561,550,544,542,539,544,548,550,549,536,530,524,519,514,505,501,498,496,495],"ymouse":[620,620,620,620,620,619,619,619,619,619,619,619,619,619,619,619,619,619,619,619,619,619,619,619,619,619,619,619,618,618,618,618,617,616,615,614,612,611,610,609,607,607,606,606,606,606,606,605,605,604,602,601,600,599,597,592,589,586,583,578,574,559,548,533,517,470,452,441,430,415,382,366,351,338,326,275,228,201,180,162,139,132,127,123,119,111,108,104,101,99],"timestamp_mouse":[25,43,56,77,97,117,137,157,177,196,217,237,256,276,296,316,336,357,377,396,417,436,457,476,496,516,536,556,577,596,616,636,656,676,696,716,737,756,776,796,816,836,857,876,896,917,936,956,977,997,1016,1036,1057,1076,1097,1116,1136,1156,1177,1196,1216,1236,1256,1276,1297,1316,1336,1356,1377,1396,1417,1436,1457,1476,1497,1516,1536,1556,1577,1597,1616,1636,1656,1676,1696,1717,1738,1757,1777,1796],"xSR":741.5,"ySR":573.95,"xT1":424.9,"yT1":0,"xT2":1058.1,"yT2":0,"toosoon":0,"cond_shown":"randomdotsizeEA","ratio_trial":500,"smaller_num":"4","larger_num":"8","correct_side":1,"subjID":"mnikisabogal15","gender":"0","age":"9","school":"4"},{"start_time":1552055115950,"click_time":1552055116705,"finger_time":1552055116566,"fix_duration":323.35936678836896,"trial":63,"RT":616,"MT":139,"sideResp":1,"stimulus":"img/500/equaldotsize/L/8_Ratio_500_L_8_R_4.png","xmouse":[817,817,815,815,815,815,815,815,815,815,815,815,815,815,815,815,815,815,815,815,815,815,815,815,815,815,815,813,810,800,745,714,680,652,622,566,539,516],"ymouse":[621,621,621,621,621,621,621,621,621,621,621,621,621,621,621,621,621,621,621,621,621,621,621,621,621,621,621,614,605,583,497,432,354,269,189,69,35,4],"timestamp_mouse":[15,38,55,74,94,114,134,154,175,196,215,235,254,274,295,315,335,354,374,394,414,435,454,475,494,514,534,554,574,595,616,634,654,674,694,715,734,755],"xSR":741.5,"ySR":573.95,"xT1":424.9,"yT1":0,"xT2":1058.1,"yT2":0,"toosoon":0,"cond_shown":"equaldotsize","ratio_trial":500,"smaller_num":"4","larger_num":"8","correct_side":1,"subjID":"mnikisabogal15","gender":"0","age":"9","school":"4"},{"start_time":1552055120146,"click_time":1552055121684,"finger_time":1552055121004,"fix_duration":1139.4887991966073,"trial":64,"RT":858,"MT":680,"sideResp":1,"stimulus":"img/900/equaldotanddens/R/9_Ratio_900_L_18_R_20.png","xmouse":[793,793,793,793,793,793,793,793,793,793,793,793,793,793,793,793,793,793,793,793,793,793,793,793,793,793,793,793,793,793,793,793,793,792,790,788,784,784,784,784,783,772,760,742,721,697,659,643,637,624,597,472,414,376,356,352,352,352,352,353,354,356,356,357,359,363,375,382,385,387,387,389,392,396,403,417,441],"ymouse":[621,621,621,621,621,621,621,621,621,621,621,621,621,621,621,621,621,621,621,621,621,621,621,621,621,621,621,621,621,621,621,621,621,619,616,612,606,605,605,605,604,588,572,548,517,484,428,402,385,359,318,207,167,140,127,124,124,124,119,112,105,92,90,89,86,84,78,74,73,72,72,72,71,68,66,62,57],"timestamp_mouse":[18,38,58,78,98,118,139,158,179,199,219,238,259,278,299,319,338,358,378,398,419,438,458,478,499,518,538,558,579,598,619,638,658,679,699,719,738,759,779,798,818,838,858,879,899,918,938,958,978,999,1018,1038,1058,1078,1098,1118,1139,1158,1178,1198,1218,1238,1258,1279,1298,1319,1338,1359,1378,1399,1418,1438,1458,1479,1498,1518,1538],"xSR":741.5,"ySR":573.95,"xT1":424.9,"yT1":0,"xT2":1058.1,"yT2":0,"toosoon":0,"cond_shown":"equaldotanddens","ratio_trial":900,"smaller_num":"18","larger_num":"20","correct_side":2,"subjID":"mnikisabogal15","gender":"0","age":"9","school":"4"},{"start_time":1552055124112,"click_time":1552055125644,"finger_time":1552055124745,"fix_duration":1127.649270741163,"trial":65,"RT":633,"MT":899,"sideResp":2,"stimulus":"img/250/randomdotsizeEA/R/12_Ratio_250_L_5_R_20.png","xmouse":[819,819,819,819,819,819,819,819,819,819,819,819,819,819,819,819,819,819,819,819,819,819,819,819,819,819,819,819,819,818,816,816,816,820,825,839,857,870,879,895,900,906,913,934,947,962,975,986,997,1022,1029,1036,1042,1050,1051,1052,1052,1052,1052,1052,1052,1052,1050,1037,1030,1026,1022,1022,1022,1022,1022,1022,1022,1027,1035,1047,1059],"ymouse":[615,615,615,615,615,615,615,615,615,615,615,615,615,615,615,615,615,615,615,615,615,615,615,615,615,615,615,615,615,599,576,551,507,404,357,306,265,239,223,204,198,192,184,165,153,140,127,114,102,65,52,39,29,16,14,12,12,12,12,12,12,15,36,89,129,140