[{"start_time":1552313095731,"click_time":1552313097601,"finger_time":1552313097059,"fix_duration":687.5226299181099,"trial":0,"RT":1328,"MT":542,"sideResp":2,"stimulus":[],"xmouse":[778,778,778,778,778,778,778,778,778,778,778,778,778,778,778,778,778,778,778,778,778,778,778,778,778,778,778,778,778,778,778,778,778,778,778,778,778,778,778,778,778,778,778,778,778,778,778,778,778,778,778,778,778,778,778,778,778,778,778,778,779,783,786,792,812,838,879,919,950,981,1015,1029,1039,1046,1052,1055,1055,1055,1056,1058,1058,1058,1058,1062,1065,1067,1071,1078,1084,1091,1096,1103,1106,1108],"ymouse":[511,511,511,511,511,511,511,511,511,511,511,511,511,511,511,511,511,511,511,511,511,511,511,511,511,511,511,511,511,511,511,511,511,511,511,511,511,511,511,511,511,511,511,511,511,511,511,511,511,511,511,511,511,511,511,511,511,511,511,511,511,510,509,505,494,479,451,429,411,390,360,350,341,328,312,288,279,277,261,246,201,175,160,151,147,145,141,135,129,121,112,104,101,99],"timestamp_mouse":[10,42,48,67,89,107,128,149,169,189,208,228,249,269,288,308,329,348,368,389,409,429,449,467,488,509,529,548,567,587,608,628,649,669,689,708,728,749,768,789,808,829,847,868,887,909,929,948,968,988,1008,1027,1048,1069,1088,1107,1128,1148,1167,1189,1208,1228,1249,1268,1288,1308,1328,1348,1369,1388,1409,1427,1449,1467,1487,1509,1528,1548,1569,1588,1609,1627,1649,1668,1689,1708,1728,1749,1768,1787,1809,1827,1849,1869],"xSR":741.5,"ySR":469.95,"xT1":424.9,"yT1":0,"xT2":1058.1,"yT2":0,"toosoon":0,"cond_shown":"Incongruent","ratio_trial":100,"L_num":3,"L_den":5,"R_num":8,"R_den":16,"correct_side":1,"subjID":"nataliasofiasanchez32","gender":"1","age":"9","school":"4","test":{"fix_dur":[250,1500],"timestim":1000,"targets_dim":[100,100],"targets_relative_coord":[0.3,0.7],"size_stim":[880,420],"start_dim":[100,100],"size_start":[300,300],"size_fix":60,"samplingrate":20,"img_types":["Congruent","Incongruent"],"ratios":[100,200,300],"rep_conds":19,"nTrials":120,"trials_to_rest":500,"Trials_order":[109,99,75,102,79,89,48,5,57,82,9,70,86,112,58,31,76,42,41,28,17,35,44,72,81,1,97,19,111,13,38,107,8,49,36,69,114,62,52,56,90,85,23,117,64,47,40,15,80,39,16,33,51,88,21,37,46,84,93,12,67,113,6,101,30,32,73,27,106,118,0,95,83,3,91,2,119,24,110,105,18,43,14,4,92,104,100,55,65,26,61,63,115,22,96,53,10,98,94,20,34,66,68,25,11,59,77,50,103,54,87,29,116,108,78,74,60,7,71,45],"cond_shown":["Incongruent","Incongruent","Incongruent","Congruent","Incongruent","Incongruent","Congruent","Incongruent","Incongruent","Congruent","Incongruent","Congruent","Congruent","Congruent","Congruent","Incongruent","Congruent","Congruent","Incongruent","Congruent","Incongruent","Incongruent","Congruent","Congruent","Incongruent","Incongruent","Incongruent","Incongruent","Incongruent","Incongruent","Congruent","Incongruent","Congruent","Incongruent","Congruent","Incongruent","Congruent","Congruent","Congruent","Congruent","Congruent","Incongruent","Incongruent","Incongruent","Congruent","Incongruent","Congruent","Incongruent","Congruent","Incongruent","Congruent","Incongruent","Incongruent","Congruent","Incongruent","Incongruent","Congruent","Congruent","Incongruent","Congruent","Incongruent","Incongruent","Congruent","Incongruent","Congruent","Congruent","Incongruent","Incongruent","Congruent","Congruent","Congruent","Incongruent","Incongruent","Incongruent","Incongruent","Congruent","Incongruent","Congruent","Congruent","Incongruent","Congruent","Incongruent","Congruent","Congruent","Congruent","Congruent","Congruent","Incongruent","Incongruent","Congruent","Incongruent","Incongruent","Incongruent","Congruent","Congruent","Incongruent","Congruent","Congruent","Congruent","Congruent","Congruent","Congruent","Congruent","Incongruent","Incongruent","Incongruent","Incongruent","Congruent","Incongruent","Congruent","Incongruent","Incongruent","Congruent","Congruent","Congruent","Congruent","Congruent","Incongruent","Incongruent","Incongruent"],"ratio_trial":[100,200,200,100,100,300,100,300,200,300,200,300,200,300,300,100,300,100,300,300,300,300,200,100,200,100,100,100,200,100,200,300,200,100,100,200,100,200,300,200,100,100,300,200,300,300,300,200,200,200,300,200,200,300,200,100,300,100,200,100,100,300,100,300,100,200,100,200,300,300,100,300,300,200,100,200,300,100,200,200,100,100,200,300,200,200,300,100,300,200,100,200,100,300,100,300,300,200,300,200,300,100,200,100,300,300,300,200,100,100,200,300,200,100,100,200,100,100,300,200],"left_num":[3,6,9,4,2,2,6,13,7,4,6,3,9,11,8,10,11,12,1,20,13,13,6,15,7,12,6,13,9,6,16,13,15,9,11,3,6,3,20,9,11,6,4,7,20,13,5,14,12,14,1,4,6,1,1,17,2,4,1,4,8,4,2,8,11,20,13,3,5,11,8,13,4,11,13,6,4,4,14,3,2,1,4,4,5,20,5,13,4,5,10,7,10,20,1,8,20,16,3,16,4,1,11,13,7,4,13,6,4,1,7,4,7,11,6,3,6,13,7,14],"right_num":[8,3,8,6,8,6,15,12,14,1,3,2,4,4,10,9,4,13,2,13,12,12,11,13,14,2,3,12,8,3,12,12,4,14,4,11,5,11,8,13,6,11,2,8,13,12,6,12,6,12,3,6,3,19,3,10,12,15,2,15,6,2,11,9,6,9,12,11,7,2,2,12,2,3,12,11,6,15,6,1,11,8,3,2,14,9,6,6,6,14,9,8,8,9,18,9,14,12,4,9,13,18,3,12,8,6,12,11,8,3,8,2,18,4,5,9,5,12,8,6],"left_den":[5,20,15,8,4,4,12,26,10,10,20,6,20,22,15,25,22,30,2,25,26,26,20,25,10,30,12,26,15,12,20,26,25,15,22,4,20,10,25,30,22,10,20,10,25,26,25,30,20,30,5,5,20,3,2,30,10,10,3,10,16,20,5,10,22,25,26,4,25,22,16,26,20,20,26,20,5,10,28,10,5,2,8,5,10,25,25,26,5,10,25,10,25,25,2,10,25,20,6,30,20,2,22,26,10,5,26,20,8,2,10,20,15,22,20,12,20,26,10,30],"right_den":[16,6,10,10,20,30,25,15,28,10,6,10,16,20,12,18,20,26,10,26,15,15,22,26,28,4,5,20,10,5,20,15,10,28,10,20,25,22,16,26,15,22,4,16,26,15,12,18,15,18,6,10,6,30,10,15,24,30,15,30,10,4,22,18,15,15,20,20,14,10,5,15,4,4,20,22,12,30,20,2,22,20,10,4,20,15,12,10,12,20,18,16,16,18,30,18,28,20,5,27,26,30,10,20,20,12,15,22,20,5,16,4,27,10,25,20,25,20,20,9],"correct_side":[1,2,2,2,1,1,2,2,1,1,2,1,1,1,2,2,1,2,1,1,2,2,2,1,1,2,2,2,2,2,1,2,1,1,1,1,1,2,1,2,1,1,2,1,1,2,2,2,1,2,2,1,2,2,1,2,2,2,1,2,2,2,2,1,1,1,2,1,2,1,1,2,2,2,2,2,1,2,1,2,2,1,1,1,2,1,2,2,1,2,2,1,2,1,2,1,1,1,2,1,2,2,1,2,1,1,2,2,1,2,1,2,2,1,1,2,1,2,1,2],"img_shown":["img2/100/Incongruent/L/I_Dist_100_LN_3_LD_5_RN_8_RD_16_0.png","img2/200/Incongruent/R/I_Dist_200_LN_6_LD_20_RN_3_RD_6_1.png","img2/200/Incongruent/R/I_Dist_200_LN_9_LD_15_RN_8_RD_10_1.png","img2/100/Congruent/R/C_Dist_100_LN_4_LD_8_RN_6_RD_10_1.png","img2/100/Incongruent/L/I_Dist_100_LN_2_LD_4_RN_8_RD_20_0.png","img2/300/Incongruent/L/I_Dist_300_LN_2_LD_4_RN_6_RD_30_0.png","img2/100/Congruent/R/C_Dist_100_LN_6_LD_12_RN_15_RD_25_1.png","img2/300/Incongruent/R/I_Dist_300_LN_13_LD_26_RN_12_RD_15_1.png","img2/200/Incongruent/L/I_Dist_200_LN_7_LD_10_RN_14_RD_28_0.png","img2/300/Congruent/L/C_Dist_300_LN_4_LD_10_RN_1_RD_10_0.png","img2/200/Incongruent/R/I_Dist_200_LN_6_LD_20_RN_3_RD_6_1.png","img2/300/Congruent/L/C_Dist_300_LN_3_LD_6_RN_2_RD_10_0.png","img2/200/Congruent/L/C_Dist_200_LN_9_LD_20_RN_4_RD_16_0.png","img2/300/Congruent/L/C_Dist_300_LN_11_LD_22_RN_4_RD_20_0.png","img2/300/Congruent/R/C_Dist_300_LN_8_LD_15_RN_10_RD_12_1.png","img2/100/Incongruent/R/I_Dist_100_LN_10_LD_25_RN_9_RD_18_1.png","img2/300/Congruent/L/C_Dist_300_LN_11_LD_22_RN_4_RD_20_0.png","img2/100/Congruent/R/C_Dist_100_LN_12_LD_30_RN_13_RD_26_1.png","img2/300/Incongruent/L/I_Dist_300_LN_1_LD_2_RN_2_RD_10_0.png","img2/300/Congruent/L/C_Dist_300_LN_20_LD_25_RN_13_RD_26_0.png","img2/300/Incongruent/R/I_Dist_300_LN_13_LD_26_RN_12_RD_15_1.png","img2/300/Incongruent/R/I_Dist_300_LN_13_LD_26_RN_12_RD_15_1.png","img2/200/Congruent/R/C_Dist_200_LN_6_LD_20_RN_11_RD_22_1.png","img2/100/Congruent/L/C_Dist_100_LN_15_LD_25_RN_13_RD_26_0.png","img2/200/Incongruent/L/I_Dist_200_LN_7_LD_10_RN_14_RD_28_0.png","img2/100/Incongruent/R/I_Dist_100_LN_12_LD_30_RN_2_RD_4_1.png","img2/100/Incongruent/R/I_Dist_100_LN_6_LD_12_RN_3_RD_5_1.png","img2/100/Incongruent/R/I_Dist_100_LN_13_LD_26_RN_12_RD_20_1.png","img2/200/Incongruent/R/I_Dist_200_LN_9_LD_15_RN_8_RD_10_1.png","img2/100/Incongruent/R/I_Dist_100_LN_6_LD_12_RN_3_RD_5_1.png","img2/200/Congruent/L/C_Dist_200_LN_16_LD_20_RN_12_RD_20_0.png","img2/300/Incongruent/R/I_Dist_300_LN_13_LD_26_RN_12_RD_15_1.png","img2/200/Congruent/L/C_Dist_200_LN_15_LD_25_RN_4_RD_10_0.png","img2/100/Incongruent/L/I_Dist_100_LN_9_LD_15_RN_14_RD_28_0.png","img2/100/Congruent/L/C_Dist_100_LN_11_LD_22_RN_4_RD_10_0.png","img2/200/Incongruent/L/I_Dist_200_LN_3_LD_4_RN_11_RD_20_0.png","img2/100/Congruent/L/C_Dist_100_LN_6_LD_20_RN_5_RD_25_0.png","img2/200/Congruent/R/C_Dist_200_LN_3_LD_10_RN_11_RD_22_1.png","img2/300/Congruent/L/C_Dist_300_LN_20_LD_25_RN_8_RD_16_0.png","img2/200/Congruent/R/C_Dist_200_LN_9_LD_30_RN_13_RD_26_1.png","img2/100/Congruent/L/C_Dist_100_LN_11_LD_22_RN_6_RD_15_0.png","img2/100/Incongruent/L/I_Dist_100_LN_6_LD_10_RN_11_RD_22_0.png","img2/300/Incongruent/R/I_Dist_300_LN_4_LD_20_RN_2_RD_4_1.png","img2/200/Incongruent/L/I_Dist_200_LN_7_LD_10_RN_8_RD_16_0.png","img2/300/Congruent/L/C_Dist_300_LN_20_LD_25_RN_13_RD_26_0.png","img2/300/Incongruent/R/I_Dist_300_LN_13_LD_26_RN_12_RD_15_1.png","img2/300/Congruent/R/C_Dist_300_LN_5_LD_25_RN_6_RD_12_1.png","img2/200/Incongruent/R/I_Dist_200_LN_14_LD_30_RN_12_RD_18_1.png","img2/200/Congruent/L/C_Dist_200_LN_12_LD_20_RN_6_RD_15_0.png","img2/200/Incongruent/R/I_Dist_200_LN_14_LD_30_RN_12_RD_18_1.png","img2/300/Congruent/R/C_Dist_300_LN_1_LD_5_RN_3_RD_6_1.png","img2/200/Incongruent/L/I_Dist_200_LN_4_LD_5_RN_6_RD_10_0.png","img2/200/Incongruent/R/I_Dist_200_LN_6_LD_20_RN_3_RD_6_1.png","img2/300/Congruent/R/C_Dist_300_LN_1_LD_3_RN_19_RD_30_1.png","img2/200/Incongruent/L/I_Dist_200_LN_1_LD_2_RN_3_RD_10_0.png","img2/100/Incongruent/R/I_Dist_100_LN_17_LD_30_RN_10_RD_15_1.png","img2/300/Congruent/R/C_Dist_300_LN_2_LD_10_RN_12_RD_24_1.png","img2/100/Congruent/R/C_Dist_100_LN_4_LD_10_RN_15_RD_30_1.png","img2/200/Incongruent/L/I_Dist_200_LN_1_LD_3_RN_2_RD_15_0.png","img2/100/Congruent/R/C_Dist_100_LN_4_LD_10_RN_15_RD_30_1.png","img2/100/Incongruent/R/I_Dist_100_LN_8_LD_16_RN_6_RD_10_1.png","img2/300/Incongruent/R/I_Dist_300_LN_4_LD_20_RN_2_RD_4_1.png","img2/100/Congruent/R/C_Dist_100_LN_2_LD_5_RN_11_RD_22_1.png","img2/300/Incongruent/L/I_Dist_300_LN_8_LD_10_RN_9_RD_18_0.png","img2/100/Congruent/L/C_Dist_100_LN_11_LD_22_RN_6_RD_15_0.png","img2/200/Congruent/L/C_Dist_200_LN_20_LD_25_RN_9_RD_15_0.png","img2/100/Incongruent/R/I_Dist_100_LN_13_LD_26_RN_12_RD_20_1.png","img2/200/Incongruent/L/I_Dist_200_LN_3_LD_4_RN_11_RD_20_0.png","img2/300/Congruent/R/C_Dist_300_LN_5_LD_25_RN_7_RD_14_1.png","img2/300/Congruent/L/C_Dist_300_LN_11_LD_22_RN_2_RD_10_0.png","img2/100/Congruent/L/C_Dist_100_LN_8_LD_16_RN_2_RD_5_0.png","img2/300/Incongruent/R/I_Dist_300_LN_13_LD_26_RN_12_RD_15_1.png","img2/300/Incongruent/R/I_Dist_300_LN_4_LD_20_RN_2_RD_4_1.png","img2/200/Incongruent/R/I_Dist_200_LN_11_LD_20_RN_3_RD_4_1.png","img2/100/Incongruent/R/I_Dist_100_LN_13_LD_26_RN_12_RD_20_1.png","img2/200/Congruent/R/C_Dist_200_LN_6_LD_20_RN_11_RD_22_1.png","img2/300/Incongruent/L/I_Dist_300_LN_4_LD_5_RN_6_RD_12_0.png","img2/100/Congruent/R/C_Dist_100_LN_4_LD_10_RN_15_RD_30_1.png","img2/200/Congruent/L/C_Dist_200_LN_14_LD_28_RN_6_RD_20_0.png","img2/200/Incongruent/R/I_Dist_200_LN_3_LD_10_RN_1_RD_2_1.png","img2/100/Congruent/R/C_Dist_100_LN_2_LD_5_RN_11_RD_22_1.png","img2/100/Incongruent/L/I_Dist_100_LN_1_LD_2_RN_8_RD_20_0.png","img2/200/Congruent/L/C_Dist_200_LN_4_LD_8_RN_3_RD_10_0.png","img2/300/Congruent/L/C_Dist_300_LN_4_LD_5_RN_2_RD_4_0.png","img2/200/Congruent/R/C_Dist_200_LN_5_LD_10_RN_14_RD_20_1.png","img2/200/Congruent/L/C_Dist_200_LN_20_LD_25_RN_9_RD_15_0.png","img2/300/Congruent/R/C_Dist_300_LN_5_LD_25_RN_6_RD_12_1.png","img2/100/Incongruent/R/I_Dist_100_LN_13_LD_26_RN_6_RD_10_1.png","img2/300/Incongruent/L/I_Dist_300_LN_4_LD_5_RN_6_RD_12_0.png","img2/200/Congruent/R/C_Dist_200_LN_5_LD_10_RN_14_RD_20_1.png","img2/100/Incongruent/R/I_Dist_100_LN_10_LD_25_RN_9_RD_18_1.png","img2/200/Incongruent/L/I_Dist_200_LN_7_LD_10_RN_8_RD_16_0.png","img2/100/Incongruent/R/I_Dist_100_LN_10_LD_25_RN_8_RD_16_1.png","img2/300/Congruent/L/C_Dist_300_LN_20_LD_25_RN_9_RD_18_0.png","img2/100/Congruent/R/C_Dist_100_LN_1_LD_2_RN_18_RD_30_1.png","img2/300/Incongruent/L/I_Dist_300_LN_8_LD_10_RN_9_RD_18_0.png","img2/300/Congruent/L/C_Dist_300_LN_20_LD_25_RN_14_RD_28_0.png","img2/200/Congruent/L/C_Dist_200_LN_16_LD_20_RN_12_RD_20_0.png","img2/300/Congruent/R/C_Dist_300_LN_3_LD_6_RN_4_RD_5_1.png","img2/200/Congruent/L/C_Dist_200_LN_16_LD_30_RN_9_RD_27_0.png","img2/300/Congruent/R/C_Dist_300_LN_4_LD_20_RN_13_RD_26_1.png","img2/100/Congruent/R/C_Dist_100_LN_1_LD_2_RN_18_RD_30_1.png","img2/200/Congruent/L/C_Dist_200_LN_11_LD_22_RN_3_RD_10_0.png","img2/100/Incongruent/R/I_Dist_100_LN_13_LD_26_RN_12_RD_20_1.png","img2/300/Incongruent/L/I_Dist_300_LN_7_LD_10_RN_8_RD_20_0.png","img2/300/Incongruent/L/I_Dist_300_LN_4_LD_5_RN_6_RD_12_0.png","img2/300/Incongruent/R/I_Dist_300_LN_13_LD_26_RN_12_RD_15_1.png","img2/200/Congruent/R/C_Dist_200_LN_6_LD_20_RN_11_RD_22_1.png","img2/100/Incongruent/L/I_Dist_100_LN_4_LD_8_RN_8_RD_20_0.png","img2/100/Congruent/R/C_Dist_100_LN_1_LD_2_RN_3_RD_5_1.png","img2/200/Incongruent/L/I_Dist_200_LN_7_LD_10_RN_8_RD_16_0.png","img2/300/Incongruent/R/I_Dist_300_LN_4_LD_20_RN_2_RD_4_1.png","img2/200/Congruent/R/C_Dist_200_LN_7_LD_15_RN_18_RD_27_1.png","img2/100/Congruent/L/C_Dist_100_LN_11_LD_22_RN_4_RD_10_0.png","img2/100/Congruent/L/C_Dist_100_LN_6_LD_20_RN_5_RD_25_0.png","img2/200/Congruent/R/C_Dist_200_LN_3_LD_12_RN_9_RD_20_1.png","img2/100/Congruent/L/C_Dist_100_LN_6_LD_20_RN_5_RD_25_0.png","img2/100/Incongruent/R/I_Dist_100_LN_13_LD_26_RN_12_RD_20_1.png","img2/300/Incongruent/L/I_Dist_300_LN_7_LD_10_RN_8_RD_20_0.png","img2/200/Incongruent/R/I_Dist_200_LN_14_LD_30_RN_6_RD_9_1.png"],"dist100_C":[["C_Dist_100_LN_10_LD_25_RN_3_RD_10_0.png","C_Dist_100_LN_11_LD_22_RN_4_RD_10_0.png","C_Dist_100_LN_11_LD_22_RN_6_RD_15_0.png","C_Dist_100_LN_15_LD_25_RN_13_RD_26_0.png","C_Dist_100_LN_3_LD_6_RN_2_RD_5_0.png","C_Dist_100_LN_6_LD_20_RN_5_RD_25_0.png","C_Dist_100_LN_8_LD_16_RN_2_RD_5_0.png","C_Dist_100_LN_9_LD_15_RN_8_RD_16_0.png"],["C_Dist_100_LN_1_LD_2_RN_18_RD_30_1.png","C_Dist_100_LN_1_LD_2_RN_3_RD_5_1.png","C_Dist_100_LN_12_LD_30_RN_13_RD_26_1.png","C_Dist_100_LN_2_LD_5_RN_11_RD_22_1.png","C_Dist_100_LN_2_LD_5_RN_6_RD_12_1.png","C_Dist_100_LN_3_LD_20_RN_4_RD_16_1.png","C_Dist_100_LN_4_LD_10_RN_15_RD_30_1.png","C_Dist_100_LN_4_LD_8_RN_6_RD_10_1.png","C_Dist_100_LN_6_LD_12_RN_15_RD_25_1.png","C_Dist_100_LN_7_LD_14_RN_15_RD_25_1.png","C_Dist_100_LN_7_LD_14_RN_9_RD_15_1.png"]],"dist100_I":[["I_Dist_100_LN_1_LD_2_RN_8_RD_20_0.png","I_Dist_100_LN_2_LD_4_RN_6_RD_15_0.png","I_Dist_100_LN_2_LD_4_RN_8_RD_20_0.png","I_Dist_100_LN_3_LD_5_RN_11_RD_22_0.png","I_Dist_100_LN_3_LD_5_RN_8_RD_16_0.png","I_Dist_100_LN_3_LD_6_RN_4_RD_10_0.png","I_Dist_100_LN_3_LD_9_RN_7_RD_30_0.png","I_Dist_100_LN_4_LD_8_RN_8_RD_20_0.png","I_Dist_100_LN_6_LD_10_RN_11_RD_22_0.png","I_Dist_100_LN_6_LD_10_RN_13_RD_26_0.png","I_Dist_100_LN_6_LD_10_RN_7_RD_14_0.png","I_Dist_100_LN_9_LD_10_RN_20_RD_25_0.png","I_Dist_100_LN_9_LD_15_RN_13_RD_26_0.png","I_Dist_100_LN_9_LD_15_RN_14_RD_28_0.png"],["I_Dist_100_LN_10_LD_25_RN_8_RD_16_1.png","I_Dist_100_LN_10_LD_25_RN_9_RD_18_1.png","I_Dist_100_LN_11_LD_22_RN_9_RD_15_1.png","I_Dist_100_LN_12_LD_24_RN_9_RD_15_1.png","I_Dist_100_LN_12_LD_30_RN_2_RD_4_1.png","I_Dist_100_LN_13_LD_26_RN_12_RD_20_1.png","I_Dist_100_LN_13_LD_26_RN_6_RD_10_1.png","I_Dist_100_LN_17_LD_30_RN_10_RD_15_1.png","I_Dist_100_LN_6_LD_12_RN_3_RD_5_1.png","I_Dist_100_LN_8_LD_16_RN_6_RD_10_1.png","I_Dist_100_LN_8_LD_20_RN_1_RD_2_1.png","I_Dist_100_LN_9_LD_18_RN_6_RD_10_1.png"]],"dist100_S":[["E_Dist_100_LN_2_LD_12_RN_2_RD_30_0.png","E_Dist_100_LN_6_LD_10_RN_6_RD_12_0.png"],["E_Dist_100_LN_6_LD_12_RN_6_RD_10_1.png"]],"dist200_C":[["C_Dist_200_LN_11_LD_22_RN_3_RD_10_0.png","C_Dist_200_LN_12_LD_15_RN_6_RD_10_0.png","C_Dist_200_LN_12_LD_20_RN_6_RD_15_0.png","C_Dist_200_LN_14_LD_28_RN_6_RD_20_0.png","C_Dist_200_LN_15_LD_25_RN_4_RD_10_0.png","C_Dist_200_LN_16_LD_20_RN_12_RD_20_0.png","C_Dist_200_LN_16_LD_30_RN_9_RD_27_0.png","C_Dist_200_LN_20_LD_25_RN_9_RD_15_0.png","C_Dist_200_LN_21_LD_30_RN_2_RD_4_0.png","C_Dist_200_LN_4_LD_10_RN_3_RD_15_0.png","C_Dist_200_LN_4_LD_8_RN_3_RD_10_0.png","C_Dist_200_LN_6_LD_15_RN_3_RD_15_0.png","C_Dist_200_LN_7_LD_21_RN_2_RD_15_0.png","C_Dist_200_LN_8_LD_15_RN_2_RD_6_0.png","C_Dist_200_LN_8_LD_15_RN_3_RD_9_0.png","C_Dist_200_LN_8_LD_15_RN_7_RD_21_0.png","C_Dist_200_LN_9_LD_20_RN_4_RD_16_0.png"],["C_Dist_200_LN_1_LD_2_RN_21_RD_30_1.png","C_Dist_200_LN_13_LD_26_RN_14_RD_20_1.png","C_Dist_200_LN_3_LD_10_RN_11_RD_22_1.png","C_Dist_200_LN_3_LD_10_RN_14_RD_28_1.png","C_Dist_200_LN_3_LD_10_RN_7_RD_14_1.png","C_Dist_200_LN_3_LD_12_RN_9_RD_20_1.png","C_Dist_200_LN_3_LD_6_RN_14_RD_20_1.png","C_Dist_200_LN_5_LD_10_RN_14_RD_20_1.png","C_Dist_200_LN_6_LD_12_RN_7_RD_10_1.png","C_Dist_200_LN_6_LD_20_RN_11_RD_22_1.png","C_Dist_200_LN_7_LD_15_RN_18_RD_27_1.png","C_Dist_200_LN_9_LD_30_RN_13_RD_26_1.png"]],"dist200_I":[["I_Dist_200_LN_1_LD_2_RN_3_RD_10_0.png","I_Dist_200_LN_1_LD_3_RN_2_RD_15_0.png","I_Dist_200_LN_3_LD_4_RN_11_RD_20_0.png","I_Dist_200_LN_4_LD_5_RN_6_RD_10_0.png","I_Dist_200_LN_4_LD_6_RN_14_RD_30_0.png","I_Dist_200_LN_7_LD_10_RN_12_RD_24_0.png","I_Dist_200_LN_7_LD_10_RN_14_RD_28_0.png","I_Dist_200_LN_7_LD_10_RN_8_RD_16_0.png"],["I_Dist_200_LN_11_LD_20_RN_3_RD_4_1.png","I_Dist_200_LN_14_LD_30_RN_12_RD_18_1.png","I_Dist_200_LN_14_LD_30_RN_6_RD_9_1.png","I_Dist_200_LN_3_LD_10_RN_1_RD_2_1.png","I_Dist_200_LN_4_LD_30_RN_1_RD_3_1.png","I_Dist_200_LN_6_LD_20_RN_3_RD_6_1.png","I_Dist_200_LN_7_LD_15_RN_4_RD_6_1.png","I_Dist_200_LN_7_LD_15_RN_6_RD_9_1.png","I_Dist_200_LN_9_LD_15_RN_8_RD_10_1.png"]],"dist200_S":[["E_Dist_200_LN_3_LD_6_RN_3_RD_10_0.png"],["E_Dist_200_LN_3_LD_10_RN_3_RD_6_1.png"]],"dist300_C":[["C_Dist_300_LN_11_LD_22_RN_1_RD_5_0.png","C_Dist_300_LN_11_LD_22_RN_2_RD_10_0.png","C_Dist_300_LN_11_LD_22_RN_4_RD_20_0.png","C_Dist_300_LN_12_LD_24_RN_2_RD_10_0.png","C_Dist_300_LN_18_LD_20_RN_9_RD_15_0.png","C_Dist_300_LN_20_LD_25_RN_13_RD_26_0.png","C_Dist_300_LN_20_LD_25_RN_14_RD_28_0.png","C_Dist_300_LN_20_LD_25_RN_5_RD_10_0.png","C_Dist_300_LN_20_LD_25_RN_8_RD_16_0.png","C_Dist_300_LN_20_LD_25_RN_9_RD_18_0.png","C_Dist_300_LN_24_LD_30_RN_2_RD_4_0.png","C_Dist_300_LN_24_LD_30_RN_8_RD_16_0.png","C_Dist_300_LN_3_LD_6_RN_2_RD_10_0.png","C_Dist_300_LN_4_LD_10_RN_1_RD_10_0.png","C_Dist_300_LN_4_LD_5_RN_2_RD_4_0.png","C_Dist_300_LN_8_LD_16_RN_1_RD_5_0.png","C_Dist_300_LN_9_LD_10_RN_3_RD_5_0.png"],["C_Dist_300_LN_1_LD_20_RN_7_RD_20_1.png","C_Dist_300_LN_1_LD_3_RN_19_RD_30_1.png","C_Dist_300_LN_1_LD_30_RN_8_RD_24_1.png","C_Dist_300_LN_1_LD_5_RN_11_RD_22_1.png","C_Dist_300_LN_1_LD_5_RN_3_RD_6_1.png","C_Dist_300_LN_1_LD_5_RN_6_RD_12_1.png","C_Dist_300_LN_2_LD_10_RN_12_RD_24_1.png","C_Dist_300_LN_2_LD_20_RN_10_RD_25_1.png","C_Dist_300_LN_3_LD_12_RN_11_RD_20_1.png","C_Dist_300_LN_3_LD_6_RN_4_RD_5_1.png","C_Dist_300_LN_4_LD_20_RN_13_RD_26_1.png","C_Dist_300_LN_5_LD_25_RN_6_RD_12_1.png","C_Dist_300_LN_5_LD_25_RN_7_RD_14_1.png","C_Dist_300_LN_7_LD_14_RN_20_RD_25_1.png","C_Dist_300_LN_8_LD_15_RN_10_RD_12_1.png"]],"dist300_I":[["I_Dist_300_LN_1_LD_2_RN_2_RD_10_0.png","I_Dist_300_LN_1_LD_2_RN_3_RD_15_0.png","I_Dist_300_LN_2_LD_4_RN_6_RD_30_0.png","I_Dist_300_LN_3_LD_6_RN_4_RD_20_0.png","I_Dist_300_LN_4_LD_5_RN_6_RD_12_0.png","I_Dist_300_LN_4_LD_5_RN_8_RD_16_0.png","I_Dist_300_LN_7_LD_10_RN_8_RD_20_0.png","I_Dist_300_LN_8_LD_10_RN_14_RD_28_0.png","I_Dist_300_LN_8_LD_10_RN_9_RD_18_0.png"],["I_Dist_300_LN_13_LD_26_RN_12_RD_15_1.png","I_Dist_300_LN_4_LD_20_RN_2_RD_4_1.png"]],"dist300_S":[["E_Dist_300_LN_9_LD_12_RN_9_RD_20_0.png"],["E_Dist_300_LN_18_LD_30_RN_18_RD_20_1.png","E_Dist_300_LN_3_LD_10_RN_3_RD_5_1.png","E_Dist_300_LN_9_LD_20_RN_9_RD_12_1.png"]],"dist500_C":[["C_Dist_500_LN_10_LD_13_RN_7_RD_26_0.png","C_Dist_500_LN_10_LD_15_RN_4_RD_24_0.png","C_Dist_500_LN_12_LD_16_RN_3_RD_12_0.png","C_Dist_500_LN_12_LD_18_RN_4_RD_24_0.png","C_Dist_500_LN_15_LD_18_RN_5_RD_15_0.png","C_Dist_500_LN_15_LD_20_RN_1_RD_4_0.png","C_Dist_500_LN_18_LD_27_RN_1_RD_6_0.png","C_Dist_500_LN_20_LD_24_RN_1_RD_3_0.png","C_Dist_500_LN_20_LD_24_RN_3_RD_9_0.png","C_Dist_500_LN_20_LD_24_RN_7_RD_21_0.png","C_Dist_500_LN_20_LD_28_RN_3_RD_14_0.png","C_Dist_500_LN_21_LD_28_RN_6_RD_24_0.png","C_Dist_500_LN_22_LD_28_RN_2_RD_7_0.png","C_Dist_500_LN_25_LD_30_RN_9_RD_27_0.png","C_Dist_500_LN_4_LD_6_RN_1_RD_6_0.png","C_Dist_500_LN_5_LD_6_RN_2_RD_6_0.png","C_Dist_500_LN_6_LD_9_RN_1_RD_6_0.png","C_Dist_500_LN_7_LD_10_RN_1_RD_5_0.png","C_Dist_500_LN_8_LD_12_RN_1_RD_6_0.png","C_Dist_500_LN_8_LD_12_RN_4_RD_24_0.png"],["C_Dist_500_LN_1_LD_4_RN_12_RD_16_1.png","C_Dist_500_LN_1_LD_4_RN_9_RD_12_1.png","C_Dist_500_LN_1_LD_9_RN_11_RD_18_1.png","C_Dist_500_LN_10_LD_24_RN_22_RD_24_1.png","C_Dist_500_LN_2_LD_12_RN_10_RD_15_1.png","C_Dist_500_LN_2_LD_12_RN_12_RD_18_1.png","C_Dist_500_LN_2_LD_12_RN_4_RD_6_1.png","C_Dist_500_LN_2_LD_24_RN_7_RD_12_1.png","C_Dist_500_LN_2_LD_5_RN_18_RD_20_1.png","C_Dist_500_LN_2_LD_5_RN_9_RD_10_1.png","C_Dist_500_LN_2_LD_8_RN_12_RD_16_1.png","C_Dist_500_LN_2_LD_8_RN_21_RD_28_1.png","C_Dist_500_LN_3_LD_10_RN_4_RD_5_1.png","C_Dist_500_LN_3_LD_12_RN_15_RD_20_1.png","C_Dist_500_LN_3_LD_30_RN_6_RD_10_1.png","C_Dist_500_LN_3_LD_8_RN_14_RD_16_1.png","C_Dist_500_LN_4_LD_16_RN_15_RD_20_1.png","C_Dist_500_LN_4_LD_24_RN_12_RD_18_1.png","C_Dist_500_LN_5_LD_14_RN_6_RD_7_1.png","C_Dist_500_LN_7_LD_21_RN_20_RD_24_1.png","C_Dist_500_LN_7_LD_28_RN_12_RD_16_1.png","C_Dist_500_LN_7_LD_28_RN_9_RD_12_1.png","C_Dist_500_LN_9_LD_27_RN_20_RD_24_1.png"]],"dist500_I":[["I_Dist_500_LN_2_LD_3_RN_4_RD_24_0.png","I_Dist_500_LN_5_LD_6_RN_6_RD_18_0.png","I_Dist_500_LN_7_LD_8_RN_9_RD_24_0.png"],["I_Dist_500_LN_7_LD_21_RN_5_RD_6_1.png"]],"dist500_S":[["E_Dist_500_LN_6_LD_8_RN_6_RD_24_0.png"],["E_Dist_500_LN_2_LD_12_RN_2_RD_3_1.png","E_Dist_500_LN_6_LD_24_RN_6_RD_8_1.png"]]}},{"start_time":1552313102693,"click_time":1552313105241,"finger_time":1552313104660,"fix_duration":910.4096407145244,"trial":1,"RT":1967,"MT":581,"sideResp":1,"stimulus":[],"xmouse":[811,811,811,811,811,811,811,811,811,811,811,811,811,811,811,811,811,811,811,811,811,811,811,811,811,811,811,811,811,811,811,811,811,811,811,811,811,811,811,811,811,811,811,811,811,811,811,811,811,811,811,811,811,811,811,811,811,811,811,811,811,811,811,811,811,811,811,811,811,811,811,811,811,811,811,811,811,811,811,811,811,811,811,811,811,811,811,811,811,811,811,811,811,811,811,811,811,811,780,747,709,671,632,578,563,557,553,549,549,549,549,549,549,549,547,544,544,543,543,542,541,540,540,537,536,532,527,520],"ymouse":[506,506,506,506,506,506,506,506,506,506,506,506,506,506,506,506,506,506,506,506,506,506,506,506,506,506,506,506,506,506,506,506,506,506,506,506,506,506,506,506,506,506,506,506,506,506,506,506,506,506,506,506,506,506,506,506,506,506,506,506,506,506,506,506,506,506,506,506,506,506,506,506,506,506,506,506,506,506,506,506,506,506,506,506,506,506,506,506,506,506,506,506,506,506,506,506,506,503,447,395,341,281,229,145,117,98,86,74,69,69,69,68,66,61,59,58,58,58,58,58,58,58,58,58,58,58,58,58],"timestamp_mouse":[14,37,47,67,87,106,125,147,166,187,207,226,246,266,287,306,325,345,366,387,407,427,445,466,487,506,526,545,566,587,607,626,647,666,686,707,726,747,766,785,805,826,847,866,885,905,926,946,966,987,1006,1027,1047,1066,1085,1106,1127,1146,1166,1187,1205,1225,1246,1266,1285,1307,1327,1347,1366,1386,1406,1426,1447,1466,1487,1507,1527,1547,1565,1587,1607,1627,1646,1666,1686,1706,1727,1747,1766,1786,1807,1827,1847,1865,1887,1907,1925,1946,1967,1986,2006,2027,2046,2067,2086,2106,2127,2146,2167,2186,2206,2227,2246,2267,2286,2306,2326,2346,2367,2386,2406,2426,2445,2467,2486,2506,2527,2547],"xSR":741.5,"ySR":469.95,"xT1":424.9,"yT1":0,"xT2":1058.1,"yT2":0,"toosoon":0,"cond_shown":"Incongruent","ratio_trial":200,"L_num":6,"L_den":20,"R_num":3,"R_den":6,"correct_side":2,"subjID":"nataliasofiasanchez32","gender":"1","school":"4","age":"9"},{"start_time":1552313111530,"click_time":1552313113660,"finger_time":1552313112980,"fix_duration":770.8558610578558,"trial":2,"RT":1450,"MT":680,"sideResp":1,"stimulus":[],"xmouse":[786,785,783,783,783,783,783,783,783,783,783,783,783,783,782,782,782,782,782,782,782,782,782,782,782,782,782,782,782,782,782,782,782,782,782,782,782,782,782,782,782,782,782,782,782,782,782,782,782,782,782,782,782,782,782,782,782,782,782,782,782,782,782,782,782,782,783,783,785,786,799,810,836,853,868,880,886,890,892,892,891,883,872,845,831,818,805,773,749,725,690,666,633,621,618,614,611,609,605,601,596,591,575,561,546,533,521],"ymouse":[537,537,538,538,538,538,538,538,538,538,538,538,538,538,538,538,538,538,538,538,538,538,538,538,538,538,538,538,538,538,538,538,538,538,538,538,538,538,538,538,538,538,538,538,538,538,538,538,538,538,538,538,538,538,538,538,538,538,538,538,538,538,538,538,538,538,538,536,535,532,512,492,449,424,403,383,365,349,319,303,289,265,248,211,193,179,164,134,123,114,104,99,87,81,79,78,78,78,78,78,78,78,77,73,70,67,66],"timestamp_mouse":[13,36,49,68,88,109,130,149,169,188,209,230,249,269,288,310,329,349,370,389,410,429,449,469,488,509,528,549,570,590,610,629,649,669,688,709,730,749,768,788,809,829,849,869,889,910,929,949,968,989,1010,1030,1049,1069,1090,1109,1130,1149,1170,1189,1210,1230,1250,1270,1290,1309,1328,1350,1369,1389,1409,1429,1450,1469,1489,1510,1530,1550,1568,1589,1609,1629,1650,1668,1689,1710,1729,1751,1769,1789,1809,1830,1850,1868,1889,1908,1929,1949,1969,1989,2010,2028,2050,2068,2089,2110,2129],"xSR":741.5,"ySR":469.95,"xT1":424.9,"yT1":0,"xT2":1058.1,"yT2":0,"toosoon":0,"cond_shown":"Incongruent","ratio_trial":200,"L_num":9,"L_den":15,"R_num":8,"R_den":10,"correct_side":2,"subjID":"nataliasofiasanchez32","gender":"1","school":"4","age":"9"},{"start_time":1552313116832,"click_time":1552313118659,"finger_time":1552313118299,"fix_duration":250,"trial":3,"RT":1467,"MT":360,"sideResp":2,"stimulus":[],"xmouse":[782,782,782,782,782,782,782,782,782,782,782,782,782,782,782,782,782,782,782,782,782,782,782,782,782,782,782,782,782,782,782,782,782,782,782,782,782,782,782,782,782,782,782,782,782,782,782,782,782,782,782,782,782,782,782,782,782,782,782,782,782,782,782,782,782,782,782,782,783,786,788,795,817,907,930,948,966,981,1001,1007,1012,1015,1022,1027,1030,1034,1039,1044,1064,1076,1087,1096],"ymouse":[524,524,524,524,524,524,524,524,524,524,524,524,524,524,524,524,524,524,524,524,524,524,524,524,524,524,524,524,524,524,524,524,524,524,524,524,524,524,524,524,524,524,524,524,524,524,524,524,524,524,524,524,524,524,524,524,524,524,524,524,524,524,524,524,524,524,524,524,524,524,523,519,511,484,475,465,452,437,395,372,350,328,298,265,247,232,214,195,153,132,114,99],"timestamp_mouse":[12,35,48,67,86,107,127,148,168,187,207,226,246,268,287,307,327,347,368,388,407,427,448,468,487,508,527,546,567,588,608,627,647,667,688,707,728,747,767,787,806,827,847,868,887,907,927,947,966,987,1007,1028,1047,1068,1086,1108,1128,1147,1168,1188,1207,1228,1247,1268,1287,1307,1328,1347,1366,1387,1408,1427,1448,1467,1487,1508,1528,1548,1567,1587,1607,1627,1647,1667,1687,1706,1727,1746,1767,1787,1807,1827],"xSR":741.5,"ySR":469.95,"xT1":424.9,"yT1":0,"xT2":1058.1,"yT2":0,"toosoon":0,"cond_shown":"Congruent","ratio_trial":100,"L_num":4,"L_den":8,"R_num":6,"R_den":10,"correct_side":2,"subjID":"nataliasofiasanchez32","gender":"1","school":"4","age":"9"},{"start_time":1552313125247,"click_time":1552313126579,"finger_time":1552313126160,"fix_duration":1427.9490482657395,"trial":4,"RT":913,"MT":419,"sideResp":2,"stimulus":[],"xmouse":[772,772,772,772,772,772,772,772,772,772,772,772,772,772,772,772,772,772,772,772,772,772,772,772,772,772,772,772,772,772,772,772,772,772,772,772,772,772,772,772,772,774,776,787,799,823,854,890,961,971,971,971,971,971,971,971,971,971,971,971,971,971,971,971,971,971,1068],"ymouse":[554,554,554,554,554,554,554,554,554,554,554,554,554,554,554,554,554,554,554,554,554,554,554,554,554,554,554,554,554,554,554,554,554,554,554,554,554,554,554,554,553,550,543,520,502,465,407,318,70,34,34,34,34,34,34,34,34,34,34,34,34,34,34,34,34,34,17],"timestamp_mouse":[12,45,53,72,93,112,132,151,173,193,212,231,252,272,291,313,332,352,372,392,412,432,451,473,491,513,531,552,573,591,613,632,653,673,691,711,733,751,773,792,811,832,852,871,891,913,933,953,972,991,1011,1031,1052,1071,1092,1112,1132,1152,1172,1192,1212,1233,1253,1272,1293,1312,1332],"xSR":741.5,"ySR":469.95,"xT1":424.9,"yT1":0,"xT2":1058.1,"yT2":0,"toosoon":0,"cond_shown":"Incongruent","ratio_trial":100,"L_num":2,"L_den":4,"R_num":8,"R_den":20,"correct_side":1,"subjID":"nataliasofiasanchez32","gender":"1","school":"4","age":"9"},{"start_time":1552313130982,"click_time":1552313132919,"finger_time":1552313132320,"fix_duration":321.66550405645654,"trial":5,"RT":1338,"MT":599,"sideResp":1,"stimulus":[],"xmouse":[806,806,806,806,806,806,806,806,806,806,806,806,806,806,806,806,806,806,806,806,806,806,806,806,806,806,806,806,806,806,806,806,806,806,806,806,806,806,806,806,806,806,806,806,806,806,806,806,806,806,806,806,806,806,806,806,806,806,806,806,806,806,806,803,801,791,775,762,758,744,736,726,711,704,696,685,673,637,612,590,572,537,524,515,512,512,512,512,512,512,512,512,512,512,512,512,509],"ymouse":[512,512,512,512,512,512,512,512,512,512,512,512,512,512,512,512,512,512,512,512,512,512,512,512,512,512,512,512,512,512,512,512,512,512,512,512,512,512,512,512,512,512,512,512,512,512,512,512,512,512,512,512,512,512,512,512,512,512,512,512,512,512,512,510,507,493,464,440,434,410,391,372,328,312,295,279,262,216,188,166,147,118,111,107,107,107,107,107,107,107,107,107,107,106,106,101,96],"timestamp_mouse":[18,41,58,77,96,118,136,158,177,196,218,238,258,278,298,316,338,357,378,396,418,438,458,477,498,518,538,557,578,598,617,637,657,678,696,718,736,757,778,796,817,837,856,876,898,916,937,957,976,998,1016,1038,1057,1077,1098,1116,1138,1158,1178,1198,1217,1236,1257,1278,1298,1317,1338,1357,1378,1397,1417,1437,1457,1478,1497,1517,1537,1557,1578,1596,1617,1638,1656,1678,1696,1717,1738,1757,1777,1797,1817,1838,1857,1877,1897,1918,1937],"xSR":741.5,"ySR":469.95,"xT1":424.9,"yT1":0,"xT2":1058.1,"yT2":0,"toosoon":0,"cond_shown":"Incongruent","ratio_trial":300,"L_num":2,"L_den":4,"R_num":6,"R_den":30,"correct_side":1,"subjID":"nataliasofiasanchez32","gender":"1","school":"4","age":"9"},{"start_time":1552313139144,"click_time":1552313140842,"finger_time":1552313140260,"fix_duration":1120.4379747323248,"trial":6,"RT":1116,"MT":582,"sideResp":2,"stimulus":[],"xmouse":[784,784,784,784,784,784,784,784,784,784,784,784,784,784,784,784,784,784,784,784,784,784,784,784,784,784,784,784,784,784,784,784,784,784,784,784,784,784,784,784,784,784,784,784,784,784,784,784,784,784,784,784,784,787,802,864,876,882,883,884,885,886,889,891,895,897,901,903,905,908,911,913,916,920,923,934,940,950,960,974,1016,1035,1048,1059,1072],"ymouse":[503,503,503,503,503,503,503,503,503,503,503,503,503,503,503,503,503,503,503,503,503,503,503,503,503,503,503,503,503,503,503,503,503,503,503,503,503,503,503,503,503,503,503,503,503,503,503,503,503,503,503,503,503,500,482,396,380,371,369,367,364,363,359,356,330,323,315,308,300,289,283,274,263,250,237,207,190,169,158,145,123,114,109,104,98],"timestamp_mouse":[16,42,57,77,96,116,137,156,176,196,216,237,255,275,297,316,337,357,375,397,417,436,456,477,496,515,537,557,577,596,616,637,656,676,696,716,737,757,776,797,817,836,856,876,897,917,936,957,976,997,1016,1036,1056,1076,1096,1116,1137,1156,1176,1196,1217,1237,1255,1276,1297,1315,1336,1355,1376,1397,1416,1437,1456,1476,1495,1515,1536,1557,1576,1597,1617,1636,1655,1676,1697],"xSR":741.5,"ySR":469.95,"xT1":424.9,"yT1":0,"xT2":1058.1,"yT2":0,"toosoon":0,"cond_shown":"Congruent","ratio_trial":100,"L_num":6,"L_den":12,"R_num":15,"R_den":25,"correct_side":2,"subjID":"nataliasofiasanchez32","gender":"1","school":"4","age":"9"},{"start_time":1552313143484,"click_time":1552313145481,"finger_time":1552313144960,"fix_duration":662.9229853843638,"trial":7,"RT":1476,"MT":521,"sideResp":2,"stimulus":[],"xmouse":[816,816,816,816,817,818,819,820,820,820,820,820,820,820,820,820,820,820,820,820,820,820,820,821,821,821,821,821,821,821,821,821,821,821,821,821,821,821,821,821,821,821,821,821,821,821,821,821,821,821,821,821,821,821,821,821,821,821,821,821,821,821,821,821,821,821,821,821,821,821,821,821,828,846,865,892,927,988,1055,1083,1111,1134,1148,1170,1178,1183,1188,1188,1188,1188,1187,1184,1178,1167,1161,1157,1155,1154,1153,1152],"ymouse":[500,500,500,500,498,496,492,489,485,484,482,481,479,477,477,477,477,477,477,477,477,477,477,475,474,474,474,474,474,474,474,474,474,474,474,474,474,474,474,474,474,474,474,474,474,474,474,474,474,474,474,474,474,474,474,474,474,474,474,474,474,474,474,474,474,474,474,474,474,474,474,474,470,465,460,447,428,382,333,315,292,272,253,216,195,174,144,126,110,110,110,110,110,110,109,108,108,107,107,98],"timestamp_mouse":[16,40,56,76,97,116,136,156,176,195,217,237,256,277,297,316,337,356,377,396,416,436,456,476,496,517,536,556,576,597,616,636,656,677,696,716,737,756,776,796,816,837,856,877,896,917,937,956,977,995,1015,1036,1056,1076,1095,1117,1136,1156,1176,1196,1217,1235,1257,1276,1296,1317,1336,1355,1376,1396,1417,1437,1456,1476,1497,1516,1536,1556,1576,1597,1616,1636,1656,1676,1696,1716,1736,1755,1776,1796,1816,1836,1856,1877,1896,1915,1936,1957,1976,1997],"xSR":741.5,"ySR":469.95,"xT1":424.9,"yT1":0,"xT2":1058.1,"yT2":0,"toosoon":0,"cond_shown":"Incongruent","ratio_trial":300,"L_num":13,"L_den":26,"R_num":12,"R_den":15,"correct_side":2,"subjID":"nataliasofiasanchez32","gender":"1","school":"4","age":"9"},{"start_time":1552313156033,"click_time":1552313158000,"finger_time":1552313157521,"fix_duration":609.3874776110231,"trial":8,"RT":1488,"MT":479,"sideResp":2,"stimulus":[],"xmouse":[788,788,788,788,788,788,788,788,788,788,788,788,788,788,788,788,788,788,788,788,788,788,788,788,788,788,788,788,788,788,788,788,788,788,788,788,788,788,788,788,788,788,788,788,788,788,788,788,788,788,788,788,788,788,788,788,788,788,788,788,788,788,788,788,788,788,790,793,796,797,797,801,823,833,840,845,847,850,859,868,876,888,928,961,989,1049,1087,1132,1141,1149,1153,1155,1158,1161,1163,1164,1164,1162,1157],"ymouse":[521,521,521,521,521,521,521,521,521,521,521,521,521,521,521,521,521,521,521,521,521,521,521,521,521,521,521,521,521,521,521,521,521,521,521,521,521,521,521,521,521,521,521,521,521,521,521,521,521,521,521,521,521,521,521,521,521,521,521,521,521,521,521,521,521,521,519,516,513,513,512,510,491,479,467,453,446,439,423,410,398,381,337,307,281,230,195,145,134,126,122,118,113,108,103,100,100,95,89],"timestamp_mouse":[14,34,47,67,87,107,128,147,167,188,208,227,247,267,288,307,327,347,367,387,408,428,447,467,488,507,528,547,568,586,608,628,647,667,687,708,727,747,768,787,807,828,847,867,888,908,928,947,968,988,1007,1028,1048,1068,1087,1108,1126,1148,1167,1188,1207,1227,1247,1267,1287,1307,1328,1347,1368,1386,1407,1427,1448,1467,1488,1508,1527,1547,1567,1587,1607,1627,1649,1666,1687,1707,1728,1748,1766,1788,1808,1827,1849,1867,1887,1908,1928,1949,1966],"xSR":741.5,"ySR":469.95,"xT1":424.9,"yT1":0,"xT2":1058.1,"yT2":0,"toosoon":0,"cond_shown":"Incongruent","ratio_trial":200,"L_num":7,"L_den":10,"R_num":14,"R_den":28,"correct_side":1,"subjID":"nataliasofiasanchez32","gender":"1","school":"4","age":"9"},{"start_time":1552313161423,"click_time":1552313162940,"finger_time":1552313161721,"fix_duration":920.393769460726,"trial":9,"RT":298,"MT":1219,"sideResp":1,"stimulus":[],"xmouse":[763,763,764,764,764,764,764,764,764,764,764,764,764,765,765,766,766,766,766,766,766,766,766,766,766,766,766,766,766,766,766,766,766,766,766,766,766,766,766,766,765,757,739,711,697,685,678,673,672,672,672,672,670,660,654,646,638,629,604,589,576,563,559,557,557,557,557,557,557,557,557,553,548,542,530,524],"ymouse":[479,477,476,475,474,473,473,473,473,473,473,473,473,470,467,466,466,466,466,466,466,466,466,466,466,466,466,466,466,466,466,466,466,466,466,466,466,466,466,466,463,446,414,362,331,307,289,277,271,267,259,244,219,188,177,166,158,149,129,117,107,98,95,94,94,94,94,94,94,94,94,92,90,87,77,74],"timestamp_mouse":[23,39,58,78,97,116,138,157,176,197,217,238,258,277,298,317,338,357,378,396,417,437,458,476,498,517,537,557,577,597,617,637,658,677,696,717,737,757,777,797,817,837,858,877,898,917,938,956,977,997,1017,1037,1058,1077,1097,1116,1137,1157,1177,1197,1217,1237,1257,1278,1296,1318,1337,1358,1378,1398,1418,1438,1456,1477,1497,1517],"xSR":741.5,"ySR":469.95,"xT1":424.9,"yT1":0,"xT2":1058.1,"yT2":0,"toosoon":0,"cond_shown":"Congruent","ratio_trial":300,"L_num":4,"L_den":10,"R_num":1,"R_den":10,"correct_side":1,"subjID":"nataliasofiasanchez32","gender":"1","school":"4","age":"9"},{"start_time":1552313167882,"click_time":1552313169761,"finger_time":1552313169421,"fix_duration":1201.837817232807,"trial":10,"RT":1539,"MT":340,"sideResp":1,"stimulus":[],"xmouse":[766,766,766,766,766,766,766,766,766,766,766,766,766,766,766,766,766,766,766,766,766,766,766,766,766,766,766,766,766,766,766,766,766,766,766,766,766,766,766,766,766,766,766,766,766,766,766,766,766,766,766,766,766,766,766,766,766,766,766,766,766,766,766,766,766,766,766,766,766,766,766,766,766,766,767,742,689,665,640,606,573,548,548,548,548,548,548,548,548,548,548,548,548,502],"ymouse":[540,540,540,540,540,540,540,540,540,540,540,540,540,540,540,540,540,540,540,540,540,540,540,540,540,540,540,540,540,540,540,540,540,540,540,540,540,540,540,540,540,540,540,540,540,540,540,540,540,540,540,540,540,540,540,540,540,540,540,540,540,540,540,540,540,540,540,540,540,540,540,540,540,540,539,492,382,306,209,108,44,4,4,4,4,4,4,4,4,4,4,4,4,3],"timestamp_mouse":[19,39,58,78,99,118,138,159,177,197,217,238,257,277,298,317,337,357,377,397,417,438,458,477,497,517,539,559,579,598,619,638,659,679,698,719,738,758,777,799,819,838,858,878,898,918,939,959,979,998,1019,1039,1058,1079,1098,1119,1139,1158,1178,1197,1218,1239,1259,1279,1299,1318,1338,1359,1378,1399,1417,1438,1458,1479,1498,1520,1539,1559,1577,1599,1618,1638,1658,1679,1698,1719,1738,1758,1778,1798,1818,1839,1858,1879],"xSR":741.5,"ySR":469.95,"xT1":424.9,"yT1":0,"xT2":1058.1,"yT2":0,"toosoon":0,"cond_shown":"Incongruent","ratio_trial":200,"L_num":6,"L_den":20,"R_num":3,"R_den":6,"correct_side":2,"subjID":"nataliasofiasanchez32","gender":"1","school":"4","age":"9"},{"start_time":1552313172633,"click_time":1552313174661,"finger_time":1552313174380,"fix_duration":250,"trial":11,"RT":1747,"MT":281,"sideResp":1,"stimulus":[],"xmouse":[791,791,791,791,791,791,791,791,791,791,791,791,791,791,791,791,791,791,791,791,791,791,791,791,791,791,791,791,791,791,791,791,791,791,791,791,791,791,791,791,791,791,791,791,791,791,791,791,791,791,791,791,791,791,791,791,791,791,791,791,791,791,791,791,791,791,791,791,791,791,791,791,791,791,791,791,791,791,791,791,791,791,791,791,791,791,786,774,756,680,629,561,509,470,424,414,412,412,412,417,423,428],"ymouse":[497,497,497,497,497,497,497,497,497,497,497,497,497,497,497,497,497,497,497,497,497,497,497,497,497,497,497,497,497,497,497,497,497,497,497,497,497,497,497,497,497,497,497,497,497,497,497,497,497,497,497,497,497,497,497,497,497,497,497,497,497,497,497,497,497,497,497,497,497,497,497,497,497,497,497,497,497,497,497,497,497,497,497,497,497,497,486,462,433,353,310,266,231,192,128,107,101,96,91,80,73,68],"timestamp_mouse":[13,34,47,67,87,108,128,148,167,187,208,227,248,268,287,308,327,348,367,387,407,428,448,468,487,507,526,548,567,587,608,627,646,668,687,707,728,747,768,787,808,827,847,868,887,907,927,947,967,988,1007,1028,1046,1068,1086,1108,1127,1148,1168,1187,1208,1227,1247,1268,1287,1307,1327,1348,1366,1388,1407,1427,1448,1467,1488,1508,1527,1546,1568,1587,1607,1627,1648,1666,1687,1708,1728,1747,1768,1789,1807,1827,1848,1867,1888,1906,1927,1948,1967,1988,2007,2027],"xSR":741.5,"ySR":469.95,"xT1":424.9,"yT1":0,"xT2":1058.1,"yT2":0,"toosoon":0,"cond_shown":"Congruent","ratio_trial":300,"L_num":3,"L_den":6,"R_num":2,"R_den":10,"correct_side":1,"subjID":"nataliasofiasanchez32","gender":"1","school":"4","age":"9"},{"start_time":1552313179996,"click_time":1552313182301,"finger_time":1552313181400,"fix_duration":353.929621157693,"trial":12,"RT":1404,"MT":901,"sideResp":1,"stimulus":[],"xmouse":[800,800,800,800,800,800,799,798,798,798,798,798,798,798,798,798,798,798,798,798,798,798,798,798,798,798,798,798,798,798,798,798,798,798,798,798,798,798,798,798,798,798,798,798,798,798,798,798,798,798,798,798,798,798,798,798,798,798,798,798,798,798,798,798,798,798,798,788,783,776,761,745,735,732,732,732,732,733,733,732,727,721,705,694,681,653,629,604,597,594,593,593,592,587,583,566,558,547,545,544,544,543,538,533,529,528,528,528,528,528,528,527,527,526,525,523],"ymouse":[490,490,490,490,490,491,491,491,491,491,491,491,491,491,491,491,491,491,491,491,491,491,491,491,491,491,491,491,491,491,491,491,491,491,491,491,491,491,491,491,491,491,491,491,491,491,491,491,491,491,491,491,491,491,491,491,491,491,491,491,491,491,491,491,491,491,491,493,493,489,465,422,387,343,324,318,308,295,287,276,261,246,220,204,184,139,106,73,63,58,57,57,56,55,54,53,53,53,53,53,53,53,53,53,53,53,53,53,53,53,53,53,53,53,52,52],"timestamp_mouse":[12,24,45,64,84,104,125,144,164,184,205,224,244,264,284,304,324,344,364,384,405,424,444,465,484,505,525,544,563,584,605,625,644,665,685,704,724,744,765,784,805,825,844,864,885,905,925,944,965,984,1003,1024,1044,1065,1085,1105,1124,1144,1164,1185,1204,1225,1244,1265,1284,1305,1325,1344,1365,1384,1404,1425,1444,1464,1484,1505,1524,1545,1564,1584,1605,1624,1645,1664,1684,1705,1725,1745,1763,1783,1803,1825,1845,1864,1884,1904,1925,1945,1964,1984,2005,2025,2045,2064,2084,2104,2124,2145,2164,2184,2204,2225,2244,2265,2285,2304],"xSR":741.5,"ySR":469.95,"xT1":424.9,"yT1":0,"xT2":1058.1,"yT2":0,"toosoon":0,"cond_shown":"Congruent","ratio_trial":200,"L_num":9,"L_den":20,"R_num":4,"R_den":16,"correct_side":1,"subjID":"nataliasofiasanchez32","gender":"1","school":"4","age":"9"},{"start_time":1552313185197,"click_time":1552313187120,"finger_time":1552313186801,"fix_duration":834.7103561813382,"trial":13,"RT":1604,"MT":319,"sideResp":1,"stimulus":[],"xmouse":[779,779,779,779,779,779,779,779,779,779,779,779,779,779,779,779,779,779,779,779,779,779,779,779,779,779,779,779,779,779,779,779,779,779,779,779,779,779,779,779,779,779,779,779,779,779,779,779,779,779,779,779,779,779,779,779,779,779,779,779,779,779,779,779,779,779,779,779,779,779,779,779,779,779,779,779,779,779,779,775,760,709,655,659,657,657,657,657,657,657,657,657,657,657,657,657,502],"ymouse":[520,520,520,520,520,520,520,520,520,520,520,520,520,520,520,520,520,520,520,520,520,520,520,520,520,520,520,520,520,520,520,520,520,520,520,520,520,520,520,520,520,520,520,520,520,520,520,520,520,520,520,520,520,520,520,520,520,520,520,520,520,520,520,520,520,520,520,520,520,520,520,520,520,520,520,520,520,520,516,503,437,331,219,83,45,45,45,45,45,45,45,45,45,45,45,45,9],"timestamp_mouse":[22,23,47,64,83,103,123,143,164,183,204,223,244,264,283,304,323,344,364,383,403,423,444,463,483,503,524,544,563,584,603,622,643,664,683,704,724,744,764,783,803,823,843,864,883,903,923,943,963,983,1003,1023,1043,1063,1083,1103,1123,1143,1162,1182,1202,1222,1242,1263,1282,1302,1322,1342,1362,1384,1403,1422,1443,1463,1483,1502,1523,1544,1563,1584,1604,1623,1643,1664,1684,1703,1723,1745,1763,1782,1803,1823,1844,1864,1884,1903,1923],"xSR":741.5,"ySR":469.95,"xT1":424.9,"yT1":0,"xT2":1058.1,"yT2":0,"toosoon":0,"cond_shown":"Congruent","ratio_trial":300,"L_num":11,"L_den":22,"R_num":4,"R_den":20,"correct_side":1,"subjID":"nataliasofiasanchez32","gender":"1","school":"4","age":"9"},{"start_time":1552313189964,"click_time":1552313191901,"finger_time":1552313191241,"fix_duration":1482.2524145128766,"trial":14,"RT":1277,"MT":660,"sideResp":2,"stimulus":[],"xmouse":[809,809,809,809,808,808,808,808,808,808,808,807,807,807,807,807,807,807,807,807,807,807,807,806,806,806,806,806,806,806,806,806,806,806,806,806,806,806,805,805,805,805,805,805,805,805,805,805,805,805,805,805,805,805,805,805,805,805,805,805,805,805,830,857,886,941,961,980,999,1041,1058,1073,1092,1098,1101,1102,1102,1099,1091,1081,1067,1057,1051,1047,1047,1047,1047,1047,1048,1050,1050,1050,1051,1053,1055,1058,1059],"ymouse":[537,537,537,537,537,537,537,537,537,537,537,537,537,537,537,537,537,537,537,537,537,537,537,537,537,537,537,537,537,537,537,537,537,537,537,537,537,537,537,537,537,537,537,537,537,537,537,537,537,537,537,537,537,537,537,537,537,537,537,537,537,537,537,537,534,517,504,490,471,415,388,363,325,307,283,270,254,233,209,182,141,114,101,92,89,84,83,80,76,75,75,75,74,73,73,73,73],"timestamp_mouse":[17,36,61,75,95,117,136,155,175,196,217,236,256,277,296,316,335,357,376,396,415,436,457,477,496,517,536,557,575,596,617,635,657,676,696,715,736,756,776,796,816,836,856,877,896,917,937,956,976,996,1017,1036,1056,1077,1096,1115,1135,1157,1177,1196,1217,1236,1257,1277,1296,1317,1336,1357,1376,1397,1415,1436,1457,1477,1497,1516,1535,1556,1576,1597,1616,1636,1655,1677,1696,1717,1736,1756,1776,1796,1816,1836,1856,1877,1896,1917,1936],"xSR":741.5,"ySR":469.95,"xT1":424.9,"yT1":0,"xT2":1058.1,"yT2":0,"toosoon":0,"cond_shown":"Congruent","ratio_trial":300,"L_num":8,"L_den":15,"R_num":10,"R_den":12,"correct_side":2,"subjID":"nataliasofiasanchez32","gender":"1","school":"4","age":"9"},{"start_time":1552313193489,"click_time":1552313195340,"finger_time":1552313194962,"fix_duration":267.1060630409066,"trial":15,"RT":1473,"MT":378,"sideResp":1,"stimulus":[],"xmouse":[786,786,786,786,786,786,786,786,786,786,786,786,786,786,786,786,786,786,786,786,786,786,786,786,786,786,786,786,786,786,786,786,786,786,786,786,786,786,786,786,786,786,786,786,786,786,786,786,786,786,786,786,786,786,786,786,786,786,786,786,786,786,786,786,786,786,786,786,786,786,786,786,784,760,735,713,685,663,647,621,612,606,602,596,583,580,575,573,567,549,537,525,513],"ymouse":[505,505,505,505,505,505,505,505,505,505,505,505,505,505,505,505,505,505,505,505,505,505,505,505,505,505,505,505,505,505,505,505,505,505,505,505,505,505,505,505,505,505,505,505,505,505,505,505,505,505,505,505,505,505,505,505,505,505,505,505,505,505,505,505,505,505,505,505,505,505,501,493,470,388,321,274,219,180,153,104,90,78,70,62,46,44,42,41,40,40,40,37,36],"timestamp_mouse":[11,36,52,72,92,112,132,152,172,192,211,232,251,272,291,310,330,351,372,392,411,432,450,471,492,512,531,552,571,592,612,632,650,672,691,711,731,751,771,792,811,832,851,870,892,911,931,951,972,992,1011,1032,1052,1071,1092,1112,1132,1151,1171,1192,1211,1231,1250,1272,1292,1311,1331,1352,1371,1391,1411,1432,1451,1473,1491,1511,1531,1552,1572,1591,1610,1632,1651,1671,1691,1711,1732,1751,1771,1792,1811,1831,1851],"xSR":741.5,"ySR":469.95,"xT1":424.9,"yT1":0,"xT2":1058.1,"yT2":0,"toosoon":0,"cond_shown":"Incongruent","ratio_trial":100,"L_num":10,"L_den":25,"R_num":9,"R_den":18,"correct_side":2,"subjID":"nataliasofiasanchez32","gender":"1","school":"4","age":"9"},{"start_time":1552313197652,"click_time":1552313200061,"finger_time":1552313198021,"fix_duration":250,"trial":16,"RT":369,"MT":2040,"sideResp":2,"stimulus":[],"xmouse":[758,758,758,758,758,758,758,758,758,758,758,758,759,760,762,764,772,779,784,790,800,842,863,877,890,906,910,911,911,911,911,911,911,911,911,911,911,911,911,911,911,911,907,899,873,857,841,841,841,841,841,841,840,840,840,840,840,840,840,840,840,839,836,835,832,831,831,829,826,821,813,806,806,806,806,806,806,806,806,806,806,806,806,806,806,806,806,806,806,806,806,806,806,806,806,806,806,806,806,806,806,806,806,806,807,809,838,859,881,906,938,974,1043,1084,1100,1112,1122,1122,1122,1123,1125],"ymouse":[480,480,480,480,480,480,480,480,480,480,480,480,478,477,476,475,473,470,467,464,460,449,447,446,446,446,446,446,446,446,446,446,446,446,446,446,446,446,446,446,446,446,446,447,450,455,460,460,460,460,460,460,461,461,464,465,465,465,465,465,466,469,472,473,477,478,479,481,486,492,500,507,507,507,507,507,507,507,507,507,507,507,507,507,507,507,507,507,507,507,507,507,507,507,507,507,507,507,507,507,507,507,507,507,506,505,500,494,487,473,454,436,372,319,286,250,181,147,120,100,87],"timestamp_mouse":[13,46,48,70,88,108,128,148,168,188,208,228,249,270,288,308,329,349,369,389,409,428,448,469,488,508,528,549,569,588,610,628,648,668,689,709,728,749,768,789,808,829,848,869,888,909,929,950,969,990,1009,1029,1049,1069,1088,1109,1129,1149,1170,1189,1208,1230,1248,1270,1289,1309,1328,1349,1369,1390,1408,1430,1448,1469,1489,1510,1529,1549,1568,1589,1609,1628,1650,1669,1690,1709,1728,1749,1769,1790,1808,1828,1849,1868,1888,1909,1929,1948,1968,1989,2009,2028,2048,2068,2088,2109,2128,2149,2169,2189,2209,2229,2248,2268,2289,2308,2329,2348,2368,2388,2409],"xSR":741.5,"ySR":469.95,"xT1":424.9,"yT1":0,"xT2":1058.1,"yT2":0,"toosoon":0,"cond_shown":"Congruent","ratio_trial":300,"L_num":11,"L_den":22,"R_num":4,"R_den":20,"correct_side":1,"subjID":"nataliasofiasanchez32","gender":"1","school":"4","age":"9"},{"start_time":1552313202197,"click_time":1552313204860,"finger_time":1552313204442,"fix_duration":494.8264532590011,"trial":17,"RT":2245,"MT":418,"sideResp":1,"stimulus":[],"xmouse":[800,800,800,800,800,800,800,800,800,800,800,800,800,800,800,800,800,800,800,800,800,800,800,800,800,800,800,800,800,800,800,800,800,800,800,800,800,800,800,800,800,800,800,800,800,800,800,800,800,800,800,800,800,800,800,800,800,800,800,800,800,800,800,800,800,800,800,800,800,800,800,800,800,800,800,800,800,800,800,800,800,800,800,800,800,800,800,800,800,800,800,800,800,800,800,800,800,800,800,800,800,800,800,800,800,800,800,799,798,796,796,795,792,785,770,735,721,707,691,674,644,634,625,618,611,599,596,595,592,586,568,555,539,524],"ymouse":[499,499,499,499,499,499,499,499,499,499,499,499,499,499,499,499,499,499,499,499,499,499,499,499,499,499,499,499,499,499,499,499,499,499,499,499,499,499,499,499,499,499,499,499,499,499,499,499,499,499,499,499,499,499,499,499,499,499,499,499,499,499,499,499,499,499,499,499,499,499,499,499,499,499,499,499,499,499,499,499,499,499,499,499,499,499,499,499,499,499,499,499,499,499,499,499,499,499,499,499,499,499,499,499,499,499,499,499,499,499,497,485,463,438,394,342,325,312,301,293,269,259,250,241,233,210,200,187,173,160,131,118,101,86],"timestamp_mouse":[11,32,43,64,84,103,123,144,165,183,204,223,244,264,284,303,324,343,365,385,404,424,444,463,483,504,523,544,563,583,603,623,645,663,683,703,723,743,764,785,804,824,843,865,883,904,923,945,963,984,1003,1024,1044,1063,1084,1103,1124,1144,1164,1183,1203,1225,1243,1263,1283,1305,1324,1344,1364,1383,1403,1423,1444,1463,1484,1504,1524,1543,1564,1584,1604,1624,1644,1664,1683,1704,1723,1745,1764,1785,1804,1824,1843,1863,1884,1904,1925,1943,1964,1984,2004,2024,2043,2064,2084,2105,2123,2143,2164,2184,2204,2224,2245,2264,2284,2303,2323,2344,2365,2384,2403,2423,2444,2464,2483,2503,2524,2543,2565,2584,2604,2623,2643,2663],"xSR":741.5,"ySR":469.95,"xT1":424.9,"yT1":0,"xT2":1058.1,"yT2":0,"toosoon":0,"cond_shown":"Congruent","ratio_trial":100,"L_num":12,"L_den":30,"R_num":13,"R_den":26,"correct_side":2,"subjID":"nataliasofiasanchez32","gender":"1","school":"4","age":"9"},{"start_time":1552313207936,"click_time":1552313210361,"finger_time":1552313209460,"fix_duration":1454.4766044152884,"trial":18,"RT":1524,"MT":901,"sideResp":2,"stimulus":[],"xmouse":[782,782,782,782,782,782,782,782,782,782,782,782,782,782,782,782,782,782,782,782,782,782,782,782,782,782,782,782,782,782,782,782,782,782,782,782,782,782,782,782,782,782,782,782,782,782,782,782,782,782,782,782,782,782,782,782,782,782,782,782,782,782,782,782,782,782,782,782,782,782,782,782,782,782,786,792,870,974,1084,1095,1104,1120,1133,1140,1152,1166,1184,1196,1224,1235,1243,1245,1245,1233,1224,1208,1200,1191,1178,1175,1174,1174,1174,1174,1174,1174,1173,1172,1172,1171,1170,1168,1168,1167,1166,1165,1165,1164,1164,1161,1159,1157],"ymouse":[515,515,515,515,515,515,515,515,515,515,515,515,515,515,515,515,515,515,515,515,515,515,515,515,515,515,515,515,515,515,515,515,515,515,515,515,515,515,515,515,515,515,515,515,515,515,515,515,515,515,515,515,515,515,515,515,515,515,515,515,515,515,515,515,515,515,515,515,515,515,515,515,515,515,504,502,492,484,479,476,473,469,466,464,452,444,435,430,410,397,376,359,337,291,257,202,174,144,97,78,60,48,41,37,37,37,37,37,37,37,37,38,38,38,39,39,39,40,40,42,42,43],"timestamp_mouse":[12,37,46,65,85,104,126,145,164,185,204,225,245,265,285,304,325,344,364,386,404,425,444,464,485,504,525,544,564,584,604,626,645,664,685,704,725,744,765,785,805,826,845,865,885,905,925,944,964,984,1005,1026,1045,1064,1085,1104,1124,1145,1165,1184,1204,1225,1246,1265,1284,1304,1324,1346,1365,1384,1404,1424,1445,1466,1485,1504,1524,1544,1566,1584,1606,1625,1644,1666,1684,1705,1724,1744,1766,1784,1804,1826,1845,1866,1884,1904,1925,1944,1966,1984,2004,2025,2045,2066,2086,2106,2125,2145,2165,2184,2204,2225,2245,2265,2284,2305,2324,2344,2364,2384,2405,2425],"xSR":741.5,"ySR":469.95,"xT1":424.9,"yT1":0,"xT2":1058.1,"yT2":0,"toosoon":0,"cond_shown":"Incongruent","ratio_trial":300,"L_num":1,"L_den":2,"R_num":2,"R_den":10,"correct_side":1,"subjID":"nataliasofiasanchez32","gender":"1","school":"4","age":"9"},{"start_time":1552313218318,"click_time":1552313219761,"finger_time":1552313219160,"fix_duration":777.008119582524,"trial":19,"RT":842,"MT":601,"sideResp":1,"stimulus":[],"xmouse":[796,796,796,796,796,796,796,796,796,796,796,796,796,796,796,796,796,796,796,796,796,796,796,795,794,794,794,794,794,794,794,794,794,794,794,794,794,794,794,794,794,788,775,759,740,721,678,666,654,646,640,636,636,636,636,636,636,635,633,629,625,606,596,585,570,543,531,526,522,520,519,519,518],"ymouse":[488,488,488,488,488,488,488,488,488,488,488,488,488,488,488,488,488,488,488,488,488,488,488,489,490,491,491,491,491,491,491,491,491,491,491,491,491,491,491,491,491,485,469,450,429,403,342,317,294,278,268,262,262,262,261,261,254,250,241,234,226,202,191,181,168,146,134,127,120,116,110,101,98],"timestamp_mouse":[13,34,42,62,83,103,122,143,162,183,203,222,244,263,282,302,322,342,363,383,404,422,443,463,483,503,522,544,563,583,603,623,643,662,683,703,724,744,764,782,803,823,842,863,883,902,922,942,962,983,1002,1022,1042,1062,1083,1102,1122,1142,1163,1183,1202,1222,1242,1263,1283,1304,1322,1342,1363,1383,1403,1422,1443],"xSR":741.5,"ySR":469.95,"xT1":424.9,"yT1":0,"xT2":1058.1,"yT2":0,"toosoon":0,"cond_shown":"Congruent","ratio_trial":300,"L_num":20,"L_den":25,"R_num":13,"R_den":26,"correct_side":1,"subjID":"nataliasofiasanchez32","gender":"1","school":"4","age":"9"},{"start_time":1552313222829,"click_time":1552313224641,"finger_time":1552313224240,"fix_duration":786.8743293026611,"trial":20,"RT":1411,"MT":401,"sideResp":2,"stimulus":[],"xmouse":[763,763,763,763,763,762,761,760,759,758,756,755,755,754,754,754,754,754,754,754,754,754,754,754,754,754,754,754,754,754,754,754,754,754,754,754,754,754,754,754,754,754,754,754,754,754,754,754,754,754,754,754,754,754,754,754,754,754,754,754,754,754,754,754,754,754,754,760,766,785,836,858,880,909,944,964,982,986,988,989,992,995,1000,1005,1012,1027,1034,1040,1049,1055,1067],"ymouse":[499,499,499,499,499,499,499,499,499,499,500,500,500,500,500,500,500,500,500,500,500,500,500,500,500,500,500,500,500,500,500,500,500,500,500,500,500,500,500,500,500,500,500,500,500,500,500,500,500,500,500,500,500,500,500,500,500,500,500,500,500,500,500,500,500,500,500,497,494,486,464,452,433,404,358,330,297,286,279,275,266,258,241,228,213,179,162,148,134,122,99],"timestamp_mouse":[13,45,53,71,91,111,131,151,171,191,211,233,251,271,291,311,331,353,371,393,411,433,451,472,491,513,532,552,571,592,611,631,652,671,691,711,731,752,772,791,811,832,852,871,891,911,931,951,972,991,1012,1032,1052,1071,1091,1111,1132,1152,1171,1191,1212,1232,1253,1272,1292,1311,1331,1352,1372,1392,1411,1431,1451,1473,1491,1511,1532,1551,1572,1591,1613,1631,1652,1672,1691,1711,1731,1751,1772,1791,1812],"xSR":741.5,"ySR":469.95,"xT1":424.9,"yT1":0,"xT2":1058.1,"yT2":0,"toosoon":0,"cond_shown":"Incongruent","ratio_trial":300,"L_num":13,"L_den":26,"R_num":12,"R_den":15,"correct_side":2,"subjID":"nataliasofiasanchez32","gender":"1","school":"4","age":"9"},{"start_time":1552313226567,"click_time":1552313227960,"finger_time":1552313227541,"fix_duration":525.6719035439213,"trial":21,"RT":974,"MT":419,"sideResp":2,"stimulus":[],"xmouse":[789,789,789,789,789,789,789,789,789,789,789,789,789,789,789,789,789,789,789,789,789,789,789,789,789,789,789,789,789,789,789,789,789,789,789,789,789,789,789,789,789,789,789,789,788,799,813,830,859,868,876,885,892,908,918,953,970,985,1008,1015,1020,1023,1027,1031,1050,1061,1072,1083,1094,1112],"ymouse":[488,488,488,488,488,488,488,488,488,488,488,488,488,488,488,488,488,488,488,488,488,488,488,488,488,488,488,488,488,488,488,488,488,488,488,488,488,488,488,488,488,488,488,488,488,484,480,470,440,429,421,411,401,367,341,266,243,230,218,212,206,201,197,192,170,157,143,130,114,90],"timestamp_mouse":[13,34,54,73,93,113,133,154,173,193,215,233,253,274,294,313,335,354,374,394,414,433,454,474,495,514,533,553,573,594,613,634,654,675,694,713,734,753,774,793,813,835,855,874,893,914,934,953,974,993,1013,1033,1053,1076,1093,1114,1133,1154,1175,1193,1213,1234,1254,1275,1293,1314,1334,1353,1373,1393],"xSR":741.5,"ySR":469.95,"xT1":424.9,"yT1":0,"xT2":1058.1,"yT2":0,"toosoon":0,"cond_shown":"Incongruent","ratio_trial":300,"L_num":13,"L_den":26,"R_num":12,"R_den":15,"correct_side":2,"subjID":"nataliasofiasanchez32","gender":"1","school":"4","age":"9"},{"start_time":1552313230411,"click_time":1552313232768,"finger_time":1552313231981,"fix_duration":928.5947542141143,"trial":22,"RT":1570,"MT":787,"sideResp":2,"stimulus":[],"xmouse":[796,796,796,796,796,796,796,796,796,796,796,796,796,796,796,796,796,796,796,796,796,796,796,796,796,796,796,796,796,796,796,796,796,796,796,796,796,796,796,796,796,796,796,796,796,796,796,796,796,796,796,796,796,796,796,796,796,796,796,796,796,796,796,796,796,796,796,796,796,796,796,796,796,796,796,796,806,833,851,869,881,891,913,922,935,948,961,987,1002,1013,1026,1035,1048,1052,1054,1055,1056,1056,1056,1057,1058,1061,1068,1071,1073,1077,1083,1108,1117,1125,1131,1139,1142,1148,1150,1150,1151,1150],"ymouse":[501,501,501,501,501,501,501,501,501,501,501,501,501,501,501,501,501,501,501,501,501,501,501,501,501,501,501,501,501,501,501,501,501,501,501,501,501,501,501,501,501,501,501,501,501,501,501,501,501,501,501,501,501,501,501,501,501,501,501,501,501,501,501,501,501,501,501,501,501,501,501,501,501,501,501,501,499,491,486,483,481,480,475,471,465,460,452,430,413,393,363,342,309,293,280,271,263,257,255,254,252,247,231,220,210,203,197,173,164,153,145,132,125,113,109,105,103,96],"timestamp_mouse":[12,29,49,69,89,109,130,151,169,189,209,229,249,270,289,309,330,349,371,389,409,430,450,470,489,509,529,550,569,589,610,629,650,669,689,710,730,750,770,789,810,829,849,869,891,909,929,949,971,990,1011,1029,1049,1071,1089,1110,1129,1150,1169,1189,1209,1229,1250,1271,1291,1309,1329,1350,1369,1390,1409,1430,1449,1470,1489,1510,1530,1549,1570,1589,1610,1629,1649,1669,1689,1710,1729,1749,1769,1790,1810,1831,1850,1870,1890,1910,1931,1949,1969,1989,2009,2030,2049,2069,2089,2110,2130,2149,2169,2190,2210,2229,2249,2269,2289,2310,2330,2357],"xSR":741.5,"ySR":469.95,"xT1":424.9,"yT1":0,"xT2":1058.1,"yT2":0,"toosoon":0,"cond_shown":"Congruent","ratio_trial":200,"L_num":6,"L_den":20,"R_num":11,"R_den":22,"correct_side":2,"subjID":"nataliasofiasanchez32","gender":"1","school":"4","age":"9"},{"start_time":1552313237480,"click_time":1552313238541,"finger_time":1552313237900,"fix_duration":297.38848636784456,"trial":23,"RT":420,"MT":641,"sideResp":2,"stimulus":[],"xmouse":[811,811,811,811,811,811,811,811,811,811,811,811,811,811,811,811,811,811,820,834,855,873,889,904,939,952,965,980,1006,1045,1053,1056,1056,1056,1056,1056,1056,1056,1056,1058,1058,1060,1062,1064,1067,1068,1070,1073,1075,1079,1081,1083,1084],"ymouse":[541,541,541,541,541,541,541,541,541,541,541,541,541,541,541,541,541,541,529,519,504,491,478,464,428,412,393,372,327,245,220,205,196,192,191,191,191,190,190,185,180,171,161,150,128,122,116,113,110,105,103,101,99],"timestamp_mouse":[9,40,61,81,102,121,141,162,180,202,220,241,261,282,301,320,340,360,381,401,420,441,461,481,500,521,540,560,580,601,621,641,660,680,701,720,740,761,780,800,821,840,860,881,900,920,940,961,981,1000,1021,1041,1061],"xSR":741.5,"ySR":469.95,"xT1":424.9,"yT1":0,"xT2":1058.1,"yT2":0,"toosoon":0,"cond_shown":"Congruent","ratio_trial":100,"L_num":15,"L_den":25,"R_num":13,"R_den":26,"correct_side":1,"subjID":"nataliasofiasanchez32","gender":"1","school":"4","age":"9"},{"start_time":1552313240357,"click_time":1552313241540,"finger_time":1552313241181,"fix_duration":674.9621402982253,"trial":24,"RT":824,"MT":359,"sideResp":2,"stimulus":[],"xmouse":[811,811,811,811,811,811,811,811,811,811,811,811,811,811,811,811,811,811,811,811,811,811,811,811,812,813,814,814,814,814,814,814,814,814,814,814,814,814,815,816,821,839,853,869,884,901,917,958,972,974,980,992,999,1006,1014,1022,1041,1048,1056,1063],"ymouse":[494,494,494,494,494,494,494,494,494,494,494,494,494,494,494,494,494,494,494,494,494,494,494,494,492,491,488,488,487,487,487,487,487,487,487,487,487,487,487,485,477,454,433,408,385,359,327,249,215,207,189,169,154,137,118,102,60,42,27,13],"timestamp_mouse":[12,33,44,63,85,103,123,144,164,183,204,223,244,264,283,304,325,343,364,384,403,423,443,464,484,504,523,544,564,584,604,623,643,665,683,704,723,744,764,784,805,824,843,864,883,903,923,944,963,984,1003,1023,1043,1063,1083,1104,1123,1143,1163,1183],"xSR":741.5,"ySR":469.95,"xT1":424.9,"yT1":0,"xT2":1058.1,"yT2":0,"toosoon":0,"cond_shown":"Incongruent","ratio_trial":200,"L_num":7,"L_den":10,"R_num":14,"R_den":28,"correct_side":1,"subjID":"nataliasofiasanchez32","gender":"1","school":"4","age":"9"},{"start_time":1552313244459,"click_time":1552313246440,"finger_time":1552313246082,"fix_duration":1296.0982225590903,"trial":25,"RT":1623,"MT":358,"sideResp":1,"stimulus":[],"xmouse":[776,776,776,776,776,776,776,776,776,776,776,776,776,776,776,776,776,776,776,776,776,776,776,776,776,776,776,776,776,776,776,776,776,776,776,776,776,776,776,776,776,776,776,776,776,776,776,776,776,776,776,776,776,776,776,776,776,776,776,776,776,776,776,776,776,776,776,776,776,776,776,776,776,776,776,776,776,776,779,779,780,780,775,768,756,741,708,690,670,653,642,612,600,587,576,566,548,535,522],"ymouse":[497,497,497,497,497,497,497,497,497,497,497,497,497,497,497,497,497,497,497,497,497,497,497,497,497,497,497,497,497,497,497,497,497,497,497,497,497,497,497,497,497,497,497,497,497,497,497,497,497,497,497,497,497,497,497,497,497,497,497,497,497,497,497,497,497,497,497,497,497,497,497,497,497,497,497,497,497,497,490,485,455,430,382,341,295,250,186,159,129,107,88,58,52,47,43,38,30,26,21],"timestamp_mouse":[23,42,61,81,102,122,141,162,183,201,222,241,261,282,303,322,342,362,383,402,421,442,461,482,501,521,541,561,582,601,622,641,661,683,701,722,741,762,782,801,822,842,862,882,903,922,942,962,981,1002,1023,1042,1062,1081,1103,1122,1141,1162,1181,1202,1222,1243,1262,1281,1301,1322,1343,1363,1382,1402,1423,1442,1462,1481,1501,1523,1541,1562,1582,1601,1623,1641,1661,1681,1701,1722,1742,1762,1782,1801,1821,1841,1863,1882,1901,1921,1941,1962,1981],"xSR":741.5,"ySR":469.95,"xT1":424.9,"yT1":0,"xT2":1058.1,"yT2":0,"toosoon":0,"cond_shown":"Incongruent","ratio_trial":100,"L_num":12,"L_den":30,"R_num":2,"R_den":4,"correct_side":2,"subjID":"nataliasofiasanchez32","gender":"1","school":"4","age":"9"},{"start_time":1552313249685,"click_time":1552313250981,"finger_time":1552313250640,"fix_duration":1043.5643988405395,"trial":26,"RT":955,"MT":341,"sideResp":1,"stimulus":[],"xmouse":[766,766,766,766,766,766,766,766,766,766,766,766,766,766,766,766,766,770,772,775,775,775,775,775,775,775,775,775,775,775,775,775,775,775,775,775,775,775,775,775,775,774,773,773,772,765,761,756,753,746,730,722,714,707,700,682,672,660,641,626,591,573,553,537,522],"ymouse":[509,509,509,509,509,509,509,509,509,509,509,509,509,509,509,509,509,508,507,507,507,507,507,507,507,507,507,507,507,507,507,507,507,507,507,507,507,507,506,505,499,495,493,492,491,482,476,464,458,443,414,397,382,362,345,305,283,260,228,200,139,112,88,70,54],"timestamp_mouse":[16,40,56,76,97,115,136,155,176,197,215,236,255,275,296,316,336,356,376,395,416,437,456,476,496,515,535,556,575,597,615,635,656,676,695,715,736,755,776,796,815,836,855,875,895,915,936,955,976,996,1015,1035,1056,1075,1095,1117,1135,1156,1175,1196,1215,1235,1255,1275,1295],"xSR":741.5,"ySR":469.95,"xT1":424.9,"yT1":0,"xT2":1058.1,"yT2":0,"toosoon":0,"cond_shown":"Incongruent","ratio_trial":100,"L_num":6,"L_den":12,"R_num":3,"R_den":5,"correct_side":2,"subjID":"nataliasofiasanchez32","gender":"1","school":"4","age":"9"},{"start_time":1552313254863,"click_time":1552313256761,"finger_time":1552313256261,"fix_duration":882.73041495151,"trial":27,"RT":1398,"MT":500,"sideResp":2,"stimulus":[],"xmouse":[788,788,788,788,788,788,788,788,788,788,788,788,788,788,788,788,788,788,788,788,788,788,788,788,788,788,788,788,788,788,788,788,788,788,788,788,788,788,788,788,788,788,788,788,788,788,788,788,788,788,788,788,788,788,788,788,788,788,788,788,788,788,788,788,788,788,788,788,793,829,877,927,987,1006,1022,1044,1077,1109,1109,1109,1108,1108,1107,1107,1107,1107,1106,1106,1106,1106,1105,1105,1110,1118,1125],"ymouse":[488,488,488,488,488,488,488,488,488,488,488,488,488,488,488,488,488,488,488,488,488,488,488,488,488,488,488,488,488,488,488,488,488,488,488,488,488,488,488,488,488,488,488,488,488,488,488,488,488,488,488,488,488,488,488,488,488,488,488,488,488,488,488,488,488,488,488,488,484,467,446,423,382,366,349,332,304,234,212,195,184,181,180,180,180,180,180,180,180,180,180,179,146,117,90],"timestamp_mouse":[17,41,57,78,98,117,137,159,177,198,218,237,258,278,297,318,337,359,378,398,417,438,458,477,498,517,538,557,577,598,618,637,657,678,699,719,738,758,777,798,819,838,858,878,898,919,937,958,977,999,1018,1038,1057,1078,1098,1118,1137,1158,1179,1197,1218,1238,1257,1277,1297,1319,1338,1358,1378,1398,1417,1437,1458,1477,1498,1517,1537,1557,1578,1597,1618,1638,1658,1677,1698,1717,1737,1757,1777,1797,1818,1837,1858,1877,1897],"xSR":741.5,"ySR":469.95,"xT1":424.9,"yT1":0,"xT2":1058.1,"yT2":0,"toosoon":0,"cond_shown":"Incongruent","ratio_trial":100,"L_num":13,"L_den":26,"R_num":12,"R_den":20,"correct_side":2,"subjID":"nataliasofiasanchez32","gender":"1","school":"4","age":"9"},{"start_time":1552313261521,"click_time":1552313263441,"finger_time":1552313262982,"fix_duration":1498.132295769945,"trial":28,"RT":1461,"MT":459,"sideResp":1,"stimulus":[],"xmouse":[791,791,791,791,791,791,791,791,791,791,791,791,791,791,791,791,791,791,791,791,791,791,791,791,791,791,791,791,791,791,791,791,791,791,791,791,791,791,791,791,791,791,791,791,791,791,791,791,791,791,791,791,791,791,791,791,791,791,791,791,791,791,791,791,791,791,791,791,791,791,791,791,798,810,819,808,705,677,677,677,677,677,677,677,677,677,677,677,677,677,677,677,677,677,677,677,512],"ymouse":[511,511,511,511,511,511,511,511,511,511,511,511,511,511,511,511,511,511,511,511,511,511,511,511,511,511,511,511,511,511,511,511,511,511,511,511,511,511,511,511,511,511,511,511,511,511,511,511,511,511,511,511,511,511,511,511,511,511,511,511,511,511,511,511,511,511,511,511,511,511,511,507,488,440,338,206,24,3,3,3,3,3,3,3,3,3,3,3,3,3,3,3,3,3,3,3,3],"timestamp_mouse":[1,36,40,60,80,100,121,141,161,181,200,220,240,259,281,300,320,340,359,381,400,419,440,461,480,500,521,540,560,579,601,621,639,660,680,701,721,739,760,779,801,820,839,860,880,901,920,941,959,980,1000,1021,1041,1059,1081,1101,1121,1140,1161,1181,1200,1220,1240,1260,1279,1301,1321,1341,1361,1380,1399,1419,1440,1461,1480,1499,1520,1540,1560,1581,1601,1620,1640,1661,1679,1700,1720,1740,1760,1780,1801,1821,1841,1860,1880,1900,1920],"xSR":741.5,"ySR":469.95,"xT1":424.9,"yT1":0,"xT2":1058.1,"yT2":0,"toosoon":0,"cond_shown":"Incongruent","ratio_trial":200,"L_num":9,"L_den":15,"R_num":8,"R_den":10,"correct_side":2,"subjID":"nataliasofiasanchez32","gender":"1","school":"4","age":"9"},{"start_time":1552313265373,"click_time":1552313266881,"finger_time":1552313266460,"fix_duration":350.12489379131574,"trial":29,"RT":1087,"MT":421,"sideResp":2,"stimulus":[],"xmouse":[770,770,770,770,770,770,770,770,770,770,770,770,770,770,770,770,770,770,770,770,770,770,769,769,769,769,769,769,769,769,769,769,769,769,769,769,769,769,769,769,771,772,773,775,776,776,776,776,776,776,781,787,798,828,845,859,878,884,899,904,908,912,917,935,948,961,974,996,1041,1063,1080,1095,1105,1117,1122,1124],"ymouse":[556,556,556,556,556,556,556,556,556,556,556,556,556,556,556,556,556,556,556,556,556,556,556,556,556,556,556,556,556,556,556,556,556,556,556,556,556,556,556,556,556,556,556,556,556,555,555,555,555,555,552,546,536,507,484,469,452,446,428,423,418,412,404,380,364,347,328,295,229,198,175,153,135,111,101,86],"timestamp_mouse":[10,28,48,68,87,107,128,148,167,187,208,229,247,269,288,307,329,347,367,389,409,429,447,469,489,508,527,549,569,588,609,628,648,668,687,709,727,748,768,788,809,829,847,868,888,909,928,949,968,989,1009,1028,1049,1068,1087,1109,1128,1147,1167,1189,1207,1228,1247,1268,1288,1309,1327,1348,1367,1389,1408,1428,1449,1467,1488,1508],"xSR":741.5,"ySR":469.95,"xT1":424.9,"yT1":0,"xT2":1058.1,"yT2":0,"toosoon":0,"cond_shown":"Incongruent","ratio_trial":100,"L_num":6,"L_den":12,"R_num":3,"R_den":5,"correct_side":2,"subjID":"nataliasofiasanchez32","gender":"1","school":"4","age":"9"},{"start_time":1552313269863,"click_time":1552313272061,"finger_time":1552313271582,"fix_duration":1400.9138649396198,"trial":30,"RT":1719,"MT":479,"sideResp":2,"stimulus":[],"xmouse":[793,793,793,793,793,793,793,793,793,793,793,793,793,793,793,793,793,793,793,793,793,793,793,793,793,793,793,793,793,793,793,793,793,793,793,793,793,793,793,793,793,793,793,793,793,793,793,793,793,793,793,793,793,793,793,793,793,793,793,793,793,793,793,793,793,793,793,793,793,793,793,793,793,793,793,793,793,793,793,793,793,793,794,800,830,847,863,876,890,891,891,893,897,904,924,937,951,966,993,1011,1028,1039,1049,1057,1068,1071,1073,1076,1080,1087],"ymouse":[495,495,495,495,495,495,495,495,495,495,495,495,495,495,495,495,495,495,495,495,495,495,495,495,495,495,495,495,495,495,495,495,495,495,495,495,495,495,495,495,495,495,495,495,495,495,495,495,495,495,495,495,495,495,495,495,495,495,495,495,495,495,495,495,495,495,495,495,495,495,495,495,495,495,495,495,495,495,495,495,495,495,496,494,485,476,467,460,450,449,449,448,444,437,411,387,361,334,274,238,207,190,173,156,136,130,125,120,113,97],"timestamp_mouse":[18,46,57,79,97,119,138,158,178,199,218,239,259,278,297,319,338,357,378,398,418,437,458,479,499,519,537,558,579,598,617,638,659,678,699,717,739,758,779,799,818,838,857,879,899,918,938,958,979,998,1018,1039,1058,1078,1098,1118,1138,1159,1179,1199,1218,1237,1257,1279,1299,1317,1338,1358,1379,1398,1417,1437,1458,1479,1499,1519,1539,1558,1578,1598,1619,1638,1658,1678,1699,1719,1739,1758,1780,1797,1819,1837,1859,1877,1898,1918,1938,1958,1980,1997,2018,2037,2058,2078,2098,2118,2138,2158,2178,2198],"xSR":741.5,"ySR":469.95,"xT1":424.9,"yT1":0,"xT2":1058.1,"yT2":0,"toosoon":0,"cond_shown":"Congruent","ratio_trial":200,"L_num":16,"L_den":20,"R_num":12,"R_den":20,"correct_side":1,"subjID":"nataliasofiasanchez32","gender":"1","school":"4","age":"9"},{"start_time":1552313291254,"click_time":1552313294601,"finger_time":1552313291265,"fix_duration":250,"trial":31,"RT":11,"MT":3336,"sideResp":2,"stimulus":[],"xmouse":[809,809,810,810,810,812,812,813,813,813,813,813,813,813,813,813,813,813,813,813,813,813,813,813,813,813,813,813,813,813,813,813,813,813,813,813,813,813,813,813,813,813,813,813,813,813,813,813,813,813,813,813,813,813,813,813,813,813,813,813,813,813,813,813,813,813,813,813,813,813,813,813,813,813,813,813,813,813,813,813,813,813,813,813,813,813,813,813,813,813,813,813,813,814,814,814,814,814,814,814,811,798,771,767,766,764,762,758,755,754,752,751,748,748,748,748,749,751,752,752,754,755,756,756,762,766,775,784,784,784,784,784,784,784,784,784,784,784,786,787,788,795,819,838,853,870,884,927,965,1024,1044,1058,1082,1097,1110,1121,1135,1155,1160,1164,1167,1168,1168,1168,1167,1164,1160,1154],"ymouse":[507,507,507,507,507,507,507,506,506,506,506,506,506,506,506,506,506,506,506,506,506,506,506,506,506,506,506,506,506,506,506,506,506,506,506,506,506,506,506,506,506,506,506,506,506,506,506,506,506,506,506,506,506,506,506,506,506,506,506,506,506,506,506,506,506,506,506,506,506,506,506,506,506,506,506,506,506,506,506,506,506,506,506,506,506,506,506,506,506,506,506,506,506,505,505,505,505,505,505,505,510,521,539,541,542,544,546,554,559,561,564,570,581,585,588,591,594,600,604,607,611,613,614,615,615,615,615,613,613,613,613,613,613,613,613,613,613,613,610,607,606,595,560,534,513,492,473,427,377,308,288,277,255,240,224,209,192,158,148,135,126,118,105,99,94,89,83,75],"timestamp_mouse":[11,27,48,67,87,107,128,147,167,188,207,228,247,266,287,307,327,346,367,387,407,428,448,468,488,507,527,547,567,587,607,627,646,666,687,707,728,748,767,787,807,827,846,868,888,908,927,948,966,986,1006,1028,1048,1067,1088,1107,1128,1147,1167,1187,1207,1228,1247,1268,1288,1308,1328,1347,1368,1387,1406,1427,1448,1467,1487,1507,1528,1548,1566,1587,1607,1627,1648,1667,1687,1708,1727,1748,1768,1787,1807,1827,1847,1867,1887,1908,1927,1947,1967,1987,2007,2028,2046,2068,2087,2106,2127,2147,2166,2188,2206,2227,2247,2267,2287,2306,2327,2347,2367,2387,2407,2427,2447,2467,2487,2508,2527,2546,2568,2587,2607,2626,2647,2668,2687,2707,2728,2747,2768,2788,2808,2826,2846,2868,2886,2906,2926,2946,2967,2987,3007,3026,3046,3068,3087,3108,3128,3147,3167,3187,3207,3228,3246,3266,3288,3307,3327,3346],"xSR":741.5,"ySR":469.95,"xT1":424.9,"yT1":0,"xT2":1058.1,"yT2":0,"toosoon":0,"cond_shown":"Incongruent","ratio_trial":300,"L_num":13,"L_den":26,"R_num":12,"R_den":15,"correct_side":2,"subjID":"nataliasofiasanchez32","gender":"1","school":"4","age":"9"},{"start_time":1552313296600,"click_time":1552313298303,"finger_time":1552313297982,"fix_duration":537.5024753523359,"trial":32,"RT":1382,"MT":321,"sideResp":1,"stimulus":[],"xmouse":[772,772,772,772,772,772,772,772,772,772,772,772,772,772,772,772,772,772,772,772,772,772,772,772,772,772,772,772,772,772,772,772,772,772,772,772,772,772,772,772,772,772,772,772,772,772,772,772,772,772,772,772,772,772,772,772,772,772,772,772,772,772,772,772,772,772,772,778,784,792,798,809,809,806,792,784,705,662,616,576,533,531,529,527,525,520],"ymouse":[611,611,611,611,611,611,611,611,611,611,611,611,611,611,611,611,611,611,611,611,611,611,611,611,611,611,611,611,611,611,611,611,611,611,611,611,611,611,611,611,611,611,611,611,611,611,611,611,611,611,611,611,611,611,611,611,611,611,611,611,611,611,611,611,611,611,608,594,576,552,527,403,327,234,120,62,0,0,0,0,0,0,2,8,22,58],"timestamp_mouse":[7,33,40,60,82,101,120,141,160,180,202,222,242,262,281,302,321,341,362,380,402,422,441,462,481,501,522,541,561,580,602,622,641,660,680,702,721,742,761,782,802,822,841,860,880,902,922,941,961,981,1002,1021,1041,1062,1081,1102,1122,1141,1161,1181,1202,1221,1241,1262,1282,1301,1320,1340,1362,1382,1401,1420,1441,1461,1482,1501,1521,1541,1562,1581,1604,1621,1641,1661,1681,1703],"xSR":741.5,"ySR":573.95,"xT1":424.9,"yT1":0,"xT2":1058.1,"yT2":0,"toosoon":0,"cond_shown":"Congruent","ratio_trial":200,"L_num":15,"L_den":25,"R_num":4,"R_den":10,"correct_side":1,"subjID":"nataliasofiasanchez32","gender":"1","school":"4","age":"9"},{"start_time":1552313301247,"click_time":1552313302361,"finger_time":1552313301662,"fix_duration":805.1592398752532,"trial":33,"RT":415,"MT":699,"sideResp":2,"stimulus":[],"xmouse":[768,768,768,768,768,768,768,768,768,768,768,768,768,768,768,768,768,768,788,797,803,807,812,815,815,815,815,815,815,815,815,815,815,823,834,845,855,867,888,905,926,956,984,1022,1031,1042,1052,1064,1098,1111,1118,1125,1130,1132,1132,1132],"ymouse":[606,606,606,606,606,606,606,606,606,606,606,606,606,606,606,606,606,606,586,574,567,560,553,550,550,550,550,550,550,550,550,550,549,534,518,502,484,456,410,381,344,291,226,111,66,13,0,0,0,0,0,0,0,0,0,1],"timestamp_mouse":[14,39,54,74,94,115,135,154,173,193,215,235,253,274,294,313,334,355,374,394,415,434,455,474,494,513,535,554,574,594,614,634,655,674,694,713,734,755,774,794,814,834,854,873,894,914,934,953,975,993,1014,1034,1054,1074,1095,1114],"xSR":741.5,"ySR":573.95,"xT1":424.9,"yT1":0,"xT2":1058.1,"yT2":0,"toosoon":0,"cond_shown":"Incongruent","ratio_trial":100,"L_num":9,"L_den":15,"R_num":14,"R_den":28,"correct_side":1,"subjID":"nataliasofiasanchez32","gender":"1","school":"4","age":"9"},{"start_time":1552313303972,"click_time":1552313306429,"finger_time":1552313305622,"fix_duration":250,"trial":34,"RT":1650,"MT":807,"sideResp":1,"stimulus":[],"xmouse":[790,790,790,790,790,790,790,790,790,790,790,790,790,790,790,790,790,790,790,790,790,790,790,790,790,790,790,790,790,790,790,790,790,790,790,790,790,790,790,790,790,790,790,790,790,790,790,790,790,790,790,790,790,790,790,790,790,790,790,790,790,790,790,790,790,790,790,790,790,790,790,790,790,790,790,790,790,790,790,789,777,758,703,682,671,662,650,641,631,629,626,625,623,623,620,619,617,615,614,614,612,611,609,608,607,604,602,599,597,596,595,594,592,585,581,575,569,555,545,539,532,527,509],"ymouse":[622,622,622,622,622,622,622,622,622,622,622,622,622,622,622,622,622,622,622,622,622,622,622,622,622,622,622,622,622,622,622,622,622,622,622,622,622,622,622,622,622,622,622,622,622,622,622,622,622,622,622,622,622,622,622,622,622,622,622,622,622,622,622,622,622,622,622,622,622,622,622,622,622,622,622,622,622,622,622,621,607,587,535,504,480,454,427,405,376,370,365,362,358,355,351,346,342,338,327,316,307,299,290,277,270,262,257,251,248,248,246,244,242,231,218,200,177,133,106,91,81,75,59],"timestamp_mouse":[13,37,49,70,88,109,130,149,169,190,210,228,249,269,288,309,329,349,370,388,410,429,449,470,489,510,529,549,569,588,609,629,648,669,690,709,729,749,770,789,810,828,849,870,888,909,930,949,970,990,1009,1030,1049,1069,1089,1108,1130,1149,1169,1189,1210,1228,1248,1270,1289,1309,1330,1348,1370,1390,1408,1429,1450,1468,1488,1509,1530,1549,1570,1590,1610,1630,1650,1668,1690,1709,1728,1749,1768,1789,1810,1828,1849,1869,1888,1910,1928,1949,1968,1989,2010,2030,2049,2070,2090,2110,2129,2149,2169,2189,2210,2230,2248,2268,2289,2309,2329,2350,2369,2389,2409,2428,2456],"xSR":741.5,"ySR":573.95,"xT1":424.9,"yT1":0,"xT2":1058.1,"yT2":0,"toosoon":0,"cond_shown":"Congruent","ratio_trial":100,"L_num":11,"L_den":22,"R_num":4,"R_den":10,"correct_side":1,"subjID":"nataliasofiasanchez32","gender":"1","school":"4","age":"9"},{"start_time":1552313310332,"click_time":1552313311981,"finger_time":1552313310982,"fix_duration":990.3264668487827,"trial":35,"RT":650,"MT":999,"sideResp":1,"stimulus":[],"xmouse":[795,795,795,795,795,795,795,795,795,795,795,795,795,795,795,795,795,795,795,795,795,795,795,795,795,795,795,795,795,796,811,825,846,867,900,953,964,967,968,968,968,968,968,968,972,981,987,992,998,999,1000,998,993,989,986,985,979,967,937,915,853,803,754,704,668,616,596,588,585,584,584,584,584,584,584,583,581,578,572,566,548,535,520],"ymouse":[598,598,598,598,598,598,598,598,598,598,598,598,598,598,598,598,598,598,598,598,598,598,598,598,598,598,598,598,598,598,586,584,578,566,546,501,483,473,468,459,418,392,370,354,340,312,298,285,273,267,259,254,248,244,242,241,241,241,235,226,192,165,129,94,66,27,14,7,5,5,5,5,5,5,5,6,10,14,20,22,24,26,28],"timestamp_mouse":[13,41,50,68,88,109,130,150,168,189,209,229,250,269,289,308,328,349,368,388,408,428,449,470,490,509,530,549,569,590,608,628,649,668,688,709,730,750,769,790,808,829,848,869,888,909,929,949,969,989,1010,1028,1049,1068,1089,1109,1129,1149,1169,1189,1208,1230,1249,1269,1289,1309,1330,1350,1370,1389,1410,1429,1448,1469,1489,1508,1530,1550,1569,1589,1608,1630,1649],"xSR":741.5,"ySR":573.95,"xT1":424.9,"yT1":0,"xT2":1058.1,"yT2":0,"toosoon":0,"cond_shown":"Incongruent","ratio_trial":200,"L_num":3,"L_den":4,"R_num":11,"R_den":20,"correct_side":1,"subjID":"nataliasofiasanchez32","gender":"1","school":"4","age":"9"},{"start_time":1552313314217,"click_time":1552313317861,"finger_time":1552313317221,"fix_duration":375.5133375562814,"trial":36,"RT":3004,"MT":640,"sideResp":1,"stimulus":[],"xmouse":[747,747,747,747,747,747,747,747,747,747,747,747,747,747,747,747,747,747,747,747,747,747,747,747,747,747,747,747,747,747,747,747,747,747,747,747,747,747,747,747,747,747,747,747,747,747,747,747,747,747,747,747,747,747,747,747,747,747,747,747,747,747,747,747,747,747,747,747,747,747,747,747,747,747,747,747,747,747,747,747,747,747,747,747,747,747,747,747,747,747,747,747,747,747,747,747,747,747,747,747,747,747,747,747,747,747,747,747,747,747,747,747,747,747,747,747,747,747,747,747,747,747,747,747,747,747,747,747,747,747,747,747,747,747,747,747,747,747,747,747,747,747,747,747,747,747,747,747,747,743,741,732,719,716,713,712,709,704,700,694,685,676,666,659,648,636,622,593,582,573,566,565,565,565,563,562,559,550,545,540,534,528,511],"ymouse":[633,633,633,633,633,633,633,633,633,633,633,633,633,633,633,633,633,633,633,633,633,633,633,633,633,633,633,633,633,633,633,633,633,633,633,633,633,633,633,633,633,633,633,633,633,633,633,633,633,633,633,633,633,633,633,633,633,633,633,633,633,633,633,633,633,633,633,633,633,633,633,633,633,633,633,633,633,633,633,633,633,633,633,633,633,633,633,633,633,633,633,633,633,633,633,633,633,633,633,633,633,633,633,633,633,633,633,633,633,633,633,633,633,633,633,633,633,633,633,633,633,633,633,633,633,633,633,633,633,633,633,633,633,633,633,633,633,633,633,633,633,633,633,633,633,633,633,633,633,628,626,610,574,547,513,484,460,416,394,371,345,312,275,258,240,222,204,176,168,163,159,157,157,157,154,151,142,125,118,114,108,103,94],"timestamp_mouse":[13,24,44,64,83,105,123,144,165,183,204,225,245,264,284,303,325,345,364,383,403,424,444,464,484,504,523,544,565,584,604,623,645,665,685,705,723,745,764,785,805,824,845,865,883,904,924,945,963,984,1003,1025,1043,1064,1085,1104,1123,1145,1165,1184,1204,1224,1245,1265,1284,1305,1325,1345,1363,1384,1405,1425,1443,1463,1484,1505,1523,1543,1563,1584,1605,1624,1645,1665,1685,1704,1723,1745,1765,1785,1805,1825,1843,1865,1884,1903,1925,1944,1964,1985,2004,2024,2044,2064,2085,2105,2123,2144,2163,2184,2204,2225,2245,2263,2285,2305,2325,2343,2363,2385,2404,2425,2445,2463,2484,2504,2523,2544,2565,2583,2605,2625,2644,2663,2684,2703,2725,2744,2764,2785,2804,2825,2843,2865,2884,2904,2925,2945,2964,2984,3004,3024,3045,3064,3083,3104,3123,3143,3163,3185,3204,3225,3245,3265,3284,3304,3323,3344,3364,3383,3403,3425,3445,3465,3485,3505,3524,3543,3563,3584,3604,3625,3644],"xSR":741.5,"ySR":573.95,"xT1":424.9,"yT1":0,"xT2":1058.1,"yT2":0,"toosoon":0,"cond_shown":"Congruent","ratio_trial":100,"L_num":6,"L_den":20,"R_num":5,"R_den":25,"correct_side":1,"subjID":"nataliasofiasanchez32","gender":"1","school":"4","age":"9"},{"start_time":1552313320429,"click_time":1552313322202,"finger_time":1552313321621,"fix_duration":1267.6416979793794,"trial":37,"RT":1192,"MT":581,"sideResp":1,"stimulus":[],"xmouse":[789,789,789,789,789,789,789,789,789,789,789,789,789,789,789,789,789,789,789,789,789,789,789,789,789,789,789,789,789,789,789,789,789,789,789,789,790,790,790,790,790,790,790,790,790,790,790,790,790,790,790,790,790,790,790,790,788,785,782,777,773,766,759,752,744,737,724,719,710,704,699,680,669,660,651,644,625,615,599,592,585,574,570,565,560,554,540,529,523],"ymouse":[624,624,624,624,624,624,624,624,624,624,624,624,624,624,624,624,624,624,624,624,624,624,624,624,624,624,624,624,624,624,624,624,624,624,624,624,623,618,616,614,613,613,613,613,613,613,613,613,613,613,613,613,613,612,611,605,597,589,585,571,562,545,532,515,497,479,442,421,403,392,379,337,317,300,287,274,243,224,196,177,158,127,114,104,93,80,60,48,45],"timestamp_mouse":[13,34,53,71,93,113,132,152,171,193,213,231,252,272,291,313,332,351,373,391,413,432,451,473,493,511,532,552,571,592,612,631,651,673,692,712,732,753,771,792,813,832,852,872,891,912,932,952,972,992,1012,1031,1052,1072,1092,1111,1132,1152,1172,1192,1212,1232,1251,1272,1291,1312,1332,1351,1372,1392,1412,1432,1451,1472,1493,1512,1533,1552,1573,1593,1613,1632,1652,1673,1692,1712,1732,1752,1772],"xSR":741.5,"ySR":573.95,"xT1":424.9,"yT1":0,"xT2":1058.1,"yT2":0,"toosoon":0,"cond_shown":"Congruent","ratio_trial":200,"L_num":3,"L_den":10,"R_num":11,"R_den":22,"correct_side":2,"subjID":"nataliasofiasanchez32","gender":"1","school":"4","age":"9"},{"start_time":1552313326472,"click_time":1552313328522,"finger_time":1552313327980,"fix_duration":389.735493905224,"trial":38,"RT":1508,"MT":542,"sideResp":1,"stimulus":[],"xmouse":[810,810,810,810,810,810,810,810,809,809,809,809,808,808,808,808,808,808,808,808,808,808,808,808,808,808,808,808,808,808,808,808,808,808,808,808,808,808,808,808,808,808,808,808,808,808,808,808,808,808,808,808,808,808,808,808,808,808,808,808,808,808,808,808,808,808,808,808,808,808,808,808,808,807,788,733,723,717,716,716,716,715,706,688,643,547,483,438,406,392,385,384,383,383,386,397,405,413,422,429,439,441,442],"ymouse":[593,593,593,593,593,593,593,593,593,593,593,593,594,594,594,594,594,594,594,594,594,594,594,594,594,594,594,594,594,594,594,594,594,594,594,594,594,594,594,594,594,594,594,594,594,595,595,595,595,595,595,595,595,595,595,595,595,595,595,595,595,595,595,595,595,595,595,595,595,595,595,595,595,596,581,507,483,473,472,472,472,469,457,431,368,262,209,174,150,139,127,125,124,124,120,118,118,117,116,115,112,110,94],"timestamp_mouse":[10,42,49,70,90,109,130,150,170,189,208,229,250,268,290,308,329,349,370,390,410,428,448,468,490,510,528,550,570,588,610,629,650,669,690,709,728,750,770,790,808,829,850,870,889,908,929,950,968,989,1009,1029,1049,1068,1090,1110,1129,1150,1170,1189,1210,1229,1249,1269,1290,1308,1329,1348,1370,1389,1409,1428,1448,1469,1489,1508,1529,1548,1569,1589,1610,1629,1650,1669,1690,1709,1728,1749,1770,1789,1809,1828,1850,1870,1890,1909,1928,1949,1968,1988,2009,2029,2050],"xSR":741.5,"ySR":573.95,"xT1":424.9,"yT1":0,"xT2":1058.1,"yT2":0,"toosoon":0,"cond_shown":"Congruent","ratio_trial":300,"L_num":20,"L_den":25,"R_num":8,"R_den":16,"correct_side":1,"subjID":"nataliasofiasanchez32","gender":"1","school":"4","age":"9"},{"start_time":1552313331339,"click_time":1552313333382,"finger_time":1552313332941,"fix_duration":1157.357878541348,"trial":39,"RT":1602,"MT":441,"sideResp":2,"stimulus":[],"xmouse":[785,785,785,785,785,785,785,785,785,785,785,785,785,785,785,785,785,785,785,785,785,785,785,785,785,785,785,785,785,785,785,785,785,785,785,785,785,785,785,785,785,785,785,785,785,785,785,785,785,785,785,785,785,785,785,785,785,785,785,785,785,785,785,785,785,785,785,785,785,785,785,785,785,785,785,785,785,785,786,810,851,887,964,993,1015,1031,1041,1050,1056,1059,1059,1059,1060,1061,1065,1066,1069,1072,1085,1094,1100,1105,1108],"ymouse":[614,614,614,614,614,614,614,614,614,614,614,614,614,614,614,614,614,614,614,614,614,614,614,614,614,614,614,614,614,614,614,614,614,614,614,614,614,614,614,614,614,614,614,614,614,614,614,614,614,614,614,614,614,614,614,614,614,614,614,614,614,614,614,614,614,614,614,614,614,614,614,614,614,614,614,614,614,614,614,607,590,570,506,472,443,410,379,348,305,284,274,265,249,241,229,221,212,203,175,158,136,112,87],"timestamp_mouse":[6,26,42,62,82,102,123,141,163,182,201,223,242,262,282,302,322,342,363,382,402,422,442,463,482,501,521,543,562,582,602,622,642,663,682,702,722,741,762,781,801,823,842,861,883,902,921,943,962,983,1001,1022,1043,1063,1082,1102,1122,1143,1162,1181,1202,1223,1243,1262,1281,1302,1322,1343,1363,1382,1403,1423,1443,1463,1483,1502,1522,1543,1562,1583,1602,1623,1643,1662,1682,1701,1722,1742,1763,1782,1802,1823,1843,1861,1883,1903,1922,1942,1962,1982,2001,2022,2042],"xSR":741.5,"ySR":573.95,"xT1":424.9,"yT1":0,"xT2":1058.1,"yT2":0,"toosoon":0,"cond_shown":"Congruent","ratio_trial":200,"L_num":9,"L_den":30,"R_num":13,"R_den":26,"correct_side":2,"subjID":"nataliasofiasanchez32","gender":"1","school":"4","age":"9"},{"start_time":1552313334952,"click_time":1552313338582,"finger_time":1552313337501,"fix_duration":250,"trial":40,"RT":2549,"MT":1081,"sideResp":2,"stimulus":[],"xmouse":[810,810,810,810,810,810,810,810,810,810,810,810,810,810,810,810,810,810,810,810,810,810,810,810,810,810,810,810,810,810,810,810,810,810,810,810,810,810,810,810,810,810,810,810,810,810,810,810,810,810,810,810,810,810,810,810,810,810,810,810,810,810,810,810,810,810,810,810,810,810,810,810,810,810,810,810,810,810,810,810,810,810,810,810,810,810,810,810,810,810,810,810,810,810,810,810,810,810,810,810,810,810,810,810,810,810,810,810,810,810,810,810,810,810,810,810,810,810,810,810,810,810,810,810,811,818,829,846,856,873,892,919,952,975,980,993,998,1005,1007,1009,1012,1017,1029,1033,1043,1051,1057,1062,1065,1066,1067,1068,1071,1073,1075,1078,1078,1081,1084,1086,1086,1086,1086,1086,1086,1086,1086,1086,1086,1086,1086,1086,1086,1086,1086,1086,1086,1087,1089,1089,1091,1094],"ymouse":[653,653,653,653,653,653,653,653,653,653,653,653,653,653,653,653,653,653,653,653,653,653,653,653,653,653,653,653,653,653,653,653,653,653,653,653,653,653,653,653,653,653,653,653,653,653,653,653,653,653,653,653,653,653,653,653,653,653,653,653,653,653,653,653,653,653,653,653,653,653,653,653,653,653,653,653,653,653,653,653,653,653,653,653,653,653,653,653,653,653,653,653,653,653,653,653,653,653,653,653,653,653,653,653,653,653,653,653,653,653,654,654,654,654,654,654,654,654,654,654,654,654,654,654,654,654,652,649,645,635,622,599,557,525,517,497,486,458,438,414,387,367,333,316,281,244,205,175,171,168,165,163,156,152,147,141,138,134,125,120,119,119,119,119,119,119,119,119,119,119,119,119,119,119,119,119,119,118,113,111,107,99],"timestamp_mouse":[18,30,50,69,89,110,128,149,169,190,210,230,248,270,289,310,329,349,370,390,409,429,448,470,490,508,528,550,570,589,609,630,648,669,689,710,730,750,769,789,808,828,850,870,889,910,929,950,968,990,1009,1030,1050,1068,1090,1110,1130,1149,1169,1189,1208,1230,1249,1270,1290,1309,1328,1348,1368,1390,1410,1430,1449,1470,1489,1508,1529,1549,1569,1590,1608,1630,1648,1669,1689,1709,1729,1749,1769,1788,1808,1830,1849,1868,1889,1909,1930,1949,1969,1988,2010,2029,2049,2069,2088,2110,2129,2149,2170,2190,2209,2229,2249,2269,2288,2308,2329,2350,2369,2390,2408,2429,2449,2469,2489,2509,2528,2549,2570,2589,2609,2630,2649,2668,2689,2710,2729,2748,2768,2788,2809,2828,2849,2869,2889,2910,2928,2948,2970,2988,3008,3029,3050,3069,3090,3109,3129,3148,3169,3190,3208,3230,3249,3270,3288,3309,3330,3349,3369,3388,3409,3430,3449,3469,3490,3510,3528,3549,3570,3589,3609,3629],"xSR":741.5,"ySR":573.95,"xT1":424.9,"yT1":0,"xT2":1058.1,"yT2":0,"toosoon":0,"cond_shown":"Congruent","ratio_trial":100,"L_num":11,"L_den":22,"R_num":6,"R_den":15,"correct_side":1,"subjID":"nataliasofiasanchez32","gender":"1","school":"4","age":"9"},{"start_time":1552313347178,"click_time":1552313349141,"finger_time":1552313348721,"fix_duration":256.3093467223092,"trial":41,"RT":1543,"MT":420,"sideResp":1,"stimulus":[],"xmouse":[815,815,815,815,815,815,815,815,815,815,815,815,814,813,813,813,813,813,813,813,813,813,813,813,813,813,812,810,810,810,810,810,810,810,810,810,810,810,810,810,810,810,810,810,810,810,810,810,810,810,810,810,810,810,810,810,810,810,810,810,810,810,810,810,810,810,810,810,810,810,810,810,810,810,812,815,816,812,797,771,741,707,656,635,613,600,592,584,578,575,570,566,558,554,548,540,530,511,503],"ymouse":[652,652,652,652,652,652,652,652,651,651,651,651,651,651,651,651,651,651,651,651,651,651,651,650,642,629,618,608,608,608,608,608,608,608,608,608,608,608,608,608,608,608,608,608,608,608,608,608,608,608,608,608,608,608,608,608,608,608,608,608,608,608,608,608,608,608,608,608,608,608,608,608,608,606,600,590,577,540,507,469,423,376,306,276,243,224,210,189,180,177,173,169,159,155,146,134,121,102,95],"timestamp_mouse":[10,23,48,63,83,103,124,143,164,182,203,222,243,263,283,303,324,343,363,383,403,422,443,463,483,503,524,543,562,584,603,623,643,663,683,703,724,743,763,783,804,822,843,862,883,903,922,944,964,983,1002,1022,1043,1064,1083,1103,1123,1143,1163,1183,1204,1223,1242,1264,1283,1304,1322,1343,1363,1384,1403,1424,1443,1463,1483,1502,1524,1543,1563,1582,1603,1623,1644,1663,1683,1704,1724,1744,1763,1783,1803,1824,1844,1863,1883,1903,1922,1944,1963],"xSR":741.5,"ySR":573.95,"xT1":424.9,"yT1":0,"xT2":1058.1,"yT2":0,"toosoon":0,"cond_shown":"Incongruent","ratio_trial":100,"L_num":6,"L_den":10,"R_num":11,"R_den":22,"correct_side":1,"subjID":"nataliasofiasanchez32","gender":"1","school":"4","age":"9"},{"start_time":1552313350913,"click_time":1552313352863,"finger_time":1552313352340,"fix_duration":250,"trial":42,"RT":1427,"MT":523,"sideResp":2,"stimulus":[],"xmouse":[746,746,746,746,746,746,746,746,746,746,746,746,746,746,746,746,746,746,746,746,746,746,746,746,746,746,746,746,746,746,746,746,746,746,746,746,746,746,746,746,746,746,746,746,746,746,746,746,746,746,746,747,747,747,747,747,747,747,747,748,749,758,767,774,778,779,789,795,802,810,828,852,860,870,887,911,968,995,1017,1029,1035,1073,1094,1104,1113,1120,1132,1136,1137,1138,1139,1140,1140,1141,1141,1141,1145,1151],"ymouse":[647,647,647,647,647,647,647,647,647,647,647,647,647,647,647,647,647,647,647,647,647,647,647,647,647,647,647,647,647,647,647,647,647,647,647,647,647,647,647,647,647,647,647,647,647,647,647,647,647,647,647,647,647,647,647,647,647,647,647,647,647,639,634,630,627,625,620,616,612,605,592,572,562,551,532,508,437,396,363,343,332,257,223,204,190,177,151,143,137,134,132,128,127,125,124,123,114,98],"timestamp_mouse":[18,36,49,68,88,109,128,147,168,189,207,227,249,267,288,307,328,348,368,388,409,428,448,468,488,509,528,549,567,589,609,627,648,667,689,707,728,747,769,788,809,829,847,869,889,909,929,949,968,989,1009,1028,1047,1068,1089,1109,1128,1148,1168,1189,1209,1228,1248,1269,1289,1308,1328,1349,1369,1388,1409,1427,1448,1467,1488,1507,1527,1549,1569,1588,1609,1629,1648,1668,1688,1708,1728,1749,1767,1787,1809,1827,1847,1868,1889,1909,1928,1949],"xSR":741.5,"ySR":573.95,"xT1":424.9,"yT1":0,"xT2":1058.1,"yT2":0,"toosoon":0,"cond_shown":"Incongruent","ratio_trial":300,"L_num":4,"L_den":20,"R_num":2,"R_den":4,"correct_side":2,"subjID":"nataliasofiasanchez32","gender":"1","school":"4","age":"9"},{"start_time":1552313356940,"click_time":1552313358841,"finger_time":1552313358442,"fix_duration":577.436941063738,"trial":43,"RT":1502,"MT":399,"sideResp":1,"stimulus":[],"xmouse":[804,804,804,804,804,804,804,804,804,804,804,804,804,804,804,804,804,804,804,804,804,804,804,805,804,802,795,793,793,793,793,793,793,793,793,793,793,793,793,793,793,793,793,793,793,793,793,793,793,793,793,793,793,793,793,793,793,793,793,793,793,793,793,793,793,793,793,793,793,793,792,791,786,781,777,754,738,726,716,709,703,693,686,675,665,657,632,619,605,589,564,548,529,510,488,462],"ymouse":[611,611,611,611,611,611,611,611,611,611,611,611,611,611,611,611,611,611,611,611,611,611,611,610,610,610,608,606,606,606,606,606,606,606,606,606,606,606,606,606,606,606,606,606,606,606,606,606,606,606,606,606,606,606,606,606,606,606,606,606,606,606,606,606,606,606,606,606,606,606,606,605,601,597,592,558,530,512,495,483,474,457,445,430,409,381,305,278,254,228,184,161,138,120,102,84],"timestamp_mouse":[12,21,40,62,81,101,122,142,161,182,201,222,241,261,282,301,322,341,360,380,402,422,441,461,482,501,520,542,561,582,601,620,641,661,681,702,722,740,761,782,802,821,841,861,882,901,922,942,961,980,1001,1021,1040,1062,1082,1100,1122,1141,1162,1181,1202,1222,1242,1262,1281,1302,1322,1340,1361,1382,1402,1421,1441,1461,1481,1502,1521,1541,1561,1582,1600,1621,1641,1661,1681,1702,1722,1740,1761,1780,1802,1821,1841,1862,1881,1900],"xSR":741.5,"ySR":573.95,"xT1":424.9,"yT1":0,"xT2":1058.1,"yT2":0,"toosoon":0,"cond_shown":"Incongruent","ratio_trial":200,"L_num":7,"L_den":10,"R_num":8,"R_den":16,"correct_side":1,"subjID":"nataliasofiasanchez32","gender":"1","school":"4","age":"9"},{"start_time":1552313361746,"click_time":1552313363401,"finger_time":1552313362361,"fix_duration":363.110568991025,"trial":44,"RT":615,"MT":1040,"sideResp":1,"stimulus":[],"xmouse":[770,770,770,770,770,770,770,770,770,770,770,770,770,770,770,770,770,770,770,770,770,770,770,770,770,770,770,770,771,773,783,787,788,789,789,789,789,789,789,789,789,789,789,789,789,789,789,789,789,789,789,789,791,803,811,818,823,823,823,819,803,794,786,777,773,753,736,715,681,644,568,525,483,421,385,355,354,354,354,356,377,403,425],"ymouse":[599,599,599,599,599,599,599,599,599,599,599,599,599,599,599,599,599,599,599,599,599,599,599,599,599,599,599,599,598,593,561,553,549,547,547,547,547,547,547,547,547,547,547,547,547,547,547,547,547,547,547,547,539,509,487,463,427,415,403,389,363,350,337,320,310,284,263,235,188,138,29,0,0,0,0,0,0,0,0,3,20,30,40],"timestamp_mouse":[16,36,56,76,96,115,134,155,176,196,215,235,255,276,294,315,335,355,374,396,414,436,456,475,496,514,534,555,575,595,615,634,654,675,696,716,735,756,774,796,815,835,856,874,896,915,935,954,975,995,1016,1034,1055,1076,1095,1114,1136,1155,1175,1196,1215,1234,1256,1275,1295,1315,1336,1355,1374,1395,1416,1434,1456,1475,1496,1515,1536,1556,1575,1595,1616,1634,1655],"xSR":741.5,"ySR":573.95,"xT1":424.9,"yT1":0,"xT2":1058.1,"yT2":0,"toosoon":0,"cond_shown":"Congruent","ratio_trial":300,"L_num":20,"L_den":25,"R_num":13,"R_den":26,"correct_side":1,"subjID":"nataliasofiasanchez32","gender":"1","school":"4","age":"9"},{"start_time":1552313368340,"click_time":1552313370061,"finger_time":1552313369462,"fix_duration":637.772205064773,"trial":45,"RT":1122,"MT":599,"sideResp":2,"stimulus":[],"xmouse":[791,791,791,791,791,791,791,791,791,791,791,791,791,791,791,791,791,791,791,791,791,791,791,791,791,792,793,795,795,795,795,795,795,795,795,795,795,795,795,795,795,795,795,795,795,795,795,795,795,795,795,795,795,798,801,813,836,847,864,881,903,946,961,977,992,1005,1034,1047,1060,1071,1091,1119,1131,1141,1146,1153,1163,1167,1170,1171,1171,1170,1167,1163,1160,1156],"ymouse":[593,593,593,593,593,593,593,593,593,593,593,593,593,593,593,593,593,593,593,593,593,593,593,593,593,592,589,585,584,583,583,583,583,583,583,583,583,583,583,583,583,583,583,583,583,583,583,583,583,583,583,583,583,580,579,573,557,545,524,504,478,434,418,400,381,365,329,312,294,277,247,205,184,166,153,137,113,101,94,87,85,73,69,65,63,60],"timestamp_mouse":[22,40,60,81,101,121,141,160,181,201,221,240,261,282,301,321,341,362,381,401,421,441,461,480,500,522,542,560,581,602,621,642,660,682,702,722,741,760,780,802,822,841,861,881,902,921,940,962,982,1001,1022,1041,1060,1081,1101,1122,1141,1162,1181,1202,1222,1241,1260,1280,1301,1320,1341,1361,1382,1401,1421,1441,1461,1482,1500,1521,1540,1562,1582,1602,1622,1641,1660,1682,1702,1721],"xSR":741.5,"ySR":573.95,"xT1":424.9,"yT1":0,"xT2":1058.1,"yT2":0,"toosoon":0,"cond_shown":"Incongruent","ratio_trial":300,"L_num":13,"L_den":26,"R_num":12,"R_den":15,"correct_side":2,"subjID":"nataliasofiasanchez32","gender":"1","school":"4","age":"9"},{"start_time":1552313376073,"click_time":1552313381262,"finger_time":1552313380501,"fix_duration":250,"trial":46,"RT":4428,"MT":761,"sideResp":2,"stimulus":[],"xmouse":[797,797,797,797,797,797,797,797,797,797,797,797,797,797,797,797,797,797,797,797,797,797,797,797,797,798,798,798,798,798,798,798,798,798,798,798,798,798,798,798,798,798,798,798,798,798,798,798,798,798,798,798,798,798,798,798,798,798,798,798,798,798,798,798,798,798,798,798,798,798,798,798,798,798,798,798,798,798,798,798,798,798,798,798,798,798,798,798,798,798,798,798,798,798,798,798,798,798,798,798,798,798,798,798,798,798,798,798,798,798,798,798,798,798,798,798,798,798,798,798,798,798,798,798,798,798,798,798,798,798,798,798,798,798,798,798,798,798,798,798,798,798,798,798,798,798,798,798,798,798,798,798,798,798,798,798,798,798,798,798,798,798,798,798,798,798,798,798,798,798,798,798,798,798,798,798,798,798,798,798,798,798,798,798,798,798,798,798,798,798,798,798,798,798,798,798,798,798,798,798,798,798,798,798,798,798,798,798,798,798,798,798,798,798,798,798,798,798,798,802,803,809,812,813,813,813,813,813,813,813,813,813,813,813,813,813,813,817,845,868,887,943,988,1035,1083,1114,1152,1161,1167,1171,1173,1174,1174,1174,1174,1174,1173,1169,1163,1153],"ymouse":[602,602,602,602,602,602,602,602,602,602,602,602,602,602,602,602,602,602,602,602,602,602,602,602,602,602,602,602,602,602,602,602,602,602,602,602,602,602,602,602,602,602,602,602,602,602,602,602,602,602,602,602,602,602,602,602,602,602,602,602,602,602,602,602,602,602,602,602,602,602,602,602,602,602,602,602,602,602,602,602,602,602,602,602,602,602,602,602,602,602,602,602,602,602,602,602,602,602,602,602,602,602,602,602,602,602,602,602,602,602,602,