[{"start_time":1552313916926,"click_time":1552313918723,"finger_time":1552313918342,"fix_duration":780.8321003895024,"trial":0,"RT":1416,"MT":381,"sideResp":1,"stimulus":"img/250/randomdotsizeEA/L/1_Ratio_250_L_8_R_2.png","xmouse":[784,784,784,784,784,784,784,784,784,784,784,784,784,784,784,784,784,784,784,784,784,784,784,784,784,784,784,784,784,784,784,784,784,784,784,784,784,784,784,784,784,784,784,784,784,784,784,784,784,784,784,784,784,784,784,785,787,788,788,788,789,789,789,789,789,789,789,789,789,793,789,745,683,611,550,550,550,550,550,550,550,550,550,550,550,550,550,550,550,519],"ymouse":[523,523,523,523,523,523,523,523,523,523,523,523,523,523,523,523,523,523,523,523,523,523,523,523,523,523,523,523,523,523,523,523,523,523,523,523,523,523,523,523,523,523,523,523,523,523,523,523,523,523,523,523,523,523,523,523,522,522,522,522,522,522,522,522,522,522,522,522,522,508,375,242,135,61,11,11,11,11,11,11,11,11,11,11,11,11,11,11,11,9],"timestamp_mouse":[16,37,57,77,96,117,136,157,177,196,217,236,256,276,297,316,337,356,377,397,416,436,456,476,496,517,537,557,577,597,617,636,656,677,696,716,737,756,776,795,816,837,857,876,896,917,936,956,977,995,1017,1036,1057,1077,1096,1116,1136,1157,1177,1196,1216,1236,1257,1276,1296,1317,1337,1355,1376,1396,1416,1436,1456,1476,1496,1517,1537,1556,1576,1597,1617,1636,1655,1676,1696,1717,1736,1756,1776,1796],"xSR":741.5,"ySR":469.95,"xT1":424.9,"yT1":0,"xT2":1058.1,"yT2":0,"toosoon":0,"cond_shown":"randomdotsizeEA","ratio_trial":250,"smaller_num":"2","larger_num":"8","correct_side":1,"subjID":"nataliasanchez32","gender":"1","age":"9","school":"4","test":{"fix_dur":[250,1500],"timestim":300,"targets_dim":[100,100],"targets_relative_coord":[0.3,0.7],"size_stim":[880,420],"start_dim":[100,100],"size_start":[300,300],"size_fix":60,"samplingrate":20,"img_types":["equaldotsize","equaldotanddens","randomdotsizeEA"],"ratios":[250,500,750,900],"rep_conds":9,"nTrials":120,"trials_to_rest":500,"Trials_order":[62,41,15,27,64,109,11,89,98,115,70,19,105,25,110,67,30,22,90,38,49,57,119,77,8,94,60,108,42,61,53,3,112,66,26,104,97,12,118,50,48,21,34,6,102,1,47,76,46,40,52,45,107,16,55,32,78,99,7,85,71,88,35,37,69,23,101,43,29,72,91,10,96,44,18,4,36,82,31,111,68,33,95,13,28,24,86,54,51,74,114,106,100,63,87,84,117,58,14,79,20,113,9,93,0,17,116,83,103,73,56,39,2,75,92,59,80,5,81,65],"cond_shown":["randomdotsizeEA","randomdotsizeEA","equaldotsize","equaldotsize","equaldotanddens","equaldotanddens","randomdotsizeEA","randomdotsizeEA","randomdotsizeEA","equaldotanddens","equaldotanddens","equaldotanddens","equaldotsize","equaldotanddens","randomdotsizeEA","equaldotanddens","equaldotsize","equaldotanddens","equaldotsize","randomdotsizeEA","equaldotanddens","equaldotsize","randomdotsizeEA","randomdotsizeEA","randomdotsizeEA","equaldotanddens","equaldotsize","equaldotsize","equaldotsize","equaldotanddens","randomdotsizeEA","equaldotsize","equaldotanddens","equaldotsize","randomdotsizeEA","randomdotsizeEA","equaldotanddens","equaldotsize","equaldotanddens","randomdotsizeEA","equaldotsize","equaldotsize","equaldotanddens","equaldotsize","equaldotsize","equaldotanddens","randomdotsizeEA","equaldotanddens","equaldotanddens","equaldotanddens","equaldotanddens","equaldotsize","randomdotsizeEA","equaldotanddens","equaldotanddens","randomdotsizeEA","equaldotsize","equaldotsize","equaldotanddens","equaldotanddens","randomdotsizeEA","equaldotanddens","randomdotsizeEA","equaldotanddens","equaldotsize","randomdotsizeEA","randomdotsizeEA","equaldotanddens","randomdotsizeEA","equaldotsize","equaldotanddens","equaldotanddens","equaldotsize","randomdotsizeEA","equaldotsize","equaldotanddens","equaldotsize","equaldotanddens","equaldotanddens","equaldotsize","randomdotsizeEA","equaldotsize","randomdotsizeEA","equaldotanddens","equaldotanddens","equaldotsize","randomdotsizeEA","equaldotsize","equaldotsize","randomdotsizeEA","equaldotsize","equaldotanddens","equaldotanddens","equaldotsize","equaldotsize","equaldotsize","equaldotsize","equaldotanddens","randomdotsizeEA","equaldotanddens","randomdotsizeEA","randomdotsizeEA","equaldotsize","equaldotsize","equaldotsize","randomdotsizeEA","randomdotsizeEA","randomdotsizeEA","equaldotanddens","equaldotanddens","randomdotsizeEA","equaldotsize","randomdotsizeEA","equaldotsize","randomdotsizeEA","randomdotsizeEA","randomdotsizeEA","randomdotsizeEA","equaldotsize","randomdotsizeEA"],"ratio_trial":[250,500,500,500,500,250,900,500,250,750,900,750,900,250,250,750,750,900,750,250,250,900,900,500,750,900,250,250,750,250,500,500,500,750,250,750,250,250,900,250,250,900,900,750,750,250,900,500,900,500,500,900,900,500,750,750,750,500,750,250,900,500,900,250,900,900,500,750,500,250,750,900,250,750,750,500,250,900,750,500,750,900,900,250,500,250,250,750,500,250,750,900,500,500,500,250,900,900,250,750,750,500,900,900,250,500,750,900,750,250,750,500,250,500,750,900,750,500,900,500],"smaller_num":["2","6","6","5","1","4","9","10","4","15","18","6","9","6","2","18","6","18","3","4","6","9","18","1","15","9","2","2","15","3","6","3","6","3","3","15","1","6","9","2","4","9","18","3","15","6","18","2","18","3","1","18","18","10","3","15","9","10","6","3","9","2","9","3","9","18","4","6","5","3","15","9","3","3","15","3","4","18","18","2","3","9","18","2","5","3","6","3","4","2","15","18","3","2","1","3","18","18","3","6","9","4","9","18","2","5","3","9","9","3","3","9","2","9","15","9","3","4","18","6"],"larger_num":["8","12","12","10","2","16","10","20","16","20","20","8","10","24","8","24","8","20","4","16","24","10","20","2","20","10","8","8","20","12","12","6","12","4","12","20","4","24","10","8","16","10","20","4","20","24","20","4","20","6","2","20","20","20","4","20","12","20","8","12","10","4","10","12","10","20","8","8","10","12","20","10","12","4","20","6","16","20","24","4","4","10","20","8","10","12","24","4","8","8","20","20","6","4","2","12","20","20","12","8","12","8","10","20","8","10","4","10","12","12","4","18","8","18","20","10","4","8","20","12"],"correct_side":[1,1,1,2,2,1,2,2,2,2,2,1,2,1,1,1,2,1,2,1,1,2,1,2,2,1,1,1,1,1,1,2,1,1,1,2,2,2,2,1,2,2,1,2,2,1,2,1,2,2,2,2,2,2,1,2,2,2,2,1,2,2,1,1,2,2,1,1,2,1,2,2,1,1,1,2,2,1,1,2,2,2,2,1,1,1,1,2,1,1,2,1,2,1,2,2,1,1,1,1,2,1,2,2,2,2,2,2,2,2,1,2,1,1,1,2,1,1,2,1],"img_shown":["img/250/randomdotsizeEA/L/1_Ratio_250_L_8_R_2.png","img/500/randomdotsizeEA/L/11_Ratio_500_L_12_R_6.png","img/500/equaldotsize/L/13_Ratio_500_L_12_R_6.png","img/500/equaldotsize/R/14_Ratio_500_L_5_R_10.png","img/500/equaldotanddens/R/15_Ratio_500_L_1_R_2.png","img/250/equaldotanddens/L/2_Ratio_250_L_16_R_4.png","img/900/randomdotsizeEA/R/7_Ratio_900_L_9_R_10.png","img/500/randomdotsizeEA/R/3_Ratio_500_L_10_R_20.png","img/250/randomdotsizeEA/R/10_Ratio_250_L_4_R_16.png","img/750/equaldotanddens/R/4_Ratio_750_L_15_R_20.png","img/900/equaldotanddens/R/11_Ratio_900_L_18_R_20.png","img/750/equaldotanddens/L/14_Ratio_750_L_8_R_6.png","img/900/equaldotsize/R/15_Ratio_900_L_9_R_10.png","img/250/equaldotanddens/L/5_Ratio_250_L_24_R_6.png","img/250/randomdotsizeEA/L/3_Ratio_250_L_8_R_2.png","img/750/equaldotanddens/L/6_Ratio_750_L_24_R_18.png","img/750/equaldotsize/R/2_Ratio_750_L_6_R_8.png","img/900/equaldotanddens/L/10_Ratio_900_L_20_R_18.png","img/750/equaldotsize/R/12_Ratio_750_L_3_R_4.png","img/250/randomdotsizeEA/L/2_Ratio_250_L_16_R_4.png","img/250/equaldotanddens/L/5_Ratio_250_L_24_R_6.png","img/900/equaldotsize/R/15_Ratio_900_L_9_R_10.png","img/900/randomdotsizeEA/L/8_Ratio_900_L_20_R_18.png","img/500/randomdotsizeEA/R/15_Ratio_500_L_1_R_2.png","img/750/randomdotsizeEA/R/3_Ratio_750_L_15_R_20.png","img/900/equaldotanddens/L/1_Ratio_900_L_10_R_9.png","img/250/equaldotsize/L/3_Ratio_250_L_8_R_2.png","img/250/equaldotsize/L/1_Ratio_250_L_8_R_2.png","img/750/equaldotsize/L/1_Ratio_750_L_20_R_15.png","img/250/equaldotanddens/L/14_Ratio_250_L_12_R_3.png","img/500/randomdotsizeEA/L/13_Ratio_500_L_12_R_6.png","img/500/equaldotsize/R/2_Ratio_500_L_3_R_6.png","img/500/equaldotanddens/L/11_Ratio_500_L_12_R_6.png","img/750/equaldotsize/L/8_Ratio_750_L_4_R_3.png","img/250/randomdotsizeEA/L/15_Ratio_250_L_12_R_3.png","img/750/randomdotsizeEA/R/4_Ratio_750_L_15_R_20.png","img/250/equaldotanddens/R/8_Ratio_250_L_1_R_4.png","img/250/equaldotsize/R/6_Ratio_250_L_6_R_24.png","img/900/equaldotanddens/R/5_Ratio_900_L_9_R_10.png","img/250/randomdotsizeEA/L/3_Ratio_250_L_8_R_2.png","img/250/equaldotsize/R/10_Ratio_250_L_4_R_16.png","img/900/equaldotsize/R/5_Ratio_900_L_9_R_10.png","img/900/equaldotanddens/L/2_Ratio_900_L_20_R_18.png","img/750/equaldotsize/R/7_Ratio_750_L_3_R_4.png","img/750/equaldotsize/R/4_Ratio_750_L_15_R_20.png","img/250/equaldotanddens/L/5_Ratio_250_L_24_R_6.png","img/900/randomdotsizeEA/R/13_Ratio_900_L_18_R_20.png","img/500/equaldotanddens/L/10_Ratio_500_L_4_R_2.png","img/900/equaldotanddens/R/12_Ratio_900_L_18_R_20.png","img/500/equaldotanddens/R/2_Ratio_500_L_3_R_6.png","img/500/equaldotanddens/R/15_Ratio_500_L_1_R_2.png","img/900/equaldotsize/R/12_Ratio_900_L_18_R_20.png","img/900/randomdotsizeEA/R/11_Ratio_900_L_18_R_20.png","img/500/equaldotanddens/R/3_Ratio_500_L_10_R_20.png","img/750/equaldotanddens/L/9_Ratio_750_L_4_R_3.png","img/750/randomdotsizeEA/R/5_Ratio_750_L_15_R_20.png","img/750/equaldotsize/R/15_Ratio_750_L_9_R_12.png","img/500/equaldotsize/R/3_Ratio_500_L_10_R_20.png","img/750/equaldotanddens/R/2_Ratio_750_L_6_R_8.png","img/250/equaldotanddens/L/15_Ratio_250_L_12_R_3.png","img/900/randomdotsizeEA/R/3_Ratio_900_L_9_R_10.png","img/500/equaldotanddens/R/9_Ratio_500_L_2_R_4.png","img/900/randomdotsizeEA/L/1_Ratio_900_L_10_R_9.png","img/250/equaldotanddens/L/14_Ratio_250_L_12_R_3.png","img/900/equaldotsize/R/7_Ratio_900_L_9_R_10.png","img/900/randomdotsizeEA/R/9_Ratio_900_L_18_R_20.png","img/500/randomdotsizeEA/L/8_Ratio_500_L_8_R_4.png","img/750/equaldotanddens/L/13_Ratio_750_L_8_R_6.png","img/500/randomdotsizeEA/R/14_Ratio_500_L_5_R_10.png","img/250/equaldotsize/L/14_Ratio_250_L_12_R_3.png","img/750/equaldotanddens/R/4_Ratio_750_L_15_R_20.png","img/900/equaldotanddens/R/7_Ratio_900_L_9_R_10.png","img/250/equaldotsize/L/15_Ratio_250_L_12_R_3.png","img/750/randomdotsizeEA/L/10_Ratio_750_L_4_R_3.png","img/750/equaldotsize/L/1_Ratio_750_L_20_R_15.png","img/500/equaldotanddens/R/2_Ratio_500_L_3_R_6.png","img/250/equaldotsize/R/10_Ratio_250_L_4_R_16.png","img/900/equaldotanddens/L/10_Ratio_900_L_20_R_18.png","img/750/equaldotanddens/L/6_Ratio_750_L_24_R_18.png","img/500/equaldotsize/R/9_Ratio_500_L_2_R_4.png","img/750/randomdotsizeEA/R/12_Ratio_750_L_3_R_4.png","img/900/equaldotsize/R/6_Ratio_900_L_9_R_10.png","img/900/randomdotsizeEA/R/9_Ratio_900_L_18_R_20.png","img/250/equaldotanddens/L/3_Ratio_250_L_8_R_2.png","img/500/equaldotanddens/L/7_Ratio_500_L_10_R_5.png","img/250/equaldotsize/L/14_Ratio_250_L_12_R_3.png","img/250/randomdotsizeEA/L/5_Ratio_250_L_24_R_6.png","img/750/equaldotsize/R/12_Ratio_750_L_3_R_4.png","img/500/equaldotsize/L/8_Ratio_500_L_8_R_4.png","img/250/randomdotsizeEA/L/7_Ratio_250_L_8_R_2.png","img/750/equaldotsize/R/3_Ratio_750_L_15_R_20.png","img/900/equaldotanddens/L/8_Ratio_900_L_20_R_18.png","img/500/equaldotanddens/R/2_Ratio_500_L_3_R_6.png","img/500/equaldotsize/L/5_Ratio_500_L_4_R_2.png","img/500/equaldotsize/R/12_Ratio_500_L_1_R_2.png","img/250/equaldotsize/R/11_Ratio_250_L_3_R_12.png","img/900/equaldotsize/L/4_Ratio_900_L_20_R_18.png","img/900/equaldotanddens/L/8_Ratio_900_L_20_R_18.png","img/250/randomdotsizeEA/L/15_Ratio_250_L_12_R_3.png","img/750/equaldotanddens/L/14_Ratio_750_L_8_R_6.png","img/750/randomdotsizeEA/R/15_Ratio_750_L_9_R_12.png","img/500/randomdotsizeEA/L/8_Ratio_500_L_8_R_4.png","img/900/equaldotsize/R/7_Ratio_900_L_9_R_10.png","img/900/equaldotsize/R/14_Ratio_900_L_18_R_20.png","img/250/equaldotsize/R/13_Ratio_250_L_2_R_8.png","img/500/randomdotsizeEA/R/14_Ratio_500_L_5_R_10.png","img/750/randomdotsizeEA/R/12_Ratio_750_L_3_R_4.png","img/900/randomdotsizeEA/R/7_Ratio_900_L_9_R_10.png","img/750/equaldotanddens/R/15_Ratio_750_L_9_R_12.png","img/250/equaldotanddens/R/11_Ratio_250_L_3_R_12.png","img/750/randomdotsizeEA/L/8_Ratio_750_L_4_R_3.png","img/500/equaldotsize/R/6_Ratio_500_L_9_R_18.png","img/250/randomdotsizeEA/L/1_Ratio_250_L_8_R_2.png","img/500/equaldotsize/L/4_Ratio_500_L_18_R_9.png","img/750/randomdotsizeEA/L/1_Ratio_750_L_20_R_15.png","img/900/randomdotsizeEA/R/6_Ratio_900_L_9_R_10.png","img/750/randomdotsizeEA/L/8_Ratio_750_L_4_R_3.png","img/500/randomdotsizeEA/L/8_Ratio_500_L_8_R_4.png","img/900/equaldotsize/R/12_Ratio_900_L_18_R_20.png","img/500/randomdotsizeEA/L/11_Ratio_500_L_12_R_6.png"],"Rat0":[["12_Ratio_0_L_9_R_0.png","13_Ratio_0_L_6_R_0.png","5_Ratio_0_L_2_R_0.png","6_Ratio_0_L_4_R_0.png","8_Ratio_0_L_6_R_0.png"],["1_Ratio_0_L_0_R_17.png","10_Ratio_0_L_0_R_22.png","11_Ratio_0_L_0_R_1.png","14_Ratio_0_L_0_R_24.png","15_Ratio_0_L_0_R_4.png","2_Ratio_0_L_0_R_5.png","3_Ratio_0_L_0_R_17.png","4_Ratio_0_L_0_R_7.png","7_Ratio_0_L_0_R_19.png","9_Ratio_0_L_0_R_15.png"]],"Rat250":[["1_Ratio_250_L_8_R_2.png","14_Ratio_250_L_12_R_3.png","15_Ratio_250_L_12_R_3.png","2_Ratio_250_L_16_R_4.png","3_Ratio_250_L_8_R_2.png","5_Ratio_250_L_24_R_6.png","7_Ratio_250_L_8_R_2.png"],["10_Ratio_250_L_4_R_16.png","11_Ratio_250_L_3_R_12.png","12_Ratio_250_L_5_R_20.png","13_Ratio_250_L_2_R_8.png","4_Ratio_250_L_3_R_12.png","6_Ratio_250_L_6_R_24.png","8_Ratio_250_L_1_R_4.png","9_Ratio_250_L_3_R_12.png"]],"Rat500":[["10_Ratio_500_L_4_R_2.png","11_Ratio_500_L_12_R_6.png","13_Ratio_500_L_12_R_6.png","4_Ratio_500_L_18_R_9.png","5_Ratio_500_L_4_R_2.png","7_Ratio_500_L_10_R_5.png","8_Ratio_500_L_8_R_4.png"],["1_Ratio_500_L_9_R_18.png","12_Ratio_500_L_1_R_2.png","14_Ratio_500_L_5_R_10.png","15_Ratio_500_L_1_R_2.png","2_Ratio_500_L_3_R_6.png","3_Ratio_500_L_10_R_20.png","6_Ratio_500_L_9_R_18.png","9_Ratio_500_L_2_R_4.png"]],"Rat750":[["1_Ratio_750_L_20_R_15.png","10_Ratio_750_L_4_R_3.png","13_Ratio_750_L_8_R_6.png","14_Ratio_750_L_8_R_6.png","6_Ratio_750_L_24_R_18.png","8_Ratio_750_L_4_R_3.png","9_Ratio_750_L_4_R_3.png"],["11_Ratio_750_L_12_R_16.png","12_Ratio_750_L_3_R_4.png","15_Ratio_750_L_9_R_12.png","2_Ratio_750_L_6_R_8.png","3_Ratio_750_L_15_R_20.png","4_Ratio_750_L_15_R_20.png","5_Ratio_750_L_15_R_20.png","7_Ratio_750_L_3_R_4.png"]],"Rat900":[["1_Ratio_900_L_10_R_9.png","10_Ratio_900_L_20_R_18.png","2_Ratio_900_L_20_R_18.png","4_Ratio_900_L_20_R_18.png","8_Ratio_900_L_20_R_18.png"],["11_Ratio_900_L_18_R_20.png","12_Ratio_900_L_18_R_20.png","13_Ratio_900_L_18_R_20.png","14_Ratio_900_L_18_R_20.png","15_Ratio_900_L_9_R_10.png","3_Ratio_900_L_9_R_10.png","5_Ratio_900_L_9_R_10.png","6_Ratio_900_L_9_R_10.png","7_Ratio_900_L_9_R_10.png","9_Ratio_900_L_18_R_20.png"]],"Rat1000":[["10_Ratio_1000_L_16_R_16.png","11_Ratio_1000_L_6_R_6.png","12_Ratio_1000_L_14_R_14.png","13_Ratio_1000_L_20_R_20.png","15_Ratio_1000_L_15_R_15.png","2_Ratio_1000_L_17_R_17.png","4_Ratio_1000_L_9_R_9.png","5_Ratio_1000_L_6_R_6.png","6_Ratio_1000_L_19_R_19.png","8_Ratio_1000_L_14_R_14.png","9_Ratio_1000_L_25_R_25.png"],["1_Ratio_1000_L_1_R_1.png","14_Ratio_1000_L_17_R_17.png","3_Ratio_1000_L_17_R_17.png","7_Ratio_1000_L_6_R_6.png"]]}},{"start_time":1552313921032,"click_time":1552313922283,"finger_time":1552313921942,"fix_duration":386.0026914124497,"trial":1,"RT":910,"MT":341,"sideResp":2,"stimulus":"img/500/randomdotsizeEA/L/11_Ratio_500_L_12_R_6.png","xmouse":[783,783,783,783,783,783,782,782,782,781,780,779,778,778,778,778,778,778,778,778,778,778,778,778,778,778,778,778,778,778,778,778,778,778,778,778,778,778,778,778,778,778,780,788,817,929,980,1025,1053,1074,1095,1100,1102,1103,1104,1105,1105,1105,1105,1105,1105,1107,1110],"ymouse":[522,522,522,522,522,522,522,522,522,522,522,522,522,522,522,522,522,522,522,522,522,522,522,522,522,522,522,522,522,522,522,522,522,522,522,522,522,522,522,522,522,522,519,512,493,431,400,363,332,297,238,227,222,220,219,215,209,201,187,161,125,109,91],"timestamp_mouse":[10,30,50,70,90,111,130,150,170,191,211,230,250,270,290,310,331,350,370,391,411,429,451,470,490,510,531,550,570,590,610,630,651,671,690,711,730,750,770,789,811,831,850,871,891,910,931,950,970,991,1011,1030,1050,1069,1091,1110,1131,1151,1170,1190,1210,1231,1251],"xSR":741.5,"ySR":469.95,"xT1":424.9,"yT1":0,"xT2":1058.1,"yT2":0,"toosoon":0,"cond_shown":"randomdotsizeEA","ratio_trial":500,"smaller_num":"6","larger_num":"12","correct_side":1,"subjID":"nataliasanchez32","gender":"1","age":"9","school":"4"},{"start_time":1552313924467,"click_time":1552313925902,"finger_time":1552313925423,"fix_duration":801.5816149519947,"trial":2,"RT":956,"MT":479,"sideResp":1,"stimulus":"img/500/equaldotsize/L/13_Ratio_500_L_12_R_6.png","xmouse":[811,811,811,811,811,811,811,811,811,811,811,811,811,811,811,811,811,811,811,811,811,811,811,811,811,811,811,811,811,811,811,811,811,811,811,811,811,811,811,811,811,811,807,791,770,759,744,724,688,681,674,663,648,606,590,574,563,547,506,495,494,494,494,499,502,503,503,503,503,503,503,503],"ymouse":[500,500,500,500,500,500,500,500,500,500,500,500,500,500,500,500,500,500,500,500,500,500,500,500,500,500,500,500,500,500,500,500,500,500,500,500,500,500,500,500,500,500,502,508,509,503,480,434,346,324,306,290,275,247,238,224,212,195,167,156,150,143,136,122,114,108,104,103,103,103,101,99],"timestamp_mouse":[27,39,55,75,95,115,135,156,175,195,215,236,255,275,296,315,334,354,375,395,415,435,456,475,495,515,535,555,575,596,615,636,656,675,695,716,736,756,775,795,816,836,855,875,896,916,936,956,976,995,1015,1036,1055,1075,1094,1115,1136,1156,1176,1194,1215,1236,1256,1276,1295,1315,1336,1355,1375,1395,1415,1435],"xSR":741.5,"ySR":469.95,"xT1":424.9,"yT1":0,"xT2":1058.1,"yT2":0,"toosoon":0,"cond_shown":"equaldotsize","ratio_trial":500,"smaller_num":"6","larger_num":"12","correct_side":1,"subjID":"nataliasanchez32","gender":"1","age":"9","school":"4"},{"start_time":1552313930029,"click_time":1552313934102,"finger_time":1552313933522,"fix_duration":685.3158755058071,"trial":3,"RT":3493,"MT":580,"sideResp":1,"stimulus":"img/500/equaldotsize/R/14_Ratio_500_L_5_R_10.png","xmouse":[822,822,822,822,822,822,822,822,822,822,822,822,822,822,822,822,822,822,822,822,822,822,822,822,822,822,822,822,822,822,822,822,822,822,822,822,822,822,822,822,822,822,822,822,822,822,822,822,822,822,822,822,822,822,822,822,822,822,822,822,822,822,822,822,822,822,822,822,822,822,822,822,822,822,822,822,822,822,822,822,822,822,822,822,822,822,822,822,822,822,822,822,822,822,822,822,822,822,822,822,822,822,822,822,822,822,822,822,822,822,822,822,822,822,822,822,822,822,822,822,822,822,822,822,822,822,822,822,822,822,822,822,822,822,822,822,822,822,822,822,822,822,822,822,822,822,822,822,822,822,822,822,822,822,822,822,822,822,822,822,822,822,822,822,822,822,822,822,822,822,815,793,773,754,732,658,551,519,496,479,472,472,474,474,474,474,474,474,474,474,475,477,477,478,480,482,483,483,484,485,486,489,489,492],"ymouse":[527,527,527,527,527,527,527,527,527,527,527,527,527,527,527,527,527,527,527,527,527,527,527,527,527,527,527,527,527,527,527,527,527,527,527,527,527,527,527,527,527,527,527,527,527,527,527,527,527,527,527,527,527,527,527,527,527,527,527,527,527,527,527,527,527,527,527,527,527,527,527,527,527,527,527,527,527,527,527,527,527,527,527,527,527,527,527,527,527,527,527,527,527,527,527,527,527,527,527,527,527,527,527,527,527,527,527,527,527,527,527,527,527,527,527,527,527,527,527,527,527,527,527,527,527,527,527,527,527,527,527,527,527,527,527,527,527,527,527,527,527,527,527,527,527,527,527,527,527,527,527,527,527,527,527,527,527,527,527,527,527,527,527,527,527,527,527,527,527,527,532,541,543,545,545,526,463,432,405,382,369,353,343,332,307,287,247,227,212,205,202,199,196,187,171,162,155,152,147,139,131,108,102,88],"timestamp_mouse":[14,33,53,73,94,113,133,154,174,193,212,234,253,272,293,314,333,353,373,394,414,433,454,472,494,514,534,553,573,593,613,634,654,674,693,714,733,753,774,794,813,832,853,874,893,913,934,953,974,994,1013,1034,1054,1074,1093,1113,1133,1153,1174,1192,1214,1233,1253,1272,1294,1313,1334,1352,1374,1394,1414,1433,1453,1473,1494,1513,1534,1553,1573,1594,1613,1633,1654,1673,1693,1714,1734,1754,1774,1794,1814,1832,1854,1874,1894,1913,1934,1954,1973,1994,2012,2033,2053,2074,2093,2113,2133,2153,2173,2194,2213,2233,2254,2273,2294,2314,2334,2353,2374,2393,2414,2434,2454,2473,2494,2514,2532,2554,2580,2592,2614,2633,2652,2673,2693,2714,2733,2754,2773,2793,2814,2833,2853,2874,2894,2914,2933,2954,2974,2994,3013,3033,3054,3073,3093,3114,3133,3154,3173,3194,3214,3233,3254,3273,3293,3313,3332,3354,3373,3392,3414,3433,3453,3474,3493,3514,3533,3553,3574,3594,3614,3634,3653,3673,3693,3714,3734,3753,3773,3794,3814,3834,3853,3873,3893,3912,3934,3953,3973,3994,4013,4034,4053,4073],"xSR":741.5,"ySR":469.95,"xT1":424.9,"yT1":0,"xT2":1058.1,"yT2":0,"toosoon":0,"cond_shown":"equaldotsize","ratio_trial":500,"smaller_num":"5","larger_num":"10","correct_side":2,"subjID":"nataliasanchez32","gender":"1","age":"9","school":"4"},{"start_time":1552313935793,"click_time":1552313937682,"finger_time":1552313936622,"fix_duration":250,"trial":4,"RT":829,"MT":1060,"sideResp":2,"stimulus":"img/500/equaldotanddens/R/15_Ratio_500_L_1_R_2.png","xmouse":[816,815,814,813,813,813,812,812,811,811,811,811,810,810,810,810,810,810,810,810,810,810,810,810,810,810,810,810,810,810,810,810,810,810,810,810,810,810,809,810,813,813,813,798,775,735,709,687,667,641,630,620,613,608,608,608,608,608,608,608,608,608,608,611,624,651,676,704,730,760,767,778,788,794,833,852,875,897,917,936,945,958,981,1003,1040,1042,1043,1043,1043,1043,1044,1048,1050,1055,1071],"ymouse":[496,495,495,495,495,495,494,494,494,494,494,494,494,494,494,494,494,494,494,494,494,494,494,494,494,494,494,494,494,494,494,494,494,494,494,494,494,494,493,485,476,468,455,401,354,290,253,223,193,157,143,129,121,116,116,116,116,116,116,116,116,116,116,116,114,113,113,108,105,96,92,85,82,79,70,67,64,64,64,70,71,71,71,71,72,72,72,72,72,72,72,72,71,70,70],"timestamp_mouse":[13,33,49,69,89,110,130,149,169,190,209,229,249,269,290,309,330,350,369,389,410,430,450,470,489,509,530,549,570,589,610,630,649,670,690,709,729,749,768,790,810,829,850,871,889,909,929,949,969,989,1009,1028,1050,1070,1089,1110,1129,1149,1170,1189,1209,1229,1249,1270,1290,1310,1330,1349,1369,1389,1409,1429,1450,1468,1489,1509,1530,1550,1569,1590,1610,1629,1649,1669,1689,1710,1729,1749,1769,1790,1809,1829,1849,1869,1889],"xSR":741.5,"ySR":469.95,"xT1":424.9,"yT1":0,"xT2":1058.1,"yT2":0,"toosoon":0,"cond_shown":"equaldotanddens","ratio_trial":500,"smaller_num":"1","larger_num":"2","correct_side":2,"subjID":"nataliasanchez32","gender":"1","age":"9","school":"4"},{"start_time":1552313939721,"click_time":1552313940882,"finger_time":1552313940442,"fix_duration":317.573798378353,"trial":5,"RT":721,"MT":440,"sideResp":1,"stimulus":"img/250/equaldotanddens/L/2_Ratio_250_L_16_R_4.png","xmouse":[810,810,810,810,810,810,810,810,810,810,810,810,810,810,810,810,810,810,810,810,810,810,810,810,810,810,810,810,810,810,810,810,810,810,808,803,786,757,716,710,702,692,685,671,657,644,635,628,623,617,604,586,572,555,551,548,545,538,511],"ymouse":[515,515,515,515,515,515,515,515,515,515,515,515,515,515,515,515,515,515,515,515,515,515,515,515,515,515,515,515,515,515,515,515,515,515,514,504,463,386,247,232,215,191,167,128,107,90,80,76,75,75,73,72,72,71,69,67,64,61,46],"timestamp_mouse":[10,22,41,61,81,101,122,142,161,182,201,222,241,261,281,301,321,342,362,382,401,422,441,461,481,501,522,541,561,582,602,621,641,661,681,701,721,743,761,782,800,821,842,861,882,901,921,941,962,981,1001,1022,1041,1061,1081,1102,1122,1142,1161],"xSR":741.5,"ySR":469.95,"xT1":424.9,"yT1":0,"xT2":1058.1,"yT2":0,"toosoon":0,"cond_shown":"equaldotanddens","ratio_trial":250,"smaller_num":"4","larger_num":"16","correct_side":1,"subjID":"nataliasanchez32","gender":"1","age":"9","school":"4"},{"start_time":1552313943220,"click_time":1552313944542,"finger_time":1552313944022,"fix_duration":896.8567625064206,"trial":6,"RT":802,"MT":520,"sideResp":2,"stimulus":"img/900/randomdotsizeEA/R/7_Ratio_900_L_9_R_10.png","xmouse":[797,797,797,797,797,797,797,797,797,797,797,797,797,797,797,797,797,797,797,797,797,797,797,797,797,797,797,797,797,797,797,797,797,797,797,797,797,797,798,837,894,949,991,1044,1056,1065,1070,1073,1080,1085,1090,1094,1097,1099,1098,1097,1097,1097,1096,1096,1096,1096,1096,1096,1096,1096,1096],"ymouse":[517,517,517,517,517,517,517,517,517,517,517,517,517,517,517,517,517,517,517,517,517,517,517,517,517,517,517,517,517,517,517,517,517,517,517,517,517,517,516,493,455,412,372,297,275,257,244,234,217,206,185,169,154,128,122,117,117,115,113,111,108,104,101,101,101,100,99],"timestamp_mouse":[9,34,43,62,83,103,123,143,162,182,203,223,242,262,282,302,323,343,363,383,402,423,442,462,483,502,521,542,563,583,603,622,642,662,683,702,723,742,762,783,802,822,843,862,882,903,923,942,964,982,1003,1023,1043,1063,1082,1102,1122,1142,1163,1181,1202,1222,1241,1263,1283,1303,1322],"xSR":741.5,"ySR":469.95,"xT1":424.9,"yT1":0,"xT2":1058.1,"yT2":0,"toosoon":0,"cond_shown":"randomdotsizeEA","ratio_trial":900,"smaller_num":"9","larger_num":"10","correct_side":2,"subjID":"nataliasanchez32","gender":"1","age":"9","school":"4"},{"start_time":1552313946451,"click_time":1552313947383,"finger_time":1552313947143,"fix_duration":526.2865956980196,"trial":7,"RT":692,"MT":240,"sideResp":2,"stimulus":"img/500/randomdotsizeEA/R/3_Ratio_500_L_10_R_20.png","xmouse":[779,779,779,779,779,779,779,779,779,779,779,779,779,779,779,779,779,779,779,779,779,779,779,779,779,779,779,779,779,779,779,782,798,814,850,899,987,1045,1056,1061,1066,1070,1068,1072,1083,1086,1086],"ymouse":[527,527,527,527,527,527,527,527,527,527,527,527,527,527,527,527,527,527,527,527,527,527,527,527,527,527,527,527,527,527,527,527,512,494,457,412,348,305,296,284,268,242,203,182,141,109,88],"timestamp_mouse":[11,38,52,71,92,112,131,152,171,190,210,232,252,270,292,312,332,352,371,392,412,432,452,471,491,512,532,552,572,592,611,632,650,672,692,712,731,751,771,791,811,831,851,871,892,911,932],"xSR":741.5,"ySR":469.95,"xT1":424.9,"yT1":0,"xT2":1058.1,"yT2":0,"toosoon":0,"cond_shown":"randomdotsizeEA","ratio_trial":500,"smaller_num":"10","larger_num":"20","correct_side":2,"subjID":"nataliasanchez32","gender":"1","age":"9","school":"4"},{"start_time":1552313949719,"click_time":1552313950542,"finger_time":1552313950423,"fix_duration":1495.2360838166385,"trial":8,"RT":704,"MT":119,"sideResp":2,"stimulus":"img/250/randomdotsizeEA/R/10_Ratio_250_L_4_R_16.png","xmouse":[784,784,784,784,784,784,784,784,784,784,784,784,784,784,784,784,784,784,784,784,784,784,784,784,784,784,784,784,784,784,784,784,784,784,799,838,892,943,993,1047,1061,1068],"ymouse":[500,500,500,500,500,500,500,500,500,500,500,500,500,500,500,500,500,500,500,500,500,500,500,500,500,500,500,500,500,500,500,500,500,500,489,449,382,304,238,155,122,95],"timestamp_mouse":[12,30,43,63,83,103,123,144,162,183,204,223,243,264,283,303,323,344,364,383,404,424,445,464,483,503,523,544,562,583,603,623,643,663,683,704,724,743,763,783,802,823],"xSR":741.5,"ySR":469.95,"xT1":424.9,"yT1":0,"xT2":1058.1,"yT2":0,"toosoon":0,"cond_shown":"randomdotsizeEA","ratio_trial":250,"smaller_num":"4","larger_num":"16","correct_side":2,"subjID":"nataliasanchez32","gender":"1","age":"9","school":"4"},{"start_time":1552313953158,"click_time":1552313954263,"finger_time":1552313953943,"fix_duration":1372.3388850562046,"trial":9,"RT":785,"MT":320,"sideResp":2,"stimulus":"img/750/equaldotanddens/R/4_Ratio_750_L_15_R_20.png","xmouse":[763,763,763,763,763,763,763,763,763,763,763,763,763,763,763,763,763,763,763,763,763,763,763,763,763,763,763,763,763,763,763,763,763,763,763,763,763,763,767,779,798,818,875,908,947,978,1005,1024,1047,1049,1053,1053,1053,1055,1058,1064],"ymouse":[487,487,487,487,487,487,487,487,487,487,487,487,487,487,487,487,487,487,487,487,487,487,487,487,487,487,487,487,487,487,487,487,487,487,487,487,487,487,480,469,452,430,371,341,302,267,232,205,147,137,122,121,121,116,107,97],"timestamp_mouse":[13,24,46,64,84,106,125,144,165,186,206,225,245,266,284,304,325,344,364,386,406,426,446,466,484,505,524,545,565,586,605,626,645,666,684,705,725,746,766,785,805,825,846,865,885,904,925,944,964,984,1004,1025,1046,1065,1085,1105],"xSR":741.5,"ySR":469.95,"xT1":424.9,"yT1":0,"xT2":1058.1,"yT2":0,"toosoon":0,"cond_shown":"equaldotanddens","ratio_trial":750,"smaller_num":"15","larger_num":"20","correct_side":2,"subjID":"nataliasanchez32","gender":"1","age":"9","school":"4"},{"start_time":1552313955756,"click_time":1552313956902,"finger_time":1552313956363,"fix_duration":250,"trial":10,"RT":607,"MT":539,"sideResp":2,"stimulus":"img/900/equaldotanddens/R/11_Ratio_900_L_18_R_20.png","xmouse":[781,781,781,781,781,781,781,781,781,781,781,781,781,781,781,781,781,781,781,781,781,781,781,781,781,781,781,781,795,817,856,906,957,1050,1071,1082,1091,1102,1114,1126,1139,1152,1160,1169,1172,1173,1174,1175,1175,1175,1175,1175,1175,1174,1169,1164,1161,1158],"ymouse":[533,533,533,533,533,533,533,533,533,533,533,533,533,533,533,533,533,533,533,533,533,533,533,533,533,533,533,533,526,509,480,446,411,340,317,297,280,252,215,186,159,137,117,88,75,65,57,52,41,40,40,40,40,39,39,39,39,40],"timestamp_mouse":[14,26,47,67,86,107,126,147,167,188,207,226,247,267,287,308,327,347,367,387,408,428,446,467,488,508,527,546,567,588,607,627,647,666,687,708,728,747,766,787,806,827,847,867,887,908,927,946,966,988,1008,1027,1046,1066,1087,1106,1127,1146],"xSR":741.5,"ySR":469.95,"xT1":424.9,"yT1":0,"xT2":1058.1,"yT2":0,"toosoon":0,"cond_shown":"equaldotanddens","ratio_trial":900,"smaller_num":"18","larger_num":"20","correct_side":2,"subjID":"nataliasanchez32","gender":"1","age":"9","school":"4"},{"start_time":1552313958425,"click_time":1552313960124,"finger_time":1552313959563,"fix_duration":538.2470603104432,"trial":11,"RT":1138,"MT":561,"sideResp":2,"stimulus":"img/750/equaldotanddens/L/14_Ratio_750_L_8_R_6.png","xmouse":[773,773,773,773,773,773,773,773,773,774,774,774,774,774,774,774,774,774,774,774,774,774,774,774,774,774,774,774,774,774,774,774,774,774,774,774,774,774,774,774,774,774,774,774,774,774,774,774,774,783,796,800,804,806,811,825,835,845,855,865,872,880,884,890,902,925,941,953,963,974,986,993,1000,1004,1011,1019,1023,1028,1031,1032,1034,1035,1035,1037,1045,1081],"ymouse":[565,565,565,565,565,565,565,565,565,562,562,562,562,562,562,562,562,562,562,562,562,562,562,562,562,562,562,562,562,562,562,562,562,562,562,562,562,562,562,562,562,562,562,562,562,562,562,562,562,559,555,553,550,549,541,511,489,464,436,405,381,347,333,320,295,253,230,214,199,185,165,153,135,127,106,79,65,52,44,40,36,36,36,35,32,28],"timestamp_mouse":[1,18,40,58,78,97,117,137,159,177,198,218,238,257,278,297,318,337,358,379,398,419,437,458,479,498,517,537,557,579,597,618,637,658,679,698,719,738,759,779,797,817,839,858,879,897,919,937,958,978,997,1018,1037,1057,1078,1098,1117,1138,1157,1179,1198,1218,1239,1257,1277,1299,1317,1338,1359,1378,1399,1417,1437,1457,1478,1498,1517,1539,1559,1578,1599,1617,1637,1658,1677,1698],"xSR":741.5,"ySR":469.95,"xT1":424.9,"yT1":0,"xT2":1058.1,"yT2":0,"toosoon":0,"cond_shown":"equaldotanddens","ratio_trial":750,"smaller_num":"6","larger_num":"8","correct_side":1,"subjID":"nataliasanchez32","gender":"1","age":"9","school":"4"},{"start_time":1552313963895,"click_time":1552313965204,"finger_time":1552313964624,"fix_duration":370.60107530329554,"trial":12,"RT":729,"MT":580,"sideResp":2,"stimulus":"img/900/equaldotsize/R/15_Ratio_900_L_9_R_10.png","xmouse":[763,763,763,763,763,763,763,763,763,763,763,763,763,763,763,763,764,767,767,768,769,770,776,780,781,783,784,784,784,784,784,784,784,787,791,804,865,907,921,933,945,961,993,1010,1030,1043,1043,1043,1043,1043,1043,1043,1043,1043,1043,1043,1043,1043,1043,1043,1043,1043,1043,1043,1043,1077],"ymouse":[546,546,546,546,546,546,546,546,546,546,546,546,546,546,546,546,546,543,542,541,540,539,531,527,524,522,520,520,520,520,520,520,520,515,509,490,401,327,300,279,256,230,164,123,65,9,9,9,9,9,9,9,9,9,9,9,9,9,9,9,9,9,9,9,9,3],"timestamp_mouse":[10,28,48,69,89,108,127,149,168,187,208,228,248,268,288,308,328,347,367,389,407,428,449,468,488,508,528,549,569,587,613,627,649,668,689,708,729,748,769,787,808,829,848,867,887,908,927,948,967,987,1007,1027,1048,1068,1088,1109,1128,1149,1168,1188,1208,1229,1248,1267,1289,1308],"xSR":741.5,"ySR":469.95,"xT1":424.9,"yT1":0,"xT2":1058.1,"yT2":0,"toosoon":0,"cond_shown":"equaldotsize","ratio_trial":900,"smaller_num":"9","larger_num":"10","correct_side":2,"subjID":"nataliasanchez32","gender":"1","age":"9","school":"4"},{"start_time":1552313967901,"click_time":1552313968944,"finger_time":1552313968543,"fix_duration":1036.8604353318083,"trial":13,"RT":642,"MT":401,"sideResp":1,"stimulus":"img/250/equaldotanddens/L/5_Ratio_250_L_24_R_6.png","xmouse":[779,779,779,779,779,779,779,779,779,779,779,779,779,779,779,779,779,779,779,779,779,779,779,779,779,779,779,779,779,779,777,775,762,755,749,742,737,736,736,737,737,737,725,704,673,644,609,577,564,555,544,536,524],"ymouse":[489,489,489,489,489,489,489,489,489,489,489,489,489,489,489,489,489,489,489,489,489,489,489,489,489,489,489,489,489,489,484,476,429,406,384,363,347,324,318,311,307,303,272,241,199,169,137,106,89,75,62,53,36],"timestamp_mouse":[11,23,42,62,82,101,123,142,161,182,203,221,241,262,282,301,321,342,362,382,402,423,442,463,483,503,522,541,563,583,602,622,642,662,683,701,722,742,762,782,801,823,843,863,881,903,923,942,962,982,1003,1022,1043],"xSR":741.5,"ySR":469.95,"xT1":424.9,"yT1":0,"xT2":1058.1,"yT2":0,"toosoon":0,"cond_shown":"equaldotanddens","ratio_trial":250,"smaller_num":"6","larger_num":"24","correct_side":1,"subjID":"nataliasanchez32","gender":"1","age":"9","school":"4"},{"start_time":1552313970670,"click_time":1552313972263,"finger_time":1552313971864,"fix_duration":286.4319825265129,"trial":14,"RT":1194,"MT":399,"sideResp":1,"stimulus":"img/250/randomdotsizeEA/L/3_Ratio_250_L_8_R_2.png","xmouse":[798,798,798,798,798,798,799,799,800,800,800,800,800,800,800,800,800,800,800,800,800,800,800,800,800,800,800,800,800,800,800,800,800,800,800,800,800,800,800,800,800,800,800,800,800,800,800,800,800,800,800,800,800,800,801,801,801,797,791,760,737,715,692,655,618,606,606,606,606,606,606,606,606,606,606,606,606,606,506,495],"ymouse":[523,523,523,523,523,523,523,523,523,523,523,523,523,523,523,523,523,523,523,523,523,523,523,523,523,523,523,523,523,523,523,523,523,523,523,523,523,523,523,523,523,523,523,523,523,523,523,523,523,523,523,523,523,523,522,521,515,497,471,373,302,226,155,77,19,4,4,4,4,4,4,4,4,4,4,4,4,4,0,11],"timestamp_mouse":[18,37,52,73,94,112,132,153,173,194,213,233,254,274,293,313,333,354,373,392,412,434,452,472,492,514,533,554,573,593,612,633,652,673,692,714,734,754,773,793,812,832,852,872,893,913,934,953,973,994,1014,1033,1053,1072,1093,1112,1134,1153,1173,1194,1213,1232,1252,1273,1293,1313,1333,1353,1374,1393,1413,1434,1454,1472,1492,1513,1533,1553,1572,1593],"xSR":741.5,"ySR":469.95,"xT1":424.9,"yT1":0,"xT2":1058.1,"yT2":0,"toosoon":0,"cond_shown":"randomdotsizeEA","ratio_trial":250,"smaller_num":"2","larger_num":"8","correct_side":1,"subjID":"nataliasanchez32","gender":"1","age":"9","school":"4"},{"start_time":1552313974191,"click_time":1552313976384,"finger_time":1552313975842,"fix_duration":724.3321506804227,"trial":15,"RT":1651,"MT":542,"sideResp":2,"stimulus":"img/750/equaldotanddens/L/6_Ratio_750_L_24_R_18.png","xmouse":[794,794,794,794,794,794,794,794,794,794,794,794,794,794,794,794,794,794,794,794,794,794,794,794,794,794,794,794,794,794,794,794,794,794,794,794,794,794,794,794,794,794,794,794,794,794,794,794,794,794,794,794,794,794,794,794,794,794,794,794,794,794,794,794,794,794,794,794,794,794,794,794,794,794,794,794,794,794,794,795,796,807,821,861,882,899,909,916,941,968,1012,1092,1187,1255,1252,1239,1228,1228,1228,1228,1228,1228,1228,1228,1228,1228,1228,1228,1228,1140],"ymouse":[491,491,491,491,491,491,491,491,491,491,491,491,491,491,491,491,491,491,491,491,491,491,491,491,491,491,491,491,491,491,491,491,491,491,491,491,491,491,491,491,491,491,491,491,491,491,491,491,491,491,491,491,491,491,491,491,491,491,491,491,491,491,491,491,491,491,491,491,491,491,491,491,491,491,491,491,491,491,491,496,519,557,580,571,559,550,543,532,493,445,373,282,193,114,93,55,14,14,14,14,14,14,14,14,14,14,14,14,14,9],"timestamp_mouse":[13,31,53,72,93,111,133,153,172,192,213,231,252,271,292,312,332,352,373,391,412,432,453,473,492,511,532,553,573,592,611,632,652,671,692,712,733,751,772,792,812,831,852,873,891,912,932,952,972,991,1012,1033,1052,1071,1091,1111,1131,1152,1173,1192,1211,1232,1252,1272,1293,1311,1331,1351,1372,1393,1411,1431,1452,1472,1493,1512,1532,1553,1572,1593,1613,1633,1651,1672,1692,1713,1732,1752,1772,1793,1811,1832,1851,1873,1892,1912,1931,1953,1972,1992,2012,2033,2053,2072,2092,2113,2133,2152,2172,2192],"xSR":741.5,"ySR":469.95,"xT1":424.9,"yT1":0,"xT2":1058.1,"yT2":0,"toosoon":0,"cond_shown":"equaldotanddens","ratio_trial":750,"smaller_num":"18","larger_num":"24","correct_side":1,"subjID":"nataliasanchez32","gender":"1","age":"9","school":"4"},{"start_time":1552313978801,"click_time":1552313979983,"finger_time":1552313979522,"fix_duration":435.13441173023705,"trial":16,"RT":721,"MT":461,"sideResp":1,"stimulus":"img/750/equaldotsize/R/2_Ratio_750_L_6_R_8.png","xmouse":[794,794,794,794,794,794,794,794,794,794,794,794,794,798,809,814,816,820,821,821,821,821,821,821,821,821,821,821,821,821,821,821,821,821,821,821,820,816,802,735,677,624,576,549,543,543,543,543,543,543,543,543,543,543,543,542,538,534,525,521],"ymouse":[545,545,545,545,545,545,545,545,545,545,545,545,542,528,500,488,482,476,473,473,473,473,473,472,472,472,472,472,472,472,472,472,472,472,472,472,464,455,420,279,200,136,96,81,78,78,78,78,78,78,78,78,78,78,78,78,78,78,78,78],"timestamp_mouse":[10,22,42,63,81,103,122,142,162,182,202,222,253,263,283,302,322,342,362,382,402,422,441,462,483,501,522,542,563,583,603,621,641,662,683,702,721,741,761,782,802,823,842,862,881,902,922,941,963,983,1003,1023,1042,1063,1082,1102,1122,1141,1163,1181],"xSR":741.5,"ySR":469.95,"xT1":424.9,"yT1":0,"xT2":1058.1,"yT2":0,"toosoon":0,"cond_shown":"equaldotsize","ratio_trial":750,"smaller_num":"6","larger_num":"8","correct_side":2,"subjID":"nataliasanchez32","gender":"1","age":"9","school":"4"},{"start_time":1552313981809,"click_time":1552313982923,"finger_time":1552313982482,"fix_duration":844.0882501827462,"trial":17,"RT":673,"MT":441,"sideResp":2,"stimulus":"img/900/equaldotanddens/L/10_Ratio_900_L_20_R_18.png","xmouse":[776,776,776,776,776,776,776,776,776,776,776,776,776,776,776,776,776,776,776,776,776,777,777,777,777,777,777,778,779,781,785,793,803,863,894,914,925,929,935,938,945,954,962,978,982,983,983,984,995,1003,1012,1020,1027,1047,1055,1059],"ymouse":[514,514,514,514,514,514,514,514,514,514,514,514,514,514,514,514,514,514,514,514,514,514,514,514,514,514,513,513,511,508,505,494,478,365,292,229,176,136,94,86,79,74,71,61,58,57,57,57,57,60,63,64,64,57,51,48],"timestamp_mouse":[14,34,53,74,93,113,133,155,173,193,215,235,253,275,294,313,333,353,373,394,415,433,453,475,495,514,534,553,574,594,614,633,653,673,694,714,733,753,774,794,815,833,854,873,894,914,935,955,973,994,1014,1034,1053,1073,1094,1114],"xSR":741.5,"ySR":469.95,"xT1":424.9,"yT1":0,"xT2":1058.1,"yT2":0,"toosoon":0,"cond_shown":"equaldotanddens","ratio_trial":900,"smaller_num":"18","larger_num":"20","correct_side":1,"subjID":"nataliasanchez32","gender":"1","age":"9","school":"4"},{"start_time":1552313984821,"click_time":1552313986083,"finger_time":1552313985844,"fix_duration":536.5890575578751,"trial":18,"RT":1023,"MT":239,"sideResp":2,"stimulus":"img/750/equaldotsize/R/12_Ratio_750_L_3_R_4.png","xmouse":[767,767,767,767,767,767,767,767,767,767,767,767,767,767,767,767,767,767,767,769,770,772,772,772,772,772,772,772,772,772,772,772,772,772,772,772,772,772,772,772,772,772,772,772,772,772,774,775,786,796,815,833,855,908,939,975,1013,1052,1073,1102,1109,1111,1112,1113],"ymouse":[550,550,550,550,550,550,550,550,550,550,550,550,550,550,550,550,550,550,550,549,548,548,548,548,548,548,548,548,548,548,548,548,548,548,548,548,548,548,548,548,548,548,548,548,548,548,544,540,514,498,473,453,433,394,369,337,289,227,194,149,132,122,114,96],"timestamp_mouse":[9,21,41,63,82,101,121,142,162,181,202,223,242,262,281,301,323,342,361,382,402,421,441,462,482,501,522,541,561,582,602,622,642,661,683,702,722,742,761,783,801,821,842,861,883,903,922,943,961,982,1002,1023,1041,1062,1081,1102,1123,1142,1162,1183,1202,1223,1242,1262],"xSR":741.5,"ySR":469.95,"xT1":424.9,"yT1":0,"xT2":1058.1,"yT2":0,"toosoon":0,"cond_shown":"equaldotsize","ratio_trial":750,"smaller_num":"3","larger_num":"4","correct_side":2,"subjID":"nataliasanchez32","gender":"1","age":"9","school":"4"},{"start_time":1552313989698,"click_time":1552313990823,"finger_time":1552313990542,"fix_duration":1253.075295928439,"trial":19,"RT":844,"MT":281,"sideResp":1,"stimulus":"img/250/randomdotsizeEA/L/2_Ratio_250_L_16_R_4.png","xmouse":[790,790,790,790,790,790,790,790,790,790,790,790,790,790,790,790,790,790,790,790,790,790,790,790,790,790,790,790,790,790,790,790,790,790,790,790,790,790,789,788,786,782,775,767,758,739,726,714,705,697,677,661,646,631,605,534,512],"ymouse":[528,528,528,528,528,528,528,528,528,528,528,528,528,528,528,528,528,528,528,528,528,528,528,528,528,528,528,528,528,528,528,528,528,528,528,528,528,528,526,522,505,487,464,434,403,331,299,279,267,259,244,234,220,199,162,49,24],"timestamp_mouse":[10,24,44,65,86,105,126,145,165,186,206,225,244,266,286,305,324,345,366,384,405,424,446,465,485,505,525,545,565,586,605,625,646,664,685,705,725,746,765,784,806,825,844,865,886,905,925,944,965,984,1004,1025,1044,1064,1086,1105,1125],"xSR":741.5,"ySR":469.95,"xT1":424.9,"yT1":0,"xT2":1058.1,"yT2":0,"toosoon":0,"cond_shown":"randomdotsizeEA","ratio_trial":250,"smaller_num":"4","larger_num":"16","correct_side":1,"subjID":"nataliasanchez32","gender":"1","age":"9","school":"4"},{"start_time":1552313992078,"click_time":1552313992943,"finger_time":1552313992783,"fix_duration":253.15377637842107,"trial":20,"RT":705,"MT":160,"sideResp":1,"stimulus":"img/250/equaldotanddens/L/5_Ratio_250_L_24_R_6.png","xmouse":[814,814,814,814,814,814,814,814,814,814,814,814,816,816,817,817,818,818,818,818,818,818,818,818,818,818,818,818,818,818,818,820,821,823,823,822,805,789,756,706,652,560,533,512],"ymouse":[520,520,520,520,520,520,520,520,520,520,520,519,518,518,516,516,516,516,516,516,516,516,516,516,516,516,516,516,516,516,516,513,508,498,481,449,401,362,289,211,149,81,68,61],"timestamp_mouse":[12,35,46,65,85,105,125,144,165,184,205,226,245,265,285,306,325,344,365,386,406,424,444,466,486,505,525,544,564,585,605,625,645,665,685,705,724,744,765,786,805,826,845,864],"xSR":741.5,"ySR":469.95,"xT1":424.9,"yT1":0,"xT2":1058.1,"yT2":0,"toosoon":0,"cond_shown":"equaldotanddens","ratio_trial":250,"smaller_num":"6","larger_num":"24","correct_side":1,"subjID":"nataliasanchez32","gender":"1","age":"9","school":"4"},{"start_time":1552313995466,"click_time":1552313996824,"finger_time":1552313996123,"fix_duration":1252.970805056123,"trial":21,"RT":657,"MT":701,"sideResp":2,"stimulus":"img/900/equaldotsize/R/15_Ratio_900_L_9_R_10.png","xmouse":[766,766,766,766,766,766,766,766,766,766,766,766,766,766,766,766,766,766,766,766,766,766,766,766,766,766,766,766,766,767,771,783,798,851,890,904,917,960,985,1004,1015,1022,1027,1027,1027,1027,1027,1028,1036,1041,1045,1049,1049,1049,1049,1049,1049,1049,1049,1049,1049,1050,1050,1050,1050,1052,1055,1058,1065],"ymouse":[504,504,504,504,504,504,504,504,504,504,504,504,504,504,504,504,504,504,504,504,504,504,504,504,504,504,504,504,504,504,504,503,500,486,469,458,448,393,343,302,275,261,253,253,253,253,253,252,236,223,206,186,171,141,119,99,80,44,25,15,10,9,9,9,9,9,9,9,10],"timestamp_mouse":[1,17,36,57,77,98,118,136,158,177,197,217,237,256,277,297,317,336,358,377,397,416,437,457,478,497,517,537,556,576,597,618,636,657,676,696,717,738,756,777,798,817,838,856,877,897,916,936,956,976,997,1016,1037,1058,1077,1097,1117,1137,1156,1176,1196,1217,1237,1257,1277,1297,1317,1337,1357],"xSR":741.5,"ySR":469.95,"xT1":424.9,"yT1":0,"xT2":1058.1,"yT2":0,"toosoon":0,"cond_shown":"equaldotsize","ratio_trial":900,"smaller_num":"9","larger_num":"10","correct_side":2,"subjID":"nataliasanchez32","gender":"1","age":"9","school":"4"},{"start_time":1552313999687,"click_time":1552314000763,"finger_time":1552314000343,"fix_duration":522.6888668573953,"trial":22,"RT":656,"MT":420,"sideResp":2,"stimulus":"img/900/randomdotsizeEA/L/8_Ratio_900_L_20_R_18.png","xmouse":[795,795,795,795,795,795,795,795,795,795,795,795,795,795,795,795,795,795,795,795,795,795,795,795,795,795,795,795,795,795,796,823,869,944,1029,1100,1183,1194,1201,1205,1211,1217,1220,1223,1225,1226,1228,1228,1225,1216,1200,1171,1159,1153],"ymouse":[548,548,548,548,548,548,548,548,548,548,548,548,548,548,548,548,548,548,548,548,548,548,548,548,548,548,548,548,548,548,548,534,502,438,356,289,226,216,207,196,179,166,161,157,152,149,137,130,122,110,94,79,72,69],"timestamp_mouse":[16,45,57,77,95,116,136,155,176,197,216,236,257,275,295,316,337,357,377,396,416,437,456,476,496,515,535,556,575,596,615,636,656,676,697,716,735,757,777,796,816,835,856,876,897,916,936,957,975,996,1016,1036,1055,1075],"xSR":741.5,"ySR":469.95,"xT1":424.9,"yT1":0,"xT2":1058.1,"yT2":0,"toosoon":0,"cond_shown":"randomdotsizeEA","ratio_trial":900,"smaller_num":"18","larger_num":"20","correct_side":1,"subjID":"nataliasanchez32","gender":"1","age":"9","school":"4"},{"start_time":1552314003695,"click_time":1552314005124,"finger_time":1552314004623,"fix_duration":1491.7955102664775,"trial":23,"RT":928,"MT":501,"sideResp":2,"stimulus":"img/500/randomdotsizeEA/R/15_Ratio_500_L_1_R_2.png","xmouse":[815,815,815,815,815,815,815,815,815,815,815,815,815,815,815,815,815,815,815,815,815,815,815,815,815,815,815,815,815,815,815,815,815,815,815,815,815,815,815,815,815,815,815,815,822,839,954,1042,1064,1124,1155,1193,1202,1216,1231,1231,1231,1231,1231,1231,1231,1231,1231,1231,1231,1231,1231,1231,1231,1231,1231,1093],"ymouse":[527,527,527,527,527,527,527,527,527,527,527,527,527,527,527,527,527,527,527,527,527,527,527,527,527,527,527,527,527,527,527,527,527,527,527,527,527,527,527,527,527,527,527,527,522,513,443,380,362,304,255,127,77,35,0,0,0,0,0,0,0,0,0,0,0,0,0,0,0,0,0,3],"timestamp_mouse":[13,38,48,68,89,108,128,148,167,189,209,228,248,268,289,308,328,347,368,387,408,427,449,468,489,508,528,548,569,589,607,627,649,669,687,708,728,748,768,789,808,828,848,868,888,909,928,947,967,987,1007,1029,1047,1069,1087,1108,1129,1149,1168,1189,1209,1229,1248,1268,1288,1309,1327,1347,1368,1388,1408,1429],"xSR":741.5,"ySR":469.95,"xT1":424.9,"yT1":0,"xT2":1058.1,"yT2":0,"toosoon":0,"cond_shown":"randomdotsizeEA","ratio_trial":500,"smaller_num":"1","larger_num":"2","correct_side":2,"subjID":"nataliasanchez32","gender":"1","age":"9","school":"4"},{"start_time":1552314008931,"click_time":1552314010044,"finger_time":1552314009584,"fix_duration":1086.9607540210868,"trial":24,"RT":653,"MT":460,"sideResp":1,"stimulus":"img/750/randomdotsizeEA/R/3_Ratio_750_L_15_R_20.png","xmouse":[805,805,805,805,805,805,805,805,805,805,805,805,805,805,805,805,805,805,805,805,805,805,805,805,805,805,805,805,805,805,805,805,805,804,800,780,763,740,712,668,563,515,461,414,365,335,332,331,331,331,337,341,347,358,386,426],"ymouse":[489,489,489,489,489,489,489,489,489,489,489,489,489,489,489,489,489,488,486,485,482,482,482,482,482,482,482,481,481,480,476,473,469,464,455,428,408,387,367,339,270,228,185,152,119,91,82,68,58,48,32,26,21,20,19,16],"timestamp_mouse":[12,34,52,72,93,112,132,152,172,193,213,233,253,272,291,311,332,352,373,392,412,432,452,472,492,512,532,551,573,591,612,632,653,672,691,711,732,752,772,793,812,833,851,871,891,912,932,953,972,993,1012,1032,1052,1073,1092,1112],"xSR":741.5,"ySR":469.95,"xT1":424.9,"yT1":0,"xT2":1058.1,"yT2":0,"toosoon":0,"cond_shown":"randomdotsizeEA","ratio_trial":750,"smaller_num":"15","larger_num":"20","correct_side":2,"subjID":"nataliasanchez32","gender":"1","age":"9","school":"4"},{"start_time":1552314013281,"click_time":1552314014343,"finger_time":1552314013844,"fix_duration":1255.3095043301948,"trial":25,"RT":563,"MT":499,"sideResp":2,"stimulus":"img/900/equaldotanddens/L/1_Ratio_900_L_10_R_9.png","xmouse":[779,779,779,779,779,779,779,779,779,779,779,779,779,779,779,779,779,779,779,779,779,779,779,779,779,779,779,782,803,818,827,840,852,879,899,938,957,969,987,988,988,988,988,999,1011,1017,1020,1023,1024,1028,1033,1040,1051,1062],"ymouse":[483,483,483,483,483,483,483,483,483,483,483,483,483,483,483,483,483,483,483,483,483,483,483,483,483,483,478,471,429,396,374,353,336,299,271,222,199,181,159,158,158,158,158,132,94,72,63,58,55,49,46,40,36,31],"timestamp_mouse":[13,29,42,62,82,102,122,142,162,182,202,222,243,262,283,302,322,343,363,383,403,422,443,463,483,503,523,542,563,582,602,623,643,663,682,703,722,742,762,783,802,822,842,864,882,902,922,943,962,982,1002,1023,1042,1062],"xSR":741.5,"ySR":469.95,"xT1":424.9,"yT1":0,"xT2":1058.1,"yT2":0,"toosoon":0,"cond_shown":"equaldotanddens","ratio_trial":900,"smaller_num":"9","larger_num":"10","correct_side":1,"subjID":"nataliasanchez32","gender":"1","age":"9","school":"4"},{"start_time":1552314025524,"click_time":1552314026804,"finger_time":1552314026364,"fix_duration":1259.3702180214539,"trial":26,"RT":840,"MT":440,"sideResp":1,"stimulus":"img/250/equaldotsize/L/3_Ratio_250_L_8_R_2.png","xmouse":[800,800,800,800,800,800,800,800,800,800,800,800,800,800,800,800,800,800,800,800,800,800,800,800,800,800,800,800,800,800,800,800,800,800,800,800,800,800,800,795,784,762,715,688,663,647,624,585,570,566,566,566,565,564,564,560,557,557,557,555,550,544,530,523],"ymouse":[487,487,487,487,487,487,487,487,487,487,487,487,487,487,487,487,487,487,487,487,487,487,487,487,487,487,487,487,487,487,487,487,487,487,487,487,487,487,487,486,477,456,400,362,324,295,260,223,211,207,205,204,201,200,198,195,189,181,173,158,138,117,84,74],"timestamp_mouse":[19,40,60,80,99,119,139,160,179,199,220,240,260,279,300,320,340,359,379,399,420,440,460,480,500,520,540,559,580,599,620,639,659,680,699,720,740,759,779,800,819,840,859,880,899,920,939,959,979,1000,1020,1039,1059,1079,1099,1119,1139,1159,1179,1200,1219,1240,1259,1280],"xSR":741.5,"ySR":469.95,"xT1":424.9,"yT1":0,"xT2":1058.1,"yT2":0,"toosoon":0,"cond_shown":"equaldotsize","ratio_trial":250,"smaller_num":"2","larger_num":"8","correct_side":1,"subjID":"nataliasanchez32","gender":"1","age":"9","school":"4"},{"start_time":1552314030834,"click_time":1552314032564,"finger_time":1552314031723,"fix_duration":1049.3893687110835,"trial":27,"RT":889,"MT":841,"sideResp":1,"stimulus":"img/250/equaldotsize/L/1_Ratio_250_L_8_R_2.png","xmouse":[796,796,796,796,796,796,796,796,796,796,796,796,796,796,796,796,796,796,796,796,795,795,795,795,795,795,795,795,795,795,795,795,795,795,795,795,795,795,795,795,795,795,795,798,807,810,810,807,788,730,669,607,556,499,481,469,457,447,421,413,412,412,416,416,416,416,416,416,416,416,416,419,412,412,412,412,412,412,412,412,412,412,412,417,419,422,428],"ymouse":[547,547,547,547,547,547,547,547,547,547,547,547,547,547,547,547,547,547,547,547,547,547,547,547,547,547,547,547,547,547,547,547,547,547,547,547,547,547,547,547,547,547,547,554,570,573,573,556,511,409,340,281,238,190,174,154,130,108,43,18,10,4,0,0,0,0,0,0,0,0,0,4,12,12,12,12,12,12,12,12,13,14,17,25,27,30,33],"timestamp_mouse":[11,29,50,69,89,110,129,149,170,189,209,230,249,270,289,310,329,350,370,389,410,429,450,470,490,509,529,550,570,589,610,630,650,669,690,710,730,750,769,790,810,829,849,870,889,909,929,951,969,989,1011,1029,1049,1069,1089,1110,1130,1151,1169,1190,1210,1230,1250,1269,1290,1310,1329,1350,1369,1390,1409,1430,1451,1469,1489,1509,1529,1549,1570,1591,1609,1630,1649,1669,1689,1709,1730],"xSR":741.5,"ySR":469.95,"xT1":424.9,"yT1":0,"xT2":1058.1,"yT2":0,"toosoon":0,"cond_shown":"equaldotsize","ratio_trial":250,"smaller_num":"2","larger_num":"8","correct_side":1,"subjID":"nataliasanchez32","gender":"1","age":"9","school":"4"},{"start_time":1552314034502,"click_time":1552314035483,"finger_time":1552314035244,"fix_duration":718.7825064304822,"trial":28,"RT":742,"MT":239,"sideResp":1,"stimulus":"img/750/equaldotsize/L/1_Ratio_750_L_20_R_15.png","xmouse":[793,793,793,793,793,793,793,793,793,793,793,793,793,793,793,793,793,793,793,793,793,793,793,793,793,793,793,793,793,793,793,793,793,793,793,793,790,783,761,728,642,604,580,566,553,544,539,534,529,522],"ymouse":[494,494,494,494,494,494,494,494,494,494,494,494,494,494,494,494,494,494,494,494,494,494,494,494,494,494,494,494,494,494,494,494,494,494,494,494,485,455,382,291,156,122,102,88,71,57,53,48,45,42],"timestamp_mouse":[9,33,41,61,81,102,122,142,161,182,202,221,242,261,281,302,321,341,362,382,402,421,442,462,482,502,522,541,562,581,601,621,642,661,681,702,722,742,761,782,801,822,841,861,881,901,921,941,962,981],"xSR":741.5,"ySR":469.95,"xT1":424.9,"yT1":0,"xT2":1058.1,"yT2":0,"toosoon":0,"cond_shown":"equaldotsize","ratio_trial":750,"smaller_num":"15","larger_num":"20","correct_side":1,"subjID":"nataliasanchez32","gender":"1","age":"9","school":"4"},{"start_time":1552314042352,"click_time":1552314044103,"finger_time":1552314043323,"fix_duration":707.5456374000571,"trial":29,"RT":971,"MT":780,"sideResp":1,"stimulus":"img/250/equaldotanddens/L/14_Ratio_250_L_12_R_3.png","xmouse":[805,805,805,805,805,805,805,805,805,805,805,805,805,805,805,805,805,805,805,805,805,805,805,805,805,805,805,805,805,805,805,805,805,805,805,805,805,805,800,787,780,780,780,780,780,780,780,783,785,772,747,710,665,595,575,559,543,536,531,531,531,531,531,531,533,539,543,548,559,560,561,561,559,554,552,550,548,546,543,541,539,538,537,535,533,530,525,518],"ymouse":[501,501,501,501,501,501,501,501,501,501,501,501,501,501,501,501,501,501,501,501,501,501,501,501,501,501,501,501,501,501,501,501,501,501,501,500,500,500,496,487,480,480,480,480,480,480,480,480,464,424,367,315,264,188,170,157,146,142,137,134,133,133,133,131,126,120,115,106,72,54,39,28,25,20,19,17,17,16,15,15,15,15,15,16,16,16,16,19],"timestamp_mouse":[12,31,52,71,91,111,132,152,172,191,211,232,252,272,292,311,332,351,372,391,412,432,451,472,491,512,532,551,572,591,613,632,652,672,692,711,732,751,771,791,812,832,851,871,892,911,931,952,971,991,1011,1031,1051,1071,1092,1112,1131,1152,1171,1191,1211,1232,1252,1271,1292,1312,1331,1352,1371,1392,1411,1432,1451,1471,1491,1512,1531,1552,1571,1591,1611,1632,1651,1671,1691,1711,1732,1751],"xSR":741.5,"ySR":469.95,"xT1":424.9,"yT1":0,"xT2":1058.1,"yT2":0,"toosoon":0,"cond_shown":"equaldotanddens","ratio_trial":250,"smaller_num":"3","larger_num":"12","correct_side":1,"subjID":"nataliasanchez32","gender":"1","age":"9","school":"4"},{"start_time":1552314050679,"click_time":1552314052364,"finger_time":1552314051584,"fix_duration":334.1604016444276,"trial":30,"RT":905,"MT":780,"sideResp":1,"stimulus":"img/500/randomdotsizeEA/L/13_Ratio_500_L_12_R_6.png","xmouse":[791,791,791,791,791,791,791,791,791,791,791,791,791,791,791,791,791,791,791,791,791,791,790,790,790,790,790,790,790,790,790,790,790,790,790,790,790,790,790,790,790,790,790,783,765,720,653,580,430,386,355,336,320,318,317,317,317,317,319,322,326,331,342,355,366,376,390,402,413,414,415,415,415,418,419,420,422,422,423,423,423,423,423,424,427],"ymouse":[513,513,513,513,513,513,513,513,513,513,513,513,513,513,513,513,513,513,513,513,513,513,513,513,513,513,513,513,513,513,513,513,513,513,513,513,513,513,513,513,513,513,513,510,486,447,391,330,188,144,113,92,68,61,56,50,47,45,44,44,44,46,50,50,50,50,50,50,52,52,53,53,53,55,56,58,60,60,60,60,60,60,60,60,60],"timestamp_mouse":[10,24,44,64,85,104,124,145,165,185,204,224,245,265,285,305,324,345,365,385,405,425,445,465,485,505,524,544,564,585,604,625,645,665,685,705,724,745,766,785,804,824,845,865,885,905,925,945,964,984,1005,1024,1046,1064,1084,1105,1124,1145,1165,1184,1204,1238,1244,1265,1285,1305,1324,1344,1364,1385,1404,1424,1445,1464,1485,1505,1524,1545,1564,1585,1604,1624,1645,1664,1685],"xSR":741.5,"ySR":469.95,"xT1":424.9,"yT1":0,"xT2":1058.1,"yT2":0,"toosoon":0,"cond_shown":"randomdotsizeEA","ratio_trial":500,"smaller_num":"6","larger_num":"12","correct_side":1,"subjID":"nataliasanchez32","gender":"1","age":"9","school":"4"},{"start_time":1552314055036,"click_time":1552314056183,"finger_time":1552314055743,"fix_duration":250,"trial":31,"RT":707,"MT":440,"sideResp":2,"stimulus":"img/500/equaldotsize/R/2_Ratio_500_L_3_R_6.png","xmouse":[766,766,766,766,766,766,766,766,766,766,766,766,766,766,766,766,766,766,766,766,766,766,766,766,766,766,766,766,766,766,766,782,802,823,838,850,880,900,931,948,961,993,1014,1039,1063,1099,1109,1115,1116,1116,1116,1116,1116,1117,1117,1110,1106,1100],"ymouse":[504,504,504,504,504,504,504,504,504,504,504,504,504,504,504,504,504,504,504,504,504,504,504,504,504,504,504,504,504,504,504,503,498,488,474,453,392,351,298,269,247,208,197,186,179,169,166,165,165,165,165,165,165,164,160,130,111,91],"timestamp_mouse":[13,33,48,67,87,107,128,147,167,188,207,228,247,268,288,308,328,347,368,387,407,428,447,467,488,507,528,547,568,587,607,628,648,667,688,707,727,748,768,787,807,827,847,868,887,908,927,947,967,987,1007,1028,1048,1067,1088,1108,1127,1147],"xSR":741.5,"ySR":469.95,"xT1":424.9,"yT1":0,"xT2":1058.1,"yT2":0,"toosoon":0,"cond_shown":"equaldotsize","ratio_trial":500,"smaller_num":"3","larger_num":"6","correct_side":2,"subjID":"nataliasanchez32","gender":"1","age":"9","school":"4"},{"start_time":1552314058721,"click_time":1552314059445,"finger_time":1552314059345,"fix_duration":1375.842125289566,"trial":32,"RT":624,"MT":100,"sideResp":1,"stimulus":"img/500/equaldotanddens/L/11_Ratio_500_L_12_R_6.png","xmouse":[790,790,790,790,790,790,790,790,790,790,790,790,790,790,790,790,790,790,790,790,790,790,790,790,790,790,790,790,790,790,788,757,692,633,565,505,458],"ymouse":[536,536,536,536,536,536,536,536,536,536,536,536,536,536,536,536,536,536,536,536,536,536,536,536,536,536,536,536,536,536,524,438,345,280,218,159,93],"timestamp_mouse":[13,22,42,62,83,103,122,143,162,183,202,223,243,262,283,302,323,344,363,383,402,423,443,463,482,503,523,543,562,582,603,624,642,663,682,702,724],"xSR":741.5,"ySR":469.95,"xT1":424.9,"yT1":0,"xT2":1058.1,"yT2":0,"toosoon":0,"cond_shown":"equaldotanddens","ratio_trial":500,"smaller_num":"6","larger_num":"12","correct_side":1,"subjID":"nataliasanchez32","gender":"1","age":"9","school":"4"},{"start_time":1552314062315,"click_time":1552314063664,"finger_time":1552314063043,"fix_duration":1370.9092183302723,"trial":33,"RT":728,"MT":621,"sideResp":1,"stimulus":"img/750/equaldotsize/L/8_Ratio_750_L_4_R_3.png","xmouse":[805,805,805,805,805,805,805,805,803,803,803,803,801,799,797,795,793,791,790,789,789,789,788,788,788,788,788,788,788,788,788,788,793,795,797,797,797,786,772,753,734,708,692,688,687,686,686,683,678,672,658,645,618,602,586,574,566,559,557,557,557,557,556,554,551,547,538,515],"ymouse":[538,538,538,538,538,538,538,538,538,538,538,538,539,539,540,540,540,541,541,541,541,541,541,541,541,541,541,541,541,541,541,540,524,513,500,484,467,421,387,349,317,276,242,229,222,218,215,209,203,194,176,164,141,130,118,108,101,89,86,83,82,82,79,78,75,74,71,62],"timestamp_mouse":[10,35,48,69,89,109,129,149,169,188,208,228,248,268,288,308,329,349,369,389,408,428,448,469,488,509,528,548,569,588,608,629,648,669,689,709,728,748,768,789,809,828,848,868,888,909,929,948,968,989,1009,1029,1048,1068,1088,1109,1128,1149,1168,1189,1209,1229,1248,1268,1289,1308,1329,1348],"xSR":741.5,"ySR":469.95,"xT1":424.9,"yT1":0,"xT2":1058.1,"yT2":0,"toosoon":0,"cond_shown":"equaldotsize","ratio_trial":750,"smaller_num":"3","larger_num":"4","correct_side":1,"subjID":"nataliasanchez32","gender":"1","age":"9","school":"4"},{"start_time":1552314069893,"click_time":1552314071083,"finger_time":1552314070704,"fix_duration":887.472121116554,"trial":34,"RT":811,"MT":379,"sideResp":1,"stimulus":"img/250/randomdotsizeEA/L/15_Ratio_250_L_12_R_3.png","xmouse":[779,779,779,779,779,779,779,779,779,779,779,779,779,779,779,779,779,779,779,779,779,779,779,779,779,779,779,779,779,779,779,779,779,779,779,779,779,779,779,775,769,764,759,757,755,740,723,704,691,660,648,640,634,630,621,617,607,590,558,518],"ymouse":[507,507,507,507,507,507,507,507,507,507,507,507,507,507,507,507,507,507,507,507,507,507,507,507,507,507,507,507,507,507,507,507,507,508,508,508,504,502,495,477,464,449,430,406,307,248,208,176,161,137,128,123,119,116,111,108,103,101,95,83],"timestamp_mouse":[10,30,50,71,91,110,131,151,170,191,210,231,251,270,290,310,331,351,370,391,411,431,451,470,490,511,531,551,570,590,611,631,651,670,690,710,731,751,771,790,811,831,850,870,890,911,930,951,970,990,1012,1031,1050,1070,1090,1110,1131,1150,1171,1190],"xSR":741.5,"ySR":469.95,"xT1":424.9,"yT1":0,"xT2":1058.1,"yT2":0,"toosoon":0,"cond_shown":"randomdotsizeEA","ratio_trial":250,"smaller_num":"3","larger_num":"12","correct_side":1,"subjID":"nataliasanchez32","gender":"1","age":"9","school":"4"},{"start_time":1552314074555,"click_time":1552314075544,"finger_time":1552314075184,"fix_duration":250,"trial":35,"RT":629,"MT":360,"sideResp":1,"stimulus":"img/750/randomdotsizeEA/R/4_Ratio_750_L_15_R_20.png","xmouse":[799,799,799,799,799,799,799,799,799,799,799,799,799,799,799,799,799,799,799,799,799,799,799,799,799,799,799,799,799,799,799,788,752,711,673,642,616,579,568,563,560,559,552,548,546,545,543,538,531,522],"ymouse":[499,499,499,499,499,499,499,499,499,499,499,499,499,499,499,499,499,499,499,499,499,499,499,499,499,499,499,499,499,494,485,443,386,334,290,266,249,224,216,212,208,204,186,177,166,155,142,119,110,98],"timestamp_mouse":[13,28,49,68,89,109,129,148,169,190,209,230,249,270,289,309,329,348,369,389,409,428,449,468,488,510,529,550,568,588,610,629,648,668,689,709,728,749,769,790,808,828,848,869,888,909,928,948,969,989],"xSR":741.5,"ySR":469.95,"xT1":424.9,"yT1":0,"xT2":1058.1,"yT2":0,"toosoon":0,"cond_shown":"randomdotsizeEA","ratio_trial":750,"smaller_num":"15","larger_num":"20","correct_side":2,"subjID":"nataliasanchez32","gender":"1","age":"9","school":"4"},{"start_time":1552314077366,"click_time":1552314078304,"finger_time":1552314077883,"fix_duration":660.3324669656852,"trial":36,"RT":517,"MT":421,"sideResp":2,"stimulus":"img/250/equaldotanddens/R/8_Ratio_250_L_1_R_4.png","xmouse":[809,809,809,809,809,809,809,809,809,809,809,809,809,809,809,809,809,809,809,809,809,809,809,813,822,836,871,891,914,946,984,1009,1009,1009,1009,1009,1011,1016,1025,1030,1036,1047,1047,1048,1052,1057,1070],"ymouse":[484,484,484,484,484,484,484,484,484,484,484,484,484,484,484,484,484,484,484,484,484,484,484,484,479,469,439,417,386,330,261,192,189,187,187,187,185,171,151,131,109,67,64,60,54,49,37],"timestamp_mouse":[18,37,58,78,98,119,138,158,177,198,218,238,258,279,298,318,337,359,377,397,418,439,457,478,498,517,538,559,579,598,618,638,658,677,699,717,737,757,779,798,817,837,858,877,898,918,938],"xSR":741.5,"ySR":469.95,"xT1":424.9,"yT1":0,"xT2":1058.1,"yT2":0,"toosoon":0,"cond_shown":"equaldotanddens","ratio_trial":250,"smaller_num":"1","larger_num":"4","correct_side":2,"subjID":"nataliasanchez32","gender":"1","age":"9","school":"4"},{"start_time":1552314081721,"click_time":1552314083804,"finger_time":1552314083404,"fix_duration":1036.0248524027388,"trial":37,"RT":1683,"MT":400,"sideResp":2,"stimulus":"img/250/equaldotsize/R/6_Ratio_250_L_6_R_24.png","xmouse":[788,788,788,788,788,788,788,788,788,788,788,788,788,788,788,788,788,788,788,788,788,788,788,788,788,788,788,788,788,788,788,788,788,788,788,788,788,788,788,788,788,788,788,788,788,788,788,788,788,788,788,788,788,788,788,788,788,788,788,788,788,788,788,788,788,788,788,788,788,788,788,788,788,788,788,788,788,788,788,788,788,788,788,788,825,845,865,878,891,918,935,954,969,982,1002,1006,1012,1018,1026,1044,1054,1069,1078,1084,1092],"ymouse":[483,483,483,483,483,483,483,483,483,483,483,483,483,483,483,483,483,483,483,483,483,483,483,483,483,483,483,483,483,483,483,483,483,483,483,483,483,483,483,483,483,483,483,483,483,483,483,483,483,483,483,483,483,483,483,483,483,483,483,483,483,483,483,483,483,483,483,483,483,483,483,483,483,483,483,483,483,483,483,483,483,483,483,483,455,438,416,396,380,352,340,324,314,303,284,277,267,256,241,206,182,147,125,106,89],"timestamp_mouse":[20,27,43,64,82,104,122,142,164,183,204,223,242,264,283,302,322,343,364,383,402,422,444,464,483,503,524,543,563,582,602,624,644,662,682,703,723,744,762,783,803,824,844,863,882,903,923,944,962,983,1003,1022,1043,1063,1082,1103,1123,1143,1162,1183,1204,1223,1242,1264,1283,1303,1324,1342,1363,1383,1403,1424,1444,1462,1482,1504,1523,1543,1563,1583,1604,1624,1643,1663,1683,1702,1722,1743,1763,1784,1803,1824,1843,1863,1884,1903,1923,1943,1962,1984,2002,2024,2043,2063,2083],"xSR":741.5,"ySR":469.95,"xT1":424.9,"yT1":0,"xT2":1058.1,"yT2":0,"toosoon":0,"cond_shown":"equaldotsize","ratio_trial":250,"smaller_num":"6","larger_num":"24","correct_side":2,"subjID":"nataliasanchez32","gender":"1","age":"9","school":"4"},{"start_time":1552314085605,"click_time":1552314089143,"finger_time":1552314088644,"fix_duration":1039.3516018612133,"trial":38,"RT":3039,"MT":499,"sideResp":1,"stimulus":"img/900/equaldotanddens/R/5_Ratio_900_L_9_R_10.png","xmouse":[796,796,796,796,796,796,796,796,796,796,796,796,796,796,796,796,796,796,796,796,796,796,796,796,796,796,796,796,796,796,796,796,796,796,796,796,796,796,796,796,796,796,796,796,796,796,796,796,796,796,796,796,796,796,796,796,796,796,796,796,796,796,796,796,796,796,796,796,796,796,796,796,796,796,796,796,796,796,796,796,796,796,796,796,796,796,796,796,796,796,796,796,796,796,796,796,796,796,796,796,796,796,796,796,796,796,796,796,796,796,796,796,796,796,796,796,796,796,796,796,796,796,796,796,796,796,796,796,796,796,796,796,796,796,796,796,796,796,796,796,796,796,796,796,796,796,796,796,792,788,774,769,765,762,757,737,706,663,620,585,536,525,520,520,522,526,535,542,549,555,558,558,558,557,550,524,509],"ymouse":[530,530,530,530,530,530,530,530,530,530,530,530,530,530,530,530,530,530,530,530,530,530,530,530,530,530,530,530,530,530,530,530,530,530,530,530,530,530,530,530,530,530,530,530,530,530,530,530,530,530,530,530,530,530,530,530,530,530,530,530,530,530,530,530,530,530,530,530,530,530,530,530,530,530,530,530,530,530,530,530,530,530,530,530,530,530,530,530,530,530,530,530,530,530,530,530,530,530,530,530,530,530,530,530,530,530,530,530,530,530,530,530,530,530,530,530,530,530,530,530,530,530,530,530,530,530,530,530,530,530,530,530,530,530,530,530,530,530,530,530,530,530,530,530,530,530,530,530,523,517,480,459,437,417,382,319,284,258,240,224,203,196,191,186,182,177,166,158,151,144,129,123,122,120,116,104,99],"timestamp_mouse":[19,38,59,80,98,118,138,159,178,199,220,238,258,278,300,318,339,360,378,398,418,439,458,479,499,520,539,558,578,599,619,640,660,678,698,719,738,760,780,799,819,839,859,878,898,919,940,958,979,998,1019,1039,1060,1080,1100,1120,1139,1159,1179,1199,1220,1239,1259,1279,1298,1318,1338,1359,1379,1399,1419,1439,1459,1478,1500,1520,1538,1560,1580,1598,1620,1638,1659,1678,1698,1720,1740,1760,1778,1799,1818,1838,1859,1879,1899,1918,1940,1958,1979,1998,2019,2039,2060,2078,2098,2118,2139,2159,2178,2199,2218,2239,2259,2280,2300,2319,2338,2359,2379,2399,2419,2440,2459,2479,2499,2519,2539,2560,2580,2599,2618,2639,2660,2679,2700,2718,2740,2760,2780,2798,2818,2840,2859,2879,2899,2920,2939,2958,2979,2999,3019,3039,3060,3080,3100,3119,3139,3159,3179,3198,3218,3239,3259,3279,3298,3318,3338,3359,3378,3399,3418,3439,3459,3478,3498,3518,3538],"xSR":741.5,"ySR":469.95,"xT1":424.9,"yT1":0,"xT2":1058.1,"yT2":0,"toosoon":0,"cond_shown":"equaldotanddens","ratio_trial":900,"smaller_num":"9","larger_num":"10","correct_side":2,"subjID":"nataliasanchez32","gender":"1","age":"9","school":"4"},{"start_time":1552314098641,"click_time":1552314099464,"finger_time":1552314099344,"fix_duration":1276.2660545258536,"trial":39,"RT":703,"MT":120,"sideResp":1,"stimulus":"img/250/randomdotsizeEA/L/3_Ratio_250_L_8_R_2.png","xmouse":[796,796,796,796,796,796,796,796,796,796,796,796,796,796,796,796,796,796,796,796,796,796,796,796,796,796,796,796,796,796,796,796,796,796,780,723,693,672,656,633,558,516],"ymouse":[508,508,508,508,508,508,508,508,508,508,508,508,508,508,508,508,508,508,508,508,508,508,508,508,508,508,508,508,508,508,508,508,508,508,500,463,438,384,327,264,121,49],"timestamp_mouse":[10,30,44,62,82,102,124,142,163,184,203,222,243,263,284,302,322,342,362,382,402,422,442,462,482,503,522,542,563,583,602,622,643,662,682,703,723,743,762,784,803,823],"xSR":741.5,"ySR":469.95,"xT1":424.9,"yT1":0,"xT2":1058.1,"yT2":0,"toosoon":0,"cond_shown":"randomdotsizeEA","ratio_trial":250,"smaller_num":"2","larger_num":"8","correct_side":1,"subjID":"nataliasanchez32","gender":"1","age":"9","school":"4"},{"start_time":1552314106057,"click_time":1552314107284,"finger_time":1552314106684,"fix_duration":1151.9643266126802,"trial":40,"RT":627,"MT":600,"sideResp":2,"stimulus":"img/250/equaldotsize/R/10_Ratio_250_L_4_R_16.png","xmouse":[809,809,810,810,810,810,810,810,810,810,810,810,810,809,806,804,804,804,803,800,797,795,792,790,786,779,775,769,763,756,742,734,727,720,711,701,676,666,655,645,633,628,626,634,654,716,752,798,849,885,938,950,959,965,971,988,1000,1008,1015,1026,1054,1068],"ymouse":[514,512,510,507,507,507,507,507,507,507,507,504,494,488,477,473,473,473,472,471,471,471,471,471,473,474,475,475,476,477,479,479,477,471,458,443,415,403,390,376,341,320,304,283,264,234,223,213,207,204,198,195,190,186,181,153,132,116,107,100,80,69],"timestamp_mouse":[13,26,50,68,86,108,127,147,167,186,206,227,246,266,286,307,328,348,367,387,407,427,447,468,486,506,527,547,566,587,606,627,648,667,686,706,727,747,767,786,807,827,848,866,886,907,926,946,967,987,1007,1028,1047,1067,1086,1106,1127,1148,1167,1187,1206,1226],"xSR":741.5,"ySR":469.95,"xT1":424.9,"yT1":0,"xT2":1058.1,"yT2":0,"toosoon":0,"cond_shown":"equaldotsize","ratio_trial":250,"smaller_num":"4","larger_num":"16","correct_side":2,"subjID":"nataliasanchez32","gender":"1","age":"9","school":"4"},{"start_time":1552314109675,"click_time":1552314111445,"finger_time":1552314110544,"fix_duration":250,"trial":41,"RT":869,"MT":901,"sideResp":2,"stimulus":"img/900/equaldotsize/R/5_Ratio_900_L_9_R_10.png","xmouse":[805,805,805,805,805,805,805,805,805,805,805,805,805,805,805,805,805,805,805,805,805,805,805,805,805,805,805,805,805,805,805,805,805,805,805,805,805,805,805,806,814,821,832,842,847,858,863,869,883,901,928,945,954,962,973,999,1013,1031,1044,1054,1065,1067,1067,1067,1067,1072,1075,1075,1076,1076,1076,1076,1076,1076,1077,1077,1079,1080,1081,1082,1086,1086,1086,1086,1086,1089,1094,1100,1108],"ymouse":[497,497,497,497,497,497,497,497,497,497,497,497,497,497,497,497,497,497,497,497,497,497,497,497,497,497,497,497,497,497,497,497,497,497,497,497,497,497,497,496,493,493,493,492,492,490,489,485,478,466,442,427,419,411,402,384,374,361,349,334,297,280,265,251,236,212,203,198,194,188,182,180,178,178,177,175,170,166,163,157,151,151,151,151,145,135,124,112,97],"timestamp_mouse":[13,33,49,69,88,108,129,148,170,188,209,230,248,268,290,309,328,349,368,389,409,430,450,469,489,509,528,548,568,590,610,629,649,668,690,710,729,749,769,788,808,829,848,869,889,908,929,950,969,988,1008,1028,1048,1069,1090,1109,1129,1148,1169,1190,1209,1230,1248,1269,1288,1309,1328,1349,1368,1390,1408,1429,1449,1469,1489,1508,1528,1548,1569,1590,1608,1639,1649,1669,1690,1708,1728,1749,1769],"xSR":741.5,"ySR":469.95,"xT1":424.9,"yT1":0,"xT2":1058.1,"yT2":0,"toosoon":0,"cond_shown":"equaldotsize","ratio_trial":900,"smaller_num":"9","larger_num":"10","correct_side":2,"subjID":"nataliasanchez32","gender":"1","age":"9","school":"4"},{"start_time":1552314115762,"click_time":1552314124544,"finger_time":1552314117523,"fix_duration":877.2367247361558,"trial":42,"RT":1761,"MT":7021,"sideResp":2,"stimulus":"img/900/equaldotanddens/L/2_Ratio_900_L_20_R_18.png","xmouse":[788,788,788,788,788,788,788,788,788,788,788,788,788,788,788,788,788,788,788,788,788,788,788,788,788,788,788,788,788,788,788,788,788,788,788,788,788,788,788,788,788,788,788,788,788,788,788,788,788,788,788,788,788,788,788,788,788,788,788,788,788,788,788,788,788,788,788,788,788,788,788,788,788,788,788,788,788,788,788,788,788,788,788,788,788,788,788,788,795,805,823,834,868,887,896,899,906,906,906,906,906,906,907,907,907,907,907,907,907,907,907,907,907,907,907,907,907,907,907,907,907,908,912,915,915,915,915,915,915,915,915,915,915,915,915,915,915,915,915,915,915,915,915,915,915,915,915,915,915,915,915,915,915,915,915,915,915,915,915,915,915,915,915,915,915,915,915,915,915,915,915,915,915,915,915,915,915,915,915,915,915,915,915,915,915,915,915,915,915,915,915,915,915,915,915,915,915,915,915,915,915,915,915,915,915,915,915,915,915,915,915,915,915,915,915,915,915,915,915,915,915,915,915,915,915,915,915,915,915,915,915,915,915,915,915,915,915,915,915,915,915,915,915,915,915,915,915,915,915,915,915,915,915,915,915,915,915,915,915,915,915,915,915,915,915,915,915,915,915,915,915,915,915,915,915,915,915,915,915,915,915,915,915,915,915,915,915,915,915,915,915,915,915,915,915,915,915,915,915,915,915,915,915,915,915,915,915,915,915,915,915,915,915,915,915,915,915,915,915,915,915,915,915,915,915,915,915,915,915,915,915,915,915,915,915,915,915,915,915,915,915,915,915,915,915,921,924,938,943,944,946,946,944,942,941,941,941,941,938,934,930,933,941,945,952,959,962,962,962,962,959,948,914,901,892,889,889,889,887,885,881,873,859,852,844,837,829,824,822,822,822,822,822,822,823,824,824,824,824,824,824,824,824,824,824,824,823,818,810,808,805,803,798,797,795,794,794,794,794,794,794,794,794,794,794,794,794,794,797,810,851,886,964,998,1026,1044,1056,1069,1070,1070],"ymouse":[474,474,474,474,474,474,474,474,474,474,474,474,474,474,474,474,474,474,474,474,474,474,474,474,474,474,474,474,474,474,474,474,474,474,474,474,474,474,474,474,474,474,474,474,474,474,474,474,474,474,474,474,474,474,474,474,474,474,474,474,474,474,474,474,474,474,474,474,474,474,474,474,474,474,474,474,474,474,474,474,474,474,474,474,474,474,474,474,429,381,326,286,164,96,64,42,22,18,16,16,15,15,15,15,15,15,15,15,15,15,15,15,15,15,15,15,15,15,15,15,15,13,6,1,1,1,1,1,1,1,1,1,1,1,1,1,1,1,1,1,1,1,1,1,1,1,1,1,1,1,1,1,1,1,1,1,1,1,1,1,1,1,1,1,1,1,1,1,1,1,1,1,1,1,1,1,1,1,1,1,1,1,1,1,1,1,1,1,1,1,1,1,1,1,1,1,1,1,1,1,1,1,1,1,1,1,1,1,1,1,1,1,1,1,1,1,1,1,1,1,1,1,1,1,1,1,1,1,1,1,1,1,1,1,1,1,1,1,1,1,1,1,1,1,1,1,1,1,1,1,1,1,1,1,1,1,1,1,1,1,1,1,1,1,1,1,1,1,1,1,1,1,1,1,1,1,1,1,1,1,1,1,1,1,1,1,1,1,1,1,1,1,1,1,1,1,1,1,1,1,1,1,1,1,1,1,1,1,1,1,1,1,1,1,1,1,1,1,1,1,1,1,1,1,1,1,1,1,1,1,1,1,1,1,1,1,1,1,1,1,1,1,1,1,1,2,8,21,23,24,25,27,33,37,39,39,39,40,45,56,70,92,99,99,97,95,95,95,95,95,96,106,145,166,183,192,195,199,205,219,238,269,296,309,324,340,356,369,387,396,403,410,416,418,420,422,422,422,422,422,422,422,422,422,422,422,424,435,455,467,474,481,489,491,493,494,494,494,494,494,494,494,494,494,494,494,494,494,491,480,455,428,329,270,218,175,148,107,100,97],"timestamp_mouse":[10,21,42,61,83,102,121,143,162,183,203,223,241,262,281,302,321,342,363,382,401,421,442,463,483,503,522,542,562,583,602,621,642,662,683,703,721,742,761,783,802,821,841,861,881,901,922,941,962,982,1002,1021,1041,1063,1083,1101,1121,1142,1161,1182,1203,1222,1243,1261,1281,1301,1322,1343,1362,1382,1402,1422,1442,1461,1483,1501,1522,1542,1562,1583,1602,1622,1642,1662,1683,1703,1722,1741,1761,1782,1802,1822,1842,1862,1882,1901,1922,1941,1962,1981,2001,2021,2041,2062,2081,2102,2122,2141,2161,2182,2203,2222,2242,2262,2282,2303,2322,2341,2362,2381,2401,2422,2441,2462,2481,2503,2523,2543,2563,2581,2601,2622,2641,2663,2682,2702,2722,2742,2761,2782,2803,2822,2841,2862,2882,2902,2922,2942,2961,2982,3001,3021,3042,3061,3081,3103,3122,3143,3161,3182,3201,3222,3241,3261,3282,3302,3322,3342,3362,3382,3403,3421,3441,3462,3482,3502,3523,3543,3562,3583,3602,3622,3641,3661,3682,3701,3721,3742,3762,3782,3802,3823,3843,3863,3883,3903,3921,3941,3962,3981,4001,4021,4043,4063,4083,4101,4122,4141,4162,4182,4203,4222,4242,4262,4281,4301,4323,4341,4362,4383,4402,4423,4442,4462,4482,4503,4522,4543,4563,4581,4602,4622,4641,4661,4681,4703,4723,4742,4761,4782,4801,4821,4842,4862,4883,4902,4922,4943,4963,4983,5002,5021,5041,5061,5081,5102,5122,5143,5161,5181,5201,5222,5241,5261,5281,5303,5322,5343,5363,5383,5401,5422,5442,5462,5483,5502,5522,5541,5561,5582,5602,5621,5642,5661,5682,5703,5722,5742,5761,5781,5801,5822,5842,5861,5881,5903,5923,5943,5962,5982,6001,6021,6041,6062,6082,6103,6123,6142,6161,6181,6201,6221,6243,6262,6283,6302,6322,6342,6361,6381,6403,6422,6443,6463,6481,6502,6522,6542,6562,6582,6601,6621,6641,6662,6681,6702,6722,6743,6762,6783,6802,6822,6841,6861,6881,6902,6923,6942,6962,6983,7003,7022,7041,7061,7082,7101,7121,7141,7162,7182,7201,7221,7241,7261,7282,7301,7323,7342,7362,7383,7402,7421,7441,7462,7481,7502,7523,7542,7561,7581,7601,7622,7641,7662,7682,7702,7721,7741,7761,7782,7801,7822,7841,7861,7883,7902,7922,7942,7962,7982,8002,8022,8041,8062,8082,8101,8123,8142,8161,8181,8202,8222,8241,8261,8282,8301,8321,8342,8361,8381,8403,8423,8441,8462,8481,8501,8523,8541,8562,8582,8602,8621,8642,8662,8681,8702,8722,8742,8762,8782],"xSR":741.5,"ySR":469.95,"xT1":424.9,"yT1":0,"xT2":1058.1,"yT2":0,"toosoon":0,"cond_shown":"equaldotanddens","ratio_trial":900,"smaller_num":"18","larger_num":"20","correct_side":1,"subjID":"nataliasanchez32","gender":"1","age":"9","school":"4"},{"start_time":1552314130883,"click_time":1552314133844,"finger_time":1552314130985,"fix_duration":1236.6258220251475,"trial":43,"RT":102,"MT":2859,"sideResp":1,"stimulus":"img/750/equaldotsize/R/7_Ratio_750_L_3_R_4.png","xmouse":[801,801,801,807,809,812,813,815,815,813,806,797,764,756,753,752,752,752,752,752,752,752,752,752,752,752,752,752,752,752,752,752,752,755,763,769,774,781,781,781,781,781,781,781,781,781,781,781,781,781,781,781,781,781,781,781,781,781,781,781,781,781,781,777,764,750,742,736,736,736,736,736,736,736,736,736,736,736,736,736,736,736,736,736,736,736,736,736,736,736,736,736,736,736,736,736,736,736,736,736,736,736,736,736,736,736,736,736,736,736,736,736,736,736,736,736,736,736,736,736,736,736,736,736,736,736,736,734,714,700,665,640,614,614,614,614,614,614,614,614,614,614,614,614,614,614,614,614,504],"ymouse":[535,535,542,561,567,571,575,583,588,593,601,608,628,632,634,635,635,635,635,635,635,635,635,635,635,635,635,635,635,635,635,635,629,594,555,526,497,465,464,464,464,464,464,464,464,464,464,464,464,464,464,464,464,464,464,464,464,464,464,464,464,464,464,459,447,435,428,423,423,423,423,423,423,423,423,423,423,423,423,423,423,423,423,423,423,423,423,423,423,423,423,423,423,423,423,423,423,423,423,423,423,423,423,423,423,423,423,423,423,423,423,423,423,423,423,423,423,423,423,423,423,423,423,423,423,423,423,417,368,332,212,126,36,36,36,36,36,36,36,36,36,36,36,36,36,36,36,36,8],"timestamp_mouse":[20,21,41,60,81,102,121,141,160,182,200,220,240,261,280,300,320,341,362,381,402,421,440,461,481,501,522,541,562,581,601,621,641,660,681,701,721,740,761,781,801,820,840,862,882,902,921,941,961,981,1002,1022,1042,1061,1082,1101,1120,1140,1161,1180,1201,1220,1240,1261,1280,1301,1320,1340,1360,1382,1401,1422,1442,1461,1480,1501,1520,1540,1562,1582,1601,1621,1641,1661,1681,1701,1722,1741,1762,1781,1802,1821,1840,1861,1880,1900,1922,1941,1960,1980,2000,2021,2040,2061,2081,2102,2121,2141,2160,2180,2200,2221,2240,2261,2282,2301,2322,2341,2361,2382,2401,2421,2441,2461,2482,2502,2521,2541,2561,2580,2600,2621,2641,2661,2680,2701,2721,2741,2761,2780,2801,2821,2842,2860,2880,2901,2920,2940,2961],"xSR":741.5,"ySR":469.95,"xT1":424.9,"yT1":0,"xT2":1058.1,"yT2":0,"toosoon":0,"cond_shown":"equaldotsize","ratio_trial":750,"smaller_num":"3","larger_num":"4","correct_side":2,"subjID":"nataliasanchez32","gender":"1","age":"9","school":"4"},{"start_time":1552314141191,"click_time":1552314142123,"finger_time":1552314141384,"fix_duration":1105.6611139959734,"trial":44,"RT":193,"MT":739,"sideResp":2,"stimulus":"img/750/equaldotsize/R/4_Ratio_750_L_15_R_20.png","xmouse":[794,794,794,794,795,795,795,795,795,795,795,795,795,795,795,795,795,799,804,807,810,812,817,820,824,827,836,859,871,887,914,933,977,994,1003,1007,1008,1010,1012,1014,1022,1030,1047,1051,1055,1057,1060],"ymouse":[536,536,531,520,507,499,492,478,473,466,463,459,454,452,449,447,445,434,424,413,403,398,390,386,382,377,366,338,319,299,262,237,186,165,149,140,136,134,132,128,121,114,97,91,85,81,76],"timestamp_mouse":[13,33,54,72,92,114,132,153,174,193,213,232,253,274,292,312,333,353,372,393,413,434,453,473,493,512,532,553,574,593,614,633,653,673,694,714,734,753,773,793,813,834,853,874,893,912,932],"xSR":741.5,"ySR":469.95,"xT1":424.9,"yT1":0,"xT2":1058.1,"yT2":0,"toosoon":0,"cond_shown":"equaldotsize","ratio_trial":750,"smaller_num":"15","larger_num":"20","correct_side":2,"subjID":"nataliasanchez32","gender":"1","age":"9","school":"4"},{"start_time":1552314145356,"click_time":1552314146346,"finger_time":1552314145924,"fix_duration":250,"trial":45,"RT":568,"MT":422,"sideResp":1,"stimulus":"img/250/equaldotanddens/L/5_Ratio_250_L_24_R_6.png","xmouse":[763,763,763,763,763,763,763,763,763,763,763,763,763,763,763,763,763,763,763,763,763,763,763,763,763,763,761,753,723,635,596,550,525,525,525,525,525,525,525,525,525,525,525,525,525,525,525,525,525,439],"ymouse":[502,502,502,502,502,502,502,502,502,502,502,502,502,502,502,502,502,502,502,502,502,502,502,502,502,502,502,493,438,269,177,75,32,32,32,32,32,32,32,32,32,32,32,32,32,32,32,32,32,12],"timestamp_mouse":[13,34,47,67,88,108,128,147,168,188,208,228,249,268,289,308,328,349,369,389,409,429,449,469,488,509,528,549,568,590,607,627,647,668,688,708,729,749,768,788,809,828,849,869,889,909,928,949,969,990],"xSR":741.5,"ySR":469.95,"xT1":424.9,"yT1":0,"xT2":1058.1,"yT2":0,"toosoon":0,"cond_shown":"equaldotanddens","ratio_trial":250,"smaller_num":"6","larger_num":"24","correct_side":1,"subjID":"nataliasanchez32","gender":"1","age":"9","school":"4"},{"start_time":1552314151498,"click_time":1552314153084,"finger_time":1552314152444,"fix_duration":1032.8069496307294,"trial":46,"RT":946,"MT":640,"sideResp":2,"stimulus":"img/900/randomdotsizeEA/R/13_Ratio_900_L_18_R_20.png","xmouse":[801,801,801,801,801,801,802,804,804,804,804,804,804,804,804,804,804,804,804,804,805,805,805,805,805,805,805,805,805,805,805,805,805,807,808,808,808,808,808,808,808,808,808,808,810,819,833,855,898,930,943,956,969,1000,1021,1033,1043,1050,1055,1057,1057,1058,1060,1065,1071,1076,1083,1090,1099,1105,1108,1112,1114,1118,1119,1120,1121,1122,1123,1123],"ymouse":[502,502,502,502,502,502,502,502,502,502,502,502,502,502,502,502,502,502,502,502,502,502,502,502,502,502,502,502,502,502,502,502,502,501,500,499,499,499,499,499,499,499,499,499,496,487,480,471,457,443,435,424,412,374,343,318,300,290,283,274,265,257,246,215,197,183,171,164,150,144,141,137,133,128,126,124,122,119,107,98],"timestamp_mouse":[13,27,46,66,85,105,126,146,166,187,207,227,246,265,287,306,327,346,366,386,406,426,447,466,487,507,527,547,566,587,606,626,645,666,687,706,726,746,766,785,807,826,846,866,886,906,925,946,967,986,1006,1025,1046,1067,1086,1107,1127,1147,1165,1186,1206,1226,1246,1266,1286,1305,1327,1346,1367,1386,1405,1426,1446,1467,1485,1506,1526,1547,1567,1586],"xSR":741.5,"ySR":469.95,"xT1":424.9,"yT1":0,"xT2":1058.1,"yT2":0,"toosoon":0,"cond_shown":"randomdotsizeEA","ratio_trial":900,"smaller_num":"18","larger_num":"20","correct_side":2,"subjID":"nataliasanchez32","gender":"1","age":"9","school":"4"},{"start_time":1552314171256,"click_time":1552314175704,"finger_time":1552314174544,"fix_duration":250,"trial":47,"RT":3288,"MT":1160,"sideResp":1,"stimulus":"img/500/equaldotanddens/L/10_Ratio_500_L_4_R_2.png","xmouse":[769,769,769,769,768,766,766,766,766,766,766,766,766,766,766,766,766,766,766,766,766,766,766,766,766,766,766,766,766,766,766,766,766,766,766,766,766,766,766,766,766,766,766,766,766,766,766,766,766,766,766,766,766,765,765,762,761,760,760,760,760,760,760,760,759,758,758,758,758,758,758,758,758,758,758,758,758,758,758,758,758,758,758,758,758,758,758,758,758,758,758,758,758,758,758,758,758,758,758,758,758,758,758,758,758,758,758,758,758,758,758,758,758,758,758,758,758,758,758,758,758,758,758,758,758,758,758,758,758,758,758,758,758,758,758,758,758,758,758,758,758,758,758,758,758,758,758,758,758,758,758,758,758,758,758,758,758,758,758,758,758,758,757,749,736,716,693,671,641,631,626,622,616,606,599,590,582,570,541,526,511,495,473,451,444,439,435,433,432,434,436,438,442,442,443,443,443,439,420,407,394,384,377,375,375,375,375,375,376,382,386,394,400,408,409,411,412,414,417,418,420,422,425],"ymouse":[500,500,500,500,501,506,510,512,512,512,512,512,512,512,512,512,512,512,512,512,512,512,512,512,512,512,512,512,512,512,512,512,512,512,512,512,512,512,512,512,512,512,512,512,512,512,512,512,512,512,512,512,512,513,513,514,514,514,514,514,514,514,514,514,514,515,515,515,515,515,515,515,515,515,515,515,515,515,515,515,515,515,515,515,515,515,515,515,515,515,515,515,515,515,515,515,515,515,515,515,515,515,515,515,515,515,515,515,515,515,515,515,515,515,515,515,515,515,515,515,515,515,515,515,515,515,515,515,515,515,515,515,515,515,515,515,515,515,515,515,515,515,515,515,515,515,515,515,515,515,515,515,515,515,515,515,515,515,515,515,515,515,515,515,508,495,477,458,432,424,420,417,410,399,393,385,378,372,360,358,358,358,360,363,363,363,363,359,344,331,316,300,269,214,190,169,153,135,96,77,61,46,30,26,26,26,26,26,26,27,29,33,35,39,39,39,39,39,39,40,41,43,45],"timestamp_mouse":[9,34,49,68,88,107,129,148,168,187,208,227,249,269,288,309,327,349,368,389,407,428,449,468,489,509,528,548,568,588,607,629,648,669,689,707,729,749,768,787,809,829,849,868,889,907,929,948,969,988,1009,1028,1047,1068,1088,1108,1127,1148,1169,1189,1208,1227,1248,1269,1288,1308,1328,1348,1368,1388,1409,1427,1449,1467,1489,1509,1529,1549,1567,1589,1609,1627,1649,1668,1687,1709,1728,1749,1768,1788,1809,1829,1849,1869,1889,1909,1928,1947,1969,1988,2009,2028,2049,2068,2088,2109,2128,2147,2168,2187,2207,2229,2249,2269,2289,2308,2328,2349,2369,2389,2408,2427,2449,2468,2488,2508,2529,2547,2569,2589,2607,2628,2648,2669,2687,2709,2729,2748,2769,2789,2809,2827,2849,2869,2888,2909,2928,2948,2969,2989,3008,3028,3048,3068,3089,3109,3129,3147,3169,3189,3207,3229,3248,3268,3288,3308,3328,3347,3367,3387,3408,3428,3448,3467,3488,3508,3529,3547,3568,3589,3608,3628,3649,3667,3689,3709,3729,3749,3769,3788,3808,3828,3848,3868,3888,3908,3929,3947,3968,3989,4008,4028,4048,4068,4089,4108,4129,4149,4168,4188,4208,4228,4248,4268,4288,4308,4328,4349,4367,4389,4409,4429,4448],"xSR":741.5,"ySR":469.95,"xT1":424.9,"yT1":0,"xT2":1058.1,"yT2":0,"toosoon":0,"cond_shown":"equaldotanddens","ratio_trial":500,"smaller_num":"2","larger_num":"4","correct_side":1,"subjID":"nataliasanchez32","gender":"1","age":"9","school":"4"},{"start_time":1552314177157,"click_time":1552314178284,"finger_time":1552314177825,"fix_duration":452.1002199839349,"trial":48,"RT":668,"MT":459,"sideResp":2,"stimulus":"img/900/equaldotanddens/R/12_Ratio_900_L_18_R_20.png","xmouse":[773,773,773,773,773,773,773,773,773,773,773,773,773,773,773,773,773,773,773,773,773,773,773,773,773,773,773,773,773,773,773,781,790,846,884,912,933,943,950,970,982,991,1001,1009,1017,1020,1023,1030,1047,1054,1061,1067,1072,1078,1081,1087,1095],"ymouse":[515,515,515,515,515,515,515,515,515,515,515,515,515,515,515,515,515,515,515,515,515,515,515,515,515,515,515,515,515,515,515,515,511,468,434,402,369,346,326,288,273,264,256,249,243,236,231,223,209,202,194,186,176,154,142,117,99],"timestamp_mouse":[12,30,47,67,88,108,127,147,167,187,207,228,248,266,288,307,327,348,366,388,407,427,448,467,488,507,528,547,568,588,606,627,648,668,686,707,728,747,767,786,807,827,846,867,886,906,927,947,968,986,1007,1027,1047,1067,1086,1107,1127],"xSR":741.5,"ySR":469.95,"xT1":424.9,"yT1":0,"xT2":1058.1,"yT2":0,"toosoon":0,"cond_shown":"equaldotanddens","ratio_trial":900,"smaller_num":"18","larger_num":"20","correct_side":2,"subjID":"nataliasanchez32","gender":"1","age":"9","school":"4"},{"start_time":1552314179998,"click_time":1552314181865,"finger_time":1552314181504,"fix_duration":373.4833880191253,"trial":49,"RT":1506,"MT":361,"sideResp":2,"stimulus":"img/500/equaldotanddens/R/2_Ratio_500_L_3_R_6.png","xmouse":[836,836,836,836,836,836,836,836,836,836,836,836,836,836,836,836,836,836,836,836,836,836,836,836,836,836,836,836,836,836,836,836,836,836,836,836,836,836,836,836,836,836,836,836,836,836,836,836,836,836,836,836,836,836,836,836,836,836,836,836,836,836,836,836,836,836,836,836,836,836,836,836,836,836,838,847,876,961,990,1010,1023,1034,1079,1094,1099,1099,1099,1096,1096,1096,1096,1096,1095,1094],"ymouse":[534,534,534,534,534,534,534,534,534,534,534,534,534,534,534,534,534,534,534,534,534,534,534,534,534,534,534,534,534,534,534,534,534,534,534,534,534,534,534,534,534,534,534,534,534,534,534,534,534,534,534,534,534,534,534,534,534,534,534,534,534,534,534,534,534,534,534,534,534,534,534,534,534,534,527,517,486,395,361,336,315,295,221,193,170,152,141,131,126,122,118,106,100,95],"timestamp_mouse":[13,25,46,66,86,106,125,145,166,187,206,225,247,267,285,305,327,345,366,386,407,425,445,466,485,507,526,546,566,587,606,625,646,666,687,706,727,747,766,786,807,826,847,867,887,906,927,946,967,987,1006,1026,1046,1067,1087,1107,1127,1146,1167,1187,1206,1225,1247,1267,1286,1307,1326,1346,1366,1387,1407,1427,1446,1465,1486,1506,1526,1546,1566,1586,1605,1627,1646,1667,1686,1706,1726,1745,1766,1787,1806,1828,1845,1866],"xSR":741.5,"ySR":469.95,"xT1":424.9,"yT1":0,"xT2":1058.1,"yT2":0,"toosoon":0,"cond_shown":"equaldotanddens","ratio_trial":500,"smaller_num":"3","larger_num":"6","correct_side":2,"subjID":"nataliasanchez32","gender":"1","age":"9","school":"4"},{"start_time":1552314189551,"click_time":1552314190724,"finger_time":1552314190343,"fix_duration":405.1706577190787,"trial":50,"RT":792,"MT":381,"sideResp":2,"stimulus":"img/500/equaldotanddens/R/15_Ratio_500_L_1_R_2.png","xmouse":[795,795,795,795,795,795,795,795,795,795,795,795,795,795,795,795,795,795,795,795,795,795,795,795,795,795,795,795,795,795,795,795,795,795,795,795,795,800,818,845,914,931,945,950,952,952,955,963,974,977,986,987,990,992,997,1014,1032,1052,1071],"ymouse":[559,559,559,559,559,559,559,559,559,559,559,559,559,559,559,559,559,559,559,559,559,559,559,559,559,559,559,559,559,559,559,559,559,559,559,559,553,545,522,490,402,364,327,291,228,199,174,151,129,123,108,106,103,101,98,88,75,64,54],"timestamp_mouse":[13,37,52,72,92,112,132,153,174,193,213,233,254,273,294,312,333,353,373,394,414,434,453,474,493,512,534,554,573,593,614,634,654,674,693,714,734,754,772,792,813,833,854,873,895,912,933,953,973,994,1013,1033,1052,1072,1094,1113,1133,1153,1173],"xSR":741.5,"ySR":469.95,"xT1":424.9,"yT1":0,"xT2":1058.1,"yT2":0,"toosoon":0,"cond_shown":"equaldotanddens","ratio_trial":500,"smaller_num":"1","larger_num":"2","correct_side":2,"subjID":"nataliasanchez32","gender":"1","age":"9","school":"4"},{"start_time":1552314198852,"click_time":1552314200344,"finger_time":1552314199565,"fix_duration":1106.5932620305693,"trial":51,"RT":713,"MT":779,"sideResp":1,"stimulus":"img/900/equaldotsize/R/12_Ratio_900_L_18_R_20.png","xmouse":[817,817,817,817,817,817,817,817,817,817,817,817,817,817,817,817,817,817,817,817,817,817,817,817,817,817,817,817,817,817,817,817,817,811,807,778,759,738,716,687,678,645,633,622,612,603,583,573,562,538,527,516,514,512,510,508,500,494,489,485,482,479,479,479,479,479,478,478,478,477,477,477,476,476,476],"ymouse":[520,520,520,520,520,520,520,520,520,520,520,520,520,520,520,520,520,520,520,520,520,520,520,520,520,520,520,520,520,520,520,520,520,508,498,457,435,411,386,353,346,298,278,264,255,248,229,221,214,206,203,196,194,189,185,179,163,152,142,134,128,114,113,113,113,111,108,107,106,104,103,101,100,100,99],"timestamp_mouse":[14,41,52,72,92,112,133,153,173,193,213,232,253,272,293,313,333,353,372,393,413,431,452,473,492,512,532,553,572,593,612,632,653,672,693,713,732,752,772,792,812,831,852,872,892,913,932,952,973,992,1012,1033,1052,1072,1092,1113,1132,1153,1172,1192,1213,1232,1252,1272,1292,1311,1332,1352,1372,1392,1412,1432,1451,1472,1492],"xSR":741.5,"ySR":469.95,"xT1":424.9,"yT1":0,"xT2":1058.1,"yT2":0,"toosoon":0,"cond_shown":"equaldotsize","ratio_trial":900,"smaller_num":"18","larger_num":"20","correct_side":2,"subjID":"nataliasanchez32","gender":"1","age":"9","school":"4"},{"start_time":1552314203135,"click_time":1552314204185,"finger_time":1552314203805,"fix_duration":1448.8760335837203,"trial":52,"RT":670,"MT":380,"sideResp":2,"stimulus":"img/900/randomdotsizeEA/R/11_Ratio_900_L_18_R_20.png","xmouse":[792,792,792,792,792,792,792,792,792,792,792,792,792,792,792,792,792,792,792,792,792,792,792,792,792,792,792,792,792,792,792,796,806,819,825,831,841,888,939,991,1023,1033,1036,1037,1038,1038,1038,1038,1038,1038,1050,1054,1069],"ymouse":[493,493,493,493,493,493,493,493,493,493,493,493,493,493,493,493,493,493,493,493,493,493,493,493,493,493,493,493,493,493,493,488,470,446,431,412,392,282,194,104,48,26,17,9,4,4,4,4,4,4,16,42,94],"timestamp_mouse":[13,29,49,68,89,109,130,150,169,190,210,229,249,270,288,309,330,348,370,390,408,430,449,470,489,509,528,549,569,590,609,629,649,670,689,709,729,750,769,789,808,829,850,869,889,910,930,950,969,989,1010,1029,1050],"xSR":741.5,"ySR":469.95,"xT1":424.9,"yT1":0,"xT2":1058.1,"yT2":0,"toosoon":0,"cond_shown":"randomdotsizeEA","ratio_trial":900,"smaller_num":"18","larger_num":"20","correct_side":2,"subjID":"nataliasanchez32","gender":"1","age":"9","school":"4"},{"start_time":1552314210698,"click_time":1552314211805,"finger_time":1552314211484,"fix_duration":571.6907079665136,"trial":53,"RT":786,"MT":321,"sideResp":2,"stimulus":"img/500/equaldotanddens/R/3_Ratio_500_L_10_R_20.png","xmouse":[765,765,765,765,765,765,765,765,765,765,765,765,765,765,765,765,765,765,765,765,765,765,765,765,765,765,765,765,765,765,765,765,765,765,764,764,777,792,803,814,844,859,871,899,921,927,943,950,954,957,970,980,993,1015,1035,1076],"ymouse":[533,533,533,533,533,533,533,533,533,533,533,533,533,533,533,533,534,534,534,534,534,534,534,534,534,534,534,534,534,534,534,534,534,534,534,533,517,495,470,446,381,346,316,251,212,202,185,180,176,173,164,156,144,114,88,34],"timestamp_mouse":[14,33,46,67,86,106,127,145,167,186,206,227,246,267,286,306,327,346,367,387,406,426,446,466,486,506,527,546,566,586,605,626,647,667,687,706,726,746,766,786,806,827,846,865,886,906,926,946,966,987,1005,1025,1045,1066,1086,1106],"xSR":741.5,"ySR":469.95,"xT1":424.9,"yT1":0,"xT2":1058.1,"yT2":0,"toosoon":0,"cond_shown":"equaldotanddens","ratio_trial":500,"smaller_num":"10","larger_num":"20","correct_side":2,"subjID":"nataliasanchez32","gender":"1","age":"9","school":"4"},{"start_time":1552314214330,"click_time":1552314215724,"finger_time":1552314215085,"fix_duration":945.1929718694244,"trial":54,"RT":755,"MT":639,"sideResp":1,"stimulus":"img/750/equaldotanddens/L/9_Ratio_750_L_4_R_3.png","xmouse":[763,763,763,763,763,763,763,763,763,763,763,763,763,763,763,763,763,763,763,763,763,763,763,763,763,763,763,763,763,763,763,763,763,763,766,771,785,811,873,890,894,896,897,897,897,894,891,887,881,843,823,795,768,744,700,679,659,639,618,603,599,595,591,588,585,581,573,560,545,498],"ymouse":[533,533,533,533,533,533,533,533,533,533,533,533,533,533,533,533,533,533,533,533,533,533,533,533,533,533,533,533,533,533,533,533,533,533,531,511,475,411,277,248,238,230,226,222,215,208,204,201,197,189,185,177,168,158,144,139,131,124,114,103,99,95,91,89,87,85,83,82,77,71],"timestamp_mouse":[13,35,53,75,95,115,133,154,175,194,215,233,253,275,294,315,334,354,375,395,415,435,455,475,494,515,535,554,575,593,615,635,655,674,694,714,735,755,775,793,815,834,854,874,894,915,935,954,974,995,1014,1034,1054,1074,1094,1114,1134,1153,1175,1194,1214,1235,1254,1276,1294,1315,1334,1354,1374,1394],"xSR":741.5,"ySR":469.95,"xT1":424.9,"yT1":0,"xT2":1058.1,"yT2":0,"toosoon":0,"cond_shown":"equaldotanddens","ratio_trial":750,"smaller_num":"3","larger_num":"4","correct_side":1,"subjID":"nataliasanchez32","gender":"1","age":"9","school":"4"},{"start_time":1552314224549,"click_time":1552314225705,"finger_time":1552314225325,"fix_duration":1203.7005725449421,"trial":55,"RT":776,"MT":380,"sideResp":1,"stimulus":"img/750/randomdotsizeEA/R/5_Ratio_750_L_15_R_20.png","xmouse":[790,790,790,790,790,790,790,790,790,790,790,790,790,790,790,790,790,790,790,790,790,790,790,790,790,790,790,790,790,790,790,790,790,790,790,790,790,790,777,737,688,639,604,575,566,566,566,566,566,566,566,565,561,544,535,530,525,523],"ymouse":[488,488,488,488,488,488,488,488,488,488,488,488,488,488,488,488,488,488,488,488,488,488,488,488,488,488,488,488,488,488,488,488,488,488,488,488,488,488,441,357,272,199,151,111,100,100,100,100,98,98,98,97,95,81,70,62,57,55],"timestamp_mouse":[15,41,56,76,94,114,135,156,176,195,216,236,255,276,295,315,334,355,376,394,416,435,456,474,495,514,536,556,575,596,615,636,656,676,696,714,735,756,776,794,816,835,855,874,895,915,935,955,976,995,1015,1034,1054,1076,1094,1115,1135,1156],"xSR":741.5,"ySR":469.95,"xT1":424.9,"yT1":0,"xT2":1058.1,"yT2":0,"toosoon":0,"cond_shown":"randomdotsizeEA","ratio_trial":750,"smaller_num":"15","larger_num":"20","correct_side":2,"subjID":"nataliasanchez32","gender":"1","age":"9","school":"4"},{"start_time":1552314228133,"click_time":1552314229824,"finger_time":1552314228624,"fix_duration":387.95130500863974,"trial":56,"RT":491,"MT":1200,"sideResp":2,"stimulus":"img/750/equaldotsize/R/15_Ratio_750_L_9_R_12.png","xmouse":[803,803,803,803,803,803,803,803,803,803,803,803,803,803,803,803,803,803,803,803,805,807,810,814,819,832,840,850,858,866,876,876,876,876,876,876,876,876,876,876,876,879,887,905,922,967,998,1036,1073,1093,1110,1113,1114,1114,1114,1114,1114,1114,1114,1116,1118,1123,1129,1134,1134,1134,1134,1134,1134,1131,1129,1129,1129,1129,1129,1129,1129,1129,1129,1129,1129,1129,1129,1129,1130],"ymouse":[495,495,495,495,495,495,495,495,495,495,495,495,495,495,495,495,495,495,495,495,493,492,486,475,465,437,426,416,408,401,396,396,396,396,396,401,404,404,404,404,405,405,405,405,405,397,385,360,330,313,299,297,296,296,296,296,296,296,296,296,293,286,274,262,251,211,187,165,141,121,105,104,101,101,101,101,101,101,101,101,101,101,101,101,99],"timestamp_mouse":[11,39,51,71,91,110,131,152,171,191,212,230,251,272,290,311,331,352,372,392,411,431,451,471,491,511,530,551,571,591,611,631,651,672,691,710,732,752,771,792,811,830,851,872,891,911,931,952,971,992,1012,1031,1051,1070,1091,1112,1132,1151,1172,1192,1211,1231,1252,1272,1290,1311,1331,1351,1371,1391,1412,1431,1452,1471,1490,1511,1532,1551,1572,1592,1611,1631,1650,1671,1691],"xSR":741.5,"ySR":469.95,"xT1":424.9,"yT1":0,"xT2":1058.1,"yT2":0,"toosoon":0,"cond_shown":"equaldotsize","ratio_trial":750,"smaller_num":"9","larger_num":"12","correct_side":2,"subjID":"nataliasanchez32","gender":"1","age":"9","school":"4"},{"start_time":1552314232826,"click_time":1552314233884,"finger_time":1552314233404,"fix_duration":1220.1918433850794,"trial":57,"RT":578,"MT":480,"sideResp":2,"stimulus":"img/500/equaldotsize/R/3_Ratio_500_L_10_R_20.png","xmouse":[810,810,810,810,810,810,810,810,810,810,810,810,810,810,810,810,810,810,810,810,810,810,810,810,810,810,827,840,851,862,871,897,909,925,940,981,996,1010,1025,1037,1047,1064,1072,1078,1083,1091,1093,1094,1095,1097,1098,1100,1101],"ymouse":[513,513,513,513,513,513,513,513,513,513,513,513,513,513,513,513,513,513,513,513,513,513,513,513,513,511,489,474,459,443,428,389,373,356,341,300,285,269,252,234,217,179,160,143,130,118,115,113,109,107,104,100,98],"timestamp_mouse":[18,38,57,77,98,118,139,159,179,198,218,239,257,277,297,319,339,358,379,397,419,439,457,479,499,518,538,558,578,599,618,637,658,679,699,720,738,758,778,798,818,838,859,879,898,919,937,958,979,998,1018,1037,1058],"xSR":741.5,"ySR":469.95,"xT1":424.9,"yT1":0,"xT2":1058.1,"yT2":0,"toosoon":0,"cond_shown":"equaldotsize","ratio_trial":500,"smaller_num":"10","larger_num":"20","correct_side":2,"subjID":"nataliasanchez32","gender":"1","age":"9","school":"4"},{"start_time":1552314235741,"click_time":1552314236964,"finger_time":1552314236644,"fix_duration":534.0905402636192,"trial":58,"RT":903,"MT":320,"sideResp":1,"stimulus":"img/750/equaldotanddens/R/2_Ratio_750_L_6_R_8.png","xmouse":[829,829,829,829,829,829,829,829,829,829,829,829,829,829,829,829,829,829,829,829,829,829,829,829,829,829,829,829,829,829,829,829,829,829,829,829,829,829,829,829,829,829,829,828,830,839,846,846,835,823