[{"start_time":1552069939670,"click_time":1552069942178,"finger_time":1552069939757,"fix_duration":508.74433212392375,"trial":0,"RT":87,"MT":2421,"sideResp":2,"stimulus":"img/900/equaldotsize/R/6_Ratio_900_L_9_R_10.png","xmouse":[802,801,801,797,797,797,797,797,797,797,797,797,797,797,797,797,797,797,797,797,797,797,797,797,797,797,797,797,797,797,797,797,797,796,796,794,791,789,786,785,785,785,785,785,785,785,785,785,785,785,784,782,780,780,779,779,779,779,779,779,779,779,778,777,777,776,776,776,776,776,776,776,776,776,776,777,777,777,778,778,779,780,780,780,780,780,780,783,784,787,792,795,797,797,799,802,807,815,823,840,877,898,929,965,992,1033,1045,1058,1072,1079,1097,1104,1111,1115,1117,1122,1124,1126,1129,1131,1140,1143,1142,1139,1134],"ymouse":[581,577,577,568,568,568,568,568,568,568,568,568,568,568,568,568,568,568,568,568,568,568,568,568,568,568,568,568,568,568,568,568,565,561,559,554,546,541,538,536,535,535,535,535,535,535,535,535,535,535,535,537,542,547,553,557,559,559,559,559,559,559,561,564,569,573,578,580,581,581,581,581,582,583,584,585,591,597,603,609,610,612,612,612,612,612,612,605,593,579,562,531,521,513,503,496,488,481,477,471,457,448,437,425,414,388,377,363,343,329,299,282,267,255,245,236,231,226,221,215,188,170,145,118,92],"timestamp_mouse":[11,56,69,87,108,128,148,168,187,207,229,248,268,288,308,328,349,368,388,409,429,448,467,489,508,528,547,569,588,609,629,647,667,688,708,729,748,769,788,807,828,849,868,888,908,929,947,968,988,1008,1028,1047,1069,1088,1108,1127,1148,1168,1188,1207,1228,1248,1268,1289,1308,1328,1348,1369,1389,1408,1429,1448,1468,1488,1509,1528,1549,1568,1588,1608,1628,1649,1668,1687,1709,1729,1748,1769,1787,1809,1828,1848,1868,1888,1908,1927,1948,1969,1988,2008,2028,2048,2068,2088,2109,2129,2148,2169,2187,2208,2228,2247,2268,2288,2308,2329,2348,2368,2389,2408,2430,2448,2468,2489,2507],"xSR":741.5,"ySR":501.8,"xT1":424.9,"yT1":0,"xT2":1058.1,"yT2":0,"toosoon":0,"cond_shown":"equaldotsize","ratio_trial":900,"smaller_num":"9","larger_num":"10","correct_side":2,"subjID":"NataliaValdivieso28","gender":"1","age":"9","school":"4","test":{"fix_dur":[250,1500],"timestim":300,"targets_dim":[100,100],"targets_relative_coord":[0.3,0.7],"size_stim":[880,420],"start_dim":[100,100],"size_start":[300,300],"size_fix":60,"samplingrate":20,"img_types":["equaldotsize","equaldotanddens","randomdotsizeEA"],"ratios":[250,500,750,900],"rep_conds":9,"nTrials":120,"trials_to_rest":500,"Trials_order":[33,72,17,103,35,47,82,12,76,28,99,57,95,74,59,31,100,43,24,34,15,105,108,16,49,1,38,41,83,101,53,114,32,64,9,20,55,56,51,86,102,112,111,113,88,19,117,78,94,18,21,71,68,37,77,11,115,58,4,97,80,62,60,3,52,54,92,10,70,46,89,8,98,107,66,13,22,5,73,104,45,67,118,44,14,7,27,96,106,79,23,36,39,26,84,116,75,30,90,25,6,110,93,81,61,50,91,69,2,40,119,48,63,87,85,0,109,29,42,65],"cond_shown":["equaldotsize","equaldotsize","randomdotsizeEA","equaldotanddens","randomdotsizeEA","randomdotsizeEA","equaldotanddens","equaldotsize","equaldotanddens","equaldotanddens","equaldotsize","equaldotsize","randomdotsizeEA","randomdotsizeEA","randomdotsizeEA","equaldotanddens","equaldotanddens","equaldotanddens","equaldotsize","equaldotanddens","equaldotsize","equaldotsize","equaldotsize","equaldotanddens","equaldotanddens","equaldotanddens","randomdotsizeEA","randomdotsizeEA","randomdotsizeEA","randomdotsizeEA","randomdotsizeEA","equaldotsize","randomdotsizeEA","equaldotanddens","equaldotsize","randomdotsizeEA","equaldotanddens","randomdotsizeEA","equaldotsize","randomdotsizeEA","equaldotsize","equaldotanddens","equaldotsize","randomdotsizeEA","equaldotanddens","equaldotanddens","equaldotsize","equaldotsize","equaldotanddens","equaldotsize","equaldotsize","randomdotsizeEA","randomdotsizeEA","equaldotanddens","randomdotsizeEA","randomdotsizeEA","equaldotanddens","equaldotanddens","equaldotanddens","equaldotanddens","randomdotsizeEA","randomdotsizeEA","equaldotsize","equaldotsize","equaldotanddens","equaldotsize","randomdotsizeEA","equaldotanddens","equaldotanddens","equaldotanddens","randomdotsizeEA","randomdotsizeEA","randomdotsizeEA","randomdotsizeEA","equaldotsize","equaldotanddens","equaldotanddens","randomdotsizeEA","equaldotanddens","randomdotsizeEA","equaldotsize","equaldotanddens","equaldotanddens","randomdotsizeEA","randomdotsizeEA","equaldotanddens","equaldotsize","equaldotsize","equaldotanddens","equaldotanddens","randomdotsizeEA","equaldotsize","equaldotsize","randomdotsizeEA","equaldotsize","randomdotsizeEA","equaldotsize","equaldotsize","equaldotsize","equaldotanddens","equaldotsize","randomdotsizeEA","equaldotsize","equaldotsize","equaldotanddens","randomdotsizeEA","equaldotanddens","equaldotsize","randomdotsizeEA","equaldotanddens","randomdotsizeEA","equaldotsize","equaldotsize","equaldotsize","equaldotanddens","equaldotsize","equaldotanddens","randomdotsizeEA","equaldotsize","randomdotsizeEA"],"ratio_trial":[900,250,500,750,900,900,900,250,500,500,500,900,900,250,900,750,500,750,250,900,500,900,250,500,250,250,250,500,900,500,500,750,750,500,900,750,750,750,500,250,750,500,500,500,500,750,900,750,900,750,900,900,750,250,500,900,750,900,500,250,750,250,250,500,500,750,750,900,900,900,500,750,250,900,750,250,900,500,250,750,900,750,900,750,250,750,500,250,900,750,900,250,500,250,250,750,500,750,750,250,750,250,900,900,250,250,750,900,250,500,900,250,500,500,250,250,250,500,750,500],"smaller_num":["9","5","4","15","18","18","18","3","10","9","4","18","18","3","18","3","3","3","2","9","9","9","6","1","6","3","2","3","18","5","5","3","3","9","18","18","6","15","6","6","15","6","9","5","4","12","9","15","18","3","9","18","15","3","6","9","18","18","2","2","12","4","1","9","6","3","3","18","18","9","10","9","4","9","12","2","18","2","4","15","9","3","18","3","2","15","5","3","18","15","18","1","3","6","1","3","6","6","3","4","15","5","9","18","1","2","3","9","4","2","9","2","1","1","3","3","3","5","6","4"],"larger_num":["10","20","8","20","20","20","20","12","20","18","8","20","20","12","20","4","6","4","8","10","18","10","24","2","24","12","8","6","20","10","10","4","4","18","20","24","8","20","12","24","20","12","18","10","8","16","10","20","20","4","10","20","20","12","12","10","24","20","4","8","16","16","4","18","12","4","4","20","20","10","20","12","16","10","16","8","20","4","16","20","10","4","20","4","8","20","10","12","20","20","20","4","6","24","4","4","12","8","4","16","20","20","10","20","4","8","4","10","16","4","10","8","2","2","12","12","12","10","8","8"],"correct_side":[2,2,1,1,2,1,1,1,2,2,1,2,2,2,2,1,2,1,1,2,2,2,2,2,2,1,1,2,2,1,2,1,1,2,1,1,2,1,1,1,2,1,2,1,1,2,2,2,2,1,2,2,2,1,1,1,1,1,2,1,2,1,2,2,1,2,1,1,2,2,2,2,2,2,2,1,1,1,1,2,1,1,1,2,1,2,1,2,1,1,1,2,2,2,2,1,1,1,1,2,2,2,2,2,2,1,2,2,2,1,2,1,2,2,1,1,2,1,2,1],"img_shown":["img/900/equaldotsize/R/6_Ratio_900_L_9_R_10.png","img/250/equaldotsize/R/12_Ratio_250_L_5_R_20.png","img/500/randomdotsizeEA/L/8_Ratio_500_L_8_R_4.png","img/750/equaldotanddens/L/1_Ratio_750_L_20_R_15.png","img/900/randomdotsizeEA/R/13_Ratio_900_L_18_R_20.png","img/900/randomdotsizeEA/L/10_Ratio_900_L_20_R_18.png","img/900/equaldotanddens/L/4_Ratio_900_L_20_R_18.png","img/250/equaldotsize/L/15_Ratio_250_L_12_R_3.png","img/500/equaldotanddens/R/3_Ratio_500_L_10_R_20.png","img/500/equaldotanddens/R/1_Ratio_500_L_9_R_18.png","img/500/equaldotsize/L/8_Ratio_500_L_8_R_4.png","img/900/equaldotsize/R/11_Ratio_900_L_18_R_20.png","img/900/randomdotsizeEA/R/13_Ratio_900_L_18_R_20.png","img/250/randomdotsizeEA/R/4_Ratio_250_L_3_R_12.png","img/900/randomdotsizeEA/R/11_Ratio_900_L_18_R_20.png","img/750/equaldotanddens/L/8_Ratio_750_L_4_R_3.png","img/500/equaldotanddens/R/2_Ratio_500_L_3_R_6.png","img/750/equaldotanddens/L/9_Ratio_750_L_4_R_3.png","img/250/equaldotsize/L/1_Ratio_250_L_8_R_2.png","img/900/equaldotanddens/R/15_Ratio_900_L_9_R_10.png","img/500/equaldotsize/R/6_Ratio_500_L_9_R_18.png","img/900/equaldotsize/R/15_Ratio_900_L_9_R_10.png","img/250/equaldotsize/R/6_Ratio_250_L_6_R_24.png","img/500/equaldotanddens/R/15_Ratio_500_L_1_R_2.png","img/250/equaldotanddens/R/6_Ratio_250_L_6_R_24.png","img/250/equaldotanddens/L/15_Ratio_250_L_12_R_3.png","img/250/randomdotsizeEA/L/1_Ratio_250_L_8_R_2.png","img/500/randomdotsizeEA/R/2_Ratio_500_L_3_R_6.png","img/900/randomdotsizeEA/R/11_Ratio_900_L_18_R_20.png","img/500/randomdotsizeEA/L/7_Ratio_500_L_10_R_5.png","img/500/randomdotsizeEA/R/14_Ratio_500_L_5_R_10.png","img/750/equaldotsize/L/8_Ratio_750_L_4_R_3.png","img/750/randomdotsizeEA/L/10_Ratio_750_L_4_R_3.png","img/500/equaldotanddens/R/1_Ratio_500_L_9_R_18.png","img/900/equaldotsize/L/4_Ratio_900_L_20_R_18.png","img/750/randomdotsizeEA/L/6_Ratio_750_L_24_R_18.png","img/750/equaldotanddens/R/2_Ratio_750_L_6_R_8.png","img/750/randomdotsizeEA/L/1_Ratio_750_L_20_R_15.png","img/500/equaldotsize/L/13_Ratio_500_L_12_R_6.png","img/250/randomdotsizeEA/L/5_Ratio_250_L_24_R_6.png","img/750/equaldotsize/R/5_Ratio_750_L_15_R_20.png","img/500/equaldotanddens/L/13_Ratio_500_L_12_R_6.png","img/500/equaldotsize/R/6_Ratio_500_L_9_R_18.png","img/500/randomdotsizeEA/L/7_Ratio_500_L_10_R_5.png","img/500/equaldotanddens/L/8_Ratio_500_L_8_R_4.png","img/750/equaldotanddens/R/11_Ratio_750_L_12_R_16.png","img/900/equaldotsize/R/7_Ratio_900_L_9_R_10.png","img/750/equaldotsize/R/3_Ratio_750_L_15_R_20.png","img/900/equaldotanddens/R/12_Ratio_900_L_18_R_20.png","img/750/equaldotsize/L/9_Ratio_750_L_4_R_3.png","img/900/equaldotsize/R/7_Ratio_900_L_9_R_10.png","img/900/randomdotsizeEA/R/14_Ratio_900_L_18_R_20.png","img/750/randomdotsizeEA/R/4_Ratio_750_L_15_R_20.png","img/250/equaldotanddens/L/14_Ratio_250_L_12_R_3.png","img/500/randomdotsizeEA/L/11_Ratio_500_L_12_R_6.png","img/900/randomdotsizeEA/L/1_Ratio_900_L_10_R_9.png","img/750/equaldotanddens/L/6_Ratio_750_L_24_R_18.png","img/900/equaldotanddens/L/4_Ratio_900_L_20_R_18.png","img/500/equaldotanddens/R/9_Ratio_500_L_2_R_4.png","img/250/equaldotanddens/L/1_Ratio_250_L_8_R_2.png","img/750/randomdotsizeEA/R/11_Ratio_750_L_12_R_16.png","img/250/randomdotsizeEA/L/2_Ratio_250_L_16_R_4.png","img/250/equaldotsize/R/8_Ratio_250_L_1_R_4.png","img/500/equaldotsize/R/6_Ratio_500_L_9_R_18.png","img/500/equaldotanddens/L/13_Ratio_500_L_12_R_6.png","img/750/equaldotsize/R/12_Ratio_750_L_3_R_4.png","img/750/randomdotsizeEA/L/10_Ratio_750_L_4_R_3.png","img/900/equaldotanddens/L/2_Ratio_900_L_20_R_18.png","img/900/equaldotanddens/R/11_Ratio_900_L_18_R_20.png","img/900/equaldotanddens/R/15_Ratio_900_L_9_R_10.png","img/500/randomdotsizeEA/R/3_Ratio_500_L_10_R_20.png","img/750/randomdotsizeEA/R/15_Ratio_750_L_9_R_12.png","img/250/randomdotsizeEA/R/10_Ratio_250_L_4_R_16.png","img/900/randomdotsizeEA/R/15_Ratio_900_L_9_R_10.png","img/750/equaldotsize/R/11_Ratio_750_L_12_R_16.png","img/250/equaldotanddens/L/7_Ratio_250_L_8_R_2.png","img/900/equaldotanddens/L/4_Ratio_900_L_20_R_18.png","img/500/randomdotsizeEA/L/10_Ratio_500_L_4_R_2.png","img/250/equaldotanddens/L/2_Ratio_250_L_16_R_4.png","img/750/randomdotsizeEA/R/3_Ratio_750_L_15_R_20.png","img/900/equaldotsize/L/1_Ratio_900_L_10_R_9.png","img/750/equaldotanddens/L/9_Ratio_750_L_4_R_3.png","img/900/equaldotanddens/L/10_Ratio_900_L_20_R_18.png","img/750/randomdotsizeEA/R/7_Ratio_750_L_3_R_4.png","img/250/randomdotsizeEA/L/1_Ratio_250_L_8_R_2.png","img/750/equaldotanddens/R/3_Ratio_750_L_15_R_20.png","img/500/equaldotsize/L/7_Ratio_500_L_10_R_5.png","img/250/equaldotsize/R/4_Ratio_250_L_3_R_12.png","img/900/equaldotanddens/L/4_Ratio_900_L_20_R_18.png","img/750/equaldotanddens/L/1_Ratio_750_L_20_R_15.png","img/900/randomdotsizeEA/L/8_Ratio_900_L_20_R_18.png","img/250/equaldotsize/R/8_Ratio_250_L_1_R_4.png","img/500/equaldotsize/R/2_Ratio_500_L_3_R_6.png","img/250/randomdotsizeEA/R/6_Ratio_250_L_6_R_24.png","img/250/equaldotsize/R/8_Ratio_250_L_1_R_4.png","img/750/randomdotsizeEA/L/8_Ratio_750_L_4_R_3.png","img/500/equaldotsize/L/13_Ratio_500_L_12_R_6.png","img/750/equaldotsize/L/13_Ratio_750_L_8_R_6.png","img/750/equaldotsize/L/10_Ratio_750_L_4_R_3.png","img/250/equaldotanddens/R/10_Ratio_250_L_4_R_16.png","img/750/equaldotsize/R/3_Ratio_750_L_15_R_20.png","img/250/randomdotsizeEA/R/12_Ratio_250_L_5_R_20.png","img/900/equaldotsize/R/15_Ratio_900_L_9_R_10.png","img/900/equaldotsize/R/12_Ratio_900_L_18_R_20.png","img/250/equaldotanddens/R/8_Ratio_250_L_1_R_4.png","img/250/randomdotsizeEA/L/1_Ratio_250_L_8_R_2.png","img/750/equaldotanddens/R/12_Ratio_750_L_3_R_4.png","img/900/equaldotsize/R/15_Ratio_900_L_9_R_10.png","img/250/randomdotsizeEA/R/10_Ratio_250_L_4_R_16.png","img/500/equaldotanddens/L/10_Ratio_500_L_4_R_2.png","img/900/randomdotsizeEA/R/15_Ratio_900_L_9_R_10.png","img/250/equaldotsize/L/1_Ratio_250_L_8_R_2.png","img/500/equaldotsize/R/15_Ratio_500_L_1_R_2.png","img/500/equaldotsize/R/15_Ratio_500_L_1_R_2.png","img/250/equaldotanddens/L/15_Ratio_250_L_12_R_3.png","img/250/equaldotsize/L/15_Ratio_250_L_12_R_3.png","img/250/equaldotanddens/R/11_Ratio_250_L_3_R_12.png","img/500/randomdotsizeEA/L/7_Ratio_500_L_10_R_5.png","img/750/equaldotsize/R/2_Ratio_750_L_6_R_8.png","img/500/randomdotsizeEA/L/8_Ratio_500_L_8_R_4.png"],"Rat0":[["12_Ratio_0_L_9_R_0.png","13_Ratio_0_L_6_R_0.png","5_Ratio_0_L_2_R_0.png","6_Ratio_0_L_4_R_0.png","8_Ratio_0_L_6_R_0.png"],["1_Ratio_0_L_0_R_17.png","10_Ratio_0_L_0_R_22.png","11_Ratio_0_L_0_R_1.png","14_Ratio_0_L_0_R_24.png","15_Ratio_0_L_0_R_4.png","2_Ratio_0_L_0_R_5.png","3_Ratio_0_L_0_R_17.png","4_Ratio_0_L_0_R_7.png","7_Ratio_0_L_0_R_19.png","9_Ratio_0_L_0_R_15.png"]],"Rat250":[["1_Ratio_250_L_8_R_2.png","14_Ratio_250_L_12_R_3.png","15_Ratio_250_L_12_R_3.png","2_Ratio_250_L_16_R_4.png","3_Ratio_250_L_8_R_2.png","5_Ratio_250_L_24_R_6.png","7_Ratio_250_L_8_R_2.png"],["10_Ratio_250_L_4_R_16.png","11_Ratio_250_L_3_R_12.png","12_Ratio_250_L_5_R_20.png","13_Ratio_250_L_2_R_8.png","4_Ratio_250_L_3_R_12.png","6_Ratio_250_L_6_R_24.png","8_Ratio_250_L_1_R_4.png","9_Ratio_250_L_3_R_12.png"]],"Rat500":[["10_Ratio_500_L_4_R_2.png","11_Ratio_500_L_12_R_6.png","13_Ratio_500_L_12_R_6.png","4_Ratio_500_L_18_R_9.png","5_Ratio_500_L_4_R_2.png","7_Ratio_500_L_10_R_5.png","8_Ratio_500_L_8_R_4.png"],["1_Ratio_500_L_9_R_18.png","12_Ratio_500_L_1_R_2.png","14_Ratio_500_L_5_R_10.png","15_Ratio_500_L_1_R_2.png","2_Ratio_500_L_3_R_6.png","3_Ratio_500_L_10_R_20.png","6_Ratio_500_L_9_R_18.png","9_Ratio_500_L_2_R_4.png"]],"Rat750":[["1_Ratio_750_L_20_R_15.png","10_Ratio_750_L_4_R_3.png","13_Ratio_750_L_8_R_6.png","14_Ratio_750_L_8_R_6.png","6_Ratio_750_L_24_R_18.png","8_Ratio_750_L_4_R_3.png","9_Ratio_750_L_4_R_3.png"],["11_Ratio_750_L_12_R_16.png","12_Ratio_750_L_3_R_4.png","15_Ratio_750_L_9_R_12.png","2_Ratio_750_L_6_R_8.png","3_Ratio_750_L_15_R_20.png","4_Ratio_750_L_15_R_20.png","5_Ratio_750_L_15_R_20.png","7_Ratio_750_L_3_R_4.png"]],"Rat900":[["1_Ratio_900_L_10_R_9.png","10_Ratio_900_L_20_R_18.png","2_Ratio_900_L_20_R_18.png","4_Ratio_900_L_20_R_18.png","8_Ratio_900_L_20_R_18.png"],["11_Ratio_900_L_18_R_20.png","12_Ratio_900_L_18_R_20.png","13_Ratio_900_L_18_R_20.png","14_Ratio_900_L_18_R_20.png","15_Ratio_900_L_9_R_10.png","3_Ratio_900_L_9_R_10.png","5_Ratio_900_L_9_R_10.png","6_Ratio_900_L_9_R_10.png","7_Ratio_900_L_9_R_10.png","9_Ratio_900_L_18_R_20.png"]],"Rat1000":[["10_Ratio_1000_L_16_R_16.png","11_Ratio_1000_L_6_R_6.png","12_Ratio_1000_L_14_R_14.png","13_Ratio_1000_L_20_R_20.png","15_Ratio_1000_L_15_R_15.png","2_Ratio_1000_L_17_R_17.png","4_Ratio_1000_L_9_R_9.png","5_Ratio_1000_L_6_R_6.png","6_Ratio_1000_L_19_R_19.png","8_Ratio_1000_L_14_R_14.png","9_Ratio_1000_L_25_R_25.png"],["1_Ratio_1000_L_1_R_1.png","14_Ratio_1000_L_17_R_17.png","3_Ratio_1000_L_17_R_17.png","7_Ratio_1000_L_6_R_6.png"]]}},{"start_time":1552069944852,"click_time":1552069946240,"finger_time":1552069945499,"fix_duration":751.5852259670141,"trial":1,"RT":647,"MT":741,"sideResp":2,"stimulus":"img/250/equaldotsize/R/12_Ratio_250_L_5_R_20.png","xmouse":[776,776,776,776,776,776,776,776,776,776,776,776,776,776,776,776,776,776,776,776,776,776,776,776,776,776,777,787,796,815,825,836,860,872,883,897,911,928,983,1012,1039,1070,1121,1140,1151,1159,1165,1172,1175,1182,1187,1190,1193,1194,1194,1194,1194,1194,1194,1194,1194,1194,1193,1191,1184,1174,1167,1156,1109,1064],"ymouse":[616,616,616,616,616,616,616,616,616,616,616,616,616,616,616,616,616,616,616,616,616,616,616,616,616,616,615,611,607,597,591,584,568,560,549,538,528,513,465,441,413,378,308,277,254,236,220,198,188,173,162,152,141,133,132,132,132,131,130,130,129,128,127,127,125,122,119,116,100,83],"timestamp_mouse":[10,26,46,67,87,106,126,147,165,185,207,227,246,266,286,306,326,347,365,387,406,425,446,466,487,507,526,546,566,586,606,625,647,665,686,706,726,746,765,786,806,827,847,865,887,906,926,947,965,987,1006,1026,1046,1066,1085,1105,1127,1145,1165,1186,1206,1227,1246,1266,1286,1307,1326,1346,1365,1387],"xSR":741.5,"ySR":573.95,"xT1":424.9,"yT1":0,"xT2":1058.1,"yT2":0,"toosoon":0,"cond_shown":"equaldotsize","ratio_trial":250,"smaller_num":"5","larger_num":"20","correct_side":2,"subjID":"NataliaValdivieso28","gender":"1","age":"9","school":"4"},{"start_time":1552069948903,"click_time":1552069950518,"finger_time":1552069949817,"fix_duration":1202.4008824773148,"trial":2,"RT":914,"MT":701,"sideResp":1,"stimulus":"img/500/randomdotsizeEA/L/8_Ratio_500_L_8_R_4.png","xmouse":[783,783,783,783,783,783,783,783,783,783,783,783,783,783,783,783,783,783,783,783,783,783,783,783,783,783,783,783,783,783,783,783,783,783,783,783,783,783,783,783,783,782,781,778,773,753,747,741,735,733,730,727,725,722,709,692,687,677,669,658,649,640,631,621,604,596,587,581,579,577,575,575,575,575,575,575,571,564,553,538,504],"ymouse":[611,611,611,611,611,611,611,611,611,611,611,611,611,611,611,611,611,611,611,611,611,611,611,611,611,611,611,611,611,611,611,611,611,611,611,611,611,611,611,611,611,611,611,604,591,550,535,521,512,506,498,494,491,488,475,463,458,445,431,408,392,375,360,342,308,289,257,237,223,212,202,201,201,201,201,197,186,170,151,127,79],"timestamp_mouse":[14,39,55,76,96,116,134,156,176,196,216,234,255,275,296,316,335,355,375,395,416,436,456,474,494,515,536,555,576,594,614,636,654,676,696,714,736,756,775,794,816,835,855,876,894,914,936,954,975,995,1015,1036,1056,1076,1095,1114,1135,1156,1175,1196,1214,1235,1255,1276,1296,1315,1335,1355,1376,1395,1415,1435,1455,1476,1495,1515,1534,1555,1575,1595,1615],"xSR":741.5,"ySR":573.95,"xT1":424.9,"yT1":0,"xT2":1058.1,"yT2":0,"toosoon":0,"cond_shown":"randomdotsizeEA","ratio_trial":500,"smaller_num":"4","larger_num":"8","correct_side":1,"subjID":"NataliaValdivieso28","gender":"1","age":"9","school":"4"},{"start_time":1552069952641,"click_time":1552069953998,"finger_time":1552069953478,"fix_duration":781.2718358944651,"trial":3,"RT":837,"MT":520,"sideResp":1,"stimulus":"img/750/equaldotanddens/L/1_Ratio_750_L_20_R_15.png","xmouse":[790,791,791,793,793,793,793,793,793,793,793,793,793,793,793,793,793,793,793,793,793,793,793,793,793,793,793,793,793,793,793,793,793,791,789,787,787,785,778,774,768,764,756,750,744,737,731,711,699,683,673,664,640,630,620,610,600,578,566,562,553,548,536,530,525,520,514,504],"ymouse":[666,662,662,658,658,658,658,658,658,658,658,658,658,658,658,658,658,658,658,658,658,658,658,658,658,657,657,655,654,652,650,649,644,639,636,631,628,623,607,594,581,567,536,518,499,476,454,408,384,350,328,307,265,246,227,212,197,173,161,156,147,143,134,130,126,120,112,98],"timestamp_mouse":[17,44,57,77,97,118,137,156,178,198,218,237,257,278,297,318,338,357,378,397,418,437,458,478,497,518,536,558,578,597,618,637,658,678,697,716,737,757,776,797,818,837,857,876,896,917,938,958,976,997,1017,1038,1057,1077,1098,1116,1136,1157,1177,1196,1218,1236,1257,1276,1297,1316,1337,1357],"xSR":741.5,"ySR":573.95,"xT1":424.9,"yT1":0,"xT2":1058.1,"yT2":0,"toosoon":0,"cond_shown":"equaldotanddens","ratio_trial":750,"smaller_num":"15","larger_num":"20","correct_side":1,"subjID":"NataliaValdivieso28","gender":"1","age":"9","school":"4"},{"start_time":1552069955859,"click_time":1552069957099,"finger_time":1552069956538,"fix_duration":378.89940160359316,"trial":4,"RT":679,"MT":561,"sideResp":2,"stimulus":"img/900/randomdotsizeEA/R/13_Ratio_900_L_18_R_20.png","xmouse":[823,823,823,823,823,823,823,823,823,823,823,823,823,823,823,823,823,823,823,823,823,823,823,823,823,823,823,823,823,823,823,823,823,834,842,851,861,879,888,898,911,919,926,946,955,964,973,981,995,1005,1014,1022,1040,1051,1061,1070,1080,1092,1094,1096,1099,1103,1111],"ymouse":[604,604,604,604,604,604,604,604,604,604,604,604,604,604,604,604,604,604,604,604,604,604,604,604,604,604,604,604,604,604,604,602,599,581,566,548,529,487,466,447,417,398,380,345,328,313,294,279,254,236,225,214,193,181,170,159,148,130,126,122,116,109,97],"timestamp_mouse":[1,19,40,60,79,100,118,140,159,179,199,218,240,260,280,298,319,339,360,379,398,419,440,459,480,499,520,540,560,579,599,619,638,659,679,698,720,740,758,779,798,818,838,858,879,899,919,939,960,980,998,1019,1039,1058,1079,1100,1120,1140,1158,1178,1199,1219,1240],"xSR":741.5,"ySR":573.95,"xT1":424.9,"yT1":0,"xT2":1058.1,"yT2":0,"toosoon":0,"cond_shown":"randomdotsizeEA","ratio_trial":900,"smaller_num":"18","larger_num":"20","correct_side":2,"subjID":"NataliaValdivieso28","gender":"1","age":"9","school":"4"},{"start_time":1552069962551,"click_time":1552069964218,"finger_time":1552069963378,"fix_duration":1149.102969033583,"trial":5,"RT":827,"MT":840,"sideResp":2,"stimulus":"img/900/randomdotsizeEA/L/10_Ratio_900_L_20_R_18.png","xmouse":[796,796,796,795,791,787,786,784,783,783,782,782,782,782,782,782,782,782,782,782,782,782,782,782,782,782,782,782,782,782,782,782,782,782,782,782,782,782,782,783,785,787,793,804,816,819,830,845,853,866,877,893,932,962,969,985,1005,1036,1052,1067,1081,1100,1135,1151,1162,1172,1184,1191,1202,1207,1212,1215,1217,1217,1215,1214,1211,1203,1196,1186,1179,1171,1160,1156],"ymouse":[646,646,646,642,631,623,619,611,609,609,608,608,608,608,608,608,608,608,608,608,608,608,608,608,608,608,608,608,608,608,608,608,608,608,608,607,606,596,591,584,578,571,561,546,532,527,515,500,493,482,475,465,447,429,424,411,391,364,350,335,320,304,272,254,238,222,199,185,159,146,132,121,108,88,79,76,71,63,59,54,50,47,44,43],"timestamp_mouse":[11,36,48,67,86,106,127,147,167,187,207,226,246,266,288,307,326,348,368,388,406,428,447,466,487,507,527,547,568,588,607,628,646,668,688,708,727,747,767,787,807,827,846,866,887,907,926,947,966,988,1007,1028,1048,1067,1087,1107,1127,1147,1167,1186,1208,1226,1248,1266,1287,1308,1327,1348,1366,1387,1407,1427,1447,1466,1487,1507,1527,1547,1567,1586,1607,1626,1648,1667],"xSR":741.5,"ySR":573.95,"xT1":424.9,"yT1":0,"xT2":1058.1,"yT2":0,"toosoon":0,"cond_shown":"randomdotsizeEA","ratio_trial":900,"smaller_num":"18","larger_num":"20","correct_side":1,"subjID":"NataliaValdivieso28","gender":"1","age":"9","school":"4"},{"start_time":1552069967751,"click_time":1552069968898,"finger_time":1552069968378,"fix_duration":250,"trial":6,"RT":627,"MT":520,"sideResp":1,"stimulus":"img/900/equaldotanddens/L/4_Ratio_900_L_20_R_18.png","xmouse":[787,787,787,787,787,787,787,787,787,787,787,787,787,787,787,787,787,787,787,787,787,787,787,787,787,787,788,791,792,794,795,796,797,796,793,787,776,749,733,710,687,665,639,582,554,531,515,483,476,474,474,474,474,474,474,473,469,464],"ymouse":[601,601,601,601,601,601,601,601,601,601,601,601,601,601,601,601,601,601,601,601,601,601,601,601,601,601,601,597,594,589,578,566,532,505,494,474,440,378,342,305,260,214,171,84,48,17,0,0,0,0,0,0,0,0,0,0,0,3],"timestamp_mouse":[10,39,48,68,88,108,126,147,167,188,206,228,246,268,287,306,326,348,367,387,407,428,448,468,487,507,527,547,568,587,606,627,647,667,688,708,727,746,767,788,808,828,847,866,887,907,927,948,967,987,1008,1027,1048,1068,1086,1107,1126,1146],"xSR":741.5,"ySR":573.95,"xT1":424.9,"yT1":0,"xT2":1058.1,"yT2":0,"toosoon":0,"cond_shown":"equaldotanddens","ratio_trial":900,"smaller_num":"18","larger_num":"20","correct_side":1,"subjID":"NataliaValdivieso28","gender":"1","age":"9","school":"4"},{"start_time":1552069971482,"click_time":1552069972699,"finger_time":1552069972199,"fix_duration":1042.4675993951344,"trial":7,"RT":717,"MT":500,"sideResp":1,"stimulus":"img/250/equaldotsize/L/15_Ratio_250_L_12_R_3.png","xmouse":[770,770,770,770,770,770,770,770,770,770,770,770,770,770,770,770,770,770,770,770,770,770,770,770,770,770,770,770,770,770,770,770,771,771,771,767,760,758,751,742,727,720,713,707,701,693,676,664,652,638,622,584,563,544,529,508,496,495,486,480,464],"ymouse":[607,607,607,607,607,607,607,607,607,607,607,607,607,607,607,607,607,607,607,607,607,607,607,607,607,607,607,607,607,606,603,597,593,586,578,553,529,520,496,478,449,438,425,414,403,389,358,330,306,282,257,207,187,169,156,138,127,126,114,104,75],"timestamp_mouse":[17,44,55,76,96,117,135,155,177,195,216,235,255,276,296,316,336,355,377,396,417,437,456,477,497,516,537,556,575,596,616,636,657,677,696,717,736,756,777,796,817,835,855,875,896,915,936,956,977,997,1016,1037,1056,1077,1095,1117,1136,1157,1176,1197,1217],"xSR":741.5,"ySR":573.95,"xT1":424.9,"yT1":0,"xT2":1058.1,"yT2":0,"toosoon":0,"cond_shown":"equaldotsize","ratio_trial":250,"smaller_num":"3","larger_num":"12","correct_side":1,"subjID":"NataliaValdivieso28","gender":"1","age":"9","school":"4"},{"start_time":1552069979186,"click_time":1552069980378,"finger_time":1552069979620,"fix_duration":1146.0729283503251,"trial":8,"RT":434,"MT":758,"sideResp":2,"stimulus":"img/500/equaldotanddens/R/3_Ratio_500_L_10_R_20.png","xmouse":[787,787,788,788,788,789,789,789,789,789,789,790,790,790,790,790,792,792,792,793,794,797,800,803,805,809,811,814,818,821,827,841,847,859,868,884,892,901,914,929,960,974,987,1003,1012,1020,1034,1040,1047,1055,1061,1071,1074,1077,1079,1083,1085,1088,1089,1090],"ymouse":[631,631,630,629,628,625,625,625,624,623,622,620,619,618,617,615,609,605,601,596,590,573,564,554,546,525,517,506,494,484,470,443,435,412,397,368,355,339,322,304,267,252,236,216,204,195,179,172,165,156,148,134,127,124,119,112,107,104,101,99],"timestamp_mouse":[22,32,52,74,93,113,132,154,172,193,212,233,252,274,293,312,334,353,373,392,413,434,454,474,493,514,533,553,572,593,612,632,653,672,692,713,732,752,774,792,814,832,852,873,894,914,934,953,974,992,1012,1032,1053,1072,1092,1113,1132,1153,1173,1192],"xSR":741.5,"ySR":573.95,"xT1":424.9,"yT1":0,"xT2":1058.1,"yT2":0,"toosoon":0,"cond_shown":"equaldotanddens","ratio_trial":500,"smaller_num":"10","larger_num":"20","correct_side":2,"subjID":"NataliaValdivieso28","gender":"1","age":"9","school":"4"},{"start_time":1552069982528,"click_time":1552069983479,"finger_time":1552069983039,"fix_duration":807.2631925223732,"trial":9,"RT":511,"MT":440,"sideResp":2,"stimulus":"img/500/equaldotanddens/R/1_Ratio_500_L_9_R_18.png","xmouse":[768,768,769,769,769,770,772,773,774,776,776,777,777,779,781,784,785,788,791,792,794,795,797,799,806,812,823,831,854,867,882,899,918,961,990,1000,1025,1040,1067,1080,1091,1103,1112,1122,1136,1143,1147,1149],"ymouse":[627,627,626,626,625,624,622,620,619,617,616,616,615,612,609,606,604,601,596,595,593,590,588,586,576,569,557,547,517,502,484,461,436,376,334,320,283,261,225,206,191,175,162,149,125,109,101,92],"timestamp_mouse":[11,31,51,71,91,111,132,151,171,191,211,231,251,271,292,311,332,351,372,392,411,430,451,471,490,511,531,551,571,591,611,630,651,671,691,711,731,752,772,790,811,830,851,870,891,911,931,951],"xSR":741.5,"ySR":573.95,"xT1":424.9,"yT1":0,"xT2":1058.1,"yT2":0,"toosoon":0,"cond_shown":"equaldotanddens","ratio_trial":500,"smaller_num":"9","larger_num":"18","correct_side":2,"subjID":"NataliaValdivieso28","gender":"1","age":"9","school":"4"},{"start_time":1552069986157,"click_time":1552069987239,"finger_time":1552069986699,"fix_duration":1035.3430474195418,"trial":10,"RT":542,"MT":540,"sideResp":2,"stimulus":"img/500/equaldotsize/L/8_Ratio_500_L_8_R_4.png","xmouse":[776,776,776,776,776,776,776,776,776,776,776,776,776,776,776,776,777,781,783,785,787,791,795,801,803,808,812,817,823,826,830,834,841,847,849,855,859,869,875,882,891,902,911,931,947,958,968,994,1007,1020,1035,1046,1058,1080,1086],"ymouse":[620,620,620,620,620,620,620,620,620,620,620,620,620,620,620,620,620,620,620,619,617,614,608,600,596,589,582,572,555,544,530,517,492,472,465,444,430,404,391,380,367,353,340,312,290,276,261,229,211,192,171,154,136,102,92],"timestamp_mouse":[14,25,42,62,82,102,121,142,162,182,201,222,243,263,282,301,322,343,362,382,402,423,442,461,483,502,521,542,563,583,603,622,642,661,681,701,721,742,762,783,803,821,841,861,882,902,923,942,961,982,1001,1021,1041,1063,1082],"xSR":741.5,"ySR":573.95,"xT1":424.9,"yT1":0,"xT2":1058.1,"yT2":0,"toosoon":0,"cond_shown":"equaldotsize","ratio_trial":500,"smaller_num":"4","larger_num":"8","correct_side":1,"subjID":"NataliaValdivieso28","gender":"1","age":"9","school":"4"},{"start_time":1552069991359,"click_time":1552069992699,"finger_time":1552069992059,"fix_duration":960.1173432137889,"trial":11,"RT":700,"MT":640,"sideResp":2,"stimulus":"img/900/equaldotsize/R/11_Ratio_900_L_18_R_20.png","xmouse":[778,778,778,778,778,778,778,778,778,778,778,778,778,778,778,778,778,778,778,778,778,778,778,778,778,778,778,778,779,779,779,781,784,789,794,800,817,828,840,850,860,881,892,904,924,938,969,982,997,1008,1020,1037,1044,1053,1058,1066,1074,1077,1079,1084,1088,1091,1099,1104,1107,1111,1115],"ymouse":[624,624,624,624,624,624,624,624,624,624,624,624,624,624,624,624,624,624,624,624,624,624,624,624,624,624,624,624,624,619,617,605,597,584,573,563,534,518,499,485,467,437,420,402,375,357,318,300,282,266,249,228,217,204,197,189,176,170,165,158,152,145,132,121,113,106,95],"timestamp_mouse":[20,49,60,81,99,119,140,160,181,201,220,240,259,280,300,320,339,360,380,400,419,440,461,480,500,521,539,559,580,601,620,640,661,679,700,721,740,759,779,799,820,841,860,879,900,920,940,960,979,999,1019,1040,1061,1080,1099,1119,1139,1161,1180,1199,1220,1240,1259,1279,1300,1320,1340],"xSR":741.5,"ySR":573.95,"xT1":424.9,"yT1":0,"xT2":1058.1,"yT2":0,"toosoon":0,"cond_shown":"equaldotsize","ratio_trial":900,"smaller_num":"18","larger_num":"20","correct_side":2,"subjID":"NataliaValdivieso28","gender":"1","age":"9","school":"4"},{"start_time":1552069994472,"click_time":1552069995779,"finger_time":1552069995400,"fix_duration":250,"trial":12,"RT":928,"MT":379,"sideResp":2,"stimulus":"img/900/randomdotsizeEA/R/13_Ratio_900_L_18_R_20.png","xmouse":[780,781,782,782,782,783,783,783,783,783,783,783,783,783,783,783,783,783,783,783,783,783,783,783,783,783,783,783,783,783,783,783,783,783,783,783,783,783,784,784,786,789,795,801,806,813,825,831,839,848,855,867,875,883,895,908,943,974,987,1025,1046,1077,1087,1096,1105,1113],"ymouse":[634,634,633,633,633,632,632,632,632,632,632,632,632,632,632,632,632,632,632,632,632,632,632,632,632,632,632,632,632,632,632,632,632,632,632,632,632,632,631,630,627,622,612,605,599,591,573,563,551,533,522,501,488,475,456,437,392,347,330,273,236,168,144,122,101,84],"timestamp_mouse":[9,34,46,68,86,108,127,146,166,187,207,226,247,268,286,306,328,346,366,386,407,427,446,467,486,508,528,547,567,588,607,627,647,667,687,706,728,747,767,787,807,826,846,867,887,907,928,946,966,986,1007,1027,1046,1067,1087,1107,1127,1146,1167,1186,1206,1226,1246,1266,1287,1307],"xSR":741.5,"ySR":573.95,"xT1":424.9,"yT1":0,"xT2":1058.1,"yT2":0,"toosoon":0,"cond_shown":"randomdotsizeEA","ratio_trial":900,"smaller_num":"18","larger_num":"20","correct_side":2,"subjID":"NataliaValdivieso28","gender":"1","age":"9","school":"4"},{"start_time":1552069998242,"click_time":1552070000219,"finger_time":1552069999060,"fix_duration":1043.0597749030967,"trial":13,"RT":818,"MT":1159,"sideResp":2,"stimulus":"img/250/randomdotsizeEA/R/4_Ratio_250_L_3_R_12.png","xmouse":[766,766,766,766,766,766,766,766,766,766,766,766,766,766,766,766,766,766,766,766,766,766,766,766,766,766,766,766,766,766,766,766,766,766,766,766,766,766,766,766,766,763,759,753,749,746,744,742,738,735,732,730,726,718,716,714,713,711,710,708,708,708,707,707,707,707,707,710,722,731,740,749,763,792,807,819,836,853,879,897,905,910,925,934,941,950,956,964,979,994,1006,1020,1033,1058,1072,1085,1096,1111,1117],"ymouse":[599,599,599,599,599,599,599,599,599,599,599,599,599,599,599,599,599,599,599,599,599,599,599,599,599,599,599,599,599,599,599,599,599,599,599,599,596,595,588,583,572,566,556,542,532,525,519,513,496,487,478,470,461,444,440,436,430,427,425,423,422,421,420,420,419,418,414,407,387,368,355,342,325,294,280,269,257,245,228,219,216,213,207,204,202,199,197,194,185,179,175,171,165,152,143,133,123,106,98],"timestamp_mouse":[16,41,57,77,96,117,138,157,177,198,216,237,258,276,297,317,337,356,377,397,416,436,457,476,497,518,538,556,577,596,616,638,657,677,697,716,737,757,777,796,818,838,858,878,897,916,936,957,978,997,1016,1037,1056,1077,1096,1116,1138,1157,1178,1197,1216,1237,1257,1278,1298,1317,1337,1357,1377,1397,1418,1438,1457,1477,1496,1517,1537,1558,1578,1597,1618,1636,1658,1676,1698,1717,1737,1757,1777,1797,1817,1838,1857,1877,1898,1917,1936,1958,1977],"xSR":741.5,"ySR":573.95,"xT1":424.9,"yT1":0,"xT2":1058.1,"yT2":0,"toosoon":0,"cond_shown":"randomdotsizeEA","ratio_trial":250,"smaller_num":"3","larger_num":"12","correct_side":2,"subjID":"NataliaValdivieso28","gender":"1","age":"9","school":"4"},{"start_time":1552070002829,"click_time":1552070004518,"finger_time":1552070003699,"fix_duration":1348.4681167225915,"trial":14,"RT":870,"MT":819,"sideResp":1,"stimulus":"img/900/randomdotsizeEA/R/11_Ratio_900_L_18_R_20.png","xmouse":[820,820,820,820,820,820,820,820,820,820,820,820,820,820,820,820,820,820,820,820,820,820,820,820,820,820,820,820,820,820,820,820,820,820,820,820,820,820,820,820,820,820,818,816,813,812,809,805,797,789,786,779,776,764,759,754,750,747,743,737,732,727,723,712,706,698,693,687,672,662,642,625,609,595,577,573,568,565,563,553,542,531,518,482,464],"ymouse":[600,600,600,600,600,600,600,600,600,600,600,600,600,600,600,600,600,600,600,600,600,600,600,600,600,600,600,600,600,600,600,600,600,600,600,600,600,600,600,598,595,585,574,563,547,536,522,511,482,457,448,423,411,381,370,360,350,343,335,324,316,308,303,290,282,276,271,265,250,240,221,207,193,180,163,159,154,152,150,143,135,128,119,100,87],"timestamp_mouse":[10,40,49,70,90,110,129,149,171,191,211,230,249,269,291,310,329,351,369,389,409,430,451,470,490,509,531,551,570,589,609,630,651,669,689,709,729,751,770,790,811,830,849,870,891,910,930,951,971,990,1011,1031,1049,1071,1089,1110,1131,1149,1169,1191,1210,1230,1250,1269,1289,1311,1331,1351,1370,1390,1410,1429,1450,1469,1490,1509,1530,1551,1571,1590,1610,1631,1650,1671,1689],"xSR":741.5,"ySR":573.95,"xT1":424.9,"yT1":0,"xT2":1058.1,"yT2":0,"toosoon":0,"cond_shown":"randomdotsizeEA","ratio_trial":900,"smaller_num":"18","larger_num":"20","correct_side":2,"subjID":"NataliaValdivieso28","gender":"1","age":"9","school":"4"},{"start_time":1552070007430,"click_time":1552070009200,"finger_time":1552070008420,"fix_duration":1090.735482534997,"trial":15,"RT":990,"MT":780,"sideResp":1,"stimulus":"img/750/equaldotanddens/L/8_Ratio_750_L_4_R_3.png","xmouse":[766,766,766,766,766,766,766,766,766,766,766,766,766,766,766,766,766,766,766,766,766,766,766,766,766,766,766,766,766,766,766,766,766,766,766,766,766,766,766,766,766,766,768,773,777,778,780,781,782,782,782,778,772,763,738,727,721,717,712,695,691,686,679,664,657,648,641,633,617,602,597,580,567,546,539,536,536,536,536,536,536,536,536,535,535,533,528,522,507],"ymouse":[624,624,624,624,624,624,624,624,624,624,624,624,624,624,624,624,624,624,624,624,624,624,624,624,624,624,624,624,624,624,624,624,624,624,624,624,624,624,624,624,624,622,617,605,598,591,586,580,575,563,554,548,539,529,501,486,470,455,438,382,361,340,321,286,266,251,236,224,207,201,198,191,185,175,171,169,169,169,169,169,169,169,169,165,156,144,127,109,69],"timestamp_mouse":[10,36,48,68,89,109,128,150,169,188,208,229,249,269,288,309,328,348,370,389,409,428,450,469,488,509,528,550,568,589,608,629,650,669,689,709,730,750,768,788,810,829,849,869,890,912,928,948,969,990,1009,1028,1048,1069,1089,1109,1129,1148,1168,1188,1209,1230,1248,1269,1288,1308,1329,1350,1369,1388,1408,1430,1449,1469,1488,1509,1529,1549,1569,1589,1608,1628,1649,1669,1688,1709,1730,1748,1769],"xSR":741.5,"ySR":573.95,"xT1":424.9,"yT1":0,"xT2":1058.1,"yT2":0,"toosoon":0,"cond_shown":"equaldotanddens","ratio_trial":750,"smaller_num":"3","larger_num":"4","correct_side":1,"subjID":"NataliaValdivieso28","gender":"1","age":"9","school":"4"},{"start_time":1552070011751,"click_time":1552070012839,"finger_time":1552070012439,"fix_duration":250,"trial":16,"RT":688,"MT":400,"sideResp":2,"stimulus":"img/500/equaldotanddens/R/2_Ratio_500_L_3_R_6.png","xmouse":[810,810,810,810,810,810,810,810,810,810,810,810,810,810,810,810,810,810,810,810,810,810,810,810,810,810,810,810,810,810,810,812,815,825,843,858,874,912,930,948,962,976,998,1014,1026,1039,1053,1076,1087,1096,1102,1106,1110,1113,1114],"ymouse":[613,613,613,613,613,613,613,613,613,613,613,613,613,613,613,613,613,613,613,613,613,613,613,613,613,613,613,613,613,613,613,612,610,597,574,556,534,483,457,433,409,385,347,321,301,281,261,220,197,175,155,138,122,104,99],"timestamp_mouse":[10,37,48,69,89,107,127,148,168,189,209,228,247,267,289,308,329,348,367,387,409,428,447,468,487,508,528,549,569,588,608,627,647,669,688,709,728,748,767,788,809,828,847,867,888,909,929,947,967,987,1008,1028,1047,1068,1087],"xSR":741.5,"ySR":573.95,"xT1":424.9,"yT1":0,"xT2":1058.1,"yT2":0,"toosoon":0,"cond_shown":"equaldotanddens","ratio_trial":500,"smaller_num":"3","larger_num":"6","correct_side":2,"subjID":"NataliaValdivieso28","gender":"1","age":"9","school":"4"},{"start_time":1552070015650,"click_time":1552070016699,"finger_time":1552070016299,"fix_duration":1488.1252219556256,"trial":17,"RT":649,"MT":400,"sideResp":1,"stimulus":"img/750/equaldotanddens/L/9_Ratio_750_L_4_R_3.png","xmouse":[785,785,785,785,785,785,785,785,785,785,785,785,785,785,785,785,785,785,785,785,785,785,785,785,785,785,785,785,785,785,787,792,804,807,812,813,815,815,815,815,815,814,809,806,800,793,783,755,730,661,609,553,440],"ymouse":[594,594,594,594,594,594,594,594,594,594,594,594,594,594,594,594,594,594,594,594,594,594,594,594,594,594,594,594,594,594,593,582,552,537,518,507,494,477,472,468,463,459,447,441,430,418,403,368,338,261,202,142,15],"timestamp_mouse":[20,29,49,68,88,108,128,148,168,188,210,228,248,270,290,309,328,348,369,389,410,429,449,469,488,510,528,548,569,589,609,630,649,669,688,709,729,748,768,789,810,830,849,868,888,909,929,949,968,989,1010,1030,1049],"xSR":741.5,"ySR":573.95,"xT1":424.9,"yT1":0,"xT2":1058.1,"yT2":0,"toosoon":0,"cond_shown":"equaldotanddens","ratio_trial":750,"smaller_num":"3","larger_num":"4","correct_side":1,"subjID":"NataliaValdivieso28","gender":"1","age":"9","school":"4"},{"start_time":1552070020866,"click_time":1552070022420,"finger_time":1552070021399,"fix_duration":785.5520090403419,"trial":18,"RT":533,"MT":1021,"sideResp":1,"stimulus":"img/250/equaldotsize/L/1_Ratio_250_L_8_R_2.png","xmouse":[810,810,810,810,810,810,810,810,810,810,810,810,810,810,810,810,810,810,810,810,810,810,810,804,796,779,762,727,719,696,676,628,600,568,534,497,462,373,343,320,303,285,284,284,284,284,284,284,292,301,310,320,323,325,330,336,347,353,356,358,360,366,369,374,382,390,399,409,415,418,420,420,422,422,423,423,423,426],"ymouse":[632,632,632,632,632,632,632,632,632,632,632,632,632,632,632,632,632,632,632,632,632,632,632,620,610,590,570,521,510,474,448,384,351,314,271,222,177,69,32,5,0,0,0,0,0,0,0,0,2,5,8,10,11,12,13,15,18,21,22,22,23,24,26,28,29,33,37,42,45,46,47,47,48,48,48,48,48,48],"timestamp_mouse":[13,41,53,73,94,112,133,154,174,193,213,233,254,272,292,313,334,353,372,393,413,432,453,474,493,513,533,552,572,592,613,633,653,673,694,713,733,753,772,793,814,835,853,873,893,912,932,952,973,992,1012,1036,1054,1072,1093,1113,1136,1153,1173,1193,1213,1233,1253,1273,1293,1313,1334,1354,1373,1392,1412,1434,1454,1472,1494,1514,1533,1554],"xSR":741.5,"ySR":573.95,"xT1":424.9,"yT1":0,"xT2":1058.1,"yT2":0,"toosoon":0,"cond_shown":"equaldotsize","ratio_trial":250,"smaller_num":"2","larger_num":"8","correct_side":1,"subjID":"NataliaValdivieso28","gender":"1","age":"9","school":"4"},{"start_time":1552070025967,"click_time":1552070027340,"finger_time":1552070026540,"fix_duration":405.4454908392822,"trial":19,"RT":573,"MT":800,"sideResp":2,"stimulus":"img/900/equaldotanddens/R/15_Ratio_900_L_9_R_10.png","xmouse":[789,789,789,789,790,790,790,790,791,791,791,792,792,793,794,794,794,794,794,794,794,794,794,794,794,794,795,806,812,818,826,846,855,871,880,891,899,913,917,922,927,944,965,979,994,1009,1021,1034,1036,1036,1037,1038,1044,1049,1051,1053,1055,1057,1060,1062,1064,1067,1072,1077,1079,1081,1082,1083,1084],"ymouse":[626,626,626,626,626,626,626,626,626,626,626,626,626,625,624,624,624,624,623,623,621,616,614,611,609,605,599,581,571,561,549,525,512,492,481,468,456,435,427,416,406,379,355,338,318,298,280,253,246,242,239,235,226,217,211,205,199,190,182,176,168,159,141,125,119,115,107,102,97],"timestamp_mouse":[11,40,52,71,91,112,133,151,172,192,212,231,252,272,292,311,332,353,373,391,411,433,453,473,491,513,532,553,573,593,611,633,651,671,691,712,732,753,772,793,812,834,851,872,891,913,933,952,972,993,1013,1031,1051,1071,1092,1113,1131,1151,1171,1192,1212,1232,1252,1272,1292,1313,1332,1352,1373],"xSR":741.5,"ySR":573.95,"xT1":424.9,"yT1":0,"xT2":1058.1,"yT2":0,"toosoon":0,"cond_shown":"equaldotanddens","ratio_trial":900,"smaller_num":"9","larger_num":"10","correct_side":2,"subjID":"NataliaValdivieso28","gender":"1","age":"9","school":"4"},{"start_time":1552070029145,"click_time":1552070030040,"finger_time":1552070029840,"fix_duration":926.868280473623,"trial":20,"RT":695,"MT":200,"sideResp":2,"stimulus":"img/500/equaldotsize/R/6_Ratio_500_L_9_R_18.png","xmouse":[797,798,799,801,801,801,802,803,803,803,803,804,804,804,804,804,805,806,806,807,808,808,809,809,809,809,810,810,812,814,816,819,824,837,857,870,893,959,984,1002,1018,1029,1037,1058,1061],"ymouse":[641,639,638,633,632,631,629,629,629,629,628,628,627,627,627,627,626,625,625,624,623,622,621,621,621,621,620,619,616,614,611,608,604,591,569,550,518,408,351,303,254,213,176,102,91],"timestamp_mouse":[14,34,55,75,93,114,135,154,174,194,214,234,255,273,294,313,334,355,375,394,414,434,454,475,495,513,534,555,573,593,614,633,654,673,695,714,733,754,773,794,815,834,855,874,895],"xSR":741.5,"ySR":573.95,"xT1":424.9,"yT1":0,"xT2":1058.1,"yT2":0,"toosoon":0,"cond_shown":"equaldotsize","ratio_trial":500,"smaller_num":"9","larger_num":"18","correct_side":2,"subjID":"NataliaValdivieso28","gender":"1","age":"9","school":"4"},{"start_time":1552070031519,"click_time":1552070033019,"finger_time":1552070032320,"fix_duration":258.51699041206945,"trial":21,"RT":801,"MT":699,"sideResp":1,"stimulus":"img/900/equaldotsize/R/15_Ratio_900_L_9_R_10.png","xmouse":[769,769,769,769,769,771,774,776,777,777,777,777,777,777,777,777,777,777,777,777,777,777,777,777,777,777,777,777,777,779,780,781,784,787,790,791,791,791,791,788,780,773,767,765,761,753,749,745,740,729,706,694,675,659,646,609,599,590,579,567,566,566,566,566,566,564,558,552,547,531,523,515,509,505,499,498],"ymouse":[671,671,671,671,671,667,663,662,660,658,658,658,658,658,658,658,658,658,658,658,658,658,658,658,658,658,658,658,658,657,656,652,646,638,629,612,601,593,584,574,553,540,530,521,512,497,489,480,471,454,416,392,359,330,303,243,225,208,195,179,178,178,178,178,178,177,174,170,166,147,135,124,116,109,100,98],"timestamp_mouse":[9,20,43,61,80,99,119,139,160,179,199,221,240,260,280,299,319,341,359,379,400,420,440,460,479,500,520,541,560,580,600,620,640,660,680,700,720,740,761,780,801,820,840,859,880,900,920,940,961,980,1001,1020,1041,1060,1079,1099,1119,1139,1159,1181,1199,1220,1240,1259,1280,1299,1319,1340,1360,1380,1399,1420,1440,1459,1480,1499],"xSR":741.5,"ySR":573.95,"xT1":424.9,"yT1":0,"xT2":1058.1,"yT2":0,"toosoon":0,"cond_shown":"equaldotsize","ratio_trial":900,"smaller_num":"9","larger_num":"10","correct_side":2,"subjID":"NataliaValdivieso28","gender":"1","age":"9","school":"4"},{"start_time":1552070035282,"click_time":1552070036978,"finger_time":1552070035858,"fix_duration":822.0305879229466,"trial":22,"RT":576,"MT":1120,"sideResp":2,"stimulus":"img/250/equaldotsize/R/6_Ratio_250_L_6_R_24.png","xmouse":[782,782,782,782,782,782,782,782,782,782,782,782,782,782,782,782,782,782,782,782,782,783,785,787,792,797,818,833,850,867,884,930,957,979,998,1017,1036,1044,1046,1048,1048,1050,1050,1050,1052,1052,1052,1052,1052,1052,1052,1051,1050,1050,1050,1050,1051,1054,1056,1057,1057,1057,1057,1057,1057,1057,1062,1062,1066,1068,1072,1073,1073,1073,1073,1073,1074,1075,1075,1075,1075,1075,1076,1077,1079],"ymouse":[621,621,621,621,621,621,621,621,621,621,621,621,621,621,621,621,621,621,621,621,621,620,619,617,614,610,595,584,571,557,541,496,468,442,414,382,342,321,313,307,304,296,293,290,286,271,263,250,240,230,221,205,196,189,182,175,159,148,143,140,138,137,137,137,137,137,133,132,128,124,113,109,107,106,106,106,105,104,104,104,104,104,101,100,97],"timestamp_mouse":[16,41,57,76,96,116,137,157,177,196,217,237,257,277,298,318,337,357,378,396,418,436,457,478,497,516,536,557,576,596,616,636,657,676,696,717,737,757,777,797,817,837,857,876,896,918,937,957,978,997,1017,1037,1057,1076,1096,1117,1136,1158,1178,1198,1217,1236,1256,1277,1296,1317,1338,1356,1376,1397,1417,1437,1457,1477,1497,1518,1537,1558,1577,1597,1617,1636,1658,1678,1696],"xSR":741.5,"ySR":573.95,"xT1":424.9,"yT1":0,"xT2":1058.1,"yT2":0,"toosoon":0,"cond_shown":"equaldotsize","ratio_trial":250,"smaller_num":"6","larger_num":"24","correct_side":2,"subjID":"NataliaValdivieso28","gender":"1","age":"9","school":"4"},{"start_time":1552070039455,"click_time":1552070040739,"finger_time":1552070040260,"fix_duration":1233.2667313886923,"trial":23,"RT":805,"MT":479,"sideResp":2,"stimulus":"img/500/equaldotanddens/R/15_Ratio_500_L_1_R_2.png","xmouse":[781,781,781,781,781,781,781,781,781,781,781,781,781,781,781,781,781,781,781,781,781,781,781,781,781,781,781,781,781,781,781,781,781,781,781,781,782,787,792,804,814,826,852,866,881,895,910,937,960,974,989,1003,1015,1032,1039,1044,1048,1051,1059,1062,1065,1069,1072,1079,1085],"ymouse":[617,617,617,617,617,617,617,617,617,617,617,617,617,617,617,617,617,617,617,617,617,617,617,617,617,617,617,617,617,617,617,617,617,617,617,617,613,603,595,578,565,550,521,509,494,480,463,428,396,376,354,334,315,279,263,248,235,222,190,177,162,148,133,105,89],"timestamp_mouse":[11,24,46,64,85,105,125,143,163,185,204,225,245,264,285,305,324,344,364,385,405,423,444,464,485,503,525,545,564,585,605,625,644,665,684,705,724,745,765,785,805,824,844,865,885,905,924,944,964,984,1004,1025,1044,1065,1084,1103,1125,1144,1164,1195,1205,1224,1244,1264,1284],"xSR":741.5,"ySR":573.95,"xT1":424.9,"yT1":0,"xT2":1058.1,"yT2":0,"toosoon":0,"cond_shown":"equaldotanddens","ratio_trial":500,"smaller_num":"1","larger_num":"2","correct_side":2,"subjID":"NataliaValdivieso28","gender":"1","age":"9","school":"4"},{"start_time":1552070042332,"click_time":1552070043559,"finger_time":1552070042960,"fix_duration":250,"trial":24,"RT":628,"MT":599,"sideResp":2,"stimulus":"img/250/equaldotanddens/R/6_Ratio_250_L_6_R_24.png","xmouse":[797,797,797,797,797,797,797,797,797,797,797,797,797,797,797,797,797,797,797,797,797,797,797,797,797,797,797,797,800,808,820,834,850,873,883,893,902,916,952,972,993,1012,1031,1063,1072,1085,1091,1096,1100,1101,1103,1105,1105,1105,1107,1107,1107,1107,1107,1107,1107,1107],"ymouse":[603,603,603,603,603,603,603,603,603,603,603,603,603,603,603,603,603,603,603,603,603,603,603,603,603,603,603,603,600,595,585,573,560,540,528,510,493,470,409,379,345,308,276,227,210,190,178,168,156,151,148,143,140,137,133,132,131,129,127,119,110,96],"timestamp_mouse":[10,43,46,68,88,107,127,146,168,187,206,226,248,268,287,307,327,347,368,388,407,427,447,467,488,508,528,548,566,587,608,628,647,668,686,706,726,747,768,786,807,827,848,868,887,908,926,947,968,987,1008,1027,1047,1067,1087,1106,1127,1148,1167,1188,1207,1226],"xSR":741.5,"ySR":573.95,"xT1":424.9,"yT1":0,"xT2":1058.1,"yT2":0,"toosoon":0,"cond_shown":"equaldotanddens","ratio_trial":250,"smaller_num":"6","larger_num":"24","correct_side":2,"subjID":"NataliaValdivieso28","gender":"1","age":"9","school":"4"},{"start_time":1552070047436,"click_time":1552070048660,"finger_time":1552070048099,"fix_duration":575.2279408215577,"trial":25,"RT":663,"MT":561,"sideResp":1,"stimulus":"img/250/equaldotanddens/L/15_Ratio_250_L_12_R_3.png","xmouse":[777,777,777,777,777,777,777,777,777,777,777,777,777,777,777,777,777,777,777,777,777,777,777,777,777,777,777,777,777,774,772,760,754,734,720,711,701,694,680,668,664,649,636,596,577,561,550,542,534,531,529,526,523,523,519,518,517,515,512,506,501,498],"ymouse":[655,655,655,655,655,655,655,655,655,655,655,655,655,655,655,655,655,655,655,655,655,655,655,655,655,655,655,654,650,642,637,618,607,574,555,537,521,504,476,451,444,421,406,365,346,332,321,311,298,290,285,273,265,260,245,237,223,205,186,146,112,93],"timestamp_mouse":[10,23,43,63,84,102,123,144,164,184,204,222,242,262,284,302,323,344,364,383,402,424,444,463,482,504,523,543,563,583,603,624,643,663,682,703,724,743,763,782,803,823,843,863,883,903,923,943,965,983,1003,1022,1043,1064,1084,1103,1123,1143,1163,1183,1203,1224],"xSR":741.5,"ySR":573.95,"xT1":424.9,"yT1":0,"xT2":1058.1,"yT2":0,"toosoon":0,"cond_shown":"equaldotanddens","ratio_trial":250,"smaller_num":"3","larger_num":"12","correct_side":1,"subjID":"NataliaValdivieso28","gender":"1","age":"9","school":"4"},{"start_time":1552070051112,"click_time":1552070052399,"finger_time":1552070051940,"fix_duration":951.2009817145785,"trial":26,"RT":828,"MT":459,"sideResp":1,"stimulus":"img/250/randomdotsizeEA/L/1_Ratio_250_L_8_R_2.png","xmouse":[762,762,762,762,762,762,762,763,763,765,765,765,765,765,767,767,767,767,767,767,767,767,767,767,767,767,767,767,767,767,768,768,769,769,771,772,773,773,773,773,770,767,766,764,761,757,755,753,750,746,735,729,719,711,700,663,645,620,596,539,522,500,488,475,458],"ymouse":[647,647,647,647,647,647,647,647,647,646,646,646,646,646,646,646,646,646,646,646,646,646,646,646,646,646,645,645,645,645,645,645,644,643,640,635,629,622,612,604,581,571,566,560,553,540,533,526,518,506,481,468,451,438,419,367,347,311,282,204,176,148,130,110,80],"timestamp_mouse":[14,30,47,68,87,107,126,147,168,188,207,228,248,268,287,307,328,348,368,387,408,428,448,468,487,508,528,547,567,588,608,628,647,667,688,706,728,748,767,786,807,828,848,867,887,906,927,947,967,987,1008,1027,1048,1066,1086,1106,1126,1147,1168,1188,1207,1227,1248,1268,1287],"xSR":741.5,"ySR":573.95,"xT1":424.9,"yT1":0,"xT2":1058.1,"yT2":0,"toosoon":0,"cond_shown":"randomdotsizeEA","ratio_trial":250,"smaller_num":"2","larger_num":"8","correct_side":1,"subjID":"NataliaValdivieso28","gender":"1","age":"9","school":"4"},{"start_time":1552070054277,"click_time":1552070055639,"finger_time":1552070054978,"fix_duration":475.0016155334537,"trial":27,"RT":701,"MT":661,"sideResp":2,"stimulus":"img/500/randomdotsizeEA/R/2_Ratio_500_L_3_R_6.png","xmouse":[797,797,797,797,797,797,797,798,798,798,798,798,798,798,798,798,798,798,799,799,799,800,801,803,804,805,810,816,819,821,824,830,833,836,839,840,846,848,854,861,868,876,895,908,923,937,951,980,989,1002,1005,1009,1015,1017,1020,1022,1024,1030,1033,1035,1037,1042,1044,1045,1048,1052,1062,1069,1073],"ymouse":[642,642,642,642,642,642,642,642,642,642,642,642,642,642,642,642,642,642,641,641,641,641,640,639,637,635,627,619,613,609,603,593,586,579,574,569,559,553,541,530,519,505,476,455,435,417,397,354,333,310,300,292,279,273,268,263,259,245,236,227,218,198,189,180,170,157,131,110,98],"timestamp_mouse":[9,22,44,61,81,103,123,142,161,183,203,221,243,263,283,302,322,343,362,383,403,422,442,463,482,503,522,542,563,583,601,622,642,663,682,701,723,742,762,782,802,821,842,862,883,903,923,943,962,982,1003,1022,1043,1062,1082,1102,1122,1142,1162,1182,1202,1223,1241,1262,1283,1303,1322,1342,1362],"xSR":741.5,"ySR":573.95,"xT1":424.9,"yT1":0,"xT2":1058.1,"yT2":0,"toosoon":0,"cond_shown":"randomdotsizeEA","ratio_trial":500,"smaller_num":"3","larger_num":"6","correct_side":2,"subjID":"NataliaValdivieso28","gender":"1","age":"9","school":"4"},{"start_time":1552070057055,"click_time":1552070058579,"finger_time":1552070057860,"fix_duration":252.96232319990696,"trial":28,"RT":805,"MT":719,"sideResp":1,"stimulus":"img/900/randomdotsizeEA/R/11_Ratio_900_L_18_R_20.png","xmouse":[799,799,799,799,799,799,799,799,799,799,799,799,799,799,799,799,799,799,799,799,799,799,799,799,799,799,799,799,799,799,799,799,799,799,799,799,799,803,807,813,818,822,829,830,832,832,832,827,822,813,794,781,757,748,739,728,717,700,686,679,667,656,647,632,627,624,622,615,601,592,589,583,578,554,540,525,506],"ymouse":[632,632,632,632,632,632,632,632,632,632,632,632,632,632,632,632,632,632,632,632,632,632,632,632,632,632,632,632,632,632,632,632,632,632,632,632,630,617,607,586,570,554,521,505,491,479,469,450,438,425,403,385,352,336,318,298,277,240,213,203,179,163,150,132,127,125,124,121,117,114,111,109,105,94,87,77,64],"timestamp_mouse":[26,28,45,63,83,105,124,145,164,184,205,224,244,264,284,304,324,344,364,385,405,424,444,463,485,505,524,544,565,584,604,624,644,664,685,705,723,745,764,785,805,825,844,864,884,905,924,945,963,984,1005,1024,1044,1064,1084,1104,1124,1144,1163,1184,1204,1224,1245,1265,1284,1304,1323,1344,1364,1384,1404,1425,1444,1465,1484,1504,1524],"xSR":741.5,"ySR":573.95,"xT1":424.9,"yT1":0,"xT2":1058.1,"yT2":0,"toosoon":0,"cond_shown":"randomdotsizeEA","ratio_trial":900,"smaller_num":"18","larger_num":"20","correct_side":2,"subjID":"NataliaValdivieso28","gender":"1","age":"9","school":"4"},{"start_time":1552070062230,"click_time":1552070063680,"finger_time":1552070062639,"fix_duration":749.5441332426218,"trial":29,"RT":409,"MT":1041,"sideResp":1,"stimulus":"img/500/randomdotsizeEA/L/7_Ratio_500_L_10_R_5.png","xmouse":[801,801,801,801,801,801,801,801,801,801,801,801,801,801,801,801,801,802,805,807,809,811,814,818,821,823,826,828,832,833,835,836,837,840,841,843,845,848,852,854,856,857,857,858,858,855,848,838,818,806,788,783,759,737,718,707,704,702,697,695,690,681,670,650,641,634,628,623,608,592,572,540,521],"ymouse":[648,648,648,648,648,648,648,648,648,648,648,648,648,643,638,632,623,615,598,588,571,559,548,526,517,510,499,493,480,475,469,464,460,449,443,437,430,425,414,410,403,399,392,379,370,359,346,333,305,289,265,257,236,217,201,189,184,181,173,172,167,161,155,143,135,131,127,123,114,106,96,80,69],"timestamp_mouse":[10,41,48,70,90,108,130,150,169,189,210,228,250,269,289,309,328,349,370,390,409,430,449,469,489,508,529,549,569,589,610,629,650,669,689,710,729,748,770,789,809,829,849,869,889,909,929,949,969,989,1009,1030,1050,1069,1089,1109,1129,1149,1169,1189,1209,1229,1249,1269,1289,1310,1330,1350,1369,1389,1409,1428,1450],"xSR":741.5,"ySR":573.95,"xT1":424.9,"yT1":0,"xT2":1058.1,"yT2":0,"toosoon":0,"cond_shown":"randomdotsizeEA","ratio_trial":500,"smaller_num":"5","larger_num":"10","correct_side":1,"subjID":"NataliaValdivieso28","gender":"1","age":"9","school":"4"},{"start_time":1552070065276,"click_time":1552070066440,"finger_time":1552070065840,"fix_duration":376.0192287579035,"trial":30,"RT":564,"MT":600,"sideResp":2,"stimulus":"img/500/randomdotsizeEA/R/14_Ratio_500_L_5_R_10.png","xmouse":[769,769,769,769,769,769,769,769,769,769,769,769,769,769,769,769,769,769,769,769,769,771,775,779,784,790,804,818,828,838,850,862,889,903,914,925,933,946,954,959,965,976,983,993,1000,1008,1021,1033,1037,1049,1057,1067,1087,1099,1107,1114,1124,1128,1132],"ymouse":[634,634,634,634,634,634,634,634,634,634,634,634,634,634,634,634,634,634,634,634,634,634,629,625,620,613,595,576,561,545,525,507,469,449,431,414,400,381,370,362,354,337,326,312,303,290,267,250,245,229,216,204,177,161,149,137,118,109,99],"timestamp_mouse":[12,23,43,64,83,104,123,143,163,182,203,223,244,263,282,302,323,344,362,384,404,423,443,464,484,504,523,543,564,584,602,623,643,663,684,703,723,744,763,783,804,823,843,863,883,903,923,943,964,984,1004,1023,1043,1063,1084,1104,1124,1142,1164],"xSR":741.5,"ySR":573.95,"xT1":424.9,"yT1":0,"xT2":1058.1,"yT2":0,"toosoon":0,"cond_shown":"randomdotsizeEA","ratio_trial":500,"smaller_num":"5","larger_num":"10","correct_side":2,"subjID":"NataliaValdivieso28","gender":"1","age":"9","school":"4"},{"start_time":1552070068032,"click_time":1552070069399,"finger_time":1552070068860,"fix_duration":250,"trial":31,"RT":828,"MT":539,"sideResp":1,"stimulus":"img/750/equaldotsize/L/8_Ratio_750_L_4_R_3.png","xmouse":[773,773,773,773,773,773,773,773,773,773,773,773,773,773,773,773,773,773,773,773,773,773,773,773,773,773,773,773,773,773,773,773,773,773,773,773,773,773,773,768,762,749,738,715,705,698,693,689,677,670,661,640,625,596,587,580,573,569,565,563,559,558,550,547,540,534,530,526,524],"ymouse":[649,649,649,649,649,649,649,649,649,649,649,649,649,649,649,649,649,649,649,649,649,649,649,649,649,649,649,649,649,649,649,649,649,649,649,645,642,634,616,600,583,555,533,492,474,455,440,423,385,362,337,288,253,190,168,150,136,127,110,104,96,94,86,83,80,79,78,76,75],"timestamp_mouse":[9,35,48,68,88,107,128,148,167,188,206,227,248,267,287,307,328,347,367,387,408,427,447,467,487,507,527,547,568,588,606,628,648,667,687,706,726,747,767,787,807,828,847,867,887,907,927,948,967,987,1008,1028,1048,1067,1087,1108,1128,1147,1167,1186,1207,1228,1248,1267,1288,1306,1327,1347,1367],"xSR":741.5,"ySR":573.95,"xT1":424.9,"yT1":0,"xT2":1058.1,"yT2":0,"toosoon":0,"cond_shown":"equaldotsize","ratio_trial":750,"smaller_num":"3","larger_num":"4","correct_side":1,"subjID":"NataliaValdivieso28","gender":"1","age":"9","school":"4"},{"start_time":1552070071632,"click_time":1552070073040,"finger_time":1552070072019,"fix_duration":851.4298382887123,"trial":32,"RT":387,"MT":1021,"sideResp":2,"stimulus":"img/750/randomdotsizeEA/L/10_Ratio_750_L_4_R_3.png","xmouse":[779,780,780,781,782,782,782,781,781,781,781,781,780,780,780,778,777,776,776,774,773,771,770,767,765,762,759,756,756,756,756,756,757,761,763,765,766,768,773,778,781,784,796,816,844,854,865,878,893,927,951,964,975,987,990,994,997,999,1001,1003,1005,1007,1009,1016,1021,1027,1036,1043,1052,1058,1069],"ymouse":[610,610,610,609,608,606,605,604,603,602,601,601,599,596,594,589,585,581,579,567,565,552,542,523,510,499,489,479,467,464,459,454,449,436,427,416,404,393,370,361,357,353,352,350,342,333,323,310,296,262,234,219,205,180,173,168,162,159,154,151,150,148,147,144,141,138,135,131,120,112,99],"timestamp_mouse":[8,40,47,66,87,107,127,147,168,186,208,228,248,267,287,307,327,347,367,387,408,427,446,467,487,507,528,548,567,588,608,627,648,667,687,707,727,747,767,787,807,827,847,866,886,907,927,947,967,986,1007,1028,1048,1067,1087,1106,1127,1147,1167,1187,1206,1227,1247,1267,1286,1308,1327,1348,1368,1388,1408],"xSR":741.5,"ySR":573.95,"xT1":424.9,"yT1":0,"xT2":1058.1,"yT2":0,"toosoon":0,"cond_shown":"randomdotsizeEA","ratio_trial":750,"smaller_num":"3","larger_num":"4","correct_side":1,"subjID":"NataliaValdivieso28","gender":"1","age":"9","school":"4"},{"start_time":1552070076209,"click_time":1552070077320,"finger_time":1552070077179,"fix_duration":468.0791094491762,"trial":33,"RT":970,"MT":141,"sideResp":2,"stimulus":"img/500/equaldotanddens/R/1_Ratio_500_L_9_R_18.png","xmouse":[784,784,784,784,784,784,784,784,784,784,784,784,784,784,784,784,784,784,784,784,784,784,784,784,784,784,784,784,784,784,784,784,784,784,784,786,786,787,789,792,792,793,794,795,802,812,822,832,845,883,917,955,998,1059,1120,1143],"ymouse":[643,643,643,643,643,643,643,643,643,643,643,643,643,643,643,643,643,643,643,643,643,643,643,643,643,643,643,643,643,643,643,643,643,643,643,641,636,631,625,619,618,617,615,614,607,602,594,585,572,514,467,408,338,227,101,47],"timestamp_mouse":[20,44,50,70,90,110,131,150,171,191,211,231,250,270,289,310,330,350,371,391,411,431,451,471,491,510,531,551,569,590,611,631,650,670,689,710,730,750,770,791,810,830,851,870,889,909,930,951,970,990,1009,1029,1050,1069,1090,1111],"xSR":741.5,"ySR":573.95,"xT1":424.9,"yT1":0,"xT2":1058.1,"yT2":0,"toosoon":0,"cond_shown":"equaldotanddens","ratio_trial":500,"smaller_num":"9","larger_num":"18","correct_side":2,"subjID":"NataliaValdivieso28","gender":"1","age":"9","school":"4"},{"start_time":1552070079855,"click_time":1552070081520,"finger_time":1552070080578,"fix_duration":1012.6703648468292,"trial":34,"RT":723,"MT":942,"sideResp":2,"stimulus":"img/900/equaldotsize/L/4_Ratio_900_L_20_R_18.png","xmouse":[762,762,762,762,762,762,762,762,762,762,762,762,762,762,762,762,762,762,762,762,762,762,762,762,762,762,762,763,764,765,766,766,766,766,764,762,759,757,753,749,745,744,743,743,743,743,746,753,761,763,772,780,796,804,813,821,826,831,848,853,861,870,874,884,890,897,906,922,957,989,1010,1027,1050,1060,1068,1073,1078,1083,1094,1101,1105,1110,1113,1119],"ymouse":[639,639,639,639,639,639,639,639,639,639,639,639,639,639,639,639,639,639,639,639,639,639,639,639,636,633,628,622,611,604,601,598,590,586,580,576,571,564,553,545,533,526,515,509,504,499,493,473,457,451,431,417,394,383,372,362,353,346,326,320,312,304,299,288,283,276,267,258,241,225,217,206,187,177,168,162,156,149,134,122,116,108,103,92],"timestamp_mouse":[9,24,45,63,84,104,124,144,165,183,205,225,244,265,284,303,324,345,365,384,405,424,444,464,485,504,524,545,564,584,605,624,645,663,684,705,723,744,764,784,804,825,844,864,884,903,924,943,963,984,1005,1024,1045,1064,1085,1103,1123,1144,1164,1184,1204,1225,1245,1265,1284,1305,1324,1345,1365,1385,1405,1424,1445,1464,1484,1503,1524,1544,1564,1584,1604,1624,1645,1665],"xSR":741.5,"ySR":573.95,"xT1":424.9,"yT1":0,"xT2":1058.1,"yT2":0,"toosoon":0,"cond_shown":"equaldotsize","ratio_trial":900,"smaller_num":"18","larger_num":"20","correct_side":1,"subjID":"NataliaValdivieso28","gender":"1","age":"9","school":"4"},{"start_time":1552070084730,"click_time":1552070086300,"finger_time":1552070085779,"fix_duration":1248.6035606234825,"trial":35,"RT":1049,"MT":521,"sideResp":1,"stimulus":"img/750/randomdotsizeEA/L/6_Ratio_750_L_24_R_18.png","xmouse":[756,756,756,756,756,756,756,756,756,756,756,756,756,756,756,756,756,756,756,756,756,756,756,756,756,756,756,756,756,756,756,756,756,756,756,756,756,756,756,756,756,756,756,756,755,753,753,752,750,750,748,747,746,745,742,741,735,731,723,717,712,706,698,681,671,662,648,638,613,598,585,574,562,541,531,521,517,512,501],"ymouse":[643,643,643,643,643,643,643,643,643,643,643,643,643,643,643,643,643,643,643,643,643,643,643,643,643,643,643,643,643,643,643,643,643,643,643,643,643,643,643,643,643,643,641,632,627,618,613,607,595,590,582,576,571,558,546,541,522,508,480,466,452,437,423,393,376,359,333,316,279,259,240,222,204,171,159,140,131,121,97],"timestamp_mouse":[10,39,49,68,90,109,130,150,169,189,210,236,249,269,289,309,329,350,370,390,408,430,449,469,490,509,530,550,570,590,608,630,649,669,690,710,729,750,769,789,809,828,848,870,889,910,929,950,969,990,1010,1030,1049,1070,1088,1110,1129,1149,1170,1188,1209,1229,1249,1270,1289,1310,1329,1349,1369,1389,1410,1430,1449,1469,1489,1509,1529,1549,1570],"xSR":741.5,"ySR":573.95,"xT1":424.9,"yT1":0,"xT2":1058.1,"yT2":0,"toosoon":0,"cond_shown":"randomdotsizeEA","ratio_trial":750,"smaller_num":"18","larger_num":"24","correct_side":1,"subjID":"NataliaValdivieso28","gender":"1","age":"9","school":"4"},{"start_time":1552070090284,"click_time":1552070092040,"finger_time":1552070091160,"fix_duration":264.1594418239716,"trial":36,"RT":876,"MT":880,"sideResp":2,"stimulus":"img/750/equaldotanddens/R/2_Ratio_750_L_6_R_8.png","xmouse":[783,783,783,783,783,783,783,783,783,783,783,783,783,783,783,783,783,783,783,783,783,783,783,783,783,783,783,783,783,783,783,783,783,783,783,783,783,783,783,783,786,794,803,815,828,851,865,884,899,919,935,968,978,984,987,991,991,991,991,991,993,995,996,998,999,1005,1007,1010,1017,1026,1037,1041,1045,1048,1050,1053,1055,1056,1058,1059,1063,1065,1067,1067,1069,1071,1072,1075],"ymouse":[616,616,616,616,616,616,616,616,616,616,616,616,616,616,616,616,616,616,616,616,616,616,616,616,616,616,616,616,616,616,616,616,616,616,616,616,616,616,616,616,606,594,580,564,543,502,480,448,422,394,368,317,297,284,275,266,266,266,266,266,260,257,252,246,240,226,222,217,207,198,177,167,158,151,145,139,135,133,130,127,120,118,116,114,112,107,104,98],"timestamp_mouse":[15,40,54,75,96,115,135,155,175,196,215,236,256,275,295,315,334,354,376,396,414,435,456,476,495,515,536,555,574,595,616,635,656,675,696,715,735,755,775,796,815,836,855,876,895,914,935,955,976,996,1015,1035,1055,1076,1095,1115,1134,1156,1175,1196,1215,1235,1255,1276,1295,1315,1335,1356,1376,1394,1416,1434,1455,1475,1495,1515,1535,1555,1576,1595,1616,1635,1655,1675,1695,1714,1735,1756],"xSR":741.5,"ySR":573.95,"xT1":424.9,"yT1":0,"xT2":1058.1,"yT2":0,"toosoon":0,"cond_shown":"equaldotanddens","ratio_trial":750,"smaller_num":"6","larger_num":"8","correct_side":2,"subjID":"NataliaValdivieso28","gender":"1","age":"9","school":"4"},{"start_time":1552070094873,"click_time":1552070095980,"finger_time":1552070095599,"fix_duration":1432.9164398222872,"trial":37,"RT":726,"MT":381,"sideResp":1,"stimulus":"img/750/randomdotsizeEA/L/1_Ratio_750_L_20_R_15.png","xmouse":[775,775,775,775,775,775,775,775,775,775,775,775,775,775,775,775,775,775,775,775,775,775,775,775,775,775,775,775,775,775,775,776,776,776,775,771,765,762,757,751,745,730,723,715,709,702,695,681,670,661,651,619,597,569,543,517],"ymouse":[635,635,635,635,635,635,635,635,635,635,635,635,635,635,635,635,635,635,635,635,635,635,635,635,635,635,635,635,635,635,635,633,626,618,604,589,566,556,543,528,517,488,472,459,450,436,426,399,374,353,328,262,220,172,130,84],"timestamp_mouse":[10,26,46,65,86,106,127,147,166,187,206,226,246,267,286,305,327,346,367,386,406,426,446,467,487,506,527,547,567,587,606,627,646,667,686,706,726,746,766,787,806,826,846,866,886,906,926,946,966,987,1006,1026,1046,1066,1087,1107],"xSR":741.5,"ySR":573.95,"xT1":424.9,"yT1":0,"xT2":1058.1,"yT2":0,"toosoon":0,"cond_shown":"randomdotsizeEA","ratio_trial":750,"smaller_num":"15","larger_num":"20","correct_side":1,"subjID":"NataliaValdivieso28","gender":"1","age":"9","school":"4"},{"start_time":1552070097895,"click_time":1552070099140,"finger_time":1552070098660,"fix_duration":393.7855847242222,"trial":38,"RT":765,"MT":480,"sideResp":1,"stimulus":"img/500/equaldotsize/L/13_Ratio_500_L_12_R_6.png","xmouse":[762,762,762,762,762,762,762,762,762,762,762,762,762,762,762,762,762,762,762,762,762,762,762,762,762,762,762,762,762,762,762,762,762,762,763,763,762,757,753,745,734,698,678,663,649,635,631,630,629,629,627,625,622,617,611,596,581,576,560,548,539,518,507],"ymouse":[632,632,632,632,632,632,632,632,632,632,632,632,632,632,632,632,632,632,632,632,632,632,632,632,632,632,632,632,632,632,632,632,632,630,627,622,603,586,573,557,538,481,453,430,411,386,378,374,370,370,364,360,352,341,326,288,252,240,201,174,148,103,83],"timestamp_mouse":[11,23,45,65,84,103,125,144,164,185,204,224,244,264,284,305,324,344,364,384,404,424,444,464,484,504,524,544,565,585,604,625,645,664,684,704,724,745,765,786,804,825,844,865,884,905,924,944,964,984,1005,1024,1044,1065,1086,1105,1124,1144,1164,1184,1204,1225,1245],"xSR":741.5,"ySR":573.95,"xT1":424.9,"yT1":0,"xT2":1058.1,"yT2":0,"toosoon":0,"cond_shown":"equaldotsize","ratio_trial":500,"smaller_num":"6","larger_num":"12","correct_side":1,"subjID":"NataliaValdivieso28","gender":"1","age":"9","school":"4"},{"start_time":1552070101504,"click_time":1552070102579,"finger_time":1552070102159,"fix_duration":883.3843107409471,"trial":39,"RT":655,"MT":420,"sideResp":1,"stimulus":"img/250/randomdotsizeEA/L/5_Ratio_250_L_24_R_6.png","xmouse":[765,765,765,765,765,765,765,767,767,767,767,767,767,767,767,767,767,767,767,767,767,767,767,767,768,768,768,768,768,768,768,768,769,770,770,769,762,750,736,722,700,692,682,671,661,634,607,589,576,552,543,533,525,518],"ymouse":[610,610,610,610,610,610,610,610,610,610,610,610,610,610,610,610,610,610,610,610,610,610,610,610,609,607,605,602,600,594,589,583,573,561,547,503,481,457,433,412,380,366,347,328,306,258,216,188,166,126,111,97,87,79],"timestamp_mouse":[15,39,56,76,95,117,135,155,176,195,215,236,255,275,296,316,335,355,375,395,415,435,455,476,497,516,536,556,576,596,615,635,655,675,695,715,736,755,775,796,815,835,856,875,896,916,936,955,975,996,1015,1035,1056,1075],"xSR":741.5,"ySR":573.95,"xT1":424.9,"yT1":0,"xT2":1058.1,"yT2":0,"toosoon":0,"cond_shown":"randomdotsizeEA","ratio_trial":250,"smaller_num":"6","larger_num":"24","correct_side":1,"subjID":"NataliaValdivieso28","gender":"1","age":"9","school":"4"},{"start_time":1552070104449,"click_time":1552070105960,"finger_time":1552070105140,"fix_duration":388.8258205270443,"trial":40,"RT":691,"MT":820,"sideResp":2,"stimulus":"img/750/equaldotsize/R/5_Ratio_750_L_15_R_20.png","xmouse":[798,798,798,798,798,798,798,798,798,798,798,798,798,798,798,798,798,798,798,798,798,798,798,798,798,798,798,798,798,800,802,805,811,822,828,833,842,856,863,876,885,892,906,913,918,926,931,947,957,960,967,968,970,972,973,975,976,983,989,999,1011,1023,1033,1050,1056,1063,1068,1074,1078,1080,1083,1086,1091,1093,1094,1095],"ymouse":[615,615,615,615,615,615,615,615,615,615,615,615,615,615,615,615,615,615,615,615,615,615,615,615,615,615,615,615,615,615,611,605,595,576,565,554,541,516,504,480,465,450,416,397,379,360,341,306,282,276,262,258,253,251,250,248,247,242,236,230,221,213,202,180,172,161,154,141,134,129,124,118,108,104,101,98],"timestamp_mouse":[10,44,50,71,90,110,131,150,171,190,210,230,250,271,290,311,330,351,371,390,411,430,451,470,490,510,530,551,571,591,610,630,650,670,691,711,731,752,770,791,812,831,851,870,890,910,931,951,970,990,1010,1030,1050,1070,1090,1111,1131,1151,1170,1190,1211,1231,1250,1271,1291,1311,1331,1351,1370,1390,1410,1431,1450,1470,1490,1511],"xSR":741.5,"ySR":573.95,"xT1":424.9,"yT1":0,"xT2":1058.1,"yT2":0,"toosoon":0,"cond_shown":"equaldotsize","ratio_trial":750,"smaller_num":"15","larger_num":"20","correct_side":2,"subjID":"NataliaValdivieso28","gender":"1","age":"9","school":"4"},{"start_time":1552070108885,"click_time":1552070110139,"finger_time":1552070109479,"fix_duration":624.0022209846854,"trial":41,"RT":594,"MT":660,"sideResp":1,"stimulus":"img/500/equaldotanddens/L/13_Ratio_500_L_12_R_6.png","xmouse":[798,798,798,798,798,798,798,798,798,798,798,798,798,798,798,798,798,798,798,798,798,798,798,798,798,798,781,763,747,740,731,714,706,702,699,697,697,697,697,697,701,703,704,704,704,698,690,676,651,635,593,573,560,550,540,527,519,509,506,502,496,494,494],"ymouse":[616,616,616,616,616,616,616,616,616,616,616,616,616,616,616,616,616,616,616,616,616,616,616,616,616,616,600,587,576,567,555,533,522,516,512,503,501,497,487,478,451,439,426,414,407,391,379,366,345,334,301,283,269,253,234,200,183,157,145,133,112,104,97],"timestamp_mouse":[14,39,54,74,95,114,134,155,174,195,214,234,255,276,295,315,334,354,375,394,415,435,456,475,494,515,534,555,574,594,614,634,654,674,694,715,734,755,774,794,815,834,855,875,895,915,934,954,975,995,1015,1034,1055,1074,1094,1115,1134,1154,1174,1194,1214,1234,1254],"xSR":741.5,"ySR":573.95,"xT1":424.9,"yT1":0,"xT2":1058.1,"yT2":0,"toosoon":0,"cond_shown":"equaldotanddens","ratio_trial":500,"smaller_num":"6","larger_num":"12","correct_side":1,"subjID":"NataliaValdivieso28","gender":"1","age":"9","school":"4"},{"start_time":1552070111712,"click_time":1552070113339,"finger_time":1552070112579,"fix_duration":250,"trial":42,"RT":867,"MT":760,"sideResp":2,"stimulus":"img/500/equaldotsize/R/6_Ratio_500_L_9_R_18.png","xmouse":[785,785,785,785,785,785,785,785,785,785,785,785,785,785,785,785,785,785,785,785,785,785,785,785,785,785,785,785,785,785,785,785,785,785,785,785,785,785,785,788,794,803,813,824,834,853,865,871,878,887,892,897,902,906,913,915,918,921,923,935,939,944,950,957,974,982,989,1000,1008,1021,1026,1032,1037,1040,1043,1046,1050,1054,1059,1075,1082,1085],"ymouse":[615,615,615,615,615,615,615,615,615,615,615,615,615,615,615,615,615,615,615,615,615,615,615,615,615,615,615,615,615,615,615,615,615,615,615,615,615,615,615,615,607,595,580,563,547,509,480,462,447,418,406,395,383,371,353,345,336,329,321,303,295,287,276,266,247,237,228,213,201,181,172,164,154,150,144,139,132,128,122,107,100,96],"timestamp_mouse":[19,41,47,67,87,107,128,147,167,187,207,227,248,269,287,307,328,347,368,387,407,427,448,468,487,507,528,548,567,589,608,628,647,668,689,708,727,747,767,787,808,828,847,867,888,907,928,948,967,987,1007,1027,1048,1067,1087,1107,1128,1148,1167,1188,1207,1228,1248,1268,1287,1307,1328,1347,1367,1388,1407,1427,1448,1467,1488,1507,1528,1548,1567,1587,1607,1627],"xSR":741.5,"ySR":573.95,"xT1":424.9,"yT1":0,"xT2":1058.1,"yT2":0,"toosoon":0,"cond_shown":"equaldotsize","ratio_trial":500,"smaller_num":"9","larger_num":"18","correct_side":2,"subjID":"NataliaValdivieso28","gender":"1","age":"9","school":"4"},{"start_time":1552070114613,"click_time":1552070115799,"finger_time":1552070115360,"fix_duration":312.157360338441,"trial":43,"RT":747,"MT":439,"sideResp":1,"stimulus":"img/500/randomdotsizeEA/L/7_Ratio_500_L_10_R_5.png","xmouse":[776,776,776,776,776,776,776,776,776,776,776,776,776,776,776,776,776,776,776,776,776,776,776,776,776,776,776,776,777,779,780,782,783,784,787,788,788,788,788,773,765,744,730,716,689,675,668,659,652,628,616,599,592,587,576,572,565,558,550,522],"ymouse":[643,643,643,643,643,643,643,643,643,643,643,643,643,643,643,643,643,643,643,643,643,643,643,643,643,643,643,643,642,635,631,626,622,618,604,593,581,564,544,491,461,407,375,342,283,258,240,222,205,174,161,147,143,138,129,126,120,113,107,88],"timestamp_mouse":[12,35,46,67,86,106,127,147,166,187,206,227,247,267,287,306,326,347,367,387,407,427,446,467,486,507,526,547,567,586,607,627,646,667,687,706,726,747,766,787,806,826,846,867,886,906,926,947,966,986,1006,1026,1047,1066,1086,1106,1126,1146,1167,1186],"xSR":741.5,"ySR":573.95,"xT1":424.9,"yT1":0,"xT2":1058.1,"yT2":0,"toosoon":0,"cond_shown":"randomdotsizeEA","ratio_trial":500,"smaller_num":"5","larger_num":"10","correct_side":1,"subjID":"NataliaValdivieso28","gender":"1","age":"9","school":"4"},{"start_time":1552070118499,"click_time":1552070119539,"finger_time":1552070119160,"fix_duration":1457.7475065535752,"trial":44,"RT":661,"MT":379,"sideResp":1,"stimulus":"img/500/equaldotanddens/L/8_Ratio_500_L_8_R_4.png","xmouse":[788,788,789,789,789,789,789,789,790,791,793,794,795,795,795,795,795,795,795,795,795,795,795,795,795,795,795,795,796,794,783,772,760,747,735,704,673,654,637,619,590,575,563,549,533,502,490,478,463,453,441,439,438],"ymouse":[638,638,638,638,638,638,638,638,638,638,637,636,635,635,635,635,635,635,635,635,635,635,635,635,635,635,635,635,634,631,609,593,575,559,542,504,472,453,436,418,383,366,348,328,307,264,241,219,184,159,119,104,93],"timestamp_mouse":[13,28,40,61,81,101,121,141,161,181,200,221,241,260,281,301,321,340,361,380,401,421,440,460,480,501,520,542,562,581,600,621,640,661,680,701,720,740,760,780,800,820,841,861,880,901,920,941,960,980,1000,1020,1040],"xSR":741.5,"ySR":573.95,"xT1":424.9,"yT1":0,"xT2":1058.1,"yT2":0,"toosoon":0,"cond_shown":"equaldotanddens","ratio_trial":500,"smaller_num":"4","larger_num":"8","correct_side":1,"subjID":"NataliaValdivieso28","gender":"1","age":"9","school":"4"},{"start_time":1552070121923,"click_time":1552070123000,"finger_time":1552070122420,"fix_duration":861.1978363192212,"trial":45,"RT":497,"MT":580,"sideResp":2,"stimulus":"img/750/equaldotanddens/R/11_Ratio_750_L_12_R_16.png","xmouse":[774,774,774,774,774,774,774,774,774,774,774,774,774,774,774,774,774,774,774,774,774,774,774,774,774,774,774,774,775,776,779,783,788,800,808,827,835,842,848,849,852,855,861,875,883,899,912,928,973,992,1017,1038,1056,1081],"ymouse":[588,587,587,585,585,585,585,585,585,585,585,585,585,585,585,585,585,585,585,585,585,585,581,574,562,559,545,535,513,502,490,477,464,437,420,395,380,370,355,349,340,333,322,298,284,260,244,228,194,164,124,93,68,35],"timestamp_mouse":[18,36,57,77,96,116,136,157,176,196,216,236,256,276,296,317,337,357,377,398,417,436,457,477,497,516,537,557,576,596,616,636,657,677,696,716,737,756,776,796,817,836,856,877,896,916,936,956,976,996,1017,1037,1056,1077],"xSR":741.5,"ySR":573.95,"xT1":424.9,"yT1":0,"xT2":1058.1,"yT2":0,"toosoon":0,"cond_shown":"equaldotanddens","ratio_trial":750,"smaller_num":"12","larger_num":"16","correct_side":2,"subjID":"NataliaValdivieso28","gender":"1","age":"9","school":"4"},{"start_time":1552070125529,"click_time":1552070126720,"finger_time":1552070126139,"fix_duration":1427.3573041402806,"trial":46,"RT":610,"MT":581,"sideResp":1,"stimulus":"img/900/equaldotsize/R/7_Ratio_900_L_9_R_10.png","xmouse":[800,800,800,800,800,800,800,800,800,800,800,800,800,800,800,800,800,800,799,794,793,793,793,792,792,791,791,791,791,791,791,790,790,790,792,795,798,799,798,789,777,763,749,720,711,705,696,692,682,677,671,664,656,636,623,609,588,573,539,522],"ymouse":[620,620,620,620,620,620,620,620,620,620,620,620,620,620,620,620,620,620,619,616,616,616,616,615,612,609,605,595,582,575,568,562,556,542,531,517,495,482,444,424,404,384,365,331,322,311,297,289,267,255,241,228,214,184,168,150,127,109,69,49],"timestamp_mouse":[15,46,52,70,91,111,130,150,170,191,211,230,250,271,290,310,330,351,370,391,410,430,450,471,491,511,532,551,570,590,610,631,650,671,690,710,731,751,770,791,811,831,850,870,890,910,931,951,970,990,1011,1031,1050,1071,1090,1111,1131,1151,1171,1191],"xSR":741.5,"ySR":573.95,"xT1":424.9,"yT1":0,"xT2":1058.1,"yT2":0,"toosoon":0,"cond_shown":"equaldotsize","ratio_trial":900,"smaller_num":"9","larger_num":"10","correct_side":2,"subjID":"NataliaValdivieso28","gender":"1","age":"9","school":"4"},{"start_time":1552070129483,"click_time":1552070130999,"finger_time":1552070130180,"fix_duration":1281.1653137506814,"trial":47,"RT":697,"MT":819,"sideResp":2,"stimulus":"img/750/equaldotsize/R/3_Ratio_750_L_15_R_20.png","xmouse":[766,766,767,767,768,768,769,769,769,769,769,769,769,769,769,769,769,769,769,769,769,769,770,770,770,771,772,773,774,775,779,784,792,802,811,836,847,862,869,877,891,898,905,912,921,936,941,947,949,953,961,964,968,972,976,987,993,999,1009,1019,1058,1077,1093,1107,1118,1123,1124,1124,1124,1124,1124,1124,1125,1125,1126,1129],"ymouse":[627,627,627,627,627,627,626,626,626,626,626,626,626,626,626,626,626,626,626,626,626,626,626,626,624,624,622,620,619,617,611,606,596,584,572,539,525,506,493,481,452,437,420,403,384,349,333,316,310,294,275,267,257,248,236,215,203,193,177,169,154,147,138,129,122,116,115,115,115,115,115,115,114,112,109,91],"timestamp_mouse":[17,39,57,78,96,117,136,156,176,197,217,238,257,277,298,317,336,356,377,396,417,437,456,476,496,516,536,557,577,597,616,637,657,677,697,717,736,756,776,796,816,838,856,876,896,917,936,957,976,996,1016,1037,1057,1076,1097,1116,1136,1157,1177,1196,1216,1237,1256,1277,1296,1317,1336,1357,1377,1396,1416,1436,1456,1477,1496,1516],"xSR":741.5,"ySR":573.95,"xT1":424.9,"yT1":0,"xT2":1058.1,"yT2":0,"toosoon":0,"cond_shown":"equaldotsize","ratio_trial":750,"smaller_num":"15","larger_num":"20","correct_side":2,"subjID":"NataliaValdivieso28","gender":"1","age":"9","school":"4"},{"start_time":1552070132552,"click_time":1552070134199,"finger_time":1552070133240,"fix_duration":250,"trial":48,"RT":688,"MT":959,"sideResp":1,"stimulus":"img/900/equaldotanddens/R/12_Ratio_900_L_18_R_20.png","xmouse":[761,761,761,761,761,761,761,761,761,761,761,761,761,761,761,761,761,761,761,761,761,761,761,761,761,761,761,761,761,761,761,761,758,753,744,738,733,729,728,727,726,726,725,724,723,719,715,698,685,672,658,642,612,598,585,572,547,519,509,502,498,494,493,493,493,493,493,493,492,492,492,491,491,491,491,489,489,485,484,483,482,482,481],"ymouse":[626,626,626,626,626,626,626,627,629,630,630,630,630,631,631,631,631,631,631,631,631,631,631,631,631,631,631,631,631,629,625,618,597,586,569,559,551,538,534,529,525,520,511,505,498,484,474,445,428,410,393,373,337,320,301,282,253,221,210,200,194,190,189,189,189,189,189,189,185,183,178,173,159,151,141,130,123,114,111,108,106,101,91],"timestamp_mouse":[12,29,47,67,87,108,127,147,167,187,208,227,247,267,287,308,328,348,368,388,407,428,447,468,487,509,528,548,568,587,608,628,647,667,688,707,727,747,768,788,808,827,847,867,887,908,928,947,967,988,1008,1028,1047,1068,1088,1108,1127,1147,1168,1188,1208,1227,1247,1267,1288,1307,1327,1347,1368,1387,1408,1427,1448,1467,1488,1508,1527,1547,1567,1588,1608,1628,1647],"xSR":741.5,"ySR":573.95,"xT1":424.9,"yT1":0,"xT2":1058.1,"yT2":0,"toosoon":0,"cond_shown":"equaldotanddens","ratio_trial":900,"smaller_num":"18","larger_num":"20","correct_side":2,"subjID":"NataliaValdivieso28","gender":"1","age":"9","school":"4"},{"start_time":1552070135962,"click_time":1552070138080,"finger_time":1552070137099,"fix_duration":481.72378786286407,"trial":49,"RT":1137,"MT":981,"sideResp":1,"stimulus":"img/750/equaldotsize/L/9_Ratio_750_L_4_R_3.png","xmouse":[784,784,784,784,784,784,784,784,784,784,784,784,784,784,784,784,784,784,784,784,784,784,784,784,784,784,784,784,784,784,784,784,784,784,784,784,784,784,784,784,784,784,784,784,784,784,784,784,784,784,784,784,780,774,767,756,747,747,747,747,747,747,747,747,747,747,747,747,747,747,747,748,752,756,763,772,785,788,789,789,783,758,746,736,730,727,725,720,710,698,683,656,643,637,630,624,617,613,610,605,601,585,575,560,540,517],"ymouse":[613,613,613,613,613,613,613,613,613,613,613,613,613,613,613,613,613,613,613,613,613,612,612,612,612,612,612,612,612,612,612,612,612,612,612,612,612,612,612,612,612,612,612,612,612,612,612,612,612,612,611,608,602,595,587,578,571,569,569,569,569,569,569,569,569,569,569,569,569,569,567,558,550,541,528,506,472,455,434,412,391,352,336,327,321,317,313,307,296,284,272,249,238,232,225,219,212,208,204,197,191,169,154,135,107,74],"timestamp_mouse":[17,37,57,78,97,117,138,158,179,197,218,238,257,278,298,317,337,358,378,399,417,438,457,477,497,517,538,557,578,597,617,637,657,678,698,717,739,758,777,797,818,837,857,878,897,918,937,958,978,998,1018,1038,1058,1078,1097,1118,1137,1158,1177,1198,1218,1238,1257,1277,1297,1318,1337,1359,1377,1397,1417,1438,1457,1478,1497,1518,1537,1557,1577,1598,1618,1637,1657,1677,1698,1718,1737,1758,1777,1797,1817,1837,1857,1878,1898,1917,1937,1958,1977,1997,2017,2037,2057,2077,2098,2118],"xSR":741.5,"ySR":573.95,"xT1":424.9,"yT1":0,"xT2":1058.1,"yT2":0,"toosoon":0,"cond_shown":"equaldotsize","ratio_trial":750,"smaller_num":"3","larger_num":"4","correct_side":1,"subjID":"NataliaValdivieso28","gender":"1","age":"9","school":"4"},{"start_time":1552070139900,"click_time":1552070141419,"finger_time":1552070140739,"fix_duration":438.956423540255,"trial":50,"RT":839,"MT":680,"sideResp":2,"stimulus":"img/900/equaldotsize/R/7_Ratio_900_L_9_R_10.png","xmouse":[763,763,763,763,763,763,763,763,763,763,763,763,763,763,763,763,763,763,763,763,763,763,763,763,763,763,763,763,763,763,763,763,763,763,763,763,763,763,763,766,779,820,845,878,910,937,989,1004,1015,1025,1038,1043,1048,1057,1063,1070,1084,1087,1090,1092,1093,1093,1093,1092,1092,1092,1088,1088,1088,1088,1088,1088,1088,1088,1088,1088,1088],"ymouse":[627,628,628,628,628,628,628,628,628,628,628,628,628,628,628,628,628,628,628,628,628,628,628,628,628,628,628,628,628,628,628,628,628,628,628,628,628,628,629,629,625,613,605,592,578,562,524,511,497,482,455,440,425,405,384,362,294,267,244,220,200,158,144,131,123,114,102,101,101,101,101,101,101,101,101,101,94],"timestamp_mouse":[1,28,46,59,79,100,119,140,159,179,199,219,239,259,280,300,320,339,360,380,399,421,440,459,479,500,520,540,560,579,600,619,640,659,680,700,719,740,760,779,799,819,839,860,879,899,919,939,960,979,1000,1019,1039,1059,1079,1099,1119,1139,1160,1179,1199,1219,1239,1260,1279,1299,1319,1339,1359,1379,1400,1420,1439,1459,1480,1499,1519],"xSR":741.5,"ySR":573.95,"xT1":424.9,"yT1":0,"xT2":1058.1,"yT2":0,"toosoon":0,"cond_shown":"equaldotsize","ratio_trial":900,"smaller_num":"9","larger_num":"10","correct_side":2,"subjID":"NataliaValdivieso28","gender":"1","age":"9","school":"4"},{"start_time":1552070143328,"click_time":1552070144440,"finger_time":1552070143980,"fix_duration":487.4200159332721,"trial":51,"RT":652,"MT":460,"sideResp":1,"stimulus":"img/900/randomdotsizeEA/R/14_Ratio_900_L_18_R_20.png","xmouse":[781,782,782,782,782,782,782,782,782,782,782,782,782,782,782,782,782,782,782,782,782,782,782,782,782,782,782,782,781,770,760,748,734,710,696,677,666,656,634,622,610,599,588,572,565,553,547,543,538,529,523,516,510,489,478,463],"ymouse":[659,658,658,658,658,658,658,658,658,658,658,658,658,658,658,658,658,658,658,658,658,658,658,658,658,658,658,657,645,633,617,599,578,535,511,479,458,436,393,372,351,332,313,284,272,254,247,237,229,211,198,184,168,130,112,82],"timestamp_mouse":[13,39,52,72,91,111,132,152,172,193,212,232,253,273,291,312,332,352,372,391,411,432,452,472,492,512,532,552,572,592,612,632,652,673,691,712,732,752,772,791,812,832,852,872,891,912,931,952,971,992,1011,1032,1051,1072,1091,1111],"xSR":741.5,"ySR":573.95,"xT1":424.9,"yT1":0,"xT2":1058.1,"yT2":0,"toosoon":0,"cond_shown":"randomdotsizeEA","ratio_trial":900,"smaller_num":"18","larger_num":"20","correct_side":2,"subjID":"NataliaValdivieso28","gender":"1","age":"9","school":"4"},{"start_time":1552070148500,"click_time":1552070150139,"finger_time":1552070149360,"fix_duration":538.5950181189755,"trial":52,"RT":860,"MT":779,"sideResp":2,"stimulus":"img/750/randomdotsizeEA/R/4_Ratio_750_L_15_R_20.png","xmouse":[778,778,778,778,778,778,778,778,778,778,778,778,778,778,778,778,778,778,778,778,778,778,778,778,778,778,778,778,778,778,778,778,778,778,778,778,778,778,778,779,784,788,795,806,820,848,862,884,896,907,927,931,936,941,945,957,963,972,978,983,996,1003,1009,1014,1018,1022,1028,1031,1034,1038,1046,1057,1061,1063,1064,1065,1065,1065,1065,1065,1065,1069,1076],"ymouse":[626,626,626,626,626,626,626,626,626,626,626,626,626,626,626,626,626,626,626,626,626,626,626,626,626,626,626,626,626,626,626,626,626,626,626,626,626,626,625,622,604,593,576,556,535,491,465,428,406,387,353,341,331,321,311,291,282,266,255,246,222,211,202,194,188,183,175,171,167,161,152,137,131,127,125,124,124,124,124,124,121,113,97],"timestamp_mouse":[1,19,39,60,80,99,119,140,160,179,199,220,239,259,280,300,320,340,359,379,400,420,440,460,479,500,520,540,559,579,600,619,639,659,680,699,720,739,759,780,800,819,839,860,879,900,919,940,959,980,1000,1019,1039,1060,1080,1100,1119,1139,1159,1179,1199,1220,1239,1259,1279,1300,1320,1339,1359,1380,1399,1420,1439,1459,1480,1500,1520,1539,1559,1580,1600,1620,1639],"xSR":741.5,"ySR":573.95,"xT1":424.9,"yT1":0,"xT2":1058.1,"yT2":0,"toosoon":0,"cond_shown":"randomdotsizeEA","ratio_trial":750,"smaller_num":"15","larger_num":"20","correct_side":2,"subjID":"NataliaValdivieso28","gender":"1","age":"9","school":"4"},{"start_time":1552070152362,"click_time":1552070153619,"finger_time":1552070153079,"fix_duration":861.2640027754566,"trial":53,"RT":717,"MT":540,"sideResp":1,"stimulus":"img/250/equaldotanddens/L/14_Ratio_250_L_12_R_3.png","xmouse":[795,795,795,795,795,795,795,795,795,795,795,795,795,795,795,795,795,795,795,795,795,795,795,795,795,795,795,795,795,795,795,795,794,788,780,774,754,741,729,715,704,687,675,671,665,659,644,633,624,610,597,569,550,542,535,528,518,513,506,501,495,487,477],"ymouse":[608,608,608,608,608,608,608,608,608,608,608,608,608,608,608,608,608,608,608,608,608,608,608,608,608,608,608,608,608,608,608,608,604,594,582,569,532,515,496,476,463,439,419,411,399,385,353,334,316,296,277,245,223,212,200,188,166,153,137,126,113,101,84],"timestamp_mouse":[18,38,57,78,97,119,138,157,178,198,218,237,258,277,297,317,337,357,377,397,417,437,457,477,497,518,537,557,577,597,618,638,658,678,697,717,738,757,777,798,818,838,857,877,898,918,937,957,977,998,1018,1037,1057,1078,1098,1118,1138,1157,1177,1198,1217,1237,1257],"xSR":741.5,"ySR":573.95,"xT1":424.9,"yT1":0,"xT2":1058.1,"yT2":0,"toosoon":0,"cond_shown":"equaldotanddens","ratio_trial":250,"smaller_num":"3","larger_num":"12","correct_side":1,"subjID":"NataliaValdivieso28","gender":"1","age":"9","school":"4"},{"start_time":1552070157700,"click_time":1552070159099,"finger_time":1552070158220,"fix_duration":958.3972349933314,"trial":54,"RT":520,"MT":879,"sideResp":1,"stimulus":"img/500/randomdotsizeEA/L/11_Ratio_500_L_12_R_6.png","xmouse":[800,800,800,800,800,800,800,800,800,800,800,800,800,800,800,800,800,800,800,800,800,796,783,769,747,737,728,723,719,714,712,711,711,710,709,707,704,701,697,687,680,673,664,655,642,637,636,630,625,610,602,593,587,583,578,571,567,561,556,544,540,538,537,537,537,537,537,532,528,517],"ymouse":[617,617,617,617,617,617,617,617,617,617,617,617,617,617,617,617,617,617,617,617,617,616,614,612,605,601,597,595,593,590,589,588,588,587,583,579,568,558,546,513,495,476,454,434,393,360,348,313,285,235,208,187,169,153,139,117,101,88,77,57,51,47,47,47,47,47,46,41,38,35],"timestamp_mouse":[19,48,60,79,99,119,140,159,179,199,219,239,260,280,300,319,339,359,381,399,420,439,460,479,500,520,539,559,580,599,619,640,659,680,700,719,739,760,780,800,819,840,860,879,900,919,939,959,979,1000,1019,1041,1059,1080,1100,1120,1139,1160,1180,1200,1219,1240,1260,1280,1300,1321,1340,1359,1380,1399],"xSR":741.5,"ySR":573.95,"xT1":424.9,"yT1":0,"xT2":1058.1,"yT2":0,"toosoon":0,"cond_shown":"randomdotsizeEA","ratio_trial":500,"smaller_num":"6","larger_num":"12","correct_side":1,"subjID":"NataliaValdivieso28","gender":"1","age":"9","school":"4"},{"start_time":1552070161461,"click_time":1552070162600,"finger_time":1552070162199,"fix_duration":660.0739671969241,"trial":55,"RT":738,"MT":401,"sideResp":1,"stimulus":"img/900/randomdotsizeEA/L/1_Ratio_900_L_10_R_9.png","xmouse":[778,778,778,778,778,778,778,778,778,778,778,778,778,778,778,778,778,778,778,778,778,778,778,778,778,778,778,778,778,779,779,779,779,779,776,773,767,746,726,712,697,670,657,646,632,619,609,593,580,573,565,546,535,525,516,507,491],"ymouse":[609,609,609,609,609,609,609,609,609,609,609,609,609,609,609,609,609,609,609,609,609,609,609,609,609,609,609,609,609,608,605,601,593,590,584,580,572,548,523,508,489,456,440,425,409,395,379,348,313,290,264,220,193,170,148,129,92],"timestamp_mouse":[27,38,59,78,98,119,138,159,179,198,219,239,258,279,298,319,338,359,379,398,418,438,458,480,499,519,539,560,578,599,619,638,659,679,698,718,738,759,779,799,820,839,858,878,899,918,939,959,979,998,1019,1039,1059,1078,1099,1119,1139],"xSR":741.5,"ySR":573.95,"xT1":424.9,"yT1":0,"xT2":1058.1,"yT2":0,"toosoon":0,"cond_shown":"randomdotsizeEA","ratio_trial":900,"smaller_num":"9","larger_num":"10","correct_side":1,"subjID":"NataliaValdivieso28","gender":"1","age":"9","school":"4"},{"start_time":1552070168481,"click_time":1552070169920,"finger_time":1552070169259,"fix_duration":1300.5720525182294,"trial":56,"RT":778,"MT":661,"sideResp":1,"stimulus":"img/750/equaldotanddens/L/6_Ratio_750_L_24_R_18.png","xmouse":[766,766,766,766,766,766,766,766,766,766,766,766,766,766,766,766,766,766,766,766,766,766,766,766,766,766,766,766,765,764,763,762,762,762,762,762,764,766,769,773,782,787,793,799,807,824,837,846,852,857,865,869,870,871,872,872,872,870,862,849,829,775,745,722,695,655,637,618,590,572,555,519],"ymouse":[621,621,621,621,621,621,621,621,621,621,621,621,621,621,621,621,621,621,621,621,621,621,621,621,619,617,616,614,612,611,606,604,602,598,595,591,582,574,567,559,539,528,517,504,488,459,436,420,405,392,374,366,361,358,355,352,351,344,339,332,320,284,262,241,218,177,152,125,85,62,41,6],"timestamp_mouse":[19,39,59,79,99,119,138,158,179,200,219,238,259,278,300,319,338,358,380,399,418,438,459,479,498,519,538,559,578,599,619,638,658,679,698,719,739,759,778,798,818,838,858,879,899,919,938,959,980,999,1019,1039,1058,1079,1099,1125,1138,1158,1178,1198,1218,1239,1258,1279,1299,1318,1338,1359,1379,1398,1419,1439],"xSR":741.5,"ySR":573.95,"xT1":424.9,"yT1":0,"xT2":1058.1,"yT2":0,"toosoon":0,"cond_shown":"equaldotanddens","ratio_trial":750,"smaller_num":"18","larger_num":"24","correct_side":1,"subjID":"NataliaValdivieso28","gender":"1","age":"9","school":"4"},{"start_time":1552070171992,"click_time":1552070173280,"finger_time":1552070172960,"fix_duration":250,"trial":57,"RT":968,"MT":320,"sideResp":1,"stimulus":"img/900/equaldotanddens/L/4_Ratio_900_L_20_R_18.png","xmouse":[789,789,789,789,789,789,789,789,789,789,789,789,789,789,789,789,789,789,789,789,789,789,789,789,789,789,789,789,789,789,789,789,789,789,790,791,791,792,792,793,794,794,794,794,794,794,793,788,779,769,735,722,701,689,679,666,662,659,655,648,633,624,593,550,488],"ymouse":[621,621,621,621,621,621,621,621,621,621,621,621,621,621,621,621,621,621,621,621,621,621,621,621,621,621,621,621,621,621,621,621,621,621,619,617,615,613,611,611,610,610,610,608,607,600,590,576,556,531,464,438,400,377,354,309,290,271,252,230,191,175,140,105,64],"timestamp_mouse":[13,39,48,68,88,108,127,148,168,187,208,228,247,268,288,308,329,347,367,387,408,429,447,468,488,508,528,547,567,588,607,628,647,667,688,708,728,747,768,787,808,828,848,868,888,908,928,948,968,987,1008,1028,1047,1068,1088,1108,1127,1147,1168,1187,1208,1227,1247,1267,1288],"xSR":741.5,"ySR":573.95,"xT1":424.9,"yT1":0,"xT2":1058.1,"yT2":0,"toosoon":0,"cond_shown":"equaldotanddens","ratio_trial":900,"smaller_num":"18","larger_num":"20","correct_side":1,"subjID":"NataliaValdivieso28","gender":"1","age":"9","school":"4"},{"start_time":1552070176836,"click_time":1552070178400,"finger_time":1552070177619,"fix_duration":1494.0156740584755,"trial":58,"RT":783,"MT":781,"sideResp":2,"stimulus":"img/500/equaldotanddens/R/9_Ratio_500_L_2_R_4.png","xmouse":[792,792,792,792,792,792,792,792,792,792,792,792,792,792,792,792,792,792,792,792,792,792,792,792,792,792,792,792,792,792,792,792,792,792,795,803,814,823,841,851,866,877,893,913,951,963,976,987,1005,1017,1021,1031,1036,1042,1053,1059,1063,1067,1070,1070,1070,1071,1073,1077,1092,1100,1106,1112,1117,1119,1120,1120,1120,1120,1120,1120,1121,1122,1123],"ymouse":[632,632,632,632,632,632,632,632,632,632,632,632,632,632,632,632,632,632,632,632,632,632,632,632,632,632,632,632,632,632,632,632,632,632,628,625,620,615,601,589,564,538,500,464,391,365,345,328,296,274,267,250,240,231,211,204,198,193,188,188,187,186,184,179,159,150,141,133,122,119,116,114,112,108,107,105,105,104,97],"timestamp_mouse":[9,23,44,64,83,104,124,144,163,184,204,223,244,265,284,304,324,343,363,384,404,423,443,464,484,504,523,545,564,583,604,623,643,664,684,703,724,743,764,783,804,823,844,863,884,904,923,944,964,983,1004,1024,1043,1063,1084,1103,1124,1143,1163,1183,1203,1225,1243,1263,1284,1303,1324,1343,1364,1383,1403,1424,1444,1464,1483,1503,1523,1543,1563],"xSR":741.5,"ySR":573.95,"xT1":424.9,"yT1":0,"xT2":1058.1,"yT2":0,"toosoon":0,"cond_shown":"equaldotanddens","ratio_trial":500,"smaller_num":"2","larger_num":"4","correct_side":2,"subjID":"NataliaValdivieso28","gender":"1","age":"9","school":"4"},{"start_time":1552070181154,"click_time":1552070182479,"finger_time":1552070181860,"fix_duration":1413.4867937789588,"trial":59,"RT":706,"MT":619,"sideResp":1,"stimulus":"img/250/equaldotanddens/L/1_Ratio_250_L_8_R_2.png","xmouse":[791,791,791,791,791,791,791,791,791,791,791,791,791,791,791,791,791,791,791,791,791,791,791,791,791,791,791,791,791,791,791,791,792,792,781,768,755,742,725,724,722,720,716,713,710,707,704,695,687,680,672,665,655,652,647,644,641,631,622,615,605,596,574,557,550,533,521],"ymouse":[608,608,608,608,608,608,608,608,608,608,608,608,608,608,608,608,608,608,608,608,608,608,608,608,608,608,608,608,608,608,608,608,607,602,584,567,549,533,510,503,496,489,471,462,448,421,397,346,319,298,278,262,241,236,228,225,220,208,198,191,182,173,147,122,112,76,47],"timestamp_mouse":[10,25,45,66,85,107,125,146,167,186,206,226,245,266,285,305,325,346,366,387,406,427,446,465,486,507,526,546,566,586,606,625,646,665,686,706,725,745,766,785,806,826,845,865,886,907,925,946,966,986,1005,1025,1046,1065,1085,1105,1125,1145,1166,1185,1205,1225,1246,1265,1286,1307,1325],"xSR":741.5,"ySR":573.95,"xT1":424.9,"yT1":0,"xT2":1058.1,"yT2":0,"toosoon":0,"cond_shown":"equaldotanddens","ratio_trial":250,"smaller_num":"2","larger_num":"8","correct_side":1,"subjID":"NataliaValdivieso28","gender":"1","age":"9","school":"4"},{"start_time":1552070184092,"click_time":1552070185639,"finger_time":1552070184959,"fix_duration":250,"trial":60,"RT":867,"MT":680,"sideResp":2,"stimulus":"img/750/randomdotsizeEA/R/11_Ratio_750_L_12_R_16.png","xmouse":[799,799,799,799,799,799,799,799,799,799,799,799,799,799,799,799,799,799,799,799,799,799,799,799,799,799,799,799,799,799,799,799,799,799,799,799,799,799,799,802,815,823,831,840,850,875,897,912,930,946,972,984,998,1016,1037,1079,1099,1108,1114,1120,1132,1139,1147,1153,1160,1167,1176,1178,1179,1179,1179,1179,1179,1178,1178,1177,1165,1157],"ymouse":[622,622,622,622,622,622,622,622,622,622,622,622,622,622,622,622,622,622,622,622,622,622,622,622,622,622,622,622,622,622,622,622,622,622,622,622,622,622,620,615,596,586,575,561,548,517,488,467,444,426,392,376,359,341,323,281,250,233,220,204,177,165,151,138,124,110,76,64,53,45,36,27,24,22,22,22,20,18],"timestamp_mouse":[11,41,47,67,87,108,127,148,167,188,209,228,247,268,288,307,327,348,367,388,407,428,447,468,488,507,527,547,567,587,609,629,648,667,689,707,728,748,768,788,808,828,847,867,887,908,927,948,968,989,1008,1027,1048,1067,1088,1108,1127,1147,1168,1188,1208,1228,1247,1268,1287,1308,1328,1348,1369,1388,1407,1428,1449,1467,1487,1508,1528,1547],"xSR":741.5,"ySR":573.95,"xT1":424.9,"yT1":0,"xT2":1058.1,"yT2":0,"toosoon":0,"cond_shown":"randomdotsizeEA","ratio_trial":750,"smaller_num":"12","larger_num":"16","correct_side":2,"subjID":"NataliaValdivieso28","gender":"1","age":"9","school":"4"},{"start_time":1552070187336,"click_time":1552070188439,"finger_time":1552070188000,"fix_duration":574.7723043356567,"trial":61,"RT":664,"MT":439,"sideResp":1,"stimulus":"img/250/randomdotsizeEA/L/2_Ratio_250_L_16_R_4.png","xmouse":[768,768,768,768,768,768,768,768,768,768,768,768,768,768,768,768,768,768,768,768,769,770,771,771,772,774,774,775,777,777,777,777,777,777,772,769,768,762,754,748,743,736,729,713,699,689,678,662,624,606,592,577,561,548,526,519],"ymouse":[627,627,627,627,627,627,627,627,627,627,627,627,627,627,627,627,627,627,626,624,621,619,618,617,613,610,608,605,597,592,587,581,574,557,543,533,525,515,494,480,467,452,435,398,366,344,320,292,234,208,186,161,139,120,97,90],"timestamp_mouse":[9,23,43,63,84,103,123,143,163,183,204,223,243,263,284,303,324,343,364,383,403,424,444,464,484,504,523,543,563,584,604,624,643,664,683,704,724,744,764,783,803,824,843,863,883,903,923,944,964,983,1004,1025,1044,1063,1083,1103],"xSR":741.5,"ySR":573.95,"xT1":424.9,"yT1":0,"xT2":1058.1,"yT2":0,"toosoon":0,"cond_shown":"randomdotsizeEA","ratio_trial":250,"smaller_num":"4","larger_num":"16","correct_side":1,"subjID":"NataliaValdivieso28","gender":"1","age":"9","school":"4"},{"start_time":1552070190882,"click_time":1552070192459,"finger_time":1552070191440,"fix_duration":720.4716004417592,"trial":62,"RT":558,"MT":1019,"sideResp":2,"stimulus":"img/250/equaldotsize/R/8_Ratio_250_L_1_R_4.png","xmouse":[773,773,773,773,773,773,773,773,773,773,773,773,773,773,773,773,773,773,773,773,773,773,773,773,773,773,773,773,774,774,775,776,777,777,779,782,783,787,791,796,808,814,825,833,841,857,871,881,892,902,913,932,941,950,959,978,990,1006,1019,1031,1054,1064,1073,1080,1087,1095,1105,1111,1113,1114,1118,1119,1120,1121,1122,1125,1126,1127,1127],"ymouse":[626,625,625,625,625,624,624,624,623,623,623,622,622,622,621,619,616,614,613,611,606,602,598,593,590,582,577,570,566,561,552,548,544,538,534,526,522,517,510,504,493,485,477,470,462,441,425,417,407,394,382,361,350,340,330,310,297,280,269,254,228,216,204,194,184,176,162,153,148,144,136,132,129,125,120,110,106,101,99],"timestamp_mouse":[18,50,58,78,98,119,137,158,177,197,217,237,257,277,298,317,339,358,378,398,417,438,458,477,498,518,538,558,578,597,617,637,657,678,698,718,737,758,778,797,818,837,857,878,897,918,937,957,977,999,1018,1037,1058,1079,1098,1118,1137,1157,1177,1198,1217,1237,1259,1277,1298,1317,1337,1357,1378,1398,1417,1437,1457,1477,1497,1518,1537,1557,1577],"xSR":741.5,"ySR":573.95,"xT1":424.9,"yT1":0,"xT2":1058.1,"yT2":0,"toosoon":0,"cond_shown":"equaldotsize","ratio_trial":250,"smaller_num":"1","larger_num":"4","correct_side":2,"subjID":"NataliaValdivieso28","gender":"1","age":"9","school":"4"},{"start_time":1552070196373,"click_time":1552070197541,"finger_time":1552070196999,"fix_duration":770.6335947824683,"trial":63,"RT":626,"MT":542,"sideResp":2,"stimulus":"img/500/equaldotsize/R/6_Ratio_500_L_9_R_18.png","xmouse":[795,795,795,795,795,795,795,795,795,795,795,79