[{"start_time":1552069064397,"click_time":1552069089104,"finger_time":1552069064408,"fix_duration":769.1115886055597,"trial":0,"RT":11,"MT":24696,"sideResp":1,"stimulus":[],"xmouse":[769,769,769,769,769,769,769,769,769,769,769,769,769,769,769,769,769,769,769,769,769,764,761,758,758,758,758,758,758,758,758,758,758,758,758,758,757,756,755,752,749,740,737,732,731,731,731,731,731,731,731,731,731,731,731,731,731,731,731,731,731,731,731,731,731,732,734,735,736,737,740,751,759,764,770,772,772,772,772,772,770,758,751,741,735,733,732,732,732,732,732,732,732,732,733,734,736,737,738,739,741,745,746,750,751,758,771,782,793,802,809,820,823,825,825,825,825,825,825,825,825,825,825,825,825,825,823,822,821,821,821,821,821,821,818,818,814,812,810,810,810,810,809,804,803,800,799,799,799,799,799,799,799,799,799,799,799,799,799,799,799,799,799,799,799,799,799,799,795,779,755,738,737,737,737,737,737,737,737,737,737,737,737,737,737,737,737,737,737,737,737,737,737,737,737,737,737,737,737,737,737,737,737,737,737,737,737,750,790,808,814,814,814,814,814,814,814,814,814,814,814,814,814,814,814,814,814,814,814,814,814,814,814,814,814,814,814,814,814,814,814,814,814,814,814,814,814,814,814,814,814,814,814,814,814,814,814,814,814,814,814,814,814,814,814,814,814,814,814,814,814,814,814,814,814,814,814,814,814,814,814,814,814,814,814,814,814,814,814,814,814,814,814,814,814,814,814,814,814,814,814,814,814,814,814,814,814,814,814,814,814,814,814,814,814,814,814,814,814,814,814,814,814,814,814,814,814,814,814,814,814,814,814,814,814,814,814,814,814,814,814,814,814,814,814,814,814,814,814,814,814,814,814,814,814,814,814,814,814,814,814,814,814,814,814,814,814,814,814,814,814,814,814,814,814,814,814,814,814,814,814,814,814,814,814,814,814,814,814,814,814,814,814,814,814,814,814,814,814,814,814,814,814,814,814,814,814,814,814,814,814,814,814,814,814,814,814,814,814,814,814,814,814,814,814,814,814,814,814,814,814,814,814,814,814,814,814,814,814,814,814,814,814,814,814,814,814,814,814,814,814,814,814,814,814,814,814,814,814,814,814,814,814,814,814,814,814,814,814,814,814,814,814,814,814,814,814,814,814,814,814,814,814,814,814,814,814,814,814,814,814,814,814,814,814,814,814,814,814,814,814,814,814,814,814,814,814,814,814,814,814,814,814,814,814,814,814,814,814,814,814,814,814,814,814,814,814,814,814,814,814,814,814,814,814,814,814,814,814,814,814,814,814,814,814,814,814,814,814,814,814,814,814,814,814,814,814,814,814,814,814,814,814,814,814,814,814,814,814,814,814,814,814,814,814,814,814,814,814,814,814,814,814,814,814,814,814,814,814,814,814,814,814,814,814,814,814,814,814,814,814,814,814,814,814,814,814,814,814,814,814,814,814,814,814,814,814,814,814,814,814,814,814,814,814,814,814,814,814,814,814,814,814,814,814,814,814,814,814,814,814,814,814,814,814,814,814,814,814,814,814,814,814,814,814,814,814,814,814,814,814,814,814,814,814,814,814,814,814,814,814,814,814,814,814,814,814,814,814,814,814,814,814,814,814,814,814,814,814,814,814,814,814,814,814,814,814,814,814,814,814,814,814,814,814,814,814,814,814,814,830,833,835,835,835,834,817,812,808,806,803,801,801,801,801,801,801,801,801,801,801,801,799,797,797,797,795,794,792,791,789,787,785,785,784,781,777,777,777,777,777,777,777,777,777,777,777,777,777,777,777,777,777,777,777,777,777,777,777,777,777,777,777,777,777,782,790,794,796,797,797,797,798,798,798,799,800,801,802,803,807,810,811,814,816,816,816,816,816,816,816,814,812,807,803,801,798,797,797,797,797,797,795,794,793,792,790,788,787,784,781,781,781,781,781,781,781,781,782,783,784,786,787,787,787,787,787,787,787,787,787,787,787,787,787,787,787,787,787,787,787,787,787,787,787,787,787,787,787,787,787,787,787,787,787,787,787,787,787,787,787,787,787,787,787,787,787,787,787,787,787,787,787,787,787,787,787,787,787,787,787,787,787,787,787,787,787,787,787,787,787,787,787,787,787,787,787,787,787,787,787,787,787,787,787,787,787,787,787,787,787,787,787,787,787,787,787,787,787,787,787,787,787,787,787,787,787,787,787,787,787,787,787,787,787,787,787,787,787,787,787,787,787,787,787,787,787,787,787,787,787,787,787,787,787,787,787,787,787,787,787,787,787,787,787,787,787,787,787,787,787,787,787,787,787,787,787,787,787,787,787,787,787,787,787,787,787,787,787,787,787,787,787,787,787,787,787,787,787,787,787,787,787,787,787,787,787,787,787,787,787,787,787,787,787,787,787,787,787,787,787,787,787,787,787,787,787,787,787,787,787,787,787,787,787,787,787,787,787,787,787,787,787,787,787,787,787,787,787,787,787,787,787,787,787,787,787,787,787,787,787,787,787,787,787,787,787,787,787,787,787,787,787,787,787,787,787,787,787,787,787,787,787,787,787,787,787,787,787,787,787,787,787,787,787,787,787,787,787,787,787,787,787,787,787,787,787,787,787,787,787,787,787,787,787,787,787,787,787,787,787,787,787,787,787,787,787,787,787,787,787,787,787,787,787,787,787,787,787,787,787,787,787,787,787,787,787,787,787,787,787,787,787,787,787,787,787,787,787,787,787,787,787,787,787,787,787,787,787,787,787,790,807,819,829,852,852,874,889,897,900,903,901,888,875,861,824,801,774,743,714,672,648,636,626,619,610,604,594,582,571,550,544,543,541,541,541,540,538,536,535,531,527,526,525,525,525,525,525,525,525,525,525,525,525,524],"ymouse":[546,546,546,546,546,546,546,546,546,546,546,546,546,546,546,546,546,546,546,546,544,538,535,532,532,530,530,530,529,529,529,529,529,529,528,528,527,527,527,527,527,525,525,525,525,525,525,525,525,525,525,525,525,525,525,525,525,525,525,525,525,525,525,525,525,525,525,525,525,525,525,520,517,514,512,511,511,511,512,513,518,543,556,575,595,605,610,611,611,611,611,611,611,611,611,611,610,610,610,610,610,610,610,610,610,610,610,612,618,624,628,636,639,640,640,640,640,640,640,640,640,640,640,640,640,640,637,636,634,634,634,634,633,633,633,633,631,631,630,630,630,630,630,629,629,628,628,628,628,628,628,628,628,628,628,628,628,628,628,628,628,628,628,628,628,628,627,627,612,557,508,492,492,492,492,492,492,492,492,492,492,492,492,492,492,492,492,492,492,492,492,492,492,492,492,492,492,492,492,492,492,492,492,492,492,492,492,486,462,452,450,449,449,449,449,449,449,449,449,449,449,449,449,449,449,449,449,449,449,449,449,449,449,449,449,449,449,449,449,449,449,449,449,449,449,449,449,449,449,449,449,449,449,449,449,449,449,449,449,449,449,449,449,449,449,449,449,449,449,449,449,449,449,449,449,449,449,449,449,449,449,449,449,449,449,449,449,449,449,449,449,449,449,449,449,449,449,449,449,449,449,449,449,449,449,449,449,449,449,449,449,449,449,449,449,449,449,449,449,449,449,449,449,449,449,449,449,449,449,449,449,449,449,449,449,449,449,449,449,449,449,449,449,449,449,449,449,449,449,449,449,449,449,449,449,449,449,449,449,449,449,449,449,449,449,449,449,449,449,449,449,449,449,449,449,449,449,449,449,449,449,449,449,449,449,449,449,449,449,449,449,449,449,449,449,449,449,449,449,449,449,449,449,449,449,449,449,449,449,449,449,449,449,449,449,449,449,449,449,449,449,449,449,449,449,449,449,449,449,449,449,449,449,449,449,449,449,449,449,449,449,449,449,449,449,449,449,449,449,449,449,449,449,449,449,449,449,449,449,449,449,449,449,449,449,449,449,449,449,449,449,449,449,449,449,449,449,449,449,449,449,449,449,449,449,449,449,449,449,449,449,449,449,449,449,449,449,449,449,449,449,449,449,449,449,449,449,449,449,449,449,449,449,449,449,449,449,449,449,449,449,449,449,449,449,449,449,449,449,449,449,449,449,449,449,449,449,449,449,449,449,449,449,449,449,449,449,449,449,449,449,449,449,449,449,449,449,449,449,449,449,449,449,449,449,449,449,449,449,449,449,449,449,449,449,449,449,449,449,449,449,449,449,449,449,449,449,449,449,449,449,449,449,449,449,449,449,449,449,449,449,449,449,449,449,449,449,449,449,449,449,449,449,449,449,449,449,449,449,449,449,449,449,449,449,449,449,449,449,449,449,449,449,449,449,449,449,449,449,449,449,449,449,449,449,449,449,449,449,449,449,449,449,449,449,449,449,449,449,449,449,449,449,449,449,449,449,449,449,449,449,449,449,449,449,449,449,449,449,449,449,449,449,449,449,449,449,449,449,449,449,449,449,449,449,449,449,449,449,449,449,449,449,449,449,449,449,449,449,449,428,426,425,425,425,430,466,481,500,522,539,560,561,561,561,561,562,562,562,562,562,562,563,564,564,566,569,570,572,574,575,577,578,580,584,589,596,596,596,596,596,596,596,596,596,596,596,596,596,596,596,596,597,598,600,600,601,601,601,602,602,604,612,619,629,636,644,646,646,646,646,646,646,646,646,646,643,642,640,639,631,625,618,613,609,609,609,609,609,609,609,609,609,610,610,610,610,611,611,611,611,611,611,611,611,611,612,613,614,615,616,616,616,616,616,616,616,616,615,615,610,595,589,588,588,588,588,588,588,588,588,588,588,588,588,588,588,588,588,588,588,588,588,588,588,588,588,588,588,588,588,588,588,588,588,588,588,588,588,588,588,588,588,588,588,588,588,588,588,588,588,588,588,588,588,588,588,588,588,588,588,588,588,588,588,588,588,587,587,587,587,587,587,587,587,587,587,587,587,587,587,587,587,587,587,587,587,587,587,587,587,587,587,587,587,587,587,587,587,587,587,587,587,587,587,587,587,587,587,587,587,587,587,587,587,587,587,587,587,587,587,587,587,587,587,587,587,587,587,587,587,587,587,587,587,587,587,587,587,587,587,587,587,587,587,587,587,587,587,587,587,587,587,587,587,587,587,587,587,587,587,587,587,587,587,587,587,587,587,587,587,587,587,587,587,587,587,587,587,587,587,587,587,587,587,587,587,587,587,587,587,587,587,587,587,587,587,587,587,587,587,587,587,587,587,587,587,587,587,587,587,587,587,587,587,587,587,587,587,587,587,587,587,587,587,587,587,587,587,587,587,587,587,587,587,587,587,587,587,587,587,587,587,587,587,587,587,587,587,587,587,587,587,587,587,587,587,587,587,587,587,587,587,587,587,587,587,587,587,587,587,587,587,587,587,587,587,587,587,587,587,587,587,587,587,587,587,587,587,587,587,587,587,587,587,587,587,587,587,587,587,587,587,587,587,587,587,587,587,587,587,587,587,587,587,587,587,587,587,587,587,587,587,587,587,587,587,587,587,587,587,587,587,587,587,587,587,587,587,587,587,587,587,587,587,587,587,587,587,587,587,587,579,569,560,552,552,536,523,505,486,449,432,400,370,335,251,213,166,117,67,5,0,0,0,0,0,0,4,11,21,48,64,70,73,74,76,76,76,76,76,76,76,76,76,76,76,76,76,76,76,76,76,76,76,76],"timestamp_mouse":[11,27,46,66,86,107,126,147,166,186,207,227,246,266,287,307,327,346,368,387,407,426,447,467,486,507,526,546,566,586,607,626,647,667,687,706,726,747,766,787,807,826,846,866,886,907,926,946,967,987,1008,1027,1048,1066,1087,1106,1126,1146,1166,1186,1206,1226,1246,1267,1287,1307,1326,1347,1367,1386,1406,1426,1446,1466,1487,1506,1527,1546,1566,1587,1606,1626,1646,1666,1687,1706,1727,1746,1767,1786,1806,1826,1847,1866,1886,1907,1926,1946,1968,1987,2006,2027,2046,2066,2087,2107,2127,2146,2168,2186,2206,2226,2247,2266,2286,2306,2328,2347,2367,2386,2408,2426,2447,2468,2488,2507,2526,2546,2566,2586,2606,2627,2646,2667,2687,2707,2728,2746,2767,2786,2806,2827,2847,2866,2886,2906,2926,2948,2967,2987,3006,3027,3046,3067,3087,3107,3127,3146,3166,3186,3206,3227,3247,3267,3287,3307,3327,3347,3367,3386,3407,3426,3446,3466,3487,3507,3526,3547,3567,3587,3607,3626,3646,3667,3687,3707,3727,3747,3768,3787,3807,3827,3847,3866,3887,3907,3927,3946,3968,3987,4006,4027,4047,4067,4086,4107,4127,4146,4166,4188,4207,4227,4246,4267,4286,4307,4326,4347,4367,4387,4406,4427,4446,4466,4486,4507,4526,4547,4566,4587,4608,4627,4646,4666,4687,4707,4726,4747,4768,4786,4807,4827,4846,4866,4886,4906,4927,4946,4968,4986,5007,5027,5046,5066,5087,5106,5126,5147,5167,5187,5207,5227,5246,5266,5287,5307,5327,5346,5366,5386,5406,5427,5446,5467,5487,5507,5526,5547,5566,5588,5607,5626,5647,5666,5686,5707,5726,5747,5767,5787,5807,5826,5846,5867,5887,5907,5926,5947,5967,5988,6007,6027,6047,6067,6087,6107,6126,6147,6166,6187,6207,6226,6247,6266,6287,6307,6327,6347,6366,6386,6407,6426,6446,6467,6487,6506,6526,6547,6567,6587,6607,6626,6647,6666,6687,6707,6726,6747,6766,6786,6808,6826,6846,6866,6887,6907,6927,6947,6966,6987,7006,7026,7047,7067,7087,7107,7126,7146,7167,7186,7207,7227,7247,7267,7286,7307,7326,7346,7367,7387,7407,7426,7446,7467,7486,7507,7526,7547,7566,7588,7607,7627,7647,7667,7687,7707,7726,7746,7767,7787,7807,7827,7846,7867,7887,7907,7927,7946,7967,7986,8007,8026,8046,8067,8087,8107,8127,8147,8166,8186,8207,8226,8247,8267,8287,8307,8326,8346,8366,8386,8407,8427,8447,8466,8486,8507,8526,8547,8567,8587,8608,8626,8647,8666,8686,8707,8726,8747,8766,8787,8807,8827,8846,8866,8888,8907,8927,8947,8967,8986,9008,9026,9046,9066,9086,9106,9127,9147,9167,9186,9207,9227,9246,9267,9287,9307,9326,9347,9367,9387,9407,9427,9447,9467,9486,9506,9527,9547,9567,9587,9607,9626,9648,9667,9687,9707,9727,9747,9767,9787,9807,9827,9846,9867,9887,9907,9927,9946,9966,9986,10007,10026,10047,10068,10087,10107,10127,10147,10167,10187,10208,10226,10247,10266,10287,10307,10327,10347,10367,10387,10406,10426,10446,10466,10486,10506,10526,10546,10567,10586,10607,10626,10647,10667,10687,10707,10726,10746,10767,10787,10807,10826,10846,10867,10886,10907,10926,10946,10967,10986,11007,11027,11047,11067,11086,11108,11126,11146,11167,11187,11207,11227,11247,11266,11287,11306,11326,11347,11367,11386,11407,11426,11447,11466,11487,11507,11527,11546,11566,11587,11606,11627,11646,11667,11686,11708,11726,11746,11767,11786,11807,11827,11847,11867,11886,11907,11926,11947,11966,11988,12007,12027,12047,12066,12086,12107,12126,12147,12166,12186,12207,12227,12246,12267,12288,12306,12327,12347,12367,12386,12407,12426,12447,12466,12487,12508,12526,12547,12567,12587,12607,12626,12647,12666,12687,12706,12726,12746,12767,12787,12807,12826,12846,12867,12886,12907,12926,12947,12967,12986,13007,13026,13046,13067,13086,13107,13127,13147,13168,13186,13207,13226,13246,13267,13287,13306,13327,13347,13367,13386,13407,13427,13446,13466,13486,13507,13526,13546,13566,13586,13607,13626,13646,13666,13686,13708,13727,13747,13767,13786,13807,13826,13846,13867,13886,13907,13926,13947,13967,13987,14007,14026,14047,14066,14087,14106,14127,14147,14167,14186,14207,14227,14246,14266,14287,14306,14326,14347,14366,14386,14407,14426,14446,14467,14487,14506,14527,14547,14567,14587,14607,14626,14647,14667,14686,14706,14727,14747,14766,14786,14806,14826,14846,14866,14886,14906,14927,14947,14967,14988,15007,15026,15046,15067,15086,15107,15126,15147,15166,15187,15207,15226,15246,15267,15287,15307,15326,15347,15367,15387,15406,15426,15447,15468,15486,15506,15526,15547,15566,15587,15607,15627,15647,15668,15687,15707,15727,15747,15766,15787,15807,15827,15847,15866,15886,15906,15927,15947,15967,15987,16007,16026,16047,16066,16088,16106,16126,16147,16166,16186,16208,16227,16246,16266,16286,16308,16327,16347,16367,16387,16407,16426,16448,16466,16486,16507,16527,16548,16566,16586,16606,16627,16646,16668,16687,16707,16726,16748,16767,16786,16806,16826,16847,16868,16887,16906,16927,16946,16967,16988,17007,17027,17046,17067,17087,17106,17126,17146,17167,17187,17207,17227,17246,17267,17288,17307,17327,17346,17366,17387,17407,17427,17446,17467,17486,17507,17527,17548,17567,17587,17607,17626,17648,17667,17686,17708,17727,17747,17766,17787,17808,17827,17846,17866,17887,17906,17927,17947,17966,17988,18006,18026,18047,18066,18086,18106,18126,18147,18166,18186,18206,18226,18246,18267,18287,18306,18327,18346,18366,18386,18407,18426,18446,18466,18486,18506,18526,18547,18567,18586,18606,18627,18647,18666,18686,18707,18726,18746,18767,18786,18807,18828,18846,18867,18888,18908,18927,18946,18967,18986,19008,19027,19048,19067,19087,19106,19128,19147,19167,19187,19208,19227,19246,19267,19287,19307,19326,19346,19366,19387,19407,19428,19447,19466,19488,19506,19526,19546,19568,19586,19607,19627,19646,19667,19687,19706,19727,19746,19766,19787,19806,19827,19847,19866,19887,19906,19928,19946,19966,19987,20008,20027,20047,20067,20086,20107,20126,20147,20167,20187,20207,20227,20247,20267,20287,20307,20327,20346,20367,20386,20406,20426,20446,20467,20486,20506,20526,20546,20568,20587,20607,20626,20647,20667,20687,20706,20726,20747,20768,20786,20807,20826,20846,20866,20887,20907,20927,20946,20966,20987,21007,21026,21046,21066,21087,21108,21126,21146,21167,21187,21207,21226,21247,21266,21287,21308,21327,21347,21366,21388,21406,21426,21447,21467,21488,21506,21527,21547,21567,21586,21607,21626,21648,21667,21687,21707,21728,21746,21767,21787,21807,21826,21847,21866,21888,21906,21926,21946,21967,21988,22006,22026,22047,22068,22088,22107,22127,22146,22166,22187,22206,22227,22246,22267,22287,22306,22327,22348,22366,22387,22408,22427,22446,22466,22487,22506,22527,22546,22567,22588,22607,22626,22647,22667,22687,22706,22728,22748,22767,22787,22807,22826,22848,22867,22887,22907,22926,22947,22967,22986,23007,23032,23047,23067,23087,23106,23126,23147,23167,23186,23207,23226,23246,23266,23288,23307,23327,23347,23366,23387,23406,23426,23447,23466,23486,23507,23528,23546,23567,23587,23606,23626,23647,23667,23687,23707,23726,23746,23767,23786,23807,23826,23846,23866,23887,23908,23926,23946,23967,23987,24007,24026,24046,24066,24087,24106,24128,24146,24167,24186,24207,24228,24246,24266,24286,24306,24328,24346,24366,24387,24407,24427,24446,24466,24487,24507,24527,24547,24566,24587,24607,24626,24646,24667,24687,24706],"xSR":741.5,"ySR":501.8,"xT1":424.9,"yT1":0,"xT2":1058.1,"yT2":0,"toosoon":0,"cond_shown":"Incongruent","ratio_trial":300,"L_num":4,"L_den":20,"R_num":2,"R_den":4,"correct_side":2,"subjID":"nataliavaldiviesocadena28","gender":"0","age":"9","school":"4","test":{"fix_dur":[250,1500],"timestim":1000,"targets_dim":[100,100],"targets_relative_coord":[0.3,0.7],"size_stim":[880,420],"start_dim":[100,100],"size_start":[300,300],"size_fix":60,"samplingrate":20,"img_types":["Congruent","Incongruent"],"ratios":[100,200,300],"rep_conds":19,"nTrials":120,"trials_to_rest":500,"Trials_order":[65,4,119,11,66,19,87,1,10,55,79,117,118,12,115,82,29,106,46,63,13,67,47,36,105,3,94,16,52,53,30,27,86,62,113,100,91,23,51,59,110,26,50,38,17,114,80,43,56,98,21,95,2,92,32,108,76,90,96,72,73,40,18,25,54,107,93,104,97,28,116,5,42,7,69,88,81,9,0,35,22,6,8,85,57,75,61,70,68,14,111,34,20,84,71,41,109,83,99,101,45,44,39,24,112,64,74,33,58,31,77,37,78,49,89,102,60,48,103,15],"cond_shown":["Incongruent","Congruent","Incongruent","Incongruent","Congruent","Incongruent","Incongruent","Incongruent","Congruent","Incongruent","Incongruent","Incongruent","Congruent","Congruent","Incongruent","Congruent","Incongruent","Congruent","Congruent","Incongruent","Incongruent","Incongruent","Incongruent","Congruent","Incongruent","Incongruent","Congruent","Congruent","Congruent","Incongruent","Congruent","Incongruent","Congruent","Congruent","Incongruent","Congruent","Incongruent","Incongruent","Incongruent","Incongruent","Congruent","Congruent","Congruent","Congruent","Incongruent","Congruent","Congruent","Incongruent","Congruent","Congruent","Incongruent","Incongruent","Congruent","Congruent","Congruent","Congruent","Congruent","Congruent","Congruent","Congruent","Incongruent","Congruent","Congruent","Incongruent","Congruent","Incongruent","Incongruent","Congruent","Incongruent","Congruent","Congruent","Incongruent","Congruent","Incongruent","Incongruent","Congruent","Incongruent","Incongruent","Congruent","Incongruent","Congruent","Congruent","Congruent","Incongruent","Incongruent","Incongruent","Incongruent","Congruent","Congruent","Congruent","Incongruent","Congruent","Congruent","Congruent","Incongruent","Incongruent","Incongruent","Incongruent","Incongruent","Incongruent","Incongruent","Congruent","Incongruent","Congruent","Congruent","Congruent","Congruent","Incongruent","Congruent","Incongruent","Incongruent","Incongruent","Congruent","Incongruent","Incongruent","Congruent","Congruent","Congruent","Incongruent","Incongruent"],"ratio_trial":[300,300,300,300,100,100,200,100,300,100,100,200,300,100,100,300,300,300,300,200,100,100,300,100,200,200,300,300,300,300,100,200,200,200,300,300,100,300,200,300,200,200,200,200,300,100,200,100,200,200,200,300,200,200,200,100,300,100,100,100,100,300,100,100,100,300,200,200,100,300,200,300,100,100,200,300,200,200,100,300,300,100,200,100,200,200,100,300,200,200,200,300,200,100,300,300,100,300,200,300,200,200,200,100,300,300,200,200,300,100,300,100,100,100,300,100,100,100,100,200],"left_num":[4,1,4,4,2,2,7,12,12,13,6,7,20,4,10,11,13,2,7,7,9,10,1,7,3,7,24,24,20,13,10,9,7,1,1,5,9,13,7,8,8,7,7,13,4,9,14,3,6,12,7,1,8,7,4,3,20,2,11,9,2,20,10,10,2,4,9,1,9,11,3,2,15,2,3,20,7,7,2,4,3,3,3,6,7,9,9,3,9,21,14,8,12,8,13,4,3,1,3,8,7,5,4,11,24,4,7,1,7,9,4,12,6,1,13,4,10,10,10,1],"right_num":[2,11,2,2,11,8,6,9,2,12,7,14,9,6,8,1,12,10,20,12,14,8,2,9,11,14,8,8,8,12,3,8,18,21,3,7,14,12,6,14,2,2,18,14,2,8,6,4,3,6,6,3,7,2,3,2,5,6,4,8,8,5,3,9,6,8,8,21,14,2,11,6,13,6,11,13,12,14,11,8,2,2,14,3,4,8,6,11,13,2,6,1,6,2,12,2,11,3,11,14,6,14,6,4,2,13,18,3,20,13,2,2,5,8,12,6,3,3,8,3],"left_den":[20,5,20,20,5,4,15,24,24,26,10,10,25,8,25,22,26,20,14,10,15,25,2,14,4,10,30,30,25,26,25,15,15,2,2,25,15,26,15,10,15,21,15,26,20,15,28,6,15,15,15,2,15,21,8,6,25,5,22,15,4,25,25,25,5,5,15,2,15,22,10,4,25,4,4,25,10,10,5,5,6,6,10,12,15,15,18,12,30,30,30,16,15,16,26,20,5,2,4,10,15,10,5,22,30,20,15,2,14,15,20,30,20,2,26,8,25,25,25,2],"right_den":[4,22,4,4,22,20,9,15,10,20,14,28,18,10,16,5,15,25,25,24,28,16,10,15,20,28,16,16,16,15,10,10,27,30,15,14,28,15,9,28,6,15,27,20,4,16,20,10,15,10,9,15,21,15,10,5,10,12,10,16,20,10,10,18,12,16,10,30,28,10,22,30,26,15,20,26,24,28,22,16,10,5,28,5,6,10,10,20,26,4,9,5,10,5,15,4,22,15,20,28,9,20,10,10,4,26,27,10,25,26,4,4,25,20,15,10,10,10,16,10],"correct_side":[2,2,2,2,2,1,2,2,1,2,1,1,1,2,2,1,2,2,2,1,1,2,1,2,1,1,1,1,1,2,1,2,2,2,1,2,1,2,2,1,1,1,2,2,2,1,1,1,1,1,2,1,1,1,1,1,1,2,1,1,1,1,1,2,2,1,2,2,1,1,2,1,1,1,1,1,1,1,2,1,1,1,2,2,2,2,2,2,2,1,2,1,1,1,2,2,1,1,1,1,2,2,1,1,1,2,2,1,2,1,2,2,1,1,2,2,1,1,2,1],"img_shown":["img2/300/Incongruent/R/I_Dist_300_LN_4_LD_20_RN_2_RD_4_1.png","img2/300/Congruent/R/C_Dist_300_LN_1_LD_5_RN_11_RD_22_1.png","img2/300/Incongruent/R/I_Dist_300_LN_4_LD_20_RN_2_RD_4_1.png","img2/300/Incongruent/R/I_Dist_300_LN_4_LD_20_RN_2_RD_4_1.png","img2/100/Congruent/R/C_Dist_100_LN_2_LD_5_RN_11_RD_22_1.png","img2/100/Incongruent/L/I_Dist_100_LN_2_LD_4_RN_8_RD_20_0.png","img2/200/Incongruent/R/I_Dist_200_LN_7_LD_15_RN_6_RD_9_1.png","img2/100/Incongruent/R/I_Dist_100_LN_12_LD_24_RN_9_RD_15_1.png","img2/300/Congruent/L/C_Dist_300_LN_12_LD_24_RN_2_RD_10_0.png","img2/100/Incongruent/R/I_Dist_100_LN_13_LD_26_RN_12_RD_20_1.png","img2/100/Incongruent/L/I_Dist_100_LN_6_LD_10_RN_7_RD_14_0.png","img2/200/Incongruent/L/I_Dist_200_LN_7_LD_10_RN_14_RD_28_0.png","img2/300/Congruent/L/C_Dist_300_LN_20_LD_25_RN_9_RD_18_0.png","img2/100/Congruent/R/C_Dist_100_LN_4_LD_8_RN_6_RD_10_1.png","img2/100/Incongruent/R/I_Dist_100_LN_10_LD_25_RN_8_RD_16_1.png","img2/300/Congruent/L/C_Dist_300_LN_11_LD_22_RN_1_RD_5_0.png","img2/300/Incongruent/R/I_Dist_300_LN_13_LD_26_RN_12_RD_15_1.png","img2/300/Congruent/R/C_Dist_300_LN_2_LD_20_RN_10_RD_25_1.png","img2/300/Congruent/R/C_Dist_300_LN_7_LD_14_RN_20_RD_25_1.png","img2/200/Incongruent/L/I_Dist_200_LN_7_LD_10_RN_12_RD_24_0.png","img2/100/Incongruent/L/I_Dist_100_LN_9_LD_15_RN_14_RD_28_0.png","img2/100/Incongruent/R/I_Dist_100_LN_10_LD_25_RN_8_RD_16_1.png","img2/300/Incongruent/L/I_Dist_300_LN_1_LD_2_RN_2_RD_10_0.png","img2/100/Congruent/R/C_Dist_100_LN_7_LD_14_RN_9_RD_15_1.png","img2/200/Incongruent/L/I_Dist_200_LN_3_LD_4_RN_11_RD_20_0.png","img2/200/Incongruent/L/I_Dist_200_LN_7_LD_10_RN_14_RD_28_0.png","img2/300/Congruent/L/C_Dist_300_LN_24_LD_30_RN_8_RD_16_0.png","img2/300/Congruent/L/C_Dist_300_LN_24_LD_30_RN_8_RD_16_0.png","img2/300/Congruent/L/C_Dist_300_LN_20_LD_25_RN_8_RD_16_0.png","img2/300/Incongruent/R/I_Dist_300_LN_13_LD_26_RN_12_RD_15_1.png","img2/100/Congruent/L/C_Dist_100_LN_10_LD_25_RN_3_RD_10_0.png","img2/200/Incongruent/R/I_Dist_200_LN_9_LD_15_RN_8_RD_10_1.png","img2/200/Congruent/R/C_Dist_200_LN_7_LD_15_RN_18_RD_27_1.png","img2/200/Congruent/R/C_Dist_200_LN_1_LD_2_RN_21_RD_30_1.png","img2/300/Incongruent/L/I_Dist_300_LN_1_LD_2_RN_3_RD_15_0.png","img2/300/Congruent/R/C_Dist_300_LN_5_LD_25_RN_7_RD_14_1.png","img2/100/Incongruent/L/I_Dist_100_LN_9_LD_15_RN_14_RD_28_0.png","img2/300/Incongruent/R/I_Dist_300_LN_13_LD_26_RN_12_RD_15_1.png","img2/200/Incongruent/R/I_Dist_200_LN_7_LD_15_RN_6_RD_9_1.png","img2/300/Incongruent/L/I_Dist_300_LN_8_LD_10_RN_14_RD_28_0.png","img2/200/Congruent/L/C_Dist_200_LN_8_LD_15_RN_2_RD_6_0.png","img2/200/Congruent/L/C_Dist_200_LN_7_LD_21_RN_2_RD_15_0.png","img2/200/Congruent/R/C_Dist_200_LN_7_LD_15_RN_18_RD_27_1.png","img2/200/Congruent/R/C_Dist_200_LN_13_LD_26_RN_14_RD_20_1.png","img2/300/Incongruent/R/I_Dist_300_LN_4_LD_20_RN_2_RD_4_1.png","img2/100/Congruent/L/C_Dist_100_LN_9_LD_15_RN_8_RD_16_0.png","img2/200/Congruent/L/C_Dist_200_LN_14_LD_28_RN_6_RD_20_0.png","img2/100/Incongruent/L/I_Dist_100_LN_3_LD_6_RN_4_RD_10_0.png","img2/200/Congruent/L/C_Dist_200_LN_6_LD_15_RN_3_RD_15_0.png","img2/200/Congruent/L/C_Dist_200_LN_12_LD_15_RN_6_RD_10_0.png","img2/200/Incongruent/R/I_Dist_200_LN_7_LD_15_RN_6_RD_9_1.png","img2/300/Incongruent/L/I_Dist_300_LN_1_LD_2_RN_3_RD_15_0.png","img2/200/Congruent/L/C_Dist_200_LN_8_LD_15_RN_7_RD_21_0.png","img2/200/Congruent/L/C_Dist_200_LN_7_LD_21_RN_2_RD_15_0.png","img2/200/Congruent/L/C_Dist_200_LN_4_LD_8_RN_3_RD_10_0.png","img2/100/Congruent/L/C_Dist_100_LN_3_LD_6_RN_2_RD_5_0.png","img2/300/Congruent/L/C_Dist_300_LN_20_LD_25_RN_5_RD_10_0.png","img2/100/Congruent/R/C_Dist_100_LN_2_LD_5_RN_6_RD_12_1.png","img2/100/Congruent/L/C_Dist_100_LN_11_LD_22_RN_4_RD_10_0.png","img2/100/Congruent/L/C_Dist_100_LN_9_LD_15_RN_8_RD_16_0.png","img2/100/Incongruent/L/I_Dist_100_LN_2_LD_4_RN_8_RD_20_0.png","img2/300/Congruent/L/C_Dist_300_LN_20_LD_25_RN_5_RD_10_0.png","img2/100/Congruent/L/C_Dist_100_LN_10_LD_25_RN_3_RD_10_0.png","img2/100/Incongruent/R/I_Dist_100_LN_10_LD_25_RN_9_RD_18_1.png","img2/100/Congruent/R/C_Dist_100_LN_2_LD_5_RN_6_RD_12_1.png","img2/300/Incongruent/L/I_Dist_300_LN_4_LD_5_RN_8_RD_16_0.png","img2/200/Incongruent/R/I_Dist_200_LN_9_LD_15_RN_8_RD_10_1.png","img2/200/Congruent/R/C_Dist_200_LN_1_LD_2_RN_21_RD_30_1.png","img2/100/Incongruent/L/I_Dist_100_LN_9_LD_15_RN_14_RD_28_0.png","img2/300/Congruent/L/C_Dist_300_LN_11_LD_22_RN_2_RD_10_0.png","img2/200/Congruent/R/C_Dist_200_LN_3_LD_10_RN_11_RD_22_1.png","img2/300/Incongruent/L/I_Dist_300_LN_2_LD_4_RN_6_RD_30_0.png","img2/100/Congruent/L/C_Dist_100_LN_15_LD_25_RN_13_RD_26_0.png","img2/100/Incongruent/L/I_Dist_100_LN_2_LD_4_RN_6_RD_15_0.png","img2/200/Incongruent/L/I_Dist_200_LN_3_LD_4_RN_11_RD_20_0.png","img2/300/Congruent/L/C_Dist_300_LN_20_LD_25_RN_13_RD_26_0.png","img2/200/Incongruent/L/I_Dist_200_LN_7_LD_10_RN_12_RD_24_0.png","img2/200/Incongruent/L/I_Dist_200_LN_7_LD_10_RN_14_RD_28_0.png","img2/100/Congruent/R/C_Dist_100_LN_2_LD_5_RN_11_RD_22_1.png","img2/300/Incongruent/L/I_Dist_300_LN_4_LD_5_RN_8_RD_16_0.png","img2/300/Congruent/L/C_Dist_300_LN_3_LD_6_RN_2_RD_10_0.png","img2/100/Congruent/L/C_Dist_100_LN_3_LD_6_RN_2_RD_5_0.png","img2/200/Congruent/R/C_Dist_200_LN_3_LD_10_RN_14_RD_28_1.png","img2/100/Incongruent/R/I_Dist_100_LN_6_LD_12_RN_3_RD_5_1.png","img2/200/Incongruent/R/I_Dist_200_LN_7_LD_15_RN_4_RD_6_1.png","img2/200/Incongruent/R/I_Dist_200_LN_9_LD_15_RN_8_RD_10_1.png","img2/100/Incongruent/R/I_Dist_100_LN_9_LD_18_RN_6_RD_10_1.png","img2/300/Congruent/R/C_Dist_300_LN_3_LD_12_RN_11_RD_20_1.png","img2/200/Congruent/R/C_Dist_200_LN_9_LD_30_RN_13_RD_26_1.png","img2/200/Congruent/L/C_Dist_200_LN_21_LD_30_RN_2_RD_4_0.png","img2/200/Incongruent/R/I_Dist_200_LN_14_LD_30_RN_6_RD_9_1.png","img2/300/Congruent/L/C_Dist_300_LN_8_LD_16_RN_1_RD_5_0.png","img2/200/Congruent/L/C_Dist_200_LN_12_LD_15_RN_6_RD_10_0.png","img2/100/Congruent/L/C_Dist_100_LN_8_LD_16_RN_2_RD_5_0.png","img2/300/Incongruent/R/I_Dist_300_LN_13_LD_26_RN_12_RD_15_1.png","img2/300/Incongruent/R/I_Dist_300_LN_4_LD_20_RN_2_RD_4_1.png","img2/100/Incongruent/L/I_Dist_100_LN_3_LD_5_RN_11_RD_22_0.png","img2/300/Incongruent/L/I_Dist_300_LN_1_LD_2_RN_3_RD_15_0.png","img2/200/Incongruent/L/I_Dist_200_LN_3_LD_4_RN_11_RD_20_0.png","img2/300/Incongruent/L/I_Dist_300_LN_8_LD_10_RN_14_RD_28_0.png","img2/200/Incongruent/R/I_Dist_200_LN_7_LD_15_RN_6_RD_9_1.png","img2/200/Congruent/R/C_Dist_200_LN_5_LD_10_RN_14_RD_20_1.png","img2/200/Incongruent/L/I_Dist_200_LN_4_LD_5_RN_6_RD_10_0.png","img2/100/Congruent/L/C_Dist_100_LN_11_LD_22_RN_4_RD_10_0.png","img2/300/Congruent/L/C_Dist_300_LN_24_LD_30_RN_2_RD_4_0.png","img2/300/Congruent/R/C_Dist_300_LN_4_LD_20_RN_13_RD_26_1.png","img2/200/Congruent/R/C_Dist_200_LN_7_LD_15_RN_18_RD_27_1.png","img2/200/Incongruent/L/I_Dist_200_LN_1_LD_2_RN_3_RD_10_0.png","img2/300/Congruent/R/C_Dist_300_LN_7_LD_14_RN_20_RD_25_1.png","img2/100/Incongruent/L/I_Dist_100_LN_9_LD_15_RN_13_RD_26_0.png","img2/300/Incongruent/R/I_Dist_300_LN_4_LD_20_RN_2_RD_4_1.png","img2/100/Incongruent/R/I_Dist_100_LN_12_LD_30_RN_2_RD_4_1.png","img2/100/Congruent/L/C_Dist_100_LN_6_LD_20_RN_5_RD_25_0.png","img2/100/Incongruent/L/I_Dist_100_LN_1_LD_2_RN_8_RD_20_0.png","img2/300/Incongruent/R/I_Dist_300_LN_13_LD_26_RN_12_RD_15_1.png","img2/100/Congruent/R/C_Dist_100_LN_4_LD_8_RN_6_RD_10_1.png","img2/100/Congruent/L/C_Dist_100_LN_10_LD_25_RN_3_RD_10_0.png","img2/100/Congruent/L/C_Dist_100_LN_10_LD_25_RN_3_RD_10_0.png","img2/100/Incongruent/R/I_Dist_100_LN_10_LD_25_RN_8_RD_16_1.png","img2/200/Incongruent/L/I_Dist_200_LN_1_LD_2_RN_3_RD_10_0.png"],"dist100_C":[["C_Dist_100_LN_10_LD_25_RN_3_RD_10_0.png","C_Dist_100_LN_11_LD_22_RN_4_RD_10_0.png","C_Dist_100_LN_11_LD_22_RN_6_RD_15_0.png","C_Dist_100_LN_15_LD_25_RN_13_RD_26_0.png","C_Dist_100_LN_3_LD_6_RN_2_RD_5_0.png","C_Dist_100_LN_6_LD_20_RN_5_RD_25_0.png","C_Dist_100_LN_8_LD_16_RN_2_RD_5_0.png","C_Dist_100_LN_9_LD_15_RN_8_RD_16_0.png"],["C_Dist_100_LN_1_LD_2_RN_18_RD_30_1.png","C_Dist_100_LN_1_LD_2_RN_3_RD_5_1.png","C_Dist_100_LN_12_LD_30_RN_13_RD_26_1.png","C_Dist_100_LN_2_LD_5_RN_11_RD_22_1.png","C_Dist_100_LN_2_LD_5_RN_6_RD_12_1.png","C_Dist_100_LN_3_LD_20_RN_4_RD_16_1.png","C_Dist_100_LN_4_LD_10_RN_15_RD_30_1.png","C_Dist_100_LN_4_LD_8_RN_6_RD_10_1.png","C_Dist_100_LN_6_LD_12_RN_15_RD_25_1.png","C_Dist_100_LN_7_LD_14_RN_15_RD_25_1.png","C_Dist_100_LN_7_LD_14_RN_9_RD_15_1.png"]],"dist100_I":[["I_Dist_100_LN_1_LD_2_RN_8_RD_20_0.png","I_Dist_100_LN_2_LD_4_RN_6_RD_15_0.png","I_Dist_100_LN_2_LD_4_RN_8_RD_20_0.png","I_Dist_100_LN_3_LD_5_RN_11_RD_22_0.png","I_Dist_100_LN_3_LD_5_RN_8_RD_16_0.png","I_Dist_100_LN_3_LD_6_RN_4_RD_10_0.png","I_Dist_100_LN_3_LD_9_RN_7_RD_30_0.png","I_Dist_100_LN_4_LD_8_RN_8_RD_20_0.png","I_Dist_100_LN_6_LD_10_RN_11_RD_22_0.png","I_Dist_100_LN_6_LD_10_RN_13_RD_26_0.png","I_Dist_100_LN_6_LD_10_RN_7_RD_14_0.png","I_Dist_100_LN_9_LD_10_RN_20_RD_25_0.png","I_Dist_100_LN_9_LD_15_RN_13_RD_26_0.png","I_Dist_100_LN_9_LD_15_RN_14_RD_28_0.png"],["I_Dist_100_LN_10_LD_25_RN_8_RD_16_1.png","I_Dist_100_LN_10_LD_25_RN_9_RD_18_1.png","I_Dist_100_LN_11_LD_22_RN_9_RD_15_1.png","I_Dist_100_LN_12_LD_24_RN_9_RD_15_1.png","I_Dist_100_LN_12_LD_30_RN_2_RD_4_1.png","I_Dist_100_LN_13_LD_26_RN_12_RD_20_1.png","I_Dist_100_LN_13_LD_26_RN_6_RD_10_1.png","I_Dist_100_LN_17_LD_30_RN_10_RD_15_1.png","I_Dist_100_LN_6_LD_12_RN_3_RD_5_1.png","I_Dist_100_LN_8_LD_16_RN_6_RD_10_1.png","I_Dist_100_LN_8_LD_20_RN_1_RD_2_1.png","I_Dist_100_LN_9_LD_18_RN_6_RD_10_1.png"]],"dist100_S":[["E_Dist_100_LN_2_LD_12_RN_2_RD_30_0.png","E_Dist_100_LN_6_LD_10_RN_6_RD_12_0.png"],["E_Dist_100_LN_6_LD_12_RN_6_RD_10_1.png"]],"dist200_C":[["C_Dist_200_LN_11_LD_22_RN_3_RD_10_0.png","C_Dist_200_LN_12_LD_15_RN_6_RD_10_0.png","C_Dist_200_LN_12_LD_20_RN_6_RD_15_0.png","C_Dist_200_LN_14_LD_28_RN_6_RD_20_0.png","C_Dist_200_LN_15_LD_25_RN_4_RD_10_0.png","C_Dist_200_LN_16_LD_20_RN_12_RD_20_0.png","C_Dist_200_LN_16_LD_30_RN_9_RD_27_0.png","C_Dist_200_LN_20_LD_25_RN_9_RD_15_0.png","C_Dist_200_LN_21_LD_30_RN_2_RD_4_0.png","C_Dist_200_LN_4_LD_10_RN_3_RD_15_0.png","C_Dist_200_LN_4_LD_8_RN_3_RD_10_0.png","C_Dist_200_LN_6_LD_15_RN_3_RD_15_0.png","C_Dist_200_LN_7_LD_21_RN_2_RD_15_0.png","C_Dist_200_LN_8_LD_15_RN_2_RD_6_0.png","C_Dist_200_LN_8_LD_15_RN_3_RD_9_0.png","C_Dist_200_LN_8_LD_15_RN_7_RD_21_0.png","C_Dist_200_LN_9_LD_20_RN_4_RD_16_0.png"],["C_Dist_200_LN_1_LD_2_RN_21_RD_30_1.png","C_Dist_200_LN_13_LD_26_RN_14_RD_20_1.png","C_Dist_200_LN_3_LD_10_RN_11_RD_22_1.png","C_Dist_200_LN_3_LD_10_RN_14_RD_28_1.png","C_Dist_200_LN_3_LD_10_RN_7_RD_14_1.png","C_Dist_200_LN_3_LD_12_RN_9_RD_20_1.png","C_Dist_200_LN_3_LD_6_RN_14_RD_20_1.png","C_Dist_200_LN_5_LD_10_RN_14_RD_20_1.png","C_Dist_200_LN_6_LD_12_RN_7_RD_10_1.png","C_Dist_200_LN_6_LD_20_RN_11_RD_22_1.png","C_Dist_200_LN_7_LD_15_RN_18_RD_27_1.png","C_Dist_200_LN_9_LD_30_RN_13_RD_26_1.png"]],"dist200_I":[["I_Dist_200_LN_1_LD_2_RN_3_RD_10_0.png","I_Dist_200_LN_1_LD_3_RN_2_RD_15_0.png","I_Dist_200_LN_3_LD_4_RN_11_RD_20_0.png","I_Dist_200_LN_4_LD_5_RN_6_RD_10_0.png","I_Dist_200_LN_4_LD_6_RN_14_RD_30_0.png","I_Dist_200_LN_7_LD_10_RN_12_RD_24_0.png","I_Dist_200_LN_7_LD_10_RN_14_RD_28_0.png","I_Dist_200_LN_7_LD_10_RN_8_RD_16_0.png"],["I_Dist_200_LN_11_LD_20_RN_3_RD_4_1.png","I_Dist_200_LN_14_LD_30_RN_12_RD_18_1.png","I_Dist_200_LN_14_LD_30_RN_6_RD_9_1.png","I_Dist_200_LN_3_LD_10_RN_1_RD_2_1.png","I_Dist_200_LN_4_LD_30_RN_1_RD_3_1.png","I_Dist_200_LN_6_LD_20_RN_3_RD_6_1.png","I_Dist_200_LN_7_LD_15_RN_4_RD_6_1.png","I_Dist_200_LN_7_LD_15_RN_6_RD_9_1.png","I_Dist_200_LN_9_LD_15_RN_8_RD_10_1.png"]],"dist200_S":[["E_Dist_200_LN_3_LD_6_RN_3_RD_10_0.png"],["E_Dist_200_LN_3_LD_10_RN_3_RD_6_1.png"]],"dist300_C":[["C_Dist_300_LN_11_LD_22_RN_1_RD_5_0.png","C_Dist_300_LN_11_LD_22_RN_2_RD_10_0.png","C_Dist_300_LN_11_LD_22_RN_4_RD_20_0.png","C_Dist_300_LN_12_LD_24_RN_2_RD_10_0.png","C_Dist_300_LN_18_LD_20_RN_9_RD_15_0.png","C_Dist_300_LN_20_LD_25_RN_13_RD_26_0.png","C_Dist_300_LN_20_LD_25_RN_14_RD_28_0.png","C_Dist_300_LN_20_LD_25_RN_5_RD_10_0.png","C_Dist_300_LN_20_LD_25_RN_8_RD_16_0.png","C_Dist_300_LN_20_LD_25_RN_9_RD_18_0.png","C_Dist_300_LN_24_LD_30_RN_2_RD_4_0.png","C_Dist_300_LN_24_LD_30_RN_8_RD_16_0.png","C_Dist_300_LN_3_LD_6_RN_2_RD_10_0.png","C_Dist_300_LN_4_LD_10_RN_1_RD_10_0.png","C_Dist_300_LN_4_LD_5_RN_2_RD_4_0.png","C_Dist_300_LN_8_LD_16_RN_1_RD_5_0.png","C_Dist_300_LN_9_LD_10_RN_3_RD_5_0.png"],["C_Dist_300_LN_1_LD_20_RN_7_RD_20_1.png","C_Dist_300_LN_1_LD_3_RN_19_RD_30_1.png","C_Dist_300_LN_1_LD_30_RN_8_RD_24_1.png","C_Dist_300_LN_1_LD_5_RN_11_RD_22_1.png","C_Dist_300_LN_1_LD_5_RN_3_RD_6_1.png","C_Dist_300_LN_1_LD_5_RN_6_RD_12_1.png","C_Dist_300_LN_2_LD_10_RN_12_RD_24_1.png","C_Dist_300_LN_2_LD_20_RN_10_RD_25_1.png","C_Dist_300_LN_3_LD_12_RN_11_RD_20_1.png","C_Dist_300_LN_3_LD_6_RN_4_RD_5_1.png","C_Dist_300_LN_4_LD_20_RN_13_RD_26_1.png","C_Dist_300_LN_5_LD_25_RN_6_RD_12_1.png","C_Dist_300_LN_5_LD_25_RN_7_RD_14_1.png","C_Dist_300_LN_7_LD_14_RN_20_RD_25_1.png","C_Dist_300_LN_8_LD_15_RN_10_RD_12_1.png"]],"dist300_I":[["I_Dist_300_LN_1_LD_2_RN_2_RD_10_0.png","I_Dist_300_LN_1_LD_2_RN_3_RD_15_0.png","I_Dist_300_LN_2_LD_4_RN_6_RD_30_0.png","I_Dist_300_LN_3_LD_6_RN_4_RD_20_0.png","I_Dist_300_LN_4_LD_5_RN_6_RD_12_0.png","I_Dist_300_LN_4_LD_5_RN_8_RD_16_0.png","I_Dist_300_LN_7_LD_10_RN_8_RD_20_0.png","I_Dist_300_LN_8_LD_10_RN_14_RD_28_0.png","I_Dist_300_LN_8_LD_10_RN_9_RD_18_0.png"],["I_Dist_300_LN_13_LD_26_RN_12_RD_15_1.png","I_Dist_300_LN_4_LD_20_RN_2_RD_4_1.png"]],"dist300_S":[["E_Dist_300_LN_9_LD_12_RN_9_RD_20_0.png"],["E_Dist_300_LN_18_LD_30_RN_18_RD_20_1.png","E_Dist_300_LN_3_LD_10_RN_3_RD_5_1.png","E_Dist_300_LN_9_LD_20_RN_9_RD_12_1.png"]],"dist500_C":[["C_Dist_500_LN_10_LD_13_RN_7_RD_26_0.png","C_Dist_500_LN_10_LD_15_RN_4_RD_24_0.png","C_Dist_500_LN_12_LD_16_RN_3_RD_12_0.png","C_Dist_500_LN_12_LD_18_RN_4_RD_24_0.png","C_Dist_500_LN_15_LD_18_RN_5_RD_15_0.png","C_Dist_500_LN_15_LD_20_RN_1_RD_4_0.png","C_Dist_500_LN_18_LD_27_RN_1_RD_6_0.png","C_Dist_500_LN_20_LD_24_RN_1_RD_3_0.png","C_Dist_500_LN_20_LD_24_RN_3_RD_9_0.png","C_Dist_500_LN_20_LD_24_RN_7_RD_21_0.png","C_Dist_500_LN_20_LD_28_RN_3_RD_14_0.png","C_Dist_500_LN_21_LD_28_RN_6_RD_24_0.png","C_Dist_500_LN_22_LD_28_RN_2_RD_7_0.png","C_Dist_500_LN_25_LD_30_RN_9_RD_27_0.png","C_Dist_500_LN_4_LD_6_RN_1_RD_6_0.png","C_Dist_500_LN_5_LD_6_RN_2_RD_6_0.png","C_Dist_500_LN_6_LD_9_RN_1_RD_6_0.png","C_Dist_500_LN_7_LD_10_RN_1_RD_5_0.png","C_Dist_500_LN_8_LD_12_RN_1_RD_6_0.png","C_Dist_500_LN_8_LD_12_RN_4_RD_24_0.png"],["C_Dist_500_LN_1_LD_4_RN_12_RD_16_1.png","C_Dist_500_LN_1_LD_4_RN_9_RD_12_1.png","C_Dist_500_LN_1_LD_9_RN_11_RD_18_1.png","C_Dist_500_LN_10_LD_24_RN_22_RD_24_1.png","C_Dist_500_LN_2_LD_12_RN_10_RD_15_1.png","C_Dist_500_LN_2_LD_12_RN_12_RD_18_1.png","C_Dist_500_LN_2_LD_12_RN_4_RD_6_1.png","C_Dist_500_LN_2_LD_24_RN_7_RD_12_1.png","C_Dist_500_LN_2_LD_5_RN_18_RD_20_1.png","C_Dist_500_LN_2_LD_5_RN_9_RD_10_1.png","C_Dist_500_LN_2_LD_8_RN_12_RD_16_1.png","C_Dist_500_LN_2_LD_8_RN_21_RD_28_1.png","C_Dist_500_LN_3_LD_10_RN_4_RD_5_1.png","C_Dist_500_LN_3_LD_12_RN_15_RD_20_1.png","C_Dist_500_LN_3_LD_30_RN_6_RD_10_1.png","C_Dist_500_LN_3_LD_8_RN_14_RD_16_1.png","C_Dist_500_LN_4_LD_16_RN_15_RD_20_1.png","C_Dist_500_LN_4_LD_24_RN_12_RD_18_1.png","C_Dist_500_LN_5_LD_14_RN_6_RD_7_1.png","C_Dist_500_LN_7_LD_21_RN_20_RD_24_1.png","C_Dist_500_LN_7_LD_28_RN_12_RD_16_1.png","C_Dist_500_LN_7_LD_28_RN_9_RD_12_1.png","C_Dist_500_LN_9_LD_27_RN_20_RD_24_1.png"]],"dist500_I":[["I_Dist_500_LN_2_LD_3_RN_4_RD_24_0.png","I_Dist_500_LN_5_LD_6_RN_6_RD_18_0.png","I_Dist_500_LN_7_LD_8_RN_9_RD_24_0.png"],["I_Dist_500_LN_7_LD_21_RN_5_RD_6_1.png"]],"dist500_S":[["E_Dist_500_LN_6_LD_8_RN_6_RD_24_0.png"],["E_Dist_500_LN_2_LD_12_RN_2_RD_3_1.png","E_Dist_500_LN_6_LD_24_RN_6_RD_8_1.png"]]}},{"start_time":1552069091499,"click_time":1552069106724,"finger_time":1552069091964,"fix_duration":694.3765846131599,"trial":1,"RT":465,"MT":14760,"sideResp":1,"stimulus":[],"xmouse":[798,798,798,798,798,798,798,799,799,800,800,800,800,800,801,801,802,804,806,807,809,811,811,812,813,815,819,827,837,846,857,872,877,882,886,888,890,891,891,891,891,891,891,891,891,891,891,891,891,891,891,891,891,891,891,891,891,891,891,891,891,894,898,902,907,912,920,921,922,924,924,924,924,924,924,924,924,924,924,924,924,924,924,924,924,924,924,924,924,924,924,921,917,914,914,914,913,913,913,913,913,914,914,914,914,914,914,914,914,914,914,914,914,914,914,914,914,914,913,905,895,879,877,876,876,876,876,876,876,876,876,876,876,876,876,876,875,875,875,875,875,875,875,875,875,875,875,875,875,875,875,875,875,875,875,875,875,875,875,875,875,875,875,875,875,875,875,875,875,875,875,875,875,875,875,875,875,875,875,875,875,875,875,875,875,875,875,875,875,875,875,875,875,875,875,875,875,875,875,875,875,875,875,875,875,875,875,875,875,875,875,875,875,875,875,875,875,875,875,875,875,875,875,875,875,875,875,875,875,875,875,875,875,875,875,875,875,875,875,875,875,875,875,875,875,875,875,875,875,875,875,875,875,875,875,875,875,875,875,875,875,875,875,875,875,875,875,875,875,875,875,875,875,875,875,875,875,875,875,875,875,875,875,875,875,875,875,875,875,875,875,875,875,875,875,875,875,875,875,875,875,875,875,875,875,875,875,875,875,875,875,875,875,875,875,875,875,875,875,875,875,875,875,875,875,875,875,875,875,875,875,875,875,875,875,875,875,875,875,875,875,875,875,875,875,875,875,875,875,875,875,875,875,875,875,875,875,875,875,875,875,875,875,875,875,875,875,875,875,875,875,875,875,875,875,875,875,875,875,875,875,875,875,875,875,875,875,875,875,875,875,875,875,875,875,875,875,868,827,793,778,760,748,735,726,719,709,704,703,703,703,703,703,710,719,731,757,769,775,780,784,788,794,796,797,798,798,798,798,798,798,798,798,798,798,798,797,796,796,796,796,795,795,795,793,793,793,793,793,792,792,791,790,789,787,784,781,781,781,781,781,781,781,781,781,781,781,781,781,781,781,781,781,781,781,781,781,781,781,781,781,781,781,781,781,781,781,781,781,781,781,781,781,781,781,781,781,781,781,781,781,781,781,781,781,781,781,781,781,781,781,781,781,781,781,781,781,781,781,781,781,781,781,781,781,781,781,781,781,781,781,781,781,781,781,780,779,779,779,779,778,776,776,775,775,775,775,775,775,775,775,776,776,775,774,774,774,774,774,774,774,774,774,774,774,774,774,774,774,774,774,774,774,774,774,774,774,774,774,774,774,774,774,774,774,774,774,774,774,774,774,774,774,774,774,774,774,774,774,774,774,774,774,774,774,774,774,774,774,774,774,774,774,774,774,774,774,774,774,774,774,774,774,774,774,774,774,774,774,774,774,774,774,774,774,774,774,774,774,774,774,774,774,774,774,774,774,774,774,774,774,774,774,774,774,774,774,774,774,774,774,774,774,774,774,774,774,774,774,774,774,774,774,774,774,774,774,774,774,774,774,774,774,774,774,774,774,774,774,774,774,774,774,774,774,774,774,774,774,774,774,774,774,774,774,774,774,774,774,774,774,774,774,774,774,774,774,774,774,774,774,774,774,774,774,774,772,772,772,772,785,793,793,774,743,714,668,647,628,622,622,622,622,617,610,602,587,585,582,577,571,557,550,548,545,542,534,530,529,527,526,524],"ymouse":[628,628,628,628,628,627,627,625,624,622,621,618,617,616,613,611,606,599,593,588,583,576,574,572,571,569,565,557,545,534,520,493,480,468,457,447,434,425,425,425,425,425,425,425,425,425,425,425,425,425,425,425,425,425,425,425,425,425,425,425,423,417,412,405,397,387,363,353,345,339,336,333,333,332,331,331,331,331,331,331,331,331,331,331,331,331,331,331,331,331,331,331,331,331,331,331,331,332,333,336,340,343,343,343,343,343,343,343,343,343,343,343,343,343,343,343,343,343,343,333,323,306,306,306,306,306,306,306,306,306,306,306,306,306,306,306,306,306,306,306,306,306,306,306,306,306,306,306,306,306,306,306,306,306,306,306,306,306,306,306,306,306,306,306,306,306,306,306,306,306,306,306,306,306,306,306,306,306,306,306,306,306,306,306,306,306,306,306,306,306,306,306,306,306,306,306,306,306,306,306,306,306,306,306,306,306,306,306,306,306,306,306,306,306,306,306,306,306,306,306,306,306,306,306,306,306,306,306,306,306,306,306,306,306,306,306,306,306,306,306,306,306,306,306,306,306,306,306,306,306,306,306,306,306,306,306,306,306,306,306,306,306,306,306,306,306,306,306,306,306,306,306,306,306,306,306,306,306,306,306,306,306,306,306,306,306,306,306,306,306,306,306,306,306,306,306,306,306,306,306,306,306,306,306,306,306,306,306,306,306,306,306,306,306,306,306,306,306,306,306,306,306,306,306,306,306,306,306,306,306,306,306,306,306,306,306,306,306,306,306,306,306,306,306,306,306,306,306,306,306,306,306,306,306,306,306,306,306,306,306,306,306,306,306,306,306,306,306,306,306,306,306,306,306,306,306,306,306,306,306,306,306,306,306,306,306,306,306,306,306,306,306,306,306,306,306,306,309,335,382,439,562,615,657,692,719,762,786,799,806,808,808,809,809,809,804,794,787,783,780,777,772,758,752,749,745,735,731,722,716,712,708,701,697,695,693,682,673,660,658,657,657,657,657,657,657,657,657,657,656,654,650,647,642,636,631,626,625,624,623,621,620,619,619,619,619,619,619,619,619,619,619,619,619,619,619,619,619,619,619,619,619,619,619,619,619,619,619,619,619,619,619,619,619,619,619,619,619,619,619,619,619,619,619,619,619,619,619,619,619,619,619,619,619,619,619,619,619,619,619,619,619,619,619,619,619,619,619,619,619,619,619,619,619,621,623,628,628,628,629,630,635,636,639,644,647,648,648,648,649,650,674,694,705,709,709,709,709,709,709,709,709,709,709,709,709,709,709,709,709,709,709,709,709,709,709,709,709,709,709,709,709,709,709,709,709,709,709,709,709,709,709,709,709,709,709,709,709,709,709,709,709,709,709,709,709,709,709,709,709,709,709,709,709,709,709,709,709,709,709,709,709,709,709,709,709,709,709,709,709,709,709,709,709,709,709,709,709,709,709,709,709,709,709,709,709,709,709,709,709,709,709,709,709,709,709,709,709,709,709,709,709,709,709,709,709,709,709,709,709,709,709,709,709,709,709,709,709,709,709,709,709,709,709,709,709,709,709,709,709,709,709,709,709,709,709,709,709,709,709,709,709,709,709,709,709,709,709,709,709,709,709,709,709,709,709,709,709,709,709,709,709,709,712,718,747,776,776,776,768,719,618,558,475,385,295,133,62,0,0,0,0,0,0,0,0,0,0,0,2,6,13,17,19,20,23,28,30,31,32,32,33],"timestamp_mouse":[9,25,55,64,84,104,125,144,164,184,204,225,244,265,284,306,324,345,365,385,405,424,444,465,484,504,524,545,564,585,605,624,644,665,684,705,724,744,764,784,804,824,844,865,884,904,926,944,964,984,1004,1025,1044,1065,1085,1104,1125,1144,1165,1185,1204,1224,1244,1266,1285,1305,1325,1344,1365,1385,1404,1424,1444,1465,1484,1506,1525,1544,1565,1585,1605,1625,1644,1664,1684,1704,1726,1745,1765,1785,1805,1824,1844,1865,1885,1904,1924,1945,1965,1984,2004,2024,2045,2064,2084,2104,2124,2144,2164,2184,2204,2224,2245,2264,2285,2304,2324,2345,2364,2384,2405,2424,2444,2464,2484,2504,2524,2546,2565,2584,2604,2625,2644,2665,2685,2705,2724,2745,2766,2785,2804,2824,2844,2864,2884,2904,2925,2944,2964,2985,3004,3024,3044,3065,3085,3105,3125,3145,3165,3184,3204,3225,3246,3266,3284,3304,3324,3344,3364,3385,3404,3425,3444,3465,3485,3504,3525,3544,3564,3584,3604,3624,3644,3664,3685,3705,3725,3745,3765,3784,3804,3825,3844,3864,3885,3905,3924,3944,3965,3985,4005,4025,4045,4065,4085,4105,4124,4144,4165,4184,4204,4225,4245,4265,4285,4305,4325,4344,4364,4385,4406,4425,4444,4464,4485,4505,4525,4545,4565,4585,4604,4624,4644,4665,4685,4705,4725,4744,4765,4785,4805,4825,4845,4864,4885,4905,4926,4944,4965,4984,5005,5024,5044,5066,5084,5104,5124,5144,5165,5184,5204,5225,5245,5264,5285,5304,5325,5344,5365,5385,5406,5426,5445,5464,5484,5504,5524,5544,5565,5585,5605,5625,5645,5665,5685,5704,5724,5745,5765,5785,5805,5825,5844,5864,5884,5904,5925,5945,5964,5984,6004,6024,6044,6065,6085,6104,6125,6145,6165,6185,6205,6225,6245,6264,6284,6305,6325,6344,6365,6384,6405,6425,6446,6466,6485,6505,6524,6545,6564,6585,6604,6624,6645,6665,6685,6705,6725,6744,6765,6784,6804,6825,6845,6866,6885,6905,6925,6944,6964,6985,7005,7025,7045,7064,7084,7104,7125,7144,7165,7184,7204,7225,7244,7265,7285,7304,7325,7344,7364,7384,7405,7425,7445,7466,7485,7505,7525,7545,7565,7585,7604,7624,7645,7665,7685,7704,7724,7744,7764,7785,7805,7825,7845,7865,7884,7905,7924,7945,7964,7985,8004,8024,8044,8064,8084,8104,8125,8146,8164,8184,8204,8224,8244,8264,8285,8304,8324,8344,8364,8384,8405,8424,8444,8465,8485,8504,8524,8544,8564,8585,8604,8624,8644,8665,8684,8704,8724,8746,8764,8785,8804,8825,8844,8865,8885,8904,8926,8946,8966,8984,9005,9024,9044,9065,9084,9104,9124,9145,9164,9184,9204,9225,9246,9265,9285,9304,9325,9345,9365,9385,9406,9424,9445,9465,9485,9505,9524,9545,9565,9586,9605,9624,9645,9665,9684,9705,9726,9744,9764,9784,9805,9824,9845,9864,9885,9904,9926,9945,9965,9985,10005,10025,10045,10065,10084,10105,10124,10145,10165,10184,10204,10224,10245,10264,10285,10304,10324,10345,10365,10385,10405,10424,10444,10465,10484,10504,10525,10544,10564,10584,10605,10624,10645,10665,10684,10704,10725,10746,10765,10785,10804,10825,10844,10865,10884,10906,10926,10944,10964,10985,11006,11024,11044,11064,11085,11105,11125,11144,11165,11184,11204,11224,11244,11264,11284,11305,11324,11344,11364,11384,11405,11425,11444,11466,11485,11504,11524,11545,11564,11585,11605,11625,11645,11664,11685,11704,11725,11744,11764,11786,11805,11825,11845,11864,11885,11905,11925,11945,11964,11984,12004,12025,12044,12066,12085,12104,12124,12145,12164,12185,12204,12226,12245,12265,12285,12304,12325,12344,12365,12385,12405,12425,12445,12465,12485,12505,12525,12545,12565,12584,12604,12625,12645,12664,12684,12705,12725,12745,12765,12784,12805,12826,12845,12864,12885,12904,12925,12944,12964,12984,13004,13025,13045,13065,13085,13105,13124,13145,13165,13185,13205,13224,13244,13264,13284,13304,13325,13344,13365,13384,13405,13424,13444,13464,13485,13506,13524,13545,13565,13585,13604,13625,13644,13664,13685,13704,13725,13745,13765,13784,13805,13824,13844,13865,13886,13906,13925,13945,13965,13985,14005,14024,14045,14064,14086,14105,14124,14144,14164,14184,14205,14225,14245,14265,14285,14305,14324,14345,14365,14385,14405,14424,14445,14466,14486,14505,14524,14545,14566,14585,14605,14624,14644,14665,14684,14705,14724,14744,14764,14784,14804,14824,14844,14864,14885,14905,14926,14944,14964,14984,15004,15024,15044,15065,15085,15105,15126,15144,15164,15185,15205,15224],"xSR":741.5,"ySR":573.95,"xT1":424.9,"yT1":0,"xT2":1058.1,"yT2":0,"toosoon":0,"cond_shown":"Congruent","ratio_trial":300,"L_num":1,"L_den":5,"R_num":11,"R_den":22,"correct_side":2,"subjID":"nataliavaldiviesocadena28","gender":"0","school":"4","age":"9"},{"start_time":1552069111416,"click_time":1552069120065,"finger_time":1552069113004,"fix_duration":1069.8015423854354,"trial":2,"RT":1588,"MT":7061,"sideResp":1,"stimulus":[],"xmouse":[788,788,788,788,788,788,788,788,788,788,788,788,788,788,788,788,788,788,788,788,788,788,788,788,788,788,788,788,788,788,788,788,788,788,788,788,788,788,788,788,788,788,788,788,788,788,788,788,788,788,788,788,788,788,788,788,788,788,788,788,788,788,788,788,788,788,788,788,788,788,788,788,788,788,788,788,788,789,795,805,821,834,842,850,858,872,872,872,872,872,872,872,872,872,872,872,872,872,872,872,872,872,872,872,872,872,872,872,872,872,872,872,872,872,872,872,872,872,872,872,872,872,872,872,872,872,872,872,872,872,872,872,872,872,872,872,872,872,872,872,872,872,872,872,872,872,872,872,872,872,872,872,872,872,872,872,872,872,872,872,872,872,872,872,872,872,872,872,872,872,872,872,872,872,872,872,880,891,894,894,880,876,875,874,874,874,874,874,874,874,865,860,856,855,854,854,854,854,854,852,848,834,824,817,813,811,811,811,811,808,789,760,747,742,742,742,742,742,742,742,742,742,742,742,742,742,746,753,759,766,772,772,772,772,772,772,772,772,772,772,772,773,773,773,774,775,775,775,775,775,775,775,775,775,775,775,775,775,775,775,775,775,775,775,775,775,775,775,775,775,775,775,775,775,775,775,775,775,775,775,775,775,775,775,775,775,775,775,775,775,775,775,775,775,775,775,775,775,775,775,775,775,775,775,775,775,775,775,775,775,775,775,775,775,775,775,775,775,775,775,775,775,775,775,775,775,775,775,775,775,775,775,775,775,775,775,775,775,775,775,775,775,775,775,775,775,775,775,775,775,775,775,775,775,775,775,775,775,775,775,775,775,775,775,775,775,775,775,775,775,775,775,775,775,775,775,775,775,775,775,775,775,775,775,775,775,775,775,775,775,775,775,775,775,775,775,775,784,802,820,844,849,849,849,849,851,854,860,865,867,868,868,868,863,853,798,777,757,743,728,712,675,664,654,647,634,628,616,601,586,550,533,517],"ymouse":[645,645,645,645,645,645,645,645,645,645,645,645,645,645,645,645,645,645,645,645,645,645,645,645,645,645,645,645,645,645,645,645,645,645,645,645,645,645,645,645,645,645,645,645,645,645,645,645,645,645,645,645,645,645,645,645,645,645,645,645,645,645,645,645,645,645,645,645,645,645,645,645,645,645,644,633,625,611,594,571,517,474,444,416,392,359,359,359,359,359,359,359,359,359,359,359,359,359,359,359,359,359,359,359,359,359,359,359,359,359,359,359,359,359,359,359,359,359,359,359,359,359,359,359,359,359,359,359,359,359,359,359,359,359,359,359,359,359,359,359,359,359,359,359,359,359,359,359,359,359,359,359,359,359,359,359,359,359,359,359,359,359,359,359,359,359,359,359,359,359,359,359,359,359,359,359,351,335,319,295,244,222,215,214,214,214,214,214,213,211,202,198,195,195,194,194,194,194,194,194,194,192,192,192,192,192,192,192,192,192,191,185,184,182,182,182,182,182,182,182,182,182,182,182,182,182,182,182,182,182,182,182,182,182,182,182,182,182,182,182,182,182,182,182,182,182,182,182,182,182,182,182,182,182,182,182,182,182,182,182,182,182,182,182,182,182,182,182,182,182,182,182,182,182,182,182,182,182,182,182,182,182,182,182,182,182,182,182,182,182,182,182,182,182,182,182,182,182,182,182,182,182,182,182,182,182,182,182,182,182,182,182,182,182,182,182,182,182,182,182,182,182,182,182,182,182,182,182,182,182,182,182,182,182,182,182,182,182,182,182,182,182,182,182,182,182,182,182,182,182,182,182,182,182,182,182,182,182,182,182,182,182,182,182,182,182,182,182,182,182,182,182,182,182,182,182,182,182,182,182,182,182,182,182,182,182,182,182,182,182,182,182,182,182,182,182,182,182,182,182,181,180,180,180,180,179,176,173,170,169,168,167,167,162,156,125,111,98,90,81,75,65,62,59,57,55,51,48,42,38,21,14,7],"timestamp_mouse":[12,40,49,69,88,108,128,148,169,190,208,229,249,269,289,309,328,349,369,388,409,428,449,469,488,508,529,548,569,589,609,628,649,669,689,709,729,749,768,789,808,829,849,869,888,909,929,948,968,988,1008,1029,1048,1069,1088,1108,1128,1149,1170,1188,1209,1229,1249,1269,1289,1309,1330,1348,1368,1389,1410,1428,1449,1469,1488,1508,1528,1549,1568,1588,1608,1628,1648,1669,1689,1708,1730,1748,1769,1788,1808,1828,1848,1868,1888,1909,1928,1948,1968,1988,2009,2028,2049,2068,2088,2108,2128,2150,2169,2188,2209,2229,2248,2268,2289,2308,2329,2348,2368,2388,2409,2428,2449,2469,2488,2508,2529,2548,2568,2588,2608,2630,2648,2669,2688,2708,2728,2748,2769,2789,2808,2829,2849,2869,2888,2909,2928,2949,2970,2990,3009,3029,3049,3069,3089,3108,3129,3149,3169,3189,3209,3229,3250,3269,3288,3308,3328,3348,3368,3388,3408,3428,3449,3468,3488,3508,3528,3550,3569,3589,3608,3628,3648,3668,3689,3708,3729,3749,3769,3789,3808,3828,3849,3868,3888,3909,3929,3948,3969,3988,4009,4028,4048,4068,4088,4108,4130,4148,4168,4188,4209,4228,4249,4268,4289,4309,4330,4348,4369,4388,4408,4428,4448,4469,4488,4509,4528,4548,4568,4590,4608,4628,4649,4668,4688,4708,4729,4748,4768,4788,4808,4829,4848,4868,4888,4908,4929,4948,4969,4988,5009,5029,5048,5069,5088,5109,5128,5149,5168,5188,5209,5228,5248,5268,5288,5308,5329,5348,5368,5389,5409,5429,5448,5468,5488,5508,5529,5549,5568,5588,5609,5628,5648,5668,5689,5708,5729,5748,5768,5788,5808,5829,5848,5869,5888,5908,5929,5948,5969,5988,6009,6030,6048,6068,6089,6109,6129,6148,6168,6189,6208,6228,6248,6268,6290,6309,6328,6348,6369,6388,6409,6429,6448,6468,6488,6508,6528,6548,6569,6589,6608,6628,6648,6668,6690,6709,6728,6749,6769,6789,6809,6830,6848,6869,6889,6909,6929,6948,6968,6989,7009,7028,7049,7068,7089,7109,7129,7149,7169,7188,7209,7229,7249,7269,7289,7308,7328,7349,7369,7388,7409,7429,7448,7469,7488,7508,7529,7549,7569,7588,7609,7629,7648,7669,7688,7709,7728,7749,7769,7788,7809,7829,7849,7869,7889,7908,7928,7949,7968,7989,8008,8028,8049,8068,8090,8108,8128,8148,8168,8189,8208,8228,8248,8269,8288,8308,8329,8349,8369,8388,8408,8429,8448,8468,8488,8508,8528,8548,8569,8588,8609,8628,8648],"xSR":741.5,"ySR":573.95,"xT1":424.9,"yT1":0,"xT2":1058.1,"yT2":0,"toosoon":0,"cond_shown":"Incongruent","ratio_trial":300,"L_num":4,"L_den":20,"R_num":2,"R_den":4,"correct_side":2,"subjID":"nataliavaldiviesocadena28","gender":"0","school":"4","age":"9"},{"start_time":1552069123402,"click_time":1552069125626,"finger_time":1552069124924,"fix_duration":1494.7840537385912,"trial":3,"RT":1522,"MT":702,"sideResp":2,"stimulus":[],"xmouse":[787,787,787,787,787,787,787,787,787,787,787,787,787,787,787,787,787,787,787,787,787,787,787,787,787,787,787,787,787,787,787,787,787,787,787,787,787,787,787,787,787,787,787,787,787,787,787,787,787,787,787,787,787,787,787,787,787,787,787,787,787,787,787,787,787,787,787,787,787,787,787,787,787,787,805,832,876,891,906,922,939,985,1031,1076,1124,1173,1257,1287,1304,1316,1319,1324,1325,1325,1325,1323,1311,1306,1301,1296,1286,1252,1221,1211,1193,1168,1146,1141,1138,1137,1134,1130],"ymouse":[624,624,624,624,624,624,624,624,624,624,624,624,624,624,624,624,624,624,624,624,624,624,624,624,624,624,624,624,624,624,624,624,624,624,624,624,624,624,624,624,624,624,624,624,624,624,624,624,624,624,624,624,624,624,624,624,624,624,624,624,624,624,624,624,624,624,624,624,624,624,624,624,624,623,620,617,602,592,583,572,560,535,502,470,429,385,283,230,180,137,109,70,52,45,41,38,33,32,31,29,26,17,9,7,4,0,0,0,0,0,0,3],"timestamp_mouse":[9,23,42,63,83,102,122,143,164,183,203,223,242,263,283,303,323,342,363,383,403,423,442,462,483,503,523,542,562,584,604,623,642,663,682,702,723,742,763,783,803,822,842,863,883,902,923,942,963,982,1002,1023,1042,1063,1082,1103,1124,1144,1163,1182,1203,1222,1243,1263,1282,1303,1323,1343,1363,1383,1403,1423,1442,1462,1484,1503,1522,1543,1563,1582,1603,1622,1642,1662,1683,1702,1722,1743,1763,1782,1804,1822,1843,1862,1883,1903,1922,1942,1962,1982,2003,2022,2042,2063,2083,2103,2122,2142,2163,2183,2203,2224],"xSR":741.5,"ySR":573.95,"xT1":424.9,"yT1":0,"xT2":1058.1,"yT2":0,"toosoon":0,"cond_shown":"Incongruent","ratio_trial":300,"L_num":4,"L_den":20,"R_num":2,"R_den":4,"correct_side":2,"subjID":"nataliavaldiviesocadena28","gender":"0","school":"4","age":"9"},{"start_time":1552069129448,"click_time":1552069132805,"finger_time":1552069130044,"fix_duration":743.2405142920206,"trial":4,"RT":596,"MT":2761,"sideResp":2,"stimulus":[],"xmouse":[791,791,791,791,791,791,791,791,791,791,791,791,791,791,791,791,791,791,791,791,791,791,791,791,791,791,796,801,839,870,885,894,899,904,906,908,910,913,920,921,921,921,921,921,921,921,921,921,921,921,921,921,921,921,921,923,924,924,926,926,927,927,928,932,937,945,960,973,989,1028,1040,1050,1060,1069,1072,1073,1074,1074,1074,1074,1074,1074,1074,1074,1074,1072,1070,1070,1070,1070,1070,1070,1070,1070,1070,1069,1068,1067,1065,1060,1058,1055,1052,1046,1040,1033,1022,1011,1001,977,972,969,967,966,966,965,962,960,952,947,941,938,932,918,908,896,883,870,862,849,844,843,843,843,843,843,843,843,843,843,843,849,858,905,921,928,930,931,931,935,938,943,947,958,967,976,990,999,1018,1029,1034,1039,1044,1052,1055,1056,1057,1059],"ymouse":[615,615,615,615,615,615,615,615,615,615,615,615,615,615,615,615,615,615,615,615,615,615,615,615,615,615,608,605,579,562,554,546,541,536,533,530,527,523,508,505,503,503,503,503,503,503,503,503,503,503,503,503,503,503,501,496,491,486,475,471,468,465,461,450,438,423,403,382,358,292,264,241,218,183,174,169,165,164,164,164,164,164,164,164,164,163,163,163,163,163,163,163,163,163,163,163,163,163,163,161,161,160,159,157,156,154,150,147,145,137,136,135,134,134,134,134,133,133,130,128,127,126,124,119,114,109,103,97,93,87,85,85,85,85,85,85,85,85,85,85,85,85,88,103,108,109,110,110,110,111,111,111,112,114,115,115,115,115,115,111,109,107,105,102,99,99,98,96],"timestamp_mouse":[17,42,57,76,97,117,136,157,177,196,216,236,256,277,297,317,337,356,376,396,416,437,457,477,497,516,536,556,576,596,617,637,656,676,696,717,736,756,777,796,816,837,856,876,898,916,936,956,977,997,1017,1037,1056,1076,1096,1116,1138,1156,1176,1196,1216,1237,1256,1276,1296,1316,1336,1357,1376,1397,1416,1436,1457,1476,1497,1517,1536,1556,1576,1596,1618,1637,1656,1676,1696,1716,1737,1756,1777,1796,1816,1838,1856,1877,1896,1917,1937,1956,1976,1996,2016,2036,2056,2076,2096,2116,2136,2156,2177,2196,2216,2237,2256,2276,2297,2317,2337,2357,2376,2396,2417,2437,2457,2477,2496,2516,2537,2556,2576,2597,2616,2637,2657,2677,2697,2716,2737,2756,2776,2796,2816,2837,2856,2876,2896,2917,2937,2957,2977,2996,3017,3036,3057,3076,3096,3116,3136,3158,3177,3196,3217,3237,3256,3276,3296,3317,3337,3357],"xSR":741.5,"ySR":573.95,"xT1":424.9,"yT1":0,"xT2":1058.1,"yT2":0,"toosoon":0,"cond_shown":"Congruent","ratio_trial":100,"L_num":2,"L_den":5,"R_num":11,"R_den":22,"correct_side":2,"subjID":"nataliavaldiviesocadena28","gender":"0","school":"4","age":"9"},{"start_time":1552069136106,"click_time":1552069138864,"finger_time":1552069136684,"fix_duration":400.49685929908617,"trial":5,"RT":578,"MT":2180,"sideResp":2,"stimulus":[],"xmouse":[776,776,776,776,776,776,776,776,776,776,776,776,776,776,776,776,776,776,776,776,778,781,784,787,791,802,816,825,834,843,858,862,865,866,867,868,868,868,868,868,868,868,870,871,873,875,876,877,877,878,880,882,883,883,883,883,883,883,883,883,881,879,876,872,867,860,856,852,846,841,835,834,833,833,831,823,817,810,804,799,791,785,781,779,778,769,768,768,768,768,764,760,757,753,750,744,741,740,739,739,739,739,739,739,742,748,762,770,784,796,825,842,860,877,891,904,926,947,962,975,993,997,1000,1001,1002,1002,1002,1002,1002,1003,1007,1013,1024,1038,1052,1078,1096,1104],"ymouse":[621,621,621,621,621,621,621,621,621,621,621,621,621,621,621,621,621,621,621,621,621,618,615,612,609,600,586,576,566,556,537,529,523,521,519,518,518,518,518,518,518,516,514,513,511,508,507,506,505,503,494,487,479,471,464,451,447,443,440,437,431,427,420,415,408,400,394,388,380,373,366,365,364,364,363,357,351,342,332,321,302,292,289,287,287,284,283,283,283,283,282,281,280,279,278,277,275,275,275,275,275,275,275,275,275,275,278,279,279,279,267,257,245,236,231,227,214,195,182,167,146,139,135,134,133,133,133,133,133,133,133,133,133,131,127,114,100,91],"timestamp_mouse":[19,38,58,79,98,119,138,158,179,199,220,239,259,279,299,319,339,360,379,399,419,438,459,478,498,518,539,558,578,599,618,639,658,678,698,719,739,759,778,799,818,838,858,878,898,918,939,959,979,999,1018,1038,1058,1078,1098,1119,1139,1159,1179,1198,1219,1238,1259,1279,1299,1318,1340,1358,1378,1400,1418,1438,1459,1478,1498,1518,1539,1559,1579,1599,1618,1638,1658,1678,1699,1718,1739,1758,1779,1798,1818,1838,1859,1878,1899,1918,1938,1959,1979,1999,2018,2038,2059,2079,2098,2118,2138,2158,2178,2199,2219,2238,2259,2279,2298,2318,2338,2358,2378,2398,2418,2438,2458,2478,2499,2519,2538,2559,2578,2598,2618,2638,2659,2679,2699,2718,2738,2758],"xSR":741.5,"ySR":573.95,"xT1":424.9,"yT1":0,"xT2":1058.1,"yT2":0,"toosoon":0,"cond_shown":"Incongruent","ratio_trial":100,"L_num":2,"L_den":4,"R_num":8,"R_den":20,"correct_side":1,"subjID":"nataliavaldiviesocadena28","gender":"0","school":"4","age":"9"},{"start_time":1552069144152,"click_time":1552069146025,"finger_time":1552069145625,"fix_duration":1005.7594572616803,"trial":6,"RT":1473,"MT":400,"sideResp":2,"stimulus":[],"xmouse":[774,774,774,774,774,774,774,774,774,774,774,774,774,774,774,774,774,774,774,774,774,774,774,774,774,774,774,774,774,775,777,779,781,787,789,790,790,790,790,790,790,790,790,790,790,790,790,790,790,790,790,790,790,790,790,790,790,790,790,790,790,790,790,790,790,790,790,790,790,792,797,806,817,861,880,900,920,938,969,984,998,1009,1019,1030,1034,1040,1045,1051,1070,1082,1096,1107,1118,1138],"ymouse":[633,633,633,633,633,633,633,633,633,633,633,633,633,633,633,633,633,633,633,633,633,633,633,633,633,633,633,633,633,633,632,629,626,617,613,612,612,612,612,612,612,612,612,612,612,612,612,612,612,612,612,612,612,612,612,612,612,612,612,612,612,612,612,612,612,612,612,612,612,611,609,605,599,575,565,554,538,522,488,469,449,437,423,401,392,378,367,352,309,280,244,205,164,96],"timestamp_mouse":[12,38,53,72,93,113,133,153,172,193,212,233,252,273,293,312,333,353,372,394,412,433,453,472,493,513,532,553,573,592,613,633,652,672,692,713,732,752,773,793,813,833,853,873,892,912,932,952,973,994,1014,1032,1052,1072,1092,1113,1133,1153,1172,1193,1213,1234,1253,1272,1293,1312,1332,1353,1372,1392,1412,1432,1453,1473,1492,1512,1532,1552,1572,1592,1613,1632,1653,1673,1694,1713,1732,1752,1772,1792,1812,1832,1852,1872],"xSR":741.5,"ySR":573.95,"xT1":424.9,"yT1":0,"xT2":1058.1,"yT2":0,"toosoon":0,"cond_shown":"Incongruent","ratio_trial":200,"L_num":7,"L_den":15,"R_num":6,"R_den":9,"correct_side":2,"subjID":"nataliavaldiviesocadena28","gender":"0","school":"4","age":"9"},{"start_time":1552069154465,"click_time":1552069157224,"finger_time":1552069156124,"fix_duration":1199.9362742649002,"trial":7,"RT":1659,"MT":1100,"sideResp":2,"stimulus":[],"xmouse":[781,781,781,781,781,781,781,781,781,781,781,781,781,781,781,781,781,781,781,781,781,781,781,781,781,781,781,781,781,781,781,781,781,781,781,781,781,781,781,781,781,781,781,781,781,781,781,781,781,781,781,781,781,781,781,781,781,781,781,781,781,781,781,781,781,781,781,781,781,781,781,781,786,797,807,812,816,821,823,828,832,836,844,850,856,862,867,878,883,889,891,892,892,893,893,894,897,900,908,914,923,941,962,1030,1070,1103,1130,1172,1192,1217,1234,1247,1265,1270,1270,1270,1270,1270,1270,1270,1270,1264,1254,1241,1237,1237,1234,1229,1223,1215,1212,1210,1208,1200,1191,1181,1169,1140],"ymouse":[640,640,640,640,640,640,640,640,640,640,640,640,640,640,640,640,640,640,640,640,640,640,640,640,640,640,640,640,640,640,640,640,640,640,640,640,640,640,640,640,640,640,640,640,640,640,640,640,640,640,640,640,640,640,640,640,640,640,640,640,640,640,640,640,640,640,640,640,640,640,640,640,637,632,627,624,621,619,617,613,608,603,592,587,580,572,565,551,544,538,534,533,533,532,530,530,526,522,511,504,494,474,448,379,345,313,285,236,208,170,143,120,85,77,76,76,76,76,76,76,75,73,70,67,65,65,63,62,60,58,57,56,56,55,52,50,49,44],"timestamp_mouse":[19,42,60,80,99,120,140,159,180,200,219,240,261,280,300,321,340,361,379,401,419,440,460,480,500,519,539,560,580,599,621,640,661,681,700,719,740,759,780,799,819,840,860,879,900,920,939,959,980,1001,1019,1039,1061,1081,1100,1119,1140,1159,1180,1200,1220,1240,1260,1279,1300,1320,1339,1360,1381,1400,1420,1439,1459,1479,1500,1520,1541,1559,1580,1599,1620,1639,1659,1679,1701,1720,1740,1759,1780,1800,1819,1841,1860,1879,1899,1920,1939,1959,1980,1999,2019,2039,2059,2079,2099,2119,2139,2159,2179,2200,2220,2240,2259,2279,2299,2320,2339,2359,2380,2399,2420,2439,2459,2479,2500,2520,2539,2559,2579,2599,2619,2639,2659,2679,2699,2719,2740,2759],"xSR":741.5,"ySR":573.95,"xT1":424.9,"yT1":0,"xT2":1058.1,"yT2":0,"toosoon":0,"cond_shown":"Incongruent","ratio_trial":100,"L_num":12,"L_den":24,"R_num":9,"R_den":15,"correct_side":2,"subjID":"nataliavaldiviesocadena28","gender":"0","school":"4","age":"9"},{"start_time":1552069162736,"click_time":1552069165164,"finger_time":1552069164184,"fix_duration":1210.0086207022373,"trial":8,"RT":1448,"MT":980,"sideResp":1,"stimulus":[],"xmouse":[760,760,760,760,760,760,760,760,760,760,760,760,760,760,760,760,760,760,760,760,760,760,760,760,760,760,760,760,760,760,760,760,760,760,760,760,760,760,760,760,760,760,760,760,760,760,760,760,760,760,760,760,760,760,760,760,760,760,760,760,760,760,760,762,762,763,764,765,766,768,772,774,775,777,781,784,787,789,793,800,804,806,807,809,809,809,808,808,808,808,808,808,806,804,794,784,782,771,761,736,712,693,667,641,600,580,576,565,559,553,550,548,548,547,547,547,547,546,542,530,525,522],"ymouse":[605,605,605,605,605,605,605,605,605,605,605,605,605,605,605,605,605,605,605,605,605,605,605,605,605,605,605,605,605,605,605,605,605,605,605,605,605,605,605,605,605,605,605,605,605,605,605,605,605,605,603,601,600,599,599,599,599,598,598,598,598,598,597,595,594,593,591,590,586,583,578,575,573,569,562,557,553,548,541,523,511,500,489,480,465,459,447,440,429,406,392,381,367,353,328,313,311,300,292,271,252,232,205,173,120,92,86,72,66,61,60,59,59,59,59,59,59,59,57,54,53,53],"timestamp_mouse":[10,29,50,70,89,109,129,149,169,189,208,228,249,268,289,308,329,349,369,389,409,429,449,469,488,508,530,549,568,590,609,629,648,669,689,708,729,749,769,789,809,829,849,868,889,909,929,950,969,988,1008,1028,1048,1069,1088,1109,1128,1150,1170,1188,1209,1228,1248,1268,1288,1310,1329,1348,1368,1388,1409,1428,1448,1468,1488,1508,1528,1549,1568,1588,1609,1629,1648,1669,1688,1709,1728,1748,1768,1788,1809,1829,1848,1868,1888,1908,1928,1950,1968,1988,2008,2028,2048,2068,2088,2108,2129,2149,2169,2188,2208,2229,2248,2269,2288,2308,2328,2349,2368,2388,2408,2428],"xSR":741.5,"ySR":573.95,"xT1":424.9,"yT1":0,"xT2":1058.1,"yT2":0,"toosoon":0,"cond_shown":"Congruent","ratio_trial":300,"L_num":12,"L_den":24,"R_num":2,"R_den":10,"correct_side":1,"subjID":"nataliavaldiviesocadena28","gender":"0","school":"4","age":"9"},{"start_time":1552069172201,"click_time":1552069174124,"finger_time":1552069173524,"fix_duration":1375.152452597642,"trial":9,"RT":1323,"MT":600,"sideResp":2,"stimulus":[],"xmouse":[784,784,784,784,784,784,784,784,784,784,784,784,784,784,784,784,784,784,784,784,784,784,784,784,784,784,784,784,784,784,784,784,784,784,784,784,784,784,784,784,784,784,784,784,784,784,784,784,784,784,784,784,784,784,784,784,784,784,784,786,789,798,809,818,828,841,867,882,897,914,928,958,973,987,1001,1004,1004,1006,1008,1014,1023,1041,1051,1053,1059,1060,1060,1060,1061,1062,1063,1074,1083,1092,1110,1121,1131],"ymouse":[633,633,633,633,633,633,633,633,633,633,633,633,633,633,633,633,633,633,633,633,633,633,633,633,633,633,633,633,633,633,633,633,633,633,633,633,633,633,633,633,633,633,633,633,633,633,633,633,633,633,633,633,633,633,633,633,633,633,632,631,628,620,611,602,593,580,552,536,521,501,482,441,420,400,377,369,365,363,359,348,333,301,283,279,271,271,271,271,270,268,267,252,237,216,168,130,77],"timestamp_mouse":[10,23,44,64,83,104,124,144,164,183,204,224,244,263,283,303,323,344,364,384,403,423,443,463,483,504,523,543,565,584,603,624,643,664,684,705,723,743,763,784,804,823,843,864,883,903,923,943,964,984,1003,1025,1044,1063,1083,1104,1124,1144,1164,1183,1205,1223,1244,1263,1284,1303,1323,1344,1364,1383,1403,1423,1443,1463,1484,1504,1523,1543,1564,1583,1603,1623,1643,1663,1683,1704,1723,1743,1763,1784,1804,1823,1843,1863,1884,1904,1923],"xSR":741.5,"ySR":573.95,"xT1":424.9,"yT1":0,"xT2":1058.1,"yT2":0,"toosoon":0,"cond_shown":"Incongruent","ratio_trial":100,"L_num":13,"L_den":26,"R_num":12,"R_den":20,"correct_side":2,"subjID":"nataliavaldiviesocadena28","gender":"0","school":"4","age":"9"},{"start_time":1552069179804,"click_time":1552069182224,"finger_time":1552069180624,"fix_duration":378.6616432535482,"trial":10,"RT":820,"MT":1600,"sideResp":1,"stimulus":[],"xmouse":[776,776,776,776,776,776,776,776,776,776,776,776,776,776,776,776,776,776,776,776,776,776,776,776,776,776,776,776,776,776,776,776,776,776,776,776,775,778,781,787,797,824,850,868,887,901,928,941,951,958,965,973,973,973,973,973,973,974,977,982,988,996,1002,1007,1009,1012,1015,1017,1020,1021,1024,1027,1032,1034,1035,1036,1036,1036,1036,1036,1036,1020,1003,998,997,997,997,997,997,997,997,997,997,997,997,1003,1014,1015,1015,1015,1015,1015,1015,1015,1015,1015,1000,980,959,939,927,910,899,884,859,826,725,668,621,583,548,519],"ymouse":[624,624,624,624,624,624,624,624,624,624,624,624,624,624,624,624,624,624,624,624,624,624,624,624,624,624,624,624,624,624,624,624,624,624,624,624,622,618,614,606,592,558,518,491,463,440,393,371,351,332,315,287,273,270,266,263,260,257,254,249,244,232,223,214,208,198,188,183,178,173,167,162,149,147,145,144,144,144,144,144,143,141,135,133,133,133,133,133,133,133,133,133,133,133,133,134,136,136,136,136,136,136,136,136,136,136,133,127,121,115,113,108,107,105,102,100,88,78,71,62,54,45],"timestamp_mouse":[10,20,45,60,80,100,120,140,161,181,200,221,241,261,282,300,321,340,361,380,402,421,441,461,480,500,520,540,561,580,601,620,640,661,682,700,720,740,761,781,800,820,840,861,881,900,921,940,960,980,1000,1020,1040,1060,1080,1101,1120,1140,1160,1181,1201,1220,1241,1260,1280,1300,1320,1340,1361,1381,1401,1420,1441,1461,1480,1500,1520,1542,1561,1581,1601,1620,1640,1661,1680,1701,1721,1741,1761,1781,1800,1821,1842,1860,1882,1901,1920,1940,1961,1981,2000,2020,2041,2060,2080,2101,2120,2140,2162,2180,2201,2220,2240,2260,2280,2300,2320,2340,2360,2381,2401,2420],"xSR":741.5,"ySR":573.95,"xT1":424.9,"yT1":0,"xT2":1058.1,"yT2":0,"toosoon":0,"cond_shown":"Incongruent","ratio_trial":100,"L_num":6,"L_den":10,"R_num":7,"R_den":14,"correct_side":1,"subjID":"nataliavaldiviesocadena28","gender":"0","school":"4","age":"9"},{"start_time":1552069186957,"click_time":1552069188905,"finger_time":1552069188224,"fix_duration":250,"trial":11,"RT":1267,"MT":681,"sideResp":1,"stimulus":[],"xmouse":[784,784,784,784,784,784,784,784,784,784,784,784,784,784,784,784,784,784,784,784,784,784,784,784,784,784,784,784,784,784,784,784,784,784,784,784,784,784,784,784,784,784,784,784,784,784,784,784,784,784,784,784,784,784,784,784,784,784,781,776,773,767,760,740,719,701,682,659,619,604,590,580,574,567,564,564,564,564,560,555,554,553,553,553,553,551,547,545,538,537,535,532,530,529,528,528,526,524],"ymouse":[641,641,641,641,641,641,641,641,641,641,641,641,641,641,641,641,641,641,641,641,641,641,641,641,641,641,641,641,641,641,641,641,641,641,641,641,641,641,641,641,641,641,641,641,641,641,641,641,641,641,641,641,641,641,641,641,641,641,633,626,619,608,593,555,515,479,445,403,311,271,241,213,187,140,111,91,71,52,22,13,9,8,8,8,8,7,6,6,6,6,6,6,6,6,6,6,7,8],"timestamp_mouse":[10,41,49,67,87,107,127,147,168,187,207,229,248,267,287,308,327,347,367,388,407,427,449,467,488,509,528,547,568,587,608,628,648,667,688,708,728,747,767,789,809,828,847,867,887,907,927,948,967,987,1007,1027,1048,1067,1087,1108,1128,1147,1167,1187,1208,1228,1249,1267,1287,1307,1328,1347,1367,1387,1407,1427,1449,1467,1487,1508,1528,1547,1567,1587,1609,1627,1648,1667,1688,1707,1728,1748,1767,1787,1807,1828,1847,1867,1887,1908,1928,1947],"xSR":741.5,"ySR":573.95,"xT1":424.9,"yT1":0,"xT2":1058.1,"yT2":0,"toosoon":0,"cond_shown":"Incongruent","ratio_trial":200,"L_num":7,"L_den":10,"R_num":14,"R_den":28,"correct_side":1,"subjID":"nataliavaldiviesocadena28","gender":"0","school":"4","age":"9"},{"start_time":1552069192276,"click_time":1552069194244,"finger_time":1552069193504,"fix_duration":250,"trial":12,"RT":1228,"MT":740,"sideResp":1,"stimulus":[],"xmouse":[769,769,769,769,769,769,769,769,769,769,769,769,769,769,769,769,769,769,769,769,769,769,769,769,769,769,769,769,769,769,769,769,769,769,769,769,769,769,769,769,769,769,769,769,769,769,769,769,769,769,769,769,769,769,766,765,763,759,758,753,745,734,705,696,690,685,681,677,675,675,676,679,686,689,691,691,691,683,678,670,658,642,613,606,603,601,597,580,568,552,541,536,530,530,530,530,530,527,522],"ymouse":[601,601,601,601,601,601,601,601,601,601,601,601,601,601,601,601,601,601,601,601,601,601,601,601,601,601,601,601,601,601,601,601,601,601,601,601,601,601,601,601,601,601,601,601,601,601,601,601,601,601,601,601,601,601,601,601,601,599,595,586,577,566,539,525,511,499,487,468,453,444,434,424,401,387,372,355,338,299,289,279,271,266,258,255,252,250,247,237,230,218,206,196,172,156,138,121,104,71,57],"timestamp_mouse":[9,38,49,68,89,108,129,149,169,189,208,229,248,268,289,308,328,349,369,389,408,428,450,469,488,509,530,549,568,589,608,628,648,669,689,708,728,749,770,788,809,830,850,868,889,909,929,949,968,989,1008,1028,1050,1068,1088,1109,1130,1148,1169,1188,1209,1228,1248,1268,1290,1308,1328,1348,1368,1389,1410,1429,1448,1468,1489,1508,1528,1549,1568,1588,1608,1629,1648,1669,1688,1708,1729,1749,1768,1789,1808,1828,1848,1868,1889,1909,1928,1948,1968],"xSR":741.5,"ySR":573.95,"xT1":424.9,"yT1":0,"xT2":1058.1,"yT2":0,"toosoon":0,"cond_shown":"Congruent","ratio_trial":300,"L_num":20,"L_den":25,"R_num":9,"R_den":18,"correct_side":1,"subjID":"nataliavaldiviesocadena28","gender":"0","school":"4","age":"9"},{"start_time":1552069200003,"click_time":1552069202006,"finger_time":1552069201385,"fix_duration":1255.7921994618926,"trial":13,"RT":1382,"MT":621,"sideResp":2,"stimulus":[],"xmouse":[799,799,799,799,799,799,799,797,797,797,797,797,797,797,797,797,797,797,797,797,797,797,797,797,797,797,796,796,796,796,796,796,796,796,796,796,796,796,796,796,796,796,796,796,796,796,796,796,796,796,796,796,796,796,796,796,796,797,798,798,798,799,800,801,802,802,807,809,815,821,830,850,863,873,884,897,906,929,940,952,962,982,999,1004,1008,1011,1014,1019,1023,1027,1031,1039,1046,1051,1060,1069,1080,1097,1105,1112,1118],"ymouse":[635,635,635,635,635,635,635,634,633,633,633,633,633,633,633,633,633,633,633,633,633,633,633,633,633,633,632,630,629,628,628,628,628,628,628,628,628,628,628,628,628,628,628,628,628,628,628,628,628,628,628,628,628,628,628,625,624,619,617,614,612,609,606,604,602,599,590,585,574,563,548,510,478,453,427,403,382,332,311,291,274,254,245,243,241,239,237,234,231,228,225,218,207,198,186,174,159,131,117,105,94],"timestamp_mouse":[16,21,41,61,82,101,121,142,161,181,202,221,241,262,281,301,321,342,362,381,401,423,441,461,481,501,521,541,563,582,602,623,641,662,683,702,722,743,761,782,803,823,841,861,881,902,921,942,961,981,1001,1021,1042,1062,1081,1101,1121,1141,1162,1181,1202,1221,1242,1261,1282,1302,1321,1341,1362,1382,1401,1422,1441,1462,1483,1502,1521,1541,1561,1581,1602,1622,1641,1661,1681,1701,1721,1741,1761,1782,1802,1821,1841,1861,1881,1901,1921,1941,1962,1981,2003],"xSR":741.5,"ySR":573.95,"xT1":424.9,"yT1":0,"xT2":1058.1,"yT2":0,"toosoon":0,"cond_shown":"Congruent","ratio_trial":100,"L_num":4,"L_den":8,"R_num":6,"R_den":10,"correct_side":2,"subjID":"nataliavaldiviesocadena28","gender":"0","school":"4","age":"9"},{"start_time":1552069207331,"click_time":1552069209325,"finger_time":1552069208924,"fix_duration":805.5196634209677,"trial":14,"RT":1593,"MT":401,"sideResp":1,"stimulus":[],"xmouse":[797,797,797,797,797,797,797,797,797,797,797,797,797,797,797,797,797,797,797,797,797,797,797,797,797,797,797,797,797,797,797,797,797,797,797,797,797,797,797,797,797,797,797,797,797,797,797,797,797,796,795,795,794,794,794,794,794,794,794,794,794,794,794,794,794,794,794,794,794,794,794,794,794,794,794,794,793,786,774,751,737,726,716,704,695,676,672,666,660,655,643,637,628,617,594,576,568,547,528,503],"ymouse":[625,625,625,625,625,625,625,625,625,625,625,625,625,625,625,625,625,625,625,625,625,625,625,625,625,625,625,625,625,625,625,625,625,625,625,625,625,625,625,625,625,625,625,625,625,625,625,625,624,622,621,620,620,620,620,620,620,620,620,620,620,620,620,620,620,620,620,620,620,620,620,620,620,620,620,620,616,605,589,558,542,526,507,490,473,431,417,401,386,370,335,317,298,278,231,193,170,136,95,51],"timestamp_mouse":[13,41,53,74,93,114,133,153,173,194,214,234,253,274,294,313,335,354,373,394,413,433,453,475,494,513,535,554,574,594,615,634,654,674,694,714,733,754,773,794,815,834,854,874,894,914,934,955,974,993,1014,1034,1054,1073,1093,1115,1134,1154,1173,1193,1215,1233,1253,1273,1293,1314,1334,1354,1374,1393,1413,1434,1453,1474,1493,1513,1533,1553,1574,1593,1613,1633,1653,1674,1693,1714,1734,1753,1774,1793,1813,1833,1853,1873,1894,1913,1934,1954,1973,1993],"xSR":741.5,"ySR":573.95,"xT1":424.9,"yT1":0,"xT2":1058.1,"yT2":0,"toosoon":0,"cond_shown":"Incongruent","ratio_trial":100,"L_num":10,"L_den":25,"R_num":8,"R_den":16,"correct_side":2,"subjID":"nataliavaldiviesocadena28","gender":"0","school":"4","age":"9"},{"start_time":1552069213155,"click_time":1552069215426,"finger_time":1552069214724,"fix_duration":250,"trial":15,"RT":1569,"MT":702,"sideResp":1,"stimulus":[],"xmouse":[793,793,793,793,793,793,793,793,793,793,793,793,793,793,793,793,793,793,793,793,793,793,793,793,793,793,793,793,793,793,793,793,793,793,793,793,793,793,793,793,793,793,793,793,793,793,793,793,793,793,793,793,793,793,793,793,793,793,793,793,793,793,793,793,793,793,793,793,793,793,793,793,793,793,792,791,788,787,785,783,783,783,783,783,758,717,663,604,544,451,419,399,389,381,379,379,379,380,380,381,382,383,386,392,394,396,398,400,401,401,401,405,413,431],"ymouse":[612,612,612,612,612,612,612,612,612,612,612,612,612,612,612,612,612,612,612,612,612,612,612,612,612,612,612,612,612,612,612,612,612,612,612,612,612,612,612,612,612,612,612,612,612,612,612,612,612,612,612,612,612,612,612,612,612,612,612,612,612,612,612,612,612,612,612,612,612,612,612,612,612,612,609,602,592,582,557,540,521,500,477,446,346,287,225,162,94,0,0,0,0,0,0,0,0,0,0,0,1,5,9,20,23,26,28,30,31,31,31,32,36,44],"timestamp_mouse":[11,37,50,69,90,109,131,150,169,190,210,230,249,270,291,309,330,350,370,389,410,429,449,470,491,510,530,549,569,589,609,629,650,669,689,711,731,750,770,789,810,830,850,869,890,910,929,950,970,990,1010,1029,1049,1071,1090,1110,1129,1150,1169,1191,1210,1229,1249,1270,1289,1310,1330,1350,1370,1390,1409,1430,1450,1471,1489,1509,1530,1549,1569,1589,1609,1630,1650,1669,1690,1709,1730,1749,1769,1789,1809,1829,1850,1869,1889,1910,1930,1949,1970,1989,2010,2029,2049,2070,2089,2109,2130,2150,2170,2189,2210,2230,2250,2271],"xSR":741.5,"ySR":573.95,"xT1":424.9,"yT1":0,"xT2":1058.1,"yT2":0,"toosoon":0,"cond_shown":"Congruent","ratio_trial":300,"L_num":11,"L_den":22,"R_num":1,"R_den":5,"correct_side":1,"subjID":"nataliavaldiviesocadena28","gender":"0","school":"4","age":"9"},{"start_time":1552069218375,"click_time":1552069220145,"finger_time":1552069219565,"fix_duration":250,"trial":16,"RT":1190,"MT":580,"sideResp":2,"stimulus":[],"xmouse":[770,772,776,776,776,776,776,776,776,776,776,776,776,776,776,776,776,776,776,776,776,776,776,776,776,776,776,776,776,776,776,776,776,776,776,776,776,776,776,776,776,776,776,776,776,776,776,777,779,783,785,787,792,796,796,800,804,816,823,832,839,845,861,872,878,882,887,895,901,905,907,912,921,930,939,947,955,967,975,984,994,1008,1040,1061,1072,1081,1091,1111,1120],"ymouse":[655,662,670,670,670,670,670,670,670,670,670,670,670,670,670,670,670,670,670,670,670,670,670,670,670,670,670,670,670,670,670,670,670,670,670,670,670,670,670,670,670,670,670,670,670,670,670,670,665,659,654,648,640,632,629,621,615,597,586,569,552,537,499,482,472,463,455,436,426,416,404,394,373,358,347,338,328,306,294,283,271,257,229,204,188,170,149,105,84],"timestamp_mouse":[9,29,66,69,90,111,130,150,169,191,211,229,251,270,290,309,329,350,369,390,411,429,450,470,490,510,530,550,570,591,610,630,650,670,689,710,730,749,769,790,810,830,851,871,890,910,930,950,969,990,1010,1030,1049,1069,1089,1109,1130,1149,1169,1190,1209,1229,1249,1269,1289,1310,1330,1349,1369,1389,1409,1430,1450,1477,1489,1509,1529,1550,1569,1590,1609,1629,1649,1669,1689,1710,1729,1750,1770],"xSR":741.5,"ySR":573.95,"xT1":424.9,"yT1":0,"xT2":1058.1,"yT2":0,"toosoon":0,"cond_shown":"Incongruent","ratio_trial":300,"L_num":13,"L_den":26,"R_num":12,"R_den":15,"correct_side":2,"subjID":"nataliavaldiviesocadena28","gender":"0","school":"4","age":"9"},{"start_time":1552069223385,"click_time":1552069225365,"finger_time":1552069224744,"fix_duration":1479.5890610979004,"trial":17,"RT":1359,"MT":621,"sideResp":2,"stimulus":[],"xmouse":[769,774,780,796,802,803,803,803,803,803,803,803,803,803,803,803,803,803,803,803,803,803,803,803,803,803,803,803,803,803,803,803,803,803,803,803,803,803,803,803,803,803,803,803,803,803,803,803,803,803,803,803,803,803,803,803,803,803,803,803,803,803,803,804,808,812,819,837,847,858,868,882,914,932,948,959,968,982,985,986,986,986,987,993,995,999,1002,1009,1011,1014,1018,1025,1033,1054,1069,1075,1080,1084,1090,1093],"ymouse":[608,609,611,614,616,616,616,616,616,616,616,616,616,616,616,616,616,616,616,616,616,616,616,616,616,616,616,616,616,616,616,616,616,616,616,616,616,616,616,616,616,616,616,616,616,616,616,616,616,616,616,616,616,616,616,616,616,616,616,616,616,616,616,616,615,611,605,589,579,566,554,535,499,470,444,421,395,337,313,289,267,246,229,195,193,181,176,169,167,164,161,159,156,151,144,139,134,128,109,98],"timestamp_mouse":[1,20,39,59,79,99,120,139,160,179,199,220,239,259,279,299,319,339,360,380,399,419,439,459,479,500,519,539,559,579,599,620,639,659,680,701,720,739,759,780,799,819,840,860,880,900,919,939,960,980,999,1019,1039,1059,1080,1101,1119,1140,1160,1180,1200,1221,1240,1260,1279,1300,1319,1340,1359,1379,1400,1420,1439,1459,1480,1500,1520,1540,1559,1580,1599,1619,1639,1659,1680,1700,1720,1739,1759,1780,1799,1820,1839,1860,1880,1900,1920,1939,1959,1979],"xSR":741.5,"ySR":573.95,"xT1":424.9,"yT1":0,"xT2":1058.1,"yT2":0,"toosoon":0,"cond_shown":"Congruent","ratio_trial":300,"L_num":2,"L_den":20,"R_num":10,"R_den":25,"correct_side":2,"subjID":"nataliavaldiviesocadena28","gender":"0","school":"4","age":"9"},{"start_time":1552069230665,"click_time":1552069232045,"finger_time":1552069231424,"fix_duration":917.8036051227258,"trial":18,"RT":759,"MT":621,"sideResp":2,"stimulus":[],"xmouse":[788,788,788,788,788,788,788,788,788,788,788,788,788,788,788,788,788,788,788,788,788,788,788,788,788,788,788,788,788,788,788,788,788,788,788,800,815,834,873,894,905,911,919,933,940,947,953,960,973,975,976,977,977,977,977,978,981,983,990,994,1000,1006,1012,1023,1028,1034,1039,1046,1060,1070],"ymouse":[619,619,619,619,619,619,619,619,619,619,619,619,619,619,619,619,619,619,619,619,619,619,619,619,619,619,619,619,619,619,619,619,619,619,619,611,598,579,532,491,466,440,414,366,342,319,301,282,246,240,236,234,234,234,234,230,224,219,203,194,181,171,159,140,135,129,124,118,106,97],"timestamp_mouse":[1,20,51,59,79,100,120,139,161,180,200,220,239,260,280,299,320,339,360,381,399,420,439,459,479,499,519,540,560,579,600,619,641,660,679,700,720,741,759,780,799,820,839,859,879,901,919,940,960,979,999,1019,1040,1059,1079,1099,1120,1139,1160,1180,1199,1219,1239,1259,1279,1299,1320,1340,1359,1380],"xSR":741.5,"ySR":573.95,"xT1":424.9,"yT1":0,"xT2":1058.1,"yT2":0,"toosoon":0,"cond_shown":"Congruent","ratio_trial":300,"L_num":7,"L_den":14,"R_num":20,"R_den":25,"correct_side":2,"subjID":"nataliavaldiviesocadena28","gender":"0","school":"4","age":"9"},{"start_time":1552069235839,"click_time":1552069237924,"finger_time":1552069237344,"fix_duration":250,"trial":19,"RT":1505,"MT":580,"sideResp":1,"stimulus":[],"xmouse":[817,817,817,817,817,817,817,817,817,817,817,817,817,817,817,817,817,817,817,817,817,817,817,817,817,817,817,817,817,817,817,817,817,817,817,817,817,817,817,817,817,817,817,817,817,817,817,817,817,817,817,817,817,817,817,817,817,817,817,817,817,817,817,817,817,817,817,817,817,817,817,817,813,801,775,758,743,726,714,692,680,664,654,643,622,615,605,597,589,575,564,557,554,552,552,552,552,552,552,552,550,542,537,532,524],"ymouse":[637,637,637,637,637,637,637,637,637,637,637,637,637,637,637,637,637,637,637,637,637,637,637,637,637,637,637,637,637,637,637,637,637,637,637,637,637,637,637,637,637,637,637,637,637,637,637,637,637,637,637,637,637,637,637,637,637,637,637,637,637,637,637,637,637,637,637,637,637,637,637,637,628,617,586,565,542,510,481,416,385,330,299,270,220,195,167,141,115,68,39,25,18,16,16,16,16,16,16,16,16,16,18,20,22],"timestamp_mouse":[15,28,45,66,86,105,125,145,166,185,205,225,246,266,286,306,326,345,365,385,406,426,445,465,485,507,525,545,565,585,605,626,646,665,686,706,725,746,765,785,805,825,845,865,885,905,925,946,966,985,1006,1026,1045,1067,1086,1106,1125,1146,1166,1186,1206,1227,1247,1267,1285,1306,1326,1346,1366,1385,1406,1425,1445,1466,1485,1505,1525,1546,1566,1585,1606,1626,1646,1666,1685,1705,1726,1746,1765,1785,1806,1826,1845,1866,1885,1905,1925,1946,1967,1985,2006,2025,2045,2065,2085],"xSR":741.5,"ySR":573.95,"xT1":424.9,"yT1":0,"xT2":1058.1,"yT2":0,"toosoon":0,"cond_shown":"Incongruent","ratio_trial":200,"L_num":7,"L_den":10,"R_num":12,"R_den":24,"correct_side":1,"subjID":"nataliavaldiviesocadena28","gender":"0","school":"4","age":"9"},{"start_time":1552069241265,"click_time":1552069243704,"finger_time":1552069242605,"fix_duration":839.13537141303,"trial":20,"RT":1340,"MT":1099,"sideResp":1,"stimulus":[],"xmouse":[781,781,781,781,781,781,781,781,781,781,781,781,781,781,781,781,781,781,781,781,781,781,781,781,781,781,781,781,781,781,782,783,784,784,785,785,785,785,785,785,785,785,785,785,785,785,785,785,785,785,785,785,785,785,785,785,785,785,785,785,785,785,785,775,768,761,756,750,736,731,719,712,705,684,671,657,646,630,609,604,602,602,602,602,599,589,578,564,545,541,539,539,539,539,539,539,539,539,539,539,539,539,539,538,537,535,531,530,527,526,526,526,526,526,526,525,525,525,525,525,525,525,521],"ymouse":[648,648,648,648,648,648,648,648,648,648,648,648,648,648,648,648,648,648,648,648,648,648,648,648,648,648,648,648,648,648,648,646,643,641,641,641,641,641,641,641,641,641,641,641,641,641,641,641,641,641,641,641,641,641,641,641,641,641,641,641,641,638,630,610,598,585,574,560,531,518,492,472,449,397,362,321,280,242,192,179,173,173,173,173,168,157,148,138,121,117,115,115,115,115,115,115,115,115,115,115,115,115,115,109,105,101,93,89,82,80,80,80,80,80,80,79,79,79,79,79,79,79,79],"timestamp_mouse":[1,20,39,59,79,99,119,139,159,179,199,219,239,259,279,300,319,340,359,381,400,421,441,459,479,500,519,539,559,580,599,620,640,659,680,701,719,739,760,781,799,820,840,860,879,899,919,940,960,979,1000,1019,1040,1060,1080,1099,1119,1140,1159,1181,1201,1220,1240,1259,1279,1299,1320,1340,1360,1380,1400,1419,1439,1459,1479,1499,1519,1540,1559,1579,1600,1621,1640,1660,1679,1700,1719,1741,1759,1779,1800,1819,1840,1860,1879,1899,1919,1940,1959,1980,2001,2020,2039,2059,2079,2100,2120,2141,2159,2180,2199,2220,2240,2259,2279,2300,2320,2339,2359,2379,2400,2420,2439],"xSR":741.5,"ySR":573.95,"xT1":424.9,"yT1":0,"xT2":1058.1,"yT2":0,"toosoon":0,"cond_shown":"Incongruent","ratio_trial":100,"L_num":9,"L_den":15,"R_num":14,"R_den":28,"correct_side":1,"subjID":"nataliavaldiviesocadena28","gender":"0","school":"4","age":"9"},{"start_time":1552069246900,"click_time":1552069248046,"finger_time":1552069247724,"fix_duration":1113.2152827809634,"trial":21,"RT":824,"MT":322,"sideResp":1,"stimulus":[],"xmouse":[787,787,787,787,787,787,787,787,787,787,787,787,787,787,787,787,787,787,787,787,787,787,787,787,787,787,787,787,787,787,787,787,787,782,778,775,771,768,762,756,746,702,680,658,635,613,586,578,570,554,543,521,509,497,486,474,455,447],"ymouse":[638,638,638,638,638,638,638,638,638,638,638,638,638,638,638,638,638,638,638,638,638,638,638,638,638,638,638,638,638,638,638,638,637,633,630,628,623,620,609,599,582,526,499,470,444,416,370,349,328,291,265,213,192,173,154,138,107,93],"timestamp_mouse":[14,38,44,64,84,105,124,144,165,184,205,224,245,266,284,305,325,345,365,386,405,424,445,465,484,504,526,546,565,584,605,624,644,665,685,705,724,744,764,785,805,824,844,865,884,904,924,945,965,984,1005,1024,1044,1064,1084,1105,1124,1146],"xSR":741.5,"ySR":573.95,"xT1":424.9,"yT1":0,"xT2":1058.1,"yT2":0,"toosoon":0,"cond_shown":"Incongruent","ratio_trial":100,"L_num":10,"L_den":25,"R_num":8,"R_den":16,"correct_side":2,"subjID":"nataliavaldiviesocadena28","gender":"0","school":"4","age":"9"},{"start_time":1552069252342,"click_time":1552069253846,"finger_time":1552069253685,"fix_duration":1235.5828062246724,"trial":22,"RT":1343,"MT":161,"sideResp":1,"stimulus":[],"xmouse":[791,791,791,791,791,791,791,791,791,791,791,791,791,791,791,791,791,791,791,791,791,791,791,791,791,791,791,791,791,791,791,791,791,791,791,791,791,791,791,791,791,791,791,791,791,791,791,791,791,791,791,791,791,791,791,791,791,791,791,791,791,791,791,791,791,782,776,762,749,724,706,684,656,623,550,490],"ymouse":[624,624,624,624,624,624,624,624,624,624,624,624,624,624,624,624,624,624,624,624,624,624,624,624,624,624,624,624,624,624,624,624,624,624,624,624,624,624,624,624,624,624,624,624,624,624,624,624,624,624,624,624,624,624,624,624,624,624,624,624,624,624,624,624,616,601,587,563,543,495,460,416,364,303,170,69],"timestamp_mouse":[9,22,42,63,82,103,122,143,163,182,203,222,242,263,283,304,322,342,362,382,404,423,442,464,483,502,523,543,562,583,603,622,644,663,684,703,722,742,763,783,803,823,843,863,884,902,923,944,962,982,1003,1023,1042,1062,1082,1102,1123,1143,1163,1184,1203,1223,1244,1262,1282,1303,1323,1343,1363,1382,1402,1422,1443,1462,1482,1504],"xSR":741.5,"ySR":573.95,"xT1":424.9,"yT1":0,"xT2":1058.1,"yT2":0,"toosoon":0,"cond_shown":"Incongruent","ratio_trial":300,"L_num":1,"L_den":2,"R_num":2,"R_den":10,"correct_side":1,"subjID":"nataliavaldiviesocadena28","gender":"0","school":"4","age":"9"},{"start_time":1552069257881,"click_time":1552069259064,"finger_time":1552069258824,"fix_duration":875.6801534743669,"trial":23,"RT":943,"MT":240,"sideResp":2,"stimulus":[],"xmouse":[792,792,792,792,792,792,792,792,792,792,792,792,792,792,792,792,792,792,792,792,792,792,792,792,792,792,792,792,792,792,792,792,792,792,792,792,792,792,792,792,792,792,792,792,797,805,816,851,892,921,947,971,1010,1020,1031,1039,1047,1054,1058,1060],"ymouse":[625,625,625,625,625,625,625,625,625,625,625,625,625,625,625,625,625,625,625,625,625,625,625,625,625,625,625,625,625,625,625,625,625,625,625,625,625,625,625,625,625,625,625,625,621,610,596,546,477,433,390,348,263,232,193,166,141,98,73,63],"timestamp_mouse":[10,23,43,64,84,103,124,144,164,185,204,223,243,265,284,304,323,343,364,383,403,423,443,463,483,504,524,543,564,585,603,624,645,663,684,703,724,744,764,785,803,823,843,863,884,903,923,943,963,984,1004,1023,1043,1063,1084,1103,1124,1144,1163,1183],"xSR":741.5,"ySR":573.95,"xT1":424.9,"yT1":0,"xT2":1058.1,"yT2":0,"toosoon":0,"cond_shown":"Congruent","ratio_trial":100,"L_num":7,"L_den":14,"R_num":9,"R_den":15,"correct_side":2,"subjID":"nataliavaldiviesocadena28","gender":"0","school":"4","age":"9"},{"start_time":1552069264815,"click_time":1552069266284,"finger_time":1552069265724,"fix_duration":769.3601943547512,"trial":24,"RT":909,"MT":560,"sideResp":1,"stimulus":[],"xmouse":[777,777,777,777,777,777,777,777,777,777,777,777,777,777,777,777,777,777,777,777,777,777,777,777,777,777,777,777,777,777,777,777,777,777,777,777,777,777,776,775,758,751,747,744,743,740,737,733,730,725,710,697,687,678,669,657,654,651,650,648,646,636,625,616,606,589,579,570,560,549,529,515,506,495],"ymouse":[626,626,626,626,626,626,626,626,626,626,626,626,626,626,626,626,626,626,626,626,626,626,626,626,626,626,626,626,626,626,626,626,626,626,626,626,626,626,626,626,616,611,607,603,598,589,583,575,568,558,529,504,488,472,459,441,435,431,427,422,416,390,366,349,331,292,269,247,224,201,156,127,105,83],"timestamp_mouse":[10,47,49,69,89,109,131,149,170,189,209,231,250,271,291,310,330,350,369,389,409,430,451,470,489,509,530,550,569,589,609,631,650,669,690,710,729,750,769,789,810,829,849,871,890,909,929,949,969,991,1010,1029,1050,1069,1089,1109,1129,1150,1170,1189,1209,1230,1250,1270,1290,1309,1329,1350,1370,1390,1409,1430,1450,1469],"xSR":741.5,"ySR":573.95,"xT1":424.9,"yT1":0,"xT2":1058.1,"yT2":0,"toosoon":0,"cond_shown":"Incongruent","ratio_trial":200,"L_num":3,"L_den":4,"R_num":11,"R_den":20,"correct_side":1,"subjID":"nataliavaldiviesocadena28","gender":"0","school":"4","age":"9"},{"start_time":1552069270165,"click_time":1552069271846,"finger_time":1552069271324,"fix_duration":317.30320923166744,"trial":25,"RT":1159,"MT":522,"sideResp":1,"stimulus":[],"xmouse":[806,806,806,806,806,806,806,806,806,806,806,806,806,806,806,806,806,806,806,806,806,806,806,806,806,806,806,806,806,806,806,806,806,805,805,805,805,805,805,805,805,805,805,805,805,805,805,805,805,805,805,805,805,801,797,783,766,749,699,650,604,577,564,555,553,553,553,553,551,551,549,548,546,542,539,534,529,525,518,517,515,512,508,496,489],"ymouse":[618,618,618,618,618,618,618,618,618,618,618,618,618,618,618,618,618,618,618,618,618,618,618,618,618,618,618,618,618,618,618,618,617,617,617,617,617,617,617,617,617,617,617,617,617,617,617,617,617,617,617,617,617,617,614,609,599,591,569,548,528,512,500,471,459,448,437,429,413,405,397,390,380,348,335,319,303,287,247,224,201,180,161,121,95],"timestamp_mouse":[6,21,40,59,79,100,120,141,159,179,200,220,240,259,280,299,319,340,359,379,399,420,440,460,479,499,519,540,559,581,599,619,639,660,680,699,721,739,759,781,799,820,840,859,879,900,921,939,960,979,1000,1020,1039,1059,1080,1099,1119,1140,1159,1179,1199,1219,1240,1260,1281,1300,1320,1340,1359,1379,1399,1420,1439,1460,1479,1500,1519,1540,1560,1579,1599,1619,1641,1659,1681],"xSR":741.5,"ySR":573.95,"xT1":424.9,"yT1":0,"xT2":1058.1,"yT2":0,"toosoon":0,"cond_shown":"Incongruent","ratio_trial":200,"L_num":7,"L_den":10,"R_num":14,"R_den":28,"correct_side":1,"subjID":"nataliavaldiviesocadena28","gender":"0","school":"4","age":"9"},{"start_time":1552069276607,"click_time":1552069278224,"finger_time":1552069277425,"fix_duration":1361.386369077593,"trial":26,"RT":818,"MT":799,"sideResp":1,"stimulus":[],"xmouse":[775,775,775,775,775,775,775,775,775,775,775,775,775,775,775,775,775,775,775,775,775,775,775,775,775,775,775,775,775,775,775,775,775,775,775,775,775,776,776,777,780,781,781,781,773,746,732,723,717,712,709,706,705,704,701,688,680,671,661,650,626,611,600,590,582,572,569,565,561,557,551,551,551,551,551,551,551,550,542,527,486],"ymouse":[599,599,599,599,599,599,599,599,599,599,599,599,599,599,599,599,599,599,599,599,599,599,599,599,599,599,599,599,599,599,599,599,599,599,599,599,599,594,590,581,543,517,492,464,432,368,341,323,309,300,290,283,279,275,270,255,245,237,226,214,187,170,156,147,138,125,119,111,104,97,91,91,91,90,90,90,90,90,89,87,80],"timestamp_mouse":[17,38,57,77,97,117,137,158,179,197,218,239,257,277,298,318,338,357,377,397,418,437,457,477,499,517,538,558,577,597,617,637,658,678,697,718,737,758,777,798,818,837,857,877,897,917,937,957,978,997,1017,1039,1057,1079,1098,1118,1137,1158,1178,1198,1217,1237,1257,1277,1297,1317,1337,1358,1377,1397,1417,1438,1457,1478,1498,1518,1537,1558,1578,1598,1617],"xSR":741.5,"ySR":573.95,"xT1":424.9,"yT1":0,"xT2":1058.1,"yT2":0,"toosoon":0,"cond_shown":"Congruent","ratio_trial":300,"L_num":24,"L_den":30,"R_num":8,"R_den":16,"correct_side":1,"subjID":"nataliavaldiviesocadena28","gender":"0","school":"4","age":"9"},{"start_time":1552069281162,"click_time":1552069282624,"finger_time":1552069281765,"fix_duration":1234.271854608801,"trial":27,"RT":603,"MT":859,"sideResp":1,"stimulus":[],"xmouse":[792,792,792,792,792,792,792,792,792,792,792,792,792,792,792,792,792,792,792,792,792,792,792,792,792,792,792,792,780,769,759,750,740,729,705,688,677,668,648,639,631,622,614,598,583,573,560,547,522,512,506,503,503,503,503,503,503,503,503,503,503,503,503,502,502,501,501,501,501,501,501,501,501,501],"ymouse":[619,619,619,619,619,619,619,619,619,619,619,619,619,619,619,619,619,619,619,619,619,619,619,619,619,619,619,619,601,585,569,554,538,519,481,452,432,415,378,360,340,321,301,262,233,215,194,174,139,126,116,113,112,112,112,112,112,112,112,112,112,112,111,109,105,103,103,103,103,103,103,103,101,94],"timestamp_mouse":[8,22,42,62,83,103,124,142,162,183,203,223,243,262,284,303,323,343,362,382,404,423,443,462,483,503,523,542,563,582,603,622,642,662,682,702,723,742,762,782,802,822,843,862,882,903,923,942,962,982,1002,1023,1042,1063,1082,1102,1123,1143,1162,1183,1203,1222,1242,1262,1282,1302,1323,1342,1362,1383,1403,1423,1443,1462],"xSR":741.5,"ySR":573.95,"xT1":424.9,"yT1":0,"xT2":1058.1,"yT2":0,"toosoon":0,"cond_shown":"Congruent","ratio_trial":300,"L_num":24,"L_den":30,"R_num":8,"R_den":16,"correct_side":1,"subjID":"nataliavaldiviesocadena28","gender":"0","school":"4","age":"9"},{"start_time":1552069302868,"click_time":1552069304005,"finger_time":1552069303605,"fix_duration":741.0169722451985,"trial":28,"RT":737,"MT":400,"sideResp":1,"stimulus":[],"xmouse":[783,783,783,783,783,783,783,783,783,783,783,783,783,783,783,783,783,783,783,783,783,783,783,783,783,783,783,783,783,783,783,783,779,770,759,751,746,740,730,724,709,694,661,651,641,634,631,625,618,611,596,584,562,549,536,523,509],"ymouse":[619,619,619,619,619,619,619,619,619,619,619,619,619,619,619,619,619,619,619,619,619,619,619,619,619,619,619,619,619,619,619,619,611,592,579,574,570,561,537,525,496,474,429,412,394,380,368,340,324,306,278,256,206,172,140,114,87],"timestamp_mouse":[18,39,58,77,98,117,138,158,177,197,218,237,257,277,298,318,337,357,378,398,419,438,458,477,498,518,538,557,578,597,618,637,657,677,698,717,737,757,778,798,818,837,857,877,898,918,938,957,977,998,1018,1037,1057,1077,1098,1117,1137],"xSR":741.5,"ySR":573.95,"xT1":424.9,"yT1":0,"xT2":1058.1,"yT2":0,"toosoon":0,"cond_shown":"Congruent","ratio_trial":300,"L_num":20,"L_den":25,"R_num":8,"R_den":16,"correct_side":1,"subjID":"nataliavaldiviesocadena28","gender":"0","school":"4","age":"9"},{"start_time":1552069307820,"click_time":1552069309285,"finger_time":1552069308905,"fix_duration":831.0630187425674,"trial":29,"RT":1085,"MT":380,"sideResp":2,"stimulus":[],"xmouse":[763,763,763,763,763,763,763,763,763,763,763,763,763,763,763,763,763,763,763,763,763,763,762,762,762,762,762,762,762,762,762,762,762,762,762,762,762,762,762,762,762,762,762,762,762,762,762,762,762,762,764,774,797,811,848,871,894,912,930,955,963,972,980,999,1029,1042,1050,1059,1064,1081,1089,1105,1116],"ymouse":[631,631,631,631,631,631,631,631,631,631,631,631,631,631,631,631,631,631,631,631,631,631,631,631,631,631,631,630,629,627,627,627,627,627,626,626,625,624,624,624,624,624,624,624,624,624,624,624,624,624,619,611,588,568,512,490,472,456,441,411,397,383,368,335,290,269,249,230,209,169,148,115,91],"timestamp_mouse":[21,46,65,85,106,126,146,166,185,206,226,246,266,285,306,326,345,365,386,405,425,446,466,486,505,525,545,565,585,605,626,647,665,686,706,725,745,766,786,806,826,846,865,886,905,926,946,965,985,1006,1026,1045,1066,1085,1105,1125,1146,1165,1185,1205,1226,1245,1265,1285,1306,1325,1345,1365,1385,1405,1425,1445,1465],"xSR":741.5,"ySR":573.95,"xT1":424.9,"yT1":0,"xT2":1058.1,"yT2":0,"toosoon":0,"cond_shown":"Incongruent","ratio_trial":300,"L_num":13,"L_den":26,"R_num":12,"R_den":15,"correct_side":2,"subjID":"nataliavaldiviesocadena28","gender":"0","school":"4","age":"9"},{"start_time":1552069313345,"click_time":1552069315425,"finger_time":1552069314265,"fix_duration":698.6159158381334,"trial":30,"RT":920,"MT":1160,"sideResp":1,"stimulus":[],"xmouse":[796,796,796,796,796,796,796,796,796,795,795,793,793,793,792,792,792,792,792,792,792,792,792,792,792,792,792,792,792,792,792,792,792,792,792,792,792,792,792,792,792,792,792,792,799,812,844,873,913,1006,1050,1089,1119,1141,1155,1180,1188,1192,1193,1193,1193,1193,1193,1193,1193,1193,1193,1193,1193,1193,1193,1193,1193,1193,1145,1101,1081,1073,1073,1073,1072,1071,1065,1054,1020,1007,1001,997,995,985,976,961,941,905,717,645,588,567,555,551,551,548,541,534,515],"ymouse":[597,597,597,597,597,597,597,597,597,597,597,597,597,597,597,597,597,597,597,597,597,597,597,597,597,597,597,597,597,597,597,597,597,597,597,597,597,597,597,597,597,597,597,597,588,577,561,545,521,467,436,406,378,352,330,281