[{"start_time":1552055011195,"click_time":1552055026987,"finger_time":1552055011207,"fix_duration":1446.4971858687031,"trial":0,"RT":12,"MT":15780,"sideResp":2,"stimulus":"img/750/randomdotsizeEA/R/11_Ratio_750_L_12_R_16.png","xmouse":[789,789,789,789,789,789,789,789,789,789,789,789,789,789,789,789,789,789,789,789,789,789,789,789,789,789,789,789,789,789,789,789,789,789,789,789,789,789,789,789,789,789,789,789,789,789,789,789,785,778,769,765,758,756,754,753,752,750,748,747,744,743,742,743,743,745,749,751,754,756,758,764,772,776,776,776,778,781,782,783,785,786,786,786,786,786,786,786,786,786,786,786,786,786,786,786,786,786,786,786,786,788,790,791,791,791,793,796,796,796,796,796,796,796,796,796,796,796,796,796,796,796,796,796,796,796,796,796,796,796,796,796,796,796,796,796,796,796,796,796,796,796,796,796,796,796,796,796,796,796,796,796,796,796,796,796,796,796,796,796,796,796,796,796,796,796,796,796,796,796,796,796,796,796,796,796,796,796,796,796,796,796,796,796,796,796,796,796,796,796,796,796,796,796,796,796,796,796,796,796,796,796,796,796,796,796,796,796,796,796,796,796,796,796,796,796,796,796,796,796,796,796,796,796,796,796,796,796,796,796,796,796,796,796,796,796,796,796,796,796,796,796,796,796,796,796,796,796,796,796,796,796,796,796,796,796,796,796,796,796,796,796,796,796,796,796,796,796,796,796,796,796,796,796,796,796,796,796,796,796,796,796,796,796,796,796,796,796,796,796,796,796,796,796,796,796,796,796,796,796,796,796,796,796,796,796,796,796,796,796,796,796,796,796,796,796,796,796,796,796,796,796,796,796,796,796,796,796,796,796,796,796,796,796,796,796,796,796,796,796,796,796,796,796,796,796,796,796,796,796,796,796,796,796,796,796,796,796,796,796,796,796,796,796,796,796,796,796,796,796,796,796,796,796,796,796,796,796,796,796,796,796,796,796,796,796,796,796,796,796,796,796,796,796,796,796,796,796,796,796,796,796,796,796,796,796,796,796,796,796,796,796,796,796,796,796,796,796,796,796,796,796,796,796,796,796,796,796,796,796,796,796,796,796,796,796,796,796,796,796,796,796,796,796,796,796,796,796,796,796,796,796,796,796,796,796,796,796,796,796,796,796,796,796,796,796,796,796,796,796,796,796,796,796,796,796,796,796,796,796,796,796,796,796,796,796,796,796,796,796,796,796,796,796,796,796,796,796,796,796,796,796,796,796,796,796,796,796,796,796,796,796,796,796,796,796,796,796,796,796,797,807,991,1098,1168,1199,1200,1200,1200,1200,1200,1200,1200,1200,1200,1189,1170,1151,1085,1040,1005,984,976,971,970,968,962,958,950,949,949,949,949,942,930,909,893,879,858,851,846,844,840,838,837,836,835,834,820,806,795,784,771,767,767,767,767,767,767,767,767,767,767,767,767,767,767,767,767,767,767,767,767,767,767,767,767,767,767,767,767,767,767,767,767,767,767,767,767,767,767,767,767,767,767,767,767,768,792,811,821,827,828,828,828,828,828,826,824,824,824,824,823,819,811,804,798,790,778,776,775,775,775,775,775,775,775,774,771,769,768,768,768,776,779,786,792,799,804,804,804,804,804,804,804,804,804,804,804,804,804,804,804,804,804,804,804,804,804,804,804,804,804,804,804,804,804,804,804,804,804,804,804,804,804,804,804,804,804,804,804,804,804,804,804,804,804,804,804,804,804,804,804,804,804,804,804,804,804,804,804,804,804,804,804,804,804,804,804,804,804,804,804,804,804,804,804,804,804,804,805,808,822,854,874,887,898,912,944,962,980,998,1014,1045,1067,1079,1090,1105,1129,1137,1145,1151,1158,1170,1176,1180,1183,1185,1192,1192,1194,1194,1194,1194,1194,1194,1194,1194,1193,1192,1189,1186,1181,1168,1164,1163,1163,1163,1161,1151],"ymouse":[512,512,512,512,512,512,512,512,512,512,512,512,512,512,512,512,512,512,512,512,512,512,512,512,512,512,512,512,512,512,512,512,512,512,512,512,512,512,512,512,512,512,512,512,512,512,512,513,518,526,537,541,549,552,556,558,560,566,569,574,581,586,596,599,603,607,616,620,623,626,629,635,641,641,641,641,641,641,641,641,640,640,640,639,639,639,639,639,639,639,639,639,639,639,639,639,639,639,639,639,639,639,639,639,639,639,638,635,635,635,635,635,635,635,634,633,629,621,620,620,620,620,620,620,620,620,620,620,620,620,620,620,620,620,620,620,620,620,620,620,620,620,620,620,620,620,620,620,620,620,620,620,620,620,620,620,620,620,620,620,620,620,620,620,620,620,620,620,620,620,620,620,620,620,620,620,620,620,620,620,620,620,620,620,620,620,620,620,620,620,620,620,620,620,620,620,620,620,620,620,620,620,620,620,620,620,620,620,620,620,620,620,620,620,620,620,620,620,620,620,620,620,620,620,620,620,620,620,620,620,620,620,620,620,620,620,620,620,620,620,620,620,620,620,620,620,620,620,620,620,620,620,620,620,620,620,620,620,620,620,620,620,620,620,620,620,620,620,620,620,620,620,620,620,620,620,620,620,620,620,620,620,620,620,620,620,620,620,620,620,620,620,620,620,620,620,620,620,620,620,620,620,620,620,620,620,620,620,620,620,620,620,620,620,620,620,620,620,620,620,620,620,620,620,620,620,620,620,620,620,620,620,620,620,620,620,620,620,620,620,620,620,620,620,620,620,620,620,620,620,620,620,620,620,620,620,620,620,620,620,620,620,620,620,620,620,620,620,620,620,620,620,620,620,620,620,620,620,620,620,620,620,620,620,620,620,620,620,620,620,620,620,620,620,620,620,620,620,620,620,620,620,620,620,620,620,620,620,620,620,620,620,620,620,620,620,620,620,620,620,620,620,620,620,620,620,620,620,620,620,620,620,620,620,620,620,620,620,620,620,620,620,620,620,620,620,620,620,620,620,620,620,620,620,620,620,620,620,620,620,620,620,620,620,620,620,620,620,620,620,620,620,620,620,620,620,620,620,620,620,620,620,620,620,620,620,620,620,620,620,620,620,620,620,620,620,620,620,620,620,620,620,620,620,620,620,620,620,620,620,620,620,620,620,620,620,620,620,620,620,619,614,513,473,453,441,440,440,440,440,440,440,440,440,440,440,440,453,496,523,544,556,560,564,565,565,573,578,585,585,585,585,586,589,594,604,612,620,630,633,636,636,636,636,636,636,636,636,636,636,634,629,626,624,624,624,624,624,624,624,624,624,624,624,624,624,624,624,624,624,624,624,624,624,624,624,624,624,624,624,624,624,624,624,624,624,624,624,624,624,624,624,624,624,624,624,624,624,624,624,627,630,632,632,632,632,633,635,637,638,638,638,639,641,644,647,651,654,661,662,662,662,662,662,662,662,662,662,662,660,657,655,652,649,648,647,645,644,643,643,643,643,643,643,643,643,643,643,643,643,643,643,643,643,643,643,643,643,643,643,643,643,643,643,643,643,643,643,643,643,643,643,643,643,643,643,643,643,643,643,643,643,643,643,643,643,643,643,643,643,643,643,643,643,643,643,643,643,643,643,643,643,643,643,643,643,643,643,643,643,643,643,643,643,643,643,643,643,643,643,643,643,640,630,621,615,608,601,582,572,561,549,536,508,482,465,449,429,382,352,329,305,284,236,203,182,160,140,108,100,95,94,94,94,94,93,93,90,86,85,84,84,81,73,68,67,67,67,66,64],"timestamp_mouse":[12,32,52,72,93,113,132,152,172,193,213,232,252,271,292,312,332,353,372,393,412,433,451,471,493,513,533,552,572,592,613,633,653,672,693,711,733,752,772,792,813,833,853,872,892,912,932,952,972,992,1013,1032,1052,1072,1092,1112,1131,1151,1172,1192,1212,1232,1252,1272,1293,1312,1332,1352,1372,1392,1413,1432,1452,1471,1493,1512,1532,1552,1572,1591,1612,1632,1652,1673,1691,1711,1733,1752,1772,1793,1812,1833,1852,1873,1893,1911,1932,1952,1973,1992,2011,2031,2052,2072,2092,2112,2133,2153,2173,2193,2211,2232,2251,2272,2292,2312,2333,2353,2372,2392,2412,2433,2451,2473,2493,2512,2532,2552,2572,2593,2612,2632,2652,2672,2693,2712,2732,2752,2773,2792,2812,2832,2853,2872,2892,2912,2931,2953,2973,2993,3013,3032,3053,3072,3092,3113,3132,3152,3172,3193,3213,3231,3251,3271,3292,3312,3332,3352,3373,3392,3412,3432,3452,3471,3491,3511,3533,3552,3572,3592,3612,3632,3653,3672,3693,3712,3732,3752,3773,3792,3812,3832,3851,3873,3893,3912,3932,3953,3971,3993,4013,4034,4051,4071,4091,4112,4131,4151,4173,4193,4212,4233,4253,4273,4292,4312,4332,4353,4371,4393,4413,4432,4453,4472,4492,4513,4533,4552,4572,4592,4613,4633,4652,4672,4693,4713,4732,4753,4772,4793,4812,4832,4853,4873,4891,4913,4932,4953,4971,4992,5013,5031,5051,5072,5092,5112,5132,5152,5172,5193,5213,5232,5252,5273,5293,5311,5331,5353,5373,5393,5411,5431,5453,5472,5493,5512,5531,5551,5573,5592,5612,5632,5652,5673,5692,5712,5732,5753,5772,5793,5812,5832,5852,5872,5892,5913,5932,5951,5972,5993,6012,6032,6052,6073,6092,6113,6133,6152,6173,6193,6212,6232,6253,6271,6292,6313,6333,6352,6371,6393,6413,6432,6452,6473,6492,6513,6533,6552,6572,6593,6611,6632,6652,6673,6692,6713,6732,6753,6772,6792,6812,6833,6853,6872,6893,6912,6933,6952,6973,6993,7013,7031,7053,7073,7092,7113,7131,7151,7173,7193,7213,7232,7252,7272,7293,7311,7331,7352,7373,7393,7412,7433,7453,7473,7493,7513,7531,7551,7573,7592,7612,7632,7652,7673,7692,7712,7733,7752,7772,7793,7813,7832,7851,7873,7893,7913,7931,7951,7973,7993,8013,8031,8052,8073,8092,8113,8133,8151,8173,8193,8213,8231,8253,8272,8292,8313,8332,8353,8373,8393,8413,8432,8453,8473,8493,8512,8533,8553,8573,8592,8611,8633,8653,8673,8692,8713,8732,8753,8772,8793,8813,8831,8853,8873,8892,8911,8933,8952,8972,8993,9011,9033,9052,9073,9093,9112,9133,9152,9173,9193,9212,9232,9252,9273,9291,9312,9333,9352,9373,9391,9413,9432,9452,9473,9493,9511,9533,9552,9571,9591,9612,9632,9653,9671,9693,9712,9731,9753,9772,9792,9812,9833,9853,9872,9892,9913,9931,9953,9973,9993,10013,10031,10052,10072,10093,10113,10132,10151,10172,10192,10211,10232,10252,10271,10292,10311,10332,10352,10372,10393,10412,10432,10452,10471,10493,10512,10532,10551,10573,10592,10613,10632,10653,10672,10692,10712,10731,10752,10772,10792,10813,10832,10853,10872,10892,10912,10933,10952,10973,10992,11012,11032,11051,11072,11092,11112,11133,11151,11172,11192,11211,11232,11253,11272,11292,11313,11333,11352,11372,11392,11412,11432,11452,11473,11492,11512,11532,11553,11572,11593,11611,11632,11651,11673,11693,11712,11732,11752,11773,11793,11812,11832,11851,11873,11893,11913,11932,11952,11973,11993,12012,12031,12053,12073,12093,12113,12132,12153,12172,12192,12213,12233,12253,12271,12293,12311,12331,12352,12373,12392,12413,12432,12453,12472,12492,12512,12533,12552,12572,12593,12611,12632,12653,12672,12693,12712,12733,12752,12773,12792,12813,12831,12853,12873,12893,12911,12933,12952,12972,12992,13012,13032,13051,13072,13091,13112,13133,13152,13173,13192,13212,13231,13251,13273,13292,13312,13333,13351,13372,13393,13412,13432,13451,13473,13493,13513,13531,13552,13573,13593,13612,13632,13653,13673,13693,13713,13733,13752,13773,13793,13813,13832,13853,13873,13892,13911,13933,13953,13973,13993,14013,14031,14051,14073,14092,14112,14133,14151,14171,14192,14213,14233,14253,14271,14291,14313,14332,14352,14373,14393,14411,14433,14453,14473,14493,14513,14532,14551,14572,14593,14612,14631,14653,14672,14692,14712,14732,14752,14772,14793,14812,14832,14851,14872,14891,14912,14933,14952,14971,14992,15012,15032,15052,15072,15092,15112,15131,15152,15171,15193,15212,15232,15253,15272,15292,15312,15333,15351,15372,15392,15412,15432,15452,15472,15492,15512,15532,15552,15572,15592,15613,15632,15652,15672,15692,15712,15731,15752,15772,15792],"xSR":741.5,"ySR":469.95,"xT1":424.9,"yT1":0,"xT2":1058.1,"yT2":0,"toosoon":0,"cond_shown":"randomdotsizeEA","ratio_trial":750,"smaller_num":"12","larger_num":"16","correct_side":2,"subjID":"anamariaavendaño","gender":"1","age":"9","school":"4","test":{"fix_dur":[250,1500],"timestim":300,"targets_dim":[100,100],"targets_relative_coord":[0.3,0.7],"size_stim":[880,420],"start_dim":[100,100],"size_start":[300,300],"size_fix":60,"samplingrate":20,"img_types":["equaldotsize","equaldotanddens","randomdotsizeEA"],"ratios":[250,500,750,900],"rep_conds":9,"nTrials":120,"trials_to_rest":500,"Trials_order":[20,23,36,119,40,98,66,70,103,63,81,76,83,13,107,44,43,71,52,3,89,7,69,24,38,91,65,99,110,100,59,57,109,35,2,82,46,85,113,117,118,34,6,30,41,108,56,88,80,58,32,75,51,29,72,64,74,86,10,42,68,26,12,27,47,17,49,105,96,16,101,93,19,11,102,14,77,54,22,21,15,87,4,1,90,104,5,79,9,67,39,48,61,97,31,116,92,33,111,94,55,28,60,95,37,62,8,115,106,112,50,45,53,25,18,0,84,78,73,114],"cond_shown":["randomdotsizeEA","randomdotsizeEA","equaldotsize","randomdotsizeEA","equaldotanddens","randomdotsizeEA","equaldotsize","equaldotanddens","equaldotanddens","equaldotsize","equaldotsize","equaldotanddens","randomdotsizeEA","equaldotanddens","randomdotsizeEA","randomdotsizeEA","equaldotanddens","randomdotsizeEA","equaldotanddens","equaldotsize","randomdotsizeEA","equaldotanddens","equaldotsize","equaldotsize","randomdotsizeEA","equaldotanddens","randomdotsizeEA","equaldotsize","randomdotsizeEA","equaldotanddens","randomdotsizeEA","equaldotsize","equaldotanddens","randomdotsizeEA","randomdotsizeEA","equaldotanddens","equaldotanddens","equaldotanddens","randomdotsizeEA","equaldotsize","equaldotanddens","equaldotanddens","equaldotsize","equaldotsize","randomdotsizeEA","equaldotsize","randomdotsizeEA","equaldotanddens","randomdotsizeEA","equaldotanddens","randomdotsizeEA","equaldotsize","equaldotsize","randomdotsizeEA","equaldotsize","equaldotanddens","randomdotsizeEA","randomdotsizeEA","equaldotanddens","equaldotsize","randomdotsizeEA","randomdotsizeEA","equaldotsize","equaldotsize","randomdotsizeEA","randomdotsizeEA","equaldotanddens","equaldotsize","equaldotsize","equaldotanddens","randomdotsizeEA","equaldotsize","equaldotanddens","randomdotsizeEA","equaldotsize","randomdotsizeEA","randomdotsizeEA","equaldotsize","equaldotanddens","equaldotsize","equaldotsize","equaldotsize","equaldotanddens","equaldotanddens","equaldotsize","randomdotsizeEA","randomdotsizeEA","equaldotanddens","equaldotsize","equaldotanddens","equaldotsize","equaldotsize","equaldotanddens","equaldotanddens","equaldotanddens","randomdotsizeEA","randomdotsizeEA","equaldotsize","equaldotsize","equaldotanddens","equaldotanddens","equaldotanddens","equaldotsize","randomdotsizeEA","equaldotanddens","randomdotsizeEA","randomdotsizeEA","equaldotanddens","equaldotanddens","equaldotanddens","randomdotsizeEA","equaldotsize","randomdotsizeEA","equaldotanddens","equaldotsize","equaldotsize","equaldotsize","equaldotsize","equaldotanddens","equaldotsize"],"ratio_trial":[750,900,250,900,500,250,750,900,750,500,900,500,900,250,900,750,750,900,500,500,500,750,900,250,250,750,500,500,250,500,900,900,250,900,250,900,900,250,500,900,900,900,750,750,500,250,750,500,750,900,750,500,500,500,250,500,250,250,900,750,750,250,250,500,900,500,250,900,250,500,500,900,750,900,750,250,500,750,900,900,500,500,500,250,750,750,500,750,900,750,500,250,250,250,750,750,750,900,500,900,750,500,250,900,250,250,750,750,900,500,250,900,500,250,750,250,250,750,250,750],"smaller_num":["12","9","3","18","10","2","9","18","15","1","18","6","18","4","18","3","6","18","4","5","9","18","9","2","6","3","2","2","2","6","18","18","2","9","4","18","18","2","5","18","9","18","15","6","6","3","3","2","15","18","15","10","6","2","3","5","3","2","9","15","15","2","2","9","9","1","2","9","2","2","3","18","6","9","3","3","6","15","9","18","9","9","5","3","15","18","2","12","9","12","9","3","2","3","15","15","18","9","9","9","15","9","3","18","6","2","15","15","18","3","2","9","9","2","3","2","2","6","1","3"],"larger_num":["16","10","12","20","20","8","12","20","20","2","20","12","20","16","20","4","8","20","8","10","18","24","10","8","24","4","4","4","8","12","20","20","8","10","16","20","20","8","10","20","10","20","20","8","12","12","4","4","20","20","20","20","12","4","12","10","12","8","10","20","20","8","8","18","10","2","8","10","8","4","6","20","8","10","4","12","12","20","10","20","18","18","10","12","20","24","4","16","10","16","18","12","8","12","20","20","24","10","18","10","20","18","12","20","24","8","20","20","20","6","8","10","18","8","4","8","8","8","4","4"],"correct_side":[2,2,2,1,2,1,2,1,2,2,2,1,1,2,1,1,1,1,1,1,1,1,2,1,2,1,1,1,1,1,2,1,1,1,2,2,1,1,1,1,2,2,2,2,1,1,2,1,2,1,2,2,1,1,2,1,2,1,2,2,1,2,2,1,2,2,1,2,1,2,2,1,1,2,1,2,1,1,2,2,2,2,1,1,2,1,2,2,1,2,1,1,1,2,2,1,1,2,2,2,2,1,1,1,1,1,2,2,2,2,1,1,1,1,1,1,1,1,2,2],"img_shown":["img/750/randomdotsizeEA/R/11_Ratio_750_L_12_R_16.png","img/900/randomdotsizeEA/R/5_Ratio_900_L_9_R_10.png","img/250/equaldotsize/R/11_Ratio_250_L_3_R_12.png","img/900/randomdotsizeEA/L/8_Ratio_900_L_20_R_18.png","img/500/equaldotanddens/R/3_Ratio_500_L_10_R_20.png","img/250/randomdotsizeEA/L/7_Ratio_250_L_8_R_2.png","img/750/equaldotsize/R/15_Ratio_750_L_9_R_12.png","img/900/equaldotanddens/L/4_Ratio_900_L_20_R_18.png","img/750/equaldotanddens/R/4_Ratio_750_L_15_R_20.png","img/500/equaldotsize/R/15_Ratio_500_L_1_R_2.png","img/900/equaldotsize/R/9_Ratio_900_L_18_R_20.png","img/500/equaldotanddens/L/11_Ratio_500_L_12_R_6.png","img/900/randomdotsizeEA/L/10_Ratio_900_L_20_R_18.png","img/250/equaldotanddens/R/10_Ratio_250_L_4_R_16.png","img/900/randomdotsizeEA/L/8_Ratio_900_L_20_R_18.png","img/750/randomdotsizeEA/L/8_Ratio_750_L_4_R_3.png","img/750/equaldotanddens/L/14_Ratio_750_L_8_R_6.png","img/900/randomdotsizeEA/L/2_Ratio_900_L_20_R_18.png","img/500/equaldotanddens/L/8_Ratio_500_L_8_R_4.png","img/500/equaldotsize/L/7_Ratio_500_L_10_R_5.png","img/500/randomdotsizeEA/L/4_Ratio_500_L_18_R_9.png","img/750/equaldotanddens/L/6_Ratio_750_L_24_R_18.png","img/900/equaldotsize/R/3_Ratio_900_L_9_R_10.png","img/250/equaldotsize/L/1_Ratio_250_L_8_R_2.png","img/250/randomdotsizeEA/R/6_Ratio_250_L_6_R_24.png","img/750/equaldotanddens/L/8_Ratio_750_L_4_R_3.png","img/500/randomdotsizeEA/L/5_Ratio_500_L_4_R_2.png","img/500/equaldotsize/L/10_Ratio_500_L_4_R_2.png","img/250/randomdotsizeEA/L/3_Ratio_250_L_8_R_2.png","img/500/equaldotanddens/L/11_Ratio_500_L_12_R_6.png","img/900/randomdotsizeEA/R/11_Ratio_900_L_18_R_20.png","img/900/equaldotsize/L/4_Ratio_900_L_20_R_18.png","img/250/equaldotanddens/L/3_Ratio_250_L_8_R_2.png","img/900/randomdotsizeEA/L/1_Ratio_900_L_10_R_9.png","img/250/randomdotsizeEA/R/10_Ratio_250_L_4_R_16.png","img/900/equaldotanddens/R/12_Ratio_900_L_18_R_20.png","img/900/equaldotanddens/L/4_Ratio_900_L_20_R_18.png","img/250/equaldotanddens/L/1_Ratio_250_L_8_R_2.png","img/500/randomdotsizeEA/L/7_Ratio_500_L_10_R_5.png","img/900/equaldotsize/L/2_Ratio_900_L_20_R_18.png","img/900/equaldotanddens/R/15_Ratio_900_L_9_R_10.png","img/900/equaldotanddens/R/14_Ratio_900_L_18_R_20.png","img/750/equaldotsize/R/4_Ratio_750_L_15_R_20.png","img/750/equaldotsize/R/2_Ratio_750_L_6_R_8.png","img/500/randomdotsizeEA/L/11_Ratio_500_L_12_R_6.png","img/250/equaldotsize/L/15_Ratio_250_L_12_R_3.png","img/750/randomdotsizeEA/R/12_Ratio_750_L_3_R_4.png","img/500/equaldotanddens/L/10_Ratio_500_L_4_R_2.png","img/750/randomdotsizeEA/R/4_Ratio_750_L_15_R_20.png","img/900/equaldotanddens/L/4_Ratio_900_L_20_R_18.png","img/750/randomdotsizeEA/R/3_Ratio_750_L_15_R_20.png","img/500/equaldotsize/R/3_Ratio_500_L_10_R_20.png","img/500/equaldotsize/L/13_Ratio_500_L_12_R_6.png","img/500/randomdotsizeEA/L/5_Ratio_500_L_4_R_2.png","img/250/equaldotsize/R/9_Ratio_250_L_3_R_12.png","img/500/equaldotanddens/L/7_Ratio_500_L_10_R_5.png","img/250/randomdotsizeEA/R/9_Ratio_250_L_3_R_12.png","img/250/randomdotsizeEA/L/1_Ratio_250_L_8_R_2.png","img/900/equaldotanddens/R/15_Ratio_900_L_9_R_10.png","img/750/equaldotsize/R/5_Ratio_750_L_15_R_20.png","img/750/randomdotsizeEA/L/1_Ratio_750_L_20_R_15.png","img/250/randomdotsizeEA/R/13_Ratio_250_L_2_R_8.png","img/250/equaldotsize/R/13_Ratio_250_L_2_R_8.png","img/500/equaldotsize/L/4_Ratio_500_L_18_R_9.png","img/900/randomdotsizeEA/R/5_Ratio_900_L_9_R_10.png","img/500/randomdotsizeEA/R/12_Ratio_500_L_1_R_2.png","img/250/equaldotanddens/L/7_Ratio_250_L_8_R_2.png","img/900/equaldotsize/R/5_Ratio_900_L_9_R_10.png","img/250/equaldotsize/L/7_Ratio_250_L_8_R_2.png","img/500/equaldotanddens/R/9_Ratio_500_L_2_R_4.png","img/500/randomdotsizeEA/R/2_Ratio_500_L_3_R_6.png","img/900/equaldotsize/L/2_Ratio_900_L_20_R_18.png","img/750/equaldotanddens/L/13_Ratio_750_L_8_R_6.png","img/900/randomdotsizeEA/R/5_Ratio_900_L_9_R_10.png","img/750/equaldotsize/L/10_Ratio_750_L_4_R_3.png","img/250/randomdotsizeEA/R/9_Ratio_250_L_3_R_12.png","img/500/randomdotsizeEA/L/11_Ratio_500_L_12_R_6.png","img/750/equaldotsize/L/1_Ratio_750_L_20_R_15.png","img/900/equaldotanddens/R/6_Ratio_900_L_9_R_10.png","img/900/equaldotsize/R/9_Ratio_900_L_18_R_20.png","img/500/equaldotsize/R/6_Ratio_500_L_9_R_18.png","img/500/equaldotsize/R/1_Ratio_500_L_9_R_18.png","img/500/equaldotanddens/L/7_Ratio_500_L_10_R_5.png","img/250/equaldotanddens/L/15_Ratio_250_L_12_R_3.png","img/750/equaldotsize/R/3_Ratio_750_L_15_R_20.png","img/750/randomdotsizeEA/L/6_Ratio_750_L_24_R_18.png","img/500/randomdotsizeEA/R/9_Ratio_500_L_2_R_4.png","img/750/equaldotanddens/R/11_Ratio_750_L_12_R_16.png","img/900/equaldotsize/L/1_Ratio_900_L_10_R_9.png","img/750/equaldotanddens/R/11_Ratio_750_L_12_R_16.png","img/500/equaldotsize/L/4_Ratio_500_L_18_R_9.png","img/250/equaldotsize/L/14_Ratio_250_L_12_R_3.png","img/250/equaldotanddens/L/3_Ratio_250_L_8_R_2.png","img/250/equaldotanddens/R/9_Ratio_250_L_3_R_12.png","img/750/equaldotanddens/R/4_Ratio_750_L_15_R_20.png","img/750/randomdotsizeEA/L/1_Ratio_750_L_20_R_15.png","img/750/randomdotsizeEA/L/6_Ratio_750_L_24_R_18.png","img/900/equaldotsize/R/6_Ratio_900_L_9_R_10.png","img/500/equaldotsize/R/1_Ratio_500_L_9_R_18.png","img/900/equaldotanddens/R/3_Ratio_900_L_9_R_10.png","img/750/equaldotanddens/R/3_Ratio_750_L_15_R_20.png","img/500/equaldotanddens/L/4_Ratio_500_L_18_R_9.png","img/250/equaldotsize/L/15_Ratio_250_L_12_R_3.png","img/900/randomdotsizeEA/L/8_Ratio_900_L_20_R_18.png","img/250/equaldotanddens/L/5_Ratio_250_L_24_R_6.png","img/250/randomdotsizeEA/L/3_Ratio_250_L_8_R_2.png","img/750/randomdotsizeEA/R/3_Ratio_750_L_15_R_20.png","img/750/equaldotanddens/R/5_Ratio_750_L_15_R_20.png","img/900/equaldotanddens/R/11_Ratio_900_L_18_R_20.png","img/500/equaldotanddens/R/2_Ratio_500_L_3_R_6.png","img/250/randomdotsizeEA/L/7_Ratio_250_L_8_R_2.png","img/900/equaldotsize/L/1_Ratio_900_L_10_R_9.png","img/500/randomdotsizeEA/L/4_Ratio_500_L_18_R_9.png","img/250/equaldotanddens/L/3_Ratio_250_L_8_R_2.png","img/750/equaldotsize/L/10_Ratio_750_L_4_R_3.png","img/250/equaldotsize/L/7_Ratio_250_L_8_R_2.png","img/250/equaldotsize/L/7_Ratio_250_L_8_R_2.png","img/750/equaldotsize/L/14_Ratio_750_L_8_R_6.png","img/250/equaldotanddens/R/8_Ratio_250_L_1_R_4.png","img/750/equaldotsize/R/7_Ratio_750_L_3_R_4.png"],"Rat0":[["12_Ratio_0_L_9_R_0.png","13_Ratio_0_L_6_R_0.png","5_Ratio_0_L_2_R_0.png","6_Ratio_0_L_4_R_0.png","8_Ratio_0_L_6_R_0.png"],["1_Ratio_0_L_0_R_17.png","10_Ratio_0_L_0_R_22.png","11_Ratio_0_L_0_R_1.png","14_Ratio_0_L_0_R_24.png","15_Ratio_0_L_0_R_4.png","2_Ratio_0_L_0_R_5.png","3_Ratio_0_L_0_R_17.png","4_Ratio_0_L_0_R_7.png","7_Ratio_0_L_0_R_19.png","9_Ratio_0_L_0_R_15.png"]],"Rat250":[["1_Ratio_250_L_8_R_2.png","14_Ratio_250_L_12_R_3.png","15_Ratio_250_L_12_R_3.png","2_Ratio_250_L_16_R_4.png","3_Ratio_250_L_8_R_2.png","5_Ratio_250_L_24_R_6.png","7_Ratio_250_L_8_R_2.png"],["10_Ratio_250_L_4_R_16.png","11_Ratio_250_L_3_R_12.png","12_Ratio_250_L_5_R_20.png","13_Ratio_250_L_2_R_8.png","4_Ratio_250_L_3_R_12.png","6_Ratio_250_L_6_R_24.png","8_Ratio_250_L_1_R_4.png","9_Ratio_250_L_3_R_12.png"]],"Rat500":[["10_Ratio_500_L_4_R_2.png","11_Ratio_500_L_12_R_6.png","13_Ratio_500_L_12_R_6.png","4_Ratio_500_L_18_R_9.png","5_Ratio_500_L_4_R_2.png","7_Ratio_500_L_10_R_5.png","8_Ratio_500_L_8_R_4.png"],["1_Ratio_500_L_9_R_18.png","12_Ratio_500_L_1_R_2.png","14_Ratio_500_L_5_R_10.png","15_Ratio_500_L_1_R_2.png","2_Ratio_500_L_3_R_6.png","3_Ratio_500_L_10_R_20.png","6_Ratio_500_L_9_R_18.png","9_Ratio_500_L_2_R_4.png"]],"Rat750":[["1_Ratio_750_L_20_R_15.png","10_Ratio_750_L_4_R_3.png","13_Ratio_750_L_8_R_6.png","14_Ratio_750_L_8_R_6.png","6_Ratio_750_L_24_R_18.png","8_Ratio_750_L_4_R_3.png","9_Ratio_750_L_4_R_3.png"],["11_Ratio_750_L_12_R_16.png","12_Ratio_750_L_3_R_4.png","15_Ratio_750_L_9_R_12.png","2_Ratio_750_L_6_R_8.png","3_Ratio_750_L_15_R_20.png","4_Ratio_750_L_15_R_20.png","5_Ratio_750_L_15_R_20.png","7_Ratio_750_L_3_R_4.png"]],"Rat900":[["1_Ratio_900_L_10_R_9.png","10_Ratio_900_L_20_R_18.png","2_Ratio_900_L_20_R_18.png","4_Ratio_900_L_20_R_18.png","8_Ratio_900_L_20_R_18.png"],["11_Ratio_900_L_18_R_20.png","12_Ratio_900_L_18_R_20.png","13_Ratio_900_L_18_R_20.png","14_Ratio_900_L_18_R_20.png","15_Ratio_900_L_9_R_10.png","3_Ratio_900_L_9_R_10.png","5_Ratio_900_L_9_R_10.png","6_Ratio_900_L_9_R_10.png","7_Ratio_900_L_9_R_10.png","9_Ratio_900_L_18_R_20.png"]],"Rat1000":[["10_Ratio_1000_L_16_R_16.png","11_Ratio_1000_L_6_R_6.png","12_Ratio_1000_L_14_R_14.png","13_Ratio_1000_L_20_R_20.png","15_Ratio_1000_L_15_R_15.png","2_Ratio_1000_L_17_R_17.png","4_Ratio_1000_L_9_R_9.png","5_Ratio_1000_L_6_R_6.png","6_Ratio_1000_L_19_R_19.png","8_Ratio_1000_L_14_R_14.png","9_Ratio_1000_L_25_R_25.png"],["1_Ratio_1000_L_1_R_1.png","14_Ratio_1000_L_17_R_17.png","3_Ratio_1000_L_17_R_17.png","7_Ratio_1000_L_6_R_6.png"]]}},{"start_time":1552055028137,"click_time":1552055029787,"finger_time":1552055029187,"fix_duration":250,"trial":1,"RT":1050,"MT":600,"sideResp":1,"stimulus":"img/900/randomdotsizeEA/R/5_Ratio_900_L_9_R_10.png","xmouse":[802,802,802,802,802,802,802,802,802,802,802,802,802,802,802,802,802,802,802,802,802,802,802,802,802,802,802,802,802,802,802,802,802,802,802,802,802,802,802,802,802,802,802,802,802,802,802,802,802,799,793,778,735,720,713,708,702,694,689,684,679,670,666,658,645,638,617,594,589,588,586,585,582,579,576,568,564,554,550,544,540,535,522],"ymouse":[623,623,623,623,623,623,623,623,623,623,623,623,623,623,623,623,623,623,623,623,623,623,623,623,623,623,623,623,623,623,623,623,623,623,623,623,623,623,623,623,623,623,623,623,623,623,623,623,623,620,610,584,521,497,480,467,450,420,400,381,362,331,318,303,281,270,233,190,178,174,171,168,158,149,137,114,98,66,56,45,39,32,18],"timestamp_mouse":[11,31,50,70,90,110,131,151,169,190,210,230,250,270,291,310,331,351,370,390,411,430,450,470,491,511,530,551,569,590,611,630,651,670,690,710,731,750,770,790,809,831,850,871,890,910,931,951,970,990,1010,1030,1050,1071,1089,1109,1129,1150,1170,1190,1210,1230,1251,1270,1289,1310,1330,1350,1369,1389,1410,1430,1450,1470,1490,1511,1530,1551,1570,1589,1610,1630,1650],"xSR":741.5,"ySR":573.95,"xT1":424.9,"yT1":0,"xT2":1058.1,"yT2":0,"toosoon":0,"cond_shown":"randomdotsizeEA","ratio_trial":900,"smaller_num":"9","larger_num":"10","correct_side":2,"subjID":"anamariaavendaño","gender":"1","age":"9","school":"4"},{"start_time":1552055032210,"click_time":1552055033688,"finger_time":1552055033007,"fix_duration":1422.6409829698687,"trial":2,"RT":797,"MT":681,"sideResp":2,"stimulus":"img/250/equaldotsize/R/11_Ratio_250_L_3_R_12.png","xmouse":[757,757,757,757,757,757,757,757,757,757,757,757,757,757,757,757,757,757,757,757,757,757,757,757,757,757,757,757,757,757,757,757,757,757,761,769,783,800,839,858,882,896,910,935,947,961,973,987,1023,1047,1061,1074,1088,1110,1120,1128,1137,1143,1150,1152,1152,1152,1152,1152,1152,1152,1152,1150,1144,1142,1142,1142,1142,1142],"ymouse":[667,667,667,667,667,667,667,667,667,667,667,667,667,667,667,667,667,667,667,667,667,667,667,667,667,667,667,667,667,667,667,667,667,667,666,661,650,639,619,612,600,593,584,561,544,524,501,468,403,355,322,297,268,226,211,196,182,171,152,146,144,144,144,144,143,141,134,123,109,106,105,103,100,95],"timestamp_mouse":[17,38,57,76,98,117,138,158,178,196,216,238,258,278,297,317,336,357,377,398,417,438,458,476,498,518,537,557,577,596,617,637,658,676,696,717,737,757,777,797,817,836,856,877,897,918,937,958,977,997,1016,1037,1057,1078,1097,1117,1136,1156,1177,1197,1217,1238,1257,1277,1296,1317,1337,1358,1377,1397,1417,1437,1457,1478],"xSR":741.5,"ySR":573.95,"xT1":424.9,"yT1":0,"xT2":1058.1,"yT2":0,"toosoon":0,"cond_shown":"equaldotsize","ratio_trial":250,"smaller_num":"3","larger_num":"12","correct_side":2,"subjID":"anamariaavendaño","gender":"1","age":"9","school":"4"},{"start_time":1552055035329,"click_time":1552055036347,"finger_time":1552055035728,"fix_duration":560.889900758595,"trial":3,"RT":399,"MT":619,"sideResp":2,"stimulus":"img/900/randomdotsizeEA/L/8_Ratio_900_L_20_R_18.png","xmouse":[793,793,793,793,793,793,793,793,793,793,793,793,793,793,793,793,797,826,838,845,851,855,865,873,884,895,908,927,936,946,957,968,978,1017,1035,1053,1072,1089,1121,1132,1138,1141,1144,1145,1145,1146,1147,1148,1152,1153,1155],"ymouse":[619,619,619,619,619,619,619,619,619,619,619,619,619,619,619,620,620,612,609,604,596,590,562,546,533,517,502,468,447,424,403,382,362,303,281,260,246,229,192,178,167,158,150,148,145,142,139,133,116,106,95],"timestamp_mouse":[18,38,57,79,99,119,137,158,179,198,218,238,258,279,298,318,338,358,378,399,418,438,457,478,498,518,537,558,578,598,618,639,657,678,698,718,738,758,778,798,818,838,857,877,898,918,938,958,977,999,1018],"xSR":741.5,"ySR":573.95,"xT1":424.9,"yT1":0,"xT2":1058.1,"yT2":0,"toosoon":0,"cond_shown":"randomdotsizeEA","ratio_trial":900,"smaller_num":"18","larger_num":"20","correct_side":1,"subjID":"anamariaavendaño","gender":"1","age":"9","school":"4"},{"start_time":1552055039822,"click_time":1552055041307,"finger_time":1552055040568,"fix_duration":1194.2668736950293,"trial":4,"RT":746,"MT":739,"sideResp":2,"stimulus":"img/500/equaldotanddens/R/3_Ratio_500_L_10_R_20.png","xmouse":[814,814,814,814,814,814,814,814,814,814,814,814,814,814,814,814,814,814,814,814,814,814,814,814,814,814,814,814,814,814,814,814,814,814,818,829,841,851,865,887,895,903,908,915,929,937,949,959,969,984,992,999,1007,1017,1038,1048,1060,1065,1069,1076,1079,1080,1082,1085,1090,1092,1096,1097,1100,1106,1108,1111,1114,1118,1125],"ymouse":[624,624,624,624,624,624,624,624,624,624,624,624,624,624,624,624,624,624,624,624,624,624,624,624,624,624,624,624,624,624,624,624,624,624,619,607,592,578,565,537,521,507,494,479,456,442,421,407,392,369,355,345,333,320,296,285,268,261,255,242,236,232,228,225,211,203,190,183,172,155,145,136,126,114,94],"timestamp_mouse":[5,25,46,65,85,106,126,146,165,186,205,225,245,265,285,306,324,345,366,385,406,426,445,466,485,505,525,545,565,586,605,624,646,665,685,705,725,746,765,785,805,825,845,866,885,905,925,945,965,984,1005,1025,1045,1065,1085,1106,1125,1146,1165,1186,1205,1224,1245,1266,1285,1306,1325,1345,1365,1385,1405,1424,1444,1466,1484],"xSR":741.5,"ySR":573.95,"xT1":424.9,"yT1":0,"xT2":1058.1,"yT2":0,"toosoon":0,"cond_shown":"equaldotanddens","ratio_trial":500,"smaller_num":"10","larger_num":"20","correct_side":2,"subjID":"anamariaavendaño","gender":"1","age":"9","school":"4"},{"start_time":1552055052407,"click_time":1552055053747,"finger_time":1552055053027,"fix_duration":779.0881463082983,"trial":5,"RT":620,"MT":720,"sideResp":1,"stimulus":"img/250/randomdotsizeEA/L/7_Ratio_250_L_8_R_2.png","xmouse":[790,790,790,790,790,790,790,790,790,790,790,790,790,790,790,790,790,790,790,790,790,790,790,789,788,786,783,783,782,779,775,759,755,753,753,753,782,803,818,824,825,817,734,644,548,494,477,474,474,474,474,471,466,465,465,465,473,476,478,479,480,480,481,481,481,481,481,481],"ymouse":[628,628,628,628,628,628,628,628,628,628,628,628,628,628,628,628,628,628,628,628,628,628,627,623,619,612,604,602,599,592,583,555,550,548,548,548,541,535,528,522,517,501,423,353,279,235,219,216,215,208,196,180,145,137,132,128,118,115,112,112,111,111,108,107,105,101,100,98],"timestamp_mouse":[1,23,40,59,81,101,120,141,159,181,201,220,240,260,279,300,320,340,360,379,399,420,441,460,481,500,520,540,561,580,601,620,640,661,681,700,720,740,760,780,800,819,840,860,880,900,920,940,960,980,1000,1020,1040,1060,1080,1100,1119,1140,1160,1180,1200,1220,1240,1260,1280,1300,1320,1340],"xSR":741.5,"ySR":573.95,"xT1":424.9,"yT1":0,"xT2":1058.1,"yT2":0,"toosoon":0,"cond_shown":"randomdotsizeEA","ratio_trial":250,"smaller_num":"2","larger_num":"8","correct_side":1,"subjID":"anamariaavendaño","gender":"1","age":"9","school":"4"},{"start_time":1552055056097,"click_time":1552055057147,"finger_time":1552055056787,"fix_duration":1328.865709204095,"trial":6,"RT":690,"MT":360,"sideResp":1,"stimulus":"img/750/equaldotsize/R/15_Ratio_750_L_9_R_12.png","xmouse":[778,778,778,778,778,778,778,778,778,778,778,778,778,778,778,778,778,778,778,778,778,778,778,778,778,778,778,778,778,778,778,776,762,743,710,642,599,552,538,528,523,520,507,497,491,488,487,487,487,489,491,493,493],"ymouse":[641,641,641,641,641,641,641,641,641,641,641,641,641,641,641,641,641,641,641,641,641,641,641,641,641,641,641,641,641,641,641,636,615,586,528,423,358,284,265,252,245,238,217,201,191,183,176,161,152,139,122,105,74],"timestamp_mouse":[10,31,50,70,89,110,131,151,169,190,210,230,250,269,290,309,330,350,370,389,410,431,450,470,490,510,530,550,571,591,610,629,650,670,690,710,730,750,769,790,810,830,850,870,890,911,930,950,970,991,1010,1031,1050],"xSR":741.5,"ySR":573.95,"xT1":424.9,"yT1":0,"xT2":1058.1,"yT2":0,"toosoon":0,"cond_shown":"equaldotsize","ratio_trial":750,"smaller_num":"9","larger_num":"12","correct_side":2,"subjID":"anamariaavendaño","gender":"1","age":"9","school":"4"},{"start_time":1552055058846,"click_time":1552055059707,"finger_time":1552055059328,"fix_duration":277.7960812658495,"trial":7,"RT":482,"MT":379,"sideResp":2,"stimulus":"img/900/equaldotanddens/L/4_Ratio_900_L_20_R_18.png","xmouse":[793,793,793,793,793,793,793,793,793,793,793,793,793,793,793,793,793,793,793,793,793,805,816,833,844,882,913,925,933,939,951,958,965,970,977,1012,1033,1044,1053,1060,1065,1068,1070,1074],"ymouse":[636,636,636,636,636,636,636,636,636,636,636,636,636,636,636,636,636,636,636,636,636,632,625,613,597,549,513,497,485,472,447,434,421,412,396,332,282,256,233,209,163,143,121,97],"timestamp_mouse":[3,21,42,61,81,102,122,142,162,181,201,222,242,261,280,300,322,342,361,381,400,421,440,461,482,501,521,541,561,580,600,621,640,661,682,701,722,740,760,780,801,821,842,861],"xSR":741.5,"ySR":573.95,"xT1":424.9,"yT1":0,"xT2":1058.1,"yT2":0,"toosoon":0,"cond_shown":"equaldotanddens","ratio_trial":900,"smaller_num":"18","larger_num":"20","correct_side":1,"subjID":"anamariaavendaño","gender":"1","age":"9","school":"4"},{"start_time":1552055064230,"click_time":1552055065387,"finger_time":1552055065007,"fix_duration":1261.60976359337,"trial":8,"RT":777,"MT":380,"sideResp":2,"stimulus":"img/750/equaldotanddens/R/4_Ratio_750_L_15_R_20.png","xmouse":[796,796,796,796,796,796,796,796,796,796,796,796,796,796,796,796,796,796,796,796,796,796,796,796,796,796,796,796,796,796,796,796,796,796,796,797,814,828,848,867,891,926,939,949,963,971,984,990,994,999,1002,1010,1014,1020,1028,1033,1052,1066],"ymouse":[641,641,641,641,641,641,641,641,641,641,641,641,641,641,641,641,641,641,641,641,641,641,641,641,641,641,641,641,641,641,641,641,641,641,641,640,620,606,586,566,540,495,473,457,428,407,362,340,323,305,284,238,215,192,164,146,111,94],"timestamp_mouse":[18,37,57,77,96,116,137,158,176,198,218,236,257,278,296,316,337,357,378,396,417,436,457,477,496,518,537,557,576,597,618,638,656,678,697,717,736,757,777,796,818,837,857,877,896,916,936,956,976,996,1017,1037,1057,1076,1096,1116,1136,1157],"xSR":741.5,"ySR":573.95,"xT1":424.9,"yT1":0,"xT2":1058.1,"yT2":0,"toosoon":0,"cond_shown":"equaldotanddens","ratio_trial":750,"smaller_num":"15","larger_num":"20","correct_side":2,"subjID":"anamariaavendaño","gender":"1","age":"9","school":"4"},{"start_time":1552055069296,"click_time":1552055071087,"finger_time":1552055070466,"fix_duration":267.6460386354521,"trial":9,"RT":1170,"MT":621,"sideResp":2,"stimulus":"img/500/equaldotsize/R/15_Ratio_500_L_1_R_2.png","xmouse":[757,757,757,757,757,757,757,757,757,757,757,757,757,757,757,757,757,757,757,757,757,757,757,757,757,757,757,757,757,757,757,757,757,757,757,757,757,757,757,757,757,757,757,757,757,757,757,757,766,780,787,790,790,790,790,793,796,805,850,871,892,914,937,994,1024,1049,1070,1101,1123,1162,1178,1191,1200,1214,1216,1216,1217,1217,1217,1217,1217,1217,1213,1203,1188,1186,1183,1177,1173,1148],"ymouse":[629,629,629,629,629,629,629,629,629,629,629,629,629,629,629,629,629,629,629,629,629,629,629,629,629,629,629,629,629,629,629,629,629,629,629,629,629,629,629,629,629,629,629,629,629,629,629,629,629,628,627,627,627,627,627,627,626,625,618,609,594,572,532,397,325,268,236,185,158,112,95,84,76,68,67,66,65,65,65,65,65,65,65,65,65,65,65,65,65,65],"timestamp_mouse":[11,30,51,72,92,110,130,152,171,192,210,230,251,271,290,310,332,352,370,390,412,431,450,472,491,512,532,550,570,590,610,632,652,670,690,711,732,750,771,791,810,831,852,870,892,910,932,952,970,990,1010,1031,1052,1070,1091,1110,1131,1151,1170,1191,1210,1231,1250,1271,1291,1311,1331,1352,1371,1391,1410,1430,1451,1471,1491,1510,1532,1552,1571,1590,1610,1631,1650,1670,1690,1711,1731,1751,1770,1791],"xSR":741.5,"ySR":573.95,"xT1":424.9,"yT1":0,"xT2":1058.1,"yT2":0,"toosoon":0,"cond_shown":"equaldotsize","ratio_trial":500,"smaller_num":"1","larger_num":"2","correct_side":2,"subjID":"anamariaavendaño","gender":"1","age":"9","school":"4"},{"start_time":1552055072638,"click_time":1552055073368,"finger_time":1552055072928,"fix_duration":250,"trial":10,"RT":290,"MT":440,"sideResp":2,"stimulus":"img/900/equaldotsize/R/9_Ratio_900_L_18_R_20.png","xmouse":[821,821,821,821,821,821,821,821,821,821,821,821,828,840,857,877,896,928,941,958,965,983,1017,1035,1048,1062,1074,1086,1091,1095,1098,1100,1097,1094,1089,1088,1087],"ymouse":[614,614,614,614,614,614,614,614,614,614,614,614,609,599,585,570,555,518,497,462,447,405,331,298,274,253,230,193,176,162,148,134,119,111,103,101,99],"timestamp_mouse":[9,29,49,69,90,109,130,148,169,189,209,230,248,268,290,309,328,348,368,388,409,429,450,468,488,509,529,549,568,588,609,629,650,668,689,709,730],"xSR":741.5,"ySR":573.95,"xT1":424.9,"yT1":0,"xT2":1058.1,"yT2":0,"toosoon":0,"cond_shown":"equaldotsize","ratio_trial":900,"smaller_num":"18","larger_num":"20","correct_side":2,"subjID":"anamariaavendaño","gender":"1","age":"9","school":"4"},{"start_time":1552055075034,"click_time":1552055076627,"finger_time":1552055075466,"fix_duration":546.4636949774648,"trial":11,"RT":432,"MT":1161,"sideResp":1,"stimulus":"img/500/equaldotanddens/L/11_Ratio_500_L_12_R_6.png","xmouse":[806,806,806,806,806,806,806,806,806,806,806,806,806,806,806,807,810,816,824,828,835,843,867,877,882,888,895,914,922,931,932,932,904,874,830,795,768,741,734,728,719,708,677,660,651,643,633,601,570,558,550,549,549,549,549,549,548,548,545,540,537,537,536,535,534,534,533,533,533,533,533,533,533,533,533,533,531,527,525,524],"ymouse":[603,603,603,603,603,603,603,603,603,603,603,603,603,603,603,602,602,602,602,602,601,598,584,574,564,553,540,498,478,450,431,411,350,324,305,290,278,267,260,254,244,231,206,195,189,184,177,162,147,140,135,135,135,135,135,135,135,134,129,114,103,96,82,77,72,69,67,66,66,66,66,66,66,66,66,66,64,58,56,55],"timestamp_mouse":[13,33,52,73,93,114,134,153,173,194,213,234,253,274,293,312,333,353,374,393,413,432,453,472,492,512,532,552,573,593,612,632,654,672,692,713,734,752,773,793,813,833,853,872,892,913,934,953,972,992,1012,1033,1052,1073,1094,1114,1133,1152,1172,1192,1214,1233,1253,1272,1293,1313,1333,1354,1372,1393,1412,1433,1454,1473,1493,1512,1533,1553,1573,1593],"xSR":741.5,"ySR":573.95,"xT1":424.9,"yT1":0,"xT2":1058.1,"yT2":0,"toosoon":0,"cond_shown":"equaldotanddens","ratio_trial":500,"smaller_num":"6","larger_num":"12","correct_side":1,"subjID":"anamariaavendaño","gender":"1","age":"9","school":"4"},{"start_time":1552055078878,"click_time":1552055079866,"finger_time":1552055079147,"fix_duration":1289.5863429696565,"trial":12,"RT":269,"MT":719,"sideResp":2,"stimulus":"img/900/randomdotsizeEA/L/10_Ratio_900_L_20_R_18.png","xmouse":[820,823,824,825,827,830,832,833,834,835,837,837,840,842,845,849,866,873,878,884,887,887,887,881,874,871,869,869,869,871,881,889,897,908,918,930,948,957,965,972,981,985,989,994,1007,1013,1042,1050,1060,1068],"ymouse":[619,617,616,615,613,610,606,604,603,601,598,596,591,586,578,569,538,524,506,488,453,429,402,382,366,357,342,333,324,313,295,285,276,269,265,262,257,252,247,242,234,229,223,217,202,193,145,127,110,98],"timestamp_mouse":[8,28,48,68,90,108,129,149,169,188,209,228,248,269,288,308,328,348,369,389,408,429,448,468,488,509,530,548,568,589,609,628,649,668,689,708,728,748,769,788,808,829,849,868,889,909,930,949,970,988],"xSR":741.5,"ySR":573.95,"xT1":424.9,"yT1":0,"xT2":1058.1,"yT2":0,"toosoon":0,"cond_shown":"randomdotsizeEA","ratio_trial":900,"smaller_num":"18","larger_num":"20","correct_side":1,"subjID":"anamariaavendaño","gender":"1","age":"9","school":"4"},{"start_time":1552055081305,"click_time":1552055082587,"finger_time":1552055081726,"fix_duration":417.28069334220953,"trial":13,"RT":421,"MT":861,"sideResp":2,"stimulus":"img/250/equaldotanddens/R/10_Ratio_250_L_4_R_16.png","xmouse":[775,775,775,775,775,775,775,775,775,775,775,775,775,775,775,775,775,775,775,775,773,767,755,750,740,725,720,713,708,691,682,677,675,674,674,686,695,702,710,728,743,766,797,836,893,942,955,966,972,979,998,1008,1017,1025,1030,1036,1038,1040,1044,1052,1060,1070,1081,1094,1100],"ymouse":[594,594,594,594,594,594,594,594,594,594,594,594,594,594,594,594,594,594,594,594,585,564,535,527,508,480,466,451,436,403,386,373,364,354,347,330,319,310,302,288,282,275,269,264,256,249,247,243,240,237,226,218,210,198,191,179,175,171,165,155,145,134,122,104,92],"timestamp_mouse":[4,22,43,61,81,102,122,142,162,183,203,221,241,263,283,302,322,341,362,383,402,421,441,462,482,501,521,542,562,582,601,622,642,662,681,701,721,742,761,782,802,821,841,863,882,903,921,942,961,982,1001,1022,1042,1062,1082,1101,1121,1141,1162,1182,1202,1221,1242,1263,1282],"xSR":741.5,"ySR":573.95,"xT1":424.9,"yT1":0,"xT2":1058.1,"yT2":0,"toosoon":0,"cond_shown":"equaldotanddens","ratio_trial":250,"smaller_num":"4","larger_num":"16","correct_side":2,"subjID":"anamariaavendaño","gender":"1","age":"9","school":"4"},{"start_time":1552055084228,"click_time":1552055085587,"finger_time":1552055084926,"fix_duration":799.7072474236107,"trial":14,"RT":698,"MT":661,"sideResp":2,"stimulus":"img/900/randomdotsizeEA/L/8_Ratio_900_L_20_R_18.png","xmouse":[762,762,762,762,762,762,762,762,762,762,762,762,762,762,762,762,762,763,769,775,778,778,778,778,778,778,778,778,778,778,783,786,798,829,846,868,881,888,901,909,919,929,938,958,970,984,994,1005,1029,1041,1049,1055,1060,1068,1073,1075,1075,1075,1075,1075,1074,1074,1074,1075,1076,1077,1079,1086],"ymouse":[635,635,635,635,635,635,635,635,635,635,635,635,635,635,635,635,635,635,635,633,632,632,632,632,632,632,632,632,632,632,629,627,620,597,581,559,531,495,423,402,383,365,349,320,308,293,284,274,247,232,220,208,198,177,168,148,135,129,116,113,111,110,107,105,104,102,100,97],"timestamp_mouse":[19,39,59,79,98,119,139,160,178,198,218,239,259,279,300,319,339,358,380,399,419,438,460,478,500,520,538,559,578,598,618,638,658,679,698,718,739,759,779,798,819,839,859,879,898,919,939,958,980,999,1019,1039,1060,1079,1099,1118,1139,1158,1179,1198,1218,1239,1259,1278,1298,1318,1339,1358],"xSR":741.5,"ySR":573.95,"xT1":424.9,"yT1":0,"xT2":1058.1,"yT2":0,"toosoon":0,"cond_shown":"randomdotsizeEA","ratio_trial":900,"smaller_num":"18","larger_num":"20","correct_side":1,"subjID":"anamariaavendaño","gender":"1","age":"9","school":"4"},{"start_time":1552055086739,"click_time":1552055087848,"finger_time":1552055087127,"fix_duration":250,"trial":15,"RT":388,"MT":721,"sideResp":1,"stimulus":"img/750/randomdotsizeEA/L/8_Ratio_750_L_4_R_3.png","xmouse":[774,774,774,774,774,774,774,774,774,774,774,774,774,774,774,774,774,774,776,783,783,778,770,752,745,739,733,726,711,698,688,676,665,644,636,627,617,610,595,583,578,575,573,571,565,562,554,547,540,529,526,524,522,519,518,516],"ymouse":[644,644,644,644,644,644,645,645,645,645,645,645,645,645,645,645,645,641,598,501,443,409,384,340,325,310,295,283,259,241,230,219,209,193,187,184,180,177,173,170,168,167,166,166,160,156,150,144,136,114,110,107,105,101,100,98],"timestamp_mouse":[8,28,47,68,87,108,128,147,167,188,208,228,247,267,287,308,328,348,367,388,408,427,447,467,488,507,527,548,567,588,607,628,647,668,688,707,728,748,767,787,808,828,848,867,888,908,928,949,967,988,1007,1028,1048,1068,1088,1109],"xSR":741.5,"ySR":573.95,"xT1":424.9,"yT1":0,"xT2":1058.1,"yT2":0,"toosoon":0,"cond_shown":"randomdotsizeEA","ratio_trial":750,"smaller_num":"3","larger_num":"4","correct_side":1,"subjID":"anamariaavendaño","gender":"1","age":"9","school":"4"},{"start_time":1552055089106,"click_time":1552055090447,"finger_time":1552055089447,"fix_duration":379.8452883193898,"trial":16,"RT":341,"MT":1000,"sideResp":1,"stimulus":"img/750/equaldotanddens/L/14_Ratio_750_L_8_R_6.png","xmouse":[786,786,786,786,786,786,786,786,786,786,786,786,786,786,786,784,779,769,756,731,712,669,663,661,661,657,651,648,641,635,625,617,615,614,613,611,601,595,586,583,581,579,579,579,579,579,578,578,576,572,566,563,562,560,559,557,552,551,547,542,540,537,537,536,535,533,527,521],"ymouse":[631,631,631,631,631,631,631,631,631,631,631,631,631,631,631,630,576,513,469,406,372,319,306,300,295,290,267,254,239,226,207,192,187,181,171,155,117,100,80,76,70,67,67,67,67,67,66,66,65,64,64,63,63,63,63,62,61,61,61,60,60,59,59,59,59,59,59,59],"timestamp_mouse":[5,23,42,61,80,101,121,141,161,181,201,222,242,262,281,300,320,341,361,381,400,421,440,461,481,501,521,540,560,581,601,622,641,660,680,701,720,741,761,781,800,821,840,861,882,900,921,941,961,980,1000,1020,1040,1060,1080,1100,1120,1140,1160,1180,1201,1221,1240,1262,1281,1300,1320,1341],"xSR":741.5,"ySR":573.95,"xT1":424.9,"yT1":0,"xT2":1058.1,"yT2":0,"toosoon":0,"cond_shown":"equaldotanddens","ratio_trial":750,"smaller_num":"6","larger_num":"8","correct_side":1,"subjID":"anamariaavendaño","gender":"1","age":"9","school":"4"},{"start_time":1552055092440,"click_time":1552055093287,"finger_time":1552055092806,"fix_duration":951.0192238389656,"trial":17,"RT":366,"MT":481,"sideResp":1,"stimulus":"img/900/randomdotsizeEA/L/2_Ratio_900_L_20_R_18.png","xmouse":[816,816,816,816,816,816,816,816,816,816,816,816,816,816,816,816,813,805,792,761,755,747,743,739,737,730,726,721,713,682,674,655,644,633,610,596,583,571,561,548,537,525,513],"ymouse":[652,652,652,652,652,652,652,652,652,652,652,652,652,652,645,631,611,583,539,471,455,437,426,415,407,389,380,367,354,302,292,253,233,215,183,167,155,146,138,120,106,92,79],"timestamp_mouse":[7,27,48,67,87,106,126,148,168,187,206,226,247,267,288,307,327,347,366,386,406,427,447,466,486,507,527,547,567,586,606,626,647,666,686,707,726,746,767,787,807,826,846],"xSR":741.5,"ySR":573.95,"xT1":424.9,"yT1":0,"xT2":1058.1,"yT2":0,"toosoon":0,"cond_shown":"randomdotsizeEA","ratio_trial":900,"smaller_num":"18","larger_num":"20","correct_side":1,"subjID":"anamariaavendaño","gender":"1","age":"9","school":"4"},{"start_time":1552055097968,"click_time":1552055099526,"finger_time":1552055098747,"fix_duration":800.4813746829781,"trial":18,"RT":779,"MT":779,"sideResp":1,"stimulus":"img/500/equaldotanddens/L/8_Ratio_500_L_8_R_4.png","xmouse":[788,788,788,788,788,788,788,788,788,788,788,788,788,788,788,788,788,788,788,788,788,788,788,788,788,788,788,788,788,788,788,788,788,788,788,788,787,783,771,762,745,733,720,696,683,668,657,648,632,625,609,603,572,566,558,554,551,547,541,536,532,531,531,531,531,529,528,525,519,515,510,509,505,500,497,495,493,490],"ymouse":[641,641,641,641,641,641,641,641,641,641,641,641,641,641,641,641,641,641,641,641,641,641,641,641,641,641,640,639,636,635,635,634,633,630,627,623,616,604,572,555,532,517,502,472,454,438,427,417,398,388,372,364,326,315,304,298,290,282,263,253,246,245,245,245,241,235,227,214,191,181,166,162,148,128,119,112,104,98],"timestamp_mouse":[20,39,58,79,99,119,138,158,178,200,220,240,258,278,299,319,339,359,378,398,420,439,458,478,499,520,539,559,578,600,619,639,658,678,698,719,739,758,779,799,819,840,859,878,898,919,938,959,978,998,1018,1039,1059,1078,1098,1120,1139,1158,1178,1199,1220,1238,1260,1279,1298,1319,1339,1359,1378,1399,1419,1439,1458,1478,1498,1518,1538,1558],"xSR":741.5,"ySR":573.95,"xT1":424.9,"yT1":0,"xT2":1058.1,"yT2":0,"toosoon":0,"cond_shown":"equaldotanddens","ratio_trial":500,"smaller_num":"4","larger_num":"8","correct_side":1,"subjID":"anamariaavendaño","gender":"1","age":"9","school":"4"},{"start_time":1552055102064,"click_time":1552055103307,"finger_time":1552055102547,"fix_duration":1276.7306803864576,"trial":19,"RT":483,"MT":760,"sideResp":1,"stimulus":"img/500/equaldotsize/L/7_Ratio_500_L_10_R_5.png","xmouse":[777,776,776,776,776,776,776,776,776,776,776,776,776,776,776,776,776,776,777,787,794,800,805,808,808,809,809,809,808,798,786,775,763,747,735,716,710,705,699,692,689,688,684,678,651,624,607,592,582,571,565,559,553,545,533,525,523,517,514,507,502,499,493],"ymouse":[638,638,637,637,637,637,637,637,637,637,637,637,637,637,637,637,637,637,637,628,619,608,595,583,571,553,545,540,533,516,501,489,475,460,447,428,420,414,407,399,395,394,390,384,366,346,333,323,313,292,282,272,260,247,222,204,194,180,171,145,127,110,91],"timestamp_mouse":[5,23,44,62,83,104,122,143,162,183,203,222,243,262,282,303,323,343,363,383,403,422,442,463,483,503,523,543,563,582,602,623,642,662,682,702,723,743,762,783,803,823,842,862,882,904,923,944,963,983,1002,1023,1043,1063,1083,1103,1123,1142,1162,1182,1202,1222,1243],"xSR":741.5,"ySR":573.95,"xT1":424.9,"yT1":0,"xT2":1058.1,"yT2":0,"toosoon":0,"cond_shown":"equaldotsize","ratio_trial":500,"smaller_num":"5","larger_num":"10","correct_side":1,"subjID":"anamariaavendaño","gender":"1","age":"9","school":"4"},{"start_time":1552055108724,"click_time":1552055110186,"finger_time":1552055109307,"fix_duration":1077.1816024133004,"trial":20,"RT":583,"MT":879,"sideResp":1,"stimulus":"img/500/randomdotsizeEA/L/4_Ratio_500_L_18_R_9.png","xmouse":[798,798,798,798,798,798,798,798,798,798,798,798,798,798,798,798,798,798,798,798,798,798,798,798,797,795,792,787,784,778,774,771,766,763,760,757,753,744,739,733,724,718,706,696,684,670,648,611,586,569,554,544,528,517,509,504,502,499,499,499,499,499,499,499,499,499,499,499,499,499,499,499,499,498],"ymouse":[615,615,615,615,615,615,615,615,615,615,615,615,615,615,615,615,615,615,615,615,615,615,615,615,613,608,602,591,583,566,556,547,529,519,508,498,492,476,467,458,442,435,421,410,396,379,356,317,283,252,224,201,165,147,133,123,117,109,109,109,109,109,109,109,109,109,109,109,109,109,109,109,105,95],"timestamp_mouse":[4,23,43,62,82,102,124,143,163,183,203,222,243,263,282,302,322,343,363,384,402,424,443,463,483,502,522,543,564,583,602,623,643,662,684,703,724,743,763,782,804,823,842,862,882,902,924,943,963,983,1002,1022,1043,1063,1084,1102,1122,1142,1163,1183,1202,1222,1242,1263,1284,1303,1324,1344,1362,1384,1403,1424,1442,1462],"xSR":741.5,"ySR":573.95,"xT1":424.9,"yT1":0,"xT2":1058.1,"yT2":0,"toosoon":0,"cond_shown":"randomdotsizeEA","ratio_trial":500,"smaller_num":"9","larger_num":"18","correct_side":1,"subjID":"anamariaavendaño","gender":"1","age":"9","school":"4"},{"start_time":1552055111906,"click_time":1552055112566,"finger_time":1552055111926,"fix_duration":419.9741612049734,"trial":21,"RT":20,"MT":640,"sideResp":1,"stimulus":"img/750/equaldotanddens/L/6_Ratio_750_L_24_R_18.png","xmouse":[776,779,781,781,781,781,781,780,777,772,765,756,743,728,694,673,652,633,598,574,561,548,538,523,515,506,499,492,488,487,487,487,487,486],"ymouse":[584,565,548,521,514,510,507,506,498,486,473,459,438,418,381,365,350,336,307,285,274,263,253,224,208,194,180,167,155,147,140,132,121,89],"timestamp_mouse":[0,20,40,60,81,101,121,140,160,181,201,221,241,260,280,301,321,341,361,380,401,421,441,460,481,501,521,540,561,581,600,620,640,660],"xSR":741.5,"ySR":573.95,"xT1":424.9,"yT1":0,"xT2":1058.1,"yT2":0,"toosoon":0,"cond_shown":"equaldotanddens","ratio_trial":750,"smaller_num":"18","larger_num":"24","correct_side":1,"subjID":"anamariaavendaño","gender":"1","age":"9","school":"4"},{"start_time":1552055113618,"click_time":1552055115067,"finger_time":1552055114447,"fix_duration":250,"trial":22,"RT":829,"MT":620,"sideResp":2,"stimulus":"img/900/equaldotsize/R/3_Ratio_900_L_9_R_10.png","xmouse":[756,756,756,756,756,756,756,756,756,756,756,756,756,756,756,756,756,756,756,756,756,756,756,756,756,756,756,756,756,756,756,756,756,757,759,762,766,780,787,794,801,812,817,841,852,862,874,883,901,911,923,934,945,971,983,993,1003,1022,1030,1038,1043,1050,1051,1061,1065,1069,1072,1075,1083,1087,1094,1096,1102],"ymouse":[662,662,662,662,662,662,662,662,662,662,662,662,662,662,662,662,662,662,662,662,662,662,662,662,662,662,662,662,662,662,662,662,661,658,655,649,641,617,606,595,584,567,561,529,517,502,486,473,438,420,402,382,364,315,294,275,256,222,210,200,193,186,185,176,172,165,159,153,135,128,112,106,87],"timestamp_mouse":[8,28,49,69,90,110,129,149,169,189,210,229,248,269,290,309,329,349,369,389,409,430,449,469,489,510,528,548,569,588,608,630,648,668,688,710,729,748,769,789,808,829,849,869,889,908,928,948,969,988,1008,1028,1049,1068,1089,1109,1128,1149,1170,1189,1208,1229,1249,1270,1288,1308,1329,1348,1368,1390,1409,1429,1449],"xSR":741.5,"ySR":573.95,"xT1":424.9,"yT1":0,"xT2":1058.1,"yT2":0,"toosoon":0,"cond_shown":"equaldotsize","ratio_trial":900,"smaller_num":"9","larger_num":"10","correct_side":2,"subjID":"anamariaavendaño","gender":"1","age":"9","school":"4"},{"start_time":1552055118420,"click_time":1552055119946,"finger_time":1552055119066,"fix_duration":250,"trial":23,"RT":646,"MT":880,"sideResp":1,"stimulus":"img/250/equaldotsize/L/1_Ratio_250_L_8_R_2.png","xmouse":[761,761,761,761,761,761,761,761,761,761,761,761,761,761,761,761,761,761,761,761,761,761,761,761,762,762,762,762,762,760,754,746,731,683,660,641,629,618,597,586,569,556,545,535,520,510,498,480,441,420,410,403,402,401,401,401,401,401,401,401,401,401,401,401,401,401,401,402,408,412,412,412,412,415,419,422,426],"ymouse":[641,641,641,641,641,641,641,641,641,641,641,641,641,641,641,641,641,641,641,641,641,641,641,641,641,640,637,634,630,625,602,576,541,442,386,352,329,313,286,272,251,237,223,213,195,184,167,146,104,76,64,57,55,54,54,54,53,53,51,51,51,51,51,51,51,51,51,51,51,51,51,51,51,51,51,51,51],"timestamp_mouse":[7,26,46,68,88,107,126,146,167,186,207,227,248,267,288,308,327,347,367,386,406,428,447,467,486,508,526,547,566,586,606,627,646,665,686,706,726,747,766,786,806,825,846,865,885,906,926,946,966,986,1006,1025,1047,1067,1086,1105,1125,1146,1166,1186,1207,1226,1246,1266,1286,1305,1326,1346,1366,1386,1405,1426,1446,1467,1486,1506,1526],"xSR":741.5,"ySR":573.95,"xT1":424.9,"yT1":0,"xT2":1058.1,"yT2":0,"toosoon":0,"cond_shown":"equaldotsize","ratio_trial":250,"smaller_num":"2","larger_num":"8","correct_side":1,"subjID":"anamariaavendaño","gender":"1","age":"9","school":"4"},{"start_time":1552055121398,"click_time":1552055122727,"finger_time":1552055121806,"fix_duration":411.3813755118063,"trial":24,"RT":408,"MT":921,"sideResp":1,"stimulus":"img/250/randomdotsizeEA/R/6_Ratio_250_L_6_R_24.png","xmouse":[764,764,764,764,764,764,764,764,764,764,764,764,764,764,764,764,764,764,764,757,748,739,729,718,698,688,678,669,654,649,623,617,613,609,603,593,590,588,585,580,564,558,554,550,538,520,493,466,447,430,390,384,382,382,382,382,383,385,385,390,393,397,399,404,409,420,428],"ymouse":[631,631,631,631,631,631,631,631,631,631,631,631,631,631,631,631,631,629,622,588,559,539,519,499,463,448,435,420,396,389,347,334,325,316,307,289,285,280,274,266,236,218,204,190,179,172,162,145,131,117,78,66,60,54,48,39,36,34,32,27,25,23,22,22,22,22,22],"timestamp_mouse":[7,27,49,68,88,109,128,149,169,189,208,229,248,269,288,308,327,347,369,388,408,428,449,468,488,508,529,548,568,588,608,628,648,668,688,708,728,748,768,788,808,827,849,868,887,908,927,947,968,988,1008,1028,1048,1068,1087,1107,1128,1148,1169,1188,1209,1228,1247,1268,1288,1308,1329],"xSR":741.5,"ySR":573.95,"xT1":424.9,"yT1":0,"xT2":1058.1,"yT2":0,"toosoon":0,"cond_shown":"randomdotsizeEA","ratio_trial":250,"smaller_num":"6","larger_num":"24","correct_side":2,"subjID":"anamariaavendaño","gender":"1","age":"9","school":"4"},{"start_time":1552055125035,"click_time":1552055126206,"finger_time":1552055125446,"fix_duration":708.5291442963032,"trial":25,"RT":411,"MT":760,"sideResp":1,"stimulus":"img/750/equaldotanddens/L/8_Ratio_750_L_4_R_3.png","xmouse":[805,805,805,805,805,805,805,805,805,805,805,805,805,805,805,805,806,811,826,836,848,856,867,882,887,892,899,909,912,915,916,916,916,917,916,913,903,892,855,833,809,782,751,674,644,612,596,585,579,576,572,566,560,549,546,537,530,522,505],"ymouse":[644,644,644,644,644,644,644,644,644,644,644,644,644,644,644,644,644,643,636,631,624,618,611,596,590,583,565,539,528,518,508,497,484,454,444,437,420,408,384,375,365,353,335,292,272,248,233,225,215,207,197,184,173,150,142,125,115,104,87],"timestamp_mouse":[11,32,52,70,91,111,132,152,170,191,212,232,251,271,291,311,330,350,371,391,411,431,451,471,490,510,531,552,570,591,611,631,651,671,691,710,730,751,772,791,811,831,851,871,891,911,931,951,971,991,1011,1031,1051,1071,1091,1111,1130,1151,1171],"xSR":741.5,"ySR":573.95,"xT1":424.9,"yT1":0,"xT2":1058.1,"yT2":0,"toosoon":0,"cond_shown":"equaldotanddens","ratio_trial":750,"smaller_num":"3","larger_num":"4","correct_side":1,"subjID":"anamariaavendaño","gender":"1","age":"9","school":"4"},{"start_time":1552055128103,"click_time":1552055129106,"finger_time":1552055128625,"fix_duration":995.9343535316742,"trial":26,"RT":522,"MT":481,"sideResp":1,"stimulus":"img/500/randomdotsizeEA/L/5_Ratio_500_L_4_R_2.png","xmouse":[832,832,832,832,832,832,832,832,832,832,832,832,832,832,832,832,832,832,832,832,832,832,826,817,803,770,756,741,727,717,692,680,669,663,658,649,647,645,643,643,638,635,633,630,626,609,594,576,554,528,510],"ymouse":[645,645,645,645,645,645,645,645,645,645,645,645,645,645,645,645,645,645,645,645,645,644,634,622,606,575,558,540,524,508,474,455,429,408,386,347,330,313,300,294,282,271,263,255,242,203,175,143,117,80,55],"timestamp_mouse":[5,24,43,62,83,104,123,143,164,182,202,224,244,263,283,303,324,344,362,383,403,423,443,464,483,502,522,543,563,582,603,623,643,664,683,704,723,742,763,782,803,823,843,863,882,903,923,943,963,984,1003],"xSR":741.5,"ySR":573.95,"xT1":424.9,"yT1":0,"xT2":1058.1,"yT2":0,"toosoon":0,"cond_shown":"randomdotsizeEA","ratio_trial":500,"smaller_num":"2","larger_num":"4","correct_side":1,"subjID":"anamariaavendaño","gender":"1","age":"9","school":"4"},{"start_time":1552055131300,"click_time":1552055134426,"finger_time":1552055132986,"fix_duration":553.4878778650744,"trial":27,"RT":1686,"MT":1440,"sideResp":1,"stimulus":"img/500/equaldotsize/L/10_Ratio_500_L_4_R_2.png","xmouse":[803,803,803,803,803,803,803,803,803,803,801,797,791,787,784,783,783,783,783,783,783,783,783,783,783,783,783,783,783,783,783,783,783,783,783,783,783,783,783,783,783,783,783,783,784,784,784,784,784,784,784,784,784,784,787,788,790,793,797,799,802,808,811,814,816,817,821,823,826,827,827,827,827,827,827,827,827,827,828,829,831,833,836,839,843,847,855,856,858,859,859,859,859,859,859,859,859,859,859,859,858,831,812,791,775,768,768,768,768,768,768,768,768,768,768,768,768,768,768,768,768,768,768,768,768,768,768,768,768,768,768,768,769,769,769,769,769,769,769,769,769,757,744,729,717,705,683,670,654,621,603,585,576,564,549,538,524],"ymouse":[654,654,654,654,654,654,654,654,654,654,654,654,653,653,652,652,652,652,652,652,652,652,652,652,652,652,652,652,652,652,652,652,652,652,650,649,647,647,645,645,645,645,645,644,644,644,644,644,644,644,644,644,644,644,644,644,644,644,643,643,642,642,641,641,640,640,638,637,637,636,636,636,636,636,636,636,636,636,636,636,635,635,635,635,635,634,632,632,632,632,632,632,632,632,632,632,632,632,632,632,632,632,632,631,628,627,627,627,627,627,627,627,627,627,627,627,627,627,627,627,627,627,627,627,627,627,627,627,627,627,627,627,626,626,626,626,626,626,626,626,616,587,556,521,488,458,398,368,330,270,242,205,186,165,141,122,97],"timestamp_mouse":[12,27,45,66,86,107,127,147,165,187,205,226,246,267,287,306,326,347,366,387,406,425,446,467,487,507,526,545,565,586,607,626,647,665,686,707,725,746,765,785,807,827,847,867,886,905,927,947,966,985,1005,1027,1046,1065,1085,1106,1126,1146,1166,1186,1205,1225,1246,1267,1286,1305,1326,1347,1365,1387,1407,1426,1447,1466,1486,1507,1527,1546,1566,1586,1606,1627,1646,1667,1686,1707,1726,1745,1767,1786,1807,1827,1847,1866,1886,1906,1927,1946,1966,1986,2006,2026,2045,2065,2086,2106,2126,2146,2165,2186,2206,2226,2246,2267,2287,2305,2326,2346,2366,2387,2407,2426,2446,2466,2485,2506,2527,2545,2567,2586,2605,2626,2645,2665,2686,2707,2726,2747,2767,2787,2805,2826,2846,2867,2886,2907,2926,2946,2966,2986,3006,3026,3045,3066,3086,3106,3126],"xSR":741.5,"ySR":573.95,"xT1":424.9,"yT1":0,"xT2":1058.1,"yT2":0,"toosoon":0,"cond_shown":"equaldotsize","ratio_trial":500,"smaller_num":"2","larger_num":"4","correct_side":1,"subjID":"anamariaavendaño","gender":"1","age":"9","school":"4"},{"start_time":1552055137407,"click_time":1552055138426,"finger_time":1552055137586,"fix_duration":500.77433318630773,"trial":28,"RT":179,"MT":840,"sideResp":2,"stimulus":"img/250/randomdotsizeEA/L/3_Ratio_250_L_8_R_2.png","xmouse":[815,823,829,832,835,838,840,841,842,843,845,847,850,852,857,864,871,881,900,919,944,950,953,956,958,964,968,975,982,989,997,1016,1021,1028,1031,1034,1034,1034,1034,1034,1036,1037,1038,1039,1041,1044,1045,1046,1046,1049,1060],"ymouse":[625,621,620,618,618,616,615,614,614,613,612,611,609,607,604,593,579,558,502,440,340,300,277,255,239,212,197,183,167,149,131,87,74,64,59,57,57,57,57,57,57,57,57,59,62,68,70,71,72,74,80],"timestamp_mouse":[23,39,59,80,99,120,139,160,179,200,219,239,258,279,299,318,339,359,379,400,419,438,458,479,499,519,539,558,579,600,619,639,658,679,700,718,739,759,779,799,818,839,859,880,899,918,939,959,979,1000,1019],"xSR":741.5,"ySR":573.95,"xT1":424.9,"yT1":0,"xT2":1058.1,"yT2":0,"toosoon":0,"cond_shown":"randomdotsizeEA","ratio_trial":250,"smaller_num":"2","larger_num":"8","correct_side":1,"subjID":"anamariaavendaño","gender":"1","age":"9","school":"4"},{"start_time":1552055143340,"click_time":1552055144527,"finger_time":1552055143366,"fix_duration":852.1545693377395,"trial":29,"RT":26,"MT":1161,"sideResp":2,"stimulus":"img/500/equaldotanddens/L/11_Ratio_500_L_12_R_6.png","xmouse":[813,833,851,859,868,883,891,903,912,926,952,970,977,994,1004,1026,1035,1042,1051,1060,1078,1089,1096,1105,1109,1119,1122,1125,1129,1133,1148,1155,1161,1163,1165,1170,1173,1175,1176,1178,1179,1180,1180,1180,1180,1176,1175,1173,1173,1172,1172,1171,1170,1169,1169,1167,1164,1162,1159,1153],"ymouse":[589,560,535,523,509,488,476,460,445,427,389,363,355,331,317,291,280,272,262,253,237,228,223,216,213,205,202,199,195,192,179,174,169,168,165,157,151,148,145,141,134,132,128,125,119,103,96,91,88,87,87,85,83,83,83,82,80,78,75,70],"timestamp_mouse":[10,26,46,66,86,106,126,147,165,185,206,226,246,266,286,306,325,345,366,387,405,427,446,467,486,506,526,546,566,587,606,625,646,665,685,706,726,747,766,785,806,826,846,866,885,906,926,946,965,987,1006,1026,1046,1065,1085,1106,1126,1146,1166,1187],"xSR":741.5,"ySR":573.95,"xT1":424.9,"yT1":0,"xT2":1058.1,"yT2":0,"toosoon":0,"cond_shown":"equaldotanddens","ratio_trial":500,"smaller_num":"6","larger_num":"12","correct_side":1,"subjID":"anamariaavendaño","gender":"1","age":"9","school":"4"},{"start_time":1552055151235,"click_time":1552055151986,"finger_time":1552055151666,"fix_duration":868.5052124526482,"trial":30,"RT":431,"MT":320,"sideResp":1,"stimulus":"img/900/randomdotsizeEA/R/11_Ratio_900_L_18_R_20.png","xmouse":[820,820,820,820,820,820,820,820,820,820,820,820,820,820,820,820,820,817,810,800,788,758,737,711,697,680,644,625,604,571,543,511,506,504,500,499,498,494],"ymouse":[646,646,646,646,646,646,646,646,646,646,646,646,646,646,646,646,640,629,615,602,586,542,515,479,458,438,391,368,345,319,294,257,239,216,181,160,122,98],"timestamp_mouse":[11,31,50,72,91,112,130,150,172,191,212,230,251,272,291,311,331,351,371,391,411,431,452,471,491,510,530,551,571,591,611,631,651,671,691,711,730,751],"xSR":741.5,"ySR":573.95,"xT1":424.9,"yT1":0,"xT2":1058.1,"yT2":0,"toosoon":0,"cond_shown":"randomdotsizeEA","ratio_trial":900,"smaller_num":"18","larger_num":"20","correct_side":2,"subjID":"anamariaavendaño","gender":"1","age":"9","school":"4"},{"start_time":1552055181675,"click_time":1552055182424,"finger_time":1552055182025,"fix_duration":1009.1022623176966,"trial":31,"RT":350,"MT":399,"sideResp":2,"stimulus":"img/900/equaldotsize/L/4_Ratio_900_L_20_R_18.png","xmouse":[783,783,783,783,783,784,785,787,788,789,790,792,799,806,816,825,833,850,864,870,874,880,887,903,915,928,941,952,978,987,994,1002,1019,1028,1036,1045,1055,1080],"ymouse":[626,626,626,626,626,627,627,627,627,627,627,627,624,620,612,601,588,557,530,509,488,470,451,415,394,370,348,328,270,245,227,208,169,153,139,128,118,96],"timestamp_mouse":[10,30,49,70,90,109,130,149,170,190,210,230,249,270,290,309,329,350,370,390,410,430,450,470,491,510,530,549,570,589,610,630,650,669,689,710,730,749],"xSR":741.5,"ySR":573.95,"xT1":424.9,"yT1":0,"xT2":1058.1,"yT2":0,"toosoon":0,"cond_shown":"equaldotsize","ratio_trial":900,"smaller_num":"18","larger_num":"20","correct_side":1,"subjID":"anamariaavendaño","gender":"1","age":"9","school":"4"},{"start_time":1552055183645,"click_time":1552055184385,"finger_time":1552055184046,"fix_duration":360.56300306003595,"trial":32,"RT":401,"MT":339,"sideResp":2,"stimulus":"img/250/equaldotanddens/L/3_Ratio_250_L_8_R_2.png","xmouse":[780,780,780,780,780,780,780,780,780,780,780,780,780,781,786,793,801,810,821,841,845,850,857,864,882,889,894,900,904,922,936,951,969,987,1033,1054,1071],"ymouse":[634,634,634,634,634,634,634,634,634,634,634,634,634,633,629,624,618,609,596,539,523,509,494,475,415,381,343,301,277,226,202,178,153,130,80,58,40],"timestamp_mouse":[19,40,60,80,99,121,140,160,181,201,220,240,260,280,300,320,339,361,380,401,420,440,460,479,500,519,540,560,580,601,620,639,660,680,700,720,740],"xSR":741.5,"ySR":573.95,"xT1":424.9,"yT1":0,"xT2":1058.1,"yT2":0,"toosoon":0,"cond_shown":"equaldotanddens","ratio_trial":250,"smaller_num":"2","larger_num":"8","correct_side":1,"subjID":"anamariaavendaño","gender":"1","age":"9","school":"4"},{"start_time":1552055185999,"click_time":1552055186926,"finger_time":1552055186406,"fix_duration":552.14538765732,"trial":33,"RT":407,"MT":520,"sideResp":1,"stimulus":"img/900/randomdotsizeEA/L/1_Ratio_900_L_10_R_9.png","xmouse":[819,819,819,819,819,819,819,819,819,819,819,819,819,819,819,819,818,807,795,772,747,713,617,572,530,491,452,402,381,357,331,309,300,299,299,299,299,299,300,301,306,320,360,387,409,422,426],"ymouse":[621,621,621,621,621,621,621,621,621,621,621,621,621,621,621,621,621,613,601,580,556,519,408,357,306,261,215,136,97,55,12,0,0,0,0,0,0,0,0,0,0,7,32,48,61,68,71],"timestamp_mouse":[6,26,46,67,87,106,126,145,167,187,206,226,245,266,287,306,326,346,366,386,407,426,446,466,486,505,527,546,566,585,607,626,647,666,685,706,726,746,767,786,806,825,846,866,886,906,927],"xSR":741.5,"ySR":573.95,"xT1":424.9,"yT1":0,"xT2":1058.1,"yT2":0,"toosoon":0,"cond_shown":"randomdotsizeEA","ratio_trial":900,"smaller_num":"9","larger_num":"10","correct_side":1,"subjID":"anamariaavendaño","gender":"1","age":"9","school":"4"},{"start_time":1552055189165,"click_time":1552055189825,"finger_time":1552055189544,"fix_duration":1398.2901962627311,"trial":34,"RT":379,"MT":281,"sideResp":1,"stimulus":"img/250/randomdotsizeEA/R/10_Ratio_250_L_4_R_16.png","xmouse":[779,779,779,779,779,779,779,779,779,779,779,779,779,779,779,779,778,773,752,684,649,613,577,537,448,416,390,379,375,375,384,395,415,437],"ymouse":[656,656,656,656,656,656,656,656,656,656,656,656,656,656,656,656,652,644,616,530,488,440,397,349,247,200,162,142,129,122,113,107,101,99],"timestamp_mouse":[0,21,41,60,81,101,120,140,161,179,199,220,240,259,281,299,319,340,361,379,400,420,440,460,480,500,521,540,560,580,600,620,640,660],"xSR":741.5,"ySR":573.95,"xT1":424.9,"yT1":0,"xT2":1058.1,"yT2":0,"toosoon":0,"cond_shown":"randomdotsizeEA","ratio_trial":250,"smaller_num":"4","larger_num":"16","correct_side":2,"subjID":"anamariaavendaño","gender":"1","age":"9","school":"4"},{"start_time":1552055191876,"click_time":1552055192465,"finger_time":1552055192225,"fix_duration":809.4601445321867,"trial":35,"RT":349,"MT":240,"sideResp":2,"stimulus":"img/900/equaldotanddens/R/12_Ratio_900_L_18_R_20.png","xmouse":[835,835,835,835,835,835,836,836,836,836,836,836,836,836,836,836,837,842,872,904,946,970,989,1001,1017,1026,1034,1043,1050,1059],"ymouse":[652,652,652,652,652,652,648,644,635,634,634,634,634,634,634,633,630,615,527,439,340,256,193,145,119,108,97,81,67,40],"timestamp_mouse":[9,28,48,69,90,108,130,149,169,189,210,230,250,269,289,308,329,349,369,389,409,429,450,469,489,508,529,549,570,589],"xSR":741.5,"ySR":573.95,"xT1":424.9,"yT1":0,"xT2":1058.1,"yT2":0,"toosoon":0,"cond_shown":"equaldotanddens","ratio_trial":900,"smaller_num":"18","larger_num":"20","correct_side":2,"subjID":"anamariaavendaño","gender":"1","age":"9","school":"4"},{"start_time":1552055194885,"click_time":1552055195726,"finger_time":1552055195285,"fix_duration":677.4248046193825,"trial":36,"RT":400,"MT":441,"sideResp":1,"stimulus":"img/900/equaldotanddens/L/4_Ratio_900_L_20_R_18.png","xmouse":[773,773,773,773,773,773,773,773,773,773,773,773,773,773,773,773,773,774,774,769,759,738,721,695,636,608,590,574,562,548,546,544,544,544,549,550,550,550,550,550,546,538,519],"ymouse":[641,641,641,641,641,641,641,641,641,641,641,641,641,641,641,641,639,633,620,585,566,535,512,476,391,345,323,302,285,247,226,206,178,162,135,130,128,128,128,121,110,98,73],"timestamp_mouse":[1,19,41,59,80,101,119,139,161,180,200,219,241,261,281,299,320,340,359,380,400,420,440,460,481,499,520,539,561,580,601,620,640,660,680,700,720,740,759,780,800,819,841],"xSR":741.5,"ySR":573.95,"xT1":424.9,"yT1":0,"xT2":1058.1,"yT2":0,"toosoon":0,"cond_shown":"equaldotanddens","ratio_trial":900,"smaller_num":"18","larger_num":"20","correct_side":1,"subjID":"anamariaavendaño","gender":"1","age":"9","school":"4"},{"start_time":1552055199009,"click_time":1552055200005,"finger_time":1552055199625,"fix_duration":1084.3692851625774,"trial":37,"RT":616,"MT":380,"sideResp":1,"stimulus":"img/250/equaldotanddens/L/1_Ratio_250_L_8_R_2.png","xmouse":[831,830,828,828,828,828,828,828,828,828,828,828,828,828,828,828,828,828,828,828,828,828,828,828,828,828,829,832,831,824,814,801,759,723,691,663,644,630,612,606,601,597,580,573,568,560,553,536,529,524],"ymouse":[657,652,650,646,646,646,645,645,645,645,645,644,644,644,644,644,644,644,644,644,644,644,644,644,644,637,634,609,593,574,552,529,473,430,396,368,344,323,282,259,237,212,155,135,119,102,86,61,53,48],"timestamp_mouse":[17,37,56,76,97,117,136,155,175,195,217,236,255,277,296,317,336,355,376,396,417,436,456,476,496,516,536,555,576,595,616,637,655,676,696,715,735,756,775,797,816,837,855,876,895,916,936,955,976,996],"xSR":741.5,"ySR":573.95,"xT1":424.9,"yT1":0,"xT2":1058.1,"yT2":0,"toosoon":0,"cond_shown":"equaldotanddens","ratio_trial":250,"smaller_num":"2","larger_num":"8","correct_side":1,"subjID":"anamariaavendaño","gender":"1","age":"9","school":"4"},{"start_time":1552055201922,"click_time":1552055202705,"finger_time":1552055202326,"fix_duration":1136.1283291799111,"trial":38,"RT":404,"MT":379,"sideResp":1,"stimulus":"img/500/randomdotsizeEA/L/7_Ratio_500_L_10_R_5.png","xmouse":[794,794,794,794,794,794,794,794,794,794,794,794,794,794,794,794,792,788,761,747,735,727,719,702,695,687,682,672,657,650,642,631,613,565,531,508,490,483,473,466],"ymouse":[628,628,628,628,628,628,628,628,628,628,628,628,628,628,628,628,628,628,603,583,565,555,542,518,508,493,480,456,419,397,372,348,319,262,230,203,173,158,118,95],"timestamp_mouse":[4,23,43,63,84,103,124,144,162,183,203,224,244,264,284,303,322,343,363,383,404,423,443,463,483,503,523,543,564,583,603,622,643,663,683,702,722,743,762,783],"xSR":741.5,"ySR":573.95,"xT1":424.9,"yT1":0,"xT2":1058.1,"yT2":0,"toosoon":0,"cond_shown":"randomdotsizeEA","ratio_trial":500,"smaller_num":"5","larger_num":"10","correct_side":1,"subjID":"anamariaavendaño","gender":"1","age":"9","school":"4"},{"start_time":1552055206145,"click_time":1552055207405,"finger_time":1552055206904,"fix_duration":1139.4343721096873,"trial":39,"RT":759,"MT":501,"sideResp":1,"stimulus":"img/900/equaldotsize/L/2_Ratio_900_L_20_R_18.png","xmouse":[831,831,831,831,831,831,831,831,831,831,831,831,831,831,831,831,831,831,831,831,831,831,831,831,831,831,831,831,831,831,831,831,829,819,802,784,758,690,667,657,655,655,655,655,655,653,640,631,621,612,602,590,578,572,566,561,550,541,534,529,519,495,484],"ymouse":[626,626,626,626,626,626,626,626,626,626,626,626,626,626,626,626,626,626,626,626,626,626,626,626,626,626,626,626,626,626,626,626,624,624,619,608,594,556,541,534,533,522,507,490,466,437,368,342,317,296,275,246,226,216,206,197,185,178,170,164,150,116,91],"timestamp_mouse":[21,40,60,81,101,121,140,161,180,200,221,239,260,281,300,320,339,361,380,400,421,441,460,480,499,521,541,560,581,600,620,639,661,680,700,720,740,759,780,801,820,840,860,880,900,920,939,960,980,1000,1020,1040,1059,1079,1101,1120,1140,1159,1180,1200,1219,1240,1260],"xSR":741.5,"ySR":573.95,"xT1":424.9,"yT1":0,"xT2":1058.1,"yT2":0,"toosoon":0,"cond_shown":"equaldotsize","ratio_trial":900,"smaller_num":"18","larger_num":"20","correct_side":1,"subjID":"anamariaavendaño","gender":"1","age":"9","school":"4"},{"start_time":1552055209685,"click_time":1552055210425,"finger_time":1552055210084,"fix_duration":1238.1496680749215,"trial":40,"RT":399,"MT":341,"sideResp":2,"stimulus":"img/900/equaldotanddens/R/15_Ratio_900_L_9_R_10.png","xmouse":[777,777,777,777,777,777,777,777,777,777,777,777,777,778,781,790,797,804,811,816,825,836,844,851,860,874,892,903,913,926,955,969,982,998,1022,1042,1079,1092],"ymouse":[630,630,630,630,630,630,630,630,630,630,630,630,630,630,630,621,614,606,593,581,565,528,505,479,449,409,356,329,307,282,241,221,205,185,155,137,104,86],"timestamp_mouse":[0,22,40,61,80,101,120,140,160,179,199,220,240,259,280,300,320,340,360,380,399,419,440,460,480,500,521,540,560,580,600,619,639,660,681,700,721,740],"xSR":741.5,"ySR":573.95,"xT1":424.9,"yT1":0,"xT2":1058.1,"yT2":0,"toosoon":0,"cond_shown":"equaldotanddens","ratio_trial":900,"smaller_num":"9","larger_num":"10","correct_side":2,"subjID":"anamariaavendaño","gender":"1","age":"9","school":"4"},{"start_time":1552055212468,"click_time":1552055213885,"finger_time":1552055213305,"fix_duration":963.1985500635296,"trial":41,"RT":837,"MT":580,"sideResp":2,"stimulus":"img/900/equaldotanddens/R/14_Ratio_900_L_18_R_20.png","xmouse":[805,805,805,805,805,805,805,805,805,805,805,805,805,805,805,804,802,802,802,802,802,802,802,802,802,802,802,802,802,802,802,802,802,802,802,802,802,802,806,809,819,859,867,896,910,921,953,977,999,1026,1050,1097,1118,1132,1150,1159,1172,1174,1175,1175,1175,1174,1172,1172,1171,1170,1169,1168,1164,1160,1154],"ymouse":[636,636,636,636,636,636,636,636,636,636,636,636,636,636,636,636,636,636,636,636,636,636,636,636,636,636,636,636,636,636,636,636,636,636,636,636,636,636,632,629,622,590,581,541,516,490,421,383,352,320,291,231,205,186,160,142,110,96,85,77,71,62,60,59,57,57,56,56,56,56,56],"timestamp_mouse":[18,37,57,76,98,117,137,158,177,197,216,238,257,278,297,318,338,357,377,397,417,437,457,477,497,517,537,557,578,597,617,637,657,678,697,716,736,759,777,797,817,837,857,876,896,916,937,957,977,997,1018,1038,1058,1077,1098,1117,1138,1157,1177,1197,1216,1237,1258,1277,1297,1316,1338,1356,1377,1397,1417],"xSR":741.5,"ySR":573.95,"xT1":424.9,"yT1":0,"xT2":1058.1,"yT2":0,"toosoon":0,"cond_shown":"equaldotanddens","ratio_trial":900,"smaller_num":"18","larger_num":"20","correct_side":2,"subjID":"anamariaavendaño","gender":"1","age":"9","school":"4"},{"start_time":1552055215336,"click_time":1552055216304,"finger_time":1552055215785,"fix_duration":630.2148899810061,"trial":42,"RT":449,"MT":519,"sideResp":2,"stimulus":"img/750/equaldotsize/R/4_Ratio_750_L_15_R_20.png","xmouse":[800,800,800,800,800,800,800,800,800,800,800,800,800,801,804,808,814,819,824,828,833,839,846,864,871,883,893,903,925,939,950,961,974,994,1005,1018,1029,1040,1054,1079,1085,1090,1095,1098,1103,1105,1107,1110,1114],"ymouse":[649,649,649,649,649,649,649,649,649,649,649,649,649,648,646,643,637,630,623,617,610,602,591,563,545,522,495,469,417,381,360,342,322,287,270,256,240,227,212,179,170,159,149,141,127,121,112,100,74],"timestamp_mouse":[9,30,49,69,90,110,130,149,168,189,209,230,248,269,289,309,329,350,368,390,409,430,449,469,490,510,528,548,569,590,609,629,649,668,689,709,729,749,768,788,809,829,849,869,889,909,929,948,968],"xSR":741.5,"ySR":573.95,"xT1":424.9,"yT1":0,"xT2":1058.1,"yT2":0,"toosoon":0,"cond_shown":"equaldotsize","ratio_trial":750,"smaller_num":"15","larger_num":"20","correct_side":2,"subjID":"anamariaavendaño","gender":"1","age":"9","school":"4"},{"start_time":1552055217678,"click_time":1552055218724,"finger_time":1552055218225,"fix_duration":250,"trial":43,"RT":547,"MT":499,"sideResp":2,"stimulus":"img/750/equaldotsize/R/2_Ratio_750_L_6_R_8.png","xmouse":[812,812,812,812,812,812,812,812,812,812,812,812,812,812,812,812,812,812,812,812,812,812,814,815,819,822,830,849,860,871,885,909,935,946,954,961,969,989,997,1005,1011,1018,1025,1028,1032,1037,1040,1052,1057,1062,1068,1077,1085],"ymouse":[639,639,639,639,639,639,639,639,639,639,639,639,639,639,639,639,639,639,639,639,637,634,629,626,620,611,599,571,551,529,502,458,410,391,378,366,355,327,312,295,277,264,246,240,231,220,207,179,166,153,139,119,98],"timestamp_mouse":[14,27,48,68,88,107,126,147,167,188,208,227,246,267,288,308,328,346,366,388,407,427,448,467,488,507,528,547,567,587,606,626,646,666,687,706,726,747,767,788,806,826,846,866,886,906,926,947,966,986,1007,1027,1046],"xSR":741.5,"ySR":573.95,"xT1":424.9,"yT1":0,"xT2":1058.1,"yT2":0,"toosoon":0,"cond_shown":"equaldotsize","ratio_trial":750,"smaller_num":"6","larger_num":"8","correct_side":2,"subjID":"anamariaavendaño","gender":"1","age":"9","school":"4"},{"start_time":1552055219975,"click_time":1552055220765,"finger_time":1552055220365,"fix_duration":367.41941595898544,"trial":44,"RT":390,"MT":400,"sideResp":2,"stimulus":"img/500/randomdotsizeEA/L/11_Ratio_500_L_12_R_6.png","xmouse":[770,771,773,773,773,774,774,774,774,774,774,774,776,779,781,791,797,812,816,822,829,837,854,866,875,883,899,930,943,958,971,983,1005,1016,1024,1045,1062,1093,1104,1112],"ymouse":[631,631,629,629,629,629,629,629,629,629,629,629,628,625,624,615,609,586,578,565,552,535,495,475,459,445,414,359,337,314,293,278,248,233,221,194,167,124,108,98],"timestamp_mouse":[9,30,51,70,90,110,129,151,171,190,211,231,250,271,289,310,330,351,370,390,410,430,449,469,490,510,530,551,569,589,609,630,649,670,689,710,730,751,770,790],"xSR":741.5,"ySR":573.95,"xT1":424.9,"yT1":0,"xT2":1058.1,"yT2":0,"toosoon":0,"cond_shown":"randomdotsizeEA","ratio_trial":500,"smaller_num":"6","larger_num":"12","correct_side":1,"subjID":"anamariaavendaño","gender":"1","age":"9","school":"4"},{"start_time":1552055224861,"click_time":1552055226725,"finger_time":1552055225225,"fix_duration":1454.9727170470578,"trial":45,"RT":364,"MT":1500,"sideResp":1,"stimulus":"img/250/equaldotsize/L/15_Ratio_250_L_12_R_3.png","xmouse":[781,781,781,781,781,781,781,781,781,781,781,781,781,781,781,780,784,794,807,818,824,832,842,863,873,884,893,901,907,926,932,934,935,934,931,926,914,897,855,802,762,717,664,531,455,377,311,243,185,150,149,149,149,149,151,156,164,173,194,229,245,249,249,252,257,265,277,291,315,316,318,318,318,318,320,323,326,329,329,329,329,329,329,329,329,332,341,351,369,391,400,410,421,442],"ymouse":[614,614,614,614,614,614,614,614,614,614,614,614,614,614,614,613,606,590,573,555,542,529,512,475,457,438,424,409,400,367,356,346,336,322,316,307,293,277,238,181,140,101,60,0,0,0,0,0,0,0,0,0,1,16,28,42,58,72,96,128,138,141,141,141,141,140,136,131,123,122,121,121,121,121,120,120,119,118,118,118,118,118,118,118,118,118,117,116,114,110,109,106,101,95],"timestamp_mouse":[4,25,45,63,83,104,125,144,164,184,204,224,245,263,285,304,324,344,364,385,404,425,444,463,484,505,524,543,564,584,604,624,644,664,685,704,724,743,764,785,804,824,844,864,884,903,924,944,964,985,1004,1025,1044,1064,1083,1104,1124,1144,1163,1183,1204,1223,1243,1266,1284,1305,1324,1345,1364,1384,1405,1423,1444,1464,1484,1505,1524,1544,1564,1584,1603,1625,1644,1665,1684,1705,1724,1744,1763,1784,1803,1825,1844,1864],"xSR":741.5,"ySR":573.95,"xT1":424.9,"yT1":0,"xT2":1058.1,"yT2":0,"toosoon":0,"cond_shown":"equaldotsize","ratio_trial":250,"smaller_num":"3","larger_num":"12","correct_side":1,"subjID":"anamariaavendaño","gender":"1","age":"9","school":"4"},{"start_time":1552055229617,"click_time":1552055230625,"finger_time":1552055230265,"fix_duration":250,"trial":46,"RT":648,"MT":360,"sideResp":2,"stimulus":"img/750/randomdotsizeEA/R/12_Ratio_750_L_3_R_4.png","xmouse":[786,786,786,786,786,786,786,786,786,786,786,786,786,786,786,786,786,786,786,786,786,786,786,786,786,786,786,786,786,787,794,826,841,854,863,872,893,906,918,944,963,1002,1015,1026,1033,1042,1063,1078,1101,1117,1133],"ymouse":[605,605,605,605,605,605,605,605,605,605,605,605,605,605,605,605,605,605,605,605,605,605,605,605,605,605,605,605,605,603,600,583,573,565,560,553,532,516,499,460,426,357,335,315,299,278,229,198,143,105,70],"timestamp_mouse":[7,27,49,69,89,109,128,147,168,189,208,228,248,269,288,308,327,347,369,389,408,427,447,468,489,509,528,547,568,588,608,629,648,668,688,709,728,749,768,788,808,828,848,867,888,908,928,948,967,988,1008],"xSR":741.5,"ySR":573.95,"xT1":424.9,"yT1":0,"xT2":1058.1,"yT2":0,"toosoon":0,"cond_shown":"randomdotsizeEA","ratio_trial":750,"smaller_num":"3","larger_num":"4","correct_side":2,"subjID":"anamariaavendaño","gender":"1","age":"9","school":"4"},{"start_time":1552055233347,"click_time":1552055234224,"finger_time":1552055233765,"fix_duration":421.4548376116042,"trial":47,"RT":418,"MT":459,"sideResp":1,"stimulus":"img/500/equaldotanddens/L/10_Ratio_500_L_4_R_2.png","xmouse":[776,776,776,776,776,776,776,776,776,776,776,776,776,776,776,776,776,775,774,767,748,738,729,723,713,705,699,691,683,665,653,648,646,644,640,637,634,629,624,605,586,562,533,515],"ymouse":[628,628,628,628,628,628,628,628,628,628,628,628,628,628,628,628,628,627,621,602,558,535,513,497,467,450,431,409,389,356,334,323,317,310,299,292,283,274,262,217,186,152,122,99],"timestamp_mouse":[17,38,58,79,99,117,138,158,178,198,217,238,258,278,298,318,337,357,379,397,418,438,458,478,498,518,538,557,578,598,618,638,658,678,698,718,738,758,777,798,819,838,859,877],"xSR":741.5,"ySR":573.95,"xT1":424.9,"yT1":0,"xT2":1058.1,"yT2":0,"toosoon":0,"cond_shown":"equaldotanddens","ratio_trial":500,"smaller_num":"2","larger_num":"4","correct_side":1,"subjID":"anamariaavendaño","gender":"1","age":"9","school":"4"},{"start_time":1552055235481,"click_time":1552055236465,"finger_time":1552055235925,"fix_duration":416.5833785893905,"trial":48,"RT":444,"MT":540,"sideResp":1,"stimulus":"img/750/randomdotsizeEA/R/4_Ratio_750_L_15_R_20.png","xmouse":[809,809,809,809,809,809,809,809,809,809,809,809,809,809,809,809,809,809,809,806,800,793,781,771,757,751,747,741,731,704,688,673,651,638,612,601,592,586,584,579,572,567,561,552,538,534,532,529,526,516],"ymouse":[650,650,650,650,650,650,650,650,650,650,650,650,650,650,650,650,650,650,649,637,618,599,571,554,530,519,510,496,473,421,393,362,322,290,226,206,188,177,170,154,144,135,126,111,96,93,92,87,83,70],"timestamp_mouse":[7,25,44,65,85,104,124,144,163,184,204,224,243,263,285,304,325,344,364,384,404,424,444,464,485,504,525,544,563,584,603,624,644,664,684,704,724,744,764,784,804,823,845,864,884,903,924,945,965,984],"xSR":741.5,"ySR":573.95,"xT1":424.9,"yT1":0,"xT2":1058.1,"yT2":0,"toosoon":0,"cond_shown":"randomdotsizeEA","ratio_trial":750,"smaller_num":"15","larger_num":"20","correct_side":2,"subjID":"anamariaavendaño","gender":"1","age":"9","school":"4"},{"start_time":1552055238645,"click_time":1552055239664,"finger_time":1552055239164,"fix_duration":1138.2743884203985,"trial":49,"RT":519,"MT":500,"sideResp":2,"stimulus":"img/900/equaldotanddens/L/4_Ratio_900_L_20_R_18.png","xmouse":[766,766,766,766,766,766,766,766,766,766,766,766,766,766,766,766,769,773,776,781,785,794,802,805,811,817,835,845,851,858,863,880,897,908,919,930,955,963,970,977,982,994,1007,1013,1019,1026,1036,1041,1046,1050,1054,1059],"ymouse":[628,628,628,628,628,628,628,628,628,628,628,628,628,628,628,629,629,626,622,619,617,611,603,600,594,588,567,557,551,541,533,504,474,454,436,412,354,335,319,303,290,261,212,185,170,154,128,115,106,100,93,86],"timestamp_mouse":[0,22,40,61,81,100,119,140,161,180,200,220,241,261,281,300,321,340,359,379,400,419,440,460,480,500,519,540,560,579,599,619,640,660,679,699,719,740,759,779,799,820,840,859,879,899,919,940,959,979,999,1019],"xSR":741.5,"ySR":573.95,"xT1":424.9,"yT1":0,"xT2":1058.1,"yT2":0,"toosoon":0,"cond_shown":"equaldotanddens","ratio_trial":900,"smaller_num":"18","larger_num":"20","correct_side":1,"subjID":"anamariaavendaño","gender":"1","age":"9","school":"4"},{"start_time":1552055241501,"click_time":1552055242126,"finger_time":1552055241924,"fix_duration":1013.3233957487577,"trial":50,"RT":423,"MT":202,"sideResp":1,"stimulus":"img/750/randomdotsizeEA/R/3_Ratio_750_L_15_R_20.png","xmouse":[781,781,781,781,781,781,781,781,781,781,781,781,781,781,781,781,781,781,782,800,804,807,807,807,803,792,774,749,642,597,548,510],"ymouse":[650,650,650,650,650,650,650,650,650,650,650,650,650,650,650,650,650,650,645,601,585,564,543,486,465,431,378,322,166,117,73,42],"timestamp_mouse":[7,24,44,63,84,105,125,143,163,183,204,224,244,263,283,304,323,344,364,384,404,423,443,464,484,505,524,545,564,584,603,625],"xSR":741.5,"ySR":573.95,"xT1":424.9,"yT1":0,"xT2":1058.1,"yT2":0,"toosoon":0,"cond_shown":"randomdotsizeEA","ratio_trial":750,"smaller_num":"15","larger_num":"20","correct_side":2,"subjID":"anamariaavendaño","gender":"1","age":"9","school":"4"},{"start_time":1552055247972,"click_time":1552055249285,"finger_time":1552055248345,"fix_duration":726.9893310393406,"trial":51,"RT":373,"MT":940,"sideResp":2,"stimulus":"img/500/equaldotsize/R/3_Ratio_500_L_10_R_20.png","xmouse":[791,791,791,791,791,791,791,791,791,791,791,791,790,785,777,758,750,744,741,736,720,704,695,690,689,687,685,685,683,683,684,693,702,714,729,760,773,789,811,832,874,898,909,919,926,939,947,958,968,979,994,998,998,998,998,999,1001,1005,1008,1011,1015,1026,1035,1040,1050,1073],"ymouse":[650,650,649,647,647,647,647,647,647,647,647,647,646,642,634,613,604,593,584,571,535,497,477,465,460,440,426,412,395,386,365,348,341,338,333,329,326,321,315,309,297,292,291,288,286,280,274,268,260,251,226,209,182,165,149,123,112,102,94,87,79,67,60,56,53,51],"timestamp_mouse":[15,33,53,74,94,114,132,154,172,192,213,234,253,272,292,312,334,353,373,393,413,432,452,474,492,513,533,554,573,594,613,634,653,672,693,713,733,754,773,794,813,833,853,872,892,913,933,954,973,993,1012,1034,1054,1074,1093,1112,1133,1153,1172,1193,1213,1232,1253,1274,1293,1312],"xSR":741.5,"ySR":573.95,"xT1":424.9,"yT1":0,"xT2":1058.1,"yT2":0,"toosoon":0,"cond_shown":"equaldotsize","ratio_trial":500,"smaller_num":"10","larger_num":"20","correct_side":2,"subjID":"anamariaavendaño","gender":"1","age":"9","school":"4"},{"start_time":1552055251304,"click_time":1552055252484,"finger_time":1552055252044,"fix_duration":1119.1132783865003,"trial":52,"RT":740,"MT":440,"sideResp":1,"stimulus":"img/500/equaldotsize/L/13_Ratio_500_L_12_R_6.png","xmouse":[766,766,766,766,766,766,766,766,766,766,766,766,766,766,766,766,766,766,766,766,766,766,766,766,766,766,766,766,766,766,766,766,766,766,766,762,744,718,686,653,618,611,608,604,595,589,582,576,574,572,570,569,567,565,560,545,536,525,516,510],"ymouse":[628,628,628,628,628,628,628,628,628,628,628,628,628,628,628,628,628,628,628,628,628,628,628,628,628,628,628,628,628,628,628,628,628,628,628,621,596,558,495,431,356,337,320,305,257,238,221,208,199,191,187,184,177,172,163,135,123,111,103,98],"timestamp_mouse":[4,22,42,61,81,101,121,141,162,181,202,221,240,261,281,300,321,341,360,381,401,420,442,462,482,500,521,540,560,581,602,621,642,660,681,700,720,740,761,780,801,821,841,862,880,900,921,941,961,980,1000,1020,1040,1061,1081,1101,1120,1142,1161,1180],"xSR":741.5,"ySR":573.95,"xT1":424.9,"yT1":0,"xT2":1058.1,"yT2":0,"toosoon":0,"cond_shown":"equaldotsize","ratio_trial":500,"smaller_num":"6","larger_num":"12","correct_side":1,"subjID":"anamariaavendaño","gender":"1","age":"9","school":"4"},{"start_time":1552055254134,"click_time":1552055255045,"finger_time":1552055254586,"fix_duration":369.87733687096915,"trial":53,"RT":452,"MT":459,"sideResp":1,"stimulus":"img/500/randomdotsizeEA/L/5_Ratio_500_L_4_R_2.png","xmouse":[789,789,789,789,789,789,789,789,789,789,789,789,789,789,789,789,789,789,789,787,785,774,759,713,681,648,629,618,612,610,607,603,590,559,545,538,534,533,533,531,529,525,523,522,520,519],"ymouse":[639,639,639,639,639,639,639,639,639,639,639,639,639,639,639,639,639,639,639,628,620,590,567,502,462,431,407,390,362,343,324,299,258,202,183,173,168,165,159,152,135,123,118,107,102,99],"timestamp_mouse":[10,32,52,71,90,112,130,150,172,192,211,230,250,272,292,312,330,350,371,391,411,431,452,471,491,512,532,551,571,591,611,631,651,670,690,710,730,750,770,790,811,832,851,871,891,910],"xSR":741.5,"ySR":573.95,"xT1":424.9,"yT1":0,"xT2":1058.1,"yT2":0,"toosoon":0,"cond_shown":"randomdotsizeEA","ratio_trial":500,"smaller_num":"2","larger_num":"4","correct_side":1,"subjID":"anamariaavendaño","gender":"1","age":"9","school":"4"},{"start_time":1552055257490,"click_time":1552055258105,"finger_time":1552055257804,"fix_duration":1303.788609360085,"trial":54,"RT":314,"MT":301,"sideResp":1,"stimulus":"img/250/equaldotsize/R/9_Ratio_250_L_3_R_12.png","xmouse":[781,781,781,781,781,781,781,781,781,781,781,781,781,778,775,731,699,674,658,649,638,628,623,614,604,587,579,570,555,536,506],"ymouse":[649,649,649,649,649,649,649,649,649,649,649,649,649,641,631,529,448,392,352,321,273,242,225,202,180,151,139,125,108,91,60],"timestamp_mouse":[19,36,56,75,94,114,135,156,175,194,215,234,255,274,295,314,335,355,375,396,415,434,455,474,494,516,535,555,575,594,615],"xSR":741.5,"ySR":573.95,"xT1":424.9,"yT1":0,"xT2":1058.1,"yT2":0,"toosoon":0,"cond_shown":"equaldotsize","ratio_trial":250,"smaller_num":"3","larger_num":"12","correct_side":2,"subjID":"anamariaavendaño","gender":"1","age":"9","school":"4"},{"start_time":1552055261946,"click_time":1552055265785,"finger_time":1552055264705,"fix_duration":1499.179016036289,"trial":55,"RT":2759,"MT":1080,"sideResp":1,"stimulus":"img/500/equaldotanddens/L/7_Ratio_500_L_10_R_5.png","xmouse":[795,795,795,795,795,795,795,795,795,795,795,795,795,795,795,795,795,795,795,795,795,795,795,795,795,795,795,795,795,795,795,795,795,795,795,795,795,795,795,795,795,795,795,795,795,795,795,795,795,795,795,795,795,795,795,795,795,795,795,795,795,795,795,795,795,795,795,795,795,795,795,795,795,795,795,795,795,795,795,795,795,795,795,795,795,795,795,795,795,795,795,795,795,795,795,795,795,795,795,795,795,795,795,795,795,795,795,795,795,795,795,795,795,795,795,795,795,795,795,795,795,795,795,795,795,795,795,795,795,795,795,795,795,795,795,795,795,682,414,258,179,171,171,171,170,170,161,153,133,126,116,103,89,62,52,40,28,16,0,0,0,0,0,0,0,0,0,0,0,0,0,0,0,0,0,0,0,0,0,0,3,9,20,63,137,211,291,362,421,425,426,428],"ymouse":[665,665,665,665,665,665,665,665,665,665,665,665,665,665,665,665,665,665,665,665,665,665,665,665,665,665,665,665,665,665,665,665,665,665,665,665,665,665,665,665,665,665,665,665,665,665,665,665,665,665,665,665,665,665,665,665,665,665,665,665,665,665,665,665,665,665,665,665,665,665,665,665,665,665,665,665,665,665,665,665,665,665,665,665,665,665,665,665,665,665,665,665,665,665,665,665,665,665,665,665,665,665,665,665,665,665,665,665,665,665,665,665,665,665,665,665,665,665,665,665,665,665,665,665,665,665,665,665,665,665,665,665,665,665,665,665,665,551,339,275,249,248,248,248,249,249,251,246,204,171,125,72,18,0,0,0,0,0,0,0,0,0,0,0,0,0,0,0,0,0,0,0,0,0,0,0,0,0,0,0,0,0,0,0,0,0,0,0,0,0,0,1],"timestamp_mouse":[19,40,60,78,99,120,140,160,178,199,218,240,259,279,300,320,339,359,380,399,418,439,460,480,498,519,540,560,579,599,619,640,660,679,698,719,740,759,779,799,820,839,859,878,898,920,940,958,978,1000,1019,1038,1058,1080,1099,1120,1139,1159,1179,1200,1220,1238,1260,1278,1299,1319,1340,1360,1379,1398,1418,1439,1458,1479,1499,1518,1540,1559,1579,1598,1620,1639,1660,1679,1700,1719,1740,1759,1778,1800,1819,1838,1860,1879,1898,1918,1940,1959,1979,1999,2019,2038,2060,2079,2099,2119,2139,2159,2178,2200,2220,2240,2259,2279,2299,2319,2338,2360,2379,2399,2420,2438,2459,2478,2498,2520,2540,2558,2579,2599,2620,2640,2660,2679,2699,2719,2740,2759,2779,2798,2818,2839,2860,2879,2899,2919,2939,2958,2979,2999,3020,3039,3059,3079,3099,3119,3138,3159,3180,3199,3219,3238,3258,3279,3299,3320,3338,3359,3378,3398,3419,3439,3460,3480,3499,3520,3540,3559,3579,3598,3619,3639,3659,3679,3699,3718,3738,3759,3779,3799,3819,3839],"xSR":741.5,"ySR":573.95,"xT1":424.9,"yT1":0,"xT2":1058.1,"yT2":0,"toosoon":0,"cond_shown":"equaldotanddens","ratio_trial":500,"smaller_num":"5","larger_num":"10","correct_side":1,"subjID":"anamariaavendaño","gender":"1","age":"9","school":"4"},{"start_time":1552055271217,"click_time":1552055272825,"finger_time":1552055271745,"fix_duration":250,"trial":56,"RT":528,"MT":1080,"sideResp":2,"stimulus":"img/250/randomdotsizeEA/R/9_Ratio_250_L_3_R_12.png","xmouse":[794,794,794,794,794,794,794,794,794,794,794,794,794,794,794,794,794,794,794,794,794,791,786,780,772,763,746,740,727,722,707,680,669,660,653,645,626,619,613,610,607,607,609,612,617,622,642,657,674,707,770,821,875,928,977,1034,1109,1144,1159,1166,1168,1170,1171,1171,1171,1171,1171,1166,1166,1161,1158,1142,1127,1120,1115,1113,1112,1112,1112,1112,1112],"ymouse":[646,646,646,646,646,646,646,646,646,646,646,646,646,646,646,646,646,646,646,646,644,634,624,612,600,589,568,561,547,540,522,491,476,464,453,439,405,392,380,373,364,354,348,343,338,333,324,317,311,302,279,261,245,227,214,206,206,212,216,218,218,218,217,212,208,204,195,187,186,180,177,168,158,150,142,136,127,123,114,104,96],"timestamp_mouse":[8,28,48,68,88,109,129,148,167,187,209,227,248,267,289,308,328,348,368,388,408,428,448,467,487,508,528,547,568,589,607,628,648,668,688,709,728,748,768,788,807,828,847,867,888,908,928,947,968,987,1008,1027,1047,1068,1088,1108,1128,1149,1168,1187,1207,1228,1247,1269,1288,1308,1328,1347,1367,1388,1408,1429,1447,1467,1487,1509,1528,1549,1568,1587,1608],"xSR":741.5,"ySR":573.95,"xT1":424.9,"yT1":0,"xT2":1058.1,"yT2":0,"toosoon":0,"cond_shown":"randomdotsizeEA","ratio_trial":250,"smaller_num":"3","larger_num":"12","correct_side":2,"subjID":"anamariaavendaño","gender":"1","age":"9","school":"4"},{"start_time":1552055276947,"click_time":1552055280705,"finger_time":1552055280245,"fix_duration":1220.8753322787927,"trial":57,"RT":3298,"MT":460,"sideResp":2,"stimulus":"img/250/randomdotsizeEA/L/1_Ratio_250_L_8_R_2.png","xmouse":[777,777,777,777,777,777,777,777,777,777,777,777,777,777,777,777,777,777,777,777,777,777,777,777,777,777,777,777,777,777,777,777,777,777,777,777,777,777,777,777,777,777,777,777,777,777,777,777,777,777,777,777,777,777,777,777,777,777,777,777,777,777,777,777,777,777,777,777,777,777,777,777,777,777,777,777,777,777,777,777,777,777,777,777,777,777,777,777,777,777,777,777,777,777,777,777,777,777,777,778,778,778,778,778,778,778,778,778,778,778,778,778,778,778,778,778,778,778,778,779,779,779,779,779,779,779,779,779,779,779,779,782,782,782,782,782,782,782,782,782,782,782,782,782,782,782,782,782,782,782,782,782,782,782,782,782,782,782,782,785,795,803,815,832,859,872,883,895,911,923,948,961,977,991,1023,1032,1044,1063,1074,1085,1101,1107,1111,1117,1119,1124,1125,1127],"ymouse":[649,649,649,649,649,649,649,649,649,649,649,649,649,649,649,649,649,649,649,649,649,649,649,649,649,649,649,649,649,649,649,649,649,649,649,649,649,649,649,649,649,649,649,649,649,649,649,649,649,649,649,649,649,649,649,649,649,649,649,649,649,649,649,649,649,649,649,649,649,649,649,649,649,649,649,649,649,649,649,649,649,649,649,649,649,649,649,649,649,649,649,649,649,649,649,649,649,649,649,649,649,649,649,650,651,651,651,651,651,651,651,651,651,651,651,651,651,651,651,652,652,652,652,652,652,652,652,652,652,652,652,652,652,652,652,652,652,652,652,652,652,652,652,652,652,652,652,652,652,652,652,652,652,652,652,652,652,652,650,648,633,624,607,586,550,533,517,501,470,451,416,398,378,358,311,293,275,247,231,215,186,170,157,145,134,114,105,94],"timestamp_mouse":[18,38,58,79,98,117,139,159,177,197,218,239,259,278,298,317,337,359,378,398,418,438,458,478,498,518,537,558,578,598,617,637,659,678,697,717,739,757,777,797,818,838,859,878,898,919,937,957,978,999,1018,1039,1059,1078,1097,1119,1138,1159,1178,1199,1219,1238,1258,1278,1298,1319,1338,1357,1378,1398,1417,1439,1458,1478,1498,1518,1539,1558,1578,1598,1617,1637,1659,1678,1698,1719,1738,1758,1777,1797,1819,1838,1858,1877,1897,1918,1938,1958,1979,1997,2019,2037,2058,2078,2098,2117,2138,2159,2178,2198,2217,2238,2259,2279,2298,2319,2338,2358,2378,2399,2419,2438,2459,2477,2498,2517,2538,2558,2578,2598,2618,2637,2659,2678,2699,2718,2737,2758,2778,2797,2817,2838,2859,2878,2897,2917,2938,2959,2978,2998,3019,3038,3059,3077,3097,3118,3138,3159,3177,3197,3217,3238,3258,3278,3298,3318,3338,3358,3378,3397,3417,3438,3458,3479,3498,3518,3539,3557,3578,3598,3618,3638,3657,3677,3698,3718,3738,3758],"xSR":741.5,"ySR":573.95,"xT1":424.9,"yT1":0,"xT2":1058.1,"yT2":0,"toosoon":0,"cond_shown":"randomdotsizeEA","ratio_trial":250,"smaller_num":"2","larger_num":"8","correct_side":1,"subjID":"anamariaavendaño","gender":"1","age":"9","school":"4"},{"start_time":1552055282136,"click_time":1552055283365,"finger_time":1552055282825,"fix_duration":271.5108207438883,"trial":58,"RT":689,"MT":540,"sideResp":2,"stimulus":"img/900/equaldotanddens/R/15_Ratio_900_L_9_R_10.png","xmouse":[801,801,801,801,801,801,801,801,801,801,801,801,801,801,801,801,801,801,801,801,801,801,801,801,801,801,801,801,801,801,801,808,812,815,818,822,831,844,854,862,873,893,905,916,926,935,958,965,984,998,1011,1036,1042,1044,1045,1047,1047,1048,1052,1055,1058,1063],"ymouse":[616,616,616,616,616,616,616,616,616,616,616,616,616,616,616,616,616,616,616,616,616,616,616,616,616,616,616,616,616,616,613,600,591,582,572,558,525,498,482,464,446,411,395,377,357,335,268,233,187,161,145,112,101,97,94,91,90,89,84,81,79,77],"timestamp_mouse":[10,29,49,68,90,108,130,149,169,190,209,230,250,269,289,310,329,350,369,389,409,429,449,470,488,510,528,548,570,589,609,629,649,669,689,709,729,748,768,789,809,829,849,869,889,908,929,949,968,990,1009,1030,1049,1069,1089,1108,1128,1149,1169,1189,1209,1229],"xSR":741.5,"ySR":573.95,"xT1":424.9,"yT1":0,"xT2":1058.1,"yT2":0,"toosoon":0,"cond_shown":"equaldotanddens","ratio_trial":900,"smaller_num":"9","larger_num":"10","correct_side":2,"subjID":"anamariaavendaño","gender":"1","age":"9","school":"4"},{"start_time":1552055294056,"click_time":1552055295265,"finger_time":1552055294705,"fix_duration":250,"trial":59,"RT":649,"MT":560,"sideResp":2,"stimulus":"img/750/equaldotsize/R/5_Ratio_750_L_15_R_20.png","xmouse":[798,798,798,798,798,798,798,798,798,798,798,798,798,798,798,798,798,798,798,798,797,796,796,796,796,796,796,798,808,817,822,829,848,859,869,878,888,918,929,937,946,954,970,978,985,996,1003,1019,1024,1029,1033,1042,1048,1054,1061,1067,1070,1070,1070,1070,1071],"ymouse":[610,610,610,610,610,610,610,610,610,610,610,610,610,610,610,610,610,610,610,610,611,611,611,611,611,611,611,611,603,595,587,578,545,523,500,478,454,385,358,331,306,282,226,200,174,142,115,52,34,17,5,0,0,0,0,0,0,0,0,0,5],"timestamp_mouse":[9,29,49,68,90,109,129,149,169,188,210,229,250,268,289,308,328,349,369,388,409,429,449,469,488,510,529,548,569,590,608,629,649,668,688,708,729,749,769,789,809,829,849,868,889,908,929,949,969,990,1009,1028,1049,1068,1088,1109,1130,1148,1169,1190,1209],"xSR":741.5,"ySR":573.95,"xT1":424.9,"yT1":0,"xT2":1058.1,"yT2":0,"toosoon":0,"cond_shown":"equaldotsize","ratio_trial":750,"smaller_num":"15","larger_num":"20","correct_side":2,"subjID":"anamariaavendaño","gender":"1","age":"9","school":"4"},{"start_time":1552055297085,"click_time":1552055298346,"finger_time":1552055297446,"fix_duration":978.0690419677575,"trial":60,"RT":361,"MT":900,"sideResp":2,"stimulus":"img/750/randomdotsizeEA/L/1_Ratio_750_L_20_R_15.png","xmouse":[824,824,824,824,824,824,824,824,824,824,824,824,824,824,824,824,824,827,843,863,880,902,906,909,910,911,912,914,919,928,936,954,956,956,950,940,919,916,916,917,922,930,933,933,933,933,949,967,994,1036,1070,1116,1124,1126,1127,1130,1138,1142,1145,1147,1148,1150,1150,1151],"ymouse":[619,619,619,619,619,619,619,619,619,619,619,619,619,619,619,619,619,612,592,558,527,489,479,473,468,462,458,448,429,401,369,280,235,194,128,85,7,0,0,0,0,0,0,0,0,0,25,47,70,92,110,125,126,126,126,124,117,115,113,111,110,105,101,99],"timestamp_mouse":[0,22,39,60,80,100,119,140,1