[{"start_time":1552073550077,"click_time":1552073552113,"finger_time":1552073551633,"fix_duration":300.2311432829268,"trial":0,"RT":1556,"MT":480,"sideResp":1,"stimulus":[],"xmouse":[801,801,801,801,801,801,801,799,796,793,792,792,792,792,792,792,792,792,792,792,792,792,792,792,792,792,792,792,792,792,792,792,792,792,792,792,792,792,792,792,792,792,792,792,792,792,792,792,792,792,792,792,792,792,792,792,792,792,792,792,792,792,792,792,792,792,792,792,792,792,792,792,792,791,781,774,764,754,742,722,698,651,639,633,629,627,615,604,589,569,541,541,541,541,541,541,541,541,541,541,541,510],"ymouse":[539,539,539,539,539,539,539,539,539,539,539,539,539,539,539,539,539,539,539,539,539,539,539,539,539,539,539,539,539,539,539,539,539,539,539,539,539,539,539,539,539,539,539,539,539,539,539,539,539,539,539,539,539,539,539,539,539,539,539,539,539,539,539,539,539,539,539,539,539,539,539,538,538,533,526,521,507,488,462,420,373,277,243,220,196,181,143,119,90,54,6,6,6,6,6,6,6,6,6,6,6,7],"timestamp_mouse":[17,35,55,77,96,115,136,156,176,196,216,237,256,276,297,316,336,356,376,396,416,437,456,477,497,517,535,556,577,597,616,635,657,677,697,716,737,756,777,796,817,837,855,876,896,916,937,955,977,996,1016,1037,1057,1076,1096,1117,1137,1156,1176,1197,1216,1237,1256,1276,1297,1316,1335,1356,1377,1396,1416,1436,1456,1476,1495,1516,1536,1556,1576,1596,1616,1636,1656,1676,1697,1716,1735,1755,1776,1796,1816,1837,1856,1877,1897,1917,1937,1956,1976,1996,2016,2036],"xSR":741.5,"ySR":500.5,"xT1":424.9,"yT1":0,"xT2":1058.1,"yT2":0,"toosoon":0,"cond_shown":"Incongruent","ratio_trial":100,"L_num":13,"L_den":26,"R_num":6,"R_den":10,"correct_side":2,"subjID":"Nicolás Alvarado Zea 18","gender":"0","age":"9","school":"4","test":{"fix_dur":[250,1500],"timestim":1000,"targets_dim":[100,100],"targets_relative_coord":[0.3,0.7],"size_stim":[880,420],"start_dim":[100,100],"size_start":[300,300],"size_fix":60,"samplingrate":20,"img_types":["Congruent","Incongruent"],"ratios":[100,200,300],"rep_conds":19,"nTrials":120,"trials_to_rest":500,"Trials_order":[1,31,62,23,36,58,55,53,33,83,50,30,82,105,25,66,26,9,119,113,67,2,20,13,32,69,106,39,15,10,84,80,42,98,76,95,24,116,108,81,96,70,110,111,97,94,68,47,63,74,40,16,114,64,112,6,60,46,29,48,100,115,17,54,71,41,52,3,18,78,91,12,34,0,72,86,59,89,109,103,27,75,35,65,43,7,19,73,118,90,57,93,21,117,45,87,22,104,79,37,92,44,5,102,11,77,101,107,61,99,49,38,51,56,8,4,88,14,85,28],"cond_shown":["Incongruent","Incongruent","Congruent","Incongruent","Congruent","Congruent","Incongruent","Incongruent","Incongruent","Incongruent","Congruent","Congruent","Congruent","Incongruent","Incongruent","Congruent","Congruent","Incongruent","Incongruent","Incongruent","Incongruent","Congruent","Congruent","Incongruent","Congruent","Incongruent","Congruent","Incongruent","Incongruent","Congruent","Congruent","Congruent","Congruent","Congruent","Congruent","Incongruent","Congruent","Congruent","Congruent","Incongruent","Congruent","Congruent","Congruent","Incongruent","Incongruent","Congruent","Congruent","Incongruent","Incongruent","Congruent","Congruent","Congruent","Congruent","Congruent","Congruent","Congruent","Congruent","Congruent","Incongruent","Congruent","Congruent","Incongruent","Incongruent","Congruent","Incongruent","Incongruent","Congruent","Incongruent","Congruent","Congruent","Incongruent","Congruent","Congruent","Congruent","Congruent","Congruent","Incongruent","Incongruent","Incongruent","Incongruent","Incongruent","Incongruent","Incongruent","Incongruent","Incongruent","Incongruent","Incongruent","Incongruent","Congruent","Congruent","Incongruent","Incongruent","Incongruent","Incongruent","Incongruent","Incongruent","Congruent","Congruent","Incongruent","Incongruent","Congruent","Congruent","Incongruent","Congruent","Incongruent","Incongruent","Incongruent","Incongruent","Incongruent","Incongruent","Incongruent","Congruent","Incongruent","Congruent","Congruent","Congruent","Congruent","Congruent","Incongruent","Congruent"],"ratio_trial":[100,100,200,300,100,300,100,300,200,300,200,100,300,200,100,100,200,200,300,300,100,200,200,100,200,200,300,200,200,300,100,200,100,200,300,300,100,200,100,200,100,300,200,200,100,300,200,300,200,200,300,300,100,300,300,100,100,300,300,100,300,100,300,100,300,300,300,200,100,100,100,100,300,100,100,200,300,300,100,100,200,200,300,300,100,100,100,100,300,100,200,200,200,200,200,200,300,200,100,100,200,200,300,100,300,300,300,300,100,200,100,200,200,200,200,300,300,200,100,300],"left_num":[13,13,8,4,4,1,11,13,4,4,15,2,4,11,10,7,6,14,13,1,13,16,6,11,8,4,20,4,6,2,2,21,11,6,20,4,7,3,4,3,6,1,3,14,13,11,4,4,3,6,2,18,2,1,11,10,7,4,8,11,8,13,13,11,4,13,1,3,15,12,12,1,1,6,2,11,4,13,3,6,4,4,4,8,13,13,6,6,20,2,6,4,7,3,4,4,1,8,2,9,16,15,3,1,3,2,4,1,9,3,9,9,7,6,15,11,3,4,10,1],"right_num":[6,6,3,2,6,3,9,12,6,2,4,11,1,3,9,15,11,12,12,2,6,12,7,9,2,6,14,14,3,12,6,2,6,7,13,6,15,7,15,1,5,19,11,6,12,4,3,2,1,11,10,9,11,8,2,3,15,13,14,6,1,12,12,4,8,12,11,11,13,13,9,18,6,15,11,3,2,12,4,13,14,6,2,14,6,6,3,3,14,6,3,1,4,1,14,14,11,3,8,13,12,4,4,18,4,6,6,3,20,11,14,13,4,11,4,2,4,3,8,8],"left_den":[26,26,15,20,8,5,22,26,5,20,25,5,10,20,25,14,20,30,26,2,26,20,12,22,15,5,25,6,20,10,5,30,22,12,25,5,14,10,10,10,20,3,10,30,26,22,10,20,10,20,20,20,5,30,22,25,14,20,10,22,16,26,26,22,5,26,5,4,25,30,24,2,5,12,5,22,20,26,6,10,6,5,20,10,26,26,12,12,25,5,20,30,15,10,6,6,5,15,4,15,20,25,6,2,6,4,5,2,10,4,15,30,15,20,25,22,6,8,25,30],"right_den":[10,10,9,4,10,6,15,15,10,4,10,22,10,4,18,25,22,18,15,10,10,20,10,15,6,10,28,30,6,24,12,4,15,10,26,12,25,14,30,2,25,30,22,9,20,20,15,4,2,22,25,15,22,24,10,10,25,26,28,15,5,20,15,10,16,15,22,20,26,26,15,30,12,25,22,10,4,15,10,26,30,10,4,28,10,10,5,5,28,12,6,3,6,2,30,30,22,9,20,26,20,10,20,30,20,30,12,15,25,20,28,26,6,22,10,10,5,10,16,24],"correct_side":[2,2,1,2,2,2,2,2,1,2,1,2,1,2,2,2,2,2,2,1,2,1,2,2,1,1,1,1,2,2,2,1,1,2,1,1,2,2,2,2,1,2,2,2,2,1,1,2,2,2,2,1,2,2,1,1,2,2,1,1,1,2,2,1,1,2,2,1,1,2,2,2,2,2,2,1,2,2,1,1,1,1,2,1,2,2,2,2,1,2,2,2,2,2,1,1,2,1,1,1,1,1,1,2,1,1,1,1,1,1,1,2,2,2,1,1,2,1,2,2],"img_shown":["img2/100/Incongruent/R/I_Dist_100_LN_13_LD_26_RN_6_RD_10_1.png","img2/100/Incongruent/R/I_Dist_100_LN_13_LD_26_RN_6_RD_10_1.png","img2/200/Congruent/L/C_Dist_200_LN_8_LD_15_RN_3_RD_9_0.png","img2/300/Incongruent/R/I_Dist_300_LN_4_LD_20_RN_2_RD_4_1.png","img2/100/Congruent/R/C_Dist_100_LN_4_LD_8_RN_6_RD_10_1.png","img2/300/Congruent/R/C_Dist_300_LN_1_LD_5_RN_3_RD_6_1.png","img2/100/Incongruent/R/I_Dist_100_LN_11_LD_22_RN_9_RD_15_1.png","img2/300/Incongruent/R/I_Dist_300_LN_13_LD_26_RN_12_RD_15_1.png","img2/200/Incongruent/L/I_Dist_200_LN_4_LD_5_RN_6_RD_10_0.png","img2/300/Incongruent/R/I_Dist_300_LN_4_LD_20_RN_2_RD_4_1.png","img2/200/Congruent/L/C_Dist_200_LN_15_LD_25_RN_4_RD_10_0.png","img2/100/Congruent/R/C_Dist_100_LN_2_LD_5_RN_11_RD_22_1.png","img2/300/Congruent/L/C_Dist_300_LN_4_LD_10_RN_1_RD_10_0.png","img2/200/Incongruent/R/I_Dist_200_LN_11_LD_20_RN_3_RD_4_1.png","img2/100/Incongruent/R/I_Dist_100_LN_10_LD_25_RN_9_RD_18_1.png","img2/100/Congruent/R/C_Dist_100_LN_7_LD_14_RN_15_RD_25_1.png","img2/200/Congruent/R/C_Dist_200_LN_6_LD_20_RN_11_RD_22_1.png","img2/200/Incongruent/R/I_Dist_200_LN_14_LD_30_RN_12_RD_18_1.png","img2/300/Incongruent/R/I_Dist_300_LN_13_LD_26_RN_12_RD_15_1.png","img2/300/Incongruent/L/I_Dist_300_LN_1_LD_2_RN_2_RD_10_0.png","img2/100/Incongruent/R/I_Dist_100_LN_13_LD_26_RN_6_RD_10_1.png","img2/200/Congruent/L/C_Dist_200_LN_16_LD_20_RN_12_RD_20_0.png","img2/200/Congruent/R/C_Dist_200_LN_6_LD_12_RN_7_RD_10_1.png","img2/100/Incongruent/R/I_Dist_100_LN_11_LD_22_RN_9_RD_15_1.png","img2/200/Congruent/L/C_Dist_200_LN_8_LD_15_RN_2_RD_6_0.png","img2/200/Incongruent/L/I_Dist_200_LN_4_LD_5_RN_6_RD_10_0.png","img2/300/Congruent/L/C_Dist_300_LN_20_LD_25_RN_14_RD_28_0.png","img2/200/Incongruent/L/I_Dist_200_LN_4_LD_6_RN_14_RD_30_0.png","img2/200/Incongruent/R/I_Dist_200_LN_6_LD_20_RN_3_RD_6_1.png","img2/300/Congruent/R/C_Dist_300_LN_2_LD_10_RN_12_RD_24_1.png","img2/100/Congruent/R/C_Dist_100_LN_2_LD_5_RN_6_RD_12_1.png","img2/200/Congruent/L/C_Dist_200_LN_21_LD_30_RN_2_RD_4_0.png","img2/100/Congruent/L/C_Dist_100_LN_11_LD_22_RN_6_RD_15_0.png","img2/200/Congruent/R/C_Dist_200_LN_6_LD_12_RN_7_RD_10_1.png","img2/300/Congruent/L/C_Dist_300_LN_20_LD_25_RN_13_RD_26_0.png","img2/300/Incongruent/L/I_Dist_300_LN_4_LD_5_RN_6_RD_12_0.png","img2/100/Congruent/R/C_Dist_100_LN_7_LD_14_RN_15_RD_25_1.png","img2/200/Congruent/R/C_Dist_200_LN_3_LD_10_RN_7_RD_14_1.png","img2/100/Congruent/R/C_Dist_100_LN_4_LD_10_RN_15_RD_30_1.png","img2/200/Incongruent/R/I_Dist_200_LN_3_LD_10_RN_1_RD_2_1.png","img2/100/Congruent/L/C_Dist_100_LN_6_LD_20_RN_5_RD_25_0.png","img2/300/Congruent/R/C_Dist_300_LN_1_LD_3_RN_19_RD_30_1.png","img2/200/Congruent/R/C_Dist_200_LN_3_LD_10_RN_11_RD_22_1.png","img2/200/Incongruent/R/I_Dist_200_LN_14_LD_30_RN_6_RD_9_1.png","img2/100/Incongruent/R/I_Dist_100_LN_13_LD_26_RN_12_RD_20_1.png","img2/300/Congruent/L/C_Dist_300_LN_11_LD_22_RN_4_RD_20_0.png","img2/200/Congruent/L/C_Dist_200_LN_4_LD_10_RN_3_RD_15_0.png","img2/300/Incongruent/R/I_Dist_300_LN_4_LD_20_RN_2_RD_4_1.png","img2/200/Incongruent/R/I_Dist_200_LN_3_LD_10_RN_1_RD_2_1.png","img2/200/Congruent/R/C_Dist_200_LN_6_LD_20_RN_11_RD_22_1.png","img2/300/Congruent/R/C_Dist_300_LN_2_LD_20_RN_10_RD_25_1.png","img2/300/Congruent/L/C_Dist_300_LN_18_LD_20_RN_9_RD_15_0.png","img2/100/Congruent/R/C_Dist_100_LN_2_LD_5_RN_11_RD_22_1.png","img2/300/Congruent/R/C_Dist_300_LN_1_LD_30_RN_8_RD_24_1.png","img2/300/Congruent/L/C_Dist_300_LN_11_LD_22_RN_2_RD_10_0.png","img2/100/Congruent/L/C_Dist_100_LN_10_LD_25_RN_3_RD_10_0.png","img2/100/Congruent/R/C_Dist_100_LN_7_LD_14_RN_15_RD_25_1.png","img2/300/Congruent/R/C_Dist_300_LN_4_LD_20_RN_13_RD_26_1.png","img2/300/Incongruent/L/I_Dist_300_LN_8_LD_10_RN_14_RD_28_0.png","img2/100/Congruent/L/C_Dist_100_LN_11_LD_22_RN_6_RD_15_0.png","img2/300/Congruent/L/C_Dist_300_LN_8_LD_16_RN_1_RD_5_0.png","img2/100/Incongruent/R/I_Dist_100_LN_13_LD_26_RN_12_RD_20_1.png","img2/300/Incongruent/R/I_Dist_300_LN_13_LD_26_RN_12_RD_15_1.png","img2/100/Congruent/L/C_Dist_100_LN_11_LD_22_RN_4_RD_10_0.png","img2/300/Incongruent/L/I_Dist_300_LN_4_LD_5_RN_8_RD_16_0.png","img2/300/Incongruent/R/I_Dist_300_LN_13_LD_26_RN_12_RD_15_1.png","img2/300/Congruent/R/C_Dist_300_LN_1_LD_5_RN_11_RD_22_1.png","img2/200/Incongruent/L/I_Dist_200_LN_3_LD_4_RN_11_RD_20_0.png","img2/100/Congruent/L/C_Dist_100_LN_15_LD_25_RN_13_RD_26_0.png","img2/100/Congruent/R/C_Dist_100_LN_12_LD_30_RN_13_RD_26_1.png","img2/100/Incongruent/R/I_Dist_100_LN_12_LD_24_RN_9_RD_15_1.png","img2/100/Congruent/R/C_Dist_100_LN_1_LD_2_RN_18_RD_30_1.png","img2/300/Congruent/R/C_Dist_300_LN_1_LD_5_RN_6_RD_12_1.png","img2/100/Congruent/R/C_Dist_100_LN_6_LD_12_RN_15_RD_25_1.png","img2/100/Congruent/R/C_Dist_100_LN_2_LD_5_RN_11_RD_22_1.png","img2/200/Congruent/L/C_Dist_200_LN_11_LD_22_RN_3_RD_10_0.png","img2/300/Incongruent/R/I_Dist_300_LN_4_LD_20_RN_2_RD_4_1.png","img2/300/Incongruent/R/I_Dist_300_LN_13_LD_26_RN_12_RD_15_1.png","img2/100/Incongruent/L/I_Dist_100_LN_3_LD_6_RN_4_RD_10_0.png","img2/100/Incongruent/L/I_Dist_100_LN_6_LD_10_RN_13_RD_26_0.png","img2/200/Incongruent/L/I_Dist_200_LN_4_LD_6_RN_14_RD_30_0.png","img2/200/Incongruent/L/I_Dist_200_LN_4_LD_5_RN_6_RD_10_0.png","img2/300/Incongruent/R/I_Dist_300_LN_4_LD_20_RN_2_RD_4_1.png","img2/300/Incongruent/L/I_Dist_300_LN_8_LD_10_RN_14_RD_28_0.png","img2/100/Incongruent/R/I_Dist_100_LN_13_LD_26_RN_6_RD_10_1.png","img2/100/Incongruent/R/I_Dist_100_LN_13_LD_26_RN_6_RD_10_1.png","img2/100/Incongruent/R/I_Dist_100_LN_6_LD_12_RN_3_RD_5_1.png","img2/100/Incongruent/R/I_Dist_100_LN_6_LD_12_RN_3_RD_5_1.png","img2/300/Congruent/L/C_Dist_300_LN_20_LD_25_RN_14_RD_28_0.png","img2/100/Congruent/R/C_Dist_100_LN_2_LD_5_RN_6_RD_12_1.png","img2/200/Incongruent/R/I_Dist_200_LN_6_LD_20_RN_3_RD_6_1.png","img2/200/Incongruent/R/I_Dist_200_LN_4_LD_30_RN_1_RD_3_1.png","img2/200/Incongruent/R/I_Dist_200_LN_7_LD_15_RN_4_RD_6_1.png","img2/200/Incongruent/R/I_Dist_200_LN_3_LD_10_RN_1_RD_2_1.png","img2/200/Incongruent/L/I_Dist_200_LN_4_LD_6_RN_14_RD_30_0.png","img2/200/Incongruent/L/I_Dist_200_LN_4_LD_6_RN_14_RD_30_0.png","img2/300/Congruent/R/C_Dist_300_LN_1_LD_5_RN_11_RD_22_1.png","img2/200/Congruent/L/C_Dist_200_LN_8_LD_15_RN_3_RD_9_0.png","img2/100/Incongruent/L/I_Dist_100_LN_2_LD_4_RN_8_RD_20_0.png","img2/100/Incongruent/L/I_Dist_100_LN_9_LD_15_RN_13_RD_26_0.png","img2/200/Congruent/L/C_Dist_200_LN_16_LD_20_RN_12_RD_20_0.png","img2/200/Congruent/L/C_Dist_200_LN_15_LD_25_RN_4_RD_10_0.png","img2/300/Incongruent/L/I_Dist_300_LN_3_LD_6_RN_4_RD_20_0.png","img2/100/Congruent/R/C_Dist_100_LN_1_LD_2_RN_18_RD_30_1.png","img2/300/Incongruent/L/I_Dist_300_LN_3_LD_6_RN_4_RD_20_0.png","img2/300/Incongruent/L/I_Dist_300_LN_2_LD_4_RN_6_RD_30_0.png","img2/300/Incongruent/L/I_Dist_300_LN_4_LD_5_RN_6_RD_12_0.png","img2/300/Incongruent/L/I_Dist_300_LN_1_LD_2_RN_3_RD_15_0.png","img2/100/Incongruent/L/I_Dist_100_LN_9_LD_10_RN_20_RD_25_0.png","img2/200/Incongruent/L/I_Dist_200_LN_3_LD_4_RN_11_RD_20_0.png","img2/100/Incongruent/L/I_Dist_100_LN_9_LD_15_RN_14_RD_28_0.png","img2/200/Congruent/R/C_Dist_200_LN_9_LD_30_RN_13_RD_26_1.png","img2/200/Incongruent/R/I_Dist_200_LN_7_LD_15_RN_4_RD_6_1.png","img2/200/Congruent/R/C_Dist_200_LN_6_LD_20_RN_11_RD_22_1.png","img2/200/Congruent/L/C_Dist_200_LN_15_LD_25_RN_4_RD_10_0.png","img2/300/Congruent/L/C_Dist_300_LN_11_LD_22_RN_2_RD_10_0.png","img2/300/Congruent/R/C_Dist_300_LN_3_LD_6_RN_4_RD_5_1.png","img2/200/Congruent/L/C_Dist_200_LN_4_LD_8_RN_3_RD_10_0.png","img2/100/Incongruent/R/I_Dist_100_LN_10_LD_25_RN_8_RD_16_1.png","img2/300/Congruent/R/C_Dist_300_LN_1_LD_30_RN_8_RD_24_1.png"],"dist100_C":[["C_Dist_100_LN_10_LD_25_RN_3_RD_10_0.png","C_Dist_100_LN_11_LD_22_RN_4_RD_10_0.png","C_Dist_100_LN_11_LD_22_RN_6_RD_15_0.png","C_Dist_100_LN_15_LD_25_RN_13_RD_26_0.png","C_Dist_100_LN_3_LD_6_RN_2_RD_5_0.png","C_Dist_100_LN_6_LD_20_RN_5_RD_25_0.png","C_Dist_100_LN_8_LD_16_RN_2_RD_5_0.png","C_Dist_100_LN_9_LD_15_RN_8_RD_16_0.png"],["C_Dist_100_LN_1_LD_2_RN_18_RD_30_1.png","C_Dist_100_LN_1_LD_2_RN_3_RD_5_1.png","C_Dist_100_LN_12_LD_30_RN_13_RD_26_1.png","C_Dist_100_LN_2_LD_5_RN_11_RD_22_1.png","C_Dist_100_LN_2_LD_5_RN_6_RD_12_1.png","C_Dist_100_LN_3_LD_20_RN_4_RD_16_1.png","C_Dist_100_LN_4_LD_10_RN_15_RD_30_1.png","C_Dist_100_LN_4_LD_8_RN_6_RD_10_1.png","C_Dist_100_LN_6_LD_12_RN_15_RD_25_1.png","C_Dist_100_LN_7_LD_14_RN_15_RD_25_1.png","C_Dist_100_LN_7_LD_14_RN_9_RD_15_1.png"]],"dist100_I":[["I_Dist_100_LN_1_LD_2_RN_8_RD_20_0.png","I_Dist_100_LN_2_LD_4_RN_6_RD_15_0.png","I_Dist_100_LN_2_LD_4_RN_8_RD_20_0.png","I_Dist_100_LN_3_LD_5_RN_11_RD_22_0.png","I_Dist_100_LN_3_LD_5_RN_8_RD_16_0.png","I_Dist_100_LN_3_LD_6_RN_4_RD_10_0.png","I_Dist_100_LN_3_LD_9_RN_7_RD_30_0.png","I_Dist_100_LN_4_LD_8_RN_8_RD_20_0.png","I_Dist_100_LN_6_LD_10_RN_11_RD_22_0.png","I_Dist_100_LN_6_LD_10_RN_13_RD_26_0.png","I_Dist_100_LN_6_LD_10_RN_7_RD_14_0.png","I_Dist_100_LN_9_LD_10_RN_20_RD_25_0.png","I_Dist_100_LN_9_LD_15_RN_13_RD_26_0.png","I_Dist_100_LN_9_LD_15_RN_14_RD_28_0.png"],["I_Dist_100_LN_10_LD_25_RN_8_RD_16_1.png","I_Dist_100_LN_10_LD_25_RN_9_RD_18_1.png","I_Dist_100_LN_11_LD_22_RN_9_RD_15_1.png","I_Dist_100_LN_12_LD_24_RN_9_RD_15_1.png","I_Dist_100_LN_12_LD_30_RN_2_RD_4_1.png","I_Dist_100_LN_13_LD_26_RN_12_RD_20_1.png","I_Dist_100_LN_13_LD_26_RN_6_RD_10_1.png","I_Dist_100_LN_17_LD_30_RN_10_RD_15_1.png","I_Dist_100_LN_6_LD_12_RN_3_RD_5_1.png","I_Dist_100_LN_8_LD_16_RN_6_RD_10_1.png","I_Dist_100_LN_8_LD_20_RN_1_RD_2_1.png","I_Dist_100_LN_9_LD_18_RN_6_RD_10_1.png"]],"dist100_S":[["E_Dist_100_LN_2_LD_12_RN_2_RD_30_0.png","E_Dist_100_LN_6_LD_10_RN_6_RD_12_0.png"],["E_Dist_100_LN_6_LD_12_RN_6_RD_10_1.png"]],"dist200_C":[["C_Dist_200_LN_11_LD_22_RN_3_RD_10_0.png","C_Dist_200_LN_12_LD_15_RN_6_RD_10_0.png","C_Dist_200_LN_12_LD_20_RN_6_RD_15_0.png","C_Dist_200_LN_14_LD_28_RN_6_RD_20_0.png","C_Dist_200_LN_15_LD_25_RN_4_RD_10_0.png","C_Dist_200_LN_16_LD_20_RN_12_RD_20_0.png","C_Dist_200_LN_16_LD_30_RN_9_RD_27_0.png","C_Dist_200_LN_20_LD_25_RN_9_RD_15_0.png","C_Dist_200_LN_21_LD_30_RN_2_RD_4_0.png","C_Dist_200_LN_4_LD_10_RN_3_RD_15_0.png","C_Dist_200_LN_4_LD_8_RN_3_RD_10_0.png","C_Dist_200_LN_6_LD_15_RN_3_RD_15_0.png","C_Dist_200_LN_7_LD_21_RN_2_RD_15_0.png","C_Dist_200_LN_8_LD_15_RN_2_RD_6_0.png","C_Dist_200_LN_8_LD_15_RN_3_RD_9_0.png","C_Dist_200_LN_8_LD_15_RN_7_RD_21_0.png","C_Dist_200_LN_9_LD_20_RN_4_RD_16_0.png"],["C_Dist_200_LN_1_LD_2_RN_21_RD_30_1.png","C_Dist_200_LN_13_LD_26_RN_14_RD_20_1.png","C_Dist_200_LN_3_LD_10_RN_11_RD_22_1.png","C_Dist_200_LN_3_LD_10_RN_14_RD_28_1.png","C_Dist_200_LN_3_LD_10_RN_7_RD_14_1.png","C_Dist_200_LN_3_LD_12_RN_9_RD_20_1.png","C_Dist_200_LN_3_LD_6_RN_14_RD_20_1.png","C_Dist_200_LN_5_LD_10_RN_14_RD_20_1.png","C_Dist_200_LN_6_LD_12_RN_7_RD_10_1.png","C_Dist_200_LN_6_LD_20_RN_11_RD_22_1.png","C_Dist_200_LN_7_LD_15_RN_18_RD_27_1.png","C_Dist_200_LN_9_LD_30_RN_13_RD_26_1.png"]],"dist200_I":[["I_Dist_200_LN_1_LD_2_RN_3_RD_10_0.png","I_Dist_200_LN_1_LD_3_RN_2_RD_15_0.png","I_Dist_200_LN_3_LD_4_RN_11_RD_20_0.png","I_Dist_200_LN_4_LD_5_RN_6_RD_10_0.png","I_Dist_200_LN_4_LD_6_RN_14_RD_30_0.png","I_Dist_200_LN_7_LD_10_RN_12_RD_24_0.png","I_Dist_200_LN_7_LD_10_RN_14_RD_28_0.png","I_Dist_200_LN_7_LD_10_RN_8_RD_16_0.png"],["I_Dist_200_LN_11_LD_20_RN_3_RD_4_1.png","I_Dist_200_LN_14_LD_30_RN_12_RD_18_1.png","I_Dist_200_LN_14_LD_30_RN_6_RD_9_1.png","I_Dist_200_LN_3_LD_10_RN_1_RD_2_1.png","I_Dist_200_LN_4_LD_30_RN_1_RD_3_1.png","I_Dist_200_LN_6_LD_20_RN_3_RD_6_1.png","I_Dist_200_LN_7_LD_15_RN_4_RD_6_1.png","I_Dist_200_LN_7_LD_15_RN_6_RD_9_1.png","I_Dist_200_LN_9_LD_15_RN_8_RD_10_1.png"]],"dist200_S":[["E_Dist_200_LN_3_LD_6_RN_3_RD_10_0.png"],["E_Dist_200_LN_3_LD_10_RN_3_RD_6_1.png"]],"dist300_C":[["C_Dist_300_LN_11_LD_22_RN_1_RD_5_0.png","C_Dist_300_LN_11_LD_22_RN_2_RD_10_0.png","C_Dist_300_LN_11_LD_22_RN_4_RD_20_0.png","C_Dist_300_LN_12_LD_24_RN_2_RD_10_0.png","C_Dist_300_LN_18_LD_20_RN_9_RD_15_0.png","C_Dist_300_LN_20_LD_25_RN_13_RD_26_0.png","C_Dist_300_LN_20_LD_25_RN_14_RD_28_0.png","C_Dist_300_LN_20_LD_25_RN_5_RD_10_0.png","C_Dist_300_LN_20_LD_25_RN_8_RD_16_0.png","C_Dist_300_LN_20_LD_25_RN_9_RD_18_0.png","C_Dist_300_LN_24_LD_30_RN_2_RD_4_0.png","C_Dist_300_LN_24_LD_30_RN_8_RD_16_0.png","C_Dist_300_LN_3_LD_6_RN_2_RD_10_0.png","C_Dist_300_LN_4_LD_10_RN_1_RD_10_0.png","C_Dist_300_LN_4_LD_5_RN_2_RD_4_0.png","C_Dist_300_LN_8_LD_16_RN_1_RD_5_0.png","C_Dist_300_LN_9_LD_10_RN_3_RD_5_0.png"],["C_Dist_300_LN_1_LD_20_RN_7_RD_20_1.png","C_Dist_300_LN_1_LD_3_RN_19_RD_30_1.png","C_Dist_300_LN_1_LD_30_RN_8_RD_24_1.png","C_Dist_300_LN_1_LD_5_RN_11_RD_22_1.png","C_Dist_300_LN_1_LD_5_RN_3_RD_6_1.png","C_Dist_300_LN_1_LD_5_RN_6_RD_12_1.png","C_Dist_300_LN_2_LD_10_RN_12_RD_24_1.png","C_Dist_300_LN_2_LD_20_RN_10_RD_25_1.png","C_Dist_300_LN_3_LD_12_RN_11_RD_20_1.png","C_Dist_300_LN_3_LD_6_RN_4_RD_5_1.png","C_Dist_300_LN_4_LD_20_RN_13_RD_26_1.png","C_Dist_300_LN_5_LD_25_RN_6_RD_12_1.png","C_Dist_300_LN_5_LD_25_RN_7_RD_14_1.png","C_Dist_300_LN_7_LD_14_RN_20_RD_25_1.png","C_Dist_300_LN_8_LD_15_RN_10_RD_12_1.png"]],"dist300_I":[["I_Dist_300_LN_1_LD_2_RN_2_RD_10_0.png","I_Dist_300_LN_1_LD_2_RN_3_RD_15_0.png","I_Dist_300_LN_2_LD_4_RN_6_RD_30_0.png","I_Dist_300_LN_3_LD_6_RN_4_RD_20_0.png","I_Dist_300_LN_4_LD_5_RN_6_RD_12_0.png","I_Dist_300_LN_4_LD_5_RN_8_RD_16_0.png","I_Dist_300_LN_7_LD_10_RN_8_RD_20_0.png","I_Dist_300_LN_8_LD_10_RN_14_RD_28_0.png","I_Dist_300_LN_8_LD_10_RN_9_RD_18_0.png"],["I_Dist_300_LN_13_LD_26_RN_12_RD_15_1.png","I_Dist_300_LN_4_LD_20_RN_2_RD_4_1.png"]],"dist300_S":[["E_Dist_300_LN_9_LD_12_RN_9_RD_20_0.png"],["E_Dist_300_LN_18_LD_30_RN_18_RD_20_1.png","E_Dist_300_LN_3_LD_10_RN_3_RD_5_1.png","E_Dist_300_LN_9_LD_20_RN_9_RD_12_1.png"]],"dist500_C":[["C_Dist_500_LN_10_LD_13_RN_7_RD_26_0.png","C_Dist_500_LN_10_LD_15_RN_4_RD_24_0.png","C_Dist_500_LN_12_LD_16_RN_3_RD_12_0.png","C_Dist_500_LN_12_LD_18_RN_4_RD_24_0.png","C_Dist_500_LN_15_LD_18_RN_5_RD_15_0.png","C_Dist_500_LN_15_LD_20_RN_1_RD_4_0.png","C_Dist_500_LN_18_LD_27_RN_1_RD_6_0.png","C_Dist_500_LN_20_LD_24_RN_1_RD_3_0.png","C_Dist_500_LN_20_LD_24_RN_3_RD_9_0.png","C_Dist_500_LN_20_LD_24_RN_7_RD_21_0.png","C_Dist_500_LN_20_LD_28_RN_3_RD_14_0.png","C_Dist_500_LN_21_LD_28_RN_6_RD_24_0.png","C_Dist_500_LN_22_LD_28_RN_2_RD_7_0.png","C_Dist_500_LN_25_LD_30_RN_9_RD_27_0.png","C_Dist_500_LN_4_LD_6_RN_1_RD_6_0.png","C_Dist_500_LN_5_LD_6_RN_2_RD_6_0.png","C_Dist_500_LN_6_LD_9_RN_1_RD_6_0.png","C_Dist_500_LN_7_LD_10_RN_1_RD_5_0.png","C_Dist_500_LN_8_LD_12_RN_1_RD_6_0.png","C_Dist_500_LN_8_LD_12_RN_4_RD_24_0.png"],["C_Dist_500_LN_1_LD_4_RN_12_RD_16_1.png","C_Dist_500_LN_1_LD_4_RN_9_RD_12_1.png","C_Dist_500_LN_1_LD_9_RN_11_RD_18_1.png","C_Dist_500_LN_10_LD_24_RN_22_RD_24_1.png","C_Dist_500_LN_2_LD_12_RN_10_RD_15_1.png","C_Dist_500_LN_2_LD_12_RN_12_RD_18_1.png","C_Dist_500_LN_2_LD_12_RN_4_RD_6_1.png","C_Dist_500_LN_2_LD_24_RN_7_RD_12_1.png","C_Dist_500_LN_2_LD_5_RN_18_RD_20_1.png","C_Dist_500_LN_2_LD_5_RN_9_RD_10_1.png","C_Dist_500_LN_2_LD_8_RN_12_RD_16_1.png","C_Dist_500_LN_2_LD_8_RN_21_RD_28_1.png","C_Dist_500_LN_3_LD_10_RN_4_RD_5_1.png","C_Dist_500_LN_3_LD_12_RN_15_RD_20_1.png","C_Dist_500_LN_3_LD_30_RN_6_RD_10_1.png","C_Dist_500_LN_3_LD_8_RN_14_RD_16_1.png","C_Dist_500_LN_4_LD_16_RN_15_RD_20_1.png","C_Dist_500_LN_4_LD_24_RN_12_RD_18_1.png","C_Dist_500_LN_5_LD_14_RN_6_RD_7_1.png","C_Dist_500_LN_7_LD_21_RN_20_RD_24_1.png","C_Dist_500_LN_7_LD_28_RN_12_RD_16_1.png","C_Dist_500_LN_7_LD_28_RN_9_RD_12_1.png","C_Dist_500_LN_9_LD_27_RN_20_RD_24_1.png"]],"dist500_I":[["I_Dist_500_LN_2_LD_3_RN_4_RD_24_0.png","I_Dist_500_LN_5_LD_6_RN_6_RD_18_0.png","I_Dist_500_LN_7_LD_8_RN_9_RD_24_0.png"],["I_Dist_500_LN_7_LD_21_RN_5_RD_6_1.png"]],"dist500_S":[["E_Dist_500_LN_6_LD_8_RN_6_RD_24_0.png"],["E_Dist_500_LN_2_LD_12_RN_2_RD_3_1.png","E_Dist_500_LN_6_LD_24_RN_6_RD_8_1.png"]]}},{"start_time":1552073555449,"click_time":1552073556534,"finger_time":1552073556233,"fix_duration":1193.6352056975297,"trial":1,"RT":784,"MT":301,"sideResp":1,"stimulus":[],"xmouse":[774,774,774,774,774,774,774,774,774,774,774,774,774,774,774,774,774,774,774,774,774,774,774,774,774,774,774,774,774,774,774,774,774,774,774,774,774,774,774,769,767,765,764,758,752,740,727,706,687,642,621,596,564,514,472],"ymouse":[530,530,530,530,530,530,530,530,530,530,530,530,530,530,530,530,530,530,530,530,530,530,530,530,530,530,530,530,530,530,530,530,530,530,530,529,525,518,509,485,476,469,464,451,444,430,413,389,362,298,267,234,200,149,87],"timestamp_mouse":[3,23,44,64,85,105,123,144,165,184,205,225,243,264,285,304,325,345,364,385,405,424,445,463,483,505,525,544,563,585,605,625,645,664,684,704,725,744,764,784,805,823,845,865,884,904,924,944,964,984,1004,1024,1045,1064,1085],"xSR":741.5,"ySR":501.8,"xT1":424.9,"yT1":0,"xT2":1058.1,"yT2":0,"toosoon":0,"cond_shown":"Incongruent","ratio_trial":100,"L_num":13,"L_den":26,"R_num":6,"R_den":10,"correct_side":2,"subjID":"Nicolás Alvarado Zea 18","gender":"0","school":"4","age":"9"},{"start_time":1552073559468,"click_time":1552073560253,"finger_time":1552073559953,"fix_duration":1114.3654482280417,"trial":2,"RT":485,"MT":300,"sideResp":2,"stimulus":[],"xmouse":[780,780,780,780,780,780,780,780,780,780,780,780,780,780,780,780,780,780,780,780,783,786,789,802,815,827,838,849,875,896,946,995,1051,1142,1175,1192,1197,1198,1180,1157],"ymouse":[554,554,554,554,554,554,554,554,554,554,554,554,554,554,554,554,554,554,552,550,543,538,533,512,493,477,457,438,403,382,338,292,234,123,74,42,26,20,11,3],"timestamp_mouse":[5,25,46,65,86,104,126,146,164,186,205,224,246,266,285,305,326,345,364,386,405,425,445,466,485,505,525,544,564,584,605,626,645,664,685,705,725,745,765,785],"xSR":741.5,"ySR":501.8,"xT1":424.9,"yT1":0,"xT2":1058.1,"yT2":0,"toosoon":0,"cond_shown":"Congruent","ratio_trial":200,"L_num":8,"L_den":15,"R_num":3,"R_den":9,"correct_side":1,"subjID":"Nicolás Alvarado Zea 18","gender":"0","school":"4","age":"9"},{"start_time":1552073562573,"click_time":1552073563054,"finger_time":1552073562973,"fix_duration":300.7414835436797,"trial":3,"RT":400,"MT":81,"sideResp":1,"stimulus":[],"xmouse":[810,810,810,810,810,810,810,810,810,810,810,810,810,810,810,810,810,808,798,771,721,654,512,477],"ymouse":[541,541,541,541,541,541,541,541,541,541,541,541,541,541,541,541,541,541,529,490,419,324,101,7],"timestamp_mouse":[20,39,60,81,100,119,141,160,179,201,220,241,260,280,301,321,341,359,381,400,420,440,460,481],"xSR":741.5,"ySR":501.8,"xT1":424.9,"yT1":0,"xT2":1058.1,"yT2":0,"toosoon":0,"cond_shown":"Incongruent","ratio_trial":300,"L_num":4,"L_den":20,"R_num":2,"R_den":4,"correct_side":2,"subjID":"Nicolás Alvarado Zea 18","gender":"0","school":"4","age":"9"},{"start_time":1552073564864,"click_time":1552073565473,"finger_time":1552073565013,"fix_duration":250,"trial":4,"RT":149,"MT":460,"sideResp":2,"stimulus":[],"xmouse":[806,806,806,806,806,806,806,822,888,931,968,999,1018,1028,1036,1036,1036,1036,1036,1036,1036,1036,1036,1036,1036,1036,1036,1036,1036,1036,1073],"ymouse":[532,532,532,532,532,530,525,491,381,309,230,155,85,32,4,4,4,4,4,4,4,4,4,4,4,4,4,4,4,4,14],"timestamp_mouse":[8,29,49,70,89,110,129,149,170,189,209,230,249,269,289,309,329,349,368,388,410,429,449,470,489,510,529,549,569,588,609],"xSR":741.5,"ySR":501.8,"xT1":424.9,"yT1":0,"xT2":1058.1,"yT2":0,"toosoon":0,"cond_shown":"Congruent","ratio_trial":100,"L_num":4,"L_den":8,"R_num":6,"R_den":10,"correct_side":2,"subjID":"Nicolás Alvarado Zea 18","gender":"0","school":"4","age":"9"},{"start_time":1552073570834,"click_time":1552073571933,"finger_time":1552073571352,"fix_duration":979.5810794135508,"trial":5,"RT":518,"MT":581,"sideResp":2,"stimulus":[],"xmouse":[780,780,780,780,780,780,780,780,780,780,780,780,780,780,780,780,780,780,780,780,780,785,801,818,838,875,893,901,905,906,907,912,918,925,933,944,948,949,949,949,949,949,952,967,991,1029,1036,1038,1042,1051,1062,1090,1097,1101,1103],"ymouse":[537,537,537,537,537,537,537,537,537,537,537,537,537,537,537,537,537,537,537,537,537,537,530,518,504,463,433,417,408,406,404,384,361,334,307,268,254,252,251,251,251,250,248,243,236,219,211,206,199,190,176,142,122,106,96],"timestamp_mouse":[23,40,60,80,100,119,139,159,178,198,219,239,258,279,299,318,338,358,379,399,419,439,458,478,500,518,539,559,579,598,619,639,659,679,700,719,739,759,779,799,819,838,860,879,899,919,939,959,978,999,1019,1039,1060,1079,1099],"xSR":741.5,"ySR":501.8,"xT1":424.9,"yT1":0,"xT2":1058.1,"yT2":0,"toosoon":0,"cond_shown":"Congruent","ratio_trial":300,"L_num":1,"L_den":5,"R_num":3,"R_den":6,"correct_side":2,"subjID":"Nicolás Alvarado Zea 18","gender":"0","school":"4","age":"9"},{"start_time":1552073574254,"click_time":1552073575472,"finger_time":1552073574893,"fix_duration":1139.6008002659692,"trial":6,"RT":639,"MT":579,"sideResp":2,"stimulus":[],"xmouse":[773,773,773,773,773,773,773,773,773,773,773,773,773,773,773,773,773,773,773,773,773,773,773,773,773,773,773,785,801,806,809,814,817,837,866,1002,1068,1112,1135,1145,1150,1150,1150,1151,1151,1151,1150,1148,1145,1144,1142,1138,1136,1132,1132,1132,1132,1131,1128,1126,1120],"ymouse":[529,529,529,529,529,529,529,529,529,529,529,529,529,529,529,529,529,529,529,529,529,529,529,529,529,529,529,528,522,519,510,491,480,435,396,291,241,210,188,176,167,167,166,163,156,148,146,145,144,144,144,143,141,139,137,134,131,127,116,105,87],"timestamp_mouse":[20,40,59,79,100,120,138,159,180,199,219,238,260,279,300,319,339,359,379,400,418,439,460,478,500,520,538,559,579,599,619,639,658,679,699,719,738,759,779,798,818,838,859,880,899,918,939,958,979,1000,1019,1039,1059,1079,1099,1118,1139,1159,1179,1199,1218],"xSR":741.5,"ySR":501.8,"xT1":424.9,"yT1":0,"xT2":1058.1,"yT2":0,"toosoon":0,"cond_shown":"Incongruent","ratio_trial":100,"L_num":11,"L_den":22,"R_num":9,"R_den":15,"correct_side":2,"subjID":"Nicolás Alvarado Zea 18","gender":"0","school":"4","age":"9"},{"start_time":1552073577000,"click_time":1552073577453,"finger_time":1552073577372,"fix_duration":345.8314004860189,"trial":7,"RT":372,"MT":81,"sideResp":2,"stimulus":[],"xmouse":[785,785,785,785,785,785,785,785,785,785,785,785,785,785,785,787,799,817,903,964,1020,1079,1143],"ymouse":[535,535,535,535,535,535,535,535,535,535,535,535,535,535,535,534,520,502,409,336,257,168,78],"timestamp_mouse":[13,33,53,74,93,112,132,154,173,193,212,234,253,273,293,313,334,353,372,392,413,433,453],"xSR":741.5,"ySR":501.8,"xT1":424.9,"yT1":0,"xT2":1058.1,"yT2":0,"toosoon":0,"cond_shown":"Incongruent","ratio_trial":300,"L_num":13,"L_den":26,"R_num":12,"R_den":15,"correct_side":2,"subjID":"Nicolás Alvarado Zea 18","gender":"0","school":"4","age":"9"},{"start_time":1552073580447,"click_time":1552073581053,"finger_time":1552073580894,"fix_duration":432.8264616190166,"trial":8,"RT":447,"MT":159,"sideResp":2,"stimulus":[],"xmouse":[758,758,758,760,766,770,772,777,778,778,778,778,778,778,778,778,778,778,778,784,789,804,859,887,911,940,1005,1035,1058,1077,1091],"ymouse":[535,535,535,535,535,535,535,535,535,535,535,535,535,535,535,535,535,535,535,535,535,524,450,404,364,316,211,172,138,104,80],"timestamp_mouse":[6,26,46,66,86,106,126,146,166,187,205,226,247,266,287,305,327,346,366,386,407,426,447,466,487,506,527,546,566,586,606],"xSR":741.5,"ySR":501.8,"xT1":424.9,"yT1":0,"xT2":1058.1,"yT2":0,"toosoon":0,"cond_shown":"Incongruent","ratio_trial":200,"L_num":4,"L_den":5,"R_num":6,"R_den":10,"correct_side":1,"subjID":"Nicolás Alvarado Zea 18","gender":"0","school":"4","age":"9"},{"start_time":1552073582764,"click_time":1552073582992,"finger_time":1552073582852,"fix_duration":311.3374205202358,"trial":9,"RT":88,"MT":140,"sideResp":1,"stimulus":[],"xmouse":[765,765,765,765,758,747,701,669,634,593,552,518],"ymouse":[536,533,528,519,494,469,369,303,225,136,61,5],"timestamp_mouse":[17,29,48,69,88,109,129,149,169,189,209,228],"xSR":741.5,"ySR":501.8,"xT1":424.9,"yT1":0,"xT2":1058.1,"yT2":0,"toosoon":0,"cond_shown":"Incongruent","ratio_trial":300,"L_num":4,"L_den":20,"R_num":2,"R_den":4,"correct_side":2,"subjID":"Nicolás Alvarado Zea 18","gender":"0","school":"4","age":"9"},{"start_time":1552073589130,"click_time":1552073590013,"finger_time":1552073589433,"fix_duration":397.009475454902,"trial":10,"RT":303,"MT":580,"sideResp":2,"stimulus":[],"xmouse":[791,791,791,791,791,791,791,791,791,791,791,791,792,810,837,857,870,880,882,882,882,889,893,897,900,902,905,910,938,956,972,988,994,994,994,994,994,994,995,997,1002,1009,1020,1054,1066],"ymouse":[556,556,556,556,556,556,556,556,556,556,556,556,555,538,513,486,451,413,368,281,250,227,214,204,197,195,192,190,186,184,181,179,178,178,178,178,178,178,178,169,152,134,110,33,16],"timestamp_mouse":[3,23,44,63,83,103,124,143,164,184,203,224,242,262,283,303,324,342,364,383,403,423,443,463,482,503,524,543,564,583,603,623,643,663,683,702,723,744,763,783,803,823,843,864,883],"xSR":741.5,"ySR":501.8,"xT1":424.9,"yT1":0,"xT2":1058.1,"yT2":0,"toosoon":0,"cond_shown":"Congruent","ratio_trial":200,"L_num":15,"L_den":25,"R_num":4,"R_den":10,"correct_side":1,"subjID":"Nicolás Alvarado Zea 18","gender":"0","school":"4","age":"9"},{"start_time":1552073591364,"click_time":1552073592533,"finger_time":1552073591813,"fix_duration":250,"trial":11,"RT":449,"MT":720,"sideResp":2,"stimulus":[],"xmouse":[800,799,795,795,795,795,795,795,795,795,795,795,795,795,795,795,795,794,793,792,791,788,787,787,791,800,847,883,923,950,962,971,985,990,992,993,994,994,994,994,994,995,1006,1021,1040,1055,1068,1078,1079,1079,1079,1079,1079,1079,1079,1079,1079,1079,1082],"ymouse":[550,550,552,552,552,552,552,552,552,552,552,552,552,552,552,552,552,551,549,548,543,526,493,472,449,426,377,351,321,298,279,248,202,181,165,152,149,149,149,149,149,148,147,143,141,138,134,126,122,120,120,119,119,119,119,119,118,103,87],"timestamp_mouse":[9,29,50,69,90,109,130,149,168,190,209,229,250,269,288,310,329,348,370,389,410,429,449,469,490,509,530,548,568,589,610,629,650,669,689,709,730,750,769,790,810,828,849,869,890,909,929,948,969,990,1009,1029,1050,1069,1089,1108,1128,1149,1168],"xSR":741.5,"ySR":501.8,"xT1":424.9,"yT1":0,"xT2":1058.1,"yT2":0,"toosoon":0,"cond_shown":"Congruent","ratio_trial":100,"L_num":2,"L_den":5,"R_num":11,"R_den":22,"correct_side":2,"subjID":"Nicolás Alvarado Zea 18","gender":"0","school":"4","age":"9"},{"start_time":1552073595343,"click_time":1552073595773,"finger_time":1552073595694,"fix_duration":348.4541909156248,"trial":12,"RT":351,"MT":79,"sideResp":2,"stimulus":[],"xmouse":[811,811,811,811,811,811,811,811,811,811,811,811,811,811,814,818,832,854,929,1012,1078,1152],"ymouse":[548,548,548,548,548,548,548,548,548,548,548,548,548,548,542,535,515,483,355,215,116,30],"timestamp_mouse":[11,30,49,70,90,111,131,149,170,190,211,231,251,269,289,311,330,351,370,390,410,430],"xSR":741.5,"ySR":501.8,"xT1":424.9,"yT1":0,"xT2":1058.1,"yT2":0,"toosoon":0,"cond_shown":"Congruent","ratio_trial":300,"L_num":4,"L_den":10,"R_num":1,"R_den":10,"correct_side":1,"subjID":"Nicolás Alvarado Zea 18","gender":"0","school":"4","age":"9"},{"start_time":1552073597577,"click_time":1552073598114,"finger_time":1552073597612,"fix_duration":423.40466219284747,"trial":13,"RT":35,"MT":502,"sideResp":1,"stimulus":[],"xmouse":[776,740,734,731,728,724,701,642,614,593,593,593,593,593,593,593,593,593,593,593,593,593,593,593,593,593,464],"ymouse":[528,503,499,491,472,444,343,174,91,21,21,21,21,21,21,21,21,21,21,21,21,21,21,21,21,21,9],"timestamp_mouse":[16,35,56,76,96,116,136,156,176,197,216,237,257,277,295,316,336,356,376,396,416,436,457,476,496,515,537],"xSR":741.5,"ySR":501.8,"xT1":424.9,"yT1":0,"xT2":1058.1,"yT2":0,"toosoon":0,"cond_shown":"Incongruent","ratio_trial":200,"L_num":11,"L_den":20,"R_num":3,"R_den":4,"correct_side":2,"subjID":"Nicolás Alvarado Zea 18","gender":"0","school":"4","age":"9"},{"start_time":1552073604593,"click_time":1552073605493,"finger_time":1552073604933,"fix_duration":439.62798717863114,"trial":14,"RT":340,"MT":560,"sideResp":2,"stimulus":[],"xmouse":[803,803,803,803,803,803,803,803,803,803,803,803,803,802,802,809,840,865,906,979,1046,1105,1108,1111,1113,1113,1112,1113,1115,1115,1115,1115,1115,1113,1093,1057,1000,1000,1000,1000,1000,1000,1000,1000,1098],"ymouse":[548,548,548,548,548,548,548,548,548,548,548,548,548,547,542,533,479,447,421,403,394,382,377,363,346,326,293,284,281,280,280,280,277,261,227,158,40,40,40,40,40,40,40,40,55],"timestamp_mouse":[21,43,60,80,100,120,140,161,179,201,220,239,261,280,301,320,340,360,381,400,421,440,460,480,499,520,540,560,580,600,619,640,661,680,700,720,740,760,781,800,820,840,860,879,899],"xSR":741.5,"ySR":501.8,"xT1":424.9,"yT1":0,"xT2":1058.1,"yT2":0,"toosoon":0,"cond_shown":"Incongruent","ratio_trial":100,"L_num":10,"L_den":25,"R_num":9,"R_den":18,"correct_side":2,"subjID":"Nicolás Alvarado Zea 18","gender":"0","school":"4","age":"9"},{"start_time":1552073608320,"click_time":1552073608993,"finger_time":1552073608453,"fix_duration":1286.5078660982324,"trial":15,"RT":133,"MT":540,"sideResp":1,"stimulus":[],"xmouse":[794,790,784,775,772,760,728,701,657,598,519,504,502,502,505,505,481,452,424,410,410,410,410,414,427,434,434,434,434,435,435,469,490,505],"ymouse":[555,555,554,552,551,541,510,485,450,418,368,354,346,334,316,298,229,181,142,115,104,102,102,103,113,117,117,117,117,117,117,111,102,92],"timestamp_mouse":[14,35,53,73,92,113,133,153,172,193,214,232,252,273,292,312,333,353,373,393,412,432,452,473,494,512,533,552,573,592,613,632,652,673],"xSR":741.5,"ySR":501.8,"xT1":424.9,"yT1":0,"xT2":1058.1,"yT2":0,"toosoon":0,"cond_shown":"Congruent","ratio_trial":100,"L_num":7,"L_den":14,"R_num":15,"R_den":25,"correct_side":2,"subjID":"Nicolás Alvarado Zea 18","gender":"0","school":"4","age":"9"},{"start_time":1552073614703,"click_time":1552073615473,"finger_time":1552073614993,"fix_duration":250,"trial":16,"RT":290,"MT":480,"sideResp":2,"stimulus":[],"xmouse":[763,763,763,763,763,763,763,763,763,763,765,766,768,784,791,805,820,851,859,864,868,870,872,881,889,899,909,924,926,929,932,939,972,987,1002,1018,1031,1053,1066],"ymouse":[556,556,556,556,555,554,554,554,554,554,552,549,546,515,496,472,444,387,366,353,344,341,337,308,288,270,256,238,235,232,229,221,188,175,160,140,122,86,70],"timestamp_mouse":[9,31,50,69,90,111,129,150,170,191,209,229,249,270,290,310,330,349,370,390,410,430,450,470,490,509,530,550,570,590,610,630,649,669,689,710,729,751,769],"xSR":741.5,"ySR":501.8,"xT1":424.9,"yT1":0,"xT2":1058.1,"yT2":0,"toosoon":0,"cond_shown":"Congruent","ratio_trial":200,"L_num":6,"L_den":20,"R_num":11,"R_den":22,"correct_side":2,"subjID":"Nicolás Alvarado Zea 18","gender":"0","school":"4","age":"9"},{"start_time":1552073618949,"click_time":1552073619713,"finger_time":1552073619232,"fix_duration":1054.8527969440102,"trial":17,"RT":283,"MT":481,"sideResp":2,"stimulus":[],"xmouse":[802,802,802,802,802,802,803,803,804,805,806,808,810,814,822,834,874,907,962,976,988,1001,1005,1008,1010,1012,1014,1014,1016,1016,1018,1019,1019,1019,1019,1020,1067,1096,1099],"ymouse":[537,537,537,537,536,535,533,532,528,525,523,517,513,506,495,480,433,389,307,272,248,206,189,171,156,142,132,131,129,128,126,124,124,124,124,122,108,100,98],"timestamp_mouse":[3,29,43,64,83,104,124,144,164,184,204,225,244,263,283,304,323,345,364,383,404,423,444,464,483,503,524,544,563,584,604,623,643,665,683,704,723,744,764],"xSR":741.5,"ySR":501.8,"xT1":424.9,"yT1":0,"xT2":1058.1,"yT2":0,"toosoon":0,"cond_shown":"Incongruent","ratio_trial":200,"L_num":14,"L_den":30,"R_num":12,"R_den":18,"correct_side":2,"subjID":"Nicolás Alvarado Zea 18","gender":"0","school":"4","age":"9"},{"start_time":1552073623982,"click_time":1552073624752,"finger_time":1552073624372,"fix_duration":388.8605144370105,"trial":18,"RT":390,"MT":380,"sideResp":1,"stimulus":[],"xmouse":[765,765,765,765,765,765,765,765,765,765,765,765,765,765,765,765,764,755,743,730,697,688,683,679,676,641,613,613,613,613,613,613,613,613,613,613,613,613,441],"ymouse":[553,553,553,553,553,553,553,553,553,553,553,553,553,553,553,553,546,535,520,500,441,406,365,312,261,86,7,7,7,7,7,7,7,7,7,7,7,7,21],"timestamp_mouse":[12,30,51,71,91,110,131,151,172,190,211,231,251,270,291,311,330,350,371,390,411,431,451,472,491,511,530,551,571,591,611,631,652,671,690,710,731,750,770],"xSR":741.5,"ySR":501.8,"xT1":424.9,"yT1":0,"xT2":1058.1,"yT2":0,"toosoon":0,"cond_shown":"Incongruent","ratio_trial":300,"L_num":13,"L_den":26,"R_num":12,"R_den":15,"correct_side":2,"subjID":"Nicolás Alvarado Zea 18","gender":"0","school":"4","age":"9"},{"start_time":1552073627586,"click_time":1552073628112,"finger_time":1552073627893,"fix_duration":250,"trial":19,"RT":307,"MT":219,"sideResp":2,"stimulus":[],"xmouse":[773,773,773,773,773,773,773,773,773,773,773,773,777,786,806,876,921,960,988,1005,1037,1055,1074,1080,1087,1108,1124],"ymouse":[536,536,536,536,536,536,536,536,536,536,536,536,535,534,526,463,407,355,312,284,250,242,232,227,214,153,98],"timestamp_mouse":[9,27,48,67,86,106,127,148,167,187,207,228,247,268,286,307,326,347,366,386,407,428,447,466,487,507,526],"xSR":741.5,"ySR":501.8,"xT1":424.9,"yT1":0,"xT2":1058.1,"yT2":0,"toosoon":0,"cond_shown":"Incongruent","ratio_trial":300,"L_num":1,"L_den":2,"R_num":2,"R_den":10,"correct_side":1,"subjID":"Nicolás Alvarado Zea 18","gender":"0","school":"4","age":"9"},{"start_time":1552073629645,"click_time":1552073630412,"finger_time":1552073629953,"fix_duration":250,"trial":20,"RT":308,"MT":459,"sideResp":1,"stimulus":[],"xmouse":[786,786,786,786,786,786,786,786,786,786,786,786,781,770,757,735,703,627,583,570,566,565,565,565,565,565,565,565,565,565,565,565,565,565,564,557,545,535,518],"ymouse":[557,557,557,557,557,557,557,557,557,557,557,555,546,530,506,467,413,278,203,176,165,160,158,158,158,158,158,158,158,158,158,158,158,158,155,142,126,111,70],"timestamp_mouse":[9,28,49,68,87,108,128,149,167,188,207,227,247,268,288,308,328,348,368,388,408,427,449,467,487,508,528,549,567,587,608,627,647,668,688,708,728,747,767],"xSR":741.5,"ySR":501.8,"xT1":424.9,"yT1":0,"xT2":1058.1,"yT2":0,"toosoon":0,"cond_shown":"Incongruent","ratio_trial":100,"L_num":13,"L_den":26,"R_num":6,"R_den":10,"correct_side":2,"subjID":"Nicolás Alvarado Zea 18","gender":"0","school":"4","age":"9"},{"start_time":1552073631933,"click_time":1552073632313,"finger_time":1552073632033,"fix_duration":620.050955307983,"trial":21,"RT":100,"MT":280,"sideResp":2,"stimulus":[],"xmouse":[816,817,822,835,842,849,854,864,870,879,891,906,927,961,977,1001,1027,1107,1143],"ymouse":[536,532,529,513,502,491,482,457,443,427,409,389,363,324,306,277,245,109,40],"timestamp_mouse":[21,41,59,79,100,119,139,160,179,201,220,240,260,281,300,319,340,359,379],"xSR":741.5,"ySR":501.8,"xT1":424.9,"yT1":0,"xT2":1058.1,"yT2":0,"toosoon":0,"cond_shown":"Congruent","ratio_trial":200,"L_num":16,"L_den":20,"R_num":12,"R_den":20,"correct_side":1,"subjID":"Nicolás Alvarado Zea 18","gender":"0","school":"4","age":"9"},{"start_time":1552073633724,"click_time":1552073634294,"finger_time":1552073633773,"fix_duration":250,"trial":22,"RT":49,"MT":521,"sideResp":1,"stimulus":[],"xmouse":[774,760,729,663,591,572,556,545,537,533,533,533,533,533,533,533,533,533,533,533,530,526,526,526,526,525,521,505,482],"ymouse":[551,535,498,421,320,281,242,210,188,160,154,153,153,153,153,153,153,153,153,150,141,135,135,135,135,135,132,116,97],"timestamp_mouse":[9,29,49,68,90,109,130,149,168,188,209,230,250,270,288,308,328,349,370,388,408,428,449,470,490,508,529,549,569],"xSR":741.5,"ySR":501.8,"xT1":424.9,"yT1":0,"xT2":1058.1,"yT2":0,"toosoon":0,"cond_shown":"Congruent","ratio_trial":200,"L_num":6,"L_den":12,"R_num":7,"R_den":10,"correct_side":2,"subjID":"Nicolás Alvarado Zea 18","gender":"0","school":"4","age":"9"},{"start_time":1552073642589,"click_time":1552073643053,"finger_time":1552073642933,"fix_duration":1075.5480484691784,"trial":23,"RT":344,"MT":120,"sideResp":2,"stimulus":[],"xmouse":[812,812,812,812,812,812,812,812,812,812,812,812,812,812,812,812,812,829,853,897,952,1068,1106,1122],"ymouse":[516,516,516,516,516,516,516,516,516,516,516,516,516,516,516,516,512,490,461,410,338,182,126,94],"timestamp_mouse":[4,24,44,64,85,105,124,145,165,184,203,223,244,265,283,304,323,344,363,385,404,424,444,464],"xSR":741.5,"ySR":501.8,"xT1":424.9,"yT1":0,"xT2":1058.1,"yT2":0,"toosoon":0,"cond_shown":"Incongruent","ratio_trial":100,"L_num":11,"L_den":22,"R_num":9,"R_den":15,"correct_side":2,"subjID":"Nicolás Alvarado Zea 18","gender":"0","school":"4","age":"9"},{"start_time":1552073645945,"click_time":1552073646793,"finger_time":1552073646433,"fix_duration":250,"trial":24,"RT":488,"MT":360,"sideResp":2,"stimulus":[],"xmouse":[775,775,775,775,775,775,775,775,775,775,775,775,775,775,775,775,775,775,775,775,775,780,790,820,936,1052,1115,1161,1192,1227,1236,1241,1243,1243,1243,1242,1228,1218,1214,1203,1188,1170,1156],"ymouse":[544,544,544,544,544,544,544,544,544,544,544,544,544,544,544,544,544,544,544,544,544,542,537,519,459,366,305,244,184,100,75,61,59,59,59,59,59,60,62,69,76,80,82],"timestamp_mouse":[7,27,47,67,88,109,129,148,169,187,207,229,248,268,288,307,329,347,367,387,407,427,448,468,488,508,528,549,567,588,607,628,648,668,687,709,727,748,768,787,807,828,848],"xSR":741.5,"ySR":501.8,"xT1":424.9,"yT1":0,"xT2":1058.1,"yT2":0,"toosoon":0,"cond_shown":"Congruent","ratio_trial":200,"L_num":8,"L_den":15,"R_num":2,"R_den":6,"correct_side":1,"subjID":"Nicolás Alvarado Zea 18","gender":"0","school":"4","age":"9"},{"start_time":1552073648959,"click_time":1552073649673,"finger_time":1552073649253,"fix_duration":566.7694095169709,"trial":25,"RT":294,"MT":420,"sideResp":1,"stimulus":[],"xmouse":[795,795,795,795,795,795,795,795,795,795,795,795,795,794,784,774,759,740,695,675,661,653,646,643,641,641,641,641,641,641,641,641,640,570,519,472],"ymouse":[513,513,513,513,513,513,513,513,513,513,513,513,513,513,491,471,447,414,311,263,219,186,164,151,146,146,146,146,146,146,146,146,146,132,118,96],"timestamp_mouse":[13,34,54,74,93,114,135,154,174,195,214,234,253,273,294,313,334,354,374,393,414,434,454,474,494,514,535,555,574,593,614,633,654,674,693,714],"xSR":741.5,"ySR":501.8,"xT1":424.9,"yT1":0,"xT2":1058.1,"yT2":0,"toosoon":0,"cond_shown":"Incongruent","ratio_trial":200,"L_num":4,"L_den":5,"R_num":6,"R_den":10,"correct_side":1,"subjID":"Nicolás Alvarado Zea 18","gender":"0","school":"4","age":"9"},{"start_time":1552073654424,"click_time":1552073655093,"finger_time":1552073654733,"fix_duration":730.8729834237876,"trial":26,"RT":309,"MT":360,"sideResp":1,"stimulus":[],"xmouse":[799,799,799,799,799,799,799,799,799,799,799,798,795,785,768,741,668,626,611,601,591,584,584,584,584,584,581,578,577,576,575,561,530,494],"ymouse":[538,538,538,538,538,538,538,538,538,538,538,538,538,532,524,511,463,425,401,373,339,274,245,218,197,179,142,127,119,115,110,87,63,43],"timestamp_mouse":[8,29,48,70,89,109,129,150,169,190,208,230,249,268,289,309,328,348,368,390,409,428,449,468,489,508,528,549,568,589,609,628,648,669],"xSR":741.5,"ySR":501.8,"xT1":424.9,"yT1":0,"xT2":1058.1,"yT2":0,"toosoon":0,"cond_shown":"Congruent","ratio_trial":300,"L_num":20,"L_den":25,"R_num":14,"R_den":28,"correct_side":1,"subjID":"Nicolás Alvarado Zea 18","gender":"0","school":"4","age":"9"},{"start_time":1552073660247,"click_time":1552073661172,"finger_time":1552073660552,"fix_duration":753.2583649639678,"trial":27,"RT":305,"MT":620,"sideResp":1,"stimulus":[],"xmouse":[780,780,780,780,780,780,780,780,780,780,780,780,779,779,771,756,645,538,409,346,346,346,346,346,346,346,346,346,346,346,346,346,236,263,307,376,466,472,472,472,472,467,452,446,444,443,442],"ymouse":[540,540,540,540,540,540,540,540,540,540,540,540,539,532,519,498,351,225,82,13,13,13,13,13,13,13,13,13,13,13,13,13,7,30,63,101,153,158,158,158,158,144,124,116,112,101,87],"timestamp_mouse":[6,26,46,67,86,105,126,147,166,185,207,227,246,266,285,305,326,345,367,386,407,425,445,466,486,507,526,546,565,586,605,626,647,665,685,706,726,745,766,785,807,826,846,866,886,906,925],"xSR":741.5,"ySR":501.8,"xT1":424.9,"yT1":0,"xT2":1058.1,"yT2":0,"toosoon":0,"cond_shown":"Incongruent","ratio_trial":200,"L_num":4,"L_den":6,"R_num":14,"R_den":30,"correct_side":1,"subjID":"Nicolás Alvarado Zea 18","gender":"0","school":"4","age":"9"},{"start_time":1552073664893,"click_time":1552073667574,"finger_time":1552073665253,"fix_duration":1019.6488055190065,"trial":28,"RT":360,"MT":2321,"sideResp":2,"stimulus":[],"xmouse":[824,824,824,824,824,824,824,824,824,824,824,824,824,824,824,824,823,823,824,826,826,827,827,827,827,827,827,827,827,827,827,827,827,827,826,824,824,823,822,820,816,814,812,811,808,803,800,791,781,768,765,765,765,765,765,765,765,765,765,765,765,765,765,765,765,765,765,765,765,765,765,765,765,765,765,765,765,765,769,771,779,780,780,780,780,780,780,780,780,780,780,780,780,780,780,780,780,780,780,780,780,780,780,780,780,780,780,780,780,780,780,780,780,780,780,780,781,783,793,848,891,914,919,919,919,919,919,919,919,930,943,958,987,1027,1065],"ymouse":[513,513,513,513,513,513,513,513,513,513,513,513,513,513,513,513,513,508,498,484,481,478,478,478,478,478,478,478,478,478,478,478,478,478,483,486,487,488,490,499,507,511,515,518,524,531,537,548,559,575,579,579,579,579,579,579,579,579,579,579,579,579,579,579,579,579,579,579,579,579,579,579,579,579,579,579,579,579,574,571,559,558,558,558,558,558,558,558,558,558,558,558,558,558,558,558,558,558,558,558,558,558,558,558,558,558,558,558,558,558,558,558,558,558,558,558,556,552,538,472,435,406,389,376,368,368,368,367,365,338,316,281,224,155,76],"timestamp_mouse":[2,20,41,60,79,101,121,140,160,180,201,221,239,260,280,300,319,340,360,380,400,421,439,459,479,499,519,540,560,580,600,620,639,660,680,699,720,740,760,779,800,819,840,860,880,899,920,939,960,979,999,1019,1039,1059,1080,1099,1119,1139,1161,1180,1200,1219,1241,1260,1279,1299,1319,1341,1361,1379,1401,1420,1440,1459,1480,1500,1519,1539,1559,1580,1600,1619,1640,1659,1680,1699,1720,1740,1759,1781,1801,1819,1839,1860,1880,1900,1921,1940,1959,1980,1999,2021,2040,2059,2080,2099,2121,2141,2159,2180,2199,2219,2240,2261,2280,2300,2321,2340,2361,2379,2399,2419,2440,2460,2479,2500,2519,2541,2560,2579,2599,2620,2640,2659,2680],"xSR":741.5,"ySR":501.8,"xT1":424.9,"yT1":0,"xT2":1058.1,"yT2":0,"toosoon":0,"cond_shown":"Incongruent","ratio_trial":200,"L_num":6,"L_den":20,"R_num":3,"R_den":6,"correct_side":2,"subjID":"Nicolás Alvarado Zea 18","gender":"0","school":"4","age":"9"},{"start_time":1552073675933,"click_time":1552073676773,"finger_time":1552073676252,"fix_duration":1399.5917958232135,"trial":29,"RT":319,"MT":521,"sideResp":2,"stimulus":[],"xmouse":[791,791,791,791,791,791,791,791,791,791,791,791,791,791,791,792,798,807,824,833,839,846,854,867,913,935,950,960,964,965,965,965,965,965,965,965,969,981,1001,1038,1043,1048,1062],"ymouse":[539,539,539,539,539,539,539,539,539,539,539,539,539,539,537,520,494,462,400,376,358,338,313,269,124,75,47,31,26,24,24,24,24,24,24,33,55,79,104,125,125,122,97],"timestamp_mouse":[0,19,40,59,79,100,118,139,160,180,200,220,239,260,280,298,319,339,360,378,399,420,439,459,480,498,519,539,559,579,598,618,640,660,678,698,720,739,759,778,799,819,840],"xSR":741.5,"ySR":501.8,"xT1":424.9,"yT1":0,"xT2":1058.1,"yT2":0,"toosoon":0,"cond_shown":"Congruent","ratio_trial":300,"L_num":2,"L_den":10,"R_num":12,"R_den":24,"correct_side":2,"subjID":"Nicolás Alvarado Zea 18","gender":"0","school":"4","age":"9"},{"start_time":1552073680225,"click_time":1552073681212,"finger_time":1552073680431,"fix_duration":1330.1857268920326,"trial":30,"RT":206,"MT":781,"sideResp":1,"stimulus":[],"xmouse":[770,770,770,770,770,770,770,770,767,742,727,717,707,701,688,675,636,605,568,477,439,407,395,394,396,396,396,396,396,396,396,396,396,396,396,396,396,396,396,396,396,396,396,396,396,396,396,396,439,455],"ymouse":[552,552,552,552,552,552,552,550,542,505,489,479,472,467,455,444,411,380,337,216,144,82,45,24,0,0,0,0,0,0,0,0,0,0,0,0,0,0,0,0,0,0,0,0,0,0,0,0,0,21],"timestamp_mouse":[8,28,47,68,87,108,127,148,167,188,206,227,247,267,286,307,327,347,367,386,407,428,446,468,487,508,528,547,567,588,607,627,647,668,688,707,726,747,768,787,808,827,847,868,887,907,928,948,967,987],"xSR":741.5,"ySR":501.8,"xT1":424.9,"yT1":0,"xT2":1058.1,"yT2":0,"toosoon":0,"cond_shown":"Congruent","ratio_trial":100,"L_num":2,"L_den":5,"R_num":6,"R_den":12,"correct_side":2,"subjID":"Nicolás Alvarado Zea 18","gender":"0","school":"4","age":"9"},{"start_time":1552073683157,"click_time":1552073683612,"finger_time":1552073683412,"fix_duration":1063.639411961117,"trial":31,"RT":255,"MT":200,"sideResp":2,"stimulus":[],"xmouse":[817,817,817,817,817,817,817,818,819,822,824,828,843,854,868,887,905,925,984,998,1011,1027,1063],"ymouse":[564,564,564,564,564,564,564,563,560,556,552,545,514,489,456,406,351,293,173,149,129,109,67],"timestamp_mouse":[15,35,56,75,95,115,135,155,176,194,216,235,255,275,295,314,335,355,375,394,415,435,455],"xSR":741.5,"ySR":501.8,"xT1":424.9,"yT1":0,"xT2":1058.1,"yT2":0,"toosoon":0,"cond_shown":"Congruent","ratio_trial":200,"L_num":21,"L_den":30,"R_num":2,"R_den":4,"correct_side":1,"subjID":"Nicolás Alvarado Zea 18","gender":"0","school":"4","age":"9"},{"start_time":1552073687203,"click_time":1552073688692,"finger_time":1552073687631,"fix_duration":250,"trial":32,"RT":428,"MT":1061,"sideResp":1,"stimulus":[],"xmouse":[752,752,752,752,752,752,752,752,752,752,752,752,752,752,752,752,752,752,751,751,751,751,751,736,695,618,403,277,192,149,149,149,149,149,149,149,149,149,149,149,149,149,149,149,149,149,149,149,149,149,149,149,149,440,458,468,474,474,478,486,491,493,493,493,493,493,493,493,493,493,493,493,495,497,499],"ymouse":[568,568,568,568,568,568,568,568,568,568,568,568,568,568,568,568,568,568,562,556,541,500,482,444,400,343,209,138,73,5,5,5,5,5,5,5,5,5,5,5,5,5,5,5,5,5,5,5,5,5,5,5,5,137,202,245,255,255,249,228,214,202,202,202,193,181,154,145,139,138,137,131,116,106,99],"timestamp_mouse":[10,29,49,70,89,109,129,149,169,189,209,230,249,269,289,309,329,349,369,389,409,428,449,468,489,509,529,549,570,589,610,629,649,670,690,710,729,749,770,789,809,830,849,869,888,909,928,949,969,989,1010,1029,1049,1068,1090,1109,1129,1149,1170,1189,1209,1229,1249,1269,1289,1309,1329,1349,1370,1388,1409,1429,1449,1468,1488],"xSR":741.5,"ySR":501.8,"xT1":424.9,"yT1":0,"xT2":1058.1,"yT2":0,"toosoon":0,"cond_shown":"Congruent","ratio_trial":100,"L_num":11,"L_den":22,"R_num":6,"R_den":15,"correct_side":1,"subjID":"Nicolás Alvarado Zea 18","gender":"0","school":"4","age":"9"},{"start_time":1552073692270,"click_time":1552073692912,"finger_time":1552073692671,"fix_duration":817.540617173726,"trial":33,"RT":401,"MT":241,"sideResp":1,"stimulus":[],"xmouse":[783,783,783,783,783,783,783,783,783,783,783,783,783,783,783,783,783,783,780,763,752,735,711,680,585,537,505,489,483,482,479,474,472],"ymouse":[554,554,554,554,554,554,554,554,554,554,554,554,554,554,554,554,554,554,552,517,490,455,412,361,239,190,157,141,130,125,117,104,95],"timestamp_mouse":[4,23,43,62,82,101,122,142,162,181,203,222,243,262,283,302,322,342,362,382,401,422,442,462,481,502,522,543,563,582,601,622,642],"xSR":741.5,"ySR":501.8,"xT1":424.9,"yT1":0,"xT2":1058.1,"yT2":0,"toosoon":0,"cond_shown":"Congruent","ratio_trial":200,"L_num":6,"L_den":12,"R_num":7,"R_den":10,"correct_side":2,"subjID":"Nicolás Alvarado Zea 18","gender":"0","school":"4","age":"9"},{"start_time":1552073695719,"click_time":1552073696232,"finger_time":1552073696093,"fix_duration":346.6550811752237,"trial":34,"RT":374,"MT":139,"sideResp":2,"stimulus":[],"xmouse":[795,795,795,795,795,795,795,795,795,795,795,795,795,795,794,794,800,818,846,889,930,1001,1019,1029,1045,1062],"ymouse":[540,540,540,540,540,540,540,540,540,540,540,540,540,540,539,539,529,504,464,402,325,198,159,132,91,65],"timestamp_mouse":[12,32,53,73,93,114,132,153,173,193,213,232,253,272,294,314,333,352,374,393,414,433,452,472,493,513],"xSR":741.5,"ySR":501.8,"xT1":424.9,"yT1":0,"xT2":1058.1,"yT2":0,"toosoon":0,"cond_shown":"Congruent","ratio_trial":300,"L_num":20,"L_den":25,"R_num":13,"R_den":26,"correct_side":1,"subjID":"Nicolás Alvarado Zea 18","gender":"0","school":"4","age":"9"},{"start_time":1552073699071,"click_time":1552073699533,"finger_time":1552073699432,"fix_duration":1497.2076063513914,"trial":35,"RT":361,"MT":101,"sideResp":1,"stimulus":[],"xmouse":[793,793,793,793,793,793,793,793,793,793,793,793,793,793,793,793,790,775,737,586,517,478,457,449],"ymouse":[524,524,524,524,524,524,524,524,524,524,524,524,524,524,524,524,521,503,466,325,245,173,120,94],"timestamp_mouse":[4,21,40,61,81,101,122,140,162,181,202,220,242,262,282,301,320,341,361,381,401,420,441,462],"xSR":741.5,"ySR":501.8,"xT1":424.9,"yT1":0,"xT2":1058.1,"yT2":0,"toosoon":0,"cond_shown":"Incongruent","ratio_trial":300,"L_num":4,"L_den":5,"R_num":6,"R_den":12,"correct_side":1,"subjID":"Nicolás Alvarado Zea 18","gender":"0","school":"4","age":"9"},{"start_time":1552073701043,"click_time":1552073701652,"finger_time":1552073701372,"fix_duration":250,"trial":36,"RT":329,"MT":280,"sideResp":2,"stimulus":[],"xmouse":[765,765,765,765,765,765,765,765,765,765,765,765,768,770,778,784,807,823,842,868,919,946,965,974,978,989,1001,1019,1037,1056,1075],"ymouse":[542,542,542,542,542,542,542,542,542,542,542,542,540,538,532,526,490,464,430,384,266,221,191,177,172,156,142,123,105,90,74],"timestamp_mouse":[13,29,49,68,89,110,129,150,169,188,210,229,249,269,289,309,329,350,370,389,409,429,449,470,489,510,529,548,570,589,609],"xSR":741.5,"ySR":501.8,"xT1":424.9,"yT1":0,"xT2":1058.1,"yT2":0,"toosoon":0,"cond_shown":"Congruent","ratio_trial":100,"L_num":7,"L_den":14,"R_num":15,"R_den":25,"correct_side":2,"subjID":"Nicolás Alvarado Zea 18","gender":"0","school":"4","age":"9"},{"start_time":1552073765717,"click_time":1552073766453,"finger_time":1552073766132,"fix_duration":603.9093505127609,"trial":37,"RT":415,"MT":321,"sideResp":2,"stimulus":[],"xmouse":[790,790,790,790,790,790,790,790,790,790,790,790,790,790,790,790,790,790,790,790,818,873,970,1028,1089,1103,1108,1109,1109,1114,1115,1117,1123,1133,1143,1147,1150],"ymouse":[541,541,541,541,541,541,541,541,541,541,541,541,541,541,541,541,541,541,541,539,489,412,283,207,130,123,123,123,123,120,118,116,114,113,109,104,94],"timestamp_mouse":[18,36,55,76,95,115,135,156,176,196,215,236,256,275,296,315,336,356,376,394,415,435,456,475,495,514,536,555,575,594,615,635,656,674,695,715,736],"xSR":741.5,"ySR":501.8,"xT1":424.9,"yT1":0,"xT2":1058.1,"yT2":0,"toosoon":0,"cond_shown":"Congruent","ratio_trial":200,"L_num":3,"L_den":10,"R_num":7,"R_den":14,"correct_side":2,"subjID":"Nicolás Alvarado Zea 18","gender":"0","school":"4","age":"9"},{"start_time":1552073768062,"click_time":1552073768952,"finger_time":1552073768492,"fix_duration":250,"trial":38,"RT":430,"MT":460,"sideResp":1,"stimulus":[],"xmouse":[784,783,782,782,782,782,782,782,782,782,782,782,782,782,782,782,782,782,782,782,782,778,770,762,758,757,756,727,693,659,641,636,634,634,633,630,627,625,622,617,610,600,562,531,519],"ymouse":[533,534,534,534,534,534,534,534,534,534,534,534,534,534,534,534,534,534,534,525,519,495,431,389,362,331,295,199,148,105,80,66,60,60,59,59,59,59,61,64,70,75,85,88,88],"timestamp_mouse":[10,30,50,70,90,110,130,150,171,190,211,231,249,271,291,310,331,351,370,390,411,430,450,469,489,511,531,550,570,590,610,630,650,669,689,710,730,750,769,790,811,831,850,871,889],"xSR":741.5,"ySR":501.8,"xT1":424.9,"yT1":0,"xT2":1058.1,"yT2":0,"toosoon":0,"cond_shown":"Congruent","ratio_trial":100,"L_num":4,"L_den":10,"R_num":15,"R_den":30,"correct_side":2,"subjID":"Nicolás Alvarado Zea 18","gender":"0","school":"4","age":"9"},{"start_time":1552073773506,"click_time":1552073774172,"finger_time":1552073773831,"fix_duration":1412.7438251520014,"trial":39,"RT":325,"MT":341,"sideResp":2,"stimulus":[],"xmouse":[789,789,789,789,789,789,789,789,789,789,789,789,789,789,790,795,904,1063,1116,1193,1203,1210,1211,1214,1216,1216,1206,1199,1193,1190,1190,1185,1168,1148],"ymouse":[522,522,522,522,522,522,522,522,522,522,522,522,522,522,522,519,454,375,353,310,293,244,219,194,167,142,95,76,62,57,57,57,57,56],"timestamp_mouse":[6,26,46,66,87,106,127,147,165,187,207,227,246,267,285,307,325,346,367,386,406,427,445,466,486,507,525,546,566,586,606,626,646,666],"xSR":741.5,"ySR":501.8,"xT1":424.9,"yT1":0,"xT2":1058.1,"yT2":0,"toosoon":0,"cond_shown":"Incongruent","ratio_trial":200,"L_num":3,"L_den":10,"R_num":1,"R_den":2,"correct_side":2,"subjID":"Nicolás Alvarado Zea 18","gender":"0","school":"4","age":"9"},{"start_time":1552073776024,"click_time":1552073776872,"finger_time":1552073776431,"fix_duration":250,"trial":40,"RT":407,"MT":441,"sideResp":1,"stimulus":[],"xmouse":[771,771,771,771,771,771,771,771,771,771,771,771,771,771,771,770,770,770,770,769,756,726,702,658,610,559,559,559,559,559,559,559,559,559,559,559,559,559,559,559,559,459,457],"ymouse":[542,542,542,542,542,542,542,542,542,542,542,542,542,542,542,542,542,542,526,517,449,350,264,164,79,5,5,5,5,5,5,5,5,5,5,5,5,5,5,5,5,0,4],"timestamp_mouse":[8,29,47,69,88,108,129,148,169,189,208,228,247,269,288,309,329,349,367,389,407,428,447,469,488,509,528,548,568,589,608,628,648,668,688,708,728,748,768,789,808,828,848],"xSR":741.5,"ySR":501.8,"xT1":424.9,"yT1":0,"xT2":1058.1,"yT2":0,"toosoon":0,"cond_shown":"Congruent","ratio_trial":100,"L_num":6,"L_den":20,"R_num":5,"R_den":25,"correct_side":1,"subjID":"Nicolás Alvarado Zea 18","gender":"0","school":"4","age":"9"},{"start_time":1552073782924,"click_time":1552073783832,"finger_time":1552073783453,"fix_duration":1070.5010555395856,"trial":41,"RT":529,"MT":379,"sideResp":2,"stimulus":[],"xmouse":[778,778,778,778,778,778,778,778,778,778,778,778,778,778,778,778,778,778,778,778,778,778,778,778,795,830,903,942,980,1033,1083,1156,1169,1173,1174,1181,1186,1186,1186,1186,1186,1186,1186,1186,1172,1150],"ymouse":[529,529,529,529,529,529,529,529,529,529,529,529,529,529,529,529,529,529,529,529,529,529,529,528,518,502,447,410,362,295,229,130,106,99,99,99,99,99,99,99,99,99,99,97,87,76],"timestamp_mouse":[8,28,48,68,89,108,128,148,168,189,208,229,248,268,287,307,328,349,368,388,408,429,448,467,488,508,529,547,568,588,608,627,647,668,689,708,728,747,767,788,808,829,849,867,889,908],"xSR":741.5,"ySR":501.8,"xT1":424.9,"yT1":0,"xT2":1058.1,"yT2":0,"toosoon":0,"cond_shown":"Congruent","ratio_trial":300,"L_num":1,"L_den":3,"R_num":19,"R_den":30,"correct_side":2,"subjID":"Nicolás Alvarado Zea 18","gender":"0","school":"4","age":"9"},{"start_time":1552073786189,"click_time":1552073787213,"finger_time":1552073786952,"fix_duration":597.6523568817769,"trial":42,"RT":763,"MT":261,"sideResp":2,"stimulus":[],"xmouse":[787,787,787,787,787,787,787,787,787,787,787,787,787,787,787,787,787,787,787,787,787,787,787,787,787,787,787,787,787,787,787,787,787,787,787,788,797,823,880,888,893,902,917,953,975,999,1023,1045,1093,1115,1134,1151],"ymouse":[528,528,528,528,528,528,528,528,528,528,528,528,528,528,528,528,528,528,528,528,528,528,528,528,528,528,528,528,528,528,528,528,528,528,528,529,527,524,500,490,478,464,451,422,404,378,345,305,193,144,103,65],"timestamp_mouse":[3,25,44,63,84,103,123,144,163,182,204,224,243,262,284,303,323,344,362,384,404,424,443,464,484,504,524,543,562,584,603,624,643,663,683,703,723,743,763,783,802,823,844,863,883,904,923,943,964,983,1002,1024],"xSR":741.5,"ySR":501.8,"xT1":424.9,"yT1":0,"xT2":1058.1,"yT2":0,"toosoon":0,"cond_shown":"Congruent","ratio_trial":200,"L_num":3,"L_den":10,"R_num":11,"R_den":22,"correct_side":2,"subjID":"Nicolás Alvarado Zea 18","gender":"0","school":"4","age":"9"},{"start_time":1552073789494,"click_time":1552073790493,"finger_time":1552073789912,"fix_duration":1141.0855776291035,"trial":43,"RT":418,"MT":581,"sideResp":2,"stimulus":[],"xmouse":[777,777,777,777,777,777,777,777,777,777,777,777,777,777,777,777,777,777,777,801,879,959,1102,1234,1275,1292,1302,1307,1312,1312,1312,1312,1312,1312,1312,1312,1312,1312,1216,1203,1189,1185,1179,1171,1171,1171,1171,1171,1168,1148],"ymouse":[529,529,529,529,529,529,529,529,529,529,529,529,529,529,529,529,529,529,529,512,462,400,281,128,68,41,24,13,0,0,0,0,0,0,0,0,0,0,11,21,34,37,40,42,42,42,42,42,42,46],"timestamp_mouse":[18,39,58,77,99,119,139,158,178,199,219,238,257,279,298,318,339,358,377,398,418,438,458,478,497,518,538,558,578,599,618,637,659,679,698,718,738,757,777,799,818,838,858,879,898,918,938,959,977,999],"xSR":741.5,"ySR":501.8,"xT1":424.9,"yT1":0,"xT2":1058.1,"yT2":0,"toosoon":0,"cond_shown":"Incongruent","ratio_trial":200,"L_num":14,"L_den":30,"R_num":6,"R_den":9,"correct_side":2,"subjID":"Nicolás Alvarado Zea 18","gender":"0","school":"4","age":"9"},{"start_time":1552073792090,"click_time":1552073794852,"finger_time":1552073792532,"fix_duration":377.52644474450426,"trial":44,"RT":442,"MT":2320,"sideResp":1,"stimulus":[],"xmouse":[766,766,766,766,766,766,766,766,766,766,766,766,766,766,766,766,766,766,766,766,766,754,745,742,742,742,742,742,742,742,742,742,742,742,742,742,742,742,742,742,744,748,753,754,754,754,754,754,754,754,754,754,754,755,760,767,771,771,771,771,771,771,772,772,772,772,772,772,772,769,760,755,755,755,755,755,755,755,755,755,755,755,755,755,755,755,755,755,755,755,755,755,755,755,755,755,753,746,738,712,687,676,673,671,669,667,665,665,665,662,655,645,631,618,601,595,588,578,570,555,548,547,546,546,546,546,546,546,546,546,546,546,546,546,545,541,534,526,521],"ymouse":[529,529,529,529,529,529,529,529,529,529,529,529,529,529,529,529,529,529,529,529,529,513,498,493,493,493,493,493,493,493,493,493,493,493,493,493,493,493,496,510,516,521,524,524,524,524,524,524,524,524,524,524,524,524,524,524,524,524,524,524,524,524,524,524,524,524,524,524,524,524,524,524,524,524,524,524,524,524,524,524,524,524,524,524,524,524,524,524,524,524,524,524,524,524,524,524,521,512,500,474,454,442,433,428,422,417,413,410,403,380,353,331,305,282,242,226,212,197,182,154,138,134,133,133,133,133,133,133,133,133,133,133,133,133,122,112,103,94,88],"timestamp_mouse":[5,22,42,62,81,103,123,142,163,183,202,222,243,262,283,303,323,343,362,382,402,421,442,462,481,502,523,543,563,582,603,623,642,662,682,702,722,742,763,782,802,821,841,862,883,903,922,942,963,982,1002,1022,1042,1061,1083,1101,1122,1143,1163,1182,1202,1221,1243,1263,1282,1303,1322,1342,1362,1381,1401,1422,1443,1462,1483,1503,1523,1543,1563,1581,1603,1623,1643,1662,1681,1703,1722,1743,1762,1782,1802,1822,1842,1863,1882,1901,1923,1942,1962,1982,2002,2021,2042,2063,2082,2102,2123,2142,2162,2182,2202,2221,2243,2262,2282,2302,2322,2342,2362,2382,2402,2421,2443,2463,2482,2502,2522,2543,2562,2582,2602,2622,2643,2662,2682,2702,2723,2743,2762],"xSR":741.5,"ySR":501.8,"xT1":424.9,"yT1":0,"xT2":1058.1,"yT2":0,"toosoon":0,"cond_shown":"Incongruent","ratio_trial":100,"L_num":13,"L_den":26,"R_num":12,"R_den":20,"correct_side":2,"subjID":"Nicolás Alvarado Zea 18","gender":"0","school":"4","age":"9"},{"start_time":1552073796930,"click_time":1552073799091,"finger_time":1552073798473,"fix_duration":475.2559353132695,"trial":45,"RT":1543,"MT":618,"sideResp":1,"stimulus":[],"xmouse":[798,798,798,798,798,798,798,798,798,798,798,798,798,798,798,798,798,798,798,798,798,798,798,798,798,798,798,798,798,798,798,798,798,798,798,798,798,798,798,798,798,798,798,798,798,798,798,798,798,798,798,798,798,798,798,798,798,798,798,798,798,798,798,798,798,798,798,798,798,798,798,798,798,798,798,798,784,771,751,745,740,735,728,707,693,679,656,646,632,628,626,624,622,617,615,611,611,604,578,560,548,539,536,536,536,535,533,528,519],"ymouse":[563,563,563,563,563,563,563,563,563,563,563,563,563,563,563,563,563,563,563,563,563,563,563,563,563,563,563,563,563,563,563,563,563,563,563,563,563,563,563,563,563,563,563,563,563,563,563,563,563,563,563,563,563,563,563,563,563,563,563,563,563,563,563,563,563,563,563,563,563,563,563,563,563,563,556,549,518,489,441,423,410,399,389,363,347,331,304,287,260,244,229,212,193,169,164,158,157,155,150,145,140,134,131,129,127,120,118,111,99],"timestamp_mouse":[3,22,43,62,82,102,123,143,162,182,202,222,243,263,283,303,323,342,363,383,402,422,443,462,481,503,522,543,563,582,603,623,642,661,682,702,722,743,762,782,802,822,842,862,882,902,922,942,962,982,1002,1023,1043,1063,1082,1101,1122,1143,1163,1181,1203,1223,1241,1263,1281,1303,1323,1343,1363,1383,1401,1423,1443,1462,1482,1502,1522,1543,1562,1581,1602,1622,1643,1661,1683,1703,1722,1742,1762,1782,1802,1821,1842,1862,1883,1902,1922,1942,1962,1982,2002,2022,2043,2061,2082,2102,2123,2142,2161],"xSR":741.5,"ySR":501.8,"xT1":424.9,"yT1":0,"xT2":1058.1,"yT2":0,"toosoon":0,"cond_shown":"Congruent","ratio_trial":300,"L_num":11,"L_den":22,"R_num":4,"R_den":20,"correct_side":1,"subjID":"Nicolás Alvarado Zea 18","gender":"0","school":"4","age":"9"},{"start_time":1552073801194,"click_time":1552073803092,"finger_time":1552073801872,"fix_duration":760.0673256244463,"trial":46,"RT":678,"MT":1220,"sideResp":2,"stimulus":[],"xmouse":[777,777,777,777,777,777,777,777,777,777,777,777,777,777,777,777,777,777,777,777,777,777,777,777,777,777,777,777,777,777,773,768,764,761,759,758,758,758,758,758,758,758,758,758,758,758,758,758,758,758,804,897,995,1055,1070,1070,1070,1070,1071,1076,1086,1090,1094,1094,1083,1076,1065,1058,1055,1046,1045,1045,1044,1044,1045,1048,1053,1058,1063,1072,1074,1076,1077,1080,1091,1094,1094,1094,1094,1094,1094,1095,1096,1096,1096],"ymouse":[535,535,535,535,535,535,535,535,535,535,535,535,535,535,535,535,535,535,535,535,535,535,535,535,535,535,535,535,535,533,520,509,502,496,493,493,493,493,493,493,493,493,493,493,493,493,493,493,493,493,500,517,523,523,523,523,523,523,523,522,509,500,484,464,414,386,348,322,297,263,256,251,250,250,247,242,237,231,222,207,202,198,195,187,154,140,130,124,123,122,120,114,108,102,94],"timestamp_mouse":[18,38,59,78,98,118,138,157,179,198,219,237,258,279,299,318,338,359,378,399,419,439,459,478,498,519,539,559,577,598,619,638,658,678,698,718,739,758,779,798,819,838,859,877,898,918,938,959,979,998,1018,1038,1059,1078,1098,1118,1138,1158,1178,1198,1218,1238,1257,1278,1298,1318,1338,1359,1379,1398,1418,1438,1458,1478,1498,1518,1539,1559,1579,1598,1618,1638,1659,1679,1698,1718,1738,1758,1778,1799,1817,1838,1859,1878,1898],"xSR":741.5,"ySR":501.8,"xT1":424.9,"yT1":0,"xT2":1058.1,"yT2":0,"toosoon":0,"cond_shown":"Congruent","ratio_trial":200,"L_num":4,"L_den":10,"R_num":3,"R_den":15,"correct_side":1,"subjID":"Nicolás Alvarado Zea 18","gender":"0","school":"4","age":"9"},{"start_time":1552073804643,"click_time":1552073806673,"finger_time":1552073806132,"fix_duration":250,"trial":47,"RT":1489,"MT":541,"sideResp":1,"stimulus":[],"xmouse":[788,788,788,788,788,788,788,788,788,788,788,788,788,788,788,788,788,788,788,788,788,788,788,788,788,788,788,788,788,788,788,788,788,788,788,788,788,788,788,788,788,788,788,788,788,788,788,788,788,788,788,788,788,788,788,788,788,788,788,788,788,788,788,788,788,788,788,788,788,788,788,788,788,788,784,782,778,773,766,759,752,739,725,689,679,671,663,633,619,612,612,612,612,612,612,611,610,597,565,545,529,521],"ymouse":[528,528,528,528,528,528,528,528,528,528,528,528,528,528,528,528,528,528,528,528,528,528,528,528,528,528,528,528,528,528,528,528,528,528,528,528,528,528,528,528,528,528,528,528,528,528,528,528,528,528,528,528,528,528,528,528,528,528,528,528,528,528,528,528,528,528,528,528,528,528,528,528,527,502,468,438,413,383,361,353,345,335,324,297,288,273,259,203,173,148,127,111,105,103,103,103,102,101,99,99,99,99],"timestamp_mouse":[9,30,49,69,88,109,130,149,169,190,210,229,249,269,289,310,328,349,369,390,410,429,449,468,489,510,529,549,569,589,610,630,649,670,689,708,730,750,770,789,809,830,850,869,890,909,930,949,969,990,1010,1030,1049,1069,1089,1110,1130,1148,1169,1190,1208,1229,1249,1270,1289,1310,1328,1350,1370,1389,1409,1430,1449,1468,1489,1508,1530,1549,1570,1589,1610,1629,1650,1669,1688,1709,1730,1749,1769,1789,1809,1830,1849,1870,1889,1909,1929,1949,1970,1989,2009,2030],"xSR":741.5,"ySR":501.8,"xT1":424.9,"yT1":0,"xT2":1058.1,"yT2":0,"toosoon":0,"cond_shown":"Incongruent","ratio_trial":300,"L_num":4,"L_den":20,"R_num":2,"R_den":4,"correct_side":2,"subjID":"Nicolás Alvarado Zea 18","gender":"0","school":"4","age":"9"},{"start_time":1552073808628,"click_time":1552073811252,"finger_time":1552073809993,"fix_duration":415.6799693131623,"trial":48,"RT":1365,"MT":1259,"sideResp":2,"stimulus":[],"xmouse":[768,768,768,768,768,768,768,768,768,768,768,768,768,768,768,768,768,768,768,768,768,768,768,768,768,768,768,768,768,768,768,768,768,768,768,768,768,768,768,768,768,768,768,768,768,768,768,768,768,768,768,768,768,768,768,768,768,768,768,768,768,768,768,768,768,768,768,769,771,773,769,759,750,743,735,728,716,695,662,620,570,555,544,539,538,538,538,538,538,542,543,545,547,552,567,569,594,616,638,670,691,715,743,783,903,947,972,985,986,986,991,1005,1020,1037,1065,1070,1071,1071,1069,1068,1067,1067,1067,1067,1067,1067,1067,1067,1067,1075,1077,1079],"ymouse":[520,520,520,520,520,520,520,520,520,520,520,520,520,520,520,520,520,520,520,520,520,520,520,520,520,520,520,520,520,520,520,520,520,520,520,520,520,520,520,520,520,520,520,520,520,520,520,520,520,520,520,520,520,520,520,520,520,520,520,520,520,520,520,520,520,520,520,511,494,467,450,430,412,398,375,363,352,339,321,297,267,258,253,251,251,251,251,251,250,249,249,248,246,245,241,240,236,232,228,220,216,211,207,204,198,197,193,191,190,190,188,183,176,166,147,140,128,123,119,116,114,114,114,113,113,113,113,113,112,103,100,97],"timestamp_mouse":[6,24,43,65,85,104,125,144,163,184,204,224,244,264,284,304,324,344,364,385,405,425,445,464,484,503,524,544,565,585,604,623,644,664,685,705,724,745,764,785,804,824,845,865,884,905,925,943,964,985,1004,1025,1044,1064,1084,1105,1124,1144,1164,1184,1204,1224,1244,1264,1285,1304,1324,1344,1365,1384,1404,1424,1443,1464,1484,1504,1524,1545,1564,1584,1604,1625,1644,1664,1685,1705,1724,1744,1764,1784,1804,1825,1844,1864,1884,1904,1924,1944,1964,1984,2003,2024,2044,2064,2084,2104,2124,2145,2165,2184,2204,2224,2244,2264,2284,2304,2324,2344,2364,2384,2405,2424,2444,2464,2485,2504,2524,2545,2564,2584,2604,2624],"xSR":741.5,"ySR":501.8,"xT1":424.9,"yT1":0,"xT2":1058.1,"yT2":0,"toosoon":0,"cond_shown":"Incongruent","ratio_trial":200,"L_num":3,"L_den":10,"R_num":1,"R_den":2,"correct_side":2,"subjID":"Nicolás Alvarado Zea 18","gender":"0","school":"4","age":"9"},{"start_time":1552073814864,"click_time":1552073816472,"finger_time":1552073815532,"fix_duration":911.904221516742,"trial":49,"RT":668,"MT":940,"sideResp":2,"stimulus":[],"xmouse":[782,782,782,782,782,782,782,782,782,782,782,782,782,782,782,782,782,782,782,782,782,782,783,789,791,792,792,794,796,798,800,803,811,821,825,833,841,850,868,877,887,901,907,915,917,918,918,920,929,939,952,965,970,974,975,976,977,978,980,981,985,989,1000,1017,1019,1021,1022,1024,1035,1040,1045,1049,1051,1055,1060,1067,1072,1075,1076,1077,1078],"ymouse":[541,541,541,541,541,541,541,541,541,541,541,541,541,541,541,541,541,541,541,541,541,541,541,535,532,531,530,527,524,521,518,514,506,489,481,469,458,446,423,409,395,374,362,346,343,341,340,337,321,307,292,276,269,261,259,256,255,252,248,244,237,232,216,199,197,196,193,190,181,177,174,170,168,162,154,141,129,119,104,101,99],"timestamp_mouse":[9,29,49,68,88,109,129,149,168,187,207,227,247,267,287,307,327,347,367,389,408,428,449,469,488,509,528,548,567,589,608,629,649,668,688,709,728,749,768,788,808,828,848,869,888,908,928,949,968,989,1008,1028,1048,1068,1087,1109,1128,1149,1168,1188,1208,1228,1248,1268,1287,1308,1328,1348,1368,1388,1409,1429,1447,1468,1488,1509,1528,1549,1567,1588,1608],"xSR":741.5,"ySR":501.8,"xT1":424.9,"yT1":0,"xT2":1058.1,"yT2":0,"toosoon":0,"cond_shown":"Congruent","ratio_trial":200,"L_num":6,"L_den":20,"R_num":11,"R_den":22,"correct_side":2,"subjID":"Nicolás Alvarado Zea 18","gender":"0","school":"4","age":"9"},{"start_time":1552073817870,"click_time":1552073824371,"finger_time":1552073823551,"fix_duration":256.2576048575768,"trial":50,"RT":5681,"MT":820,"sideResp":2,"stimulus":[],"xmouse":[768,768,768,768,768,768,768,768,768,768,768,768,768,768,769,769,769,769,769,772,773,778,779,779,779,779,779,779,779,779,779,779,779,779,779,779,779,779,779,779,780,782,785,786,787,787,788,789,789,789,789,789,789,789,789,789,789,789,789,789,789,789,789,789,789,789,789,789,789,789,789,789,789,789,789,789,789,789,789,789,789,789,789,789,789,789,789,789,790,790,790,790,790,790,790,790,790,791,792,793,793,793,793,793,793,793,793,794,794,794,795,796,796,796,796,796,796,796,796,796,796,796,796,796,796,796,796,796,796,796,796,796,796,796,796,796,796,796,796,796,796,796,796,796,796,796,796,796,796,796,796,796,796,796,796,796,796,796,796,796,796,796,796,796,796,796,796,796,796,796,796,796,796,796,796,796,796,796,796,796,796,796,796,796,796,796,796,796,796,796,796,796,796,796,796,796,796,796,796,796,796,796,796,796,796,796,796,796,796,796,796,796,796,796,796,796,796,796,796,796,796,796,796,796,796,796,796,796,796,796,796,796,796,796,796,796,796,796,796,796,796,796,796,796,796,796,796,795,784,780,780,780,780,780,780,780,780,780,780,780,780,780,780,780,780,780,780,780,780,780,780,780,780,780,780,780,780,780,780,780,780,780,781,805,823,840,853,860,862,868,874,883,892,903,923,933,941,951,962,974,980,983,987,995,998,1002,1005,1010,1011,1012,1014,1020,1030,1036,1038,1038,1038,1038,1038,1038,1039,1042,1044,1048,1058,1060],"ymouse":[549,549,549,549,549,549,549,549,549,549,549,549,549,548,546,546,546,546,545,545,545,543,543,543,543,543,543,543,543,543,543,543,543,543,543,543,543,543,543,550,556,562,565,568,568,569,571,571,572,572,572,572,572,572,572,572,572,572,572,572,572,572,572,572,572,572,572,572,572,572,572,572,572,572,572,572,572,572,572,572,572,572,572,572,572,572,572,572,575,576,576,576,576,576,576,576,576,576,576,576,576,576,576,576,576,576,576,576,572,557,550,543,540,539,539,539,539,539,539,539,539,539,539,539,539,539,539,539,539,539,539,539,539,539,539,539,539,539,539,539,539,539,539,539,539,539,539,539,539,539,539,539,539,539,539,539,539,539,539,539,539,539,539,539,539,539,539,539,539,539,539,539,539,539,539,539,539,539,539,539,539,539,539,539,539,539,539,539,539,539,539,539,539,539,539,539,539,539,539,539,539,539,539,539,539,539,539,539,539,539,539,539,539,539,539,539,539,539,539,539,539,539,539,539,539,539,539,539,539,539,539,539,539,539,539,539,539,539,539,539,539,539,539,539,539,539,539,539,540,541,541,541,541,541,541,541,541,541,541,541,541,541,541,541,541,541,541,541,541,541,541,541,541,541,541,541,541,541,541,541,541,541,541,515,491,474,459,448,445,434,425,409,392,372,327,306,284,261,233,204,191,183,174,160,153,146,141,135,134,132,130,127,121,118,118,117,117,117,117,117,117,115,111,107,94,92],"timestamp_mouse":[3,25,43,63,82,102,122,141,162,183,202,221,243,263,283,302,322,343,363,382,402,422,443,462,482,502,523,542,562,582,602,621,643,663,683,703,721,743,762,783,802,822,843,863,882,902,922,943,962,982,1002,1022,1042,1062,1082,1103,1123,1142,1162,1182,1202,1222,1242,1262,1282,1303,1322,1343,1363,1381,1403,1422,1443,1463,1482,1503,1523,1543,1563,1583,1603,1623,1643,1663,1683,1702,1723,1742,1761,1783,1803,1821,1843,1862,1882,1903,1922,1943,1962,1982,2002,2022,2043,2062,2083,2102,2121,2142,2162,2182,2202,2223,2242,2262,2282,2303,2322,2342,2362,2381,2403,2423,2443,2462,2482,2502,2523,2542,2562,2582,2603,2622,2642,2663,2683,2703,2722,2743,2762,2782,2802,2822,2842,2862,2883,2902,2922,2942,2962,2982,3002,3023,3042,3062,3083,3102,3123,3143,3162,3183,3202,3223,3241,3262,3283,3303,3323,3341,3362,3383,3401,3423,3442,3462,3482,3503,3522,3542,3562,3582,3603,3623,3642,3661,3682,3702,3722,3743,3762,3782,3802,3822,3842,3862,3882,3903,3922,3943,3962,3983,4002,4023,4041,4062,4082,4103,4123,4141,4163,4183,4202,4222,4243,4262,4282,4302,4322,4342,4362,4382,4402,4423,4442,4462,4482,4503,4522,4542,4561,4582,4602,4623,4642,4662,4683,4701,4722,4743,4761,4782,4802,4821,4842,4862,4882,4902,4922,4943,4962,4982,5002,5023,5043,5062,5082,5102,5123,5143,5163,5183,5203,5222,5242,5263,5281,5303,5323,5343,5363,5382,5402,5423,5442,5462,5483,5502,5523,5541,5561,5581,5602,5623,5641,5662,5681,5702,5722,5741,5762,5782,5801,5822,5842,5863,5881,5902,5922,5942,5963,5982,6001,6022,6042,6063,6082,6101,6122,6142,6162,6181,6201,6222,6242,6261,6282,6302,6321,6341,6363,6381,6401,6422,6441,6461,6482,6501],"xSR":741.5,"ySR":501.8,"xT1":424.9,"yT1":0,"xT2":1058.1,"yT2":0,"toosoon":0,"cond_shown":"Congruent","ratio_trial":300,"L_num":2,"L_den":20,"R_num":10,"R_den":25,"correct_side":2,"subjID":"Nicolás Alvarado Zea 18","gender":"0","school":"4","age":"9"},{"start_time":1552073826974,"click_time":1552073828712,"finger_time":1552073828071,"fix_duration":1280.7743697415863,"trial":51,"RT":1097,"MT":641,"sideResp":1,"stimulus":[],"xmouse":[786,786,786,786,786,786,786,786,786,786,786,786,786,786,786,786,786,786,786,786,786,786,786,786,786,786,786,786,786,786,786,786,786,785,783,781,781,780,780,780,780,780,780,779,779,778,777,776,775,769,767,763,759,754,741,733,723,716,702,698,694,690,685,665,648,631,612,596,573,567,560,554,538,503,494,491,491,491,490,490,490,489,489,489,489,486,478],"ymouse":[538,538,538,538,538,538,538,538,538,538,538,538,538,538,538,538,538,538,538,538,538,538,538,538,538,538,538,538,538,538,538,538,535,532,530,528,528,527,527,527,527,527,526,525,525,524,524,524,523,519,517,513,509,502,483,472,460,455,442,438,433,426,413,364,326,286,250,218,188,180,177,174,166,152,148,145,145,144,139,139,138,135,130,122,116,102,84],"timestamp_mouse":[18,38,59,78,99,117,138,159,178,198,218,237,257,278,299,317,338,358,377,399,418,438,457,478,497,517,537,559,579,599,617,637,657,679,697,718,737,758,778,798,817,838,858,879,897,918,939,958,978,999,1017,1037,1059,1078,1097,1119,1138,1158,1178,1198,1217,1238,1258,1278,1298,1318,1338,1358,1377,1397,1417,1438,1459,1478,1498,1518,1537,1557,1578,1598,1617,1638,1658,1677,1698,1719,1738],"xSR":741.5,"ySR":501.8,"xT1":424.9,"yT1":0,"xT2":1058.1,"yT2":0,"toosoon":0,"cond_shown":"Congruent","ratio_trial":300,"L_num":18,"L_den":20,"R_num":9,"R_den":15,"correct_side":1,"subjID":"Nicolás Alvarado Zea 18","gender":"0","school":"4","age":"9"},{"start_time":1552073836739,"click_time":1552073838292,"finger_time":1552073837692,"fix_duration":445.3271160559682,"trial":52,"RT":953,"MT":600,"sideResp":2,"stimulus":[],"xmouse":[764,764,764,764,764,764,764,764,764,764,764,764,764,764,764,764,764,764,764,764,764,764,764,764,764,764,764,764,764,764,764,764,766,770,772,774,778,783,788,794,800,807,809,811,814,818,827,849,859,869,881,906,915,921,925,929,942,955,967,980,994,1015,1021,1027,1031,1035,1042,1048,1050,1052,1053,1053,1054,1056,1059,1065,1084,1093],"ymouse":[575,575,575,575,575,575,575,575,575,575,575,575,575,575,575,575,575,575,575,575,575,575,575,575,575,575,575,575,575,575,575,573,570,566,564,562,559,555,550,545,540,534,532,530,526,521,510,481,464,448,432,402,393,388,384,378,363,346,331,316,300,275,264,247,233,221,202,188,182,178,176,176,173,168,159,146,111,88],"timestamp_mouse":[14,33,54,73,92,112,133,154,172,192,214,234,252,273,293,314,333,353,374,394,413,432,454,474,492,513,534,553,572,593,612,633,652,674,693,713,732,753,772,793,813,833,853,872,894,913,933,953,972,994,1013,1033,1053,1073,1093,1114,1133,1153,1172,1193,1213,1233,1253,1274,1293,1312,1333,1352,1372,1394,1413,1433,1452,1473,1493,1513,1533,1553],"xSR":741.5,"ySR":501.8,"xT1":424.9,"yT1":0,"xT2":1058.1,"yT2":0,"toosoon":0,"cond_shown":"Congruent","ratio_trial":100,"L_num":2,"L_den":5,"R_num":11,"R_den":22,"correct_side":2,"subjID":"Nicolás Alvarado Zea 18","gender":"0","school":"4","age":"9"},{"start_time":1552073840851,"click_time":1552073843832,"finger_time":1552073843372,"fix_duration":1339.2123780925906,"trial":53,"RT":2521,"MT":460,"sideResp":2,"stimulus":[],"xmouse":[814,814,814,814,814,814,814,814,814,814,814,814,806,803,801,799,794,789,789,789,789,789,789,789,789,789,789,789,789,789,789,789,789,789,789,789,789,789,789,789,789,789,789,789,789,789,789,789,789,789,789,789,789,789,789,789,789,789,789,789,789,789,789,789,789,789,789,789,789,789,789,789,789,789,789,789,789,789,789,789,789,789,789,789,789,789,789,789,789,789,789,789,789,789,789,789,789,789,789,789,789,789,789,789,789,789,789,789,789,794,799,805,808,808,809,810,811,818,822,826,832,834,836,837,838,839,840,849,853,861,869,878,908,928,948,966,982,1008,1020,1030,1034,1034,1034,1036,1040,1047,1055,1079,1082,1089],"ymouse":[546,546,546,546,546,546,546,546,546,546,546,545,545,545,545,545,545,545,545,545,545,545,545,545,545,545,545,545,545,545,545,545,545,545,545,545,545,545,545,545,545,545,545,545,545,545,545,545,545,545,545,545,545,545,545,545,545,545,545,545,545,545,545,545,545,545,545,545,545,545,545,545,545,545,545,545,545,545,545,545,545,545,545,545,545,545,545,545,545,545,545,545,545,545,545,545,545,545,545,545,545,545,545,545,545,545,545,545,545,546,546,546,546,546,546,544,542,533,526,522,513,510,507,505,504,502,499,478,464,438,421,400,348,320,292,269,246,206,191,181,179,179,179,176,172,162,149,110,102,86],"timestamp_mouse":[3,21,42,62,80,101,121,142,160,181,201,220,242,260,281,301,322,341,361,380,401,421,441,462,481,501,521,541,560,580,600,622,640,660,681,700,721,741,760,781,802,820,842,860,882,901,921,941,961,982,1000,1021,1042,1061,1080,1100,1121,1142,1161,1181,1200,1220,1241,1262,1280,1300,1322,1341,1360,1380,1402,1421,1440,1462,1482,1501,1521,1541,1561,1581,1600,1620,1642,1661,1681,1701,1721,1741,1761,1781,1801,1820,1840,1861,1880,1902,1920,1942,1961,1982,2001,2020,2041,2060,2080,2102,2121,2141,2160,2180,2202,2221,2242,2261,2282,2300,2321,2340,2361,2381,2401,2421,2442,2462,2482,2500,2521,2540,2560,2580,2601,2621,2641,2660,2680,2701,2721,2740,2760,2781,2801,2821,2840,2860,2881,2901,2921,2941,2961,2981],"xSR":741.5,"ySR":501.8,"xT1":424.9,"yT1":0,"xT2":1058.1,"yT2":0,"toosoon":0,"cond_shown":"Congruent","ratio_trial":300,"L_num":1,"L_den":30,"R_num":8,"R_den":24,"correct_side":2,"subjID":"Nicolás Alvarado Zea 18","gender":"0","school":"4","age":"9"},{"start_time":1552073845963,"click_time":1552073847653,"finger_time":1552073847211,"fix_duration":250,"trial":54,"RT":1248,"MT":442,"sideResp":1,"stimulus":[],"xmouse":[782,782,782,782,782,782,782,782,782,782,782,782,782,782,782,782,782,782,782,782,782,782,782,782,782,782,782,782,782,782,782,782,782,782,782,781,779,777,776,775,774,773,773,773,773,773,773,773,773,773,773,773,773,773,773,773,772,771,770,769,768,766,749,738,727,715,682,656,630,604,592,563,558,557,557,556,553,547,541,534,531,530,530,527,523],"ymouse":[571,571,571,571,571,571,571,571,571,571,571,571,571,571,571,571,571,571,571,571,571,571,571,571,571,571,571,571,571,571,571,571,571,571,568,567,563,560,558,556,554,553,553,553,553,553,553,553,553,553,553,553,553,553,553,553,551,549,546,544,540,534,490,465,439,413,335,290,249,206,183,105,85,73,64,59,53,51,50,49,48,48,48,48,48],"timestamp_mouse":[9,29,48,70,89,110,130,148,168,188,208,229,249,269,290,308,329,349,369,388,409,428,450,470,488,509,529,549,570,589,608,628,650,669,690,709,728,748,769,788,810,829,849,869,890,910,929,950,969,988,1008,1028,1049,1070,1090,1108,1129,1148,1170,1189,1210,1229,1248,1268,1288,1309,1329,1349,1369,1389,1409,1430,1449,1468,1489,1509,1529,1549,1569,1589,1610,1629,1650,1668,1690],"xSR":741.5,"ySR":501.8,"xT1":424.9,"yT1":0,"xT2":1058.1,"yT2":0,"toosoon":0,"cond_shown":"Congruent","ratio_trial":300,"L_num":11,"L_den":22,"R_num":2,"R_den":10,"correct_side":1,"subjID":"Nicolás Alvarado Zea 18","gender":"0","school":"4","age":"9"},{"start_time":1552073885644,"click_time":1552073886933,"finger_time":1552073886371,"fix_duration":1429.773172583498,"trial":55,"RT":727,"MT":562,"sideResp":1,"stimulus":[],"xmouse":[787,786,780,780,779,779,778,778,778,778,777,776,776,776,776,776,776,776,776,776,776,776,776,776,776,776,776,776,776,776,776,776,776,768,758,742,722,695,690,687,677,669,644,631,613,589,548,467,456,449,444,439,431,427,425,425,426,430,431,432,434,434,437,443,452],"ymouse":[542,542,542,542,542,542,542,542,542,542,542,542,542,542,542,542,542,542,542,542,542,542,542,542,542,542,542,542,542,542,542,542,538,529,517,503,490,468,461,452,438,426,396,385,368,348,312,243,229,216,206,197,173,161,149,139,132,119,111,108,103,101,100,100,99],"timestamp_mouse":[7,28,48,67,88,109,129,147,169,189,209,228,247,267,288,309,329,349,368,388,408,429,448,467,487,508,528,548,568,587,607,627,648,667,688,708,727,747,767,788,807,829,848,867,888,908,927,947,967,987,1008,1028,1047,1067,1087,1107,1128,1147,1168,1188,1207,1227,1247,1268,1289],"xSR":741.5,"ySR":501.8,"xT1":424.9,"yT1":0,"xT2":1058.1,"yT2":0,"toosoon":0,"cond_shown":"Congruent","ratio_trial":100,"L_num":10,"L_den":25,"R_num":3,"R_den":10,"correct_side":1,"subjID":"Nicolás Alvarado Zea 18","gender":"0","school":"4","age":"9"},{"start_time":1552073892221,"click_time":1552073893631,"finger_time":1552073893392,"fix_duration":827.6897343619285,"trial":56,"RT":1171,"MT":239,"sideResp":2,"stimulus":[],"xmouse":[793,793,793,793,793,793,793,793,793,793,793,793,793,793,793,793,793,793,793,793,793,793,793,793,793,793,793,793,793,793,793,793,793,793,793,793,793,793,793,793,793,793,793,793,793,793,793,793,793,793,793,793,793,793,793,793,794,797,808,825,835,844,853,859,871,879,896,949,992,1054,1069],"ymouse":[531,531,531,531,531,531,531,531,531,531,531,531,531,531,531,531,531,531,531,531,531,531,531,531,531,531,531,531,531,531,531,531,531,531,531,531,531,531,531,531,531,531,531,531,531,531,531,531,531,531,531,531,531,531,531,528,525,517,498,463,441,420,399,383,351,335,306,245,195,95,51],"timestamp_mouse":[11,31,51,70,92,111,131,150,170,191,211,232,251,271,291,310,330,351,372,391,411,430,450,470,491,511,531,551,570,590,610,632,651,671,691,711,732,751,771,791,810,832,850,870,890,910,931,951,972,990,1010,1032,1050,1071,1092,1110,1131,1151,1171,1191,1210,1230,1251,1270,1290,1311,1331,1350,1371,1392,1410],"xSR":741.5,"ySR":501.8,"xT1":424.9,"yT1":0,"xT2":1058.1,"yT2":0,"toosoon":0,"cond_shown":"Congruent","ratio_trial":100,"L_num":7,"L_den":14,"R_num":15,"R_den":25,"correct_side":2,"subjID":"Nicolás Alvarado Zea 18","gender":"0","school":"4","age":"9"},{"start_time":1552073897296,"click_time":1552073910232,"finger_time":1552073899292,"fix_duration":883.7274913934036,"trial":57,"RT":1996,"MT":10940,"sideResp":2,"stimulus":[],"xmouse":[788,788,788,788,788,788,788,788,788,788,788,788,788,788,788,788,788,788,788,788,788,788,788,788,788,788,788,788,788,788,788,788,788,788,788,788,788,788,788,788,788,787,788,789,791,793,793,793,793,789,779,771,770,769,769,769,769,769,769,769,769,770,773,776,778,780,786,790,794,798,799,803,806,810,812,815,815,815,815,815,815,815,815,815,815,815,815,815,815,815,815,815,815,815,815,820,825,828,831,832,833,834,834,834,834,834,834,834,834,834,834,834,834,834,834,834,834,834,834,834,838,840,843,845,846,847,847,848,848,848,848,849,849,849,849,849,849,849,849,849,849,849,849,849,849,849,849,849,849,849,849,849,849,849,849,849,849,849,849,849,849,849,849,850,848,848,848,852,856,860,862,864,864,864,865,869,876,884,888,889,889,886,886,886,886,886,886,886,886,886,886,886,886,886,886,886,886,886,886,886,886,886,886,886,886,886,886,886,886,886,886,886,886,886,886,886,886,886,886,886,886,886,886,886,886,886,886,886,886,886,886,886,886,886,886,886,886,886,886,886,886,886,886,886,886,886,886,886,886,886,886,886,886,886,886,886,886,886,886,886,886,886,886,886,886,886,886,886,886,886,886,886,886,886,886,886,886,886,886,886,886,886,886,886,886,886,886,886,886,886,886,886,886,886,886,886,886,886,886,886,886,886,886,886,886,886,886,886,886,886,886,886,886,886,886,886,886,886,886,886,886,886,886,886,886,886,886,886,886,886,886,886,886,886,886,886,886,886,886,886,886,886,886,886,886,886,886,886,886,886,886,886,886,886,886,886,885,880,866,835,812,699,615,509,385,252,117,114,114,114,114,114,114,114,114,114,127,165,186,280,350,430,452,460,460,460,460,460,460,460,460,460,460,473,493,503,501,496,495,495,504,530,551,578,601,615,619,623,642,661,672,691,682,653,625,609,604,604,604,604,604,604,604,603,603,608,608,608,608,608,608,608,608,608,603,599,597,595,593,589,583,562,549,540,534,529,524,518,511,502,492,473,470,466,463,462,462,462,462,462,462,462,462,462,462,462,462,462,462,462,462,462,462,462,462,462,462,462,462,462,462,462,462,462,462,462,462,462,462,462,462,462,456,449,444,440,439,439,439,439,439,439,439,438,435,432,404,392,386,380,377,372,371,369,366,363,357,356,356,356,356,356,356,356,356,354,353,352,352,353,354,358,362,369,371,371,375,389,401,406,411,421,427,434,437,439,447,472,497,515,532,548,578,593,609,622,635,664,678,686,697,716,722,726,727,729,737,743,751,759,764,767,767,767,768,768,768,768,768,768,768,768,768,768,768,768,768,768,768,768,768,768,768,768,768,768,768,768,768,768,768,768,768,768,768,768,768,768,768,768,768,768,768,768,768,768,768,768,768,768,768,768,768,768,768,768,768,770,776,779,792,832,847,858,874,914,931,997,1007,1011,1015,1020,1046,1070,1093,1115,1130],"ymouse":[565,565,565,565,565,565,565,565,565,565,565,565,565,565,565,565,565,565,565,565,565,565,565,565,565,565,565,565,565,565,565,565,565,565,565,565,565,565,565,565,565,560,549,539,530,526,526,525,525,532,550,568,573,574,574,574,574,574,574,574,575,577,577,577,577,576,575,575,574,573,573,571,565,558,555,551,551,551,551,551,551,551,551,551,551,551,551,551,551,551,551,551,551,550,549,535,522,510,503,499,498,498,498,498,498,498,498,498,498,498,498,498,498,498,498,498,498,498,498,498,498,498,498,498,498,498,498,498,498,498,498,498,498,498,498,498,498,498,498,498,498,498,498,498,498,498,498,498,498,498,498,498,498,498,498,498,498,498,498,498,498,498,498,502,507,511,511,512,512,512,512,512,512,512,512,513,516,523,527,528,529,529,529,529,529,529,529,529,529,529,529,529,529,529,529,529,529,529,529,529,529,529,529,529,529,529,529,529,529,529,529,529,529,529,529,529,529,529,529,529,529,529,529,529,529,529,529,529,529,529,529,529,529,529,529,529,529,529,529,529,529,529,529,529,529,529,529,529,529,529,529,529,529,529,529,529,529,529,529,529,529,529,529,529,529,529,529,529,529,529,529,529,529,529,529,529,529,529,529,529,529,529,529,529,529,529,529,529,529,529,529,529,529,529,529,529,529,529,529,529,529,529,529,529,529,529,529,529,529,529,529,529,529,529,529,529,529,529,529,529,529,529,529,529,529,529,529,529,529,529,529,529,529,529,529,529,529,529,529,529,529,529,529,529,529,529,529,529,529,529,529,529,529,529,529,529,529,529,529,533,537,555,581,611,644,686,706,706,706,706,706,706,706,706,706,705,699,692,690,677,670,658,654,654,654,654,654,654,654,654,654,654,654,654,654,654,654,654,653,650,631,557,529,511,502,498,498,489,477,474,473,486,502,508,508,508,508,508,508,508,508,508,508,510,515,517,518,518,518,518,518,518,518,518,518,518,518,518,518,518,518,519,520,520,520,520,520,520,520,520,520,516,516,515,515,515,515,515,515,515,515,515,515,515,515,515,515,515,515,515,515,515,515,515,515,515,515,515,515,515,515,515,515,515,515,515,515,515,515,515,515,515,514,514,513,512,512,512,512,512,512,512,512,512,512,507,478,473,471,468,465,461,460,459,457,457,455,455,455,455,455,455,455,455,455,455,455,460,462,464,465,466,466,465,464,464,460,452,448,446,445,441,439,438,438,438,440,450,461,467,471,475,483,484,485,485,486,492,494,496,500,506,507,507,507,509,518,524,529,532,535,535,535,535,536,536,536,536,536,536,536,536,536,536,536,536,536,536,536,536,536,536,536,536,536,536,536,536,536,536,536,536,536,536,536,536,536,536,536,536,536,536,536,536,536,536,536,536,536,536,536,536,536,536,536,536,536,536,536,528,483,371,352,336,315,266,249,191,184,180,176,173,161,146,129,111,86],"timestamp_mouse":[15,35,55,75,97,116,136,155,175,195,217,236,257,275,296,316,335,356,375,395,415,436,456,475,496,517,535,556,575,595,616,635,656,677,697,716,736,756,777,797,816,836,855,875,896,915,937,957,975,996,1016,1036,1055,1076,1096,1115,1137,1155,1176,1197,1215,1235,1255,1276,1295,1316,1335,1356,1376,1396,1415,1436,1455,1476,1496,1515,1536,1555,1576,1597,1615,1636,1656,1677,1695,1715,1736,1757,1775,1795,1815,1835,1856,1877,1895,1915,1935,1957,1976,1996,2016,2036,2055,2077,2095,2116,2136,2157,2176,2195,2216,2236,2255,2276,2297,2317,2337,2356,2375,2396,2416,2436,2455,2476,2496,2516,2536,2556,2575,2597,2616,2636,2655,2675,2696,2716,2735,2756,2776,2795,2816,2835,2856,2875,2895,2917,2936,2957,2976,2996,3016,3036,3055,3076,3095,3117,3136,3157,3177,3195,3217,3236,3255,3276,3296,3317,3335,3356,3376,3397,3416,3435,3456,3475,3495,3517,3536,3557,3577,3596,3616,3635,3656,3675,3695,3716,3736,3755,3776,3797,3815,3835,3856,3876,3895,3917,3935,3956,3976,3996,4015,4035,4055,4077,4096,4117,4135,4155,4175,4196,4217,4237,4256,4276,4296,4316,4335,4357,4376,4395,4416,4436,4455,4476,4495,4515,4536,4556,4576,4597,4616,4635,4655,4676,4696,4716,4735,4757,4775,4795,4816,4835,4856,4875,4896,4915,4935,4955,4976,4997,5017,5036,5055,5076,5095,5115,5135,5156,5176,5196,5216,5237,5257,5276,5296,5316,5336,5356,5376,5395,5415,5436,5455,5476,5497,5517,5537,5555,5576,5595,5616,5636,5656,5677,5696,5716,5735,5755,5776,5796,5815,5835,5856,5876,5896,5915,5935,5955,5975,5996,6016,6036,6057,6076,6096,6115,6136,6155,6175,6195,6216,6236,6256,6277,6296,6316,6335,6355,6376,6396,6417,6435,6457,6476,6497,6515,6535,6556,6576,6597,6616,6635,6655,6676,6696,6715,6735,6755,6777,6796,6817,6836,6856,6875,6895,6915,6935,6956,6976,6996,7015,7036,7055,7076,7095,7115,7135,7157,7176,7196,7216,7235,7255,7277,7296,7317,7335,7356,7375,7396,7416,7436,7455,7476,7495,7516,7536,7556,7576,7597,7615,7636,7655,7675,7695,7716,7736,7756,7776,7796,7817,7835,7855,7876,7896,7916,7935,7955,7975,7996,8016,8035,8056,8076,8096,8116,8136,8156,8175,8196,8215,8236,8256,8276,8296,8316,8336,8356,8375,8397,8417,8436,8455,8476,8496,8516,8536,8555,8576,8595,8616,8635,8656,8677,8696,8715,8735,8757,8775,8796,8816,8835,8855,8875,8896,8916,8936,8956,8975,8996,9016,9036,9055,9075,9096,9115,9135,9157,9175,9196,9215,9236,9257,9277,9296,9316,9336,9357,9376,9395,9415,9436,9456,9475,9495,9516,9536,9556,9576,9596,9616,9636,9656,9675,9696,9717,9736,9757,9775,9796,9816,9835,9855,9877,9896,9916,9936,9956,9975,9995,10016,10036,10056,10076,10096,10117,10136,10156,10175,10196,10216,10236,10255,10275,10295,10317,10335,10356,10376,10396,10416,10436,10456,10477,10497,10517,10536,10556,10575,10596,10617,10635,10656,10675,10695,10715,10735,10756,10775,10796,10816,10837,10856,10877,10895,10915,10936,10956,10975,10996,11015,11036,11055,11076,11096,11115,11136,11156,11175,11197,11216,11235,11256,11275,11296,11316,11337,11355,11375,11396,11416,11436,11456,11476,11497,11516,11535,11555,11576,11597,11617,11635,11655,11677,11695,11715,11737,11756,11775,11796,11815,11837,11856,11876,11895,11915,11935,11957,11977,11995,12016,12037,12056,12077,12096,12116,12136,12156,12177,12197,12216,12236,12255,12277,12295,12315,12336,12355,12377,12397,12416,12436,12455,12475,12495,12515,12536,12556,12575,12595,12616,12636,12656,12676,12696,12716,12736,12755,12775,12796,12816,12835,12855,12876,12896,12917,12936],"xSR":741.5,"ySR":501.8,"xT1":424.9,"yT1":0,"xT2":1058.1,"yT2":0,"toosoon":0,"cond_shown":"Congruent","ratio_trial":300,"L_num":4,"L_den":20,"R_num":13,"R_den":26,"correct_side":2,"subjID":"Nicolás Alvarado Zea 18","gender":"0","school":"4","age":"9"},{"start_time":1552073912001,"click_time":1552073923772,"finger_time":1552073923232,"fix_duration":1067.43432772718,"trial":58,"RT":11231,"MT":540,"sideResp":1,"stimulus":[],"xmouse":[790,790,790,790,790,790,790,790,790,790,790,790,790,790,790,790,790,790,790,790,790,790,790,790,790,790,790,790,790,790,790,790,790,790,790,790,790,790,790,790,790,790,790,790,790,790,790,790,790,790,790,790,790,790,790,790,790,790,790,790,790,790,790,790,790,790,790,790,790,790,790,790,790,790,790,790,790,790,790,790,790,790,790,790,790,790,790,790,790,790,790,790,790,790,790,790,790,790,790,790,790,790,790,790,790,790,790,790,790,790,790,790,790,790,790,790,790,790,790,790,790,790,790,790,790,790,790,790,790,790,790,790,790,790,790,790,790,790,790,790,790,790,790,790,790,790,790,790,790,790,790,790,790,790,790,790,790,790,790,790,790,790,790,790,790,790,790,790,790,790,790,790,790,790,790,790,790,790,790,790,790,790,790,790,790,790,790,790,790,790,790,790,790,790,790,790,790,790,790,790,790,790,790,790,790,790,790,790,790,790,790,790,790,790,790,790,790,790,790,790,790,790,790,790,790,790,790,790,790,790,790,790,790,790,790,790,790,790,790,790,790,790,790,790,790,790,790,790,790,790,790,790,790,790,790,790,790,790,790,790,790,790,790,790,790,790,790,790,790,790,790,790,790,790,790,790,790,790,790,790,790,790,790,790,790,790,790,790,790,790,790,790,790,790,790,790,790,790,790,790,790,790,790,790,790,790,790,790,790,790,790,790,790,790,790,790,790,790,790,790,790,790,790,790,790,790,790,790,790,790,790,790,790,790,790,790,790,790,790,790,790,790,790,790,790,790,790,790,790,790,790,790,790,790,790,790,790,790,790,790,790,790,790,790,790,790,790,790,790,790,790,790,790,790,790,790,790,790,790,790,790,790,790,790,790,790,790,790,790,790,790,790,790,790,790,790,790,790,790,790,790,790,790,790,790,790,790,790,790,790,790,790,790,790,790,790,790,790,790,790,790,790,790,790,790,790,790,790,790,790,790,790,790,790,790,790,790,790,790,790,790,790,790,790,790,790,790,790,790,790,790,790,790,790,790,790,790,790,790,790,790,790,790,790,790,790,790,790,790,790,790,790,790,790,790,790,790,790,790,790,790,790,790,790,790,790,790,790,790,790,790,790,790,790,790,790,790,790,790,790,790,790,790,790,790,790,790,790,790,790,790,790,790,790,790,790,790,790,790,790,790,790,790,790,790,790,790,790,790,790,790,790,790,790,790,790,790,790,790,790,790,790,790,790,790,790,790,790,790,790,790,790,790,790,790,790,790,790,790,787,775,759,748,729,714,702,689,675,640,623,608,595,580,550,539,523,512,505,502,501,498,495,490,485,485,485,485,484,481],"ymouse":[528,528,528,528,528,528,528,528,528,528,528,528,528,528,528,528,528,528,528,528,528,528,528,528,528,528,528,528,528,528,528,528,528,528,528,528,528,528,528,528,528,528,528,528,528,528,528,528,528,528,528,528,528,528,528,528,528,528,528,528,528,528,528,528,528,528,528,528,528,528,528,528,528,528,528,528,528,528,528,528,528,528,528,528,528,528,528,528,528,528,528,528,528,528,528,528,528,528,528,528,528,528,528,528,528,528,528,528,528,528,528,528,528,528,528,528,528,528,528,528,528,528,528,528,528,528,528,528,528,528,528,528,528,528,528,528,528,528,528,528,528,528,528,528,528,528,528,528,528,528,528,528,528,528,528,528,528,528,528,528,528,528,528,528,528,528,528,528,528,528,528,528,528,528,528,528,528,528,528,528,528,528,528,528,528,528,528,528,528,528,528,528,528,528,528,528,528,528,528,528,528,528,528,528,528,528,528,528,528,528,528,528,528,528,528,528,528,528,528,528,528,528,528,528,528,528,528,528,528,528,528,528,528,528,528,528,528,528,528,528,528,528,528,528,528,528,528,528,528,528,528,528,528,528,528,528,528,528,528,528,528,528,528,528,528,528,528,528,528,528,528,528,528,528,528,528,528,5