[{"start_time":1552074546224,"click_time":1552074547180,"finger_time":1552074547041,"fix_duration":721.6734411185014,"trial":0,"RT":817,"MT":139,"sideResp":2,"stimulus":"img/750/equaldotanddens/R/11_Ratio_750_L_12_R_16.png","xmouse":[785,785,786,786,786,786,786,786,786,786,786,786,786,786,786,786,786,786,786,786,786,786,786,786,786,786,786,786,786,786,786,786,786,786,786,786,789,796,804,815,840,848,858,886,924,970,1091,1142],"ymouse":[556,555,554,554,554,554,553,553,553,553,553,553,553,553,553,553,553,553,553,553,553,553,553,553,553,553,553,553,553,553,553,553,553,553,553,553,546,536,521,502,466,446,423,367,313,252,124,51],"timestamp_mouse":[27,37,58,76,96,117,137,158,176,196,217,237,257,277,297,317,338,358,378,397,416,437,457,476,497,517,536,557,576,597,618,637,656,677,697,716,737,756,776,797,817,837,856,877,897,916,937,956],"xSR":741.5,"ySR":501.8,"xT1":424.9,"yT1":0,"xT2":1058.1,"yT2":0,"toosoon":0,"cond_shown":"equaldotanddens","ratio_trial":750,"smaller_num":"12","larger_num":"16","correct_side":2,"subjID":"NicolasAlvarado18","gender":"0","age":"9","school":"4","test":{"fix_dur":[250,1500],"timestim":300,"targets_dim":[100,100],"targets_relative_coord":[0.3,0.7],"size_stim":[880,420],"start_dim":[100,100],"size_start":[300,300],"size_fix":60,"samplingrate":20,"img_types":["equaldotsize","equaldotanddens","randomdotsizeEA"],"ratios":[250,500,750,900],"rep_conds":9,"nTrials":120,"trials_to_rest":500,"Trials_order":[55,111,29,31,90,61,59,74,73,25,5,115,52,50,18,57,113,51,96,82,100,108,24,112,6,1,87,13,110,109,94,35,12,62,105,23,33,78,54,85,107,92,32,8,117,86,97,58,14,43,99,48,2,16,21,95,70,3,49,36,77,53,91,106,27,102,80,45,22,10,0,81,76,65,68,20,116,37,41,39,26,84,47,46,104,63,119,103,15,40,7,66,83,88,64,93,19,28,118,38,30,71,89,42,44,75,69,17,98,101,9,114,4,79,67,34,60,11,56,72],"cond_shown":["equaldotanddens","equaldotsize","randomdotsizeEA","equaldotanddens","equaldotsize","equaldotanddens","randomdotsizeEA","randomdotsizeEA","equaldotanddens","equaldotanddens","randomdotsizeEA","equaldotanddens","equaldotanddens","randomdotsizeEA","equaldotsize","equaldotsize","randomdotsizeEA","equaldotsize","equaldotsize","equaldotanddens","equaldotanddens","equaldotsize","equaldotsize","equaldotanddens","equaldotsize","equaldotanddens","equaldotsize","equaldotanddens","randomdotsizeEA","equaldotanddens","equaldotanddens","randomdotsizeEA","equaldotsize","randomdotsizeEA","equaldotsize","randomdotsizeEA","equaldotsize","equaldotsize","equaldotsize","equaldotanddens","randomdotsizeEA","randomdotsizeEA","randomdotsizeEA","randomdotsizeEA","equaldotsize","randomdotsizeEA","equaldotanddens","equaldotanddens","randomdotsizeEA","equaldotanddens","equaldotsize","equaldotsize","randomdotsizeEA","equaldotanddens","equaldotsize","randomdotsizeEA","equaldotanddens","equaldotsize","equaldotanddens","equaldotsize","randomdotsizeEA","randomdotsizeEA","equaldotanddens","equaldotanddens","equaldotsize","equaldotsize","randomdotsizeEA","equaldotsize","equaldotanddens","equaldotanddens","equaldotsize","equaldotsize","equaldotanddens","randomdotsizeEA","randomdotsizeEA","randomdotsizeEA","randomdotsizeEA","equaldotanddens","randomdotsizeEA","equaldotsize","randomdotsizeEA","equaldotsize","randomdotsizeEA","equaldotanddens","randomdotsizeEA","equaldotsize","randomdotsizeEA","equaldotanddens","equaldotsize","equaldotanddens","equaldotanddens","equaldotsize","randomdotsizeEA","equaldotanddens","equaldotanddens","equaldotsize","equaldotanddens","equaldotanddens","equaldotanddens","randomdotsizeEA","equaldotsize","randomdotsizeEA","randomdotsizeEA","equaldotsize","randomdotsizeEA","equaldotsize","equaldotsize","randomdotsizeEA","randomdotsizeEA","randomdotsizeEA","equaldotsize","equaldotsize","equaldotanddens","equaldotanddens","equaldotanddens","equaldotanddens","equaldotsize","randomdotsizeEA","randomdotsizeEA","equaldotsize"],"ratio_trial":[750,500,500,750,750,250,900,250,250,250,500,750,500,250,750,900,500,500,250,900,500,250,250,500,750,250,500,250,250,250,900,900,250,250,900,900,900,750,750,250,900,750,750,750,900,250,250,900,250,750,500,250,250,500,900,900,900,500,250,250,500,500,750,900,500,750,750,900,900,900,250,900,500,500,750,750,750,250,500,500,250,250,900,900,750,500,900,750,500,500,750,750,900,500,500,900,750,500,900,250,750,900,500,750,750,500,900,500,250,500,900,750,500,750,750,900,250,900,750,250],"smaller_num":["12","3","1","3","3","6","9","5","2","2","4","9","5","6","6","9","5","6","6","18","1","5","5","6","15","3","10","5","3","2","9","18","6","1","18","9","18","3","9","3","9","3","6","15","18","6","2","18","3","15","2","3","6","6","9","18","9","9","5","2","6","5","9","18","4","3","15","18","18","18","2","18","2","1","3","12","15","3","2","10","5","3","18","18","18","3","9","6","3","9","6","6","18","9","2","18","15","4","9","3","3","18","9","3","3","9","18","4","6","9","18","3","4","3","9","18","4","9","15","2"],"larger_num":["16","6","2","4","4","24","10","20","8","8","8","12","10","24","8","10","10","12","24","20","2","20","20","12","20","12","20","20","12","8","10","20","24","4","20","10","20","4","12","12","10","4","8","20","20","24","8","20","12","20","4","12","24","12","10","20","10","18","20","8","12","10","12","20","8","4","20","20","20","20","8","20","4","2","4","16","20","12","4","20","20","12","20","20","24","6","10","8","6","18","8","8","20","18","4","20","20","8","10","12","4","20","18","4","4","18","20","8","24","18","20","4","8","4","12","20","16","10","20","8"],"correct_side":[2,2,2,1,1,2,2,2,1,2,1,2,2,2,1,1,2,1,1,2,2,2,2,1,1,1,2,2,2,1,2,2,1,2,2,2,1,2,2,2,2,1,2,1,1,2,1,2,1,1,1,1,1,1,1,1,2,2,2,1,1,1,2,2,1,1,2,1,2,1,1,1,1,2,2,2,1,2,1,2,2,2,2,2,1,2,2,1,2,1,1,1,1,2,1,1,2,1,2,2,2,1,1,1,2,1,1,1,2,2,1,1,1,1,2,1,1,1,2,1],"img_shown":["img/750/equaldotanddens/R/11_Ratio_750_L_12_R_16.png","img/500/equaldotsize/R/2_Ratio_500_L_3_R_6.png","img/500/randomdotsizeEA/R/12_Ratio_500_L_1_R_2.png","img/750/equaldotanddens/L/10_Ratio_750_L_4_R_3.png","img/750/equaldotsize/L/9_Ratio_750_L_4_R_3.png","img/250/equaldotanddens/R/6_Ratio_250_L_6_R_24.png","img/900/randomdotsizeEA/R/3_Ratio_900_L_9_R_10.png","img/250/randomdotsizeEA/R/12_Ratio_250_L_5_R_20.png","img/250/equaldotanddens/L/7_Ratio_250_L_8_R_2.png","img/250/equaldotanddens/R/13_Ratio_250_L_2_R_8.png","img/500/randomdotsizeEA/L/8_Ratio_500_L_8_R_4.png","img/750/equaldotanddens/R/15_Ratio_750_L_9_R_12.png","img/500/equaldotanddens/R/14_Ratio_500_L_5_R_10.png","img/250/randomdotsizeEA/R/6_Ratio_250_L_6_R_24.png","img/750/equaldotsize/L/13_Ratio_750_L_8_R_6.png","img/900/equaldotsize/L/1_Ratio_900_L_10_R_9.png","img/500/randomdotsizeEA/R/14_Ratio_500_L_5_R_10.png","img/500/equaldotsize/L/13_Ratio_500_L_12_R_6.png","img/250/equaldotsize/L/5_Ratio_250_L_24_R_6.png","img/900/equaldotanddens/R/9_Ratio_900_L_18_R_20.png","img/500/equaldotanddens/R/15_Ratio_500_L_1_R_2.png","img/250/equaldotsize/R/12_Ratio_250_L_5_R_20.png","img/250/equaldotsize/R/12_Ratio_250_L_5_R_20.png","img/500/equaldotanddens/L/13_Ratio_500_L_12_R_6.png","img/750/equaldotsize/L/1_Ratio_750_L_20_R_15.png","img/250/equaldotanddens/L/14_Ratio_250_L_12_R_3.png","img/500/equaldotsize/R/3_Ratio_500_L_10_R_20.png","img/250/equaldotanddens/R/12_Ratio_250_L_5_R_20.png","img/250/randomdotsizeEA/R/9_Ratio_250_L_3_R_12.png","img/250/equaldotanddens/L/3_Ratio_250_L_8_R_2.png","img/900/equaldotanddens/R/7_Ratio_900_L_9_R_10.png","img/900/randomdotsizeEA/R/13_Ratio_900_L_18_R_20.png","img/250/equaldotsize/L/5_Ratio_250_L_24_R_6.png","img/250/randomdotsizeEA/R/8_Ratio_250_L_1_R_4.png","img/900/equaldotsize/R/12_Ratio_900_L_18_R_20.png","img/900/randomdotsizeEA/R/6_Ratio_900_L_9_R_10.png","img/900/equaldotsize/L/4_Ratio_900_L_20_R_18.png","img/750/equaldotsize/R/12_Ratio_750_L_3_R_4.png","img/750/equaldotsize/R/15_Ratio_750_L_9_R_12.png","img/250/equaldotanddens/R/11_Ratio_250_L_3_R_12.png","img/900/randomdotsizeEA/R/5_Ratio_900_L_9_R_10.png","img/750/randomdotsizeEA/L/8_Ratio_750_L_4_R_3.png","img/750/randomdotsizeEA/R/2_Ratio_750_L_6_R_8.png","img/750/randomdotsizeEA/L/1_Ratio_750_L_20_R_15.png","img/900/equaldotsize/L/10_Ratio_900_L_20_R_18.png","img/250/randomdotsizeEA/R/6_Ratio_250_L_6_R_24.png","img/250/equaldotanddens/L/3_Ratio_250_L_8_R_2.png","img/900/equaldotanddens/R/12_Ratio_900_L_18_R_20.png","img/250/randomdotsizeEA/L/14_Ratio_250_L_12_R_3.png","img/750/equaldotanddens/L/1_Ratio_750_L_20_R_15.png","img/500/equaldotsize/L/5_Ratio_500_L_4_R_2.png","img/250/equaldotsize/L/15_Ratio_250_L_12_R_3.png","img/250/randomdotsizeEA/L/5_Ratio_250_L_24_R_6.png","img/500/equaldotanddens/L/11_Ratio_500_L_12_R_6.png","img/900/equaldotsize/L/1_Ratio_900_L_10_R_9.png","img/900/randomdotsizeEA/L/10_Ratio_900_L_20_R_18.png","img/900/equaldotanddens/R/6_Ratio_900_L_9_R_10.png","img/500/equaldotsize/R/6_Ratio_500_L_9_R_18.png","img/250/equaldotanddens/R/12_Ratio_250_L_5_R_20.png","img/250/equaldotsize/L/7_Ratio_250_L_8_R_2.png","img/500/randomdotsizeEA/L/11_Ratio_500_L_12_R_6.png","img/500/randomdotsizeEA/L/7_Ratio_500_L_10_R_5.png","img/750/equaldotanddens/R/15_Ratio_750_L_9_R_12.png","img/900/equaldotanddens/R/11_Ratio_900_L_18_R_20.png","img/500/equaldotsize/L/8_Ratio_500_L_8_R_4.png","img/750/equaldotsize/L/9_Ratio_750_L_4_R_3.png","img/750/randomdotsizeEA/R/4_Ratio_750_L_15_R_20.png","img/900/equaldotsize/L/8_Ratio_900_L_20_R_18.png","img/900/equaldotanddens/R/11_Ratio_900_L_18_R_20.png","img/900/equaldotanddens/L/10_Ratio_900_L_20_R_18.png","img/250/equaldotsize/L/7_Ratio_250_L_8_R_2.png","img/900/equaldotsize/L/8_Ratio_900_L_20_R_18.png","img/500/equaldotanddens/L/10_Ratio_500_L_4_R_2.png","img/500/randomdotsizeEA/R/12_Ratio_500_L_1_R_2.png","img/750/randomdotsizeEA/R/7_Ratio_750_L_3_R_4.png","img/750/randomdotsizeEA/R/11_Ratio_750_L_12_R_16.png","img/750/randomdotsizeEA/L/1_Ratio_750_L_20_R_15.png","img/250/equaldotanddens/R/4_Ratio_250_L_3_R_12.png","img/500/randomdotsizeEA/L/5_Ratio_500_L_4_R_2.png","img/500/equaldotsize/R/3_Ratio_500_L_10_R_20.png","img/250/randomdotsizeEA/R/12_Ratio_250_L_5_R_20.png","img/250/equaldotsize/R/9_Ratio_250_L_3_R_12.png","img/900/randomdotsizeEA/R/12_Ratio_900_L_18_R_20.png","img/900/equaldotanddens/R/13_Ratio_900_L_18_R_20.png","img/750/randomdotsizeEA/L/6_Ratio_750_L_24_R_18.png","img/500/equaldotsize/R/2_Ratio_500_L_3_R_6.png","img/900/randomdotsizeEA/R/6_Ratio_900_L_9_R_10.png","img/750/equaldotanddens/L/13_Ratio_750_L_8_R_6.png","img/500/equaldotsize/R/2_Ratio_500_L_3_R_6.png","img/500/equaldotanddens/L/4_Ratio_500_L_18_R_9.png","img/750/equaldotanddens/L/13_Ratio_750_L_8_R_6.png","img/750/equaldotsize/L/14_Ratio_750_L_8_R_6.png","img/900/randomdotsizeEA/L/10_Ratio_900_L_20_R_18.png","img/500/equaldotanddens/R/6_Ratio_500_L_9_R_18.png","img/500/equaldotanddens/L/10_Ratio_500_L_4_R_2.png","img/900/equaldotsize/L/10_Ratio_900_L_20_R_18.png","img/750/equaldotanddens/R/3_Ratio_750_L_15_R_20.png","img/500/equaldotanddens/L/8_Ratio_500_L_8_R_4.png","img/900/equaldotanddens/R/7_Ratio_900_L_9_R_10.png","img/250/randomdotsizeEA/R/11_Ratio_250_L_3_R_12.png","img/750/equaldotsize/R/7_Ratio_750_L_3_R_4.png","img/900/randomdotsizeEA/L/4_Ratio_900_L_20_R_18.png","img/500/randomdotsizeEA/L/4_Ratio_500_L_18_R_9.png","img/750/equaldotsize/L/10_Ratio_750_L_4_R_3.png","img/750/randomdotsizeEA/R/12_Ratio_750_L_3_R_4.png","img/500/equaldotsize/L/4_Ratio_500_L_18_R_9.png","img/900/equaldotsize/L/8_Ratio_900_L_20_R_18.png","img/500/randomdotsizeEA/L/8_Ratio_500_L_8_R_4.png","img/250/randomdotsizeEA/R/6_Ratio_250_L_6_R_24.png","img/500/randomdotsizeEA/R/6_Ratio_500_L_9_R_18.png","img/900/equaldotsize/L/10_Ratio_900_L_20_R_18.png","img/750/equaldotsize/L/10_Ratio_750_L_4_R_3.png","img/500/equaldotanddens/L/8_Ratio_500_L_8_R_4.png","img/750/equaldotanddens/L/10_Ratio_750_L_4_R_3.png","img/750/equaldotanddens/R/15_Ratio_750_L_9_R_12.png","img/900/equaldotanddens/L/10_Ratio_900_L_20_R_18.png","img/250/equaldotsize/L/2_Ratio_250_L_16_R_4.png","img/900/randomdotsizeEA/L/1_Ratio_900_L_10_R_9.png","img/750/randomdotsizeEA/R/3_Ratio_750_L_15_R_20.png","img/250/equaldotsize/L/1_Ratio_250_L_8_R_2.png"],"Rat0":[["12_Ratio_0_L_9_R_0.png","13_Ratio_0_L_6_R_0.png","5_Ratio_0_L_2_R_0.png","6_Ratio_0_L_4_R_0.png","8_Ratio_0_L_6_R_0.png"],["1_Ratio_0_L_0_R_17.png","10_Ratio_0_L_0_R_22.png","11_Ratio_0_L_0_R_1.png","14_Ratio_0_L_0_R_24.png","15_Ratio_0_L_0_R_4.png","2_Ratio_0_L_0_R_5.png","3_Ratio_0_L_0_R_17.png","4_Ratio_0_L_0_R_7.png","7_Ratio_0_L_0_R_19.png","9_Ratio_0_L_0_R_15.png"]],"Rat250":[["1_Ratio_250_L_8_R_2.png","14_Ratio_250_L_12_R_3.png","15_Ratio_250_L_12_R_3.png","2_Ratio_250_L_16_R_4.png","3_Ratio_250_L_8_R_2.png","5_Ratio_250_L_24_R_6.png","7_Ratio_250_L_8_R_2.png"],["10_Ratio_250_L_4_R_16.png","11_Ratio_250_L_3_R_12.png","12_Ratio_250_L_5_R_20.png","13_Ratio_250_L_2_R_8.png","4_Ratio_250_L_3_R_12.png","6_Ratio_250_L_6_R_24.png","8_Ratio_250_L_1_R_4.png","9_Ratio_250_L_3_R_12.png"]],"Rat500":[["10_Ratio_500_L_4_R_2.png","11_Ratio_500_L_12_R_6.png","13_Ratio_500_L_12_R_6.png","4_Ratio_500_L_18_R_9.png","5_Ratio_500_L_4_R_2.png","7_Ratio_500_L_10_R_5.png","8_Ratio_500_L_8_R_4.png"],["1_Ratio_500_L_9_R_18.png","12_Ratio_500_L_1_R_2.png","14_Ratio_500_L_5_R_10.png","15_Ratio_500_L_1_R_2.png","2_Ratio_500_L_3_R_6.png","3_Ratio_500_L_10_R_20.png","6_Ratio_500_L_9_R_18.png","9_Ratio_500_L_2_R_4.png"]],"Rat750":[["1_Ratio_750_L_20_R_15.png","10_Ratio_750_L_4_R_3.png","13_Ratio_750_L_8_R_6.png","14_Ratio_750_L_8_R_6.png","6_Ratio_750_L_24_R_18.png","8_Ratio_750_L_4_R_3.png","9_Ratio_750_L_4_R_3.png"],["11_Ratio_750_L_12_R_16.png","12_Ratio_750_L_3_R_4.png","15_Ratio_750_L_9_R_12.png","2_Ratio_750_L_6_R_8.png","3_Ratio_750_L_15_R_20.png","4_Ratio_750_L_15_R_20.png","5_Ratio_750_L_15_R_20.png","7_Ratio_750_L_3_R_4.png"]],"Rat900":[["1_Ratio_900_L_10_R_9.png","10_Ratio_900_L_20_R_18.png","2_Ratio_900_L_20_R_18.png","4_Ratio_900_L_20_R_18.png","8_Ratio_900_L_20_R_18.png"],["11_Ratio_900_L_18_R_20.png","12_Ratio_900_L_18_R_20.png","13_Ratio_900_L_18_R_20.png","14_Ratio_900_L_18_R_20.png","15_Ratio_900_L_9_R_10.png","3_Ratio_900_L_9_R_10.png","5_Ratio_900_L_9_R_10.png","6_Ratio_900_L_9_R_10.png","7_Ratio_900_L_9_R_10.png","9_Ratio_900_L_18_R_20.png"]],"Rat1000":[["10_Ratio_1000_L_16_R_16.png","11_Ratio_1000_L_6_R_6.png","12_Ratio_1000_L_14_R_14.png","13_Ratio_1000_L_20_R_20.png","15_Ratio_1000_L_15_R_15.png","2_Ratio_1000_L_17_R_17.png","4_Ratio_1000_L_9_R_9.png","5_Ratio_1000_L_6_R_6.png","6_Ratio_1000_L_19_R_19.png","8_Ratio_1000_L_14_R_14.png","9_Ratio_1000_L_25_R_25.png"],["1_Ratio_1000_L_1_R_1.png","14_Ratio_1000_L_17_R_17.png","3_Ratio_1000_L_17_R_17.png","7_Ratio_1000_L_6_R_6.png"]]}},{"start_time":1552074548862,"click_time":1552074550102,"finger_time":1552074549581,"fix_duration":300.15676978958084,"trial":1,"RT":719,"MT":521,"sideResp":2,"stimulus":"img/500/equaldotsize/R/2_Ratio_500_L_3_R_6.png","xmouse":[772,772,772,772,772,772,772,772,772,772,772,772,772,772,772,772,772,772,772,772,772,772,772,772,772,772,772,772,772,772,772,772,773,785,793,804,821,842,876,886,888,888,887,894,903,915,930,945,970,982,995,1020,1033,1048,1051,1052,1052,1052,1052,1053,1056,1060],"ymouse":[539,539,539,539,539,539,539,539,539,539,539,538,538,538,537,537,537,536,536,536,536,535,535,535,535,533,533,533,532,530,529,527,521,494,476,452,416,365,284,256,233,205,190,171,160,147,134,121,104,101,99,99,97,95,92,90,87,83,80,77,75,70],"timestamp_mouse":[20,40,59,79,98,120,140,159,178,200,220,239,260,278,299,318,338,358,378,399,419,439,458,478,499,520,539,559,579,599,619,640,660,679,698,719,739,759,779,798,819,838,859,879,898,919,938,959,978,999,1018,1039,1059,1079,1098,1119,1138,1158,1180,1198,1219,1240],"xSR":741.5,"ySR":469.95,"xT1":424.9,"yT1":0,"xT2":1058.1,"yT2":0,"toosoon":0,"cond_shown":"equaldotsize","ratio_trial":500,"smaller_num":"3","larger_num":"6","correct_side":2,"subjID":"NicolasAlvarado18","gender":"0","age":"9","school":"4"},{"start_time":1552074551292,"click_time":1552074552401,"finger_time":1552074551961,"fix_duration":250,"trial":2,"RT":669,"MT":440,"sideResp":2,"stimulus":"img/500/randomdotsizeEA/R/12_Ratio_500_L_1_R_2.png","xmouse":[783,782,782,782,782,782,782,782,782,782,782,782,782,782,782,782,782,782,782,782,782,782,782,782,782,782,782,782,782,782,784,786,791,804,816,832,849,870,916,923,924,923,919,919,919,921,928,938,970,973,974,984,1004,1080,1115,1131],"ymouse":[490,491,491,491,491,491,491,491,491,491,491,491,491,491,491,491,491,491,491,491,491,491,491,491,491,491,491,491,491,491,487,483,474,446,427,406,381,353,283,261,243,233,228,228,227,224,217,206,180,178,176,171,162,129,107,93],"timestamp_mouse":[8,28,49,69,89,108,128,149,170,190,209,228,249,269,290,309,328,349,370,390,410,429,448,470,489,510,529,549,569,590,609,629,648,669,689,709,729,748,770,789,809,828,849,870,890,910,928,948,968,989,1009,1028,1048,1069,1089,1109],"xSR":741.5,"ySR":469.95,"xT1":424.9,"yT1":0,"xT2":1058.1,"yT2":0,"toosoon":0,"cond_shown":"randomdotsizeEA","ratio_trial":500,"smaller_num":"1","larger_num":"2","correct_side":2,"subjID":"NicolasAlvarado18","gender":"0","age":"9","school":"4"},{"start_time":1552074554148,"click_time":1552074555260,"finger_time":1552074554801,"fix_duration":786.5963437297847,"trial":3,"RT":653,"MT":459,"sideResp":1,"stimulus":"img/750/equaldotanddens/L/10_Ratio_750_L_4_R_3.png","xmouse":[785,785,785,785,785,785,785,785,785,785,785,785,785,785,785,785,785,785,785,785,785,785,785,785,785,785,785,785,784,783,773,759,732,684,629,538,520,507,498,494,492,492,492,491,491,486,486,486,486,486,486,494,497,497,491,480],"ymouse":[525,525,525,525,525,525,525,525,525,525,525,525,525,525,525,525,525,525,525,525,525,525,525,525,525,525,525,525,525,525,509,491,463,427,382,280,248,223,202,193,188,188,188,187,187,170,164,163,163,163,162,153,141,125,104,81],"timestamp_mouse":[16,33,52,72,93,112,132,154,172,193,213,234,254,273,294,313,334,353,373,393,414,432,453,474,493,512,532,553,573,593,613,633,653,673,692,712,733,752,772,792,813,834,853,873,892,912,933,953,972,992,1012,1032,1053,1072,1092,1112],"xSR":741.5,"ySR":469.95,"xT1":424.9,"yT1":0,"xT2":1058.1,"yT2":0,"toosoon":0,"cond_shown":"equaldotanddens","ratio_trial":750,"smaller_num":"3","larger_num":"4","correct_side":1,"subjID":"NicolasAlvarado18","gender":"0","age":"9","school":"4"},{"start_time":1552074558065,"click_time":1552074559201,"finger_time":1552074558841,"fix_duration":322.24112072633113,"trial":4,"RT":776,"MT":360,"sideResp":2,"stimulus":"img/750/equaldotsize/L/9_Ratio_750_L_4_R_3.png","xmouse":[805,805,805,805,805,805,805,805,805,805,805,805,805,805,805,805,805,805,805,805,805,805,805,805,805,805,805,805,805,805,805,805,805,805,805,804,809,822,847,877,928,939,942,942,942,943,945,947,950,953,964,972,985,1002,1029,1083,1100],"ymouse":[526,526,526,526,526,526,526,526,526,526,526,526,526,526,526,526,526,526,526,526,526,526,526,526,526,526,526,526,526,526,526,526,526,526,526,524,513,494,461,415,332,308,293,285,280,275,269,262,252,240,211,196,177,161,140,100,83],"timestamp_mouse":[17,36,55,76,96,117,137,157,177,195,216,236,256,276,296,316,336,355,376,396,417,437,456,476,496,516,535,556,577,596,615,637,655,676,695,716,735,756,776,796,816,837,857,877,895,916,935,955,975,996,1015,1035,1055,1075,1095,1115,1136],"xSR":741.5,"ySR":469.95,"xT1":424.9,"yT1":0,"xT2":1058.1,"yT2":0,"toosoon":0,"cond_shown":"equaldotsize","ratio_trial":750,"smaller_num":"3","larger_num":"4","correct_side":1,"subjID":"NicolasAlvarado18","gender":"0","age":"9","school":"4"},{"start_time":1552074562553,"click_time":1552074563660,"finger_time":1552074563240,"fix_duration":829.9691375525758,"trial":5,"RT":687,"MT":420,"sideResp":2,"stimulus":"img/250/equaldotanddens/R/6_Ratio_250_L_6_R_24.png","xmouse":[796,796,796,796,796,796,796,796,796,796,796,796,796,796,796,796,796,796,796,796,796,796,796,796,796,796,796,796,796,796,796,799,805,815,826,840,870,885,907,933,988,1030,1040,1048,1055,1062,1079,1089,1096,1101,1103,1103,1104,1105,1109,1115],"ymouse":[493,493,493,493,493,493,493,493,493,493,493,493,493,493,493,493,493,493,493,493,493,493,493,493,493,493,493,493,493,493,493,489,482,471,459,445,403,382,356,330,286,251,236,222,208,191,157,143,133,127,124,122,121,115,106,95],"timestamp_mouse":[7,27,48,68,87,107,128,149,168,187,209,229,248,267,288,309,329,349,367,388,408,427,447,468,487,508,528,549,569,588,608,627,648,669,687,707,727,747,768,789,808,827,847,869,887,908,927,947,968,988,1009,1028,1048,1067,1088,1107],"xSR":741.5,"ySR":469.95,"xT1":424.9,"yT1":0,"xT2":1058.1,"yT2":0,"toosoon":0,"cond_shown":"equaldotanddens","ratio_trial":250,"smaller_num":"6","larger_num":"24","correct_side":2,"subjID":"NicolasAlvarado18","gender":"0","age":"9","school":"4"},{"start_time":1552074566075,"click_time":1552074567120,"finger_time":1552074566781,"fix_duration":1212.2930601114308,"trial":6,"RT":706,"MT":339,"sideResp":2,"stimulus":"img/900/randomdotsizeEA/R/3_Ratio_900_L_9_R_10.png","xmouse":[805,805,805,805,805,805,805,805,805,805,805,805,805,805,805,805,805,805,805,805,805,805,805,805,805,805,805,805,805,805,805,806,809,814,820,830,859,876,895,909,926,931,935,941,946,954,976,988,999,1004,1020,1033,1059],"ymouse":[496,496,496,496,496,496,496,496,496,496,496,496,496,496,496,496,496,496,496,496,496,496,496,496,496,496,496,496,496,496,496,495,492,486,477,463,420,393,362,336,298,287,280,269,259,247,216,199,183,170,142,125,98],"timestamp_mouse":[6,28,46,65,85,105,127,145,166,186,205,225,247,267,285,306,327,347,367,386,405,427,447,466,485,506,526,546,566,586,606,627,646,666,685,706,725,746,765,786,807,825,845,866,886,906,926,945,965,986,1005,1026,1045],"xSR":741.5,"ySR":469.95,"xT1":424.9,"yT1":0,"xT2":1058.1,"yT2":0,"toosoon":0,"cond_shown":"randomdotsizeEA","ratio_trial":900,"smaller_num":"9","larger_num":"10","correct_side":2,"subjID":"NicolasAlvarado18","gender":"0","age":"9","school":"4"},{"start_time":1552074569097,"click_time":1552074569941,"finger_time":1552074569840,"fix_duration":496.6408774562895,"trial":7,"RT":743,"MT":101,"sideResp":2,"stimulus":"img/250/randomdotsizeEA/R/12_Ratio_250_L_5_R_20.png","xmouse":[795,795,795,795,795,795,795,795,795,795,795,795,795,795,795,795,795,795,795,795,795,795,795,795,795,796,797,799,800,802,805,805,807,808,813,821,831,850,887,995,1062,1098,1125],"ymouse":[521,521,521,521,521,521,521,521,521,521,521,521,521,521,521,521,521,521,521,521,521,521,520,520,519,518,517,516,514,511,507,506,503,502,496,487,475,455,421,292,184,125,87],"timestamp_mouse":[3,23,44,64,84,103,123,143,165,183,203,223,245,263,283,304,324,343,364,385,403,424,444,464,483,505,525,543,564,584,604,624,644,665,684,704,724,743,764,784,804,824,844],"xSR":741.5,"ySR":469.95,"xT1":424.9,"yT1":0,"xT2":1058.1,"yT2":0,"toosoon":0,"cond_shown":"randomdotsizeEA","ratio_trial":250,"smaller_num":"5","larger_num":"20","correct_side":2,"subjID":"NicolasAlvarado18","gender":"0","age":"9","school":"4"},{"start_time":1552074571444,"click_time":1552074572381,"finger_time":1552074572081,"fix_duration":543.3137612086117,"trial":8,"RT":637,"MT":300,"sideResp":1,"stimulus":"img/250/equaldotanddens/L/7_Ratio_250_L_8_R_2.png","xmouse":[770,770,770,770,770,770,770,770,770,770,770,770,770,770,770,770,770,770,770,770,770,770,770,770,770,767,762,755,750,745,743,738,724,716,704,693,681,646,626,606,592,580,555,548,543,534,523],"ymouse":[537,536,534,533,533,533,533,533,533,533,533,533,533,533,533,533,533,533,533,533,533,533,533,532,530,525,518,506,499,491,484,475,443,429,408,386,357,278,239,200,176,155,116,103,90,72,55],"timestamp_mouse":[16,38,57,77,97,116,137,158,178,196,217,237,258,276,297,317,336,357,378,398,417,436,457,477,497,516,537,556,577,597,616,637,656,677,696,718,737,756,776,796,816,837,856,877,897,917,937],"xSR":741.5,"ySR":469.95,"xT1":424.9,"yT1":0,"xT2":1058.1,"yT2":0,"toosoon":0,"cond_shown":"equaldotanddens","ratio_trial":250,"smaller_num":"2","larger_num":"8","correct_side":1,"subjID":"NicolasAlvarado18","gender":"0","age":"9","school":"4"},{"start_time":1552074573984,"click_time":1552074574681,"finger_time":1552074574480,"fix_duration":541.2262073813614,"trial":9,"RT":496,"MT":201,"sideResp":2,"stimulus":"img/250/equaldotanddens/R/13_Ratio_250_L_2_R_8.png","xmouse":[799,799,799,799,799,799,799,799,799,799,799,799,799,799,799,799,798,798,798,798,800,805,812,825,869,907,969,985,994,1000,1013,1022,1042,1057,1070],"ymouse":[530,530,530,530,530,530,530,530,530,530,530,530,530,530,530,530,529,529,528,526,524,515,503,479,402,338,234,208,192,183,161,145,117,96,72],"timestamp_mouse":[16,36,57,78,98,116,137,158,178,196,216,238,256,277,297,317,337,357,376,397,416,437,457,476,496,516,536,556,577,597,617,637,657,676,697],"xSR":741.5,"ySR":469.95,"xT1":424.9,"yT1":0,"xT2":1058.1,"yT2":0,"toosoon":0,"cond_shown":"equaldotanddens","ratio_trial":250,"smaller_num":"2","larger_num":"8","correct_side":2,"subjID":"NicolasAlvarado18","gender":"0","age":"9","school":"4"},{"start_time":1552074577173,"click_time":1552074578160,"finger_time":1552074577760,"fix_duration":1471.1109967653829,"trial":10,"RT":587,"MT":400,"sideResp":2,"stimulus":"img/500/randomdotsizeEA/L/8_Ratio_500_L_8_R_4.png","xmouse":[791,791,791,791,791,791,791,791,791,791,791,791,791,791,791,791,791,791,791,791,791,792,795,797,800,803,807,814,820,824,831,846,853,856,856,856,856,858,865,876,887,911,928,942,962,988,1013,1046,1056,1062],"ymouse":[504,504,504,504,504,504,504,504,504,504,504,504,504,504,504,504,504,504,504,504,504,504,503,501,498,494,489,479,472,463,451,422,387,354,313,280,255,214,200,186,170,141,121,112,104,96,92,88,86,85],"timestamp_mouse":[8,29,48,68,89,108,128,149,169,187,208,228,248,269,288,307,328,349,367,389,409,427,447,467,487,507,527,547,567,587,608,628,647,668,687,707,728,746,768,787,807,828,846,866,887,908,927,947,967,987],"xSR":741.5,"ySR":469.95,"xT1":424.9,"yT1":0,"xT2":1058.1,"yT2":0,"toosoon":0,"cond_shown":"randomdotsizeEA","ratio_trial":500,"smaller_num":"4","larger_num":"8","correct_side":1,"subjID":"NicolasAlvarado18","gender":"0","age":"9","school":"4"},{"start_time":1552074580482,"click_time":1552074581720,"finger_time":1552074581221,"fix_duration":1200.3942883340108,"trial":11,"RT":739,"MT":499,"sideResp":1,"stimulus":"img/750/equaldotanddens/R/15_Ratio_750_L_9_R_12.png","xmouse":[781,781,781,781,781,781,781,781,781,781,781,781,781,781,781,781,781,781,781,781,781,780,779,779,779,779,779,779,779,779,779,779,779,779,778,775,722,672,618,573,547,520,517,514,514,514,513,513,513,513,513,515,515,515,515,512,510,510,508,505,498,476],"ymouse":[499,499,499,499,499,499,499,499,499,499,499,499,499,499,499,499,499,499,499,499,499,500,500,500,500,500,500,500,500,500,500,500,500,500,500,496,471,443,408,370,334,282,267,256,252,250,247,243,236,228,220,202,193,182,172,163,154,150,141,131,115,77],"timestamp_mouse":[19,38,58,78,99,119,139,159,178,199,218,239,257,279,298,318,338,359,379,398,418,438,459,478,499,519,537,559,579,599,618,639,659,679,698,719,739,757,779,798,818,838,858,879,897,919,938,958,978,998,1018,1038,1058,1078,1099,1118,1138,1158,1178,1197,1218,1238],"xSR":741.5,"ySR":469.95,"xT1":424.9,"yT1":0,"xT2":1058.1,"yT2":0,"toosoon":0,"cond_shown":"equaldotanddens","ratio_trial":750,"smaller_num":"9","larger_num":"12","correct_side":2,"subjID":"NicolasAlvarado18","gender":"0","age":"9","school":"4"},{"start_time":1552074584429,"click_time":1552074585580,"finger_time":1552074585020,"fix_duration":1409.868617998201,"trial":12,"RT":591,"MT":560,"sideResp":2,"stimulus":"img/500/equaldotanddens/R/14_Ratio_500_L_5_R_10.png","xmouse":[784,784,784,784,784,784,784,784,784,784,784,784,784,784,784,784,784,784,784,784,784,784,784,784,784,786,791,802,806,812,817,830,858,922,1096,1171,1225,1233,1234,1234,1234,1234,1234,1234,1234,1231,1228,1224,1219,1209,1202,1197,1196,1196,1196,1192,1175,1157],"ymouse":[495,495,495,495,495,495,495,495,495,495,495,495,495,495,495,495,495,495,495,495,495,495,495,495,495,495,491,479,474,466,461,453,430,366,196,122,56,38,32,31,31,31,30,26,20,3,0,0,0,0,0,0,0,0,0,1,6,18],"timestamp_mouse":[11,31,51,71,91,112,132,151,171,192,211,231,251,271,292,312,331,351,371,391,411,432,452,471,490,512,532,551,571,591,611,631,652,671,692,711,732,752,771,791,811,831,851,871,891,912,931,952,972,991,1011,1031,1051,1071,1092,1111,1131,1151],"xSR":741.5,"ySR":469.95,"xT1":424.9,"yT1":0,"xT2":1058.1,"yT2":0,"toosoon":0,"cond_shown":"equaldotanddens","ratio_trial":500,"smaller_num":"5","larger_num":"10","correct_side":2,"subjID":"NicolasAlvarado18","gender":"0","age":"9","school":"4"},{"start_time":1552074589542,"click_time":1552074590740,"finger_time":1552074590140,"fix_duration":1201.5273979806154,"trial":13,"RT":598,"MT":600,"sideResp":2,"stimulus":"img/250/randomdotsizeEA/R/6_Ratio_250_L_6_R_24.png","xmouse":[787,787,787,787,787,787,787,787,787,787,787,787,787,787,787,787,787,787,787,787,787,787,787,789,790,794,798,812,829,873,896,925,954,985,1042,1059,1071,1077,1083,1085,1088,1091,1094,1097,1103,1104,1105,1105,1105,1105,1105,1105,1105,1105,1105,1105,1106,1106,1107,1109],"ymouse":[500,500,500,500,500,500,500,500,500,500,500,500,500,500,500,500,500,500,500,500,500,500,500,500,500,499,498,494,484,447,418,379,342,302,235,214,195,183,172,168,158,152,145,139,131,129,128,126,126,118,115,112,109,106,106,106,105,105,102,98],"timestamp_mouse":[18,39,59,77,98,119,138,158,178,198,219,237,258,279,298,318,339,357,379,399,418,438,458,479,498,519,539,559,578,598,618,638,658,678,698,718,738,758,778,798,818,838,859,879,898,918,938,958,978,998,1018,1038,1058,1078,1098,1119,1138,1159,1179,1198],"xSR":741.5,"ySR":469.95,"xT1":424.9,"yT1":0,"xT2":1058.1,"yT2":0,"toosoon":0,"cond_shown":"randomdotsizeEA","ratio_trial":250,"smaller_num":"6","larger_num":"24","correct_side":2,"subjID":"NicolasAlvarado18","gender":"0","age":"9","school":"4"},{"start_time":1552074593732,"click_time":1552074595020,"finger_time":1552074594540,"fix_duration":329.4954313795004,"trial":14,"RT":808,"MT":480,"sideResp":1,"stimulus":"img/750/equaldotsize/L/13_Ratio_750_L_8_R_6.png","xmouse":[768,768,768,768,768,768,768,768,768,768,768,768,768,768,768,768,768,768,768,768,768,768,768,768,768,768,768,768,768,768,768,768,768,768,769,769,769,767,764,759,753,733,714,693,665,629,610,598,586,568,544,494,473,460,455,455,455,455,455,455,455,455,458,464,469],"ymouse":[506,506,506,506,506,506,506,506,506,506,506,506,506,506,506,506,506,506,506,506,506,506,506,506,506,506,506,506,506,506,506,506,506,506,506,502,494,489,480,470,454,414,386,356,324,277,254,240,229,214,193,155,140,130,124,123,123,123,123,123,123,121,116,107,96],"timestamp_mouse":[9,28,48,68,89,108,129,148,168,189,209,228,249,269,288,308,327,349,369,388,409,428,448,469,489,509,528,548,569,588,609,629,649,667,689,708,728,749,769,788,808,827,849,868,889,909,928,949,968,988,1008,1029,1048,1068,1087,1109,1128,1148,1168,1188,1209,1228,1248,1269,1288],"xSR":741.5,"ySR":469.95,"xT1":424.9,"yT1":0,"xT2":1058.1,"yT2":0,"toosoon":0,"cond_shown":"equaldotsize","ratio_trial":750,"smaller_num":"6","larger_num":"8","correct_side":1,"subjID":"NicolasAlvarado18","gender":"0","age":"9","school":"4"},{"start_time":1552074596164,"click_time":1552074597160,"finger_time":1552074596940,"fix_duration":304.3751113635047,"trial":15,"RT":776,"MT":220,"sideResp":2,"stimulus":"img/900/equaldotsize/L/1_Ratio_900_L_10_R_9.png","xmouse":[767,767,767,767,767,767,767,767,767,767,767,767,767,767,767,767,767,767,767,767,767,767,767,767,767,767,767,767,767,767,767,767,769,772,782,791,799,811,833,896,924,946,959,973,996,1007,1018,1035,1054,1091],"ymouse":[515,515,515,515,515,515,515,515,515,515,515,515,515,515,515,515,515,515,515,515,515,515,515,515,515,515,515,515,515,515,515,515,515,515,514,506,496,478,447,368,331,303,281,261,219,201,185,165,143,86],"timestamp_mouse":[16,37,56,76,96,116,136,157,177,196,216,237,257,277,297,316,337,356,375,397,416,437,457,476,497,517,537,557,576,597,617,635,657,676,696,715,736,757,776,796,816,836,857,876,897,916,937,957,977,996],"xSR":741.5,"ySR":469.95,"xT1":424.9,"yT1":0,"xT2":1058.1,"yT2":0,"toosoon":0,"cond_shown":"equaldotsize","ratio_trial":900,"smaller_num":"9","larger_num":"10","correct_side":1,"subjID":"NicolasAlvarado18","gender":"0","age":"9","school":"4"},{"start_time":1552074599400,"click_time":1552074600240,"finger_time":1552074599860,"fix_duration":1059.8453426452472,"trial":16,"RT":460,"MT":380,"sideResp":1,"stimulus":"img/500/randomdotsizeEA/R/14_Ratio_500_L_5_R_10.png","xmouse":[772,772,772,772,772,772,772,772,772,772,772,772,772,772,772,772,772,772,772,774,774,774,774,774,774,771,766,748,736,723,705,686,666,635,621,608,597,588,571,548,526,501],"ymouse":[494,494,494,494,494,494,494,494,494,494,494,494,494,494,494,494,494,494,494,489,486,472,450,438,427,418,409,383,367,351,322,299,271,235,222,209,201,193,177,151,125,96],"timestamp_mouse":[21,40,60,81,101,120,141,160,181,200,220,241,260,281,300,320,341,361,381,400,419,440,460,480,500,520,539,560,580,601,620,641,660,681,700,721,740,760,780,801,820,840],"xSR":741.5,"ySR":469.95,"xT1":424.9,"yT1":0,"xT2":1058.1,"yT2":0,"toosoon":0,"cond_shown":"randomdotsizeEA","ratio_trial":500,"smaller_num":"5","larger_num":"10","correct_side":2,"subjID":"NicolasAlvarado18","gender":"0","age":"9","school":"4"},{"start_time":1552074602326,"click_time":1552074603520,"finger_time":1552074603200,"fix_duration":503.4178776966183,"trial":17,"RT":874,"MT":320,"sideResp":1,"stimulus":"img/500/equaldotsize/L/13_Ratio_500_L_12_R_6.png","xmouse":[830,829,826,822,817,815,812,811,811,811,809,809,809,809,809,809,809,809,809,808,807,806,806,805,805,805,805,805,805,805,805,805,805,805,805,805,804,804,802,800,796,779,752,723,701,688,679,666,661,659,656,644,625,610,596,582,570,542,531,522],"ymouse":[502,502,503,504,504,505,506,506,506,506,507,507,507,507,507,507,507,508,508,508,508,509,509,509,509,509,509,509,509,509,509,509,509,509,509,509,509,509,509,508,504,490,475,459,443,425,401,330,302,276,256,219,193,175,158,139,117,76,64,58],"timestamp_mouse":[13,34,54,75,94,114,134,155,175,193,214,234,255,273,295,314,334,354,374,395,415,435,455,474,495,514,535,554,575,594,614,634,654,674,695,714,735,755,775,795,814,834,854,874,894,914,933,955,975,994,1015,1034,1054,1074,1095,1114,1134,1154,1174,1194],"xSR":741.5,"ySR":469.95,"xT1":424.9,"yT1":0,"xT2":1058.1,"yT2":0,"toosoon":0,"cond_shown":"equaldotsize","ratio_trial":500,"smaller_num":"6","larger_num":"12","correct_side":1,"subjID":"NicolasAlvarado18","gender":"0","age":"9","school":"4"},{"start_time":1552074605918,"click_time":1552074607041,"finger_time":1552074606560,"fix_duration":1175.2345852545157,"trial":18,"RT":642,"MT":481,"sideResp":1,"stimulus":"img/250/equaldotsize/L/5_Ratio_250_L_24_R_6.png","xmouse":[791,791,791,791,791,791,791,791,791,791,791,791,791,791,791,791,791,791,791,791,791,790,788,787,785,784,782,781,778,776,774,767,760,745,734,722,712,699,672,664,654,651,638,605,582,566,550,543,537,536,536,535,534,527,520,510,496],"ymouse":[500,500,500,500,500,500,500,500,500,500,500,500,500,500,500,500,500,500,500,500,500,500,500,500,500,500,499,499,497,495,493,479,466,441,426,414,398,379,342,329,310,305,286,242,211,185,161,142,122,120,118,116,116,114,111,103,92],"timestamp_mouse":[3,22,43,61,83,102,123,143,163,181,203,223,242,263,283,302,323,343,363,381,403,422,442,463,483,503,522,542,563,582,603,622,642,662,683,702,723,742,762,782,802,823,843,862,882,902,921,942,962,982,1003,1023,1043,1062,1082,1103,1123],"xSR":741.5,"ySR":469.95,"xT1":424.9,"yT1":0,"xT2":1058.1,"yT2":0,"toosoon":0,"cond_shown":"equaldotsize","ratio_trial":250,"smaller_num":"6","larger_num":"24","correct_side":1,"subjID":"NicolasAlvarado18","gender":"0","age":"9","school":"4"},{"start_time":1552074609202,"click_time":1552074610660,"finger_time":1552074609901,"fix_duration":680.2550345671023,"trial":19,"RT":699,"MT":759,"sideResp":2,"stimulus":"img/900/equaldotanddens/R/9_Ratio_900_L_18_R_20.png","xmouse":[786,786,786,786,786,786,786,786,786,786,786,786,786,786,786,786,786,786,786,786,786,786,787,789,789,790,790,790,790,791,793,795,801,809,836,864,881,901,935,950,961,967,971,978,985,997,1007,1017,1030,1034,1038,1040,1042,1043,1046,1048,1052,1057,1061,1062,1063,1063,1063,1064,1065,1065,1065,1065,1066,1066,1066,1066,1067],"ymouse":[516,516,516,516,516,516,516,516,516,516,516,516,516,516,516,516,516,516,516,516,516,514,513,510,509,508,507,507,505,504,503,499,496,491,469,447,430,411,371,352,338,328,321,306,294,270,251,233,204,194,184,178,173,168,157,150,136,127,118,116,114,114,113,111,109,108,108,108,105,104,103,102,98],"timestamp_mouse":[19,38,59,78,98,118,138,159,178,198,217,239,259,278,298,318,339,359,378,399,418,439,458,478,498,519,538,559,578,599,618,638,659,679,699,719,739,759,778,799,818,839,858,877,899,918,938,958,979,999,1018,1038,1058,1079,1098,1119,1138,1158,1179,1198,1218,1238,1258,1279,1299,1318,1338,1359,1379,1399,1419,1438,1458],"xSR":741.5,"ySR":469.95,"xT1":424.9,"yT1":0,"xT2":1058.1,"yT2":0,"toosoon":0,"cond_shown":"equaldotanddens","ratio_trial":900,"smaller_num":"18","larger_num":"20","correct_side":2,"subjID":"NicolasAlvarado18","gender":"0","age":"9","school":"4"},{"start_time":1552074612050,"click_time":1552074613640,"finger_time":1552074612840,"fix_duration":250,"trial":20,"RT":790,"MT":800,"sideResp":2,"stimulus":"img/500/equaldotanddens/R/15_Ratio_500_L_1_R_2.png","xmouse":[766,766,766,766,766,766,766,766,767,767,767,768,768,768,768,768,768,768,769,770,771,771,771,771,771,771,771,771,771,771,771,771,771,771,771,771,771,771,777,786,801,820,858,869,871,871,866,850,844,837,829,820,807,805,805,805,808,840,857,876,894,915,940,953,965,975,986,986,986,989,994,999,1018,1028,1037,1040,1040,1041,1045,1059],"ymouse":[531,531,531,531,531,531,530,530,530,530,530,530,530,530,530,530,530,529,529,527,524,522,520,519,518,518,518,517,517,516,515,514,511,510,508,505,501,488,478,465,447,424,360,322,303,288,279,272,271,270,268,267,266,266,266,266,266,263,260,258,256,250,234,222,206,189,144,119,98,82,72,65,56,54,52,51,51,51,50,49],"timestamp_mouse":[10,31,50,70,90,110,131,150,171,190,211,231,251,271,289,311,331,350,371,390,410,431,451,471,491,511,530,551,570,591,611,631,650,670,690,710,731,750,770,790,811,831,851,870,891,910,931,951,970,990,1010,1030,1050,1070,1091,1111,1129,1150,1171,1190,1210,1231,1250,1271,1291,1309,1331,1350,1370,1390,1411,1431,1450,1469,1491,1510,1531,1550,1571,1590],"xSR":741.5,"ySR":469.95,"xT1":424.9,"yT1":0,"xT2":1058.1,"yT2":0,"toosoon":0,"cond_shown":"equaldotanddens","ratio_trial":500,"smaller_num":"1","larger_num":"2","correct_side":2,"subjID":"NicolasAlvarado18","gender":"0","age":"9","school":"4"},{"start_time":1552074615829,"click_time":1552074617061,"finger_time":1552074616239,"fix_duration":309.2215719916696,"trial":21,"RT":410,"MT":822,"sideResp":2,"stimulus":"img/250/equaldotsize/R/12_Ratio_250_L_5_R_20.png","xmouse":[791,791,791,791,791,791,791,793,796,798,799,799,799,801,803,806,808,812,827,834,844,847,853,860,864,872,878,886,911,922,932,948,964,1011,1035,1051,1065,1074,1084,1085,1086,1086,1086,1086,1086,1086,1086,1086,1086,1086,1086,1086,1086,1086,1086,1086,1086,1086,1086,1086,1086,1086],"ymouse":[497,497,497,497,497,498,498,498,498,497,496,496,496,495,494,493,492,489,481,476,472,470,468,465,463,460,456,449,431,421,411,390,369,313,283,255,224,194,157,148,146,146,144,138,133,129,127,125,123,120,116,110,106,102,101,100,100,100,100,100,100,98],"timestamp_mouse":[11,32,50,72,92,112,131,152,170,191,211,231,252,272,291,312,332,352,371,391,410,432,452,471,491,511,531,551,571,591,611,631,652,671,691,711,731,751,771,791,811,831,851,871,891,911,932,951,971,991,1012,1031,1051,1071,1091,1111,1132,1150,1171,1191,1212,1232],"xSR":741.5,"ySR":469.95,"xT1":424.9,"yT1":0,"xT2":1058.1,"yT2":0,"toosoon":0,"cond_shown":"equaldotsize","ratio_trial":250,"smaller_num":"5","larger_num":"20","correct_side":2,"subjID":"NicolasAlvarado18","gender":"0","age":"9","school":"4"},{"start_time":1552074620034,"click_time":1552074620639,"finger_time":1552074620459,"fix_duration":1112.408386236752,"trial":22,"RT":425,"MT":180,"sideResp":2,"stimulus":"img/250/equaldotsize/R/12_Ratio_250_L_5_R_20.png","xmouse":[817,817,817,817,817,817,817,817,817,815,815,815,814,814,813,813,812,812,812,817,823,831,843,866,959,1016,1048,1068,1089,1098,1103],"ymouse":[515,515,515,515,515,515,515,515,515,515,515,515,515,515,514,514,514,512,509,498,484,466,442,412,323,276,236,195,134,104,86],"timestamp_mouse":[9,26,46,67,86,106,126,146,167,187,206,226,246,266,287,307,327,346,366,391,406,425,445,466,486,505,526,547,567,586,605],"xSR":741.5,"ySR":469.95,"xT1":424.9,"yT1":0,"xT2":1058.1,"yT2":0,"toosoon":0,"cond_shown":"equaldotsize","ratio_trial":250,"smaller_num":"5","larger_num":"20","correct_side":2,"subjID":"NicolasAlvarado18","gender":"0","age":"9","school":"4"},{"start_time":1552074623472,"click_time":1552074624320,"finger_time":1552074624121,"fix_duration":472.0453724110979,"trial":23,"RT":649,"MT":199,"sideResp":1,"stimulus":"img/500/equaldotanddens/L/13_Ratio_500_L_12_R_6.png","xmouse":[792,792,792,792,792,792,792,792,792,792,792,792,792,792,792,792,792,792,792,792,792,792,792,789,788,784,782,766,759,752,748,743,729,718,702,685,662,608,588,570,551,532,468],"ymouse":[524,524,524,523,523,523,523,523,523,523,523,523,523,523,523,523,523,523,523,523,523,523,523,522,522,521,521,519,517,515,511,507,490,478,459,435,403,327,299,268,234,200,91],"timestamp_mouse":[8,28,49,69,88,109,128,149,169,188,209,228,248,269,289,308,328,348,368,388,408,428,449,469,488,509,528,548,568,589,608,628,649,669,689,709,728,748,768,788,808,829,848],"xSR":741.5,"ySR":469.95,"xT1":424.9,"yT1":0,"xT2":1058.1,"yT2":0,"toosoon":0,"cond_shown":"equaldotanddens","ratio_trial":500,"smaller_num":"6","larger_num":"12","correct_side":1,"subjID":"NicolasAlvarado18","gender":"0","age":"9","school":"4"},{"start_time":1552074626778,"click_time":1552074627921,"finger_time":1552074627381,"fix_duration":1016.6763281694898,"trial":24,"RT":603,"MT":540,"sideResp":2,"stimulus":"img/750/equaldotsize/L/1_Ratio_750_L_20_R_15.png","xmouse":[778,778,778,778,778,778,778,778,778,778,778,778,778,778,778,778,778,778,777,776,776,776,776,776,776,776,776,776,776,777,780,785,800,810,820,824,828,849,865,882,907,925,958,974,990,1007,1028,1043,1061,1063,1065,1067,1068,1071,1072,1077,1082,1093],"ymouse":[499,499,499,499,499,499,499,499,499,499,499,499,499,499,499,499,499,499,498,498,497,496,495,495,494,494,494,493,486,479,469,457,426,407,393,384,377,358,345,332,305,285,248,228,212,200,188,177,158,149,138,134,131,128,126,122,114,84],"timestamp_mouse":[4,22,42,62,81,103,123,142,162,182,203,223,242,263,282,302,322,343,362,382,403,423,443,462,482,503,521,543,563,582,603,622,643,662,682,702,723,743,762,783,802,823,843,862,882,903,922,943,961,982,1002,1023,1041,1062,1081,1102,1123,1143],"xSR":741.5,"ySR":469.95,"xT1":424.9,"yT1":0,"xT2":1058.1,"yT2":0,"toosoon":0,"cond_shown":"equaldotsize","ratio_trial":750,"smaller_num":"15","larger_num":"20","correct_side":1,"subjID":"NicolasAlvarado18","gender":"0","age":"9","school":"4"},{"start_time":1552074629837,"click_time":1552074630800,"finger_time":1552074630540,"fix_duration":775.8040084180969,"trial":25,"RT":703,"MT":260,"sideResp":1,"stimulus":"img/250/equaldotanddens/L/14_Ratio_250_L_12_R_3.png","xmouse":[781,781,781,781,781,781,781,781,781,781,781,781,781,781,781,781,781,781,781,781,781,781,781,781,781,781,781,781,781,781,781,780,778,775,767,731,709,682,651,619,560,533,519,510,505,497,494,490,485],"ymouse":[516,516,516,516,516,516,516,516,516,516,516,516,516,516,516,516,516,516,516,516,516,516,516,516,516,516,516,516,516,516,516,517,516,514,506,464,440,406,362,315,230,192,172,154,138,120,112,104,93],"timestamp_mouse":[3,22,43,64,84,103,123,143,164,183,204,223,244,264,284,303,323,344,364,384,402,423,444,463,484,504,523,544,564,584,603,622,644,664,683,703,722,744,763,784,803,823,843,863,883,903,924,943,963],"xSR":741.5,"ySR":469.95,"xT1":424.9,"yT1":0,"xT2":1058.1,"yT2":0,"toosoon":0,"cond_shown":"equaldotanddens","ratio_trial":250,"smaller_num":"3","larger_num":"12","correct_side":1,"subjID":"NicolasAlvarado18","gender":"0","age":"9","school":"4"},{"start_time":1552074632676,"click_time":1552074633660,"finger_time":1552074633260,"fix_duration":735.5486744254238,"trial":26,"RT":584,"MT":400,"sideResp":2,"stimulus":"img/500/equaldotsize/R/3_Ratio_500_L_10_R_20.png","xmouse":[785,785,785,785,785,785,785,785,785,785,785,785,785,785,785,785,785,785,785,785,785,785,785,785,785,785,785,787,796,804,813,822,829,850,864,878,887,894,901,907,917,933,939,962,996,1010,1025,1045,1096,1113],"ymouse":[493,493,493,493,493,493,493,493,493,493,493,493,493,493,493,493,493,493,493,493,493,493,493,493,493,493,493,490,477,466,455,442,432,407,393,377,366,353,323,308,293,269,261,239,217,206,193,174,115,83],"timestamp_mouse":[4,26,45,64,85,104,124,144,164,185,204,224,245,264,284,304,324,345,364,385,405,423,445,465,485,503,524,544,565,584,604,624,644,664,684,703,725,745,764,784,804,824,844,864,884,905,924,944,964,984],"xSR":741.5,"ySR":469.95,"xT1":424.9,"yT1":0,"xT2":1058.1,"yT2":0,"toosoon":0,"cond_shown":"equaldotsize","ratio_trial":500,"smaller_num":"10","larger_num":"20","correct_side":2,"subjID":"NicolasAlvarado18","gender":"0","age":"9","school":"4"},{"start_time":1552074635913,"click_time":1552074636761,"finger_time":1552074636601,"fix_duration":530.2211592703394,"trial":27,"RT":688,"MT":160,"sideResp":2,"stimulus":"img/250/equaldotanddens/R/12_Ratio_250_L_5_R_20.png","xmouse":[780,780,780,780,780,780,780,780,780,780,780,780,780,780,780,780,780,780,780,780,780,780,780,780,780,780,780,780,781,784,787,801,811,825,841,873,953,1002,1025,1036,1043,1053,1059],"ymouse":[519,519,519,519,519,519,519,519,519,519,519,519,519,519,519,519,519,519,519,519,519,519,519,519,519,519,519,519,517,515,512,499,487,471,449,400,266,181,142,119,106,92,88],"timestamp_mouse":[7,27,48,68,87,108,128,147,168,188,207,228,248,268,288,307,328,348,368,387,408,428,448,466,488,508,528,548,568,588,607,627,647,668,688,707,727,747,767,788,807,828,847],"xSR":741.5,"ySR":469.95,"xT1":424.9,"yT1":0,"xT2":1058.1,"yT2":0,"toosoon":0,"cond_shown":"equaldotanddens","ratio_trial":250,"smaller_num":"5","larger_num":"20","correct_side":2,"subjID":"NicolasAlvarado18","gender":"0","age":"9","school":"4"},{"start_time":1552074638868,"click_time":1552074640040,"finger_time":1552074639400,"fix_duration":827.7130127274004,"trial":28,"RT":532,"MT":640,"sideResp":2,"stimulus":"img/250/randomdotsizeEA/R/9_Ratio_250_L_3_R_12.png","xmouse":[786,786,786,786,786,786,786,786,786,786,786,786,786,786,786,786,786,786,786,786,786,786,786,786,790,793,798,805,816,838,848,858,865,872,891,899,910,923,940,991,1009,1026,1042,1052,1066,1071,1075,1081,1086,1089,1089,1088,1088,1088,1088,1088,1087,1087,1087],"ymouse":[502,502,502,502,502,502,502,502,502,502,502,502,502,502,502,502,502,502,502,499,497,495,493,491,485,478,468,460,447,423,413,403,396,389,369,362,354,343,330,286,266,247,228,212,181,164,148,136,123,110,108,107,107,107,107,105,104,101,97],"timestamp_mouse":[12,32,52,71,91,111,132,151,172,190,212,232,251,272,291,312,332,351,371,391,411,431,451,471,492,511,532,551,572,592,610,631,651,671,690,711,731,751,771,791,812,831,851,870,891,911,931,951,971,991,1011,1031,1051,1071,1092,1110,1130,1152,1172],"xSR":741.5,"ySR":469.95,"xT1":424.9,"yT1":0,"xT2":1058.1,"yT2":0,"toosoon":0,"cond_shown":"randomdotsizeEA","ratio_trial":250,"smaller_num":"3","larger_num":"12","correct_side":2,"subjID":"NicolasAlvarado18","gender":"0","age":"9","school":"4"},{"start_time":1552074642275,"click_time":1552074643040,"finger_time":1552074642820,"fix_duration":1215.0326541535562,"trial":29,"RT":545,"MT":220,"sideResp":1,"stimulus":"img/250/equaldotanddens/L/3_Ratio_250_L_8_R_2.png","xmouse":[793,793,793,793,793,793,793,793,793,793,793,793,793,793,793,793,793,793,793,793,793,793,790,788,782,770,764,758,752,749,739,724,702,672,604,577,554,533,509],"ymouse":[506,506,506,506,506,506,506,506,506,506,506,506,506,506,506,506,506,506,506,506,506,503,501,498,494,483,477,469,459,451,425,391,345,296,198,157,126,100,71],"timestamp_mouse":[4,27,44,65,84,105,124,145,165,185,204,225,244,264,285,304,323,345,364,385,404,424,444,464,484,505,525,545,565,584,604,624,645,665,684,704,724,744,765],"xSR":741.5,"ySR":469.95,"xT1":424.9,"yT1":0,"xT2":1058.1,"yT2":0,"toosoon":0,"cond_shown":"equaldotanddens","ratio_trial":250,"smaller_num":"2","larger_num":"8","correct_side":1,"subjID":"NicolasAlvarado18","gender":"0","age":"9","school":"4"},{"start_time":1552074644720,"click_time":1552074646059,"finger_time":1552074645419,"fix_duration":421.9998191863498,"trial":30,"RT":699,"MT":640,"sideResp":1,"stimulus":"img/900/equaldotanddens/R/7_Ratio_900_L_9_R_10.png","xmouse":[781,781,781,781,781,781,781,781,781,781,781,781,781,781,781,781,781,781,781,781,781,781,781,781,781,781,781,781,781,782,784,790,811,816,831,838,842,847,856,866,875,885,891,895,897,898,898,896,894,893,889,883,831,777,710,659,631,602,594,587,579,565,560,550,540,530,521],"ymouse":[490,490,490,490,490,490,490,490,490,490,490,490,490,490,490,490,490,490,490,490,490,490,490,490,490,490,490,490,490,490,490,490,477,471,454,443,431,406,390,376,362,339,330,314,305,298,291,287,284,282,277,270,242,220,191,171,158,138,130,125,120,112,110,107,105,102,98],"timestamp_mouse":[19,40,59,79,100,120,139,160,180,199,218,239,259,279,299,320,339,360,380,400,419,439,459,479,499,519,539,559,579,599,620,639,659,679,699,719,740,759,779,798,819,840,859,879,900,919,940,958,979,999,1019,1039,1059,1079,1100,1120,1140,1159,1178,1199,1219,1240,1260,1280,1299,1320,1339],"xSR":741.5,"ySR":469.95,"xT1":424.9,"yT1":0,"xT2":1058.1,"yT2":0,"toosoon":0,"cond_shown":"equaldotanddens","ratio_trial":900,"smaller_num":"9","larger_num":"10","correct_side":2,"subjID":"NicolasAlvarado18","gender":"0","age":"9","school":"4"},{"start_time":1552074648188,"click_time":1552074649220,"finger_time":1552074648599,"fix_duration":1069.596325392261,"trial":31,"RT":411,"MT":621,"sideResp":2,"stimulus":"img/900/randomdotsizeEA/R/13_Ratio_900_L_18_R_20.png","xmouse":[783,783,783,784,785,786,786,787,789,789,789,791,794,796,804,809,814,818,823,834,841,849,858,870,901,918,930,937,942,951,955,962,970,976,997,1010,1019,1022,1023,1026,1029,1034,1040,1044,1047,1047,1047,1048,1048,1053,1057,1065],"ymouse":[505,505,505,505,505,505,505,505,505,505,505,505,504,504,499,496,491,488,483,470,463,454,439,416,363,331,306,289,278,261,253,240,226,211,172,155,140,133,129,117,107,98,85,78,74,74,74,74,74,74,73,71],"timestamp_mouse":[11,32,51,71,92,112,131,151,171,192,212,232,252,271,292,311,332,351,372,392,411,432,451,471,491,511,531,551,572,591,611,632,651,672,691,711,731,751,771,791,811,832,851,871,891,910,931,951,971,991,1012,1032],"xSR":741.5,"ySR":469.95,"xT1":424.9,"yT1":0,"xT2":1058.1,"yT2":0,"toosoon":0,"cond_shown":"randomdotsizeEA","ratio_trial":900,"smaller_num":"18","larger_num":"20","correct_side":2,"subjID":"NicolasAlvarado18","gender":"0","age":"9","school":"4"},{"start_time":1552074650591,"click_time":1552074651360,"finger_time":1552074651059,"fix_duration":250,"trial":32,"RT":468,"MT":301,"sideResp":1,"stimulus":"img/250/equaldotsize/L/5_Ratio_250_L_24_R_6.png","xmouse":[789,789,789,789,789,789,789,789,789,789,788,788,788,788,788,788,788,787,785,780,773,763,750,740,721,709,686,654,617,588,575,557,537,520,504,498,497,496,496],"ymouse":[504,504,504,504,504,504,504,504,504,504,504,504,504,504,504,504,504,503,501,496,491,484,476,466,443,421,390,353,305,258,236,209,180,156,122,111,104,100,99],"timestamp_mouse":[9,28,47,69,88,109,129,148,167,188,208,229,249,268,288,308,328,349,368,389,408,429,448,468,488,508,528,548,568,588,608,628,648,668,688,708,728,748,769],"xSR":741.5,"ySR":469.95,"xT1":424.9,"yT1":0,"xT2":1058.1,"yT2":0,"toosoon":0,"cond_shown":"equaldotsize","ratio_trial":250,"smaller_num":"6","larger_num":"24","correct_side":1,"subjID":"NicolasAlvarado18","gender":"0","age":"9","school":"4"},{"start_time":1552074654451,"click_time":1552074656419,"finger_time":1552074655999,"fix_duration":250,"trial":33,"RT":1548,"MT":420,"sideResp":2,"stimulus":"img/250/randomdotsizeEA/R/8_Ratio_250_L_1_R_4.png","xmouse":[808,808,808,808,808,808,808,808,808,808,808,808,808,808,808,808,808,808,808,808,808,808,808,808,808,808,808,808,808,808,808,808,808,808,808,808,808,808,808,808,808,808,808,804,803,801,798,796,795,795,795,795,795,795,795,795,795,795,795,795,795,795,795,795,795,795,795,795,794,793,793,793,793,792,792,792,793,802,816,847,891,949,973,985,996,1001,1007,1029,1041,1047,1048,1048,1048,1051,1056,1060,1066,1087,1096],"ymouse":[525,525,525,525,525,525,525,525,525,525,525,525,525,525,525,525,525,525,525,525,525,525,525,525,525,525,525,525,525,525,525,525,525,525,525,525,525,525,525,525,525,525,525,524,524,524,523,521,520,519,518,517,516,516,516,515,514,514,514,514,513,513,513,513,513,513,513,512,511,510,508,505,495,490,487,484,481,469,454,431,399,338,296,266,239,219,198,165,157,154,153,152,152,149,144,140,134,109,98],"timestamp_mouse":[8,29,49,68,88,107,129,148,169,189,208,228,248,269,289,309,329,349,369,389,408,429,448,467,488,508,529,549,568,589,609,629,649,669,688,708,729,749,767,788,809,828,848,868,887,908,929,949,968,989,1008,1028,1048,1069,1088,1109,1128,1148,1167,1189,1208,1228,1249,1268,1288,1308,1328,1348,1368,1388,1409,1428,1448,1469,1489,1509,1529,1548,1568,1589,1608,1629,1648,1669,1688,1708,1728,1748,1769,1788,1808,1828,1848,1868,1888,1908,1928,1948,1968],"xSR":741.5,"ySR":469.95,"xT1":424.9,"yT1":0,"xT2":1058.1,"yT2":0,"toosoon":0,"cond_shown":"randomdotsizeEA","ratio_trial":250,"smaller_num":"1","larger_num":"4","correct_side":2,"subjID":"NicolasAlvarado18","gender":"0","age":"9","school":"4"},{"start_time":1552074658758,"click_time":1552074659919,"finger_time":1552074659379,"fix_duration":1317.738110258643,"trial":34,"RT":621,"MT":540,"sideResp":1,"stimulus":"img/900/equaldotsize/R/12_Ratio_900_L_18_R_20.png","xmouse":[778,778,778,778,778,778,778,778,778,778,778,778,778,778,778,778,778,778,778,778,778,778,778,778,778,777,776,772,770,768,765,757,731,716,699,680,647,600,570,540,513,494,447,417,399,397,397,397,397,397,397,399,403,403,403,406,412,423,426],"ymouse":[506,506,506,506,506,506,506,506,506,506,506,506,506,506,506,506,506,506,506,506,506,506,506,506,504,501,496,489,484,480,474,465,427,408,384,361,316,254,221,193,170,153,111,86,69,56,51,49,49,49,48,48,48,48,48,48,48,48,47],"timestamp_mouse":[4,22,41,61,81,102,121,142,161,181,202,221,241,261,282,301,321,341,361,382,402,422,442,461,481,502,521,540,561,582,602,621,641,661,681,702,722,741,762,782,801,821,841,861,881,901,921,941,962,982,1001,1022,1041,1062,1081,1101,1121,1141,1161],"xSR":741.5,"ySR":469.95,"xT1":424.9,"yT1":0,"xT2":1058.1,"yT2":0,"toosoon":0,"cond_shown":"equaldotsize","ratio_trial":900,"smaller_num":"18","larger_num":"20","correct_side":2,"subjID":"NicolasAlvarado18","gender":"0","age":"9","school":"4"},{"start_time":1552074662197,"click_time":1552074663319,"finger_time":1552074662900,"fix_duration":1055.4802443545102,"trial":35,"RT":703,"MT":419,"sideResp":2,"stimulus":"img/900/randomdotsizeEA/R/6_Ratio_900_L_9_R_10.png","xmouse":[797,797,797,797,797,797,797,797,797,797,797,797,797,797,797,797,797,797,797,797,797,797,797,797,797,797,797,797,799,802,806,812,814,822,829,840,864,878,893,908,931,942,959,968,974,979,994,1002,1016,1024,1061,1070,1074,1074,1075,1077,1083],"ymouse":[531,531,531,531,531,531,531,531,531,531,531,531,531,531,531,531,531,531,531,531,531,531,531,531,531,531,531,530,522,518,513,502,499,489,477,461,422,399,371,343,284,261,236,225,218,210,194,185,174,167,149,142,139,136,132,121,72],"timestamp_mouse":[3,24,42,62,82,102,123,142,163,183,202,222,243,262,283,302,323,342,362,381,403,423,442,462,483,502,522,542,562,582,602,622,642,663,682,703,722,742,763,783,803,822,842,861,882,902,923,943,962,982,1002,1022,1042,1063,1082,1102,1122],"xSR":741.5,"ySR":469.95,"xT1":424.9,"yT1":0,"xT2":1058.1,"yT2":0,"toosoon":0,"cond_shown":"randomdotsizeEA","ratio_trial":900,"smaller_num":"9","larger_num":"10","correct_side":2,"subjID":"NicolasAlvarado18","gender":"0","age":"9","school":"4"},{"start_time":1552074665657,"click_time":1552074666700,"finger_time":1552074666280,"fix_duration":1357.0793331833875,"trial":36,"RT":623,"MT":420,"sideResp":1,"stimulus":"img/900/equaldotsize/L/4_Ratio_900_L_20_R_18.png","xmouse":[794,794,794,794,794,794,794,794,794,794,794,794,794,794,794,794,794,794,794,795,795,795,791,783,778,773,769,767,764,760,755,746,736,716,708,701,692,682,639,621,606,594,584,565,555,539,521,491,468,468,468,468,468],"ymouse":[518,518,518,518,518,518,518,518,518,518,518,518,518,518,518,518,518,518,518,518,518,516,516,514,512,511,509,504,489,480,470,460,447,420,408,395,377,354,262,233,210,196,186,173,168,162,152,134,112,108,103,100,96],"timestamp_mouse":[2,22,42,62,83,103,122,143,163,182,202,222,242,263,282,302,323,342,363,383,403,423,442,463,482,503,522,542,562,581,603,623,642,662,683,702,722,743,762,782,802,823,843,862,882,902,922,942,962,981,1003,1022,1043],"xSR":741.5,"ySR":469.95,"xT1":424.9,"yT1":0,"xT2":1058.1,"yT2":0,"toosoon":0,"cond_shown":"equaldotsize","ratio_trial":900,"smaller_num":"18","larger_num":"20","correct_side":1,"subjID":"NicolasAlvarado18","gender":"0","age":"9","school":"4"},{"start_time":1552074669130,"click_time":1552074670379,"finger_time":1552074669659,"fix_duration":1190.034734522623,"trial":37,"RT":529,"MT":720,"sideResp":2,"stimulus":"img/750/equaldotsize/R/12_Ratio_750_L_3_R_4.png","xmouse":[792,792,792,792,792,792,792,792,792,792,792,792,792,792,792,792,792,792,792,792,792,792,792,792,793,799,806,817,829,841,857,865,872,880,905,918,928,938,948,962,971,987,1015,1033,1040,1041,1041,1041,1040,1040,1046,1047,1047,1047,1047,1047,1047,1048,1048,1052,1056,1057,1059],"ymouse":[491,491,491,491,491,491,491,491,491,491,491,491,491,491,491,491,491,491,491,491,491,491,491,490,489,480,467,448,427,405,371,347,331,313,281,266,253,239,229,221,215,208,194,187,178,173,164,149,131,114,85,71,57,54,53,53,53,53,53,53,53,53,53],"timestamp_mouse":[12,29,49,70,90,109,129,150,170,189,209,228,250,270,289,309,329,349,369,388,409,430,449,469,489,509,529,550,569,590,610,630,650,670,690,710,730,750,770,789,809,829,849,870,890,910,929,949,969,989,1009,1029,1050,1070,1089,1109,1128,1149,1169,1190,1209,1229,1249],"xSR":741.5,"ySR":469.95,"xT1":424.9,"yT1":0,"xT2":1058.1,"yT2":0,"toosoon":0,"cond_shown":"equaldotsize","ratio_trial":750,"smaller_num":"3","larger_num":"4","correct_side":2,"subjID":"NicolasAlvarado18","gender":"0","age":"9","school":"4"},{"start_time":1552074672598,"click_time":1552074673539,"finger_time":1552074673100,"fix_duration":1178.1887227437044,"trial":38,"RT":502,"MT":439,"sideResp":2,"stimulus":"img/750/equaldotsize/R/15_Ratio_750_L_9_R_12.png","xmouse":[785,785,785,785,785,785,785,785,785,785,785,785,785,785,785,785,785,785,785,784,784,785,796,815,840,868,905,919,920,920,921,924,937,941,950,959,972,1009,1029,1045,1057,1069,1083,1087,1089,1092,1096,1104],"ymouse":[560,560,560,560,560,560,560,560,560,560,560,560,560,560,560,560,560,560,560,559,555,542,530,515,495,470,416,377,356,340,326,317,304,299,291,276,259,216,198,179,165,150,128,121,115,109,104,95],"timestamp_mouse":[1,22,42,61,81,102,121,141,162,181,201,222,241,262,281,301,322,341,361,382,402,422,442,461,481,502,522,541,560,581,602,622,641,662,682,701,721,742,762,781,802,822,841,861,882,901,923,941],"xSR":741.5,"ySR":469.95,"xT1":424.9,"yT1":0,"xT2":1058.1,"yT2":0,"toosoon":0,"cond_shown":"equaldotsize","ratio_trial":750,"smaller_num":"9","larger_num":"12","correct_side":2,"subjID":"NicolasAlvarado18","gender":"0","age":"9","school":"4"},{"start_time":1552074675999,"click_time":1552074676919,"finger_time":1552074676599,"fix_duration":938.5583341187584,"trial":39,"RT":600,"MT":320,"sideResp":2,"stimulus":"img/250/equaldotanddens/R/11_Ratio_250_L_3_R_12.png","xmouse":[802,802,802,802,802,802,802,802,802,802,802,802,802,802,802,802,802,802,802,802,802,802,802,802,802,802,802,802,810,820,832,842,857,908,980,1003,1066,1096,1101,1104,1106,1108,1110,1113,1115,1119,1122],"ymouse":[497,497,497,497,497,497,497,497,497,497,497,497,497,497,497,497,497,497,497,497,497,497,497,497,497,497,497,496,488,480,469,457,440,373,279,251,179,144,137,133,131,127,123,117,110,100,89],"timestamp_mouse":[3,20,41,61,81,99,121,141,160,180,200,220,241,259,279,301,320,340,361,380,401,421,440,460,480,500,521,540,560,581,600,621,640,660,681,700,719,740,761,780,801,821,840,860,881,900,919],"xSR":741.5,"ySR":469.95,"xT1":424.9,"yT1":0,"xT2":1058.1,"yT2":0,"toosoon":0,"cond_shown":"equaldotanddens","ratio_trial":250,"smaller_num":"3","larger_num":"12","correct_side":2,"subjID":"NicolasAlvarado18","gender":"0","age":"9","school":"4"},{"start_time":1552074680855,"click_time":1552074681899,"finger_time":1552074681259,"fix_duration":975.7270476423043,"trial":40,"RT":404,"MT":640,"sideResp":2,"stimulus":"img/900/randomdotsizeEA/R/5_Ratio_900_L_9_R_10.png","xmouse":[789,789,789,789,789,789,789,789,789,789,789,789,790,792,793,799,802,809,816,825,845,864,880,891,900,915,925,937,948,964,1003,1018,1028,1034,1036,1041,1042,1043,1045,1050,1054,1055,1055,1055,1055,1055,1057,1063,1068,1072,1078,1084,1092],"ymouse":[504,504,504,504,504,504,504,504,504,504,504,504,502,501,500,492,488,482,477,472,464,453,442,430,414,379,366,350,335,316,271,251,234,221,213,205,203,202,199,188,174,166,160,157,155,154,149,142,136,131,119,108,98],"timestamp_mouse":[4,23,45,64,85,103,125,145,164,184,205,224,244,265,284,304,325,345,364,384,404,424,445,465,485,504,525,544,564,585,604,625,645,664,684,704,725,744,764,785,804,824,844,865,884,904,925,944,965,984,1004,1024,1044],"xSR":741.5,"ySR":469.95,"xT1":424.9,"yT1":0,"xT2":1058.1,"yT2":0,"toosoon":0,"cond_shown":"randomdotsizeEA","ratio_trial":900,"smaller_num":"9","larger_num":"10","correct_side":2,"subjID":"NicolasAlvarado18","gender":"0","age":"9","school":"4"},{"start_time":1552074684732,"click_time":1552074685479,"finger_time":1552074685240,"fix_duration":330.9484066738915,"trial":41,"RT":508,"MT":239,"sideResp":1,"stimulus":"img/750/randomdotsizeEA/L/8_Ratio_750_L_4_R_3.png","xmouse":[784,784,784,784,784,784,784,784,784,784,784,784,784,784,784,784,784,784,784,784,784,784,783,775,760,721,678,666,661,659,656,650,645,632,625,588,535,523],"ymouse":[517,517,517,517,517,517,517,517,517,517,517,517,517,517,517,517,517,517,517,516,516,511,507,501,492,467,429,408,389,372,353,310,287,250,235,172,81,58],"timestamp_mouse":[8,26,47,67,87,106,128,147,167,187,207,227,248,268,287,307,327,347,367,388,407,428,447,467,488,508,527,547,568,587,607,627,647,666,686,707,727,747],"xSR":741.5,"ySR":469.95,"xT1":424.9,"yT1":0,"xT2":1058.1,"yT2":0,"toosoon":0,"cond_shown":"randomdotsizeEA","ratio_trial":750,"smaller_num":"3","larger_num":"4","correct_side":1,"subjID":"NicolasAlvarado18","gender":"0","age":"9","school":"4"},{"start_time":1552074688194,"click_time":1552074689360,"finger_time":1552074688919,"fix_duration":1353.4814506102127,"trial":42,"RT":725,"MT":441,"sideResp":2,"stimulus":"img/750/randomdotsizeEA/R/2_Ratio_750_L_6_R_8.png","xmouse":[791,791,791,791,791,791,791,791,791,791,791,791,791,791,791,791,790,790,790,789,789,789,789,788,788,788,788,788,786,786,786,785,785,785,788,797,811,827,878,896,914,922,929,946,952,962,972,980,1005,1023,1033,1041,1044,1045,1046,1047,1049,1054,1067],"ymouse":[522,522,522,522,522,522,522,522,522,522,522,522,522,522,522,522,522,522,522,519,518,517,516,515,514,514,514,513,510,509,508,506,504,500,487,475,459,441,383,355,317,295,277,248,237,226,215,205,174,148,131,118,111,109,106,104,100,90,66],"timestamp_mouse":[6,26,46,65,85,105,126,145,166,185,206,224,245,265,285,306,325,345,365,385,406,425,445,465,485,506,525,545,565,586,605,626,646,665,685,706,725,745,766,785,806,825,846,865,885,905,924,946,966,985,1005,1025,1045,1066,1086,1105,1126,1146,1166],"xSR":741.5,"ySR":469.95,"xT1":424.9,"yT1":0,"xT2":1058.1,"yT2":0,"toosoon":0,"cond_shown":"randomdotsizeEA","ratio_trial":750,"smaller_num":"6","larger_num":"8","correct_side":2,"subjID":"NicolasAlvarado18","gender":"0","age":"9","school":"4"},{"start_time":1552074690974,"click_time":1552074692019,"finger_time":1552074691579,"fix_duration":312.8070690919403,"trial":43,"RT":605,"MT":440,"sideResp":2,"stimulus":"img/750/randomdotsizeEA/L/1_Ratio_750_L_20_R_15.png","xmouse":[770,770,770,770,770,770,770,770,770,770,770,770,770,770,770,770,770,770,770,770,770,770,770,770,771,772,774,777,782,789,811,827,843,859,876,917,941,956,971,982,999,1002,1004,1006,1009,1016,1022,1027,1032,1038,1049,1055,1065],"ymouse":[498,498,498,498,498,498,498,498,498,498,498,498,498,498,498,498,498,498,498,498,498,498,498,498,498,498,498,496,490,475,445,428,403,379,352,291,258,238,218,201,170,164,159,154,149,131,118,107,100,91,75,69,62],"timestamp_mouse":[5,25,46,66,85,106,126,146,166,185,205,226,245,265,286,305,326,345,366,385,406,425,446,466,484,506,525,546,565,585,605,625,645,666,686,705,725,746,766,785,806,826,846,865,885,905,926,945,966,985,1005,1025,1045],"xSR":741.5,"ySR":469.95,"xT1":424.9,"yT1":0,"xT2":1058.1,"yT2":0,"toosoon":0,"cond_shown":"randomdotsizeEA","ratio_trial":750,"smaller_num":"15","larger_num":"20","correct_side":1,"subjID":"NicolasAlvarado18","gender":"0","age":"9","school":"4"},{"start_time":1552074693591,"click_time":1552074694540,"finger_time":1552074694020,"fix_duration":250,"trial":44,"RT":429,"MT":520,"sideResp":1,"stimulus":"img/900/equaldotsize/L/10_Ratio_900_L_20_R_18.png","xmouse":[797,797,797,797,797,797,797,797,797,797,797,797,797,797,797,797,796,795,792,778,764,744,719,697,671,665,660,657,654,646,635,622,610,598,592,590,589,584,552,495,483,481,481,480,479,477,472,464],"ymouse":[508,508,508,508,508,508,508,508,508,508,508,508,508,508,508,507,507,507,507,499,484,464,439,419,384,367,348,328,295,251,222,197,174,158,149,145,145,145,144,142,141,140,140,140,129,118,104,86],"timestamp_mouse":[9,28,48,69,88,108,128,148,169,189,208,229,249,269,288,308,329,349,369,389,408,429,449,469,488,508,529,549,568,588,609,628,647,667,688,709,729,749,769,789,809,829,849,869,888,908,929,949],"xSR":741.5,"ySR":469.95,"xT1":424.9,"yT1":0,"xT2":1058.1,"yT2":0,"toosoon":0,"cond_shown":"equaldotsize","ratio_trial":900,"smaller_num":"18","larger_num":"20","correct_side":1,"subjID":"NicolasAlvarado18","gender":"0","age":"9","school":"4"},{"start_time":1552074697448,"click_time":1552074698199,"finger_time":1552074697919,"fix_duration":486.11987519502856,"trial":45,"RT":471,"MT":280,"sideResp":2,"stimulus":"img/250/randomdotsizeEA/R/6_Ratio_250_L_6_R_24.png","xmouse":[780,780,780,779,779,779,779,779,779,779,779,779,779,779,779,779,779,780,784,791,800,806,818,828,840,852,886,913,941,963,994,1020,1066,1084,1092,1096,1100,1102],"ymouse":[498,498,498,499,499,499,499,499,499,499,499,499,499,499,499,499,499,499,498,494,488,482,471,462,451,436,389,355,323,290,255,219,154,128,117,110,103,94],"timestamp_mouse":[11,32,51,72,92,111,131,152,171,192,212,231,251,272,291,312,332,351,372,392,412,431,452,471,492,511,532,551,571,591,611,631,651,671,691,712,731,751],"xSR":741.5,"ySR":469.95,"xT1":424.9,"yT1":0,"xT2":1058.1,"yT2":0,"toosoon":0,"cond_shown":"randomdotsizeEA","ratio_trial":250,"smaller_num":"6","larger_num":"24","correct_side":2,"subjID":"NicolasAlvarado18","gender":"0","age":"9","school":"4"},{"start_time":1552074700519,"click_time":1552074701260,"finger_time":1552074700960,"fix_duration":1178.0515221835874,"trial":46,"RT":441,"MT":300,"sideResp":1,"stimulus":"img/250/equaldotanddens/L/3_Ratio_250_L_8_R_2.png","xmouse":[761,761,761,761,761,761,761,761,761,761,761,761,761,761,761,761,762,765,768,776,779,782,784,784,782,774,761,740,705,636,623,612,602,588,556,540,526,518],"ymouse":[511,511,511,511,511,511,511,511,511,511,511,511,511,511,511,511,511,510,506,495,486,476,466,454,427,410,389,363,331,265,242,220,199,173,121,99,82,70],"timestamp_mouse":[1,21,39,59,80,100,121,140,160,180,201,221,240,260,281,300,319,340,361,380,400,420,441,461,480,500,520,541,560,580,601,620,640,660,679,699,720,741],"xSR":741.5,"ySR":469.95,"xT1":424.9,"yT1":0,"xT2":1058.1,"yT2":0,"toosoon":0,"cond_shown":"equaldotanddens","ratio_trial":250,"smaller_num":"2","larger_num":"8","correct_side":1,"subjID":"NicolasAlvarado18","gender":"0","age":"9","school":"4"},{"start_time":1552074703140,"click_time":1552074704239,"finger_time":1552074703439,"fix_duration":460.4603350852755,"trial":47,"RT":299,"MT":800,"sideResp":2,"stimulus":"img/900/equaldotanddens/R/12_Ratio_900_L_18_R_20.png","xmouse":[775,775,775,775,775,775,776,780,782,783,785,788,794,797,807,810,826,838,848,853,857,860,864,869,869,869,876,936,1027,1119,1192,1222,1248,1251,1253,1256,1256,1256,1256,1256,1256,1256,1254,1243,1231,1211,1200,1192,1189,1187,1186,1184,1170,1162,1156],"ymouse":[494,495,495,495,495,495,495,494,492,491,487,485,475,470,453,448,426,413,398,390,384,372,357,317,290,257,210,162,140,115,93,75,43,25,10,2,2,2,2,2,2,2,2,4,6,11,13,18,21,21,23,24,28,30,34],"timestamp_mouse":[19,39,60,79,100,120,139,159,179,199,220,239,258,279,299,320,339,359,380,399,420,439,459,479,500,519,539,559,579,599,620,639,659,679,698,720,739,759,780,800,819,840,860,878,900,920,939,959,978,1000,1019,1039,1060,1079,1099],"xSR":741.5,"ySR":469.95,"xT1":424.9,"yT1":0,"xT2":1058.1,"yT2":0,"toosoon":0,"cond_shown":"equaldotanddens","ratio_trial":900,"smaller_num":"18","larger_num":"20","correct_side":2,"subjID":"NicolasAlvarado18","gender":"0","age":"9","school":"4"},{"start_time":1552074705835,"click_time":1552074706638,"finger_time":1552074706319,"fix_duration":374.0279173738751,"trial":48,"RT":484,"MT":319,"sideResp":1,"stimulus":"img/250/randomdotsizeEA/L/14_Ratio_250_L_12_R_3.png","xmouse":[794,794,794,794,794,794,794,794,794,794,794,794,794,794,794,794,794,792,788,778,773,768,757,746,722,710,697,686,676,652,642,631,621,597,588,583,578,576,564,539,513],"ymouse":[532,532,532,532,532,532,532,532,531,531,531,531,531,531,531,531,530,526,522,513,507,501,488,476,445,428,413,398,385,352,335,315,290,237,211,189,170,153,129,102,81],"timestamp_mouse":[4,24,45,65,84,104,125,145,165,184,204,224,244,263,285,304,324,345,365,384,405,425,445,464,484,504,524,545,565,584,604,625,645,665,684,704,725,744,765,783,803],"xSR":741.5,"ySR":469.95,"xT1":424.9,"yT1":0,"xT2":1058.1,"yT2":0,"toosoon":0,"cond_shown":"randomdotsizeEA","ratio_trial":250,"smaller_num":"3","larger_num":"12","correct_side":1,"subjID":"NicolasAlvarado18","gender":"0","age":"9","school":"4"},{"start_time":1552074708367,"click_time":1552074709159,"finger_time":1552074708799,"fix_duration":548.5135630201742,"trial":49,"RT":432,"MT":360,"sideResp":2,"stimulus":"img/750/equaldotanddens/L/1_Ratio_750_L_20_R_15.png","xmouse":[799,799,799,799,799,799,799,799,799,799,799,799,799,799,799,799,799,800,800,801,803,812,856,870,879,886,895,920,937,956,969,981,1005,1014,1021,1029,1036,1053,1057,1059],"ymouse":[507,507,507,507,507,507,507,507,507,507,507,507,507,507,507,507,507,507,503,495,485,465,397,371,350,332,313,274,253,233,215,192,122,100,84,75,67,57,54,52],"timestamp_mouse":[11,32,53,72,92,113,133,151,173,193,212,233,251,271,293,313,332,353,373,392,412,432,452,473,492,512,533,552,573,593,613,632,652,672,692,713,733,751,772,792],"xSR":741.5,"ySR":469.95,"xT1":424.9,"yT1":0,"xT2":1058.1,"yT2":0,"toosoon":0,"cond_shown":"equaldotanddens","ratio_trial":750,"smaller_num":"15","larger_num":"20","correct_side":1,"subjID":"NicolasAlvarado18","gender":"0","age":"9","school":"4"},{"start_time":1552074713527,"click_time":1552074714760,"finger_time":1552074714039,"fix_duration":1167.9177387386467,"trial":50,"RT":512,"MT":721,"sideResp":1,"stimulus":"img/500/equaldotsize/L/5_Ratio_500_L_4_R_2.png","xmouse":[803,803,803,803,803,803,803,803,803,803,803,803,803,803,803,803,803,803,803,803,803,802,805,814,837,842,845,850,865,948,990,1026,1059,1067,1068,1059,1053,1047,1045,1044,1043,1041,1039,1037,1036,1036,1036,1036,1035,1028,1016,996,958,928,899,834,798,760,707,583,499,450],"ymouse":[508,508,508,508,508,508,508,508,508,508,508,508,508,508,508,508,508,508,508,508,508,506,499,491,476,471,469,465,458,421,397,373,338,321,283,267,257,250,245,239,234,220,208,198,189,188,188,188,187,187,187,187,187,187,187,187,187,187,185,152,120,98],"timestamp_mouse":[15,32,52,71,93,113,132,151,172,192,212,233,252,273,292,313,332,352,373,391,411,432,452,472,492,512,533,553,573,593,612,632,652,671,692,712,732,752,772,793,812,832,852,873,892,912,932,953,972,992,1012,1032,1052,1073,1091,1111,1132,1152,1173,1193,1212,1233],"xSR":741.5,"ySR":469.95,"xT1":424.9,"yT1":0,"xT2":1058.1,"yT2":0,"toosoon":0,"cond_shown":"equaldotsize","ratio_trial":500,"smaller_num":"2","larger_num":"4","correct_side":1,"subjID":"NicolasAlvarado18","gender":"0","age":"9","school":"4"},{"start_time":1552074717343,"click_time":1552074718059,"finger_time":1552074717699,"fix_duration":1262.5198841488887,"trial":51,"RT":356,"MT":360,"sideResp":1,"stimulus":"img/250/equaldotsize/L/15_Ratio_250_L_12_R_3.png","xmouse":[793,793,793,793,793,793,793,793,793,793,792,790,790,790,789,788,783,764,732,715,708,696,676,650,613,608,605,604,598,583,577,567,558,551,532,516],"ymouse":[508,508,508,508,508,508,508,508,508,508,508,508,508,508,508,508,494,453,383,344,335,330,325,317,299,289,271,262,230,177,154,132,112,96,79,75],"timestamp_mouse":[15,37,56,76,96,117,137,157,177,197,216,236,256,276,297,317,336,356,377,396,416,436,456,476,496,516,536,556,576,596,616,636,655,676,696,716],"xSR":741.5,"ySR":469.95,"xT1":424.9,"yT1":0,"xT2":1058.1,"yT2":0,"toosoon":0,"cond_shown":"equaldotsize","ratio_trial":250,"smaller_num":"3","larger_num":"12","correct_side":1,"subjID":"NicolasAlvarado18","gender":"0","age":"9","school":"4"},{"start_time":1552074719552,"click_time":1552074720660,"finger_time":1552074720320,"fix_duration":250,"trial":52,"RT":768,"MT":340,"sideResp":1,"stimulus":"img/250/randomdotsizeEA/L/5_Ratio_250_L_24_R_6.png","xmouse":[807,807,807,807,807,807,807,807,807,807,807,807,807,807,807,807,807,807,807,807,807,807,807,807,805,795,786,778,774,769,769,768,768,768,767,765,759,744,728,684,665,647,633,621,601,589,579,570,560,548,545,541,536,529,509,498],"ymouse":[503,503,503,503,503,503,503,503,503,503,503,503,503,503,503,503,503,503,503,503,503,503,503,503,503,503,503,503,503,503,503,503,503,503,503,501,495,478,462,419,391,359,333,306,263,242,225,209,190,170,162,154,145,136,112,98],"timestamp_mouse":[6,27,47,67,87,107,128,148,166,187,207,227,247,268,287,306,327,347,367,387,408,428,448,467,487,507,528,548,567,587,607,627,647,668,686,708,728,747,768,787,807,826,847,866,887,906,927,946,966,986,1008,1027,1048,1067,1088,1108],"xSR":741.5,"ySR":469.95,"xT1":424.9,"yT1":0,"xT2":1058.1,"yT2":0,"toosoon":0,"cond_shown":"randomdotsizeEA","ratio_trial":250,"smaller_num":"6","larger_num":"24","correct_side":1,"subjID":"NicolasAlvarado18","gender":"0","age":"9","school":"4"},{"start_time":1552074722570,"click_time":1552074723459,"finger_time":1552074723100,"fix_duration":250,"trial":53,"RT":530,"MT":359,"sideResp":1,"stimulus":"img/500/equaldotanddens/L/11_Ratio_500_L_12_R_6.png","xmouse":[790,790,790,790,790,790,790,790,790,790,790,790,790,790,790,790,790,790,790,790,790,790,789,787,784,780,773,768,747,728,698,661,630,586,576,573,570,570,569,567,567,564,556,536,501],"ymouse":[506,506,506,506,506,506,506,506,506,506,506,506,506,506,506,506,506,506,506,506,506,506,506,505,496,483,467,458,431,409,374,324,271,185,148,131,116,105,97,90,86,83,78,72,64],"timestamp_mouse":[8,29,49,69,89,109,130,149,169,190,209,230,249,270,290,309,330,350,369,390,408,430,450,469,490,509,530,550,570,589,609,629,649,670,689,709,729,749,769,790,810,830,849,869,889],"xSR":741.5,"ySR":469.95,"xT1":424.9,"yT1":0,"xT2":1058.1,"yT2":0,"toosoon":0,"cond_shown":"equaldotanddens","ratio_trial":500,"smaller_num":"6","larger_num":"12","correct_side":1,"subjID":"NicolasAlvarado18","gender":"0","age":"9","school":"4"},{"start_time":1552074725028,"click_time":1552074726159,"finger_time":1552074725680,"fix_duration":727.5263936146597,"trial":54,"RT":652,"MT":479,"sideResp":1,"stimulus":"img/900/equaldotsize/L/1_Ratio_900_L_10_R_9.png","xmouse":[766,766,766,766,766,766,766,766,766,766,766,766,766,766,766,766,766,766,766,766,766,766,766,766,766,766,767,769,770,772,775,807,827,844,854,860,860,860,860,860,855,843,838,833,826,815,749,698,664,651,649,656,646,625,584,543,495],"ymouse":[513,513,513,513,513,513,513,513,513,513,513,513,513,513,513,513,513,513,513,513,513,513,513,513,513,513,513,513,513,512,511,485,464,447,433,425,423,423,423,422,422,422,422,422,421,419,379,332,276,225,194,133,119,108,97,92,85],"timestamp_mouse":[11,31,51,71,91,112,131,152,171,192,212,232,252,270,292,311,331,351,372,390,411,431,452,470,492,511,532,552,572,592,611,631,652,671,692,711,731,752,771,791,811,830,852,871,891,912,931,951,971,990,1011,1031,1052,1072,1091,1111,1131],"xSR":741.5,"ySR":469.95,"xT1":424.9,"yT1":0,"xT2":1058.1,"yT2":0,"toosoon":0,"cond_shown":"equaldotsize","ratio_trial":900,"smaller_num":"9","larger_num":"10","correct_side":1,"subjID":"NicolasAlvarado18","gender":"0","age":"9","school":"4"},{"start_time":1552074727587,"click_time":1552074729059,"finger_time":1552074728559,"fix_duration":326.64108688392145,"trial":55,"RT":972,"MT":500,"sideResp":1,"stimulus":"img/900/randomdotsizeEA/L/10_Ratio_900_L_20_R_18.png","xmouse":[776,776,776,776,776,776,776,776,776,776,776,776,776,776,776,776,776,776,776,776,776,776,776,776,776,776,776,776,776,774,772,770,768,766,765,764,763,762,759,758,757,757,757,756,756,756,755,752,742,737,731,726,715,689,670,648,631,622,604,591,570,542,534,534,535,536,537,540,542,542,540,533,526,519],"ymouse":[520,520,520,520,520,520,520,520,520,520,520,520,520,520,520,520,520,520,520,520,520,520,520,520,520,520,520,520,519,519,519,518,518,517,517,517,517,517,516,516,516,516,516,516,515,510,506,494,466,449,431,413,385,350,332,315,301,291,260,242,218,185,171,161,160,159,156,152,131,114,93,71,59,53],"timestamp_mouse":[12,32,52,71,92,112,131,152,173,192,212,233,253,272,291,312,332,353,372,392,413,431,452,472,493,511,533,553,573,592,613,633,652,673,692,713,733,753,773,792,812,833,852,871,892,912,933,953,972,992,1013,1032,1052,1072,1093,1112,1132,1153,1171,1192,1212,1232,1253,1272,1292,1313,1333,1353,1372,1392,1412,1431,1451,1472],"xSR":741.5,"ySR":469.95,"xT1":424.9,"yT1":0,"xT2":1058.1,"yT2":0,"toosoon":0,"cond_shown":"randomdotsizeEA","ratio_trial":900,"smaller_num":"18","larger_num":"20","correct_side":1,"subjID":"NicolasAlvarado18","gender":"0","age":"9","school":"4"},{"start_time":1552074731045,"click_time":1552074732019,"finger_time":1552074731800,"fix_duration":726.2531857034546,"trial":56,"RT":755,"MT":219,"sideResp":2,"stimulus":"img/900/equaldotanddens/R/6_Ratio_900_L_9_R_10.png","xmouse":[789,789,789,789,789,789,789,789,789,789,789,789,789,789,789,789,789,789,789,789,789,789,789,789,789,789,789,789,789,789,789,789,789,789,790,791,806,836,875,916,984,1001,1012,1021,1026,1035,1050,1058,1065],"ymouse":[520,520,520,520,520,520,520,520,520,520,520,520,520,520,520,520,520,520,520,520,520,520,520,520,520,520,520,520,520,520,520,520,520,520,515,513,488,442,382,320,193,151,128,115,111,106,99,94,88],"timestamp_mouse":[13,35,53,74,95,115,135,155,174,194,214,235,255,274,295,314,335,355,374,395,414,435,455,475,494,515,535,554,575,594,613,634,655,674,694,714,735,755,775,794,815,833,854,874,894,915,934,955,974],"xSR":741.5,"ySR":469.95,"xT1":424.9,"yT1":0,"xT2":1058.1,"yT2":0,"toosoon":0,"cond_shown":"equaldotanddens","ratio_trial":900,"smaller_num":"9","larger_num":"10","correct_side":2,"subjID":"NicolasAlvarado18","gender":"0","age":"9","school":"4"},{"start_time":1552074733230,"click_time":1552074734460,"finger_time":1552074733919,"fix_duration":250,"trial":57,"RT":689,"MT":541,"sideResp":2,"stimulus":"img/500/equaldotsize/R/6_Ratio_500_L_9_R_18.png","xmouse":[781,781,781,781,781,781,781,781,781,781,781,781,781,781,781,781,781,781,781,781,781,780,780,780,780,780,780,781,783,784,788,794,799,806,818,832,854,899,908,914,920,923,943,954,964,976,987,1005,1008,1011,1016,1030,1059,1064,1065,1065,1065,1065,1065,1066,1068,1071],"ymouse":[507,507,507,507,507,507,507,507,507,507,507,507,507,507,507,507,507,507,507,507,507,507,507,507,507,507,507,507,506,504,501,494,488,475,458,437,411,357,343,333,323,313,283,271,258,242,227,203,198,195,189,173,132,118,111,108,108,108,108,106,101,92],"timestamp_mouse":[8,29,50,69,89,109,130,149,168,189,209,229,249,269,289,309,329,349,369,390,408,430,450,470,488,508,530,549,569,589,610,630,650,669,689,709,730,749,769,789,809,830,849,868,889,909,930,949,969,989,1009,1030,1049,1069,1089,1108,1129,1149,1170,1189,1210,1230],"xSR":741.5,"ySR":469.95,"xT1":424.9,"yT1":0,"xT2":1058.1,"yT2":0,"toosoon":0,"cond_shown":"equaldotsize","ratio_trial":500,"smaller_num":"9","larger_num":"18","correct_side":2,"subjID":"NicolasAlvarado18","gender":"0","age":"9","school":"4"},{"start_time":1552074736770,"click_time":1552074737579,"finger_time":1552074737378,"fix_duration":1429.9531284940235,"trial":58,"RT":608,"MT":201,"sideResp":2,"stimulus":"img/250/equaldotanddens/R/12_Ratio_250_L_5_R_20.png","xmouse":[755,755,755,755,755,755,755,755,755,755,755,755,755,755,755,755,755,755,755,755,755,755,755,755,755,755,756,758,768,781,825,874,918,957,991,1040,1046,1050,1052,1055,1060],"ymouse":[505,505,505,505,505,505,505,505,505,505,505,505,505,505,505,505,505,505,505,505,505,505,505,505,505,505,505,505,497,486,445,403,363,317,261,164,136,115,97,78,55],"timestamp_mouse":[9,29,49,70,90,109,130,149,169,190,210,228,250,270,289,310,328,350,370,389,409,429,450,470,489,509,529,549,569,589,608,629,649,669,690,709,729,749,769,789,809],"xSR":741.5,"ySR":469.95,"xT1":424.9,"yT1":0,"xT2":1058.1,"yT2":0,"toosoon":0,"cond_shown":"equaldotanddens","ratio_trial":250,"smaller_num":"5","larger_num":"20","correct_side":2,"subjID":"NicolasAlvarado18","gender":"0","age":"9","school":"4"},{"start_time":1552074740099,"click_time":1552074740818,"finger_time":1552074740580,"fix_duration":1179.9082510888938,"trial":59,"RT":481,"MT":238,"sideResp":1,"stimulus":"img/250/equaldotsize/L/7_Ratio_250_L_8_R_2.png","xmouse":[783,783,783,783,783,783,783,783,783,783,783,783,783,783,783,783,783,783,783,781,778,771,760,742,684,657,640,626,616,598,579,564,550,530,526,524],"ymouse":[505,505,505,505,505,505,505,505,505,505,505,505,505,505,505,505,505,505,505,505,502,494,478,453,377,350,328,307,282,212,147,105,73,28,16,12],"timestamp_mouse":[20,40,61,80,101,120,140,161,181,200,221,239,261,280,300,320,341,361,380,400,420,440,461,481,501,520,541,559,581,601,621,640,660,681,701,719],"xSR":741.5,"ySR":469.95,"xT1":424.9,"yT1":0,"xT2":1058.1,"yT2":0,"toosoon":0,"cond_shown":"equaldotsize","ratio_trial":250,"smaller_num":"2","larger_num":"8","correct_side":1,"subjID":"NicolasAlvarado18","gender":"0","age":"9","school":"4"},{"start_time":1552074742126,"click_time":1552074743200,"finger_time":1552074742959,"fix_duration":285.212347728836,"trial":60,"RT":833,"MT":241,"sideResp":1,"stimulus":"img/500/randomdotsizeEA/L/11_Ratio_500_L_12_R_6.png","xmouse":[777,777,777,777,777,777,777,777,777,777,777,777,777,777,777,777,777,777,777,777,777,777,777,777,777,777,777,777,777,777,777,777,777,777,777,777,774,772,762,758,750,741,729,696,686,674,657,634,576,561,552,542,533,515],"ymouse":[521,521,521,521,521,521,521,521,521,521,521,521,521,521,521,521,521,521,521,521,521,521,521,521,521,521,521,521,521,521,521,521,521,521,521,521,521,521,514,508,495,475,448,385,349,313,265,223,127,96,76,56,40,18],"timestamp_mouse":[13,33,53,73,93,113,133,154,174,193,213,233,253,273,294,313,334,353,374,393,414,434,454,474,494,514,533,552,574,592,614,633,654,674,693,712,734,754,773,793,814,833,853,873,894,913,934,955,973,993,1013,1033,1054,1074],"xSR":741.5,"ySR":469.95,"xT1":424.9,"yT1":0,"xT2":1058.1,"yT2":0,"toosoon":0,"cond_shown":"randomdotsizeEA","ratio_trial":500,"smaller_num":"6","larger_num":"12","correct_side":1,"subjID":"NicolasAlvarado18","gender":"0","age":"9","school":"4"},{"start_time":1552074745763,"click_time":1552074746879,"finger_time":1552074746440,"fix_duration":1242.6599584775547,"trial":61,"RT":677,"MT":439,"sideResp":2,"stimulus":"img/500/randomdotsizeEA/L/7_Ratio_500_L_10_R_5.png","xmouse":[786,786,786,786,786,786,786,786,786,786,786,786,786,786,786,786,786,786,786,786,786,786,786,786,786,786,786,786,786,786,787,794,810,838,890,917,941,985,1002,1014,1020,1030,1038,1048,1057,1072,1084,1085,1085,1085,1085,1085,1087,1089,1091,1093],"ymouse":[494,494,494,494,494,494,494,494,494,494,494,494,494,494,494,494,494,494,494,494,494,494,494,494,494,494,494,494,494,494,494,488,474,452,409,384,364,327,312,299,290,270,256,240,222,190,156,146,140,136,132,122,117,112,103,98],"timestamp_mouse":[16,39,56,76,95,115,136,157,177,195,216,237,255,277,296,317,336,357,377,395,416,436,456,477,495,517,535,557,576,596,617,635,657,677,697,717,736,756,776,797,817,835,856,876,896,917,936,956,977,997,1016,1036,1055,1076,1096,1116],"xSR":741.5,"ySR":469.95,"xT1":424.9,"yT1":0,"xT2":1058.1,"yT2":0,"toosoon":0,"cond_shown":"randomdotsizeEA","ratio_trial":500,"smaller_num":"5","larger_num":"10","correct_side":1,"subjID":"NicolasAlvarado18","gender":"0","age":"9","school":"4"},{"start_time":1552074748212,"click_time":1552074749479,"finger_time":1552074748939,"fix_duration":250,"trial":62,"RT":727,"MT":540,"sideResp":1,"stimulus":"img/750/equaldotanddens/R/15_Ratio_750_L_9_R_12.png","xmouse":[785,785,785,785,785,785,785,785,785,785,785,785,785,785,785,785,785,785,785,785,785,785,785,785,785,785,785,785,785,785,785,785,785,784,780,775,769,758,744,729,705,698,692,681,665,622,584,520,458,418,399,397,395,394,394,393,393,393,394,402,405,415,422,427],"ymouse":[508,508,508,508,508,508,508,508,508,508,508,508,508,508,508,508,508,508,508,508,508,508,508,508,508,508,508,508,508,508,508,508,508,508,494,475,455,431,409,390,351,338,323,308,291,260,239,213,187,163,132,118,105,95,89,86,85,85,84,80,77,73,68,65],"timestamp_mouse":[6,27,47,67,87,107,126,148,167,188,208,228,248,266,288,308,328,348,368,387,406,427,448,467,487,506,528,548,568,586,607,628,647,667,687,707,727,747,768,788,808,827,846,867,887,908,928,947,967,988,1007,1027,1047,1067,1087,1108,1128,1148,1167,1188,1207,1227,1247,1267],"xSR":741.5,"ySR":469.95,"xT1":424.9,"yT1":0,"xT2":1058.1,"yT2":0,"toosoon":0,"cond_shown":"equaldotanddens","ratio_trial":750,"smaller_num":"9","larger_num":"12","correct_side":2,"subjID":"NicolasAlvarado18","gender":"0","age":"9","school":"4"},{"start_time":1552074750881,"click_time":1552074751699,"finger_time":1552074751460,"fix_duration":360.9439705519867,"trial":63,"RT":579,"MT":239,"sideResp":2,"stimulus":"img/900/equaldotanddens/R/11_Ratio_900_L_18_R_20.png","xmouse":[782,782,782,782,782,782,782,782,782,782,782,782,782,782,782,782,782,782,782,782,782,782,782,782,782,783,785,787,791,794,801,816,830,848,870,890,952,984,1033,1073,1099],"ymouse":[504,504,504,504,504,504,504,504,504,504,504,504,504,504,504,504,502,499,496,493,491,487,486,484,482,479,474,470,466,460,453,428,408,385,360,336,253,206,152,108,82],"timestamp_mouse":[24,39,58,78,98,118,138,158,178,199,218,239,259,278,298,318,339,357,378,399,418,439,458,479,499,519,539,558,579,599,618,638,658,678,698,719,738,758,778,798,818],"xSR":741.5,"ySR":469.95,"xT1":424.9,"yT1":0,"xT2":1058.1,"yT2":0,"toosoon":0,"cond_shown":"equaldotanddens","ratio_trial":900,"smaller_num":"18","larger_num":"20","correct_side":2,"subjID":"NicolasAlvarado18","gender":"0","age":"9","school":"4"},{"start_time":1552074754569,"click_time":1552074757520,"finger_time":1552074756960,"fix_duration":250,"trial":64,"RT":2391,"MT":560,"sideResp":2,"stimulus":"img/500/equaldotsize/L/8_Ratio_500_L_8_R_4.png","xmouse":[799,799,799,799,799,799,799,799,799,799,799,799,799,799,799,799,799,799,799,799,799,799,799,799,799,799,799,799,799,799,799,799,799,799,799,799,800,800,800,800,800,800,800,800,800,800,800,800,800,800,800,800,800,800,800,800,800,800,800,800,800,800,800,800,800,800,800,800,800,800,800,800,800,800,800,800,800,800,800,800,800,800,800,800,800,800,800,800,800,800,800,800,800,800,800,800,800,800,800,800,800,800,800,800,800,800,800,800,800,800,800,800,800,800,800,800,800,803,818,845,886,904,930,940,952,967,982,996,1017,1025,1038,1044,1053,1068,1072,1077,1077,1079,1081,1081,1081,1081,1081,1081,1081,1082,1082,1085],"ymouse":[496,496,496,496,496,496,496,496,496,496,496,496,496,496,496,496,496,496,496,496,496,496,496,496,496,496,496,496,496,496,496,496,496,496,496,496,495,494,491,491,491,491,491,491,491,491,491,491,491,491,491,491,491,491,491,491,491,491,491,491,491,491,491,491,491,491,491,491,491,491,491,491,491,491,491,491,491,491,491,491,491,491,491,491,491,491,491,491,491,491,491,491,491,491,491,491,491,491,491,491,491,491,491,491,491,491,491,491,491,491,491,491,491,491,491,491,491,487,477,458,428,412,372,352,334,319,306,293,267,252,225,207,189,154,143,136,131,126,114,111,108,106,106,106,105,105,104,95],"timestamp_mouse":[10,31,50,69,90,110,130,150,170,191,210,231,249,271,290,311,329,350,370,390,411,430,450,470,491,511,531,550,570,590,610,630,650,670,690,710,730,750,769,791,811,830,850,871,889,911,930,950,970,990,1010,1030,1050,1069,1091,1110,1131,1150,1170,1191,1210,1230,1250,1271,1290,1310,1331,1350,1370,1391,1410,1431,1450,1471,1490,1511,1530,1550,1571,1590,1611,1629,1650,1670,1691,1709,1730,1750,1770,1790,1810,1830,1850,1870,1890,1910,1930,1950,1970,1990,2010,2031,2050,2070,2091,2110,2131,2150,2170,2191,2210,2230,2250,2271,2291,2310,2330,2350,2371,2391,2409,2430,2451,2470,2491,2510,2531,2550,2571,2590,2610,2630,2650,2671,2691,2710,2730,2751,2771,2790,2809,2829,2851,2870,2890,2911,2930,2951],"xSR":741.5,"ySR":469.95,"xT1":424.9,"yT1":0,"xT2":1058.1,"yT2":0,"toosoon":0,"cond_shown":"equaldotsize","ratio_trial":500,"smaller_num":"4","larger_num":"8","correct_side":1,"subjID":"NicolasAlvarado18","gender":"0","age":"9","school":"4"},{"start_time":1552074758914,"click_time":1552074759959,"finger_time":1552074759718,"fix_duration":353.7639191706601,"trial":65,"RT":804,"MT":241,"sideResp":1,"stimulus":"img/750/equaldotsize/L/9_Ratio_750_L_4_R_3.png","xmouse":[798,798,798,798,798,798,798,798,798,798,798,798,798,798,798,798,798,798,798,798,798,798,798,798,798,798,798,798,798,798,797,797,797,797,797,796,794,791,787,781,773,742,728,708,682,622,604,599,599,597,592,543,520],"ymouse":[507,507,507,507,507,507,507,507,507,507,507,507,507,507,507,507,507,507,507,507,507,507,507,507,507,507,507,507,506,505,505,503,503,501,500,497,492,485,479,471,457,408,366,320,270,180,153,137,126,117,105,56,36],"timestamp_mouse":[5,24,45,66,84,104,125,144,165,186,205,224,245,264,286,306,325,345,365,385,405,425,445,466,484,504,524,546,564,585,604,625,644,664,684,704,725,745,764,784,804,824,844,865,885,905,924,944,965,985,1004,1024,1045],"xSR":741.5,"ySR":469.95,"xT1":424.9,"yT1":0,"xT2":1058.1,"yT2":0,"toosoon":0,"cond_shown":"equaldotsize","ratio_trial":750,"smaller_num":"3","larger_num":"4","correct_side":1,"subjID":"NicolasAlvarado18","gender":"0","age":"9","school":"4"},{"start_time":1552074762726,"click_time":1552074764039,"finger_time":1552074763459,"fix_duration":1286.9635639828693,"trial":66,"RT":733,"MT":580,"sideResp":1,"stimulus":"img/750/randomdotsizeEA/R/4_Ratio_750_L_15_R_20.png","xmouse":[780,780,780,780,780,780,780,780,780,780,780,780,780,780,780,780,780,780,780,780,780,780,780,780,780,781,781,781,781,781,781,781,781,781,780,773,762,754,739,730,721,704,694,678,661,628,617,607,596,582,573,568,557,546,539,534,523,515,514,513,512,512,512,512,512,512],"ymouse":[512,512,512,512,512,512,512,512,512,512,512,512,512,512,512,512,512,512,512,512,512,512,512,512,512,512,512,512,512,512,512,512,512,512,503,481,459,437,403,383,362,319,299,275,252,212,194,174,153,134,129,128,128,126,125,123,119,114,113,111,109,109,109,109,108,95],"timestamp_mouse":[16,32,53,74,92,112,133,152,173,194,214,232,253,274,292,313,332,353,374,392,412,432,454,472,492,512,533,552,572,593,613,632,653,673,692,712,733,753,772,793,812,832,853,873,892,913,933,953,973,992,1013,1032,1052,1073,1093,1113,1134,1154,1172,1192,1212,1232,1254,1274,1293,1313],"xSR":741.5,"ySR":469.95,"xT1":424.9,"yT1":0,"xT2":1058.1,"yT2":0,"toosoon":0,"cond_shown":"randomdotsizeEA","ratio_trial":750,"smaller_num":"15","larger_num":"20","correct_side":2,"subjID":"NicolasAlvarado18","gender":"0","age":"9","school":"4"},{"start_time":1552074766290,"click_time":1552074767040,"finger_time":1552074766800,"fix_duration":1209.542363180733,"trial":67,"RT":510,"MT":240,"sideResp":2,"stimulus":"img/900/equaldotsize/L/8_Ratio_900_L_20_R_18.png","xmouse":[786,786,786,786,786,786,786,786,786,786,786,786,786,786,786,786,786,786,786,787,787,787,787,787,788,790,793,796,802,811,826,849,892,986,1036,1085,1126,1156],"ymouse":[501,501,501,501,501,501,501,501,501,501,501,501,501,501,501,501,501,501,501,500,499,497,494,481,471,462,453,445,432,418,398,374,338,257,207,161,123,96],"timestamp_mouse":[9,31,49,69,89,109,130,149,169,189,210,229,248,269,289,309,329,349,368,389,409,428,449,468,489,510,529,549,568,589,608,628,648,668,689,709,728,749],"xSR":741.5,"ySR":469.95,"xT1":424.9,"yT1":0,"xT2":1058.1,"yT2":0,"toosoon":0,"cond_shown":"equaldotsize","ratio_trial":900,"smaller_num":"18","larger_num":"20","correct_side":1,"subjID":"NicolasAlvarado18","gender":"0","age":"9","school":"4"},{"start_time":1552074768741,"click_time":1552074769358,"finger_time":1552074769159,"fix_duration":401.3518665778254,"trial":68,"RT":418,"MT":199,"sideResp":2,"stimulus":"img/900/equaldotanddens/R/11_Ratio_900_L_18_R_20.png","xmouse":[798,798,798,798,798,798,798,798,798,798,798,798,798,798,798,798,798,798,798,804,820,837,862,890,924,1002,1021,1036,1044,1050,1068],"ymouse":[494,494,494,494,494,494,494,494,494,494,494,494,494,494,494,494,494,494,494,485,462,439,401,365,322,191,141,106,81,62,15],"timestamp_mouse":[20,37,57,78,98,118,138,157,177,197,218,238,258,277,298,317,338,358,379,399,418,437,458,477,497,518,538,557,579,599,617],"xSR":741.5,"ySR":469.95,"xT1":424.9,"yT1":0,"xT2":1058.1,"yT2":0,"toosoon":0,"cond_shown":"equaldotanddens","ratio_trial":900,"smaller_num":"18","larger_num":"20","correct_side":2,"subjID":"NicolasAlvarado18","gender":"0","age":"9","school":"4"},{"start_time":1552074773190,"click_time":1552074774240,"finger_time":1552074773739,"fix_duration":1311.8827872282561,"trial":69,"RT":549,"MT":501,"sideResp":1,"stimulus":"img/900/equaldotanddens/L/10_Ratio_900_L_20_R_18.png","xmouse":[804,804,804,804,804,804,804,804,804,804,804,804,804,804,804,804,804,804,804,804,804,802,801,799,794,791,788,786,785,779,767,752,733,712,608,522,431,355,282,276,274,274,276,280,284,284,284,284,284,286,304,387,441],"ymouse":[498,498,498,498,498,498,498,498,498,498,498,498,498,498,498,498,498,498,498,498,498,495,493,491,484,480,473,466,460,447,432,417,400,383,326,290,251,218,165,148,138,124,116,110,98,96,95,95,94,94,94,94,94],"timestamp_mouse":[10,29,49,69,88,110,129,148,169,190,209,229,248,268,289,308,330,348,368,389,409,428,449,468,488,509,528,549,569,588,608,629,649,668,689,708,728,749,769,789,808,828,848,869,889,910,930,949,969,988,1008,1028,1050],"xSR":741.5,"ySR":469.95,"xT1":424.9,"yT1":0,"xT2":1058.1,"yT2":0,"toosoon":0,"cond_shown":"equaldotanddens","ratio_trial":900,"smaller_num":"18","larger_num":"20","correct_side":1,"subjID":"NicolasAlvarado18","gender":"0","age":"9","school":"4"},{"start_time":1552074776077,"click_time":1552074777299,"finger_time":1552074776779,"fix_duration":918.7110500285225,"trial":70,"RT":702,"MT":520,"sideResp":1,"stimulus":"img/250/equaldotsize/L/7_Ratio_250_L_8_R_2.png","xmouse":[779,779,779,779,779,779,779,779,779,779,779,779,779,779,779,779,779,779,779,779,779,779,779,779,779,779,779,779,779,779,779,775,772,765,759,736,724,709,680,629,491,436,410,407,407,408,409,409,409,409,409,409,409,409,410,560,592,593,592,587,546,514],"ymouse":[528,528,528,528,528,528,528,528,528,528,528,528,528,528,528,528,528,528,528,528,528,528,528,528,528,528,528,528,528,528,528,527,526,525,524,513,502,486,444,371,190,116,69,48,34,23,21,19,18,17,16,15,15,15,14,14,14,14,14,14,19,28],"timestamp_mouse":[5,21,42,61,81,101,122,143,161,181,201,223,241,262,283,301,323,341,362,381,403,421,442,462,481,502,523,541,561,582,602,622,642,661,682,702,723,742,762,781,801,822,841,861,881,901,922,942,962,982,1001,1021,1043,1061,1081,1101,1122,1142,1163,1181,1201,1222],"xSR":741.5,"ySR":469.95,"xT1":424.9,"yT1":0,"xT2":1058.1,"yT2":0,"toosoon":0,"cond_shown":"equaldotsize","ratio_trial":250,"smaller_num":"2","larger_num":"8","correct_side":1,"subjID":"NicolasAlvarado18","gender":"0","age":"9","school":"4"},{"start_time":1552074780311,"click_time":1552074781279,"finger_time":1552074780760,"fix_duration":250,"trial":71,"RT":449,"MT":519,"sideResp":2,"stimulus":"img/900/equaldotsize/L/8_Ratio_900_L_20_R_18.png","xmouse":[792,792,792,792,792,792,792,792,792,792,792,792,792,792,792,792,792,792,792,792,792,796,808,834,843,849,854,858,869,879,898,936,958,979,984,987,989,990,992,993,996,1010,1022,1034,1035,1036,1041,1053,1120],"ymouse":[484,484,484,484,484,484,484,484,484,484,484,484,484,484,484,484,484,484,484,484,484,482,465,426,408,391,373,359,333,318,295,258,235,198,184,174,169,167,164,163,159,144,134,123,123,120,112,96,33],"timestamp_mouse":[7,27,49,69,87,108,129,148,167,187,208,227,249,269,287,307,327,348,367,388,408,427,449,468,487,507,527,547,567,587,608,629,649,668,687,707,728,749,768,787,808,827,847,867,888,908,927,948,968],"xSR":741.5,"ySR":469.95,"xT1":424.9,"yT1":0,"xT2":1058.1,"yT2":0,"toosoon":0,"cond_shown":"equaldotsize","ratio_trial":900,"smaller_num":"18","larger_num":"20","correct_side":1,"subjID":"NicolasAlvarado18","gender":"0","age":"9","school":"4"},{"start_time":1552074783078,"click_time":1552074784099,"finger_time":1552074783539,"fix_duration":559.8416770689506,"trial":72,"RT":461,"MT":560,"sideResp":1,"stimulus":"img/500/equaldotanddens/L/10_Ratio_500_L_4_R_2.png","xmouse":[789,789,789,789,789,789,789,789,789,789,789,789,789,789,789,789,789,789,789,789,789,785,766,733,689,630,619,614,612,609,606,591,582,570,558,547,542,542,542,542,542,544,544,544,544,544,544,538,533,530,529,524],"ymouse":[516,516,516,516,516,516,516,516,516,516,516,516,516,516,516,516,516,516,516,516,514,502,479,455,424,381,369,359,355,349,343,317,305,288,271,251,221,203,186,169,155,137,132,127,118,83,62,43,30,24,22,22],"timestamp_mouse":[4,21,42,60,81,102,122,140,161,182,200,220,241,260,281,300,321,340,361,380,400,421,440,461,480,501,520,540,560,581,600,622,641,660,681,702,721,741,761,781,800,822,841,861,880,901,921,941,960,981,1000,1021],"xSR":741.5,"ySR":469.95,"xT1":424.9,"yT1":0,"xT2":1058.1,"yT2":0,"toosoon":0,"cond_shown":"equaldotanddens","ratio_trial":500,"smaller_num":"2","larger_num":"4","correct_side":1,"subjID":"NicolasAlvarado18","gender":"0","age":"9","school":"4"},{"start_time":1552074785830,"click_time":1552074787079,"finger_time":1552074786198,"fix_duration":549.1175799094553,"trial":73,"RT":368,"MT":881,"sideResp":2,"stimulus":"img/500/randomdotsizeEA/R/12_Ratio_500_L_1_R_2.png","xmouse":[758,758,754,747,746,746,745,745,745,745,745,745,745,745,745,745,745,743,733,726,717,706,698,697,697,696,696,696,698,702,704,706,706,706,707,730,741,749,883,936,952,954,955,965,978,993,1007,1016,1022,1025,1028,1031,1043,1069,1082,1093,1101,1108,1114,1115,1116,1117,1123],"ymouse":[523,523,522,522,521,521,520,520,518,516,515,514,513,512,510,506,499,491,468,456,446,440,437,436,436,435,435,435,427,418,410,401,394,385,382,375,372,370,335,318,307,303,297,262,240,227,217,211,207,205,203,200,192,176,167,159,149,137,118,114,109,102,86],"timestamp_mouse":[9,28,49,69,89,108,129,149,169,189,209,229,248,269,289,310,329,349,368,388,408,428,449,470,488,509,530,548,568,589,608,630,650,669,688,709,728,748,769,788,808,830,850,868,889,908,928,948,968,989,1009,1028,1049,1068,1089,1108,1129,1150,1168,1189,1209,1229,1249],"xSR":741.5,"ySR":469.95,"xT1":424.9,"yT1":0,"xT2":1058.1,"yT2":0,"toosoon":0,"cond_shown":"randomdotsizeEA","ratio_trial":500,"smaller_num":"1","larger_num":"2","correct_side":2,"subjID":"NicolasAlvarado18","gender":"0","age":"9","school":"4"},{"start_time":1552074788381,"click_time":1552074789580,"finger_time":1552074789059,"fix_duration":261.48322500261736,"trial":74,"RT":678,"MT":521,"sideResp":1,"stimulus":"img/750/randomdotsizeEA/R/7_Ratio_750_L_3_R_4.png","xmouse":[808,807,807,807,807,806,806,804,803,802,802,802,802,802,802,802,802,802,802,802,802,802,802,802,802,802,802,802,801,801,801,799,796,787,778,762,754,749,744,739,727,718,709,695,685,650,632,625,621,618,616,610,602,591,575,563,552,546,536,518],"ymouse":[494,495,495,495,495,495,495,495,495,496,496,496,496,496,496,496,496,496,496,496,496,496,496,496,496,496,496,496,496,496,496,490,478,459,442,390,353,315,281,251,207,194,184,178,177,175,174,172,170,168,166,160,149,132,102,83,56