[{"start_time":1552327365288,"click_time":1552327368179,"finger_time":1552327365299,"fix_duration":984.2030746018467,"trial":0,"RT":11,"MT":2880,"sideResp":1,"stimulus":[],"xmouse":[786,786,786,786,786,786,786,786,786,786,786,786,786,786,786,786,786,786,786,786,786,786,786,786,786,786,786,795,810,817,823,824,824,824,824,820,818,817,817,817,817,817,817,817,817,817,817,817,817,817,805,782,753,735,722,721,721,721,721,721,721,721,721,721,723,728,729,730,733,736,742,743,745,745,745,746,747,747,747,747,747,747,749,750,752,755,755,755,755,755,755,755,755,755,755,755,755,755,755,755,755,755,755,755,755,755,755,755,755,755,755,755,755,755,755,755,755,755,755,755,755,755,755,755,757,765,771,771,771,771,768,766,763,756,748,719,709,693,678,660,616,584,560,532,517],"ymouse":[533,533,533,533,533,533,533,533,533,533,533,533,533,533,533,533,533,533,533,533,533,533,533,533,533,533,533,538,558,577,602,607,607,607,608,613,614,615,615,615,615,615,615,615,615,615,615,615,615,615,615,615,611,609,606,606,606,606,606,606,606,606,606,605,605,604,604,604,604,604,604,604,604,604,604,604,604,604,604,604,604,604,604,604,604,606,606,606,606,606,606,606,606,606,606,606,606,606,606,606,606,606,606,606,606,606,606,606,606,606,606,606,606,606,606,606,606,606,606,606,606,606,606,606,605,591,552,526,503,483,457,449,442,434,429,410,400,384,366,345,285,234,183,107,56],"timestamp_mouse":[10,30,51,70,91,109,130,150,170,191,210,230,250,270,290,310,331,351,371,390,411,430,450,471,491,510,530,550,570,590,610,629,651,671,691,710,731,750,771,789,811,831,851,871,891,911,930,951,971,990,1010,1031,1051,1071,1090,1110,1130,1150,1171,1191,1211,1231,1250,1270,1291,1309,1330,1350,1370,1391,1410,1430,1451,1470,1491,1509,1530,1551,1571,1591,1611,1631,1650,1670,1689,1711,1731,1751,1771,1789,1810,1830,1851,1870,1891,1911,1929,1951,1970,1991,2010,2030,2050,2070,2090,2110,2130,2150,2170,2190,2210,2230,2251,2271,2290,2311,2331,2350,2370,2390,2410,2430,2450,2469,2490,2509,2530,2550,2571,2590,2610,2630,2650,2670,2690,2710,2730,2751,2771,2791,2810,2830,2851,2870,2891],"xSR":741.5,"ySR":469.95,"xT1":424.9,"yT1":0,"xT2":1058.1,"yT2":0,"toosoon":0,"cond_shown":"Incongruent","ratio_trial":100,"L_num":6,"L_den":10,"R_num":7,"R_den":14,"correct_side":1,"subjID":"NicolasBeltranSilva23","gender":"0","age":"8","school":"4","test":{"fix_dur":[250,1500],"timestim":1000,"targets_dim":[100,100],"targets_relative_coord":[0.3,0.7],"size_stim":[880,420],"start_dim":[100,100],"size_start":[300,300],"size_fix":60,"samplingrate":20,"img_types":["Congruent","Incongruent"],"ratios":[100,200,300],"rep_conds":19,"nTrials":120,"trials_to_rest":500,"Trials_order":[7,78,104,60,38,56,72,41,101,16,53,10,77,25,37,110,43,112,21,0,61,46,30,51,65,89,95,97,8,45,2,111,98,105,117,14,103,81,1,50,15,13,86,118,55,114,27,29,34,31,80,24,58,32,94,11,48,33,113,69,100,109,5,84,12,85,4,82,75,83,74,119,76,71,18,108,106,63,88,3,64,20,66,44,96,79,36,107,17,6,26,102,115,99,19,9,52,67,62,116,70,57,47,49,59,23,87,93,28,42,90,22,35,92,73,91,39,54,68,40],"cond_shown":["Incongruent","Congruent","Congruent","Congruent","Congruent","Congruent","Congruent","Incongruent","Incongruent","Congruent","Incongruent","Congruent","Incongruent","Incongruent","Incongruent","Congruent","Incongruent","Congruent","Incongruent","Congruent","Incongruent","Congruent","Congruent","Incongruent","Incongruent","Incongruent","Incongruent","Incongruent","Congruent","Incongruent","Congruent","Incongruent","Congruent","Incongruent","Incongruent","Congruent","Incongruent","Incongruent","Incongruent","Congruent","Incongruent","Incongruent","Congruent","Congruent","Incongruent","Congruent","Incongruent","Incongruent","Congruent","Incongruent","Congruent","Congruent","Congruent","Congruent","Congruent","Incongruent","Congruent","Incongruent","Incongruent","Incongruent","Congruent","Incongruent","Incongruent","Congruent","Congruent","Incongruent","Congruent","Congruent","Incongruent","Incongruent","Congruent","Incongruent","Congruent","Incongruent","Congruent","Congruent","Congruent","Incongruent","Congruent","Incongruent","Congruent","Congruent","Congruent","Congruent","Congruent","Incongruent","Congruent","Incongruent","Incongruent","Congruent","Congruent","Congruent","Incongruent","Incongruent","Incongruent","Incongruent","Congruent","Incongruent","Congruent","Congruent","Congruent","Incongruent","Incongruent","Incongruent","Incongruent","Incongruent","Incongruent","Incongruent","Congruent","Congruent","Congruent","Congruent","Incongruent","Congruent","Incongruent","Incongruent","Incongruent","Congruent","Congruent","Congruent"],"ratio_trial":[100,100,200,100,200,200,100,300,300,300,300,300,300,100,100,200,100,300,200,100,100,300,100,200,300,300,300,100,200,200,200,200,200,200,200,200,100,200,100,200,200,100,200,300,100,100,200,300,300,100,200,100,300,200,300,300,100,200,300,200,300,100,300,100,100,100,300,300,200,300,200,300,300,300,100,100,300,200,300,200,300,200,100,200,100,100,100,300,300,100,200,100,100,200,100,200,300,100,200,200,300,200,300,100,300,300,200,200,300,100,100,300,300,200,100,100,200,100,200,300],"left_num":[6,11,1,6,12,3,10,4,4,1,1,1,8,8,3,8,4,1,3,3,6,24,1,14,13,4,4,6,1,7,1,7,20,4,14,7,8,4,9,5,1,11,11,2,3,9,11,4,9,3,6,4,11,16,20,13,10,14,3,7,20,6,4,7,1,17,7,4,7,13,16,8,2,13,3,3,18,7,4,7,24,8,6,9,1,3,4,13,13,6,8,11,10,1,2,3,20,12,3,12,11,7,3,6,3,2,4,14,2,7,6,20,1,12,3,2,11,2,15,11],"right_num":[7,4,21,5,6,9,3,2,2,6,3,6,9,6,8,2,8,8,11,2,3,2,18,6,12,2,2,11,21,8,21,14,9,14,6,2,1,6,14,14,3,9,3,12,11,8,3,2,3,11,11,6,4,12,5,12,3,6,4,12,8,11,2,15,3,10,20,1,12,12,12,14,12,12,2,4,9,4,2,4,8,2,15,13,3,8,6,12,12,5,2,4,8,2,6,1,14,2,11,6,4,6,4,13,4,6,1,12,12,15,5,5,3,6,8,8,3,11,4,4],"left_den":[10,22,2,20,15,12,25,20,20,5,2,5,10,16,5,15,8,30,4,6,12,30,2,30,26,20,20,10,2,10,2,10,25,6,30,21,20,5,15,10,2,22,22,10,5,15,20,20,10,5,20,8,22,20,25,26,25,30,6,10,25,10,20,14,2,30,14,10,10,26,20,10,10,26,6,20,20,15,5,15,30,15,12,30,2,5,8,26,26,20,15,22,25,3,4,10,25,30,10,15,22,15,6,10,6,4,30,30,10,14,20,25,2,15,5,4,20,5,25,22],"right_den":[14,10,30,25,10,20,10,4,4,12,15,12,18,10,16,6,20,24,20,5,5,4,30,9,15,4,4,22,30,16,30,28,15,30,9,15,2,10,28,20,10,15,10,24,22,16,4,4,5,22,22,10,20,20,10,15,10,9,20,24,16,22,4,25,5,15,25,10,24,15,20,28,24,15,5,16,15,6,4,6,16,6,25,26,5,16,10,15,15,25,6,10,16,15,15,2,28,4,22,10,20,9,20,26,20,30,3,18,24,25,25,10,15,10,16,20,4,22,10,20],"correct_side":[1,1,2,1,1,2,1,2,2,2,1,2,1,2,1,1,1,2,1,1,2,1,2,2,2,2,2,1,2,1,2,1,1,1,2,1,2,1,1,2,1,2,1,2,1,1,2,2,1,1,2,2,1,1,1,2,1,2,1,1,1,1,2,2,2,2,2,1,1,2,1,1,2,2,1,2,1,2,1,2,1,1,2,2,2,1,2,2,2,1,1,1,2,1,1,2,1,2,2,1,1,2,1,1,1,1,2,2,2,2,1,1,1,1,1,1,2,2,1,1],"img_shown":["img2/100/Incongruent/L/I_Dist_100_LN_6_LD_10_RN_7_RD_14_0.png","img2/100/Congruent/L/C_Dist_100_LN_11_LD_22_RN_4_RD_10_0.png","img2/200/Congruent/R/C_Dist_200_LN_1_LD_2_RN_21_RD_30_1.png","img2/100/Congruent/L/C_Dist_100_LN_6_LD_20_RN_5_RD_25_0.png","img2/200/Congruent/L/C_Dist_200_LN_12_LD_15_RN_6_RD_10_0.png","img2/200/Congruent/R/C_Dist_200_LN_3_LD_12_RN_9_RD_20_1.png","img2/100/Congruent/L/C_Dist_100_LN_10_LD_25_RN_3_RD_10_0.png","img2/300/Incongruent/R/I_Dist_300_LN_4_LD_20_RN_2_RD_4_1.png","img2/300/Incongruent/R/I_Dist_300_LN_4_LD_20_RN_2_RD_4_1.png","img2/300/Congruent/R/C_Dist_300_LN_1_LD_5_RN_6_RD_12_1.png","img2/300/Incongruent/L/I_Dist_300_LN_1_LD_2_RN_3_RD_15_0.png","img2/300/Congruent/R/C_Dist_300_LN_1_LD_5_RN_6_RD_12_1.png","img2/300/Incongruent/L/I_Dist_300_LN_8_LD_10_RN_9_RD_18_0.png","img2/100/Incongruent/R/I_Dist_100_LN_8_LD_16_RN_6_RD_10_1.png","img2/100/Incongruent/L/I_Dist_100_LN_3_LD_5_RN_8_RD_16_0.png","img2/200/Congruent/L/C_Dist_200_LN_8_LD_15_RN_2_RD_6_0.png","img2/100/Incongruent/L/I_Dist_100_LN_4_LD_8_RN_8_RD_20_0.png","img2/300/Congruent/R/C_Dist_300_LN_1_LD_30_RN_8_RD_24_1.png","img2/200/Incongruent/L/I_Dist_200_LN_3_LD_4_RN_11_RD_20_0.png","img2/100/Congruent/L/C_Dist_100_LN_3_LD_6_RN_2_RD_5_0.png","img2/100/Incongruent/R/I_Dist_100_LN_6_LD_12_RN_3_RD_5_1.png","img2/300/Congruent/L/C_Dist_300_LN_24_LD_30_RN_2_RD_4_0.png","img2/100/Congruent/R/C_Dist_100_LN_1_LD_2_RN_18_RD_30_1.png","img2/200/Incongruent/R/I_Dist_200_LN_14_LD_30_RN_6_RD_9_1.png","img2/300/Incongruent/R/I_Dist_300_LN_13_LD_26_RN_12_RD_15_1.png","img2/300/Incongruent/R/I_Dist_300_LN_4_LD_20_RN_2_RD_4_1.png","img2/300/Incongruent/R/I_Dist_300_LN_4_LD_20_RN_2_RD_4_1.png","img2/100/Incongruent/L/I_Dist_100_LN_6_LD_10_RN_11_RD_22_0.png","img2/200/Congruent/R/C_Dist_200_LN_1_LD_2_RN_21_RD_30_1.png","img2/200/Incongruent/L/I_Dist_200_LN_7_LD_10_RN_8_RD_16_0.png","img2/200/Congruent/R/C_Dist_200_LN_1_LD_2_RN_21_RD_30_1.png","img2/200/Incongruent/L/I_Dist_200_LN_7_LD_10_RN_14_RD_28_0.png","img2/200/Congruent/L/C_Dist_200_LN_20_LD_25_RN_9_RD_15_0.png","img2/200/Incongruent/L/I_Dist_200_LN_4_LD_6_RN_14_RD_30_0.png","img2/200/Incongruent/R/I_Dist_200_LN_14_LD_30_RN_6_RD_9_1.png","img2/200/Congruent/L/C_Dist_200_LN_7_LD_21_RN_2_RD_15_0.png","img2/100/Incongruent/R/I_Dist_100_LN_8_LD_20_RN_1_RD_2_1.png","img2/200/Incongruent/L/I_Dist_200_LN_4_LD_5_RN_6_RD_10_0.png","img2/100/Incongruent/L/I_Dist_100_LN_9_LD_15_RN_14_RD_28_0.png","img2/200/Congruent/R/C_Dist_200_LN_5_LD_10_RN_14_RD_20_1.png","img2/200/Incongruent/L/I_Dist_200_LN_1_LD_2_RN_3_RD_10_0.png","img2/100/Incongruent/R/I_Dist_100_LN_11_LD_22_RN_9_RD_15_1.png","img2/200/Congruent/L/C_Dist_200_LN_11_LD_22_RN_3_RD_10_0.png","img2/300/Congruent/R/C_Dist_300_LN_2_LD_10_RN_12_RD_24_1.png","img2/100/Incongruent/L/I_Dist_100_LN_3_LD_5_RN_11_RD_22_0.png","img2/100/Congruent/L/C_Dist_100_LN_9_LD_15_RN_8_RD_16_0.png","img2/200/Incongruent/R/I_Dist_200_LN_11_LD_20_RN_3_RD_4_1.png","img2/300/Incongruent/R/I_Dist_300_LN_4_LD_20_RN_2_RD_4_1.png","img2/300/Congruent/L/C_Dist_300_LN_9_LD_10_RN_3_RD_5_0.png","img2/100/Incongruent/L/I_Dist_100_LN_3_LD_5_RN_11_RD_22_0.png","img2/200/Congruent/R/C_Dist_200_LN_6_LD_20_RN_11_RD_22_1.png","img2/100/Congruent/R/C_Dist_100_LN_4_LD_8_RN_6_RD_10_1.png","img2/300/Congruent/L/C_Dist_300_LN_11_LD_22_RN_4_RD_20_0.png","img2/200/Congruent/L/C_Dist_200_LN_16_LD_20_RN_12_RD_20_0.png","img2/300/Congruent/L/C_Dist_300_LN_20_LD_25_RN_5_RD_10_0.png","img2/300/Incongruent/R/I_Dist_300_LN_13_LD_26_RN_12_RD_15_1.png","img2/100/Congruent/L/C_Dist_100_LN_10_LD_25_RN_3_RD_10_0.png","img2/200/Incongruent/R/I_Dist_200_LN_14_LD_30_RN_6_RD_9_1.png","img2/300/Incongruent/L/I_Dist_300_LN_3_LD_6_RN_4_RD_20_0.png","img2/200/Incongruent/L/I_Dist_200_LN_7_LD_10_RN_12_RD_24_0.png","img2/300/Congruent/L/C_Dist_300_LN_20_LD_25_RN_8_RD_16_0.png","img2/100/Incongruent/L/I_Dist_100_LN_6_LD_10_RN_11_RD_22_0.png","img2/300/Incongruent/R/I_Dist_300_LN_4_LD_20_RN_2_RD_4_1.png","img2/100/Congruent/R/C_Dist_100_LN_7_LD_14_RN_15_RD_25_1.png","img2/100/Congruent/R/C_Dist_100_LN_1_LD_2_RN_3_RD_5_1.png","img2/100/Incongruent/R/I_Dist_100_LN_17_LD_30_RN_10_RD_15_1.png","img2/300/Congruent/R/C_Dist_300_LN_7_LD_14_RN_20_RD_25_1.png","img2/300/Congruent/L/C_Dist_300_LN_4_LD_10_RN_1_RD_10_0.png","img2/200/Incongruent/L/I_Dist_200_LN_7_LD_10_RN_12_RD_24_0.png","img2/300/Incongruent/R/I_Dist_300_LN_13_LD_26_RN_12_RD_15_1.png","img2/200/Congruent/L/C_Dist_200_LN_16_LD_20_RN_12_RD_20_0.png","img2/300/Incongruent/L/I_Dist_300_LN_8_LD_10_RN_14_RD_28_0.png","img2/300/Congruent/R/C_Dist_300_LN_2_LD_10_RN_12_RD_24_1.png","img2/300/Incongruent/R/I_Dist_300_LN_13_LD_26_RN_12_RD_15_1.png","img2/100/Congruent/L/C_Dist_100_LN_3_LD_6_RN_2_RD_5_0.png","img2/100/Congruent/R/C_Dist_100_LN_3_LD_20_RN_4_RD_16_1.png","img2/300/Congruent/L/C_Dist_300_LN_18_LD_20_RN_9_RD_15_0.png","img2/200/Incongruent/R/I_Dist_200_LN_7_LD_15_RN_4_RD_6_1.png","img2/300/Congruent/L/C_Dist_300_LN_4_LD_5_RN_2_RD_4_0.png","img2/200/Incongruent/R/I_Dist_200_LN_7_LD_15_RN_4_RD_6_1.png","img2/300/Congruent/L/C_Dist_300_LN_24_LD_30_RN_8_RD_16_0.png","img2/200/Congruent/L/C_Dist_200_LN_8_LD_15_RN_2_RD_6_0.png","img2/100/Congruent/R/C_Dist_100_LN_6_LD_12_RN_15_RD_25_1.png","img2/200/Congruent/R/C_Dist_200_LN_9_LD_30_RN_13_RD_26_1.png","img2/100/Congruent/R/C_Dist_100_LN_1_LD_2_RN_3_RD_5_1.png","img2/100/Incongruent/L/I_Dist_100_LN_3_LD_5_RN_8_RD_16_0.png","img2/100/Congruent/R/C_Dist_100_LN_4_LD_8_RN_6_RD_10_1.png","img2/300/Incongruent/R/I_Dist_300_LN_13_LD_26_RN_12_RD_15_1.png","img2/300/Incongruent/R/I_Dist_300_LN_13_LD_26_RN_12_RD_15_1.png","img2/100/Congruent/L/C_Dist_100_LN_6_LD_20_RN_5_RD_25_0.png","img2/200/Congruent/L/C_Dist_200_LN_8_LD_15_RN_2_RD_6_0.png","img2/100/Congruent/L/C_Dist_100_LN_11_LD_22_RN_4_RD_10_0.png","img2/100/Incongruent/R/I_Dist_100_LN_10_LD_25_RN_8_RD_16_1.png","img2/200/Incongruent/L/I_Dist_200_LN_1_LD_3_RN_2_RD_15_0.png","img2/100/Incongruent/L/I_Dist_100_LN_2_LD_4_RN_6_RD_15_0.png","img2/200/Incongruent/R/I_Dist_200_LN_3_LD_10_RN_1_RD_2_1.png","img2/300/Congruent/L/C_Dist_300_LN_20_LD_25_RN_14_RD_28_0.png","img2/100/Incongruent/R/I_Dist_100_LN_12_LD_30_RN_2_RD_4_1.png","img2/200/Congruent/R/C_Dist_200_LN_3_LD_10_RN_11_RD_22_1.png","img2/200/Congruent/L/C_Dist_200_LN_12_LD_15_RN_6_RD_10_0.png","img2/300/Congruent/L/C_Dist_300_LN_11_LD_22_RN_4_RD_20_0.png","img2/200/Incongruent/R/I_Dist_200_LN_7_LD_15_RN_6_RD_9_1.png","img2/300/Incongruent/L/I_Dist_300_LN_3_LD_6_RN_4_RD_20_0.png","img2/100/Incongruent/L/I_Dist_100_LN_6_LD_10_RN_13_RD_26_0.png","img2/300/Incongruent/L/I_Dist_300_LN_3_LD_6_RN_4_RD_20_0.png","img2/300/Incongruent/L/I_Dist_300_LN_2_LD_4_RN_6_RD_30_0.png","img2/200/Incongruent/R/I_Dist_200_LN_4_LD_30_RN_1_RD_3_1.png","img2/200/Incongruent/R/I_Dist_200_LN_14_LD_30_RN_12_RD_18_1.png","img2/300/Congruent/R/C_Dist_300_LN_2_LD_10_RN_12_RD_24_1.png","img2/100/Congruent/R/C_Dist_100_LN_7_LD_14_RN_15_RD_25_1.png","img2/100/Congruent/L/C_Dist_100_LN_6_LD_20_RN_5_RD_25_0.png","img2/300/Congruent/L/C_Dist_300_LN_20_LD_25_RN_5_RD_10_0.png","img2/300/Incongruent/L/I_Dist_300_LN_1_LD_2_RN_3_RD_15_0.png","img2/200/Congruent/L/C_Dist_200_LN_12_LD_15_RN_6_RD_10_0.png","img2/100/Incongruent/L/I_Dist_100_LN_3_LD_5_RN_8_RD_16_0.png","img2/100/Incongruent/L/I_Dist_100_LN_2_LD_4_RN_8_RD_20_0.png","img2/200/Incongruent/R/I_Dist_200_LN_11_LD_20_RN_3_RD_4_1.png","img2/100/Congruent/R/C_Dist_100_LN_2_LD_5_RN_11_RD_22_1.png","img2/200/Congruent/L/C_Dist_200_LN_15_LD_25_RN_4_RD_10_0.png","img2/300/Congruent/L/C_Dist_300_LN_11_LD_22_RN_4_RD_20_0.png"],"dist100_C":[["C_Dist_100_LN_10_LD_25_RN_3_RD_10_0.png","C_Dist_100_LN_11_LD_22_RN_4_RD_10_0.png","C_Dist_100_LN_11_LD_22_RN_6_RD_15_0.png","C_Dist_100_LN_15_LD_25_RN_13_RD_26_0.png","C_Dist_100_LN_3_LD_6_RN_2_RD_5_0.png","C_Dist_100_LN_6_LD_20_RN_5_RD_25_0.png","C_Dist_100_LN_8_LD_16_RN_2_RD_5_0.png","C_Dist_100_LN_9_LD_15_RN_8_RD_16_0.png"],["C_Dist_100_LN_1_LD_2_RN_18_RD_30_1.png","C_Dist_100_LN_1_LD_2_RN_3_RD_5_1.png","C_Dist_100_LN_12_LD_30_RN_13_RD_26_1.png","C_Dist_100_LN_2_LD_5_RN_11_RD_22_1.png","C_Dist_100_LN_2_LD_5_RN_6_RD_12_1.png","C_Dist_100_LN_3_LD_20_RN_4_RD_16_1.png","C_Dist_100_LN_4_LD_10_RN_15_RD_30_1.png","C_Dist_100_LN_4_LD_8_RN_6_RD_10_1.png","C_Dist_100_LN_6_LD_12_RN_15_RD_25_1.png","C_Dist_100_LN_7_LD_14_RN_15_RD_25_1.png","C_Dist_100_LN_7_LD_14_RN_9_RD_15_1.png"]],"dist100_I":[["I_Dist_100_LN_1_LD_2_RN_8_RD_20_0.png","I_Dist_100_LN_2_LD_4_RN_6_RD_15_0.png","I_Dist_100_LN_2_LD_4_RN_8_RD_20_0.png","I_Dist_100_LN_3_LD_5_RN_11_RD_22_0.png","I_Dist_100_LN_3_LD_5_RN_8_RD_16_0.png","I_Dist_100_LN_3_LD_6_RN_4_RD_10_0.png","I_Dist_100_LN_3_LD_9_RN_7_RD_30_0.png","I_Dist_100_LN_4_LD_8_RN_8_RD_20_0.png","I_Dist_100_LN_6_LD_10_RN_11_RD_22_0.png","I_Dist_100_LN_6_LD_10_RN_13_RD_26_0.png","I_Dist_100_LN_6_LD_10_RN_7_RD_14_0.png","I_Dist_100_LN_9_LD_10_RN_20_RD_25_0.png","I_Dist_100_LN_9_LD_15_RN_13_RD_26_0.png","I_Dist_100_LN_9_LD_15_RN_14_RD_28_0.png"],["I_Dist_100_LN_10_LD_25_RN_8_RD_16_1.png","I_Dist_100_LN_10_LD_25_RN_9_RD_18_1.png","I_Dist_100_LN_11_LD_22_RN_9_RD_15_1.png","I_Dist_100_LN_12_LD_24_RN_9_RD_15_1.png","I_Dist_100_LN_12_LD_30_RN_2_RD_4_1.png","I_Dist_100_LN_13_LD_26_RN_12_RD_20_1.png","I_Dist_100_LN_13_LD_26_RN_6_RD_10_1.png","I_Dist_100_LN_17_LD_30_RN_10_RD_15_1.png","I_Dist_100_LN_6_LD_12_RN_3_RD_5_1.png","I_Dist_100_LN_8_LD_16_RN_6_RD_10_1.png","I_Dist_100_LN_8_LD_20_RN_1_RD_2_1.png","I_Dist_100_LN_9_LD_18_RN_6_RD_10_1.png"]],"dist100_S":[["E_Dist_100_LN_2_LD_12_RN_2_RD_30_0.png","E_Dist_100_LN_6_LD_10_RN_6_RD_12_0.png"],["E_Dist_100_LN_6_LD_12_RN_6_RD_10_1.png"]],"dist200_C":[["C_Dist_200_LN_11_LD_22_RN_3_RD_10_0.png","C_Dist_200_LN_12_LD_15_RN_6_RD_10_0.png","C_Dist_200_LN_12_LD_20_RN_6_RD_15_0.png","C_Dist_200_LN_14_LD_28_RN_6_RD_20_0.png","C_Dist_200_LN_15_LD_25_RN_4_RD_10_0.png","C_Dist_200_LN_16_LD_20_RN_12_RD_20_0.png","C_Dist_200_LN_16_LD_30_RN_9_RD_27_0.png","C_Dist_200_LN_20_LD_25_RN_9_RD_15_0.png","C_Dist_200_LN_21_LD_30_RN_2_RD_4_0.png","C_Dist_200_LN_4_LD_10_RN_3_RD_15_0.png","C_Dist_200_LN_4_LD_8_RN_3_RD_10_0.png","C_Dist_200_LN_6_LD_15_RN_3_RD_15_0.png","C_Dist_200_LN_7_LD_21_RN_2_RD_15_0.png","C_Dist_200_LN_8_LD_15_RN_2_RD_6_0.png","C_Dist_200_LN_8_LD_15_RN_3_RD_9_0.png","C_Dist_200_LN_8_LD_15_RN_7_RD_21_0.png","C_Dist_200_LN_9_LD_20_RN_4_RD_16_0.png"],["C_Dist_200_LN_1_LD_2_RN_21_RD_30_1.png","C_Dist_200_LN_13_LD_26_RN_14_RD_20_1.png","C_Dist_200_LN_3_LD_10_RN_11_RD_22_1.png","C_Dist_200_LN_3_LD_10_RN_14_RD_28_1.png","C_Dist_200_LN_3_LD_10_RN_7_RD_14_1.png","C_Dist_200_LN_3_LD_12_RN_9_RD_20_1.png","C_Dist_200_LN_3_LD_6_RN_14_RD_20_1.png","C_Dist_200_LN_5_LD_10_RN_14_RD_20_1.png","C_Dist_200_LN_6_LD_12_RN_7_RD_10_1.png","C_Dist_200_LN_6_LD_20_RN_11_RD_22_1.png","C_Dist_200_LN_7_LD_15_RN_18_RD_27_1.png","C_Dist_200_LN_9_LD_30_RN_13_RD_26_1.png"]],"dist200_I":[["I_Dist_200_LN_1_LD_2_RN_3_RD_10_0.png","I_Dist_200_LN_1_LD_3_RN_2_RD_15_0.png","I_Dist_200_LN_3_LD_4_RN_11_RD_20_0.png","I_Dist_200_LN_4_LD_5_RN_6_RD_10_0.png","I_Dist_200_LN_4_LD_6_RN_14_RD_30_0.png","I_Dist_200_LN_7_LD_10_RN_12_RD_24_0.png","I_Dist_200_LN_7_LD_10_RN_14_RD_28_0.png","I_Dist_200_LN_7_LD_10_RN_8_RD_16_0.png"],["I_Dist_200_LN_11_LD_20_RN_3_RD_4_1.png","I_Dist_200_LN_14_LD_30_RN_12_RD_18_1.png","I_Dist_200_LN_14_LD_30_RN_6_RD_9_1.png","I_Dist_200_LN_3_LD_10_RN_1_RD_2_1.png","I_Dist_200_LN_4_LD_30_RN_1_RD_3_1.png","I_Dist_200_LN_6_LD_20_RN_3_RD_6_1.png","I_Dist_200_LN_7_LD_15_RN_4_RD_6_1.png","I_Dist_200_LN_7_LD_15_RN_6_RD_9_1.png","I_Dist_200_LN_9_LD_15_RN_8_RD_10_1.png"]],"dist200_S":[["E_Dist_200_LN_3_LD_6_RN_3_RD_10_0.png"],["E_Dist_200_LN_3_LD_10_RN_3_RD_6_1.png"]],"dist300_C":[["C_Dist_300_LN_11_LD_22_RN_1_RD_5_0.png","C_Dist_300_LN_11_LD_22_RN_2_RD_10_0.png","C_Dist_300_LN_11_LD_22_RN_4_RD_20_0.png","C_Dist_300_LN_12_LD_24_RN_2_RD_10_0.png","C_Dist_300_LN_18_LD_20_RN_9_RD_15_0.png","C_Dist_300_LN_20_LD_25_RN_13_RD_26_0.png","C_Dist_300_LN_20_LD_25_RN_14_RD_28_0.png","C_Dist_300_LN_20_LD_25_RN_5_RD_10_0.png","C_Dist_300_LN_20_LD_25_RN_8_RD_16_0.png","C_Dist_300_LN_20_LD_25_RN_9_RD_18_0.png","C_Dist_300_LN_24_LD_30_RN_2_RD_4_0.png","C_Dist_300_LN_24_LD_30_RN_8_RD_16_0.png","C_Dist_300_LN_3_LD_6_RN_2_RD_10_0.png","C_Dist_300_LN_4_LD_10_RN_1_RD_10_0.png","C_Dist_300_LN_4_LD_5_RN_2_RD_4_0.png","C_Dist_300_LN_8_LD_16_RN_1_RD_5_0.png","C_Dist_300_LN_9_LD_10_RN_3_RD_5_0.png"],["C_Dist_300_LN_1_LD_20_RN_7_RD_20_1.png","C_Dist_300_LN_1_LD_3_RN_19_RD_30_1.png","C_Dist_300_LN_1_LD_30_RN_8_RD_24_1.png","C_Dist_300_LN_1_LD_5_RN_11_RD_22_1.png","C_Dist_300_LN_1_LD_5_RN_3_RD_6_1.png","C_Dist_300_LN_1_LD_5_RN_6_RD_12_1.png","C_Dist_300_LN_2_LD_10_RN_12_RD_24_1.png","C_Dist_300_LN_2_LD_20_RN_10_RD_25_1.png","C_Dist_300_LN_3_LD_12_RN_11_RD_20_1.png","C_Dist_300_LN_3_LD_6_RN_4_RD_5_1.png","C_Dist_300_LN_4_LD_20_RN_13_RD_26_1.png","C_Dist_300_LN_5_LD_25_RN_6_RD_12_1.png","C_Dist_300_LN_5_LD_25_RN_7_RD_14_1.png","C_Dist_300_LN_7_LD_14_RN_20_RD_25_1.png","C_Dist_300_LN_8_LD_15_RN_10_RD_12_1.png"]],"dist300_I":[["I_Dist_300_LN_1_LD_2_RN_2_RD_10_0.png","I_Dist_300_LN_1_LD_2_RN_3_RD_15_0.png","I_Dist_300_LN_2_LD_4_RN_6_RD_30_0.png","I_Dist_300_LN_3_LD_6_RN_4_RD_20_0.png","I_Dist_300_LN_4_LD_5_RN_6_RD_12_0.png","I_Dist_300_LN_4_LD_5_RN_8_RD_16_0.png","I_Dist_300_LN_7_LD_10_RN_8_RD_20_0.png","I_Dist_300_LN_8_LD_10_RN_14_RD_28_0.png","I_Dist_300_LN_8_LD_10_RN_9_RD_18_0.png"],["I_Dist_300_LN_13_LD_26_RN_12_RD_15_1.png","I_Dist_300_LN_4_LD_20_RN_2_RD_4_1.png"]],"dist300_S":[["E_Dist_300_LN_9_LD_12_RN_9_RD_20_0.png"],["E_Dist_300_LN_18_LD_30_RN_18_RD_20_1.png","E_Dist_300_LN_3_LD_10_RN_3_RD_5_1.png","E_Dist_300_LN_9_LD_20_RN_9_RD_12_1.png"]],"dist500_C":[["C_Dist_500_LN_10_LD_13_RN_7_RD_26_0.png","C_Dist_500_LN_10_LD_15_RN_4_RD_24_0.png","C_Dist_500_LN_12_LD_16_RN_3_RD_12_0.png","C_Dist_500_LN_12_LD_18_RN_4_RD_24_0.png","C_Dist_500_LN_15_LD_18_RN_5_RD_15_0.png","C_Dist_500_LN_15_LD_20_RN_1_RD_4_0.png","C_Dist_500_LN_18_LD_27_RN_1_RD_6_0.png","C_Dist_500_LN_20_LD_24_RN_1_RD_3_0.png","C_Dist_500_LN_20_LD_24_RN_3_RD_9_0.png","C_Dist_500_LN_20_LD_24_RN_7_RD_21_0.png","C_Dist_500_LN_20_LD_28_RN_3_RD_14_0.png","C_Dist_500_LN_21_LD_28_RN_6_RD_24_0.png","C_Dist_500_LN_22_LD_28_RN_2_RD_7_0.png","C_Dist_500_LN_25_LD_30_RN_9_RD_27_0.png","C_Dist_500_LN_4_LD_6_RN_1_RD_6_0.png","C_Dist_500_LN_5_LD_6_RN_2_RD_6_0.png","C_Dist_500_LN_6_LD_9_RN_1_RD_6_0.png","C_Dist_500_LN_7_LD_10_RN_1_RD_5_0.png","C_Dist_500_LN_8_LD_12_RN_1_RD_6_0.png","C_Dist_500_LN_8_LD_12_RN_4_RD_24_0.png"],["C_Dist_500_LN_1_LD_4_RN_12_RD_16_1.png","C_Dist_500_LN_1_LD_4_RN_9_RD_12_1.png","C_Dist_500_LN_1_LD_9_RN_11_RD_18_1.png","C_Dist_500_LN_10_LD_24_RN_22_RD_24_1.png","C_Dist_500_LN_2_LD_12_RN_10_RD_15_1.png","C_Dist_500_LN_2_LD_12_RN_12_RD_18_1.png","C_Dist_500_LN_2_LD_12_RN_4_RD_6_1.png","C_Dist_500_LN_2_LD_24_RN_7_RD_12_1.png","C_Dist_500_LN_2_LD_5_RN_18_RD_20_1.png","C_Dist_500_LN_2_LD_5_RN_9_RD_10_1.png","C_Dist_500_LN_2_LD_8_RN_12_RD_16_1.png","C_Dist_500_LN_2_LD_8_RN_21_RD_28_1.png","C_Dist_500_LN_3_LD_10_RN_4_RD_5_1.png","C_Dist_500_LN_3_LD_12_RN_15_RD_20_1.png","C_Dist_500_LN_3_LD_30_RN_6_RD_10_1.png","C_Dist_500_LN_3_LD_8_RN_14_RD_16_1.png","C_Dist_500_LN_4_LD_16_RN_15_RD_20_1.png","C_Dist_500_LN_4_LD_24_RN_12_RD_18_1.png","C_Dist_500_LN_5_LD_14_RN_6_RD_7_1.png","C_Dist_500_LN_7_LD_21_RN_20_RD_24_1.png","C_Dist_500_LN_7_LD_28_RN_12_RD_16_1.png","C_Dist_500_LN_7_LD_28_RN_9_RD_12_1.png","C_Dist_500_LN_9_LD_27_RN_20_RD_24_1.png"]],"dist500_I":[["I_Dist_500_LN_2_LD_3_RN_4_RD_24_0.png","I_Dist_500_LN_5_LD_6_RN_6_RD_18_0.png","I_Dist_500_LN_7_LD_8_RN_9_RD_24_0.png"],["I_Dist_500_LN_7_LD_21_RN_5_RD_6_1.png"]],"dist500_S":[["E_Dist_500_LN_6_LD_8_RN_6_RD_24_0.png"],["E_Dist_500_LN_2_LD_12_RN_2_RD_3_1.png","E_Dist_500_LN_6_LD_24_RN_6_RD_8_1.png"]]}},{"start_time":1552327370906,"click_time":1552327372579,"finger_time":1552327372019,"fix_duration":1346.2866685887082,"trial":1,"RT":1113,"MT":560,"sideResp":2,"stimulus":[],"xmouse":[805,805,805,805,805,805,805,805,805,805,805,805,805,805,805,805,805,805,805,805,805,805,805,805,805,805,805,805,805,805,805,805,805,805,803,803,803,803,803,803,803,803,803,803,803,803,803,803,803,803,803,803,803,803,807,814,816,816,816,816,816,816,816,820,830,905,956,1002,1036,1066,1130,1163,1180,1229,1246,1253,1253,1253,1251,1241,1191,1173,1159,1151],"ymouse":[611,611,611,611,611,611,611,611,611,611,611,611,611,611,611,611,611,611,611,611,611,611,611,611,611,611,611,611,611,611,611,611,611,611,611,611,611,611,611,611,611,611,611,611,611,611,611,611,611,611,611,611,607,602,590,566,562,562,562,562,562,562,562,560,554,496,440,381,318,260,130,52,10,0,0,0,0,0,0,0,23,35,50,63],"timestamp_mouse":[25,32,53,73,92,112,131,152,173,192,213,233,253,273,293,311,333,353,372,393,412,433,452,472,492,512,533,552,573,592,613,631,653,673,693,712,733,753,773,792,812,833,853,872,892,913,933,952,973,992,1012,1031,1053,1072,1092,1113,1133,1153,1172,1192,1213,1233,1252,1272,1293,1312,1332,1352,1373,1392,1412,1432,1452,1473,1493,1512,1532,1553,1572,1592,1613,1632,1652,1672],"xSR":741.5,"ySR":573.95,"xT1":424.9,"yT1":0,"xT2":1058.1,"yT2":0,"toosoon":0,"cond_shown":"Congruent","ratio_trial":100,"L_num":11,"L_den":22,"R_num":4,"R_den":10,"correct_side":1,"subjID":"NicolasBeltranSilva23","gender":"0","school":"4","age":"8"},{"start_time":1552327378356,"click_time":1552327379338,"finger_time":1552327378699,"fix_duration":1035.7148738652104,"trial":2,"RT":343,"MT":639,"sideResp":1,"stimulus":[],"xmouse":[789,789,789,789,789,789,789,789,789,789,789,789,789,789,789,789,787,782,767,764,760,760,760,757,757,759,760,760,760,761,762,762,762,762,761,751,734,721,708,664,635,612,591,580,563,558,548,540,532,521],"ymouse":[627,627,627,627,627,627,627,627,627,627,627,627,627,627,627,606,581,552,502,473,441,397,340,211,181,151,150,150,150,152,155,155,155,155,156,156,153,148,137,102,85,75,66,64,63,63,63,63,62,62],"timestamp_mouse":[12,34,42,62,82,103,122,141,163,183,203,223,243,261,282,302,322,343,363,382,403,422,442,463,481,502,523,543,562,582,602,622,642,662,682,702,721,741,762,782,802,822,841,862,882,903,922,942,962,982],"xSR":741.5,"ySR":573.95,"xT1":424.9,"yT1":0,"xT2":1058.1,"yT2":0,"toosoon":0,"cond_shown":"Congruent","ratio_trial":200,"L_num":1,"L_den":2,"R_num":21,"R_den":30,"correct_side":2,"subjID":"NicolasBeltranSilva23","gender":"0","school":"4","age":"8"},{"start_time":1552327381409,"click_time":1552327383320,"finger_time":1552327383038,"fix_duration":250,"trial":3,"RT":1629,"MT":282,"sideResp":2,"stimulus":[],"xmouse":[798,798,798,798,798,798,798,798,798,798,798,798,798,798,798,798,798,798,798,798,798,798,798,798,798,798,798,798,798,798,798,798,798,798,798,798,798,798,798,798,798,798,798,798,798,798,798,798,798,798,798,798,798,798,798,798,798,798,798,798,798,798,798,798,798,798,798,798,798,798,798,798,798,798,798,798,798,798,798,805,811,859,882,902,931,967,1031,1054,1077,1092,1105,1109,1109,1109,1109,1106],"ymouse":[639,639,639,639,639,639,639,639,639,639,639,639,639,639,639,639,639,639,639,639,639,639,639,639,639,639,639,639,639,639,639,639,639,639,639,639,639,639,639,639,639,639,639,639,639,639,639,639,639,639,639,639,639,639,639,639,639,639,639,639,639,639,639,639,639,639,639,639,639,639,639,639,639,639,639,639,639,639,639,638,632,596,584,570,553,527,451,404,353,306,237,173,146,122,100,86],"timestamp_mouse":[14,39,50,69,89,108,130,150,168,190,210,228,250,269,290,310,330,348,370,389,409,430,448,470,489,509,530,549,570,590,610,629,650,670,690,709,729,749,770,790,810,830,849,870,889,910,929,950,969,989,1010,1030,1050,1070,1088,1110,1130,1148,1170,1188,1210,1229,1250,1269,1288,1309,1330,1349,1370,1390,1409,1430,1449,1470,1488,1510,1529,1549,1570,1588,1609,1629,1649,1669,1690,1709,1729,1749,1769,1790,1810,1829,1849,1869,1890,1910],"xSR":741.5,"ySR":573.95,"xT1":424.9,"yT1":0,"xT2":1058.1,"yT2":0,"toosoon":0,"cond_shown":"Congruent","ratio_trial":100,"L_num":6,"L_den":20,"R_num":5,"R_den":25,"correct_side":1,"subjID":"NicolasBeltranSilva23","gender":"0","school":"4","age":"8"},{"start_time":1552327387572,"click_time":1552327388978,"finger_time":1552327388918,"fix_duration":250,"trial":4,"RT":1346,"MT":60,"sideResp":1,"stimulus":[],"xmouse":[788,788,788,788,788,788,788,788,788,788,788,788,788,788,788,788,788,788,788,788,788,786,786,787,787,787,787,787,787,787,787,787,787,787,787,787,787,787,787,787,787,787,787,787,787,787,787,785,782,780,780,780,780,780,780,780,780,780,780,780,780,780,780,780,780,779,779,768,724,550,497],"ymouse":[632,632,632,632,632,632,632,632,632,632,632,632,632,632,632,632,632,632,632,632,632,632,632,631,631,631,631,631,631,631,631,631,631,631,631,631,631,631,631,631,631,631,631,631,631,631,632,636,640,644,644,644,644,644,644,644,644,644,644,644,644,644,644,644,644,642,610,542,414,114,11],"timestamp_mouse":[19,42,46,66,87,105,127,147,165,186,206,227,246,267,285,305,327,347,367,385,406,427,447,466,485,506,527,547,565,586,607,626,647,667,685,707,726,746,767,787,807,827,846,867,886,907,927,946,967,986,1006,1026,1046,1067,1085,1107,1127,1147,1167,1187,1207,1226,1247,1267,1287,1305,1325,1346,1366,1386,1405],"xSR":741.5,"ySR":573.95,"xT1":424.9,"yT1":0,"xT2":1058.1,"yT2":0,"toosoon":0,"cond_shown":"Congruent","ratio_trial":200,"L_num":12,"L_den":15,"R_num":6,"R_den":10,"correct_side":1,"subjID":"NicolasBeltranSilva23","gender":"0","school":"4","age":"8"},{"start_time":1552327392091,"click_time":1552327394578,"finger_time":1552327393518,"fix_duration":250,"trial":5,"RT":1427,"MT":1060,"sideResp":2,"stimulus":[],"xmouse":[813,813,813,813,813,813,813,813,813,813,813,813,813,813,813,813,813,813,813,813,813,813,813,812,811,809,808,808,806,805,805,805,804,803,803,803,803,803,803,803,803,803,803,803,803,803,803,803,803,803,803,803,803,803,803,803,803,803,803,803,803,803,803,803,803,803,803,803,804,812,828,844,873,963,1007,1046,1069,1085,1104,1108,1112,1114,1114,1115,1118,1119,1120,1120,1120,1120,1120,1120,1120,1119,1119,1117,1117,1115,1115,1116,1120,1126,1129,1135,1137,1137,1137,1140,1140,1141,1141,1141,1141,1141,1141,1141,1140,1140,1139,1135,1134,1133,1132,1131,1131],"ymouse":[666,666,666,666,666,666,666,666,666,666,666,666,666,666,666,666,666,666,666,666,666,666,666,666,666,665,665,664,664,664,664,664,663,663,663,663,663,663,663,663,663,663,663,663,663,663,663,663,663,663,663,663,663,663,663,663,663,663,663,663,663,663,663,663,663,663,663,663,661,646,619,593,565,496,463,436,419,407,390,384,379,374,374,373,366,364,363,363,356,340,334,326,315,299,292,283,274,268,249,240,231,215,205,181,169,160,154,148,140,135,132,130,130,128,128,128,127,127,127,124,116,112,108,101,99],"timestamp_mouse":[12,34,47,68,86,107,127,148,168,187,208,228,247,267,288,307,328,348,367,388,407,427,447,466,487,508,528,548,568,587,606,628,648,668,686,708,727,747,767,787,808,828,848,866,888,908,928,946,966,988,1007,1028,1048,1067,1086,1108,1127,1148,1167,1187,1208,1228,1248,1268,1287,1306,1328,1347,1367,1387,1408,1427,1447,1467,1489,1507,1527,1547,1567,1587,1608,1628,1646,1667,1687,1708,1727,1747,1767,1788,1807,1827,1848,1867,1886,1907,1927,1948,1967,1986,2007,2027,2047,2067,2087,2107,2127,2148,2167,2187,2207,2228,2248,2267,2287,2307,2328,2348,2366,2387,2407,2427,2447,2467,2487],"xSR":741.5,"ySR":573.95,"xT1":424.9,"yT1":0,"xT2":1058.1,"yT2":0,"toosoon":0,"cond_shown":"Congruent","ratio_trial":200,"L_num":3,"L_den":12,"R_num":9,"R_den":20,"correct_side":2,"subjID":"NicolasBeltranSilva23","gender":"0","school":"4","age":"8"},{"start_time":1552327396896,"click_time":1552327398977,"finger_time":1552327397298,"fix_duration":716.0951918850412,"trial":6,"RT":402,"MT":1679,"sideResp":2,"stimulus":[],"xmouse":[802,802,802,802,802,802,802,802,802,802,801,799,799,799,799,799,799,799,799,799,809,822,843,868,904,912,915,915,915,915,908,897,887,880,875,873,873,872,871,867,861,855,849,847,843,843,843,843,843,842,840,840,839,839,839,839,839,839,839,839,839,839,839,839,839,839,839,839,839,839,839,839,846,867,911,928,937,942,942,944,944,946,947,952,960,965,971,976,983,1008,1021,1029,1035,1039,1044,1046,1051,1057,1063,1073,1077,1081,1087,1091,1096],"ymouse":[584,584,584,584,584,584,584,584,584,584,586,588,589,589,589,589,589,589,589,589,570,533,485,408,281,257,249,249,249,248,264,287,309,327,340,342,343,344,345,350,357,366,376,383,394,397,398,398,399,409,416,423,428,428,428,428,428,428,428,428,428,428,428,428,428,428,430,432,437,440,440,440,440,430,404,392,383,379,378,376,376,374,374,371,361,356,352,347,338,308,296,288,282,277,264,259,247,237,223,194,186,168,149,128,94],"timestamp_mouse":[11,22,44,62,83,103,122,142,163,182,202,221,242,261,282,301,322,342,362,381,402,422,442,463,483,503,523,542,562,581,603,621,641,663,682,701,723,743,761,781,801,822,842,863,882,902,921,943,963,981,1002,1021,1042,1062,1082,1102,1123,1142,1162,1182,1202,1222,1241,1262,1282,1302,1322,1343,1363,1382,1403,1422,1442,1463,1482,1503,1523,1542,1563,1582,1602,1623,1641,1661,1681,1702,1722,1741,1761,1782,1802,1821,1841,1861,1881,1903,1921,1941,1962,1982,2002,2022,2041,2063,2081],"xSR":741.5,"ySR":573.95,"xT1":424.9,"yT1":0,"xT2":1058.1,"yT2":0,"toosoon":0,"cond_shown":"Congruent","ratio_trial":100,"L_num":10,"L_den":25,"R_num":3,"R_den":10,"correct_side":1,"subjID":"NicolasBeltranSilva23","gender":"0","school":"4","age":"8"},{"start_time":1552327401679,"click_time":1552327403679,"finger_time":1552327402077,"fix_duration":698.9691925237425,"trial":7,"RT":398,"MT":1602,"sideResp":1,"stimulus":[],"xmouse":[792,792,792,792,792,792,792,792,792,792,792,792,792,792,792,792,792,792,792,796,805,808,809,809,809,809,809,809,807,807,803,797,795,795,795,795,795,795,795,795,795,795,795,795,795,795,795,795,795,795,795,795,795,795,795,795,795,795,795,795,795,795,795,795,795,795,795,795,795,795,795,795,795,795,795,795,795,795,794,790,768,752,711,699,676,654,651,651,651,651,651,632,611,575,543,529,526,526,525,518,506],"ymouse":[588,588,588,588,588,588,588,588,588,588,588,588,588,588,588,588,588,588,585,581,565,559,558,558,558,558,560,578,593,598,621,632,634,639,641,641,643,643,643,647,655,655,655,655,655,655,655,655,655,655,655,655,655,655,655,655,655,655,655,655,655,655,655,655,655,655,655,655,655,655,655,655,655,655,655,655,655,655,651,635,577,535,459,428,374,286,265,249,231,207,187,137,86,30,0,0,0,0,0,0,3],"timestamp_mouse":[1,19,38,58,78,99,119,140,160,179,198,220,238,259,280,300,319,338,359,378,398,418,439,459,480,499,519,539,559,580,599,618,639,659,679,700,720,740,758,780,798,820,838,860,879,898,920,939,960,980,999,1025,1038,1058,1078,1100,1118,1138,1160,1180,1200,1219,1240,1259,1278,1299,1320,1339,1358,1380,1398,1418,1439,1459,1479,1500,1518,1539,1560,1580,1600,1619,1639,1658,1679,1699,1719,1739,1758,1780,1799,1818,1838,1859,1879,1898,1919,1939,1958,1979,2000],"xSR":741.5,"ySR":573.95,"xT1":424.9,"yT1":0,"xT2":1058.1,"yT2":0,"toosoon":0,"cond_shown":"Incongruent","ratio_trial":300,"L_num":4,"L_den":20,"R_num":2,"R_den":4,"correct_side":2,"subjID":"NicolasBeltranSilva23","gender":"0","school":"4","age":"8"},{"start_time":1552327414220,"click_time":1552327418337,"finger_time":1552327417718,"fix_duration":1440.4764822262052,"trial":8,"RT":3498,"MT":619,"sideResp":1,"stimulus":[],"xmouse":[799,797,795,791,791,791,791,791,791,791,791,791,791,791,791,791,791,791,791,791,791,791,791,791,791,791,791,791,791,791,791,791,791,791,791,791,791,791,791,791,791,791,791,791,791,791,791,791,791,791,791,791,791,791,791,791,791,791,791,791,791,791,791,791,791,791,791,791,791,791,791,791,791,791,791,791,791,791,791,791,791,791,791,791,791,791,791,791,790,787,787,787,787,787,787,787,787,787,787,787,787,787,787,787,787,787,787,787,787,787,787,787,787,787,787,787,787,787,787,787,787,787,787,787,787,787,787,787,787,787,787,787,787,787,787,787,787,787,787,787,787,787,787,787,787,787,787,787,787,787,787,787,787,787,787,787,787,787,787,787,787,787,787,787,787,787,787,787,787,787,787,787,787,787,787,787,771,739,710,697,697,697,697,697,697,697,697,697,697,685,677,672,669,664,652,646,641,635,630,610,595,575,558,545,531,512],"ymouse":[628,627,626,626,626,626,626,626,626,626,626,626,626,626,626,626,626,626,626,626,626,626,626,626,626,626,626,626,626,626,626,626,626,626,626,626,626,626,626,626,626,626,626,626,626,626,626,626,626,626,626,626,626,626,626,626,626,626,626,626,626,626,626,626,626,626,626,626,626,626,626,626,626,626,626,626,626,626,626,626,626,626,626,626,626,626,626,626,625,616,614,612,611,608,606,605,605,605,605,605,605,605,605,605,605,605,605,605,605,605,605,605,605,605,605,605,605,605,605,605,605,605,605,605,605,605,605,605,605,605,605,605,605,605,605,605,605,605,605,605,605,605,605,605,605,605,605,605,605,605,605,605,605,605,605,605,605,605,605,605,605,605,605,605,605,605,605,605,605,605,605,605,605,604,560,518,448,370,295,210,175,147,114,76,40,28,23,21,20,18,18,18,18,18,18,18,18,18,18,18,18,18,18,21,27,34],"timestamp_mouse":[21,38,59,77,98,119,139,159,177,197,218,238,259,277,298,319,337,359,377,399,418,437,457,477,497,518,537,559,579,597,618,639,657,677,697,717,739,757,778,797,819,839,858,877,898,918,939,958,978,998,1018,1039,1059,1078,1097,1119,1137,1158,1179,1198,1219,1239,1258,1277,1297,1318,1339,1357,1377,1398,1418,1439,1457,1477,1499,1519,1539,1558,1578,1598,1618,1639,1659,1677,1698,1718,1738,1758,1779,1797,1818,1837,1857,1878,1898,1919,1938,1959,1978,1998,2019,2037,2058,2077,2099,2119,2138,2157,2178,2198,2219,2239,2258,2278,2297,2317,2338,2359,2377,2398,2418,2438,2457,2478,2498,2518,2539,2558,2579,2598,2618,2637,2657,2679,2698,2719,2738,2759,2779,2798,2817,2837,2858,2877,2897,2918,2939,2957,2979,2998,3018,3038,3058,3079,3099,3118,3138,3158,3179,3199,3218,3239,3258,3278,3298,3318,3338,3358,3377,3397,3419,3438,3459,3478,3498,3519,3538,3559,3578,3598,3617,3638,3659,3678,3698,3717,3738,3759,3779,3798,3817,3838,3858,3878,3897,3919,3938,3959,3978,3998,4018,4038,4058,4078,4097,4117],"xSR":741.5,"ySR":573.95,"xT1":424.9,"yT1":0,"xT2":1058.1,"yT2":0,"toosoon":0,"cond_shown":"Incongruent","ratio_trial":300,"L_num":4,"L_den":20,"R_num":2,"R_den":4,"correct_side":2,"subjID":"NicolasBeltranSilva23","gender":"0","school":"4","age":"8"},{"start_time":1552327421970,"click_time":1552327424578,"finger_time":1552327423598,"fix_duration":250,"trial":9,"RT":1628,"MT":980,"sideResp":2,"stimulus":[],"xmouse":[783,784,784,785,783,781,780,780,780,780,780,780,780,780,780,780,780,780,780,780,780,780,780,780,780,780,780,780,780,780,780,780,780,780,780,780,780,780,780,780,780,780,780,780,780,780,780,780,780,780,780,780,780,780,780,780,780,780,780,780,780,780,780,780,780,780,780,780,780,780,780,780,780,780,780,780,780,782,789,798,807,817,833,851,855,860,862,864,867,869,876,888,908,935,942,943,946,948,958,965,972,985,997,1030,1041,1045,1050,1050,1050,1050,1050,1050,1050,1050,1050,1050,1050,1050,1050,1050,1050,1050,1050,1050,1050,1050,1050,1051,1055,1057,1060],"ymouse":[610,610,610,612,616,620,622,622,622,622,622,622,622,622,622,622,622,622,622,622,622,622,622,622,622,622,622,622,622,622,622,622,622,622,622,622,622,622,622,622,622,622,622,622,622,622,622,622,622,622,622,622,622,622,622,622,622,622,622,622,622,622,622,622,622,622,622,622,622,622,622,622,622,622,622,622,622,622,615,604,592,569,514,410,392,382,379,374,367,360,351,339,326,306,300,300,299,296,286,279,267,250,230,161,130,108,98,97,97,97,97,97,95,95,95,95,95,95,95,95,95,95,95,95,95,95,95,94,92,89,89],"timestamp_mouse":[10,34,48,69,88,109,129,148,168,188,208,229,249,268,287,309,327,347,367,389,409,427,448,468,488,508,529,549,567,588,608,627,648,667,688,709,728,749,768,787,809,828,849,867,887,907,928,949,969,989,1007,1028,1048,1069,1087,1107,1127,1147,1167,1188,1208,1227,1247,1267,1287,1307,1327,1347,1367,1387,1407,1427,1447,1468,1487,1507,1527,1547,1567,1587,1609,1628,1647,1667,1687,1707,1728,1748,1767,1787,1808,1828,1848,1867,1887,1908,1928,1948,1967,1987,2008,2027,2048,2068,2087,2108,2128,2148,2168,2188,2208,2229,2248,2268,2289,2308,2327,2348,2368,2389,2408,2427,2447,2468,2487,2507,2527,2547,2567,2588,2608],"xSR":741.5,"ySR":573.95,"xT1":424.9,"yT1":0,"xT2":1058.1,"yT2":0,"toosoon":0,"cond_shown":"Congruent","ratio_trial":300,"L_num":1,"L_den":5,"R_num":6,"R_den":12,"correct_side":2,"subjID":"NicolasBeltranSilva23","gender":"0","school":"4","age":"8"},{"start_time":1552327426478,"click_time":1552327428279,"finger_time":1552327426577,"fix_duration":779.6203946649666,"trial":10,"RT":99,"MT":1702,"sideResp":2,"stimulus":[],"xmouse":[789,789,789,789,794,801,807,810,810,810,810,807,801,790,785,781,778,776,776,776,776,776,776,776,778,783,785,786,786,786,786,786,786,786,786,786,786,786,786,786,786,786,786,786,786,786,786,786,790,792,797,804,813,820,825,825,825,825,833,848,887,929,978,1109,1185,1249,1310,1320,1320,1320,1316,1316,1311,1304,1299,1296,1290,1279,1228,1207,1192,1190,1190,1190,1190,1190,1190,1187,1169,1159,1155],"ymouse":[588,588,588,588,580,570,557,548,548,548,551,559,579,618,640,653,661,665,665,665,665,665,665,665,659,648,633,624,610,608,606,605,605,605,605,605,605,605,605,605,605,605,605,605,605,605,605,603,597,591,578,561,538,516,501,501,501,501,489,465,415,345,212,0,0,0,0,0,0,12,65,114,148,175,181,181,181,171,88,32,0,0,0,0,0,0,0,0,7,18,30],"timestamp_mouse":[10,20,42,60,81,99,119,139,160,181,199,220,240,260,279,300,321,339,360,381,399,419,440,461,480,499,520,540,560,579,602,619,640,661,680,700,720,739,760,781,799,820,839,861,881,901,920,941,960,981,999,1020,1040,1059,1079,1101,1120,1141,1160,1181,1200,1221,1241,1261,1280,1300,1321,1341,1359,1380,1401,1420,1440,1461,1481,1500,1520,1540,1561,1580,1600,1620,1640,1661,1680,1701,1720,1739,1760,1779,1800],"xSR":741.5,"ySR":573.95,"xT1":424.9,"yT1":0,"xT2":1058.1,"yT2":0,"toosoon":0,"cond_shown":"Incongruent","ratio_trial":300,"L_num":1,"L_den":2,"R_num":3,"R_den":15,"correct_side":1,"subjID":"NicolasBeltranSilva23","gender":"0","school":"4","age":"8"},{"start_time":1552327430669,"click_time":1552327432278,"finger_time":1552327431719,"fix_duration":250,"trial":11,"RT":1050,"MT":559,"sideResp":2,"stimulus":[],"xmouse":[817,817,817,817,817,817,817,817,817,817,817,817,817,817,817,817,817,817,817,817,817,817,817,817,817,817,817,817,817,817,817,817,817,817,817,817,817,817,817,817,817,817,817,817,817,817,817,817,817,821,830,839,847,848,848,840,832,829,828,828,828,845,868,905,974,996,1004,1010,1018,1021,1026,1033,1039,1043,1047,1047,1049,1050,1052,1057,1066],"ymouse":[639,639,639,639,639,639,639,639,639,639,639,639,639,639,639,639,639,639,639,639,639,639,639,639,639,639,639,639,639,639,639,639,639,639,639,639,639,639,639,639,639,639,639,639,639,639,639,639,639,637,619,593,571,552,548,555,569,572,572,572,569,549,526,474,381,331,309,286,223,202,180,162,149,137,127,122,120,114,110,102,96],"timestamp_mouse":[13,33,49,70,90,108,128,150,168,190,209,229,250,268,288,308,328,349,368,388,409,429,450,468,488,509,529,550,569,588,608,629,650,668,688,709,728,748,768,790,810,828,848,870,888,908,930,949,969,989,1008,1029,1050,1069,1088,1109,1130,1149,1169,1188,1208,1229,1248,1268,1288,1308,1329,1348,1369,1388,1409,1430,1450,1469,1489,1509,1530,1548,1569,1588,1609],"xSR":741.5,"ySR":573.95,"xT1":424.9,"yT1":0,"xT2":1058.1,"yT2":0,"toosoon":0,"cond_shown":"Congruent","ratio_trial":300,"L_num":1,"L_den":5,"R_num":6,"R_den":12,"correct_side":2,"subjID":"NicolasBeltranSilva23","gender":"0","school":"4","age":"8"},{"start_time":1552327434514,"click_time":1552327435858,"finger_time":1552327434717,"fix_duration":1295.1349060257378,"trial":12,"RT":203,"MT":1141,"sideResp":1,"stimulus":[],"xmouse":[764,764,764,764,764,768,776,792,799,807,812,819,845,858,869,875,880,882,882,882,879,875,866,861,860,858,857,856,856,856,856,856,856,856,856,856,856,856,856,856,856,856,856,852,847,841,834,821,816,812,809,808,808,805,801,797,790,778,774,772,772,771,752,717,656,584,509,454],"ymouse":[620,620,620,620,619,617,612,596,586,578,570,559,508,480,458,433,418,407,407,407,407,407,427,441,453,463,472,478,478,478,478,478,478,478,478,478,478,478,478,478,478,478,484,492,500,508,515,530,532,533,533,533,533,534,536,540,546,555,557,560,560,561,542,481,377,254,125,27],"timestamp_mouse":[19,43,44,65,84,103,124,144,165,185,203,223,243,264,284,305,325,344,364,384,403,424,443,463,483,504,524,544,563,584,605,624,644,664,683,703,723,745,765,784,803,823,844,865,883,905,925,943,963,983,1003,1023,1044,1064,1085,1105,1125,1144,1163,1185,1205,1225,1244,1263,1283,1304,1324,1343],"xSR":741.5,"ySR":573.95,"xT1":424.9,"yT1":0,"xT2":1058.1,"yT2":0,"toosoon":0,"cond_shown":"Incongruent","ratio_trial":300,"L_num":8,"L_den":10,"R_num":9,"R_den":18,"correct_side":1,"subjID":"NicolasBeltranSilva23","gender":"0","school":"4","age":"8"},{"start_time":1552327440937,"click_time":1552327444298,"finger_time":1552327443178,"fix_duration":256.92369248086754,"trial":13,"RT":2241,"MT":1120,"sideResp":1,"stimulus":[],"xmouse":[782,782,782,782,782,782,782,782,782,782,782,782,782,782,782,782,782,782,782,782,782,782,782,782,782,782,782,782,782,782,782,781,781,781,781,781,781,781,781,781,781,781,781,781,781,781,781,781,781,781,781,781,781,781,781,781,781,781,781,781,781,781,781,781,781,781,781,781,781,781,781,781,781,781,781,781,781,781,781,781,781,781,782,783,783,783,783,783,783,783,783,783,785,785,786,787,787,787,787,787,787,784,778,775,770,770,770,770,770,770,770,770,770,774,774,774,773,768,768,768,767,765,735,725,723,723,723,717,715,715,715,715,714,709,696,665,650,591,590,590,589,588,588,588,586,586,582,577,577,577,577,577,577,577,577,574,564,510,501,500,500,500,500,500,500,500,502,506,506],"ymouse":[667,667,667,667,667,667,667,667,667,667,667,667,667,667,667,667,667,667,667,667,667,654,651,651,651,651,651,651,651,650,650,650,650,650,650,650,650,650,650,650,650,650,650,650,650,650,649,648,648,648,648,648,648,648,648,648,648,648,648,648,648,648,648,648,648,648,648,648,648,648,648,648,648,648,648,648,648,648,648,648,647,645,638,637,637,637,637,637,637,637,637,637,635,626,618,616,616,616,616,616,616,608,597,586,576,576,576,576,576,576,576,576,572,546,533,505,489,482,482,482,481,480,476,476,474,474,474,464,460,460,460,460,460,459,458,441,434,402,401,401,401,401,401,401,401,393,376,362,359,358,358,358,358,358,356,344,317,192,168,157,157,157,157,157,157,155,143,112,97],"timestamp_mouse":[10,21,40,61,82,100,121,142,160,181,202,222,241,262,281,300,321,341,360,380,402,422,441,461,480,502,521,540,562,580,601,621,641,662,682,702,721,742,761,782,800,820,840,862,880,901,920,941,962,981,1000,1020,1042,1062,1080,1100,1121,1142,1161,1180,1200,1221,1242,1262,1280,1301,1321,1341,1361,1381,1400,1420,1442,1460,1480,1502,1520,1541,1562,1582,1601,1621,1640,1660,1681,1701,1722,1740,1761,1780,1801,1822,1841,1861,1880,1901,1920,1942,1962,1981,2000,2020,2040,2061,2080,2102,2120,2141,2161,2180,2201,2221,2241,2261,2282,2301,2322,2340,2361,2380,2401,2422,2441,2461,2480,2501,2521,2541,2561,2582,2602,2622,2641,2660,2681,2701,2720,2740,2762,2781,2801,2821,2840,2860,2881,2900,2920,2941,2962,2981,3000,3020,3041,3060,3081,3101,3122,3142,3161,3181,3200,3221,3242,3262,3282,3301,3321,3342,3361],"xSR":741.5,"ySR":573.95,"xT1":424.9,"yT1":0,"xT2":1058.1,"yT2":0,"toosoon":0,"cond_shown":"Incongruent","ratio_trial":100,"L_num":8,"L_den":16,"R_num":6,"R_den":10,"correct_side":2,"subjID":"NicolasBeltranSilva23","gender":"0","school":"4","age":"8"},{"start_time":1552327446665,"click_time":1552327449498,"finger_time":1552327447978,"fix_duration":626.5781258633393,"trial":14,"RT":1313,"MT":1520,"sideResp":2,"stimulus":[],"xmouse":[778,778,778,778,778,778,778,778,778,778,782,783,783,783,783,783,783,783,783,783,783,783,783,783,783,783,783,783,783,789,806,809,809,809,809,809,809,809,809,809,809,809,809,809,809,809,809,809,810,810,810,810,810,810,810,810,810,810,810,810,810,810,810,812,815,852,876,883,896,898,898,898,898,900,902,902,902,917,917,917,919,919,919,919,919,919,923,923,923,923,923,955,958,962,962,962,962,962,964,966,966,966,966,979,982,984,987,987,989,994,994,994,994,994,994,1038,1038,1038,1038,1038,1038,1038,1038,1038,1038,1038,1038,1038,1038,1038,1038,1038,1038,1038,1038,1038,1038,1038,1038,1038,1039,1059],"ymouse":[603,603,603,603,603,603,603,603,603,605,609,609,609,609,609,609,609,609,609,609,609,609,609,609,609,609,609,609,609,606,583,581,579,579,579,579,579,579,579,579,579,579,579,579,579,579,579,584,586,587,587,587,587,587,587,587,587,587,587,587,587,587,587,589,589,579,573,572,567,565,565,565,565,565,565,565,565,537,533,530,525,525,525,525,525,525,523,523,523,523,523,448,441,433,432,432,432,432,431,431,431,431,431,384,370,359,350,346,344,337,337,337,337,337,337,172,120,109,109,109,109,109,109,107,107,105,88,78,74,70,70,70,70,70,70,70,70,70,70,69,67,62],"timestamp_mouse":[21,49,54,74,94,114,132,152,174,194,213,232,252,273,293,312,333,352,373,392,413,432,453,473,493,512,534,554,574,594,613,632,652,674,694,713,733,753,773,792,812,833,853,873,892,913,933,953,974,993,1014,1033,1054,1073,1092,1114,1133,1152,1173,1193,1212,1232,1252,1273,1292,1313,1333,1352,1372,1392,1413,1433,1454,1474,1493,1513,1533,1553,1572,1593,1613,1632,1654,1674,1693,1714,1733,1754,1772,1793,1813,1832,1853,1873,1892,1913,1934,1953,1973,1994,2014,2032,2053,2073,2094,2114,2132,2152,2172,2193,2212,2233,2252,2272,2293,2312,2333,2353,2373,2393,2421,2433,2453,2473,2492,2512,2532,2552,2573,2593,2614,2633,2653,2672,2692,2713,2734,2754,2773,2792,2813,2833],"xSR":741.5,"ySR":573.95,"xT1":424.9,"yT1":0,"xT2":1058.1,"yT2":0,"toosoon":0,"cond_shown":"Incongruent","ratio_trial":100,"L_num":3,"L_den":5,"R_num":8,"R_den":16,"correct_side":1,"subjID":"NicolasBeltranSilva23","gender":"0","school":"4","age":"8"},{"start_time":1552327451689,"click_time":1552327454958,"finger_time":1552327453258,"fix_duration":490.0056428094267,"trial":15,"RT":1569,"MT":1700,"sideResp":2,"stimulus":[],"xmouse":[784,784,782,782,782,782,782,782,782,782,782,782,782,782,782,782,782,782,782,782,782,782,782,782,782,782,782,782,782,782,782,782,782,782,782,782,782,782,782,782,782,782,782,782,782,783,783,783,783,783,783,783,783,783,783,783,783,783,783,783,783,783,783,783,783,783,783,783,783,783,783,783,783,783,783,783,783,783,749,727,713,713,713,713,713,713,713,716,716,716,746,746,746,746,746,746,746,734,705,665,603,588,576,570,565,562,561,559,556,554,553,553,553,553,553,553,553,559,568,580,604,630,646,676,707,743,777,789,798,805,817,837,852,860,868,883,913,925,937,942,956,959,962,970,977,987,1009,1020,1033,1036,1040,1041,1041,1041,1041,1041,1046,1051,1053,1057,1064,1067,1070,1073],"ymouse":[588,588,594,594,594,594,594,594,594,594,594,598,598,598,598,606,606,606,606,606,606,606,606,606,606,606,606,606,606,606,606,606,606,606,606,606,606,606,606,606,606,606,606,606,606,606,606,606,606,606,606,606,606,606,606,606,606,606,606,606,606,606,606,606,606,606,606,606,606,594,586,586,585,585,585,582,582,582,457,391,346,344,344,344,344,344,344,337,337,337,103,32,0,0,0,0,0,0,0,0,0,0,0,0,0,0,0,0,0,3,6,10,13,21,42,51,53,58,64,69,72,76,82,94,108,123,140,150,159,168,180,204,215,218,219,219,219,219,219,218,217,216,214,210,206,200,187,181,173,170,167,165,165,165,165,165,157,149,142,134,116,109,103,96],"timestamp_mouse":[10,29,48,68,90,108,129,149,169,189,209,229,248,268,289,309,328,350,370,389,408,429,448,470,489,509,528,548,568,589,609,630,650,668,690,708,728,750,770,788,808,828,849,870,889,910,930,948,970,989,1009,1028,1048,1069,1089,1109,1130,1149,1170,1188,1209,1229,1250,1269,1288,1308,1329,1350,1370,1388,1408,1428,1450,1470,1488,1508,1529,1548,1569,1588,1609,1629,1649,1669,1689,1708,1729,1748,1768,1789,1809,1828,1850,1869,1889,1909,1929,1949,1969,1988,2010,2028,2048,2069,2088,2109,2129,2150,2170,2190,2210,2229,2249,2269,2289,2309,2328,2349,2369,2388,2409,2429,2449,2469,2489,2509,2529,2550,2569,2590,2610,2628,2648,2670,2688,2708,2728,2748,2768,2789,2808,2829,2850,2869,2890,2909,2930,2948,2969,2988,3008,3029,3049,3070,3089,3109,3128,3148,3168,3188,3208,3229,3249,3269],"xSR":741.5,"ySR":573.95,"xT1":424.9,"yT1":0,"xT2":1058.1,"yT2":0,"toosoon":0,"cond_shown":"Congruent","ratio_trial":200,"L_num":8,"L_den":15,"R_num":2,"R_den":6,"correct_side":1,"subjID":"NicolasBeltranSilva23","gender":"0","school":"4","age":"8"},{"start_time":1552327460740,"click_time":1552327463337,"finger_time":1552327462238,"fix_duration":622.0033228689011,"trial":16,"RT":1498,"MT":1099,"sideResp":1,"stimulus":[],"xmouse":[774,774,774,774,779,779,779,779,779,779,779,779,779,779,779,779,779,779,779,779,779,779,780,780,780,780,780,780,780,780,780,780,780,780,779,779,779,779,779,779,779,779,779,779,779,779,779,779,779,779,779,779,779,779,779,779,779,779,779,779,779,779,779,779,779,779,779,779,779,779,779,779,776,762,755,725,708,700,700,699,698,696,696,696,696,696,696,696,696,696,696,696,696,696,696,696,556,508,484,480,480,480,478,476,474,474,474,474,475,476,476,479,479,479,476,476,476,476,476,476,476,476,476,476,476,476,476,476,468],"ymouse":[584,584,584,584,584,584,584,584,585,588,591,594,596,596,596,596,598,598,598,598,598,598,599,601,601,602,602,602,602,602,602,602,602,602,604,604,604,604,604,604,604,604,604,604,604,604,604,604,604,604,604,604,604,604,604,604,604,604,604,604,604,604,604,604,604,604,604,604,604,604,604,603,585,550,537,493,477,470,470,470,469,469,469,469,469,469,469,469,469,469,469,469,469,469,469,469,267,202,183,179,179,179,179,180,182,182,182,182,182,182,182,179,159,144,133,128,127,127,127,127,125,122,122,122,122,122,122,122,67],"timestamp_mouse":[41,57,77,98,118,138,158,178,197,218,237,258,277,298,319,338,358,378,399,417,438,459,477,498,517,539,559,579,598,617,637,657,677,697,718,738,757,778,797,817,839,858,878,898,918,938,959,978,997,1017,1037,1058,1078,1099,1117,1137,1157,1178,1198,1218,1239,1257,1277,1298,1317,1338,1357,1377,1398,1417,1438,1457,1478,1498,1518,1537,1557,1579,1599,1618,1638,1659,1678,1697,1717,1738,1758,1779,1797,1818,1837,1858,1877,1897,1917,1937,1958,1977,1998,2018,2038,2058,2077,2097,2118,2137,2157,2177,2197,2217,2239,2258,2277,2298,2319,2338,2358,2378,2398,2417,2437,2458,2477,2498,2518,2538,2557,2577,2597],"xSR":741.5,"ySR":573.95,"xT1":424.9,"yT1":0,"xT2":1058.1,"yT2":0,"toosoon":0,"cond_shown":"Incongruent","ratio_trial":100,"L_num":4,"L_den":8,"R_num":8,"R_den":20,"correct_side":1,"subjID":"NicolasBeltranSilva23","gender":"0","school":"4","age":"8"},{"start_time":1552327465151,"click_time":1552327467838,"finger_time":1552327466018,"fix_duration":250,"trial":17,"RT":867,"MT":1820,"sideResp":1,"stimulus":[],"xmouse":[782,782,782,782,782,782,782,782,782,782,782,782,782,782,782,782,782,782,782,782,782,782,782,782,782,782,782,782,780,780,780,780,780,780,780,780,780,780,780,780,780,780,780,780,780,780,780,780,780,780,780,780,780,780,778,778,778,778,778,778,778,770,770,774,783,793,797,806,806,806,806,806,930,942,958,970,973,980,983,997,1005,1009,1009,1009,1009,1009,1010,1015,1015,1027,1030,1032,1032,1032,1032,1032,1032,1034,1034,1034,1034,1034,1036,1036,1036,1036,1036,1036,1033,1027,1027,1027,1027,1027,900,867,808,738,670,582,557,526,520,506,484,483,483,483,483,484,485,487,489,489,489],"ymouse":[601,601,601,601,601,601,601,601,601,601,601,601,601,601,601,601,592,581,577,577,577,577,577,577,577,577,577,576,578,578,578,578,578,578,578,578,577,575,575,575,575,575,575,573,573,573,573,573,573,573,573,573,573,573,588,588,588,588,588,588,588,604,602,596,583,576,574,567,567,567,567,567,447,429,390,366,359,347,338,313,302,295,295,295,295,295,294,285,285,248,238,233,231,231,231,231,231,228,222,222,222,222,214,214,213,213,213,213,213,217,217,217,217,217,185,143,89,46,14,0,0,0,0,0,0,0,0,0,0,0,0,0,0,0,4],"timestamp_mouse":[12,36,48,66,86,108,126,147,166,186,207,226,246,268,286,306,326,347,366,386,407,428,446,467,487,508,528,547,567,586,607,627,648,667,688,707,727,747,768,787,806,826,847,867,887,907,928,947,967,986,1006,1026,1046,1066,1086,1106,1126,1146,1168,1188,1207,1227,1248,1267,1286,1316,1327,1347,1366,1386,1407,1426,1446,1468,1487,1508,1526,1547,1566,1587,1606,1626,1647,1668,1687,1707,1727,1747,1766,1787,1806,1827,1847,1866,1886,1908,1928,1947,1966,1986,2008,2027,2047,2068,2086,2106,2126,2147,2167,2186,2206,2226,2246,2266,2286,2307,2327,2347,2366,2388,2406,2426,2447,2467,2486,2508,2527,2547,2567,2587,2606,2627,2646,2666,2686],"xSR":741.5,"ySR":573.95,"xT1":424.9,"yT1":0,"xT2":1058.1,"yT2":0,"toosoon":0,"cond_shown":"Congruent","ratio_trial":300,"L_num":1,"L_den":30,"R_num":8,"R_den":24,"correct_side":2,"subjID":"NicolasBeltranSilva23","gender":"0","school":"4","age":"8"},{"start_time":1552327469517,"click_time":1552327471759,"finger_time":1552327469838,"fix_duration":277.10784459165006,"trial":18,"RT":321,"MT":1921,"sideResp":2,"stimulus":[],"xmouse":[791,791,791,791,791,791,791,791,791,791,791,788,785,785,785,785,777,777,777,777,777,777,777,777,777,777,777,777,781,781,799,809,812,813,813,813,813,813,813,813,813,813,816,817,820,821,821,821,821,821,823,826,826,862,883,902,914,918,918,918,918,918,918,918,1006,1010,1013,1013,1013,1013,1013,1013,1016,1016,1016,1016,1036,1040,1043,1046,1048,1048,1048,1050,1055,1055,1055,1055,1063,1067,1068,1071,1071,1072,1077,1077,1077,1077,1077,1077,1108,1108,1108,1109,1109,1109,1109,1109,1109,1110,1111,1111,1112],"ymouse":[659,659,659,659,659,659,659,659,659,659,659,660,662,662,662,662,674,674,674,674,674,674,674,674,674,674,674,674,674,674,668,658,656,656,656,656,656,656,656,656,653,642,627,608,592,590,590,590,590,590,589,586,586,557,539,523,513,509,509,509,509,509,509,509,410,390,370,368,368,368,368,368,363,363,363,363,300,287,278,271,266,266,265,263,259,259,259,259,231,224,220,213,212,211,203,203,203,203,203,203,139,126,122,120,119,119,119,119,119,116,113,113,98],"timestamp_mouse":[1,21,42,60,80,101,121,140,161,180,200,220,240,261,281,300,321,340,360,380,400,420,441,460,480,500,521,542,561,580,600,620,640,661,681,700,721,742,760,780,801,820,841,861,880,900,920,942,962,981,1000,1021,1041,1061,1081,1102,1121,1141,1161,1181,1201,1222,1241,1260,1282,1301,1320,1340,1361,1380,1401,1420,1441,1460,1480,1501,1522,1542,1561,1581,1600,1621,1641,1661,1680,1701,1721,1740,1761,1780,1800,1820,1840,1860,1881,1901,1920,1941,1960,1981,2001,2020,2041,2061,2081,2101,2121,2142,2160,2181,2200,2220,2242],"xSR":741.5,"ySR":573.95,"xT1":424.9,"yT1":0,"xT2":1058.1,"yT2":0,"toosoon":0,"cond_shown":"Incongruent","ratio_trial":200,"L_num":3,"L_den":4,"R_num":11,"R_den":20,"correct_side":1,"subjID":"NicolasBeltranSilva23","gender":"0","school":"4","age":"8"},{"start_time":1552327482217,"click_time":1552327484358,"finger_time":1552327482778,"fix_duration":678.3644343190829,"trial":19,"RT":561,"MT":1580,"sideResp":1,"stimulus":[],"xmouse":[789,789,789,785,785,785,788,788,788,788,788,788,788,788,788,788,789,789,790,790,790,790,790,790,790,790,790,790,790,790,790,790,790,790,790,790,790,790,790,790,790,791,792,792,792,792,792,792,792,792,792,792,792,751,700,681,670,664,664,664,666,671,685,685,685,685,685,685,685,685,685,685,685,685,685,686,687,694,696,696,697,697,697,697,697,697,696,690,669,645,617,599,582,568,559,554,550,549,549,549,549,549,549,549,548,545,530,511],"ymouse":[625,625,625,632,632,628,622,622,622,622,622,622,622,622,622,622,621,614,610,610,610,610,610,610,610,609,597,586,557,548,545,543,543,543,543,543,543,543,543,541,538,537,535,534,534,534,534,534,534,534,534,534,531,503,489,486,486,484,484,484,478,466,435,435,435,435,435,435,435,435,435,435,435,435,435,429,423,370,346,331,323,320,320,320,320,320,316,302,264,232,195,172,150,132,128,128,127,127,127,127,127,127,127,127,127,123,111,98],"timestamp_mouse":[10,20,41,60,80,100,121,141,162,180,201,220,242,261,282,301,322,340,361,380,401,421,441,461,481,501,521,541,561,581,602,621,642,661,680,700,720,740,760,781,801,822,842,861,881,900,920,942,961,980,1000,1020,1040,1060,1081,1101,1121,1142,1162,1182,1201,1222,1241,1260,1280,1301,1321,1341,1361,1380,1400,1420,1440,1461,1480,1502,1520,1540,1560,1580,1601,1621,1640,1661,1681,1701,1720,1741,1762,1781,1802,1822,1841,1861,1880,1901,1920,1941,1961,1980,2001,2020,2041,2060,2081,2102,2121,2141],"xSR":741.5,"ySR":573.95,"xT1":424.9,"yT1":0,"xT2":1058.1,"yT2":0,"toosoon":0,"cond_shown":"Congruent","ratio_trial":100,"L_num":3,"L_den":6,"R_num":2,"R_den":5,"correct_side":1,"subjID":"NicolasBeltranSilva23","gender":"0","school":"4","age":"8"},{"start_time":1552327488737,"click_time":1552327491699,"finger_time":1552327489777,"fix_duration":1498.9501781795368,"trial":20,"RT":1040,"MT":1922,"sideResp":1,"stimulus":[],"xmouse":[781,785,792,794,794,794,794,794,794,794,794,794,794,794,794,794,794,794,794,794,794,794,794,794,794,794,794,794,794,794,794,794,794,794,794,794,794,794,794,794,795,795,795,795,795,795,795,795,795,794,794,774,768,767,767,767,767,767,767,767,767,767,767,767,765,764,762,761,761,761,761,761,754,741,717,694,677,657,655,655,655,655,655,655,655,655,655,649,641,635,629,626,625,624,622,619,615,602,589,575,560,552,549,547,547,547,547,547,547,547,547,547,549,551,553,554,555,555,555,555,555,555,555,553,551,550,549,546,546,546,546,546,546,546,546,546,546,546,546,545,544,542,537,536,536,536,535,532,519],"ymouse":[641,641,636,634,634,634,634,634,634,634,634,634,634,634,634,634,634,634,634,634,634,634,634,634,634,634,634,634,634,634,634,634,634,634,634,634,634,634,634,634,632,629,624,623,623,623,623,622,620,616,616,579,561,543,542,542,542,542,542,542,542,542,542,531,514,499,491,487,486,485,475,464,430,410,379,357,342,327,325,325,325,325,325,325,324,314,307,277,256,241,229,225,222,222,221,214,206,182,166,153,140,129,121,120,120,120,120,120,120,120,120,120,118,117,113,112,111,111,111,110,109,107,103,100,98,97,96,92,92,92,92,90,88,86,85,84,83,81,79,77,77,75,73,73,73,73,73,71,70],"timestamp_mouse":[1,20,41,60,82,101,120,140,162,182,200,221,240,261,282,301,320,341,362,381,400,420,440,461,481,500,520,541,560,581,600,620,642,662,681,701,721,741,761,781,800,820,840,861,880,900,920,940,961,981,1001,1020,1040,1061,1080,1101,1121,1141,1160,1181,1201,1221,1241,1261,1280,1302,1321,1341,1360,1380,1401,1421,1442,1460,1480,1501,1521,1541,1560,1580,1600,1620,1640,1662,1682,1701,1720,1740,1760,1781,1800,1820,1840,1860,1880,1900,1920,1941,1960,1980,2000,2020,2040,2060,2080,2100,2120,2140,2160,2181,2200,2221,2242,2260,2282,2301,2322,2342,2361,2381,2401,2421,2441,2460,2480,2500,2521,2541,2561,2581,2601,2620,2641,2662,2681,2702,2721,2741,2760,2781,2802,2821,2841,2860,2880,2901,2920,2941,2962],"xSR":741.5,"ySR":573.95,"xT1":424.9,"yT1":0,"xT2":1058.1,"yT2":0,"toosoon":0,"cond_shown":"Incongruent","ratio_trial":100,"L_num":6,"L_den":12,"R_num":3,"R_den":5,"correct_side":2,"subjID":"NicolasBeltranSilva23","gender":"0","school":"4","age":"8"},{"start_time":1552327497877,"click_time":1552327499737,"finger_time":1552327499218,"fix_duration":418.1269090606573,"trial":21,"RT":1341,"MT":519,"sideResp":1,"stimulus":[],"xmouse":[772,772,772,772,772,772,772,772,772,772,772,772,772,772,772,772,774,775,775,776,776,776,780,781,781,781,783,783,783,783,783,783,783,783,783,783,783,783,783,783,783,783,783,783,783,783,783,783,783,783,783,783,783,783,783,783,783,783,783,783,783,783,783,783,784,783,765,758,754,751,749,747,743,734,728,719,711,707,703,696,690,683,653,616,557,540,530,518,508,500,494,492,492,492],"ymouse":[624,624,624,624,624,624,624,624,624,624,624,624,624,624,624,624,624,624,624,624,624,624,625,625,625,625,625,625,625,625,625,625,625,625,625,625,625,625,625,625,625,625,625,625,625,625,625,625,625,625,625,625,625,625,625,625,625,625,625,625,625,625,625,625,622,613,580,561,546,532,521,514,505,494,488,474,448,431,414,403,390,377,339,314,279,267,231,205,180,153,134,116,101,99],"timestamp_mouse":[10,35,41,62,80,101,120,141,161,180,200,220,240,262,282,301,322,342,360,382,402,420,440,461,480,500,521,540,561,580,602,620,641,662,680,701,720,741,762,781,801,822,840,861,881,901,921,942,962,981,1000,1021,1041,1060,1080,1100,1120,1140,1161,1180,1201,1222,1241,1260,1280,1301,1320,1341,1362,1382,1400,1421,1440,1460,1481,1500,1521,1540,1561,1580,1601,1621,1642,1661,1680,1701,1721,1740,1761,1781,1801,1821,1842,1860],"xSR":741.5,"ySR":573.95,"xT1":424.9,"yT1":0,"xT2":1058.1,"yT2":0,"toosoon":0,"cond_shown":"Congruent","ratio_trial":300,"L_num":24,"L_den":30,"R_num":2,"R_den":4,"correct_side":1,"subjID":"NicolasBeltranSilva23","gender":"0","school":"4","age":"8"},{"start_time":1552327503648,"click_time":1552327506677,"finger_time":1552327504698,"fix_duration":250,"trial":22,"RT":1050,"MT":1979,"sideResp":2,"stimulus":[],"xmouse":[787,787,787,787,787,787,787,787,787,787,787,787,787,787,787,787,787,787,787,787,787,787,787,787,787,787,787,787,787,787,787,787,787,787,787,787,789,792,796,799,799,799,799,799,799,802,805,814,820,821,823,826,830,848,854,860,865,872,880,885,890,893,904,917,923,929,938,946,962,969,978,983,989,998,1001,1003,1005,1005,1007,1008,1011,1014,1016,1029,1034,1037,1039,1040,1042,1042,1043,1043,1043,1043,1043,1043,1043,1043,1043,1043,1045,1049,1050,1050,1050,1050,1050,1050,1060,1060,1060,1060,1060,1060,1051,1051,1047,1042,1041,1041,1041,1039,1027,989,977,975,975,975,975,975,975,974,972,970,970,970,970,970,975,992,998,1005,1008,1013,1017,1021,1022,1025,1044,1057,1075,1103],"ymouse":[626,626,626,626,626,626,626,626,626,626,626,626,626,626,626,626,626,626,626,626,626,626,626,626,626,626,626,626,626,626,626,626,626,626,626,622,620,614,610,605,605,605,605,605,605,604,600,595,586,581,578,574,568,539,528,516,504,493,476,469,459,449,428,397,384,369,357,345,323,313,297,286,273,249,239,230,222,204,186,179,170,160,158,137,129,122,117,114,109,109,108,108,108,108,108,108,108,108,108,108,105,91,81,81,81,81,84,108,171,171,171,171,171,174,178,178,187,199,201,201,201,201,205,248,266,272,274,274,274,274,274,275,275,275,275,275,273,268,260,242,235,222,213,194,184,175,173,173,155,138,114,82],"timestamp_mouse":[9,29,50,71,89,109,131,149,170,190,210,230,251,270,291,309,329,350,371,390,410,431,450,470,490,510,530,549,570,590,610,630,650,670,690,711,730,750,769,790,809,829,849,870,891,910,930,950,970,990,1009,1030,1050,1069,1090,1109,1131,1150,1169,1189,1209,1231,1249,1269,1291,1309,1330,1350,1369,1390,1409,1429,1450,1469,1490,1510,1530,1550,1569,1590,1609,1629,1649,1669,1690,1709,1729,1749,1769,1789,1811,1831,1850,1870,1890,1909,1929,1950,1970,1991,2010,2031,2051,2070,2090,2110,2131,2150,2169,2190,2209,2229,2249,2269,2290,2309,2330,2350,2370,2389,2410,2430,2450,2469,2489,2510,2530,2550,2570,2591,2609,2630,2650,2670,2690,2709,2730,2750,2769,2790,2809,2830,2850,2869,2890,2909,2930,2950,2970,2990,3009,3029],"xSR":741.5,"ySR":573.95,"xT1":424.9,"yT1":0,"xT2":1058.1,"yT2":0,"toosoon":0,"cond_shown":"Congruent","ratio_trial":100,"L_num":1,"L_den":2,"R_num":18,"R_den":30,"correct_side":2,"subjID":"NicolasBeltranSilva23","gender":"0","school":"4","age":"8"},{"start_time":1552327510789,"click_time":1552327512919,"finger_time":1552327511579,"fix_duration":250.5709881349507,"trial":23,"RT":790,"MT":1340,"sideResp":1,"stimulus":[],"xmouse":[805,803,799,798,798,798,798,798,798,798,796,795,785,784,784,784,784,784,784,784,784,784,784,784,783,783,785,786,786,786,786,786,786,786,786,786,786,786,786,786,786,786,786,787,787,787,787,787,787,787,787,787,787,787,787,787,786,781,777,769,761,748,724,716,714,708,706,702,701,701,701,701,700,691,672,648,629,602,579,570,570,570,570,570,570,570,570,570,568,565,557,549,549,549,549,549,549,549,549,549,546,544,541,540,535,533,518],"ymouse":[632,621,603,600,600,600,600,600,600,600,600,600,599,599,599,599,599,599,599,599,599,599,599,599,598,597,596,594,594,594,594,594,594,594,594,594,590,580,574,572,571,571,570,556,526,483,431,359,351,351,351,351,351,351,351,351,349,329,305,268,214,155,96,89,89,89,95,123,128,129,129,129,128,117,103,89,79,73,70,68,68,68,68,68,68,68,68,68,68,68,68,68,68,68,68,68,68,68,68,68,67,67,66,66,65,65,64],"timestamp_mouse":[9,36,49,68,89,109,130,149,169,190,208,228,248,269,289,309,329,348,368,388,409,428,449,470,489,509,529,548,570,589,608,628,648,669,688,708,728,748,769,790,810,829,848,868,888,908,929,948,968,988,1010,1029,1049,1068,1089,1108,1130,1148,1168,1188,1208,1228,1248,1268,1288,1310,1329,1349,1369,1388,1408,1428,1448,1468,1489,1508,1530,1548,1568,1599,1608,1629,1650,1669,1689,1708,1729,1748,1768,1789,1809,1829,1849,1868,1888,1909,1928,1949,1968,1988,2008,2030,2049,2068,2088,2109,2130],"xSR":741.5,"ySR":573.95,"xT1":424.9,"yT1":0,"xT2":1058.1,"yT2":0,"toosoon":0,"cond_shown":"Incongruent","ratio_trial":200,"L_num":14,"L_den":30,"R_num":6,"R_den":9,"correct_side":2,"subjID":"NicolasBeltranSilva23","gender":"0","school":"4","age":"8"},{"start_time":1552327517873,"click_time":1552327519798,"finger_time":1552327518438,"fix_duration":613.5124943725559,"trial":24,"RT":565,"MT":1360,"sideResp":2,"stimulus":[],"xmouse":[802,799,792,773,763,757,756,756,756,756,756,756,756,758,763,767,769,770,771,774,774,774,774,774,774,775,779,785,793,796,797,797,797,797,797,797,797,797,797,797,798,799,802,808,815,820,824,824,824,825,825,825,825,823,818,817,814,811,793,777,758,741,721,717,714,714,714,714,714,720,731,747,762,776,839,861,877,892,905,931,945,958,971,1000,1017,1024,1029,1037,1049,1059,1073,1086,1101,1108,1123,1126,1129],"ymouse":[592,594,597,608,620,633,636,636,636,636,636,636,634,632,615,602,594,594,593,594,595,595,595,595,595,595,595,584,553,539,534,530,530,530,530,530,530,530,530,530,526,523,512,475,443,425,411,403,402,401,400,396,391,381,363,349,332,318,300,296,292,289,286,286,285,285,285,285,284,281,277,270,267,266,261,261,261,261,261,261,259,256,250,232,218,214,211,207,201,195,187,176,161,147,113,100,88],"timestamp_mouse":[4,25,44,65,85,104,125,145,164,184,204,226,245,264,285,306,326,345,365,386,404,425,444,464,484,504,524,544,565,584,605,624,645,664,685,704,724,744,764,786,806,824,844,865,884,904,924,944,964,984,1004,1024,1044,1066,1085,1104,1126,1145,1166,1184,1205,1224,1244,1265,1284,1305,1325,1345,1364,1385,1405,1424,1444,1464,1484,1504,1525,1545,1564,1585,1604,1624,1644,1665,1684,1704,1724,1744,1766,1785,1804,1824,1845,1865,1885,1904,1924],"xSR":741.5,"ySR":573.95,"xT1":424.9,"yT1":0,"xT2":1058.1,"yT2":0,"toosoon":0,"cond_shown":"Incongruent","ratio_trial":300,"L_num":13,"L_den":26,"R_num":12,"R_den":15,"correct_side":2,"subjID":"NicolasBeltranSilva23","gender":"0","school":"4","age":"8"},{"start_time":1552327530642,"click_time":1552327535197,"finger_time":1552327532037,"fix_duration":363.31604259659247,"trial":25,"RT":1395,"MT":3160,"sideResp":2,"stimulus":[],"xmouse":[784,784,783,782,782,782,781,780,780,780,780,780,780,780,780,779,779,779,779,779,779,779,779,779,779,780,780,780,780,780,780,780,780,780,780,780,780,780,780,780,780,780,780,780,780,780,780,780,780,780,780,780,780,780,780,780,780,780,780,780,780,780,780,780,780,780,782,782,782,782,782,782,782,782,782,784,784,784,784,784,784,784,784,784,784,784,784,784,784,784,784,788,792,800,807,814,826,830,836,845,860,882,892,908,926,951,995,1008,1014,1016,1017,1019,1023,1028,1033,1040,1047,1050,1051,1052,1055,1062,1066,1067,1068,1070,1070,1072,1072,1074,1075,1076,1078,1078,1078,1078,1078,1078,1078,1079,1079,1079,1079,1079,1079,1079,1079,1079,1079,1079,1079,1079,1079,1079,1079,1079,1079,1079,1079,1079,1079,1079,1079,1079,1079,1079,1080,1082,1082,1082,1082,1082,1082,1082,1082,1082,1082,1080,1080,1080,1080,1080,1080,1080,1080,1080,1080,1080,1080,1080,1080,1080,1080,1080,1080,1080,1080,1080,1080,1080,1080,1080,1080,1080,1080,1080,1080,1080,1080,1080,1080,1080,1082,1084,1084,1084,1084,1084,1085,1085,1085,1087,1091,1091,1091,1094,1098,1099],"ymouse":[588,591,591,592,593,594,598,599,600,600,600,600,600,600,600,601,601,601,601,601,601,601,601,601,601,602,602,602,602,602,602,602,602,602,602,602,602,602,602,602,602,602,602,602,602,602,602,602,602,602,602,602,602,602,602,602,602,602,602,602,602,602,602,602,602,602,599,590,576,566,561,554,549,544,538,531,516,505,493,478,454,425,414,403,388,381,367,359,354,349,345,342,340,338,335,333,330,328,326,323,318,311,307,301,294,287,271,264,260,257,255,251,247,241,235,228,218,215,214,213,209,202,200,199,195,191,189,184,182,177,172,169,168,168,168,168,168,168,168,167,167,167,167,167,167,167,167,167,167,167,167,167,167,167,167,167,167,167,167,167,167,167,167,165,165,162,156,154,154,154,154,154,154,154,154,154,152,148,148,147,147,147,147,147,147,147,147,145,142,139,137,135,135,135,135,135,135,135,135,135,134,132,132,132,132,132,132,132,132,132,132,129,124,121,120,119,118,118,118,118,118,116,114,114,114,111,100,93],"timestamp_mouse":[16,38,56,75,95,117,135,156,175,196,216,235,256,275,295,316,336,355,376,396,415,437,456,476,496,515,536,555,576,597,616,636,656,676,696,716,735,756,777,795,816,835,855,875,895,915,936,957,976,995,1016,1035,1056,1075,1097,1116,1136,1156,1175,1195,1215,1236,1256,1276,1297,1316,1336,1356,1376,1395,1416,1435,1457,1475,1497,1517,1535,1555,1575,1596,1616,1635,1657,1676,1696,1716,1735,1755,1775,1796,1816,1835,1855,1877,1896,1916,1935,1955,1976,1997,2017,2035,2055,2075,2096,2117,2135,2156,2177,2197,2216,2235,2255,2275,2295,2316,2335,2355,2375,2396,2415,2435,2455,2476,2496,2516,2535,2555,2576,2597,2617,2635,2655,2675,2695,2715,2736,2755,2775,2796,2815,2835,2855,2876,2895,2915,2935,2956,2976,2996,3016,3035,3056,3076,3096,3116,3136,3155,3176,3195,3216,3235,3255,3276,3295,3317,3336,3355,3375,3395,3416,3435,3456,3476,3496,3516,3535,3555,3575,3595,3616,3635,3655,3675,3696,3717,3736,3756,3775,3797,3815,3835,3855,3876,3895,3916,3935,3955,3976,3995,4016,4035,4055,4075,4096,4115,4136,4157,4176,4195,4215,4236,4257,4275,4296,4315,4336,4356,4376,4396,4415,4436,4455,4475,4496,4515,4537,4555],"xSR":741.5,"ySR":573.95,"xT1":424.9,"yT1":0,"xT2":1058.1,"yT2":0,"toosoon":0,"cond_shown":"Incongruent","ratio_trial":300,"L_num":4,"L_den":20,"R_num":2,"R_den":4,"correct_side":2,"subjID":"NicolasBeltranSilva23","gender":"0","school":"4","age":"8"},{"start_time":1552327541989,"click_time":1552327545339,"finger_time":1552327543457,"fix_duration":1228.716574850544,"trial":26,"RT":1468,"MT":1882,"sideResp":1,"stimulus":[],"xmouse":[807,807,807,807,807,807,807,807,807,807,807,807,807,807,806,804,800,799,799,799,799,799,799,799,799,799,801,802,802,802,802,794,791,791,791,791,791,791,791,791,791,791,791,791,791,791,791,791,793,793,793,793,793,793,793,793,793,793,793,793,793,793,793,793,793,793,793,793,793,793,793,793,788,772,738,702,689,681,678,675,672,671,671,671,670,670,670,670,670,670,670,670,670,670,670,666,657,653,651,651,651,651,651,651,652,652,653,655,658,664,676,734,780,821,849,866,896,914,936,959,969,994,999,1002,1003,1003,1003,1004,1005,1005,1005,1005,1005,1005,1005,1005,1008,1009,1010,1010,1010,1010,1010,1007,1000,961,928,917,915,915,915,915,915,915,915,914,880,838,750,717,651,527,496,492,492,492,490,488],"ymouse":[635,635,635,635,635,635,635,635,635,635,635,635,635,635,635,635,635,635,635,633,632,630,629,628,626,622,619,613,609,607,606,604,604,604,604,604,604,604,604,604,604,604,604,604,604,604,602,602,601,601,601,601,601,601,601,601,601,601,601,601,601,601,601,601,601,601,601,601,601,601,601,599,585,564,523,469,398,348,324,305,296,290,290,288,286,283,282,282,282,282,282,282,282,282,282,273,254,239,229,225,223,223,222,222,221,221,220,218,216,212,207,191,186,186,186,186,177,169,163,155,152,146,144,144,143,143,143,143,142,142,142,142,142,142,142,142,141,140,139,139,139,139,139,137,136,129,124,123,123,123,123,123,123,123,123,123,123,120,99,88,52,0,0,0,0,0,0,3],"timestamp_mouse":[21,29,48,68,88,108,129,149,169,189,209,228,249,269,289,308,328,348,369,390,408,429,448,468,489,509,528,549,570,589,608,629,649,669,689,708,729,749,769,789,809,828,849,868,889,908,929,949,968,989,1009,1030,1049,1069,1089,1108,1129,1148,1168,1188,1208,1229,1249,1268,1290,1309,1329,1349,1370,1389,1409,1429,1449,1468,1489,1509,1528,1548,1569,1588,1609,1629,1649,1668,1689,1709,1728,1748,1769,1789,1808,1829,1848,1868,1889,1909,1928,1948,1969,1988,2009,2029,2049,2069,2088,2109,2129,2148,2168,2188,2208,2229,2249,2268,2290,2308,2329,2348,2368,2389,2409,2428,2449,2469,2488,2509,2530,2549,2569,2589,2609,2629,2648,2668,2689,2708,2729,2749,2769,2789,2809,2829,2849,2869,2889,2910,2929,2949,2968,2989,3008,3028,3048,3069,3088,3109,3130,3149,3169,3189,3209,3229,3248,3268,3289,3308,3328,3349],"xSR":741.5,"ySR":573.95,"xT1":424.9,"yT1":0,"xT2":1058.1,"yT2":0,"toosoon":0,"cond_shown":"Incongruent","ratio_trial":300,"L_num":4,"L_den":20,"R_num":2,"R_den":4,"correct_side":2,"subjID":"NicolasBeltranSilva23","gender":"0","school":"4","age":"8"},{"start_time":1552327549040,"click_time":1552327552397,"finger_time":1552327551378,"fix_duration":782.6615998569854,"trial":27,"RT":2338,"MT":1019,"sideResp":2,"stimulus":[],"xmouse":[804,804,804,804,804,804,804,804,804,804,804,804,804,804,804,804,804,804,804,804,804,804,804,804,804,804,804,804,804,804,804,804,804,804,804,804,804,804,804,804,804,804,804,804,804,804,804,804,804,804,804,804,804,804,804,804,804,804,804,804,804,804,804,804,804,804,804,804,802,798,795,792,792,792,792,792,792,792,792,792,792,792,792,792,792,792,793,793,793,793,794,794,793,789,783,783,783,783,783,783,783,783,783,783,783,782,783,786,791,793,794,796,797,802,806,812,822,822,828,834,835,837,840,855,871,895,930,956,986,1029,1044,1045,1045,1045,1045,1044,1044,1043,1043,1043,1043,1043,1043,1043,1043,1043,1043,1043,1043,1043,1043,1043,1044,1046,1050,1052,1055,1058,1064,1066,1068,1068,1068,1070,1072,1072,1071,1068],"ymouse":[639,639,639,639,639,639,639,639,639,639,639,639,639,639,639,639,639,639,639,639,639,639,639,639,639,639,639,639,639,639,639,639,639,639,639,639,639,639,639,639,639,639,639,639,639,639,639,639,639,639,639,639,639,639,639,639,639,639,639,639,639,639,639,639,639,639,639,639,639,639,639,639,639,639,639,639,639,639,639,639,639,639,639,639,639,639,639,639,639,639,639,639,639,637,637,637,637,637,637,637,637,637,637,637,637,636,633,630,624,621,619,618,618,615,609,596,559,559,506,488,472,458,450,429,415,395,364,332,293,220,176,161,157,155,155,155,155,155,155,155,155,155,155,155,155,155,155,155,155,155,155,155,154,152,145,142,138,131,125,122,121,121,119,116,110,106,102,98],"timestamp_mouse":[17,41,58,77,99,118,137,157,177,198,217,238,257,278,298,318,337,357,378,399,418,438,457,478,497,518,537,559,578,599,618,639,657,677,697,718,738,757,777,798,817,837,858,877,897,918,938,957,977,998,1018,1038,1057,1077,1097,1118,1137,1157,1177,1197,1217,1238,1257,1277,1297,1317,1339,1357,1377,1397,1418,1437,1457,1477,1498,1517,1537,1557,1577,1597,1617,1637,1657,1677,1698,1718,1737,1757,1778,1798,1819,1837,1858,1878,1897,1917,1938,1958,1977,1998,2017,2037,2057,2077,2097,2117,2138,2158,2177,2197,2217,2238,2258,2278,2297,2318,2338,2358,2377,2397,2418,2438,2458,2478,2497,2518,2538,2558,2577,2598,2618,2637,2658,2677,2697,2717,2738,2759,2778,2797,2817,2838,2859,2878,2897,2918,2938,2958,2977,2997,3018,3037,3057,3078,3097,3118,3138,3158,3178,3197,3217,3238,3258,3277,3298,3317,3338,3357],"xSR":741.5,"ySR":573.95,"xT1":424.9,"yT1":0,"xT2":1058.1,"yT2":0,"toosoon":0,"cond_shown":"Incongruent","ratio_trial":100,"L_num":6,"L_den":10,"R_num":11,"R_den":22,"correct_side":1,"subjID":"NicolasBeltranSilva23","gender":"0","school":"4","age":"8"},{"start_time":1552327554867,"click_time":1552327557677,"finger_time":1552327556337,"fix_duration":1268.0405851478483,"trial":28,"RT":1470,"MT":1340,"sideResp":2,"stimulus":[],"xmouse":[789,789,789,789,789,789,789,789,789,789,789,789,789,789,789,789,789,789,789,789,789,789,789,789,789,789,789,789,789,789,789,789,789,789,789,788,788,788,788,788,788,788,788,788,788,788,787,787,794,794,794,794,794,794,794,794,794,794,794,794,792,792,790,790,790,790,790,790,790,790,790,795,799,813,825,835,844,854,881,906,933,950,962,976,981,986,992,993,996,999,1001,1002,1002,1002,1002,1002,1002,1005,1012,1018,1024,1027,1030,1030,1031,1031,1031,1031,1031,1031,1033,1036,1040,1053,1057,1061,1065,1067,1078,1084,1091,1096,1098,1101,1103,1105,1108,1113,1117,1117,1117,1117,1117,1117,1117,1117,1117,1117,1104,1092,1084],"ymouse":[610,610,610,610,610,610,610,610,610,610,610,610,610,610,610,610,610,610,610,610,610,610,610,610,610,610,610,610,610,610,610,610,610,610,610,610,610,610,610,610,610,610,610,610,610,610,610,609,606,606,606,606,606,606,606,606,606,606,606,606,607,610,614,616,617,617,617,617,617,617,617,609,602,573,561,551,542,530,508,488,465,450,434,416,406,399,389,384,373,367,361,359,359,359,359,359,357,353,333,320,308,301,297,297,297,297,297,297,297,297,293,288,280,258,250,242,235,230,216,203,191,176,169,159,155,151,148,146,144,144,144,144,144,144,144,144,144,141,122,106,91],"timestamp_mouse":[10,30,51,70,90,111,130,151,171,191,211,231,250,271,291,311,330,350,370,390,411,431,451,470,490,511,530,550,571,590,611,631,650,671,690,710,731,751,770,792,811,832,851,871,890,910,932,951,971,991,1010,1030,1050,1070,1090,1110,1130,1150,1170,1191,1211,1231,1250,1271,1291,1311,1332,1351,1370,1391,1410,1431,1450,1470,1490,1510,1530,1550,1570,1592,1611,1632,1652,1670,1690,1710,1731,1751,1770,1791,1811,1832,1851,1871,1891,1910,1930,1951,1970,1991,2010,2031,2050,2070,2090,2111,2131,2150,2170,2190,2210,2230,2250,2271,2290,2312,2332,2352,2371,2391,2411,2432,2450,2470,2490,2510,2530,2551,2571,2591,2610,2630,2651,2670,2692,2712,2730,2751,2770,2791,2810],"xSR":741.5,"ySR":573.95,"xT1":424.9,"yT1":0,"xT2":1058.1,"yT2":0,"toosoon":0,"cond_shown":"Congruent","ratio_trial":200,"L_num":1,"L_den":2,"R_num":21,"R_den":30,"correct_side":2,"subjID":"NicolasBeltranSilva23","gender":"0","school":"4","age":"8"},{"start_time":1552327559714,"click_time":1552327565057,"finger_time":1552327560438,"fix_duration":675.0455229619216,"trial":29,"RT":724,"MT":4619,"sideResp":2,"stimulus":[],"xmouse":[827,827,827,827,827,827,833,833,833,833,833,830,802,792,787,784,781,776,775,772,770,769,769,769,769,769,769,769,769,769,769,767,764,764,764,764,721,721,721,721,720,718,716,714,713,713,713,713,713,713,713,713,713,714,714,714,714,714,716,717,717,718,718,718,719,724,729,729,729,729,729,729,748,754,764,775,784,784,784,784,784,784,784,784,784,784,784,784,784,784,784,784,784,784,784,784,784,784,784,784,784,784,784,784,784,784,784,784,784,784,784,784,784,784,784,784,784,787,793,793,793,793,793,793,793,808,808,808,808,808,808,808,808,808,808,808,808,814,814,814,814,814,816,821,821,821,821,821,841,841,841,841,841,841,841,841,843,851,851,851,851,851,920,926,930,930,930,930,930,930,930,930,930,930,929,929,920,918,918,919,920,920,924,924,924,924,924,980,981,981,982,982,983,983,983,984,986,989,989,989,1005,1010,1015,1016,1017,1017,1017,1017,1019,1022,1022,1022,1031,1032,1032,1033,1033,1033,1033,1033,1033,1033,1033,1034,1037,1037,1037,1038,1038,1038,1039,1039,1040,1042,1042,1042,1042,1047,1046,1045,1044,1043,1043,1043,1044,1044,1044,1044,1044,1044,1089,1089,1089,1089,1089,1089,1089,1089,1089,1089,1089,1089,1089,1089,1089,1089,1089,1089],"ymouse":[610,610,610,610,610,610,607,606,606,606,606,606,610,612,614,616,617,621,622,624,626,627,627,627,627,627,627,627,627,627,627,629,632,632,632,632,655,655,655,655,655,656,656,657,658,658,658,658,658,658,658,658,654,651,651,651,651,651,649,647,647,646,646,645,645,643,643,643,643,643,643,643,640,641,641,641,636,636,636,636,636,636,636,636,636,636,636,636,636,636,636,636,636,636,636,636,636,636,636,636,636,636,636,636,636,636,636,636,636,636,636,636,636,636,636,636,636,634,634,634,634,634,634,634,634,626,626,626,626,626,626,626,626,626,621,621,621,578,564,555,550,550,549,541,541,541,541,541,506,494,483,481,481,481,481,481,480,475,475,475,475,475,395,381,376,375,375,375,375,375,375,375,375,374,369,369,344,334,332,331,331,331,331,331,331,331,331,318,316,314,311,309,308,308,308,307,306,304,304,304,294,289,283,282,281,281,281,281,281,278,278,278,253,251,248,247,247,247,247,247,247,247,247,247,245,245,237,233,233,232,231,231,230,227,227,227,227,206,202,199,196,195,192,190,183,183,183,183,183,183,119,112,108,108,108,108,108,108,108,108,108,108,108,108,108,106,104,96],"timestamp_mouse":[22,23,46,63,83,103,124,144,164,185,204,223,244,264,283,303,323,344,364,384,404,424,444,464,484,503,523,543,564,584,604,624,643,664,684,704,724,743,763,783,804,824,843,865,883,905,924,944,963,983,1003,1025,1043,1064,1083,1103,1123,1143,1164,1184,1203,1223,1243,1263,1285,1304,1325,1343,1364,1383,1403,1424,1444,1464,1484,1503,1524,1543,1563,1583,1603,1624,1644,1664,1684,1703,1724,1743,1763,1783,1803,1823,1843,1863,1883,1904,1923,1943,1965,1984,2004,2024,2044,2064,2083,2103,2123,2144,2163,2185,2203,2224,2244,2264,2284,2304,2323,2344,2363,2383,2403,2423,2443,2463,2485,2503,2523,2543,2565,2583,2604,2624,2644,2664,2683,2704,2725,2743,2764,2784,2805,2824,2843,2863,2883,2904,2924,2944,2963,2985,3003,3024,3043,3063,3083,3103,3123,3143,3164,3183,3204,3224,3244,3264,3285,3304,3323,3344,3364,3384,3403,3424,3443,3464,3483,3504,3524,3544,3564,3584,3603,3624,3644,3663,3684,3703,3724,3743,3764,3783,3803,3824,3844,3865,3883,3904,3924,3944,3964,3983,4004,4023,4045,4064,4083,4103,4123,4143,4163,4184,4204,4224,4244,4264,4283,4304,4324,4344,4364,4383,4404,4423,4444,4463,4484,4504,4524,4544,4564,4583,4603,4623,4643,4663,4684,4704,4724,4743,4764,4783,4803,4824,4843,4864,4883,4904,4924,4944,4964,4984,5004,5024,5044,5064,5084,5103,5124,5143,5163,5184,5204,5224,5244,5264,5283,5304,5324,5343],"xSR":741.5,"ySR":573.95,"xT1":424.9,"yT1":0,"xT2":1058.1,"yT2":0,"toosoon":0,"cond_shown":"Incongruent","ratio_trial":200,"L_num":7,"L_den":10,"R_num":8,"R_den":16,"correct_side":1,"subjID":"NicolasBeltranSilva23","gender":"0","school":"4","age":"8"},{"start_time":1552327569811,"click_time":1552327571198,"finger_time":1552327570578,"fix_duration":1012.1824220142921,"trial":30,"RT":767,"MT":620,"sideResp":2,"stimulus":[],"xmouse":[777,777,777,777,777,777,777,777,777,777,777,777,778,780,780,780,782,783,785,787,787,787,787,787,787,787,787,787,787,787,787,789,789,790,794,797,802,811,829,844,863,880,903,967,981,985,988,989,992,995,997,1001,1005,1012,1016,1018,1018,1019,1020,1021,1022,1024,1026,1031,1035,1038,1047,1078,1094,1107],"ymouse":[617,617,617,617,617,617,617,617,617,617,617,617,617,617,617,617,617,617,616,615,615,615,615,615,615,615,615,615,615,615,615,613,613,611,605,598,592,578,546,524,495,457,408,280,248,227,216,212,203,198,192,185,180,168,163,159,158,156,155,153,149,144,137,125,121,119,117,108,100,91],"timestamp_mouse":[14,32,46,66,87,106,126,146,167,187,206,226,248,266,286,307,328,346,366,387,407,426,446,466,487,506,526,546,566,587,607,627,646,666,687,706,727,746,767,787,806,826,847,866,887,906,926,947,966,988,1006,1026,1046,1067,1087,1106,1126,1147,1167,1187,1206,1226,1247,1267,1286,1306,1327,1347,1366,1387],"xSR":741.5,"ySR":573.95,"xT1":424.9,"yT1":0,"xT2":1058.1,"yT2":0,"toosoon":0,"cond_shown":"Congruent","ratio_trial":200,"L_num":1,"L_den":2,"R_num":21,"R_den":30,"correct_side":2,"subjID":"NicolasBeltranSilva23","gender":"0","school":"4","age":"8"},{"start_time":1552327576628,"click_time":1552327580578,"finger_time":1552327578177,"fix_duration":588.1164223657158,"trial":31,"RT":1549,"MT":2401,"sideResp":2,"stimulus":[],"xmouse":[796,796,796,796,796,796,796,796,796,796,796,794,789,787,786,784,783,782,782,782,782,782,782,782,782,782,782,782,782,782,782,782,782,782,782,782,782,782,782,782,782,782,781,781,781,781,781,779,778,777,777,777,777,777,777,777,777,777,777,777,777,777,777,777,777,777,777,780,784,784,784,784,784,783,783,793,804,832,834,834,834,834,834,834,834,834,834,837,838,839,839,839,839,839,839,839,839,839,848,869,879,893,898,904,904,906,912,919,931,937,943,948,953,953,953,953,953,953,953,953,953,953,958,960,963,963,965,965,965,965,965,965,965,965,968,969,971,974,978,979,981,981,984,991,993,1002,1002,1013,1017,1019,1019,1019,1019,1019,1020,1020,1020,1021,1023,1025,1026,1027,1029,1029,1030,1031,1033,1034,1043,1046,1048,1049,1049,1049,1050,1050,1050,1051,1055,1058,1063,1067,1069,1074,1074,1074,1074,1074,1074,1074,1074,1074,1074,1074,1074,1074,1076,1076],"ymouse":[597,597,597,597,597,597,597,600,600,600,601,603,608,610,611,613,613,614,614,614,614,614,614,614,614,614,614,614,614,614,614,614,614,614,614,614,614,614,614,614,614,615,615,615,615,615,615,615,618,622,622,622,622,622,622,622,622,622,621,621,621,621,621,621,621,621,621,621,619,619,619,627,636,636,636,614,591,530,526,526,526,527,536,540,540,540,528,500,482,479,479,479,479,479,479,479,479,479,461,428,415,404,400,399,399,399,400,400,399,397,389,384,379,379,379,379,379,379,379,379,379,377,364,353,346,346,343,343,343,343,343,343,343,342,335,331,327,322,318,318,317,317,315,313,312,307,307,303,301,300,300,300,300,300,300,300,300,300,294,289,285,280,277,277,275,273,271,268,251,241,223,215,200,183,179,178,177,175,167,158,147,138,131,117,112,108,106,106,106,106,106,106,106,106,106,105,102,98],"timestamp_mouse":[14,29,52,69,90,109,129,149,170,190,210,229,250,269,290,309,329,350,370,391,409,430,450,469,489,510,531,551,570,589,610,629,650,669,689,710,730,749,769,790,810,829,849,869,890,909,929,950,969,989,1010,1030,1049,1069,1089,1110,1130,1150,1170,1189,1210,1231,1249,1269,1289,1309,1329,1349,1370,1389,1410,1429,1450,1470,1490,1509,1529,1549,1569,1589,1610,1629,1649,1670,1689,1710,1730,1750,1769,1789,1809,1829,1850,1870,1889,1909,1929,1949,1969,1989,2009,2029,2049,2069,2089,2109,2130,2149,2169,2189,2209,2230,2250,2270,2289,2310,2329,2350,2369,2390,2410,2430,2450,2469,2489,2509,2530,2549,2569,2590,2610,2629,2650,2669,2690,2709,2730,2749,2770,2789,2810,2830,2850,2870,2890,2910,2929,2949,2969,2989,3010,3030,3050,3070,3090,3110,3130,3150,3168,3189,3210,3229,3249,3270,3289,3309,3329,3349,3369,3390,3409,3429,3449,3469,3490,3509,3530,3551,3569,3589,3609,3630,3650,3670,3690,3710,3728,3749,3770,3790,3810,3830,3849,3870,3889,3910,3930,3950],"xSR":741.5,"ySR":573.95,"xT1":424.9,"yT1":0,"xT2":1058.1,"yT2":0,"toosoon":0,"cond_shown":"Incongruent","ratio_trial":200,"L_num":7,"L_den":10,"R_num":14,"R_den":28,"correct_side":1,"subjID":"NicolasBeltranSilva23","gender":"0","school":"4","age":"8"},{"start_time":1552327590868,"click_time":1552327594137,"finger_time":1552327591018,"fix_duration":250,"trial":32,"RT":150,"MT":3119,"sideResp":1,"stimulus":[],"xmouse":[761,761,765,769,771,776,782,785,785,785,785,785,785,785,785,785,785,785,785,785,785,785,785,785,785,785,785,785,785,785,785,785,785,785,785,785,785,785,785,785,785,785,785,785,785,785,785,785,785,785,785,786,786,786,787,787,787,787,787,787,787,787,787,787,787,787,783,766,764,764,764,764,764,764,764,764,764,764,764,764,764,764,768,775,779,782,783,783,783,784,787,790,792,793,793,793,793,793,793,793,793,793,793,793,793,793,793,793,793,793,792,792,787,782,778,775,774,768,764,759,756,756,756,759,759,761,762,762,762,762,762,761,748,741,738,737,736,721,702,667,641,613,565,552,551,550,550,550,550,550,550,550,550,550,550,550,548,532,529,527,527,527,525,523],"ymouse":[641,638,629,620,610,596,581,573,573,573,573,573,573,573,573,573,573,573,573,573,573,573,573,573,573,573,573,573,573,573,573,573,573,573,573,573,573,573,573,573,573,573,573,573,572,572,572,572,572,572,572,569,568,568,567,566,565,563,560,560,558,558,557,557,557,557,559,574,575,575,575,575,575,575,575,575,575,575,575,575,575,575,564,547,532,518,515,514,514,514,514,512,512,511,511,511,511,511,511,511,511,511,510,509,509,509,509,508,508,508,508,504,472,452,440,431,424,414,397,378,355,346,336,312,304,296,288,270,261,250,233,215,173,152,141,137,135,132,128,123,119,115,109,107,107,107,107,107,107,107,107,107,107,107,107,106,105,104,102,102,102,102,101,96],"timestamp_mouse":[10,36,49,69,90,110,129,150,170,190,210,229,250,269,290,310,330,350,370,389,409,429,449,470,489,509,530,549,570,589,610,629,649,670,689,710,729,750,769,789,810,830,850,870,890,909,930,949,970,990,1009,1029,1050,1070,1089,1109,1129,1150,1169,1189,1210,1229,1249,1269,1290,1309,1329,1349,1370,1389,1410,1430,1450,1470,1489,1510,1530,1548,1570,1590,1610,1629,1649,1669,1689,1710,1730,1750,1769,1789,1809,1830,1849,1869,1889,1909,1929,1949,1970,1989,2010,2029,2049,2069,2089,2110,2130,2149,2169,2189,2210,2229,2249,2269,2289,2310,2329,2350,2369,2390,2409,2429,2449,2470,2489,2509,2531,2550,2569,2589,2610,2629,2649,2670,2690,2709,2730,2749,2769,2789,2809,2830,2849,2869,2889,2909,2930,2949,2970,2990,3010,3030,3050,3069,3090,3109,3130,3149,3169,3189,3209,3230,3250,3269],"xSR":741.5,"ySR":573.95,"xT1":424.9,"yT1":0,"xT2":1058.1,"yT2":0,"toosoon":0,"cond_shown":"Congruent","ratio_trial":200,"L_num":20,"L_den":25,"R_num":9,"R_den":15,"correct_side":1,"subjID":"NicolasBeltranSilva23","gender":"0","school":"4","age":"8"},{"start_time":1552327597256,"click_time":1552327598737,"finger_time":1552327597938,"fix_duration":275.35334024721345,"trial":33,"RT":682,"MT":799,"sideResp":2,"stimulus":[],"xmouse":[783,783,783,783,783,783,783,783,783,783,783,783,783,782,782,782,782,782,782,782,780,776,767,760,752,752,752,750,749,746,746,746,746,746,740,740,740,740,740,740,740,740,740,740,740,740,740,740,746,753,753,753,753,753,753,756,758,759,762,763,763,765,767,769,773,780,797,825,865,966,997,1033,1065,1090,1095],"ymouse":[626,626,626,626,626,626,626,626,626,626,626,626,626,626,626,626,626,626,626,626,626,625,624,624,622,621,621,622,624,631,631,631,631,631,637,637,637,637,637,637,637,637,637,637,637,637,637,637,625,613,613,613,613,613,613,611,610,609,604,602,595,590,588,586,586,586,585,575,547,441,390,309,218,124,55],"timestamp_mouse":[5,30,41,62,81,101,122,141,162,181,202,221,242,261,281,301,322,341,361,382,402,421,442,462,481,501,521,542,562,581,601,622,641,662,682,702,722,742,761,781,802,821,843,863,883,902,921,942,961,981,1001,1021,1041,1062,1081,1101,1122,1141,1162,1181,1201,1222,1241,1261,1282,1302,1321,1342,1362,1381,1403,1421,1441,1462,1481],"xSR":741.5,"ySR":573.95,"xT1":424.9,"yT1":0,"xT2":1058.1,"yT2":0,"toosoon":0,"cond_shown":"Incongruent","ratio_trial":200,"L_num":4,"L_den":6,"R_num":14,"R_den":30,"correct_side":1,"subjID":"NicolasBeltranSilva23","gender":"0","school":"4","age":"8"},{"start_time":1552327601131,"click_time":1552327604118,"finger_time":1552327602677,"fix_duration":1190.975311249436,"trial":34,"RT":1546,"MT":1441,"sideResp":2,"stimulus":[],"xmouse":[765,765,765,765,765,765,765,765,765,765,765,765,765,765,765,765,765,765,765,765,765,765,765,765,765,765,765,765,765,765,765,768,770,772,774,775,775,775,775,775,775,775,775,775,775,775,775,775,775,775,775,776,776,776,776,776,776,776,776,776,776,777,777,777,777,777,777,777,777,777,777,777,777,777,777,777,780,783,784,785,793,803,832,861,885,903,905,910,915,918,927,987,1016,1032,1041,1050,1052,1053,1055,1057,1057,1063,1064,1068,1073,1079,1079,1079,1079,1079,1079,1083,1089,1089,1090,1092,1092,1092,1092,1092,1092,1092,1090,1090,1090,1090,1090,1092,1095,1096,1108,1115,1128,1135,1138,1140,1140,1139,1139,1139,1139,1139,1139,1139,1139,1139,1139,1139,1139,1135],"ymouse":[613,613,613,613,613,613,613,613,613,613,613,613,613,613,613,613,613,613,613,613,613,613,613,613,613,613,613,613,613,612,608,606,604,602,598,597,596,596,596,596,596,596,596,596,596,596,596,596,596,596,596,595,595,595,595,595,595,595,595,591,588,587,587,587,587,587,587,587,587,587,587,587,587,587,587,585,577,568,565,564,556,546,532,520,511,506,506,504,503,501,497,454,434,418,403,380,370,358,352,349,346,340,337,331,325,317,317,317,317,317,317,309,292,283,276,263,262,259,259,259,259,257,255,253,247,243,231,229,223,221,205,194,177,164,150,128,123,119,118,118,118,118,118,118,118,118,118,118,117,97],"timestamp_mouse":[12,33,47,66,87,106,126,146,166,186,207,227,246,267,287,307,326,346,367,387,407,427,447,466,486,507,526,546,566,586,605,626,646,666,687,707,726,746,766,787,806,826,847,866,887,907,926,947,967,987,1007,1026,1046,1067,1087,1107,1127,1146,1167,1186,1206,1226,1246,1267,1287,1306,1327,1346,1366,1387,1406,1427,1446,1465,1487,1506,1526,1546,1567,1586,1608,1626,1646,1667,1686,1706,1726,1746,1766,1786,1807,1827,1846,1867,1886,1907,1926,1947,1967,1987,2006,2026,2046,2067,2086,2106,2127,2146,2167,2186,2207,2227,2247,2267,2287,2306,2327,2346,2367,2387,2406,2426,2446,2466,2487,2506,2526,2546,2567,2587,2607,2626,2646,2667,2687,2707,2726,2746,2766,2786,2807,2827,2847,2872,2886,2906,2927,2947,2967,2987],"xSR":741.5,"ySR":573.95,"xT1":424.9,"yT1":0,"xT2":1058.1,"yT2":0,"toosoon":0,"cond_shown":"Incongruent","ratio_trial":200,"L_num":14,"L_den":30,"R_num":6,"R_den":9,"correct_side":2,"subjID":"NicolasBeltranSilva23","gender":"0","school":"4","age":"8"},{"start_time":1552327606594,"click_time":1552327610338,"finger_time":1552327607658,"fix_duration":1096.074051228974,"trial":35,"RT":1064,"MT":2680,"sideResp":2,"stimulus":[],"xmouse":[828,828,828,826,824,823,823,823,823,823,820,818,815,812,811,811,811,811,811,811,811,811,811,811,811,811,811,811,811,811,811,808,807,797,792,780,767,754,747,746,746,746,746,746,746,746,746,746,746,746,746,746,742,741,741,741,741,741,740,736,727,712,704,699,699,699,699,699,698,697,696,696,696,696,696,696,696,696,696,699,707,726,745,764,766,768,771,776,784,787,791,798,806,832,845,856,866,878,891,891,887,872,866,839,829,824,819,816,813,812,812,812,812,812,814,817,817,817,817,817,817,817,817,817,817,817,817,817,817,817,816,814,812,805,799,787,776,756,749,749,749,749,749,749,749,749,749,749,749,749,749,749,749,749,748,748,748,748,748,748,748,748,748,748,748,748,748,748,748,746,757,824,927,1104,1143,1162,1168,1168,1168,1168,1168,1168,1168,1168,1167,1165,1159,1155],"ymouse":[629,629,629,629,629,629,629,629,629,629,629,629,631,635,638,638,638,638,638,638,638,638,638,638,638,637,637,637,637,637,637,636,636,636,634,629,620,614,613,613,613,613,613,613,613,613,613,613,613,613,613,613,614,615,616,617,617,617,617,617,616,615,613,612,612,612,612,612,612,612,612,612,612,612,612,612,612,612,612,611,610,607,601,599,599,599,599,599,599,599,599,599,598,589,583,577,567,547,484,478,477,484,492,568,601,627,661,680,696,698,698,698,698,694,689,681,676,672,669,669,669,667,664,658,656,653,651,650,649,649,649,648,644,638,636,633,627,619,615,615,615,615,615,615,615,615,615,615,615,615,615,615,615,615,615,615,615,615,615,615,615,615,615,615,615,615,615,615,615,615,583,465,301,0,0,0,0,0,0,0,0,0,0,0,0,0,0,3],"timestamp_mouse":[3,36,44,64,83,104,124,143,163,183,203,223,244,263,284,304,323,343,363,384,404,424,444,464,483,503,524,544,564,583,604,623,643,664,684,703,723,743,765,783,803,824,844,864,883,904,923,943,963,984,1003,1024,1043,1064,1083,1103,1123,1143,1164,1183,1204,1224,1243,1263,1284,1303,1323,1343,1363,1383,1404,1424,1444,1464,1484,1503,1524,1544,1564,1584,1603,1623,1643,1664,1683,1703,1723,1744,1762,1782,1804,1824,1844,1863,1884,1904,1923,1944,1963,1984,2003,2024,2044,2063,2083,2104,2124,2143,2163,2183,2203,2224,2243,2264,2283,2304,2323,2343,2363,2384,2404,2424,2443,2463,2483,2504,2524,2543,2563,2584,2603,2624,2644,2664,2684,2703,2723,2744,2764,2784,2803,2823,2844,2864,2884,2903,2924,2943,2964,2984,3004,3024,3044,3064,3083,3104,3125,3144,3164,3184,3204,3223,3243,3264,3283,3304,3324,3344,3364,3383,3404,3423,3444,3464,3486,3503,3523,3543,3563,3583,3603,3623,3643,3663,3684,3704,3724,3744],"xSR":741.5,"ySR":573.95,"xT1":424.9,"yT1":0,"xT2":1058.1,"yT2":0,"toosoon":0,"cond_shown":"Congruent","ratio_trial":200,"L_num":7,"L_den":21,"R_num":2,"R_den":15,"correct_side":1,"subjID":"NicolasBeltranSilva23","gender":"0","school":"4","age":"8"},{"start_time":1552327613580,"click_time":1552327615477,"finger_time":1552327614277,"fix_duration":1420.936258620261,"trial":36,"RT":697,"MT":1200,"sideResp":2,"stimulus":[],"xmouse":[775,776,777,777,777,777,777,777,777,777,777,777,777,777,777,777,777,777,777,777,777,777,777,778,778,778,778,778,778,778,778,778,778,778,778,778,777,777,776,773,773,773,772,771,771,771,771,771,771,771,771,771,771,771,771,772,787,811,837,888,909,926,938,960,979,994,1010,1024,1048,1054,1060,1066,1071,1075,1085,1091,1099,1105,1110,1115,1115,1117,1117,1117,1117,1117,1117,1118,1120,1122,1122,1123,1123,1124,1125],"ymouse":[602,602,602,602,602,602,602,602,602,602,602,602,602,602,602,602,602,602,602,602,602,602,602,602,596,595,594,593,591,587,583,581,578,576,572,570,567,564,553,505,461,417,394,389,389,389,389,389,389,389,389,389,389,389,389,389,389,390,390,372,356,345,336,320,306,295,282,269,240,230,223,218,215,213,206,200,189,178,168,158,155,152,152,151,151,150,146,142,125,118,114,112,109,102,98],"timestamp_mouse":[26,40,57,78,98,117,138,157,178,198,217,237,257,277,298,317,337,358,377,398,418,437,457,477,498,518,538,557,578,597,618,638,657,677,697,717,737,758,778,797,817,838,858,877,898,917,938,958,977,997,1018,1038,1058,1077,1097,1117,1138,1157,1177,1199,1218,1237,1258,1278,1298,1317,1337,1357,1378,1397,1417,1438,1457,1479,1497,1518,1537,1558,1578,1598,1617,1638,1658,1678,1698,1718,1737,1757,1778,1797,1817,1837,1857,1879,1897],"xSR":741.5,"ySR":573.95,"xT1":424.9,"yT1":0,"xT2":1058.1,"yT2":0,"toosoon":0,"cond_shown":"Incongruent","ratio_trial":100,"L_num":8,"L_den":20,"R_num":1,"R_den":2,"correct_side":2,"subjID":"NicolasBeltranSilva23","gender":"0","school":"4","age":"8"},{"start_time":1552327630691,"click_time":1552327635217,"finger_time":1552327631618,"fix_duration":250,"trial":37,"RT":927,"MT":3599,"sideResp":1,"stimulus":[],"xmouse":[773,773,773,773,773,773,772,770,770,770,770,770,770,770,770,770,770,770,770,770,770,770,770,770,770,770,771,774,774,774,774,774,774,774,774,774,775,776,778,780,782,786,786,789,789,793,795,795,796,796,796,796,796,796,796,796,796,796,796,795,792,791,791,789,789,789,789,789,789,789,791,796,800,801,805,808,808,808,808,808,808,808,808,808,808,807,807,807,807,807,807,810,810,811,812,812,812,801,799,797,801,815,830,830,830,830,830,830,830,830,892,892,892,892,894,894,894,894,894,894,894,890,890,880,876,875,873,873,873,873,873,870,862,862,862,789,753,745,744,744,744,745,745,745,745,745,732,720,709,702,700,700,700,700,700,700,700,700,684,684,634,629,629,629,629,629,629,629,629,629,629,629,629,628,628,628,628,628,628,628,628,628,628,622,616,610,608,608,608,608,608,608,608,606,606,602,581,575,574,574,567,556,556,556,556,556,556,556,556,554,552,531,528,528,528,527,527,525,525,525,525,525,525,525,525,525,523],"ymouse":[629,630,630,631,632,633,635,635,635,635,635,635,635,635,635,635,635,635,635,635,635,635,635,635,635,635,635,634,634,634,634,634,634,634,634,634,633,632,631,626,621,608,601,596,590,577,570,566,563,559,556,554,554,554,553,553,553,553,553,553,553,552,552,552,552,552,552,552,552,552,552,552,558,567,572,575,575,575,575,575,575,575,575,575,575,575,575,575,575,575,575,576,576,576,576,576,576,576,576,575,573,571,571,571,571,571,571,571,571,571,561,554,550,547,545,545,545,545,545,545,545,537,537,524,518,513,506,504,504,504,504,502,499,499,499,461,431,413,400,391,381,377,37