[{"start_time":1552328532608,"click_time":1552328534051,"finger_time":1552328533632,"fix_duration":1491.2998246466282,"trial":0,"RT":1024,"MT":419,"sideResp":1,"stimulus":"img/900/equaldotanddens/L/8_Ratio_900_L_20_R_18.png","xmouse":[776,776,776,776,776,776,776,776,776,776,776,776,776,776,776,776,776,776,776,776,776,776,776,776,776,776,776,776,776,776,776,776,776,776,776,776,776,776,776,776,776,776,776,776,776,776,776,776,776,776,776,780,782,789,795,796,796,796,796,793,793,792,780,745,685,610,608,608,608,606,600,574,520],"ymouse":[482,482,482,482,482,482,482,482,482,482,482,482,482,482,482,482,482,482,482,482,482,482,482,482,482,482,482,482,482,482,482,482,482,482,482,482,482,482,482,482,482,482,482,482,482,482,482,482,482,482,473,459,455,446,403,370,330,291,249,198,176,157,138,117,98,80,80,80,80,80,80,75,68],"timestamp_mouse":[10,37,44,64,83,103,124,142,164,183,204,224,244,263,284,302,323,343,364,384,404,423,444,463,484,503,523,544,562,582,604,623,643,662,684,704,722,744,763,783,804,823,843,864,884,904,922,944,964,984,1004,1024,1044,1063,1084,1103,1123,1143,1163,1184,1203,1223,1243,1263,1283,1303,1323,1344,1364,1384,1402,1424,1443],"xSR":741.5,"ySR":469.95,"xT1":424.9,"yT1":0,"xT2":1058.1,"yT2":0,"toosoon":0,"cond_shown":"equaldotanddens","ratio_trial":900,"smaller_num":"18","larger_num":"20","correct_side":1,"subjID":"nicolasbeltransilva23","gender":"0","age":"8","school":"4","test":{"fix_dur":[250,1500],"timestim":300,"targets_dim":[100,100],"targets_relative_coord":[0.3,0.7],"size_stim":[880,420],"start_dim":[100,100],"size_start":[300,300],"size_fix":60,"samplingrate":20,"img_types":["equaldotsize","equaldotanddens","randomdotsizeEA"],"ratios":[250,500,750,900],"rep_conds":9,"nTrials":120,"trials_to_rest":500,"Trials_order":[34,105,98,29,15,82,86,91,101,93,7,42,47,113,79,39,111,109,95,73,102,41,78,56,72,51,61,2,66,46,35,43,52,83,45,75,107,99,74,49,96,48,32,55,76,80,117,0,103,65,87,92,54,33,30,25,104,5,85,77,115,67,62,50,70,22,20,3,18,13,53,57,68,6,63,26,11,94,44,28,84,112,31,106,88,81,19,69,89,58,24,16,12,1,38,116,23,14,59,4,60,40,118,17,36,119,100,97,37,9,27,21,108,110,10,90,71,114,64,8],"cond_shown":["equaldotanddens","equaldotsize","randomdotsizeEA","randomdotsizeEA","equaldotsize","equaldotanddens","randomdotsizeEA","equaldotanddens","randomdotsizeEA","equaldotsize","equaldotanddens","equaldotsize","randomdotsizeEA","randomdotsizeEA","equaldotanddens","equaldotsize","equaldotsize","equaldotanddens","randomdotsizeEA","equaldotanddens","equaldotsize","randomdotsizeEA","equaldotsize","randomdotsizeEA","equaldotsize","equaldotsize","equaldotanddens","randomdotsizeEA","equaldotsize","equaldotanddens","randomdotsizeEA","equaldotanddens","equaldotanddens","randomdotsizeEA","equaldotsize","equaldotsize","randomdotsizeEA","equaldotsize","randomdotsizeEA","equaldotanddens","equaldotsize","equaldotsize","randomdotsizeEA","equaldotanddens","equaldotanddens","randomdotsizeEA","equaldotsize","equaldotsize","equaldotanddens","randomdotsizeEA","equaldotsize","randomdotsizeEA","equaldotsize","equaldotsize","equaldotsize","equaldotanddens","randomdotsizeEA","randomdotsizeEA","equaldotanddens","randomdotsizeEA","equaldotanddens","equaldotanddens","randomdotsizeEA","randomdotsizeEA","equaldotanddens","equaldotanddens","randomdotsizeEA","equaldotsize","equaldotsize","equaldotanddens","randomdotsizeEA","equaldotsize","randomdotsizeEA","equaldotsize","equaldotsize","randomdotsizeEA","randomdotsizeEA","equaldotanddens","randomdotsizeEA","equaldotanddens","equaldotsize","equaldotanddens","equaldotanddens","equaldotanddens","equaldotanddens","equaldotsize","equaldotanddens","equaldotsize","randomdotsizeEA","equaldotanddens","equaldotsize","equaldotanddens","equaldotsize","equaldotanddens","randomdotsizeEA","randomdotsizeEA","randomdotsizeEA","randomdotsizeEA","randomdotsizeEA","equaldotanddens","equaldotsize","equaldotanddens","equaldotanddens","randomdotsizeEA","equaldotsize","randomdotsizeEA","equaldotanddens","equaldotanddens","equaldotanddens","equaldotsize","equaldotsize","equaldotsize","equaldotsize","randomdotsizeEA","equaldotanddens","equaldotsize","randomdotsizeEA","equaldotsize","equaldotanddens","randomdotsizeEA"],"ratio_trial":[900,900,250,500,500,900,250,750,500,900,750,750,900,500,750,500,500,250,900,250,750,500,750,750,250,500,250,250,750,900,900,750,500,900,900,500,900,500,250,250,250,250,750,750,500,750,900,250,750,500,500,750,750,900,750,250,750,500,250,500,750,750,250,250,900,900,750,500,750,250,500,900,750,750,500,250,900,900,750,500,250,500,750,900,500,900,750,900,500,900,250,500,250,250,250,750,900,250,900,500,250,500,900,500,250,900,500,250,250,900,500,900,250,250,900,750,900,750,500,750],"smaller_num":["18","18","6","6","2","18","2","6","10","9","3","6","18","9","3","1","2","3","9","3","6","6","9","18","4","9","3","3","6","18","18","9","5","9","18","9","18","1","3","2","4","3","9","3","9","18","18","4","3","2","2","3","6","9","3","3","9","4","3","3","3","3","4","6","18","18","6","2","15","3","3","18","3","15","2","3","18","18","15","5","4","2","15","18","6","18","12","18","2","18","2","6","3","3","2","6","18","3","18","9","3","2","9","6","3","9","4","6","2","18","2","18","3","3","9","3","18","3","4","3"],"larger_num":["20","20","24","12","4","20","8","8","20","10","4","8","20","18","4","2","4","12","10","12","8","12","12","24","16","18","12","12","8","20","20","12","10","10","20","18","20","2","12","8","16","12","12","4","18","24","20","16","4","4","4","4","8","10","4","12","12","8","12","6","4","4","16","24","20","20","8","4","20","12","6","20","4","20","4","12","20","20","20","10","16","4","20","20","12","20","16","20","4","20","8","12","12","12","8","8","20","12","20","18","12","4","10","12","12","10","8","24","8","20","4","20","12","12","10","4","20","4","8","4"],"correct_side":[1,1,2,1,1,2,2,1,2,1,2,2,2,2,1,2,1,1,2,2,2,1,2,1,2,2,2,2,1,2,2,2,1,2,1,1,2,2,2,1,1,1,2,1,1,1,1,2,2,1,1,2,1,2,1,2,2,1,1,2,1,1,1,1,2,1,1,1,1,2,2,2,1,2,1,1,1,2,2,1,1,2,2,2,1,1,2,1,1,1,2,1,1,1,1,2,1,2,1,2,1,1,1,1,2,2,1,2,1,1,1,1,2,2,1,1,1,1,1,2],"img_shown":["img/900/equaldotanddens/L/8_Ratio_900_L_20_R_18.png","img/900/equaldotsize/L/8_Ratio_900_L_20_R_18.png","img/250/randomdotsizeEA/R/6_Ratio_250_L_6_R_24.png","img/500/randomdotsizeEA/L/11_Ratio_500_L_12_R_6.png","img/500/equaldotsize/L/10_Ratio_500_L_4_R_2.png","img/900/equaldotanddens/R/13_Ratio_900_L_18_R_20.png","img/250/randomdotsizeEA/R/13_Ratio_250_L_2_R_8.png","img/750/equaldotanddens/L/13_Ratio_750_L_8_R_6.png","img/500/randomdotsizeEA/R/3_Ratio_500_L_10_R_20.png","img/900/equaldotsize/L/1_Ratio_900_L_10_R_9.png","img/750/equaldotanddens/R/7_Ratio_750_L_3_R_4.png","img/750/equaldotsize/R/2_Ratio_750_L_6_R_8.png","img/900/randomdotsizeEA/R/14_Ratio_900_L_18_R_20.png","img/500/randomdotsizeEA/R/6_Ratio_500_L_9_R_18.png","img/750/equaldotanddens/L/9_Ratio_750_L_4_R_3.png","img/500/equaldotsize/R/15_Ratio_500_L_1_R_2.png","img/500/equaldotsize/L/10_Ratio_500_L_4_R_2.png","img/250/equaldotanddens/L/14_Ratio_250_L_12_R_3.png","img/900/randomdotsizeEA/R/15_Ratio_900_L_9_R_10.png","img/250/equaldotanddens/R/11_Ratio_250_L_3_R_12.png","img/750/equaldotsize/R/2_Ratio_750_L_6_R_8.png","img/500/randomdotsizeEA/L/11_Ratio_500_L_12_R_6.png","img/750/equaldotsize/R/15_Ratio_750_L_9_R_12.png","img/750/randomdotsizeEA/L/6_Ratio_750_L_24_R_18.png","img/250/equaldotsize/R/10_Ratio_250_L_4_R_16.png","img/500/equaldotsize/R/1_Ratio_500_L_9_R_18.png","img/250/equaldotanddens/R/4_Ratio_250_L_3_R_12.png","img/250/randomdotsizeEA/R/4_Ratio_250_L_3_R_12.png","img/750/equaldotsize/L/14_Ratio_750_L_8_R_6.png","img/900/equaldotanddens/R/11_Ratio_900_L_18_R_20.png","img/900/randomdotsizeEA/R/11_Ratio_900_L_18_R_20.png","img/750/equaldotanddens/R/15_Ratio_750_L_9_R_12.png","img/500/equaldotanddens/L/7_Ratio_500_L_10_R_5.png","img/900/randomdotsizeEA/R/15_Ratio_900_L_9_R_10.png","img/900/equaldotsize/L/2_Ratio_900_L_20_R_18.png","img/500/equaldotsize/L/4_Ratio_500_L_18_R_9.png","img/900/randomdotsizeEA/R/14_Ratio_900_L_18_R_20.png","img/500/equaldotsize/R/12_Ratio_500_L_1_R_2.png","img/250/randomdotsizeEA/R/11_Ratio_250_L_3_R_12.png","img/250/equaldotanddens/L/1_Ratio_250_L_8_R_2.png","img/250/equaldotsize/L/2_Ratio_250_L_16_R_4.png","img/250/equaldotsize/L/14_Ratio_250_L_12_R_3.png","img/750/randomdotsizeEA/R/15_Ratio_750_L_9_R_12.png","img/750/equaldotanddens/L/10_Ratio_750_L_4_R_3.png","img/500/equaldotanddens/L/4_Ratio_500_L_18_R_9.png","img/750/randomdotsizeEA/L/6_Ratio_750_L_24_R_18.png","img/900/equaldotsize/L/10_Ratio_900_L_20_R_18.png","img/250/equaldotsize/R/10_Ratio_250_L_4_R_16.png","img/750/equaldotanddens/R/7_Ratio_750_L_3_R_4.png","img/500/randomdotsizeEA/L/10_Ratio_500_L_4_R_2.png","img/500/equaldotsize/L/5_Ratio_500_L_4_R_2.png","img/750/randomdotsizeEA/R/12_Ratio_750_L_3_R_4.png","img/750/equaldotsize/L/14_Ratio_750_L_8_R_6.png","img/900/equaldotsize/R/15_Ratio_900_L_9_R_10.png","img/750/equaldotsize/L/10_Ratio_750_L_4_R_3.png","img/250/equaldotanddens/R/11_Ratio_250_L_3_R_12.png","img/750/randomdotsizeEA/R/15_Ratio_750_L_9_R_12.png","img/500/randomdotsizeEA/L/8_Ratio_500_L_8_R_4.png","img/250/equaldotanddens/L/14_Ratio_250_L_12_R_3.png","img/500/randomdotsizeEA/R/2_Ratio_500_L_3_R_6.png","img/750/equaldotanddens/L/10_Ratio_750_L_4_R_3.png","img/750/equaldotanddens/L/9_Ratio_750_L_4_R_3.png","img/250/randomdotsizeEA/L/2_Ratio_250_L_16_R_4.png","img/250/randomdotsizeEA/L/5_Ratio_250_L_24_R_6.png","img/900/equaldotanddens/R/11_Ratio_900_L_18_R_20.png","img/900/equaldotanddens/L/4_Ratio_900_L_20_R_18.png","img/750/randomdotsizeEA/L/14_Ratio_750_L_8_R_6.png","img/500/equaldotsize/L/10_Ratio_500_L_4_R_2.png","img/750/equaldotsize/L/1_Ratio_750_L_20_R_15.png","img/250/equaldotanddens/R/9_Ratio_250_L_3_R_12.png","img/500/randomdotsizeEA/R/2_Ratio_500_L_3_R_6.png","img/900/equaldotsize/R/11_Ratio_900_L_18_R_20.png","img/750/randomdotsizeEA/L/9_Ratio_750_L_4_R_3.png","img/750/equaldotsize/R/3_Ratio_750_L_15_R_20.png","img/500/equaldotsize/L/5_Ratio_500_L_4_R_2.png","img/250/randomdotsizeEA/L/14_Ratio_250_L_12_R_3.png","img/900/randomdotsizeEA/L/10_Ratio_900_L_20_R_18.png","img/900/equaldotanddens/R/13_Ratio_900_L_18_R_20.png","img/750/randomdotsizeEA/R/5_Ratio_750_L_15_R_20.png","img/500/equaldotanddens/L/7_Ratio_500_L_10_R_5.png","img/250/equaldotsize/L/2_Ratio_250_L_16_R_4.png","img/500/equaldotanddens/R/9_Ratio_500_L_2_R_4.png","img/750/equaldotanddens/R/3_Ratio_750_L_15_R_20.png","img/900/equaldotanddens/R/14_Ratio_900_L_18_R_20.png","img/500/equaldotanddens/L/13_Ratio_500_L_12_R_6.png","img/900/equaldotsize/L/4_Ratio_900_L_20_R_18.png","img/750/equaldotanddens/R/11_Ratio_750_L_12_R_16.png","img/900/equaldotsize/L/8_Ratio_900_L_20_R_18.png","img/500/randomdotsizeEA/L/5_Ratio_500_L_4_R_2.png","img/900/equaldotanddens/L/10_Ratio_900_L_20_R_18.png","img/250/equaldotsize/R/13_Ratio_250_L_2_R_8.png","img/500/equaldotanddens/L/11_Ratio_500_L_12_R_6.png","img/250/equaldotsize/L/15_Ratio_250_L_12_R_3.png","img/250/equaldotanddens/L/14_Ratio_250_L_12_R_3.png","img/250/randomdotsizeEA/L/3_Ratio_250_L_8_R_2.png","img/750/randomdotsizeEA/R/2_Ratio_750_L_6_R_8.png","img/900/randomdotsizeEA/L/4_Ratio_900_L_20_R_18.png","img/250/randomdotsizeEA/R/9_Ratio_250_L_3_R_12.png","img/900/randomdotsizeEA/L/2_Ratio_900_L_20_R_18.png","img/500/equaldotanddens/R/1_Ratio_500_L_9_R_18.png","img/250/equaldotsize/L/14_Ratio_250_L_12_R_3.png","img/500/equaldotanddens/L/5_Ratio_500_L_4_R_2.png","img/900/equaldotanddens/L/1_Ratio_900_L_10_R_9.png","img/500/randomdotsizeEA/L/13_Ratio_500_L_12_R_6.png","img/250/equaldotsize/R/11_Ratio_250_L_3_R_12.png","img/900/randomdotsizeEA/R/6_Ratio_900_L_9_R_10.png","img/500/equaldotanddens/L/8_Ratio_500_L_8_R_4.png","img/250/equaldotanddens/R/6_Ratio_250_L_6_R_24.png","img/250/equaldotanddens/L/7_Ratio_250_L_8_R_2.png","img/900/equaldotsize/L/4_Ratio_900_L_20_R_18.png","img/500/equaldotsize/L/5_Ratio_500_L_4_R_2.png","img/900/equaldotsize/L/10_Ratio_900_L_20_R_18.png","img/250/equaldotsize/R/11_Ratio_250_L_3_R_12.png","img/250/randomdotsizeEA/R/11_Ratio_250_L_3_R_12.png","img/900/equaldotanddens/L/1_Ratio_900_L_10_R_9.png","img/750/equaldotsize/L/8_Ratio_750_L_4_R_3.png","img/900/randomdotsizeEA/L/8_Ratio_900_L_20_R_18.png","img/750/equaldotsize/L/8_Ratio_750_L_4_R_3.png","img/500/equaldotanddens/L/8_Ratio_500_L_8_R_4.png","img/750/randomdotsizeEA/R/12_Ratio_750_L_3_R_4.png"],"Rat0":[["12_Ratio_0_L_9_R_0.png","13_Ratio_0_L_6_R_0.png","5_Ratio_0_L_2_R_0.png","6_Ratio_0_L_4_R_0.png","8_Ratio_0_L_6_R_0.png"],["1_Ratio_0_L_0_R_17.png","10_Ratio_0_L_0_R_22.png","11_Ratio_0_L_0_R_1.png","14_Ratio_0_L_0_R_24.png","15_Ratio_0_L_0_R_4.png","2_Ratio_0_L_0_R_5.png","3_Ratio_0_L_0_R_17.png","4_Ratio_0_L_0_R_7.png","7_Ratio_0_L_0_R_19.png","9_Ratio_0_L_0_R_15.png"]],"Rat250":[["1_Ratio_250_L_8_R_2.png","14_Ratio_250_L_12_R_3.png","15_Ratio_250_L_12_R_3.png","2_Ratio_250_L_16_R_4.png","3_Ratio_250_L_8_R_2.png","5_Ratio_250_L_24_R_6.png","7_Ratio_250_L_8_R_2.png"],["10_Ratio_250_L_4_R_16.png","11_Ratio_250_L_3_R_12.png","12_Ratio_250_L_5_R_20.png","13_Ratio_250_L_2_R_8.png","4_Ratio_250_L_3_R_12.png","6_Ratio_250_L_6_R_24.png","8_Ratio_250_L_1_R_4.png","9_Ratio_250_L_3_R_12.png"]],"Rat500":[["10_Ratio_500_L_4_R_2.png","11_Ratio_500_L_12_R_6.png","13_Ratio_500_L_12_R_6.png","4_Ratio_500_L_18_R_9.png","5_Ratio_500_L_4_R_2.png","7_Ratio_500_L_10_R_5.png","8_Ratio_500_L_8_R_4.png"],["1_Ratio_500_L_9_R_18.png","12_Ratio_500_L_1_R_2.png","14_Ratio_500_L_5_R_10.png","15_Ratio_500_L_1_R_2.png","2_Ratio_500_L_3_R_6.png","3_Ratio_500_L_10_R_20.png","6_Ratio_500_L_9_R_18.png","9_Ratio_500_L_2_R_4.png"]],"Rat750":[["1_Ratio_750_L_20_R_15.png","10_Ratio_750_L_4_R_3.png","13_Ratio_750_L_8_R_6.png","14_Ratio_750_L_8_R_6.png","6_Ratio_750_L_24_R_18.png","8_Ratio_750_L_4_R_3.png","9_Ratio_750_L_4_R_3.png"],["11_Ratio_750_L_12_R_16.png","12_Ratio_750_L_3_R_4.png","15_Ratio_750_L_9_R_12.png","2_Ratio_750_L_6_R_8.png","3_Ratio_750_L_15_R_20.png","4_Ratio_750_L_15_R_20.png","5_Ratio_750_L_15_R_20.png","7_Ratio_750_L_3_R_4.png"]],"Rat900":[["1_Ratio_900_L_10_R_9.png","10_Ratio_900_L_20_R_18.png","2_Ratio_900_L_20_R_18.png","4_Ratio_900_L_20_R_18.png","8_Ratio_900_L_20_R_18.png"],["11_Ratio_900_L_18_R_20.png","12_Ratio_900_L_18_R_20.png","13_Ratio_900_L_18_R_20.png","14_Ratio_900_L_18_R_20.png","15_Ratio_900_L_9_R_10.png","3_Ratio_900_L_9_R_10.png","5_Ratio_900_L_9_R_10.png","6_Ratio_900_L_9_R_10.png","7_Ratio_900_L_9_R_10.png","9_Ratio_900_L_18_R_20.png"]],"Rat1000":[["10_Ratio_1000_L_16_R_16.png","11_Ratio_1000_L_6_R_6.png","12_Ratio_1000_L_14_R_14.png","13_Ratio_1000_L_20_R_20.png","15_Ratio_1000_L_15_R_15.png","2_Ratio_1000_L_17_R_17.png","4_Ratio_1000_L_9_R_9.png","5_Ratio_1000_L_6_R_6.png","6_Ratio_1000_L_19_R_19.png","8_Ratio_1000_L_14_R_14.png","9_Ratio_1000_L_25_R_25.png"],["1_Ratio_1000_L_1_R_1.png","14_Ratio_1000_L_17_R_17.png","3_Ratio_1000_L_17_R_17.png","7_Ratio_1000_L_6_R_6.png"]]}},{"start_time":1552328536338,"click_time":1552328537491,"finger_time":1552328537012,"fix_duration":883.7248029887818,"trial":1,"RT":674,"MT":479,"sideResp":2,"stimulus":"img/900/equaldotsize/L/8_Ratio_900_L_20_R_18.png","xmouse":[767,767,767,767,767,767,767,767,767,767,767,767,767,767,767,767,767,767,767,767,767,767,767,767,767,767,767,767,767,767,767,775,779,824,853,877,891,896,898,903,914,922,930,945,954,958,960,962,995,1017,1028,1035,1038,1038,1040,1044,1054,1064],"ymouse":[502,502,502,502,502,502,502,502,502,502,502,502,502,502,502,502,502,502,502,502,502,502,502,502,502,502,502,502,502,502,502,496,488,432,391,362,341,335,330,317,296,272,240,182,165,153,148,145,126,112,102,92,89,89,89,87,85,80],"timestamp_mouse":[14,35,54,74,93,114,132,153,174,193,214,234,253,274,294,313,332,352,374,394,414,433,452,473,494,513,533,553,574,592,613,633,654,674,693,713,734,753,773,794,813,833,853,873,893,914,934,953,973,994,1012,1033,1054,1074,1092,1113,1134,1153],"xSR":741.5,"ySR":469.95,"xT1":424.9,"yT1":0,"xT2":1058.1,"yT2":0,"toosoon":0,"cond_shown":"equaldotsize","ratio_trial":900,"smaller_num":"18","larger_num":"20","correct_side":1,"subjID":"nicolasbeltransilva23","gender":"0","age":"8","school":"4"},{"start_time":1552328539740,"click_time":1552328541511,"finger_time":1552328541111,"fix_duration":1246.972692548998,"trial":2,"RT":1371,"MT":400,"sideResp":1,"stimulus":"img/250/randomdotsizeEA/R/6_Ratio_250_L_6_R_24.png","xmouse":[799,799,799,799,799,799,799,799,799,799,799,799,799,799,799,799,799,799,799,799,799,799,799,799,799,799,799,799,799,799,799,799,799,799,799,799,799,799,799,799,799,799,799,799,799,799,799,799,799,799,799,799,799,799,799,799,799,799,799,799,799,799,799,800,806,810,812,817,820,820,820,818,817,817,817,816,803,796,677,607,565,548,541,540,538,531,523,515,509],"ymouse":[543,543,543,543,543,543,543,543,543,543,543,543,543,543,543,543,543,543,543,543,543,543,543,543,543,543,543,543,543,543,543,543,543,543,543,543,543,543,543,543,543,543,543,543,543,543,543,543,543,543,543,543,543,543,543,543,543,543,547,547,547,548,548,548,537,530,522,505,446,407,384,374,373,373,373,370,344,333,225,180,158,150,148,147,147,145,140,128,98],"timestamp_mouse":[22,31,52,72,92,112,131,152,171,192,212,231,251,272,292,311,332,351,372,391,411,431,451,472,492,512,531,551,572,592,610,631,652,671,691,711,732,751,771,792,812,832,852,872,891,912,931,951,971,992,1011,1031,1051,1071,1091,1111,1131,1152,1170,1191,1211,1232,1252,1270,1291,1311,1331,1351,1371,1390,1411,1431,1452,1471,1491,1511,1531,1551,1572,1591,1611,1632,1651,1672,1691,1711,1730,1752,1771],"xSR":741.5,"ySR":469.95,"xT1":424.9,"yT1":0,"xT2":1058.1,"yT2":0,"toosoon":0,"cond_shown":"randomdotsizeEA","ratio_trial":250,"smaller_num":"6","larger_num":"24","correct_side":2,"subjID":"nicolasbeltransilva23","gender":"0","age":"8","school":"4"},{"start_time":1552328557504,"click_time":1552328559211,"finger_time":1552328558351,"fix_duration":1352.1870925424485,"trial":3,"RT":847,"MT":860,"sideResp":1,"stimulus":"img/500/randomdotsizeEA/L/11_Ratio_500_L_12_R_6.png","xmouse":[773,773,773,773,773,773,773,773,773,773,773,773,773,773,773,773,773,779,785,789,789,789,789,789,789,789,789,789,789,789,789,789,789,789,789,789,789,789,791,793,800,808,853,880,898,913,921,930,931,931,931,931,931,931,930,930,930,930,930,930,935,939,944,967,982,998,1008,1020,1023,1024,1024,1024,1024,1024,1024,1024,1024,1024,1024,1024,1022,1011,871,739,601,490],"ymouse":[507,511,514,514,514,514,514,514,514,514,514,514,515,517,517,517,517,517,508,503,502,502,502,502,502,502,502,502,503,503,503,503,503,503,503,503,503,503,502,499,492,482,444,424,406,386,367,318,296,263,233,205,159,153,152,152,152,150,145,141,128,118,111,99,93,87,84,76,73,72,72,72,72,72,72,72,72,72,72,72,72,70,70,70,70,70],"timestamp_mouse":[10,31,47,68,88,107,128,147,167,187,208,227,246,267,288,306,327,347,368,387,406,427,448,467,488,506,528,548,567,586,607,628,648,668,687,708,726,746,767,787,806,827,847,867,887,908,928,947,967,986,1008,1027,1048,1066,1088,1107,1127,1147,1167,1187,1206,1228,1247,1267,1288,1307,1328,1348,1366,1387,1407,1427,1447,1467,1486,1508,1527,1547,1568,1588,1608,1628,1648,1666,1686,1707],"xSR":741.5,"ySR":469.95,"xT1":424.9,"yT1":0,"xT2":1058.1,"yT2":0,"toosoon":0,"cond_shown":"randomdotsizeEA","ratio_trial":500,"smaller_num":"6","larger_num":"12","correct_side":1,"subjID":"nicolasbeltransilva23","gender":"0","age":"8","school":"4"},{"start_time":1552328560418,"click_time":1552328561411,"finger_time":1552328561030,"fix_duration":386.0293496919336,"trial":4,"RT":612,"MT":381,"sideResp":1,"stimulus":"img/500/equaldotsize/L/10_Ratio_500_L_4_R_2.png","xmouse":[802,802,802,802,802,802,802,801,800,799,799,799,799,799,799,799,799,799,799,799,799,799,799,799,799,799,799,799,798,798,798,803,810,813,813,814,814,815,815,813,784,748,704,692,690,688,682,637,580,516],"ymouse":[495,495,495,495,495,495,495,495,496,497,497,497,497,497,497,497,497,497,497,497,497,497,497,497,497,497,497,497,483,473,440,397,354,349,348,348,345,334,325,309,277,244,203,192,191,188,180,131,93,56],"timestamp_mouse":[14,36,53,72,94,112,133,154,174,193,212,234,253,273,293,313,333,354,374,394,414,434,454,474,493,512,533,554,572,592,612,634,653,673,694,713,732,752,773,793,812,834,852,873,893,914,934,953,973,992],"xSR":741.5,"ySR":469.95,"xT1":424.9,"yT1":0,"xT2":1058.1,"yT2":0,"toosoon":0,"cond_shown":"equaldotsize","ratio_trial":500,"smaller_num":"2","larger_num":"4","correct_side":1,"subjID":"nicolasbeltransilva23","gender":"0","age":"8","school":"4"},{"start_time":1552328581430,"click_time":1552328582872,"finger_time":1552328581731,"fix_duration":1198.6949948072636,"trial":5,"RT":301,"MT":1141,"sideResp":2,"stimulus":"img/900/equaldotanddens/R/13_Ratio_900_L_18_R_20.png","xmouse":[819,819,819,819,819,819,819,819,813,803,800,799,799,799,799,799,799,799,799,799,799,800,801,801,803,804,808,812,813,818,819,820,820,820,820,820,820,820,820,820,815,812,807,802,798,798,798,804,817,817,817,817,820,822,829,833,849,884,928,1059,1099,1121,1132,1133,1136,1136,1136,1136,1136,1128,1122,1117,1111],"ymouse":[539,539,539,539,539,539,539,539,527,509,501,498,497,493,470,464,460,456,453,443,438,436,432,430,426,425,423,421,421,419,419,418,418,418,418,418,425,436,456,476,486,498,506,513,516,516,516,514,509,508,508,508,492,486,466,460,440,405,363,242,191,159,144,144,144,144,143,143,139,123,111,100,87],"timestamp_mouse":[11,37,41,63,82,103,121,142,162,183,201,222,241,261,281,301,321,341,361,382,402,421,441,462,482,501,521,542,562,582,602,623,643,662,681,702,723,741,762,782,801,822,841,863,881,901,923,942,962,983,1003,1022,1042,1062,1082,1103,1122,1142,1162,1181,1201,1222,1241,1262,1283,1302,1323,1341,1362,1381,1401,1421,1442],"xSR":741.5,"ySR":469.95,"xT1":424.9,"yT1":0,"xT2":1058.1,"yT2":0,"toosoon":0,"cond_shown":"equaldotanddens","ratio_trial":900,"smaller_num":"18","larger_num":"20","correct_side":2,"subjID":"nicolasbeltransilva23","gender":"0","age":"8","school":"4"},{"start_time":1552328584316,"click_time":1552328585392,"finger_time":1552328584971,"fix_duration":482.5502208760236,"trial":6,"RT":655,"MT":421,"sideResp":2,"stimulus":"img/250/randomdotsizeEA/R/13_Ratio_250_L_2_R_8.png","xmouse":[810,810,810,810,810,810,810,810,810,810,810,810,810,810,810,810,810,810,810,810,810,810,810,810,810,810,810,810,810,810,812,815,817,825,865,884,903,920,947,972,1067,1122,1166,1200,1243,1248,1250,1251,1248,1234,1216,1196,1173,1150],"ymouse":[510,510,510,510,510,510,510,510,510,510,510,510,510,510,510,510,510,510,510,510,510,510,510,510,510,510,510,510,510,510,492,472,453,433,377,363,352,343,325,313,271,240,212,185,103,78,60,49,32,18,14,8,7,4],"timestamp_mouse":[16,44,56,75,96,116,136,157,176,196,216,236,255,276,297,316,336,356,376,397,417,436,456,477,497,516,535,556,575,597,615,635,655,676,696,715,736,756,777,796,815,836,855,875,896,915,936,957,976,996,1015,1036,1055,1076],"xSR":741.5,"ySR":469.95,"xT1":424.9,"yT1":0,"xT2":1058.1,"yT2":0,"toosoon":0,"cond_shown":"randomdotsizeEA","ratio_trial":250,"smaller_num":"2","larger_num":"8","correct_side":2,"subjID":"nicolasbeltransilva23","gender":"0","age":"8","school":"4"},{"start_time":1552328594523,"click_time":1552328595731,"finger_time":1552328595353,"fix_duration":250,"trial":7,"RT":830,"MT":378,"sideResp":1,"stimulus":"img/750/equaldotanddens/L/13_Ratio_750_L_8_R_6.png","xmouse":[774,774,774,774,774,774,774,774,774,774,774,774,774,774,774,774,774,774,774,774,774,774,774,774,774,774,774,774,774,774,774,774,774,774,774,774,774,774,774,769,766,760,740,731,726,726,724,712,692,675,661,633,618,599,584,567,532,525,525,525,523],"ymouse":[533,533,533,533,533,533,533,533,533,533,533,533,533,533,533,533,533,533,533,533,533,533,533,533,533,533,533,533,533,533,533,533,533,533,533,533,533,530,518,500,478,367,263,231,215,214,213,213,210,209,201,177,164,141,124,106,80,76,76,76,75],"timestamp_mouse":[13,39,48,68,89,110,129,148,170,189,208,229,250,269,289,308,330,349,370,388,409,429,450,469,488,510,528,549,569,588,608,629,650,669,689,708,729,750,768,790,809,830,849,870,888,909,928,948,968,989,1010,1029,1050,1070,1089,1110,1129,1150,1170,1188,1208],"xSR":741.5,"ySR":469.95,"xT1":424.9,"yT1":0,"xT2":1058.1,"yT2":0,"toosoon":0,"cond_shown":"equaldotanddens","ratio_trial":750,"smaller_num":"6","larger_num":"8","correct_side":1,"subjID":"nicolasbeltransilva23","gender":"0","age":"8","school":"4"},{"start_time":1552328597910,"click_time":1552328599273,"finger_time":1552328598512,"fix_duration":1336.5240977617455,"trial":8,"RT":602,"MT":761,"sideResp":2,"stimulus":"img/500/randomdotsizeEA/R/3_Ratio_500_L_10_R_20.png","xmouse":[803,803,803,803,803,803,803,803,803,803,803,803,803,803,803,803,803,803,803,803,803,803,803,803,803,803,803,803,808,811,821,831,857,860,863,868,871,877,881,886,892,900,914,915,919,924,939,984,1030,1056,1056,1056,1056,1056,1056,1056,1056,1056,1056,1255,1251,1241,1208,1198,1193,1191,1187,1159,1144],"ymouse":[495,495,495,495,495,495,495,495,495,495,495,495,495,495,495,495,495,495,495,495,495,495,495,495,495,495,495,495,493,483,461,425,327,317,308,298,289,272,264,253,242,230,205,198,193,185,178,147,65,22,22,22,22,22,22,22,22,22,22,8,14,22,34,37,37,37,37,37,35],"timestamp_mouse":[10,22,41,63,82,102,123,141,162,182,203,221,242,262,282,301,323,341,361,382,402,423,442,462,483,502,522,542,561,582,602,621,641,662,682,702,722,742,763,781,802,822,841,863,882,902,922,942,961,982,1002,1023,1041,1061,1082,1102,1123,1142,1163,1181,1203,1223,1242,1261,1281,1302,1322,1341,1362],"xSR":741.5,"ySR":469.95,"xT1":424.9,"yT1":0,"xT2":1058.1,"yT2":0,"toosoon":0,"cond_shown":"randomdotsizeEA","ratio_trial":500,"smaller_num":"10","larger_num":"20","correct_side":2,"subjID":"nicolasbeltransilva23","gender":"0","age":"8","school":"4"},{"start_time":1552328601388,"click_time":1552328602612,"finger_time":1552328601992,"fix_duration":1335.4529165198844,"trial":9,"RT":604,"MT":620,"sideResp":2,"stimulus":"img/900/equaldotsize/L/1_Ratio_900_L_10_R_9.png","xmouse":[771,771,771,771,771,771,771,771,771,771,771,771,771,771,771,771,771,771,771,771,771,771,771,771,771,771,771,773,779,786,790,793,793,793,793,793,791,788,780,779,779,779,782,790,798,809,815,826,854,875,906,932,954,981,989,993,999,1005,1023,1039,1055,1064],"ymouse":[521,521,521,521,521,521,521,521,521,521,521,521,521,521,521,521,521,521,521,521,521,521,521,521,521,521,520,519,515,493,453,392,319,226,208,198,187,171,151,142,136,131,123,116,110,105,103,97,83,76,65,59,56,53,52,50,49,49,46,44,44,44],"timestamp_mouse":[6,23,43,63,83,104,125,145,164,184,204,225,244,265,284,303,324,344,364,384,404,423,444,465,484,503,524,544,563,584,604,623,645,663,683,703,724,744,764,783,804,824,845,864,883,903,924,944,964,983,1004,1025,1044,1064,1084,1103,1124,1144,1164,1183,1203,1224],"xSR":741.5,"ySR":469.95,"xT1":424.9,"yT1":0,"xT2":1058.1,"yT2":0,"toosoon":0,"cond_shown":"equaldotsize","ratio_trial":900,"smaller_num":"9","larger_num":"10","correct_side":1,"subjID":"nicolasbeltransilva23","gender":"0","age":"8","school":"4"},{"start_time":1552328604160,"click_time":1552328605293,"finger_time":1552328604453,"fix_duration":526.6455472939118,"trial":10,"RT":293,"MT":840,"sideResp":2,"stimulus":"img/750/equaldotanddens/R/7_Ratio_750_L_3_R_4.png","xmouse":[814,814,814,814,814,814,814,814,814,814,814,814,813,815,827,833,833,833,814,806,806,806,806,806,806,806,805,805,805,805,805,805,805,805,805,809,815,821,825,828,834,839,848,859,872,900,926,938,942,950,978,1001,1022,1033,1036,1052,1064],"ymouse":[490,490,490,490,490,490,490,490,490,490,490,490,488,484,459,431,415,314,251,233,233,233,233,233,233,233,233,233,233,233,233,233,233,232,232,228,226,223,219,217,208,198,179,158,142,108,88,84,83,80,70,61,59,55,54,48,42],"timestamp_mouse":[14,33,51,71,92,112,131,152,172,192,212,231,251,271,293,311,333,351,372,393,412,431,451,472,492,513,532,552,572,593,612,632,653,673,693,711,731,751,772,792,811,832,853,873,892,913,932,953,972,992,1012,1033,1052,1072,1091,1112,1132],"xSR":741.5,"ySR":469.95,"xT1":424.9,"yT1":0,"xT2":1058.1,"yT2":0,"toosoon":0,"cond_shown":"equaldotanddens","ratio_trial":750,"smaller_num":"3","larger_num":"4","correct_side":2,"subjID":"nicolasbeltransilva23","gender":"0","age":"8","school":"4"},{"start_time":1552328606794,"click_time":1552328608132,"finger_time":1552328607471,"fix_duration":600.5844821595765,"trial":11,"RT":677,"MT":661,"sideResp":2,"stimulus":"img/750/equaldotsize/R/2_Ratio_750_L_6_R_8.png","xmouse":[790,790,790,790,790,790,790,790,790,790,790,790,790,790,790,790,790,790,790,790,790,792,797,800,801,801,801,801,802,807,810,818,824,837,840,842,844,846,851,857,861,867,875,887,898,906,918,935,972,992,1014,1023,1025,1025,1023,1014,1008,1005,1005,1005,1005,1023,1033,1104,1122,1132,1135],"ymouse":[542,542,542,542,542,542,542,542,542,542,542,542,542,542,542,542,542,542,542,542,541,539,535,531,531,531,531,531,530,519,513,496,482,451,445,440,435,429,414,399,381,362,334,293,258,225,187,144,83,63,49,43,43,43,45,64,84,95,99,99,100,100,102,108,103,101,99],"timestamp_mouse":[18,39,57,78,97,118,138,158,178,197,217,238,258,277,299,318,339,358,378,399,418,438,459,477,497,517,539,557,578,599,618,637,657,677,698,718,738,758,778,797,819,838,858,878,899,917,938,958,977,997,1018,1038,1058,1078,1098,1118,1137,1157,1178,1198,1217,1238,1258,1278,1298,1319,1338],"xSR":741.5,"ySR":469.95,"xT1":424.9,"yT1":0,"xT2":1058.1,"yT2":0,"toosoon":0,"cond_shown":"equaldotsize","ratio_trial":750,"smaller_num":"6","larger_num":"8","correct_side":2,"subjID":"nicolasbeltransilva23","gender":"0","age":"8","school":"4"},{"start_time":1552328617410,"click_time":1552328619953,"finger_time":1552328619292,"fix_duration":937.5670349403423,"trial":12,"RT":1882,"MT":661,"sideResp":1,"stimulus":"img/900/randomdotsizeEA/R/14_Ratio_900_L_18_R_20.png","xmouse":[788,788,788,788,788,788,788,788,788,788,788,788,788,788,788,788,788,788,788,788,788,788,788,788,788,788,788,788,788,788,788,788,788,788,788,788,788,788,788,788,788,788,788,790,794,796,796,796,796,796,796,796,796,796,796,796,796,796,796,796,796,796,796,796,796,796,796,796,796,796,796,796,796,796,796,796,796,796,796,796,796,796,796,796,796,796,796,798,801,809,815,820,828,830,838,840,844,849,855,864,867,872,876,881,890,891,893,893,893,887,879,868,856,845,835,820,810,793,778,736,709,682,662,647,633,598,558,442],"ymouse":[543,543,543,543,543,543,543,543,543,543,543,543,543,543,543,543,543,543,543,543,543,543,543,543,543,543,543,543,543,543,543,543,543,543,543,543,543,543,543,543,543,543,543,543,540,535,533,533,533,533,533,533,533,533,533,533,533,533,533,533,533,533,533,533,533,533,533,533,533,533,533,533,533,533,533,533,533,533,533,533,533,533,533,533,533,520,518,509,505,494,488,481,472,471,462,457,452,444,433,413,403,393,380,362,327,312,300,277,260,225,208,190,176,164,158,150,148,144,141,131,128,122,121,116,112,107,103,85],"timestamp_mouse":[14,22,41,61,81,101,121,141,162,183,202,222,242,261,282,302,323,343,361,381,403,422,441,462,482,502,523,541,561,583,601,623,643,662,681,703,722,742,761,782,802,823,843,861,882,902,921,941,962,983,1003,1023,1041,1062,1083,1101,1122,1142,1161,1181,1201,1221,1241,1261,1281,1301,1321,1342,1362,1382,1403,1421,1442,1463,1481,1501,1521,1543,1561,1581,1602,1622,1643,1662,1683,1701,1721,1742,1763,1782,1802,1835,1843,1863,1882,1902,1921,1941,1962,1982,2003,2021,2042,2062,2083,2101,2122,2143,2161,2182,2203,2222,2242,2262,2282,2302,2323,2343,2362,2382,2402,2421,2442,2461,2482,2502,2522,2543],"xSR":741.5,"ySR":469.95,"xT1":424.9,"yT1":0,"xT2":1058.1,"yT2":0,"toosoon":0,"cond_shown":"randomdotsizeEA","ratio_trial":900,"smaller_num":"18","larger_num":"20","correct_side":2,"subjID":"nicolasbeltransilva23","gender":"0","age":"8","school":"4"},{"start_time":1552328623012,"click_time":1552328625132,"finger_time":1552328623732,"fix_duration":1019.9016034171369,"trial":13,"RT":720,"MT":1400,"sideResp":2,"stimulus":"img/500/randomdotsizeEA/R/6_Ratio_500_L_9_R_18.png","xmouse":[767,767,767,767,767,767,767,767,767,767,767,767,767,767,767,767,767,767,767,767,767,767,767,767,767,767,767,767,767,767,766,766,766,768,802,870,915,967,1004,1033,1042,1043,1045,1045,1042,1026,1016,1000,975,944,939,939,939,940,944,946,950,954,960,974,979,985,993,1010,1135,1177,1191,1191,1191,1191,1191,1191,1191,1190,1185,1181,1174,1163,1149,1134,1132,1130,1129,1128,1128,1128,1128,1128,1127,1120,1115,1113,1110,1109,1108,1108,1108,1108,1108,1108,1108,1108,1108,1108,1103,1101],"ymouse":[505,505,505,505,505,505,505,505,505,505,505,505,505,505,505,505,505,505,505,505,505,505,505,505,505,505,505,505,505,505,507,507,507,509,512,518,516,499,486,454,428,402,375,355,321,284,260,232,200,130,100,75,49,31,26,25,23,23,23,23,23,24,28,37,113,135,141,141,141,141,141,141,141,141,141,141,141,139,138,135,135,134,133,132,132,132,132,132,131,122,116,115,114,113,112,112,112,112,112,112,111,110,109,109,101,97],"timestamp_mouse":[20,39,59,79,101,119,141,160,181,200,220,240,260,281,301,320,340,360,381,401,420,440,459,481,499,520,541,561,580,599,619,641,660,680,700,720,740,760,780,799,819,839,860,879,900,919,939,959,979,1000,1019,1039,1059,1080,1099,1120,1140,1160,1181,1201,1220,1240,1260,1279,1299,1319,1339,1359,1380,1400,1421,1440,1460,1481,1500,1519,1539,1559,1579,1600,1620,1640,1660,1679,1700,1720,1739,1759,1780,1799,1819,1839,1860,1880,1900,1920,1940,1959,1980,1999,2020,2040,2060,2080,2100,2119],"xSR":741.5,"ySR":469.95,"xT1":424.9,"yT1":0,"xT2":1058.1,"yT2":0,"toosoon":0,"cond_shown":"randomdotsizeEA","ratio_trial":500,"smaller_num":"9","larger_num":"18","correct_side":2,"subjID":"nicolasbeltransilva23","gender":"0","age":"8","school":"4"},{"start_time":1552328632627,"click_time":1552328634132,"finger_time":1552328633112,"fix_duration":394.43938464580555,"trial":14,"RT":485,"MT":1020,"sideResp":1,"stimulus":"img/750/equaldotanddens/L/9_Ratio_750_L_4_R_3.png","xmouse":[794,794,794,794,794,794,794,794,794,794,794,794,794,794,794,794,794,794,794,794,794,794,794,797,797,797,797,797,797,797,797,797,809,827,878,901,922,939,957,989,1053,1064,1069,1075,1077,1077,1073,1065,1048,1032,980,964,951,945,943,941,941,941,941,941,941,941,940,935,928,887,858,831,810,787,728,701,671,619,570,508],"ymouse":[518,518,518,518,518,518,518,518,518,518,518,518,518,518,518,518,518,518,518,518,518,518,505,482,461,450,450,450,450,450,450,450,439,420,346,309,278,256,237,209,159,148,144,134,127,112,108,104,101,100,100,100,100,100,100,102,102,102,102,102,102,102,102,102,102,99,96,89,86,81,72,68,62,56,49,38],"timestamp_mouse":[12,37,46,65,85,105,125,145,164,184,206,225,245,266,284,304,324,345,366,386,405,424,445,465,485,504,526,545,565,585,605,625,644,665,686,704,725,744,766,785,805,825,844,865,885,904,926,946,964,985,1004,1025,1045,1064,1084,1106,1126,1145,1166,1185,1204,1224,1244,1264,1286,1305,1325,1346,1366,1385,1405,1426,1446,1465,1485,1504],"xSR":741.5,"ySR":469.95,"xT1":424.9,"yT1":0,"xT2":1058.1,"yT2":0,"toosoon":0,"cond_shown":"equaldotanddens","ratio_trial":750,"smaller_num":"3","larger_num":"4","correct_side":1,"subjID":"nicolasbeltransilva23","gender":"0","age":"8","school":"4"},{"start_time":1552328636194,"click_time":1552328637233,"finger_time":1552328636552,"fix_duration":1060.9209710770847,"trial":15,"RT":358,"MT":681,"sideResp":2,"stimulus":"img/500/equaldotsize/R/15_Ratio_500_L_1_R_2.png","xmouse":[776,776,776,776,776,776,776,776,776,776,776,783,795,803,807,810,823,842,871,894,919,939,942,943,943,944,944,944,947,948,950,950,950,950,950,950,950,953,955,963,984,1032,1049,1060,1070,1073,1078,1082,1087,1093,1100,1115],"ymouse":[541,541,541,541,541,541,541,541,541,541,541,541,543,546,548,549,549,542,528,513,488,454,448,444,440,433,415,403,393,388,383,383,383,383,383,383,383,381,379,372,342,274,250,230,212,200,180,167,153,135,108,78],"timestamp_mouse":[18,42,58,77,97,118,138,158,178,198,218,238,258,279,299,319,337,358,377,398,418,438,459,477,499,518,538,557,578,599,618,638,658,679,697,717,738,757,779,799,817,838,857,877,898,919,939,957,978,998,1017,1038],"xSR":741.5,"ySR":469.95,"xT1":424.9,"yT1":0,"xT2":1058.1,"yT2":0,"toosoon":0,"cond_shown":"equaldotsize","ratio_trial":500,"smaller_num":"1","larger_num":"2","correct_side":2,"subjID":"nicolasbeltransilva23","gender":"0","age":"8","school":"4"},{"start_time":1552328638264,"click_time":1552328639033,"finger_time":1552328638891,"fix_duration":250,"trial":16,"RT":627,"MT":142,"sideResp":2,"stimulus":"img/500/equaldotsize/L/10_Ratio_500_L_4_R_2.png","xmouse":[789,789,789,789,789,789,789,789,789,789,789,789,789,789,789,789,789,789,789,789,789,789,789,789,789,789,789,789,794,809,839,882,932,1022,1067,1085,1097,1097,1100],"ymouse":[543,543,543,543,543,543,543,543,543,543,543,543,543,543,543,543,543,543,543,543,543,543,543,543,543,543,543,543,538,518,479,423,364,264,196,158,126,111,94],"timestamp_mouse":[12,37,48,68,88,108,129,148,168,189,208,227,248,268,287,307,329,348,367,389,407,427,447,468,487,509,529,548,568,589,607,627,649,669,687,708,728,747,769],"xSR":741.5,"ySR":469.95,"xT1":424.9,"yT1":0,"xT2":1058.1,"yT2":0,"toosoon":0,"cond_shown":"equaldotsize","ratio_trial":500,"smaller_num":"2","larger_num":"4","correct_side":1,"subjID":"nicolasbeltransilva23","gender":"0","age":"8","school":"4"},{"start_time":1552328641513,"click_time":1552328642671,"finger_time":1552328642272,"fix_duration":1440.4122948320423,"trial":17,"RT":759,"MT":399,"sideResp":1,"stimulus":"img/250/equaldotanddens/L/14_Ratio_250_L_12_R_3.png","xmouse":[766,766,766,766,766,766,766,766,766,766,766,766,766,766,766,766,766,766,766,766,766,766,766,766,766,766,766,766,766,766,766,775,775,775,777,778,791,804,805,803,769,706,706,706,706,706,706,706,706,706,706,706,706,706,706,706,706,453],"ymouse":[536,536,536,536,536,536,536,536,536,536,536,536,536,536,536,536,536,536,536,536,536,536,536,536,536,536,536,536,536,536,532,524,524,524,523,521,477,418,344,249,140,16,16,16,16,16,16,16,16,16,16,16,16,16,16,16,16,5],"timestamp_mouse":[20,39,59,79,98,118,138,159,179,199,218,240,258,278,298,318,338,359,378,398,418,439,459,478,498,518,538,559,580,599,619,638,659,679,698,719,738,759,779,799,819,838,858,878,899,919,939,958,978,998,1019,1038,1058,1078,1098,1118,1138,1158],"xSR":741.5,"ySR":469.95,"xT1":424.9,"yT1":0,"xT2":1058.1,"yT2":0,"toosoon":0,"cond_shown":"equaldotanddens","ratio_trial":250,"smaller_num":"3","larger_num":"12","correct_side":1,"subjID":"nicolasbeltransilva23","gender":"0","age":"8","school":"4"},{"start_time":1552328644497,"click_time":1552328645452,"finger_time":1552328645032,"fix_duration":1163.7801084408343,"trial":18,"RT":535,"MT":420,"sideResp":2,"stimulus":"img/900/randomdotsizeEA/R/15_Ratio_900_L_9_R_10.png","xmouse":[794,794,794,794,794,794,794,794,794,794,794,794,794,794,794,794,794,794,794,794,794,794,798,804,815,830,842,860,866,868,872,875,883,886,886,888,893,909,921,929,937,944,969,980,993,1010,1029,1060],"ymouse":[527,527,527,527,527,527,527,527,527,527,527,527,527,527,527,527,527,527,527,527,527,527,525,511,494,474,450,418,408,399,391,385,365,356,348,335,319,278,250,222,191,166,113,95,75,57,42,14],"timestamp_mouse":[14,36,55,74,95,116,134,155,174,194,215,235,255,275,294,315,334,354,376,395,415,435,455,475,496,515,535,555,574,594,614,634,655,675,695,716,735,754,774,794,814,835,854,875,895,915,934,955],"xSR":741.5,"ySR":469.95,"xT1":424.9,"yT1":0,"xT2":1058.1,"yT2":0,"toosoon":0,"cond_shown":"randomdotsizeEA","ratio_trial":900,"smaller_num":"9","larger_num":"10","correct_side":2,"subjID":"nicolasbeltransilva23","gender":"0","age":"8","school":"4"},{"start_time":1552328651750,"click_time":1552328652672,"finger_time":1552328652371,"fix_duration":376.0879168455089,"trial":19,"RT":621,"MT":301,"sideResp":2,"stimulus":"img/250/equaldotanddens/R/11_Ratio_250_L_3_R_12.png","xmouse":[807,807,807,807,807,807,807,807,807,807,807,807,807,807,807,807,807,807,807,807,807,807,807,807,807,807,807,807,807,820,832,932,984,1033,1055,1055,1055,1055,1055,1055,1055,1055,1055,1055,1055,1055,1101],"ymouse":[510,510,510,510,510,510,510,510,510,510,510,510,510,510,510,510,510,510,510,510,510,510,510,510,510,510,510,510,510,494,470,292,183,70,18,18,18,18,18,18,18,18,18,18,18,18,23],"timestamp_mouse":[12,35,42,63,82,101,122,141,161,182,203,223,242,262,281,301,322,342,361,381,401,421,443,461,481,501,521,542,562,582,602,621,641,661,681,701,721,742,762,781,803,822,842,861,881,902,922],"xSR":741.5,"ySR":469.95,"xT1":424.9,"yT1":0,"xT2":1058.1,"yT2":0,"toosoon":0,"cond_shown":"equaldotanddens","ratio_trial":250,"smaller_num":"3","larger_num":"12","correct_side":2,"subjID":"nicolasbeltransilva23","gender":"0","age":"8","school":"4"},{"start_time":1552328662697,"click_time":1552328663892,"finger_time":1552328663351,"fix_duration":1103.0363293413466,"trial":20,"RT":654,"MT":541,"sideResp":2,"stimulus":"img/750/equaldotsize/R/2_Ratio_750_L_6_R_8.png","xmouse":[806,806,806,806,806,806,806,806,806,806,806,806,806,806,806,806,806,806,806,806,806,813,816,825,833,833,833,833,833,833,833,833,833,835,868,899,942,980,1011,1039,1039,1039,1039,1039,1039,1039,1039,1039,1017,1004,1004,1004,1004,1004,1009,1014,1025,1035,1044,1060],"ymouse":[529,529,529,529,529,529,529,529,529,529,529,529,529,529,529,529,529,529,529,529,529,517,511,490,470,470,470,470,470,470,470,470,467,461,390,315,228,144,66,4,4,4,4,4,4,4,4,4,4,28,28,28,28,28,29,28,26,23,21,21],"timestamp_mouse":[15,42,54,75,94,114,135,155,175,195,214,234,255,274,294,314,335,356,374,395,414,434,455,475,494,514,534,554,575,594,614,635,654,674,696,716,734,755,776,796,816,836,855,874,894,914,934,955,974,995,1016,1034,1054,1075,1095,1114,1134,1155,1174,1195],"xSR":741.5,"ySR":469.95,"xT1":424.9,"yT1":0,"xT2":1058.1,"yT2":0,"toosoon":0,"cond_shown":"equaldotsize","ratio_trial":750,"smaller_num":"6","larger_num":"8","correct_side":2,"subjID":"nicolasbeltransilva23","gender":"0","age":"8","school":"4"},{"start_time":1552328666415,"click_time":1552328672552,"finger_time":1552328667391,"fix_duration":1421.6984418172947,"trial":21,"RT":976,"MT":5161,"sideResp":2,"stimulus":"img/500/randomdotsizeEA/L/11_Ratio_500_L_12_R_6.png","xmouse":[833,833,834,834,834,835,835,836,836,837,837,837,837,837,837,837,837,837,839,839,839,839,839,839,839,839,839,839,839,839,839,839,839,839,839,839,839,839,839,839,839,839,839,839,839,839,839,839,844,865,894,924,946,955,956,956,956,956,956,956,956,956,956,956,956,956,956,956,956,956,956,956,956,956,956,956,956,956,956,956,956,956,956,956,956,956,956,956,956,956,956,956,956,956,956,956,956,956,956,956,956,956,956,956,956,956,956,956,956,956,956,956,956,951,943,943,942,941,939,937,937,936,936,936,936,936,936,936,936,936,936,936,936,936,936,936,936,936,936,936,936,936,936,936,936,936,936,936,936,919,897,882,874,869,869,869,869,869,869,869,869,869,869,869,869,869,869,869,869,869,869,869,869,869,869,869,869,869,869,869,869,869,869,869,869,869,869,869,869,869,869,869,869,869,869,869,869,869,869,869,869,869,869,869,869,869,869,869,869,869,869,869,869,869,869,869,869,869,869,838,838,836,831,831,831,831,831,831,837,864,864,864,864,866,869,869,871,871,870,860,854,851,844,839,833,830,827,823,822,819,819,819,819,819,819,819,819,819,819,819,819,819,819,819,819,819,819,819,819,819,819,819,819,819,819,819,819,819,819,819,819,838,901,985,1136,1168,1177,1177,1177,1177,1177,1177,1177,1177,1179,1179,1179,1181,1181,1184,1190,1190,1190,1190,1174,1160,1149],"ymouse":[545,545,547,547,549,551,552,554,556,556,556,556,556,556,556,556,556,556,556,556,556,556,556,556,556,556,556,556,556,556,556,556,556,556,556,556,556,556,556,556,556,556,556,556,556,556,556,556,556,554,548,541,535,532,531,531,531,531,531,531,531,531,531,531,531,531,531,531,531,531,531,531,531,531,531,531,531,531,531,531,531,531,531,531,531,531,531,531,531,531,531,531,531,531,531,531,531,531,531,531,531,531,531,531,531,531,531,531,531,531,531,531,531,531,531,531,531,531,531,531,531,530,530,530,530,530,530,530,530,530,530,530,530,530,530,530,530,530,530,530,530,530,530,530,530,530,530,530,530,534,551,585,617,714,714,714,714,714,714,714,714,714,714,714,714,714,714,714,714,714,714,714,714,714,714,714,714,714,714,714,714,714,714,714,714,714,714,714,714,714,714,714,714,714,714,714,714,714,714,714,714,714,714,714,714,714,714,714,714,714,714,714,714,714,714,714,714,714,714,706,638,606,587,585,585,585,585,585,584,586,587,587,587,582,559,554,551,550,548,546,545,545,544,544,543,541,541,541,541,541,541,541,540,540,540,540,540,540,540,540,540,540,540,540,540,540,540,540,540,540,540,540,540,540,540,540,540,540,540,540,540,516,455,379,204,158,140,138,138,137,137,137,136,135,131,131,131,129,126,123,114,110,95,82,56,45,45],"timestamp_mouse":[16,41,56,76,97,116,136,157,177,196,217,236,257,278,297,317,336,357,377,397,416,436,457,478,497,517,536,556,578,596,617,638,657,677,697,717,737,756,776,796,817,836,856,877,896,917,936,958,976,997,1017,1037,1057,1076,1098,1117,1136,1156,1177,1196,1217,1236,1257,1277,1296,1317,1338,1356,1377,1397,1416,1436,1457,1477,1496,1516,1537,1557,1577,1597,1617,1636,1657,1678,1696,1716,1737,1757,1776,1796,1816,1836,1857,1876,1896,1917,1936,1957,1978,1996,2018,2037,2056,2076,2096,2116,2136,2156,2177,2196,2216,2236,2257,2277,2296,2317,2337,2356,2377,2397,2417,2437,2458,2477,2496,2516,2537,2557,2577,2596,2617,2636,2656,2677,2696,2717,2737,2756,2776,2797,2817,2837,2857,2878,2896,2917,2937,2957,2976,2996,3017,3037,3057,3076,3098,3117,3137,3156,3176,3197,3216,3236,3256,3278,3297,3316,3337,3356,3377,3397,3418,3438,3458,3477,3496,3517,3536,3557,3577,3596,3616,3637,3657,3677,3697,3716,3737,3757,3776,3796,3817,3836,3857,3877,3897,3916,3938,3956,3977,3996,4016,4037,4057,4076,4096,4117,4137,4156,4177,4196,4216,4237,4256,4277,4297,4316,4336,4356,4377,4396,4416,4437,4457,4476,4496,4516,4537,4556,4576,4597,4616,4637,4657,4676,4697,4716,4736,4756,4777,4797,4816,4836,4856,4876,4896,4917,4937,4956,4977,4997,5017,5037,5057,5078,5097,5118,5138,5158,5176,5196,5217,5236,5256,5277,5297,5317,5338,5358,5376,5396,5417,5436,5457,5476,5497,5516,5537,5556,5576,5601,5616,5636,5657,5677,5697,5716,5737,5756,5777,5797,5816,5836,5856,5876,5897,5916,5937,5956,5977,5997,6017,6037,6056,6076,6097,6116,6137],"xSR":741.5,"ySR":469.95,"xT1":424.9,"yT1":0,"xT2":1058.1,"yT2":0,"toosoon":0,"cond_shown":"randomdotsizeEA","ratio_trial":500,"smaller_num":"6","larger_num":"12","correct_side":1,"subjID":"nicolasbeltransilva23","gender":"0","age":"8","school":"4"},{"start_time":1552328675921,"click_time":1552328676792,"finger_time":1552328676312,"fix_duration":928.1950468122175,"trial":22,"RT":391,"MT":480,"sideResp":2,"stimulus":"img/750/equaldotsize/R/15_Ratio_750_L_9_R_12.png","xmouse":[794,794,794,794,794,794,793,793,793,793,793,793,793,793,793,793,793,793,792,786,782,778,774,774,774,774,774,774,774,774,772,772,772,772,787,809,831,855,878,898,938,962,1005,1065],"ymouse":[518,518,518,518,518,517,517,517,517,517,517,517,517,517,517,517,517,517,496,450,415,386,364,355,348,335,327,316,301,285,258,246,236,231,220,211,201,191,181,168,145,135,112,71],"timestamp_mouse":[13,43,50,71,91,110,131,151,170,190,210,231,252,271,291,310,330,351,371,391,410,431,450,470,490,510,531,550,570,590,610,630,650,670,692,710,730,751,771,790,810,831,851,871],"xSR":741.5,"ySR":469.95,"xT1":424.9,"yT1":0,"xT2":1058.1,"yT2":0,"toosoon":0,"cond_shown":"equaldotsize","ratio_trial":750,"smaller_num":"9","larger_num":"12","correct_side":2,"subjID":"nicolasbeltransilva23","gender":"0","age":"8","school":"4"},{"start_time":1552328679158,"click_time":1552328680531,"finger_time":1552328679871,"fix_duration":1465.7183112167893,"trial":23,"RT":713,"MT":660,"sideResp":1,"stimulus":"img/750/randomdotsizeEA/L/6_Ratio_750_L_24_R_18.png","xmouse":[814,821,821,833,836,836,836,836,836,836,836,836,836,836,836,836,836,835,835,835,835,835,835,835,835,835,835,835,835,835,835,835,835,835,838,844,851,854,858,858,858,858,858,858,858,858,858,858,860,860,850,809,762,683,666,655,652,650,647,644,639,631,621,606,569,548,534,528,524],"ymouse":[508,506,506,502,502,502,502,502,502,502,502,502,502,502,502,502,502,502,502,502,502,502,502,502,502,502,502,502,502,502,502,502,502,502,480,454,427,405,370,359,348,343,337,330,319,316,312,311,305,294,276,219,162,62,40,28,24,22,21,21,20,20,20,20,28,31,32,35,36],"timestamp_mouse":[15,41,53,73,94,114,134,154,174,194,214,234,253,274,293,314,334,354,374,394,413,435,454,473,494,513,533,554,573,595,614,634,654,673,694,713,734,753,773,793,813,833,853,873,893,914,934,954,974,993,1013,1034,1053,1073,1095,1114,1134,1155,1173,1195,1214,1233,1254,1273,1294,1314,1334,1353,1373],"xSR":741.5,"ySR":469.95,"xT1":424.9,"yT1":0,"xT2":1058.1,"yT2":0,"toosoon":0,"cond_shown":"randomdotsizeEA","ratio_trial":750,"smaller_num":"18","larger_num":"24","correct_side":1,"subjID":"nicolasbeltransilva23","gender":"0","age":"8","school":"4"},{"start_time":1552328688799,"click_time":1552328689572,"finger_time":1552328689072,"fix_duration":505.0808246548403,"trial":24,"RT":273,"MT":500,"sideResp":2,"stimulus":"img/250/equaldotsize/R/10_Ratio_250_L_4_R_16.png","xmouse":[821,821,821,821,821,821,821,821,821,821,821,826,839,853,870,878,881,887,891,892,897,903,921,922,930,934,938,945,960,968,977,986,1002,1012,1019,1024,1030,1047,1061],"ymouse":[508,508,508,508,508,508,508,508,508,508,508,502,481,456,419,399,383,371,357,351,340,325,289,283,259,245,230,216,189,176,163,148,126,119,112,109,108,101,95],"timestamp_mouse":[13,37,52,73,94,112,133,152,173,192,212,232,253,273,293,312,333,353,373,393,413,432,456,473,492,513,532,552,572,592,613,632,653,674,692,712,732,753,772],"xSR":741.5,"ySR":469.95,"xT1":424.9,"yT1":0,"xT2":1058.1,"yT2":0,"toosoon":0,"cond_shown":"equaldotsize","ratio_trial":250,"smaller_num":"4","larger_num":"16","correct_side":2,"subjID":"nicolasbeltransilva23","gender":"0","age":"8","school":"4"},{"start_time":1552328690512,"click_time":1552328691412,"finger_time":1552328690832,"fix_duration":297.6618072524796,"trial":25,"RT":320,"MT":580,"sideResp":2,"stimulus":"img/500/equaldotsize/R/1_Ratio_500_L_9_R_18.png","xmouse":[809,809,809,809,809,809,809,809,807,804,797,797,797,796,809,832,864,918,933,933,931,923,918,918,919,925,934,963,983,1008,1021,1029,1042,1043,1043,1043,1043,1043,1043,1043,1043,1043,1045,1053,1058,1065],"ymouse":[548,548,548,548,548,548,548,548,548,548,548,548,548,547,535,521,496,436,389,350,325,299,279,278,276,274,270,245,217,162,134,113,95,95,93,93,93,93,93,93,93,93,92,90,89,85],"timestamp_mouse":[1,19,40,59,80,99,119,141,159,180,200,220,240,259,280,300,320,341,359,379,399,421,440,460,479,501,520,540,560,579,600,619,641,660,680,700,719,740,759,779,800,819,841,859,880,899],"xSR":741.5,"ySR":469.95,"xT1":424.9,"yT1":0,"xT2":1058.1,"yT2":0,"toosoon":0,"cond_shown":"equaldotsize","ratio_trial":500,"smaller_num":"9","larger_num":"18","correct_side":2,"subjID":"nicolasbeltransilva23","gender":"0","age":"8","school":"4"},{"start_time":1552328694709,"click_time":1552328695371,"finger_time":1552328694851,"fix_duration":454.9263637035025,"trial":26,"RT":142,"MT":520,"sideResp":2,"stimulus":"img/250/equaldotanddens/R/4_Ratio_250_L_3_R_12.png","xmouse":[762,772,785,795,803,814,823,846,857,872,883,892,903,905,906,907,907,909,909,911,914,917,920,921,922,923,929,959,977,996,1019,1047,1094],"ymouse":[503,503,498,493,489,478,465,433,415,394,374,359,342,339,337,335,335,333,332,325,315,305,291,289,287,281,271,232,212,197,172,140,66],"timestamp_mouse":[20,42,62,83,103,122,142,162,184,202,223,242,262,283,303,323,343,362,383,403,423,442,462,482,503,522,543,563,584,603,623,643,662],"xSR":741.5,"ySR":469.95,"xT1":424.9,"yT1":0,"xT2":1058.1,"yT2":0,"toosoon":0,"cond_shown":"equaldotanddens","ratio_trial":250,"smaller_num":"3","larger_num":"12","correct_side":2,"subjID":"nicolasbeltransilva23","gender":"0","age":"8","school":"4"},{"start_time":1552328697741,"click_time":1552328698592,"finger_time":1552328698333,"fix_duration":1468.219102756148,"trial":27,"RT":592,"MT":259,"sideResp":2,"stimulus":"img/250/randomdotsizeEA/R/4_Ratio_250_L_3_R_12.png","xmouse":[742,745,758,758,786,800,820,824,825,825,825,825,825,825,825,825,827,837,838,838,838,838,838,838,838,838,838,838,838,846,854,872,879,885,892,897,907,922,949,976,994,1038,1067],"ymouse":[478,483,489,489,497,502,511,513,513,513,513,513,513,513,513,513,512,493,485,480,479,479,479,479,479,479,479,475,473,467,461,445,435,425,407,393,363,335,297,258,226,134,83],"timestamp_mouse":[10,33,61,71,90,111,130,151,172,191,210,231,251,272,292,311,330,351,370,390,412,431,450,470,491,510,530,550,570,591,612,631,650,670,691,710,731,750,770,791,811,831,851],"xSR":741.5,"ySR":469.95,"xT1":424.9,"yT1":0,"xT2":1058.1,"yT2":0,"toosoon":0,"cond_shown":"randomdotsizeEA","ratio_trial":250,"smaller_num":"3","larger_num":"12","correct_side":2,"subjID":"nicolasbeltransilva23","gender":"0","age":"8","school":"4"},{"start_time":1552328699993,"click_time":1552328701052,"finger_time":1552328700472,"fix_duration":679.7852687544117,"trial":28,"RT":479,"MT":580,"sideResp":1,"stimulus":"img/750/equaldotsize/L/14_Ratio_750_L_8_R_6.png","xmouse":[785,785,785,785,785,785,785,785,785,785,785,785,785,785,785,785,785,785,785,790,796,803,819,831,847,861,872,888,890,890,890,881,870,834,801,759,728,697,619,597,582,569,526,499,469,450,442,442,458,470,474,474],"ymouse":[504,504,504,504,504,504,504,504,504,504,504,504,504,504,504,504,504,504,500,493,485,477,456,443,425,408,393,371,368,364,361,353,345,326,310,288,269,248,210,200,194,187,161,149,136,128,123,122,113,108,103,98],"timestamp_mouse":[39,58,78,100,118,138,158,179,198,218,240,259,280,300,318,338,358,378,398,419,440,459,479,498,519,538,559,580,598,619,639,659,678,698,718,738,758,780,798,819,839,859,880,898,918,938,958,978,1000,1018,1039,1059],"xSR":741.5,"ySR":469.95,"xT1":424.9,"yT1":0,"xT2":1058.1,"yT2":0,"toosoon":0,"cond_shown":"equaldotsize","ratio_trial":750,"smaller_num":"6","larger_num":"8","correct_side":1,"subjID":"nicolasbeltransilva23","gender":"0","age":"8","school":"4"},{"start_time":1552328706577,"click_time":1552328708653,"finger_time":1552328707191,"fix_duration":883.1890508005532,"trial":29,"RT":614,"MT":1462,"sideResp":2,"stimulus":"img/900/equaldotanddens/R/11_Ratio_900_L_18_R_20.png","xmouse":[769,769,769,769,769,769,769,769,769,769,769,769,769,769,769,769,769,769,770,770,771,771,771,771,771,767,761,757,751,748,746,746,746,746,746,745,743,743,760,814,913,940,956,956,956,956,956,956,956,956,956,956,956,956,956,1179,1189,1190,1190,1190,1190,1190,1190,1189,1186,1180,1172,1170,1169,1168,1168,1168,1168,1168,1168,1168,1168,1144,1123,1117,1115,1115,1115,1138,1162,1172,1173,1173,1173,1173,1175,1175,1175,1175,1175,1193,1197,1206,1210,1210,1206,1180,1163,1129],"ymouse":[489,489,489,489,489,489,489,489,489,489,489,489,489,489,489,489,489,489,489,489,489,489,489,489,490,503,520,531,552,564,573,573,573,573,573,573,572,572,540,457,205,74,17,17,17,17,17,17,17,17,17,17,17,17,17,46,57,57,57,57,57,57,57,61,62,66,76,82,82,83,83,83,83,82,79,79,82,127,195,234,239,239,232,154,80,55,55,55,55,55,50,49,49,48,49,59,60,49,35,26,23,17,12,3],"timestamp_mouse":[14,36,54,74,96,114,134,154,174,195,215,235,255,274,296,315,334,354,374,396,415,435,454,474,495,516,535,554,575,595,614,634,654,674,695,715,736,756,774,795,816,834,855,874,895,915,935,954,975,995,1015,1035,1055,1075,1094,1116,1134,1155,1175,1194,1215,1235,1254,1274,1294,1315,1334,1355,1375,1395,1415,1435,1454,1475,1495,1515,1535,1555,1575,1596,1615,1635,1654,1675,1695,1716,1735,1755,1775,1795,1816,1834,1855,1875,1896,1916,1934,1954,1975,1995,2015,2035,2055,2076],"xSR":741.5,"ySR":469.95,"xT1":424.9,"yT1":0,"xT2":1058.1,"yT2":0,"toosoon":0,"cond_shown":"equaldotanddens","ratio_trial":900,"smaller_num":"18","larger_num":"20","correct_side":2,"subjID":"nicolasbeltransilva23","gender":"0","age":"8","school":"4"},{"start_time":1552328711743,"click_time":1552328717873,"finger_time":1552328712972,"fix_duration":250,"trial":30,"RT":1229,"MT":4901,"sideResp":2,"stimulus":"img/900/randomdotsizeEA/R/11_Ratio_900_L_18_R_20.png","xmouse":[808,808,808,808,808,808,808,808,808,808,808,808,808,808,808,808,808,808,808,808,808,808,808,808,808,808,808,808,808,808,808,808,808,808,808,808,808,808,808,808,808,808,808,808,808,808,808,808,808,808,808,808,808,808,808,808,807,807,807,807,816,836,879,940,942,942,942,942,942,942,942,942,942,942,942,942,942,942,942,942,942,942,942,942,942,942,942,942,942,942,942,942,942,942,942,942,942,942,942,942,942,942,942,942,942,942,942,942,942,942,942,942,942,942,942,942,942,942,942,942,942,942,942,942,942,942,942,942,942,942,942,942,942,942,942,942,942,942,942,942,942,942,942,942,942,942,942,942,942,942,942,942,942,942,942,942,942,942,942,942,942,942,942,942,942,942,942,942,942,942,942,942,942,942,942,942,942,942,942,942,942,942,942,942,942,942,942,942,942,942,942,942,942,942,942,942,942,942,942,942,942,942,942,942,942,942,942,942,942,942,942,942,942,942,942,942,942,942,942,942,942,942,942,942,942,942,942,942,942,942,942,942,942,942,933,928,917,919,938,951,955,956,957,977,989,991,993,1017,1070,1153,1175,1186,1186,1186,1186,1186,1186,1186,1186,1186,1186,1186,1186,1186,1186,1186,1186,1186,1186,1186,1186,1186,1186,1186,1186,1186,1186,1186,1186,1186,1186,1186,1186,1186,1186,1186,1186,1186,1186,1186,1186,1186,1186,1186,1186,1186,1186,1186,1186,1186,1186,1186,1186,1186,1186,1162,1121],"ymouse":[527,527,527,527,527,527,527,527,527,527,527,527,527,527,527,527,527,527,527,527,527,527,527,527,527,527,527,527,527,527,527,527,527,527,527,527,527,527,527,527,527,527,527,527,527,527,527,527,527,527,527,527,527,527,527,527,535,535,535,535,506,457,385,338,338,338,338,338,338,338,338,338,338,338,338,338,338,338,338,338,338,338,338,338,338,338,338,338,338,338,338,338,338,338,338,338,338,338,338,338,338,338,338,338,338,338,338,338,338,338,338,338,338,338,338,338,338,338,338,338,338,338,338,338,338,338,338,338,338,338,338,338,338,338,338,338,338,338,338,338,338,338,338,338,338,338,338,338,338,338,338,338,338,338,338,338,338,338,338,338,338,338,338,338,338,338,338,338,338,338,338,338,338,338,338,338,338,338,338,338,338,338,338,338,338,338,338,338,338,338,338,338,338,338,338,338,338,338,338,338,338,338,338,338,338,338,338,338,338,338,338,338,338,338,338,338,338,338,338,338,338,338,338,338,338,338,338,338,338,338,338,338,338,338,373,389,431,435,433,428,425,425,425,405,393,391,391,360,289,132,54,11,11,11,11,11,11,11,11,11,11,11,11,11,11,11,11,11,11,11,11,11,11,11,11,11,11,11,11,11,11,11,11,11,11,11,11,11,11,11,11,11,11,11,11,11,11,11,11,11,11,11,11,11,11,1,15],"timestamp_mouse":[12,39,49,69,89,108,128,150,168,190,210,229,248,268,290,310,328,348,368,389,408,430,450,468,488,508,530,548,570,589,608,628,650,668,690,710,728,749,769,789,808,830,848,869,888,909,929,950,969,989,1008,1030,1050,1068,1089,1110,1129,1149,1169,1188,1209,1229,1248,1268,1288,1309,1330,1348,1368,1389,1409,1429,1450,1469,1489,1509,1529,1548,1568,1588,1608,1629,1649,1670,1690,1709,1729,1748,1768,1788,1809,1828,1848,1870,1889,1910,1928,1948,1968,1988,2008,2028,2048,2069,2088,2108,2128,2149,2169,2189,2209,2229,2249,2270,2290,2310,2330,2348,2368,2388,2408,2429,2449,2468,2489,2509,2530,2549,2568,2588,2609,2629,2649,2669,2690,2710,2730,2750,2768,2789,2809,2828,2850,2869,2890,2910,2930,2949,2968,2989,3009,3029,3049,3069,3090,3110,3129,3148,3169,3189,3209,3230,3249,3270,3290,3310,3329,3350,3370,3390,3410,3430,3449,3469,3490,3510,3530,3550,3569,3590,3608,3629,3648,3669,3688,3709,3729,3749,3768,3788,3810,3829,3848,3869,3889,3909,3928,3949,3968,3989,4009,4028,4048,4069,4090,4110,4130,4150,4168,4189,4208,4229,4249,4269,4290,4309,4329,4349,4368,4388,4410,4430,4449,4469,4489,4509,4529,4549,4569,4589,4609,4629,4649,4669,4690,4710,4730,4749,4770,4789,4809,4829,4849,4870,4889,4908,4929,4948,4969,4988,5010,5030,5050,5070,5089,5108,5128,5150,5169,5189,5208,5229,5249,5268,5289,5309,5329,5349,5369,5389,5409,5428,5449,5468,5490,5509,5529,5549,5569,5589,5609,5629,5648,5670,5688,5708,5729,5749,5769,5789,5809,5829,5848,5869,5889,5909,5929,5950,5969,5988,6009,6029,6049,6070,6089,6109,6130],"xSR":741.5,"ySR":469.95,"xT1":424.9,"yT1":0,"xT2":1058.1,"yT2":0,"toosoon":0,"cond_shown":"randomdotsizeEA","ratio_trial":900,"smaller_num":"18","larger_num":"20","correct_side":2,"subjID":"nicolasbeltransilva23","gender":"0","age":"8","school":"4"},{"start_time":1552328720437,"click_time":1552328721112,"finger_time":1552328720772,"fix_duration":1303.4058423836123,"trial":31,"RT":335,"MT":340,"sideResp":2,"stimulus":"img/750/equaldotanddens/R/15_Ratio_750_L_9_R_12.png","xmouse":[775,775,775,775,775,775,775,775,775,775,775,775,775,775,780,808,864,930,982,1027,1031,1033,1038,1045,1063,1072,1079,1083,1086,1088,1092,1095,1095,1095],"ymouse":[538,538,538,538,538,538,538,538,538,538,538,538,538,538,535,519,486,449,412,365,359,355,346,335,302,283,264,247,229,185,166,141,117,99],"timestamp_mouse":[15,41,55,76,95,114,135,156,176,194,216,235,254,275,294,314,335,356,376,395,416,434,455,476,494,515,536,555,576,594,616,636,656,675],"xSR":741.5,"ySR":469.95,"xT1":424.9,"yT1":0,"xT2":1058.1,"yT2":0,"toosoon":0,"cond_shown":"equaldotanddens","ratio_trial":750,"smaller_num":"9","larger_num":"12","correct_side":2,"subjID":"nicolasbeltransilva23","gender":"0","age":"8","school":"4"},{"start_time":1552328723096,"click_time":1552328724011,"finger_time":1552328723732,"fix_duration":963.9999389367126,"trial":32,"RT":636,"MT":279,"sideResp":1,"stimulus":"img/500/equaldotanddens/L/7_Ratio_500_L_10_R_5.png","xmouse":[802,802,801,800,800,797,797,797,797,797,797,797,797,797,797,797,797,797,797,797,797,797,797,797,797,797,797,797,797,797,797,803,803,803,799,792,782,735,697,666,630,565,539,515,466,440],"ymouse":[528,528,528,526,522,510,510,510,510,510,510,510,510,510,510,510,510,510,510,510,510,510,510,510,510,510,510,510,507,502,490,458,439,421,391,371,348,276,232,197,174,146,137,123,103,91],"timestamp_mouse":[21,39,56,76,97,117,136,156,175,196,215,236,255,275,297,317,337,355,377,396,415,436,457,476,496,516,536,556,575,595,616,636,657,677,695,715,736,755,775,796,815,837,857,876,896,915],"xSR":741.5,"ySR":469.95,"xT1":424.9,"yT1":0,"xT2":1058.1,"yT2":0,"toosoon":0,"cond_shown":"equaldotanddens","ratio_trial":500,"smaller_num":"5","larger_num":"10","correct_side":1,"subjID":"nicolasbeltransilva23","gender":"0","age":"8","school":"4"},{"start_time":1552328729499,"click_time":1552328730371,"finger_time":1552328729892,"fix_duration":385.67064367557344,"trial":33,"RT":393,"MT":479,"sideResp":2,"stimulus":"img/900/randomdotsizeEA/R/15_Ratio_900_L_9_R_10.png","xmouse":[757,757,757,756,754,754,754,754,754,754,754,754,754,754,754,754,754,753,753,753,753,756,762,768,774,781,789,804,813,820,824,830,835,840,846,859,873,902,921,940,966,996,1056,1064],"ymouse":[504,504,504,504,505,505,505,506,506,506,506,506,506,506,506,506,506,504,486,464,440,425,398,385,370,352,335,282,254,228,206,185,173,167,163,159,153,142,133,128,121,111,94,89],"timestamp_mouse":[14,38,53,72,92,113,133,153,172,192,213,232,253,274,293,312,332,352,373,393,413,434,452,472,492,513,533,553,573,594,612,632,652,673,693,713,732,753,774,794,813,833,852,872],"xSR":741.5,"ySR":469.95,"xT1":424.9,"yT1":0,"xT2":1058.1,"yT2":0,"toosoon":0,"cond_shown":"randomdotsizeEA","ratio_trial":900,"smaller_num":"9","larger_num":"10","correct_side":2,"subjID":"nicolasbeltransilva23","gender":"0","age":"8","school":"4"},{"start_time":1552328751580,"click_time":1552328753672,"finger_time":1552328751695,"fix_duration":447.4506175273326,"trial":34,"RT":115,"MT":1977,"sideResp":1,"stimulus":"img/900/equaldotsize/L/2_Ratio_900_L_20_R_18.png","xmouse":[768,768,768,768,768,1408,1272,1245,1193,1182,1192,1240,1248,1248,1248,1248,1248,1248,1248,1248,1248,1248,1248,1248,1248,1248,1248,1248,1248,1248,1248,1248,1248,1248,1248,1248,1248,1248,1248,1248,1248,1248,1248,1248,1248,1248,1248,1248,1248,1248,1248,1248,1248,1248,1248,1248,1248,1248,1248,1248,1248,1248,1248,1248,1248,1248,1248,1248,1248,1248,1248,1248,1248,1248,1248,1248,1248,1248,1248,1248,1248,1248,1248,1248,1248,1248,1248,1248,1248,1248,1248,1248,1248,1248,1248,1248,1248,1248,1248,1248,1248,176,274,382,457],"ymouse":[527,527,527,527,527,705,645,630,601,595,562,402,148,148,148,148,148,148,148,148,148,148,148,148,148,148,148,148,148,148,148,148,148,148,148,148,148,148,148,148,148,148,148,148,148,148,148,148,148,148,148,148,148,148,148,148,148,148,148,148,148,148,148,148,148,148,148,148,148,148,148,148,148,148,148,148,148,148,148,148,148,148,148,148,148,148,148,148,148,148,148,148,148,148,148,148,148,148,148,148,148,13,43,73,80],"timestamp_mouse":[13,45,51,71,92,115,133,151,171,192,213,232,251,272,292,314,332,351,372,391,412,432,451,472,492,513,532,553,572,592,612,632,652,673,693,712,733,752,772,792,812,833,852,871,891,912,931,951,972,991,1011,1031,1053,1073,1093,1112,1132,1151,1172,1192,1213,1232,1251,1272,1291,1313,1333,1353,1371,1392,1412,1432,1453,1472,1492,1512,1532,1552,1573,1592,1612,1633,1652,1672,1693,1712,1732,1753,1773,1793,1812,1832,1853,1872,1892,1912,1931,1953,1973,1993,2013,2032,2051,2072,2092],"xSR":741.5,"ySR":469.95,"xT1":424.9,"yT1":0,"xT2":1058.1,"yT2":0,"toosoon":0,"cond_shown":"equaldotsize","ratio_trial":900,"smaller_num":"18","larger_num":"20","correct_side":1,"subjID":"nicolasbeltransilva23","gender":"0","age":"8","school":"4"},{"start_time":1552328766657,"click_time":1552328767772,"finger_time":1552328767031,"fix_duration":725.1266379811343,"trial":35,"RT":374,"MT":741,"sideResp":1,"stimulus":"img/500/equaldotsize/L/4_Ratio_500_L_18_R_9.png","xmouse":[794,794,794,794,794,794,794,794,794,792,785,779,776,776,776,776,773,763,735,734,733,733,739,753,754,757,760,774,798,809,823,834,842,850,850,850,848,838,805,785,764,739,719,677,659,641,620,610,598,594,587,575,564,541,533,521],"ymouse":[514,514,514,514,514,514,514,514,514,514,514,514,514,514,514,514,514,514,515,515,516,518,523,533,533,531,523,453,316,286,262,249,243,238,238,238,237,233,210,197,179,160,148,128,122,116,107,105,103,103,103,103,103,102,99,97],"timestamp_mouse":[16,36,55,75,96,116,135,155,176,196,215,235,255,274,296,315,334,355,374,394,414,435,455,475,495,515,535,555,575,596,615,636,656,676,694,714,735,756,775,796,815,835,855,875,895,915,936,956,974,994,1014,1034,1054,1075,1094,1115],"xSR":741.5,"ySR":469.95,"xT1":424.9,"yT1":0,"xT2":1058.1,"yT2":0,"toosoon":0,"cond_shown":"equaldotsize","ratio_trial":500,"smaller_num":"9","larger_num":"18","correct_side":1,"subjID":"nicolasbeltransilva23","gender":"0","age":"8","school":"4"},{"start_time":1552328774911,"click_time":1552328776093,"finger_time":1552328775012,"fix_duration":757.0929165536747,"trial":36,"RT":101,"MT":1081,"sideResp":1,"stimulus":"img/900/randomdotsizeEA/R/14_Ratio_900_L_18_R_20.png","xmouse":[784,784,784,785,788,788,777,769,769,779,805,818,836,839,840,843,843,843,843,846,846,846,846,846,846,846,843,804,767,696,649,618,591,591,590,585,583,579,579,579,579,580,592,597,598,598,598,598,598,598,598,598,598,591,585,578,570,549,532,516],"ymouse":[525,525,525,504,476,453,433,420,418,412,400,393,368,352,332,315,299,281,276,263,252,242,221,210,197,185,171,125,97,58,42,40,39,39,39,39,39,39,39,39,39,39,44,48,50,50,50,50,50,50,51,52,52,52,52,50,49,46,44,44],"timestamp_mouse":[11,20,42,61,81,101,120,140,160,182,202,222,241,261,280,300,321,340,361,382,401,421,441,462,482,501,520,541,561,581,600,620,640,660,680,701,720,741,762,782,801,820,841,861,880,902,921,942,961,981,1001,1021,1040,1060,1080,1102,1121,1141,1160,1182],"xSR":741.5,"ySR":469.95,"xT1":424.9,"yT1":0,"xT2":1058.1,"yT2":0,"toosoon":0,"cond_shown":"randomdotsizeEA","ratio_trial":900,"smaller_num":"18","larger_num":"20","correct_side":2,"subjID":"nicolasbeltransilva23","gender":"0","age":"8","school":"4"},{"start_time":1552328777513,"click_time":1552328778653,"finger_time":1552328777811,"fix_duration":459.68346529748084,"trial":37,"RT":298,"MT":842,"sideResp":2,"stimulus":"img/500/equaldotsize/R/12_Ratio_500_L_1_R_2.png","xmouse":[806,806,806,806,807,808,811,813,814,816,820,827,830,838,849,861,884,892,912,922,928,930,930,930,930,930,930,930,934,936,942,949,964,975,988,1003,1025,1034,1048,1063,1079,1095,1115,1117,1120,1122,1123,1124,1121,1112,1103,1093,1088,1086,1084,1082,1081],"ymouse":[548,548,548,548,548,548,548,548,548,547,543,536,533,524,511,491,442,418,390,372,359,345,330,328,327,327,327,327,323,316,302,287,255,239,228,219,211,209,204,198,192,184,174,172,171,169,167,148,138,125,117,109,106,105,103,101,98],"timestamp_mouse":[18,39,58,78,99,120,139,159,178,198,220,239,258,279,298,319,339,358,379,398,419,438,458,479,499,518,539,560,579,599,618,639,659,679,699,720,740,758,778,799,820,839,859,879,899,918,938,958,979,999,1019,1040,1058,1079,1099,1119,1139],"xSR":741.5,"ySR":469.95,"xT1":424.9,"yT1":0,"xT2":1058.1,"yT2":0,"toosoon":0,"cond_shown":"equaldotsize","ratio_trial":500,"smaller_num":"1","larger_num":"2","correct_side":2,"subjID":"nicolasbeltransilva23","gender":"0","age":"8","school":"4"},{"start_time":1552328784887,"click_time":1552328786312,"finger_time":1552328785292,"fix_duration":514.231798083861,"trial":38,"RT":405,"MT":1020,"sideResp":2,"stimulus":"img/250/randomdotsizeEA/R/11_Ratio_250_L_3_R_12.png","xmouse":[790,791,793,793,795,795,796,798,798,800,800,800,801,803,809,810,811,811,811,812,812,814,818,819,820,820,820,820,820,820,820,820,820,820,823,829,836,853,872,897,940,950,955,958,967,969,975,979,983,987,989,991,999,1014,1034,1043,1044,1046,1046,1047,1047,1047,1047,1047,1047,1047,1047,1047,1048,1049,1052,1060],"ymouse":[498,509,520,520,542,546,546,550,552,554,554,554,554,554,554,554,554,554,554,558,570,587,599,603,604,604,604,604,604,604,604,604,604,604,604,588,564,502,437,370,260,240,234,231,231,231,231,228,225,221,219,209,197,176,130,98,91,87,84,75,70,64,61,61,61,61,61,61,61,61,61,61],"timestamp_mouse":[10,25,51,66,84,104,125,145,165,185,206,226,245,266,285,306,324,345,366,385,405,424,444,465,485,505,525,545,565,586,606,625,646,664,685,704,724,744,764,785,805,825,846,864,885,905,925,945,965,985,1004,1024,1045,1065,1085,1104,1125,1146,1164,1185,1204,1224,1245,1264,1284,1306,1325,1345,1365,1385,1404,1425],"xSR":741.5,"ySR":469.95,"xT1":424.9,"yT1":0,"xT2":1058.1,"yT2":0,"toosoon":0,"cond_shown":"randomdotsizeEA","ratio_trial":250,"smaller_num":"3","larger_num":"12","correct_side":2,"subjID":"nicolasbeltransilva23","gender":"0","age":"8","school":"4"},{"start_time":1552328806470,"click_time":1552328807611,"finger_time":1552328806812,"fix_duration":316.1288695543739,"trial":39,"RT":342,"MT":799,"sideResp":1,"stimulus":"img/250/equaldotanddens/L/1_Ratio_250_L_8_R_2.png","xmouse":[762,762,762,762,762,762,762,762,762,762,758,756,756,769,789,813,835,848,864,877,892,906,906,893,880,869,860,850,776,709,709,709,709,709,709,709,709,709,709,709,709,709,709,362,357,357,363,380,393,396,402,407,412,415,419,422,423,425],"ymouse":[529,529,529,529,529,529,529,529,529,529,532,533,534,535,535,535,535,534,522,499,450,383,294,164,127,106,90,76,32,5,5,5,5,5,5,5,5,5,5,5,5,5,5,14,36,56,78,103,107,107,101,90,81,67,59,53,49,44],"timestamp_mouse":[12,21,41,61,83,101,123,143,161,182,201,221,242,261,282,301,321,342,362,382,401,421,443,461,482,502,521,541,561,582,602,622,642,662,682,702,722,741,762,781,802,822,841,862,882,902,922,943,961,982,1002,1023,1043,1062,1081,1102,1121,1141],"xSR":741.5,"ySR":469.95,"xT1":424.9,"yT1":0,"xT2":1058.1,"yT2":0,"toosoon":0,"cond_shown":"equaldotanddens","ratio_trial":250,"smaller_num":"2","larger_num":"8","correct_side":1,"subjID":"nicolasbeltransilva23","gender":"0","age":"8","school":"4"},{"start_time":1552328824832,"click_time":1552328825652,"finger_time":1552328825413,"fix_duration":1280.0862279103992,"trial":40,"RT":581,"MT":239,"sideResp":1,"stimulus":"img/250/equaldotsize/L/2_Ratio_250_L_16_R_4.png","xmouse":[772,772,779,785,787,788,788,788,788,788,788,788,788,788,788,788,788,788,788,788,789,789,791,793,796,798,800,800,800,796,786,760,741,723,706,691,659,639,606,528,511],"ymouse":[506,506,506,506,506,506,506,506,506,506,506,506,506,506,506,506,506,506,506,506,506,506,505,504,500,497,482,471,452,430,371,256,215,191,180,174,162,154,134,97,90],"timestamp_mouse":[22,39,60,80,100,120,140,160,179,201,221,240,261,281,299,320,340,361,380,400,421,439,460,480,500,520,539,560,581,601,620,640,660,679,700,719,739,760,780,801,820],"xSR":741.5,"ySR":469.95,"xT1":424.9,"yT1":0,"xT2":1058.1,"yT2":0,"toosoon":0,"cond_shown":"equaldotsize","ratio_trial":250,"smaller_num":"4","larger_num":"16","correct_side":1,"subjID":"nicolasbeltransilva23","gender":"0","age":"8","school":"4"},{"start_time":1552328827768,"click_time":1552328828413,"finger_time":1552328828072,"fix_duration":1195.8488537114397,"trial":41,"RT":304,"MT":341,"sideResp":1,"stimulus":"img/250/equaldotsize/L/14_Ratio_250_L_12_R_3.png","xmouse":[769,769,769,769,769,769,769,768,768,769,771,775,779,784,790,807,813,814,812,804,791,788,783,761,721,678,644,643,641,636,599,546,471],"ymouse":[503,503,503,503,503,503,503,502,502,501,501,499,498,495,491,466,448,430,413,399,370,355,339,301,263,238,216,214,208,197,155,117,71],"timestamp_mouse":[10,34,45,65,85,104,123,144,164,184,204,225,244,264,285,304,324,344,363,384,405,423,445,463,484,504,524,544,564,583,605,625,645],"xSR":741.5,"ySR":469.95,"xT1":424.9,"yT1":0,"xT2":1058.1,"yT2":0,"toosoon":0,"cond_shown":"equaldotsize","ratio_trial":250,"smaller_num":"3","larger_num":"12","correct_side":1,"subjID":"nicolasbeltransilva23","gender":"0","age":"8","school":"4"},{"start_time":1552328829745,"click_time":1552328831212,"finger_time":1552328829952,"fix_duration":590.8825006719699,"trial":42,"RT":207,"MT":1260,"sideResp":1,"stimulus":"img/750/randomdotsizeEA/R/15_Ratio_750_L_9_R_12.png","xmouse":[807,807,807,807,807,807,808,813,817,820,824,833,842,845,845,838,820,816,813,813,813,813,804,790,767,736,697,645,637,637,637,637,638,650,665,676,678,678,679,681,687,698,726,759,789,813,839,840,840,840,837,807,763,706,648,607,552,534,519,500,481,464,443,443,443,443,443,443,443,443,443,443,448,459],"ymouse":[537,537,537,537,537,537,535,525,510,491,466,408,360,334,311,293,273,270,268,268,268,268,264,258,248,234,222,204,200,200,200,200,199,199,199,200,200,200,200,200,200,195,183,167,152,138,121,118,116,116,114,110,110,110,110,110,107,107,107,107,107,107,107,107,107,107,107,107,107,107,107,107,100,95],"timestamp_mouse":[21,38,47,67,87,108,126,147,166,187,207,227,247,268,286,306,328,347,367,387,406,428,447,467,488,508,527,547,567,587,606,628,648,667,688,708,728,747,767,787,807,827,846,867,887,907,928,948,967,988,1008,1028,1046,1066,1087,1106,1128,1146,1167,1187,1208,1228,1248,1267,1288,1307,1328,1346,1368,1388,1407,1428,1447,1467],"xSR":741.5,"ySR":469.95,"xT1":424.9,"yT1":0,"xT2":1058.1,"yT2":0,"toosoon":0,"cond_shown":"randomdotsizeEA","ratio_trial":750,"smaller_num":"9","larger_num":"12","correct_side":2,"subjID":"nicolasbeltransilva23","gender":"0","age":"8","school":"4"},{"start_time":1552328833842,"click_time":1552328836513,"finger_time":1552328834192,"fix_duration":1308.3449840921883,"trial":43,"RT":350,"MT":2321,"sideResp":1,"stimulus":"img/750/equaldotanddens/L/10_Ratio_750_L_4_R_3.png","xmouse":[784,784,784,784,784,784,784,784,784,784,784,784,784,785,788,795,804,836,849,861,869,874,884,889,893,896,896,895,886,877,866,854,827,815,805,792,791,790,790,791,791,791,779,769,756,743,726,723,723,723,723,723,723,723,723,723,723,723,723,723,723,723,723,723,723,723,723,723,723,723,723,723,723,723,723,723,723,720,717,713,712,712,712,712,712,712,712,712,712,712,712,712,712,712,712,712,712,712,712,712,712,712,712,714,722,739,767,906,972,1007,1020,1023,1027,1028,1028,1020,998,916,861,809,759,718,672,657,636,621,609,584,577,572,566,557,532,512],"ymouse":[517,517,517,517,517,517,517,517,517,517,517,517,517,517,517,513,505,445,413,385,361,342,315,300,284,267,258,249,245,241,234,227,213,206,197,189,188,187,186,186,186,185,178,169,160,154,145,144,144,144,144,144,144,144,144,144,144,144,144,144,144,144,144,144,144,144,144,144,144,144,144,144,144,144,144,144,144,144,144,144,144,144,144,144,144,144,144,144,144,144,144,144,144,144,144,144,144,144,144,144,144,144,144,144,144,144,144,164,175,178,178,177,171,167,163,159,156,140,134,125,116,105,98,97,94,92,89,86,86,84,84,83,78,77],"timestamp_mouse":[14,43,51,69,89,111,129,149,171,189,209,230,250,270,290,311,330,350,371,389,409,429,449,471,491,510,531,550,570,589,610,630,650,670,691,710,730,750,770,790,809,829,849,871,891,910,929,950,970,989,1009,1031,1050,1071,1090,1111,1130,1150,1169,1190,1211,1231,1251,1271,1289,1310,1330,1349,1370,1391,1410,1431,1449,1470,1490,1510,1530,1550,1569,1590,1610,1631,1650,1671,1690,1711,1731,1750,1770,1791,1810,1830,1850,1869,1890,1910,1931,1950,1970,1990,2011,2030,2051,2070,2090,2110,2130,2150,2170,2190,2210,2230,2250,2269,2290,2310,2329,2350,2371,2389,2410,2430,2449,2471,2490,2510,2531,2550,2569,2590,2610,2630,2650,2670],"xSR":741.5,"ySR":469.95,"xT1":424.9,"yT1":0,"xT2":1058.1,"yT2":0,"toosoon":0,"cond_shown":"equaldotanddens","ratio_trial":750,"smaller_num":"3","larger_num":"4","correct_side":1,"subjID":"nicolasbeltransilva23","gender":"0","age":"8","school":"4"},{"start_time":1552328837967,"click_time":1552328839192,"finger_time":1552328838293,"fix_duration":734.594781976147,"trial":44,"RT":326,"MT":899,"sideResp":1,"stimulus":"img/500/equaldotanddens/L/4_Ratio_500_L_18_R_9.png","xmouse":[815,814,813,812,811,809,805,803,803,803,803,803,802,802,802,802,802,805,805,805,805,806,806,806,804,801,798,798,798,798,798,798,779,754,714,685,668,660,657,647,628,608,596,596,596,596,587,577,575,574,572,552,539,531,524,520,509,506,506,506,508,509],"ymouse":[480,480,480,481,484,486,489,490,490,490,490,490,491,490,485,482,462,437,423,412,401,390,383,379,371,363,342,340,334,332,327,321,297,278,254,240,229,221,215,214,210,208,207,207,207,199,167,158,156,156,156,151,148,145,142,141,134,130,126,116,100,82],"timestamp_mouse":[5,24,44,64,85,104,124,145,165,186,204,225,245,264,285,305,326,345,364,385,405,425,444,465,486,504,530,544,565,585,604,624,644,665,685,705,725,746,766,785,806,825,845,866,884,905,926,945,964,985,1004,1026,1045,1064,1086,1104,1125,1144,1165,1186,1205,1225],"xSR":741.5,"ySR":469.95,"xT1":424.9,"yT1":0,"xT2":1058.1,"yT2":0,"toosoon":0,"cond_shown":"equaldotanddens","ratio_trial":500,"smaller_num":"9","larger_num":"18","correct_side":1,"subjID":"nicolasbeltransilva23","gender":"0","age":"8","school":"4"},{"start_time":1552328840324,"click_time":1552328841412,"finger_time":1552328840652,"fix_duration":250,"trial":45,"RT":328,"MT":760,"sideResp":2,"stimulus":"img/750/randomdotsizeEA/L/6_Ratio_750_L_24_R_18.png","xmouse":[804,804,804,804,804,804,804,804,804,804,804,804,804,804,804,804,806,811,814,814,814,814,814,792,764,744,735,735,735,740,744,746,751,758,760,764,771,784,812,856,877,890,900,906,924,941,967,991,999,1027,1037,1047,1058,1066,1082],"ymouse":[483,483,483,483,483,483,483,483,483,483,483,483,483,483,483,477,460,441,401,352,337,327,316,283,260,242,236,231,226,222,220,218,216,211,208,205,199,195,184,172,166,161,158,156,146,142,133,126,125,116,114,111,108,105,98],"timestamp_mouse":[14,38,47,67,87,108,129,148,169,189,207,229,249,268,289,308,328,348,369,388,409,428,447,470,488,507,528,548,570,588,609,628,648,669,687,707,728,748,768,788,808,828,847,868,887,908,928,948,969,989,1009,1028,1048,1069,1088],"xSR":741.5,"ySR":469.95,"xT1":424.9,"yT1":0,"xT2":1058.1,"yT2":0,"toosoon":0,"cond_shown":"randomdotsizeEA","ratio_trial":750,"smaller_num":"18","larger_num":"24","correct_side":1,"subjID":"nicolasbeltransilva23","gender":"0","age":"8","school":"4"},{"start_time":1552328845144,"click_time":1552328846392,"finger_time":1552328846032,"fix_duration":250,"trial":46,"RT":888,"MT":360,"sideResp":2,"stimulus":"img/900/equaldotsize/L/10_Ratio_900_L_20_R_18.png","xmouse":[768,768,768,768,768,768,768,768,768,768,768,768,773,781,783,783,783,783,783,783,783,783,783,783,783,783,783,783,783,783,783,783,783,783,783,783,783,783,783,783,783,783,788,815,851,890,896,896,896,899,900,902,910,932,943,945,947,947,956,963,984,1026,1062],"ymouse":[508,508,508,508,508,508,508,508,508,508,508,508,511,514,515,516,516,516,516,516,516,516,516,516,516,516,516,516,516,516,516,516,516,516,516,516,516,516,516,516,516,516,514,485,449,424,421,421,421,414,410,403,396,376,366,361,354,349,329,306,231,98,11],"timestamp_mouse":[19,38,49,68,88,107,129,148,167,188,208,227,249,268,288,307,328,348,369,387,407,428,447,468,489,507,527,549,568,588,609,629,649,668,689,708,728,747,768,789,809,827,849,868,888,907,927,949,968,988,1008,1028,1049,1069,1088,1107,1128,1148,1168,1188,1208,1228,1248],"xSR":741.5,"ySR":469.95,"xT1":424.9,"yT1":0,"xT2":1058.1,"yT2":0,"toosoon":0,"cond_shown":"equaldotsize","ratio_trial":900,"smaller_num":"18","larger_num":"20","correct_side":1,"subjID":"nicolasbeltransilva23","gender":"0","age":"8","school":"4"},{"start_time":1552328854807,"click_time":1552328855533,"finger_time":1552328855052,"fix_duration":474.7709622016668,"trial":47,"RT":245,"MT":481,"sideResp":2,"stimulus":"img/250/equaldotsize/R/10_Ratio_250_L_4_R_16.png","xmouse":[811,811,811,811,811,811,811,811,810,810,810,815,815,816,816,816,816,808,796,792,789,789,789,789,790,792,802,818,827,862,888,950,985,1011,1032,1050,1065],"ymouse":[512,512,512,512,512,512,512,512,511,507,502,473,453,422,375,332,299,245,221,209,200,186,183,180,177,172,154,137,130,111,96,68,53,46,39,31,25],"timestamp_mouse":[13,25,44,64,85,106,124,146,165,185,204,224,245,265,286,305,326,345,366,384,404,425,444,464,484,505,526,545,565,585,606,626,646,664,685,705,725],"xSR":741.5,"ySR":469.95,"xT1":424.9,"yT1":0,"xT2":1058.1,"yT2":0,"toosoon":0,"cond_shown":"equaldotsize","ratio_trial":250,"smaller_num":"4","larger_num":"16","correct_side":2,"subjID":"nicolasbeltransilva23","gender":"0","age":"8","school":"4"},{"start_time":1552328858214,"click_time":1552328859652,"finger_time":1552328858632,"fix_duration":479.9825729918192,"trial":48,"RT":418,"MT":1020,"sideResp":2,"stimulus":"img/750/equaldotanddens/R/7_Ratio_750_L_3_R_4.png","xmouse":[808,808,808,808,807,807,807,804,800,795,793,788,788,788,788,788,787,797,815,834,847,863,869,879,901,930,969,971,972,976,984,999,1012,1027,1049,1064,1068,1068,1068,1068,1068,1068,1068,1068,1066,1061,1046,1046,1046,1046,1046,1046,1046,1046,1046,1046,1046,1046,1046,1046,1046,1046,1046,1046,1046,1046,1051,1062,1079,1094,1108,1126],"ymouse":[511,511,514,515,517,517,517,519,523,526,527,527,527,527,527,527,526,515,508,501,495,489,488,482,471,453,428,426,425,416,398,330,286,242,195,147,122,120,120,120,120,120,120,120,119,121,132,133,133,133,133,133,133,133,133,133,135,135,135,135,135,135,135,135,136,136,136,135,127,120,113,98],"timestamp_mouse":[18,38,58,78,97,119,139,158,179,198,218,238,257,279,297,318,338,358,378,399,418,438,459,479,499,517,538,559,578,598,618,638,658,678,698,718,738,758,777,798,817,838,859,878,898,918,937,957,977,997,1017,1038,1057,1079,1099,1119,1139,1158,1179,1198,1218,1238,1259,1278,1298,1319,1338,1358,1378,1398,1417,1438],"xSR":741.5,"ySR":469.95,"xT1":424.9,"yT1":0,"xT2":1058.1,"yT2":0,"toosoon":0,"cond_shown":"equaldotanddens","ratio_trial":750,"smaller_num":"3","larger_num":"4","correct_side":2,"subjID":"nicolasbeltransilva23","gender":"0","age":"8","school":"4"},{"start_time":1552328860894,"click_time":1552328862013,"finger_time":1552328861532,"fix_duration":319.8624540438836,"trial":49,"RT":638,"MT":481,"sideResp":1,"stimulus":"img/500/randomdotsizeEA/L/10_Ratio_500_L_4_R_2.png","xmouse":[784,784,784,784,784,784,784,784,784,784,784,784,784,784,784,784,784,784,784,784,784,784,784,784,784,784,784,784,784,790,793,805,813,815,815,813,803,790,786,780,775,761,737,721,701,674,647,612,599,580,555,527,517,517,517,517],"ymouse":[516,516,516,516,516,516,516,516,516,516,516,516,516,516,516,516,516,516,516,516,516,516,516,516,516,516,516,516,510,494,487,459,418,392,365,346,323,300,291,281,267,246,222,216,210,206,203,193,179,164,146,133,124,119,112,99],"timestamp_mouse":[19,37,58,77,99,117,138,157,179,198,217,237,258,277,297,317,338,359,379,398,418,437,459,477,498,519,537,558,578,598,619,638,658,678,698,718,738,758,777,799,818,838,858,879,897,917,938,958,979,999,1018,1038,1058,1079,1098,1119],"xSR":741.5,"ySR":469.95,"xT1":424.9,"yT1":0,"xT2":1058.1,"yT2":0,"toosoon":0,"cond_shown":"randomdotsizeEA","ratio_trial":500,"smaller_num":"2","larger_num":"4","correct_side":1,"subjID":"nicolasbeltransilva23","gender":"0","age":"8","school":"4"},{"start_time":1552328864475,"click_time":1552328865411,"finger_time":1552328864933,"fix_duration":1101.6370399120858,"trial":50,"RT":458,"MT":478,"sideResp":1,"stimulus":"img/500/equaldotsize/L/5_Ratio_500_L_4_R_2.png","xmouse":[801,801,801,801,801,801,801,801,801,801,801,801,801,801,801,801,801,801,801,801,801,801,801,801,801,801,801,801,801,800,798,795,791,779,769,760,751,742,724,701,683,662,640,591,571,544,519],"ymouse":[532,532,532,532,532,532,532,532,532,532,532,532,532,527,521,514,507,503,501,490,485,475,467,455,449,439,431,412,364,355,324,305,287,251,234,221,210,200,187,172,163,153,142,123,114,104,94],"timestamp_mouse":[17,44,57,77,98,118,137,158,176,198,218,237,256,277,297,317,337,357,377,397,417,437,458,477,497,517,537,556,578,597,617,637,657,677,696,717,738,757,778,796,817,837,857,878,897,916,936],"xSR":741.5,"ySR":469.95,"xT1":424.9,"yT1":0,"xT2":1058.1,"yT2":0,"toosoon":0,"cond_shown":"equaldotsize","ratio_trial":500,"smaller_num":"2","larger_num":"4","correct_side":1,"subjID":"nicolasbeltransilva23","gender":"0","age":"8","school":"4"},{"start_time":1552328887482,"click_time":1552328889572,"finger_time":1552328887493,"fix_duration":508.58234047314477,"trial":51,"RT":11,"MT":2079,"sideResp":2,"stimulus":"img/750/randomdotsizeEA/R/12_Ratio_750_L_3_R_4.png","xmouse":[847,893,959,988,1035,1115,1312,1421,1513,1513,1513,1513,1513,1513,1513,1513,1513,1513,1513,1462,1337,1088,1012,968,947,934,931,931,931,931,931,928,928,928,929,931,936,939,939,939,939,939,939,939,939,939,939,939,939,939,939,928,925,925,924,924,924,924,924,924,924,924,924,924,924,924,924,924,924,924,924,924,924,924,923,922,922,922,922,921,921,921,923,936,973,1049,1244,1253,1260,1251,1235,1222,1222,1222,1228,1232,1232,1232,1231,1211,1194,1170,1168,1164,1157],"ymouse":[477,404,396,412,435,481,615,650,661,661,661,661,661,661,661,661,661,661,661,496,452,312,258,227,212,208,207,207,207,207,207,206,206,205,204,203,201,201,201,201,201,201,201,201,201,201,201,201,201,201,201,197,197,197,197,196,195,195,195,195,195,195,195,195,195,195,195,195,195,195,195,195,195,195,195,195,195,195,195,194,194,189,186,176,161,139,84,80,77,77,76,74,74,74,74,74,74,74,74,71,70,65,65,65,65],"timestamp_mouse":[11,30,49,70,90,109,130,149,171,190,211,230,251,271,290,309,330,350,371,391,411,430,450,469,490,509,530,551,571,590,610,630,649,669,689,710,730,749,770,791,811,831,850,870,890,910,929,949,969,990,1009,1031,1051,1071,1090,1110,1130,1150,1170,1190,1210,1229,1251,1271,1290,1310,1330,1351,1371,1389,1410,1430,1450,1471,1490,1510,1529,1550,1570,1590,1610,1630,1650,1670,1690,1709,1730,1751,1770,1790,1810,1829,1851,1870,1890,1909,1930,1951,1971,1989,2010,2030,2050,2070,2090],"xSR":741.5,"ySR":469.95,"xT1":424.9,"yT1":0,"xT2":1058.1,"yT2":0,"toosoon":0,"cond_shown":"randomdotsizeEA","ratio_trial":750,"smaller_num":"3","larger_num":"4","correct_side":2,"subjID":"nicolasbeltransilva23","gender":"0","age":"8","school":"4"},{"start_time":1552328891183,"click_time":1552328892252,"finger_time":1552328891372,"fix_duration":547.7933088351867,"trial":52,"RT":189,"MT":880,"sideResp":1,"stimulus":"img/750/equaldotsize/L/14_Ratio_750_L_8_R_6.png","xmouse":[779,779,779,781,787,796,806,831,841,850,859,882,897,907,913,917,923,923,924,911,888,869,867,867,867,867,867,865,865,861,858,852,828,819,815,802,759,732,713,694,679,666,633,622,609,591,556,548,541,537,533,516,500,481],"ymouse":[493,493,494,494,494,491,488,481,479,476,473,467,463,461,459,458,456,456,455,450,447,446,445,445,445,445,445,444,444,442,439,435,422,405,372,316,233,205,185,169,160,154,142,136,132,124,113,110,109,109,108,106,100,94],"timestamp_mouse":[13,29,50,68,90,108,128,148,169,189,208,230,248,269,289,310,330,349,368,390,409,429,450,469,489,510,529,550,569,590,610,630,649,669,690,709,730,749,769,788,809,830,849,868,889,908,930,948,969,990,1010,1030,1048,1069],"xSR":741.5,"ySR":469.95,"xT1":424.9,"yT1":0,"xT2":1058.1,"yT2":0,"toosoon":0,"cond_shown":"equaldotsize","ratio_trial":750,"smaller_num":"6","larger_num":"8","correct_side":1,"subjID":"nicolasbeltransilva23","gender":"0","age":"8","school":"4"},{"start_time":1552328896710,"click_time":1552328897532,"finger_time":1552328897212,"fix_duration":1095.739896629667,"trial":53,"RT":502,"MT":320,"sideResp":2,"stimulus":"img/900/equaldotsize/R/15_Ratio_900_L_9_R_10.png","xmouse":[772,772,772,772,772,772,778,785,791,795,797,798,799,799,800,800,800,800,800,800,801,801,801,801,802,803,805,815,826,838,855,888,912,921,950,961,987,997,1007,1015,1030,1063],"ymouse":[502,502,502,502,502,502,498,491,485,480,477,474,474,474,472,472,472,472,472,472,472,472,472,472,471,469,462,436,414,385,347,269,218,202,163,146,125,117,112,107,100,82],"timestamp_mouse":[10,38,42,62,82,102,121,141,163,182,202,222,243,262,281,302,321,342,362,383,402,423,443,462,483,502,521,541,561,582,602,622,642,662,683,703,721,741,762,782,803,821],"xSR":741.5,"ySR":469.95,"xT1":424.9,"yT1":0,"xT2":1058.1,"yT2":0,"toosoon":0,"cond_shown":"equaldotsize","ratio_trial":900,"smaller_num":"9","larger_num":"10","correct_side":2,"subjID":"nicolasbeltransilva23","gender":"0","age":"8","school":"4"},{"start_time":1552328898947,"click_time":1552328900071,"finger_time":1552328899732,"fix_duration":773.2484006695823,"trial":54,"RT":785,"MT":339,"sideResp":1,"stimulus":"img/750/equaldotsize/L/10_Ratio_750_L_4_R_3.png","xmouse":[811,811,811,811,811,811,811,811,811,811,811,811,811,811,811,811,811,811,811,811,811,811,811,811,811,811,811,811,811,811,811,813,816,818,821,823,825,825,828,829,835,838,839,839,839,839,839,838,833,806,764,668,625,589,563,527,515],"ymouse":[522,522,522,522,522,523,523,523,523,523,523,523,523,523,523,523,523,523,523,523,523,523,523,523,523,523,523,523,523,522,519,512,507,504,496,490,485,480,476,462,445,430,411,392,365,314,294,277,259,216,186,144,126,114,106,95,92],"timestamp_mouse":[10,40,45,64,84,105,125,144,165,186,204,224,246,265,285,304,324,346,365,386,406,425,446,466,485,504,525,546,565,585,605,624,646,665,685,705,725,744,764,785,804,825,846,865,885,905,925,945,965,986,1004,1025,1044,1064,1085,1104,1124],"xSR":741.5,"ySR":469.95,"xT1":424.9,"yT1":0,"xT2":1058.1,"yT2":0,"toosoon":0,"cond_shown":"equaldotsize","ratio_trial":750,"smaller_num":"3","larger_num":"4","correct_side":1,"subjID":"nicolasbeltransilva23","gender":"0","age":"8","school":"4"},{"start_time":1552328901404,"click_time":1552328902292,"finger_time":1552328902012,"fix_duration":250,"trial":55,"RT":608,"MT":280,"sideResp":2,"stimulus":"img/250/equaldotanddens/R/11_Ratio_250_L_3_R_12.png","xmouse":[814,814,814,814,814,814,814,814,814,814,814,814,814,814,814,814,814,814,814,814,814,814,814,814,814,814,814,814,818,831,852,885,968,1004,1029,1050,1058,1058,1058,1058,1058,1058,1058,1061,1062],"ymouse":[543,543,543,543,543,543,543,543,543,543,543,543,543,543,543,543,543,543,543,543,543,543,543,543,543,543,543,543,538,522,492,443,321,252,205,152,132,130,130,130,129,122,107,100,96],"timestamp_mouse":[9,29,47,67,89,107,128,148,168,187,207,227,247,267,288,309,328,348,369,389,407,429,448,469,488,508,528,548,568,588,608,629,648,669,687,707,729,749,768,788,808,828,848,868,888],"xSR":741.5,"ySR":469.95,"xT1":424.9,"yT1":0,"xT2":1058.1,"yT2":0,"toosoon":0,"cond_shown":"equaldotanddens","ratio_trial":250,"smaller_num":"3","larger_num":"12","correct_side":2,"subjID":"nicolasbeltransilva23","gender":"0","age":"8","school":"4"},{"start_time":1552328903197,"click_time":1552328904132,"finger_time":1552328903651,"fix_duration":283.31381158635503,"trial":56,"RT":454,"MT":481,"sideResp":2,"stimulus":"img/750/randomdotsizeEA/R/15_Ratio_750_L_9_R_12.png","xmouse":[815,815,815,815,815,815,815,815,817,819,819,819,819,819,819,819,819,819,819,819,819,827,855,881,912,939,963,983,995,1004,1016,1022,1037,1041,1044,1046,1048,1052,1052,1054,1055,1055,1055,1055,1055,1056,1061],"ymouse":[501,501,501,501,501,501,501,501,501,502,502,502,502,502,502,502,502,502,502,502,502,496,470,444,409,374,334,290,265,235,208,180,143,134,130,123,120,110,106,102,100,100,100,100,100,99,97],"timestamp_mouse":[19,34,54,75,95,116,134,155,175,195,214,234,256,276,295,315,334,354,375,396,415,436,454,474,496,515,536,554,576,596,615,636,654,674,695,715,734,754,775,795,816,835,855,875,894,916,935],"xSR":741.5,"ySR":469.95,"xT1":424.9,"yT1":0,"xT2":1058.1,"yT2":0,"toosoon":0,"cond_shown":"randomdotsizeEA","ratio_trial":750,"smaller_num":"9","larger_num":"12","correct_side":2,"subjID":"nicolasbeltransilva23","gender":"0","age":"8","school":"4"},{"start_time":1552328909614,"click_time":1552328911452,"finger_time":1552328910972,"fix_duration":260.8201433078003,"trial":57,"RT":1358,"MT":480,"sideResp":1,"stimulus":"img/500/randomdotsizeEA/L/8_Ratio_500_L_8_R_4.png","xmouse":[816,817,827,830,832,832,832,832,831,831,829,828,828,828,828,827,827,827,827,827,827,827,827,827,827,827,827,827,827,827,827,827,827,827,827,827,827,827,827,827,827,827,827,827,827,827,827,827,827,827,827,827,827,827,827,827,827,827,824,823,819,817,817,817,817,814,813,803,803,798,776,725,707,705,704,702,694,665,650,632,619,613,603,594,583,564,564,561,559,554,540,516],"ymouse":[532,532,535,535,535,535,535,535,535,535,535,535,535,535,535,535,535,535,535,535,535,533,533,533,533,533,533,533,533,533,533,533,533,533,533,533,533,533,533,533,533,533,533,533,533,533,533,533,533,533,533,533,533,533,533,533,533,533,532,532,531,529,523,519,512,497,478,427,375,311,238,149,139,139,138,134,121,87,71,58,50,46,44,42,41,39,39,39,39,39,39,40],"timestamp_mouse":[18,38,57,77,98,119,139,158,177,197,218,239,259,279,298,317,337,359,378,398,418,438,458,479,498,518,537,557,578,597,618,638,659,678,698,719,737,757,777,799,819,838,857,878,897,919,939,958,977,998,1018,1039,1058,1077,1098,1119,1138,1158,1178,1198,1218,1237,1259,1278,1298,1319,1338,1358,1378,1398,1418,1440,1457,1479,1498,1519,1539,1558,1578,1599,1619,1638,1658,1678,1698,1728,1739,1758,1778,1797,1818,1837],"xSR":741.5,"ySR":469.95,"xT1":424.9,"yT1":0,"xT2":1058.1,"yT2":0,"toosoon":0,"cond_shown":"randomdotsizeEA","ratio_trial":500,"smaller_num":"4","larger_num":"8","correct_side":1,"subjID":"nicolasbeltransilva23","gender":"0","age":"8","school":"4"},{"start_time":1552328915080,"click_time":1552328915793,"finger_time":1552328915472,"fix_duration":406.18746422542085,"trial":58,"RT":392,"MT":321,"sideResp":1,"stimulus":"img/250/equaldotanddens/L/14_Ratio_250_L_12_R_3.png","xmouse":[769,769,769,769,769,769,769,769,769,769,772,774,776,779,788,800,808,817,828,858,875,892,906,912,912,897,877,850,814,772,661,606,572,545,527,503],"ymouse":[508,508,508,508,508,508,508,508,508,508,508,509,509,510,509,504,499,493,485,473,465,452,438,422,384,354,333,314,286,252,168,128,103,88,81,75],"timestamp_mouse":[14,33,51,73,92,113,133,151,173,191,212,233,252,273,292,312,332,351,372,392,412,433,453,473,492,511,532,551,572,592,611,633,653,672,692,713],"xSR":741.5,"ySR":469.95,"xT1":424.9,"yT1":0,"xT2":1058.1,"yT2":0,"toosoon":0,"cond_shown":"equaldotanddens","ratio_trial":250,"smaller_num":"3","larger_num":"12","correct_side":1,"subjID":"nicolasbeltransilva23","gender":"0","age":"8","school":"4"},{"start_time":1552328920989,"click_time":1552328921711,"finger_time":1552328921492,"fix_duration":394.05740111455975,"trial":59,"RT":503,"MT":219,"sideResp":2,"stimulus":"img/500/randomdotsizeEA/R/2_Ratio_500_L_3_R_6.png","xmouse":[792,792,792,792,792,792,792,792,792,792,792,792,792,792,792,792,792,792,792,792,792,792,792,797,804,809,817,829,840,854,899,916,934,952,976,1034,1063],"ymouse":[503,503,503,503,503,503,503,503,503,503,503,503,503,503,503,503,503,503,503,503,503,503,503,501,483,469,451,430,408,382,287,249,215,184,150,79,44],"timestamp_mouse":[13,27,45,62,82,102,124,143,164,182,202,222,244,263,283,304,323,342,362,384,404,422,443,463,484,503,522,543,562,583,602,623,643,663,684,703,722],"xSR":741.5,"ySR":469.95,"xT1":424.9,"yT1":0,"xT2":1058.1,"yT2":0,"toosoon":0,"cond_shown":"randomdotsizeEA","ratio_trial":500,"smaller_num":"3","larger_num":"6","correct_side":2,"subjID":"nicolasbeltransilva23","gender":"0","age":"8","school":"4"},{"start_time":1552328930724,"click_time":1552328931612,"finger_time":1552328930791,"fix_duration":250,"trial":60,"RT":67,"MT":821,"sideResp":1,"stimulus":"img/750/equaldotanddens/L/10_Ratio_750_L_4_R_3.png","xmouse":[764,756,756,646,630,646,663,683,691,705,710,714,719,724,734,738,743,746,751,752,752,752,752,752,755,757,757,746,716,646,616,616,616,616,616,616,616,616,616,616,616,616,616,491,491],"ymouse":[543,541,541,460,401,375,355,340,332,318,311,304,294,286,271,267,264,260,256,251,246,240,231,222,203,192,167,131,85,21,6,6,6,6,6,6,6,6,6,6,6,6,6,0,7],"timestamp_mouse":[15,37,47,67,87,109,129,148,167,188,208,228,247,268,288,309,327,349,368,388,408,428,449,469,488,508,528,548,568,587,608,628,649,668,689,708,729,748,768,787,808,828,848,867,888],"xSR":741.5,"ySR":469.95,"xT1":424.9,"yT1":0,"xT2":1058.1,"yT2":0,"toosoon":0,"cond_shown":"equaldotanddens","ratio_trial":750,"smaller_num":"3","larger_num":"4","correct_side":1,"subjID":"nicolasbeltransilva23","gender":"0","age":"8","school":"4"},{"start_time":1552328943334,"click_time":1552328944113,"finger_time":1552328943832,"fix_duration":400.3685641668806,"trial":61,"RT":498,"MT":281,"sideResp":2,"stimulus":"img/750/equaldotanddens/L/9_Ratio_750_L_4_R_3.png","xmouse":[794,794,794,794,794,794,794,796,796,796,796,796,796,796,796,796,796,796,796,796,796,794,781,766,758,758,758,758,758,759,762,763,767,780,863,925,981,1026,1071],"ymouse":[492,492,492,492,492,492,492,492,493,493,493,493,493,493,493,493,493,493,493,493,493,494,489,481,456,446,439,435,433,430,426,419,407,375,241,171,104,57,6],"timestamp_mouse":[18,37,57,78,99,119,138,157,178,199,217,239,259,278,299,319,338,358,379,398,419,438,459,478,498,518,538,559,577,599,618,638,658,678,699,717,739,758,779],"xSR":741.5,"ySR":469.95,"xT1":424.9,"yT1":0,"xT2":1058.1,"yT2":0,"toosoon":0,"cond_shown":"equaldotanddens","ratio_trial":750,"smaller_num":"3","larger_num":"4","correct_side":1,"subjID":"nicolasbeltransilva23","gender":"0","age":"8","school":"4"},{"start_time":1552328949753,"click_time":1552328951112,"finger_time":1552328950091,"fix_duration":1019.6330799998766,"trial":62,"RT":338,"MT":1021,"sideResp":1,"stimulus":"img/250/randomdotsizeEA/L/2_Ratio_250_L_16_R_4.png","xmouse":[831,835,835,835,835,835,835,834,830,826,824,823,822,819,806,802,797,796,794,793,791,788,786,783,779,778,777,777,776,776,775,768,760,744,548,475,331,331,331,331,331,331,331,331,331,331,331,331,331,331,331,331,297,302,320,332,336,338,340,342,346,353,367,381,407,418,424,431],"ymouse":[523,523,523,523,523,523,523,523,523,523,523,523,522,509,489,479,468,462,457,449,449,447,444,442,439,438,435,431,427,418,411,399,384,363,201,152,41,41,41,41,41,41,41,41,41,41,41,41,41,41,41,41,0,12,50,65,68,69,69,69,69,69,66,62,50,40,35,32],"timestamp_mouse":[21,43,59,79,99,119,139,158,179,198,218,239,258,279,298,318,338,359,378,398,418,438,458,479,499,518,538,559,579,598,618,638,659,678,698,718,738,758,778,798,818,838,858,879,898,919,939,959,978,998,1018,1038,1058,1078,1099,1118,1138,1159,1178,1199,1218,1238,1258,1278,1298,1318,1338,1359],"xSR":741.5,"ySR":469.95,"xT1":424.9,"yT1":0,"xT2":1058.1,"yT2":0,"toosoon":0,"cond_shown":"randomdotsizeEA","ratio_trial":250,"smaller_num":"4","larger_num":"16","correct_side":1,"subjID":"nicolasbeltransilva23","gender":"0","age":"8","school":"4"},{"start_time":1552328952613,"click_time":1552328953753,"finger_time":1552328953192,"fix_duration":720.7711237773055,"trial":63,"RT":579,"MT":561,"sideResp":1,"stimulus":"img/250/randomdotsizeEA/L/5_Ratio_250_L_24_R_6.png","xmouse":[771,771,771,771,771,771,771,771,771,771,771,771,771,771,771,771,771,771,761,757,751,748,746,746,746,746,746,752,754,755,754,746,729,726,721,717,714,706,699,691,683,673,668,662,656,652,646,607,574,550,529,495,485,478,476,476,491],"ymouse":[518,518,518,518,518,518,518,518,518,518,518,518,518,518,518,518,518,518,514,512,509,507,506,502,500,496,490,473,463,451,437,423,393,384,373,365,360,344,331,318,302,275,255,242,233,226,219,205,190,176,162,134,126,118,112,104,76],"timestamp_mouse":[19,40,59,78,98,118,139,159,178,198,218,238,258,278,298,317,338,359,378,399,418,439,458,478,499,519,538,558,579,598,618,638,659,678,698,718,738,758,778,799,818,840,857,878,899,918,938,958,979,998,1018,1038,1059,1078,1098,1118,1140],"xSR":741.5,"ySR":469.95,"xT1":424.9,"yT1":0,"xT2":1058.1,"yT2":0,"toosoon":0,"cond_shown":"randomdotsizeEA","ratio_trial":250,"smaller_num":"6","larger_num":"24","correct_side":1,"subjID":"nicolasbeltransilva23","gender":"0","age":"8","school":"4"},{"start_time":1552328960488,"click_time":1552328961432,"fin