[{"start_time":1552074688920,"click_time":1552074690166,"finger_time":1552074689747,"fix_duration":250,"trial":0,"RT":827,"MT":419,"sideResp":2,"stimulus":"img/500/equaldotanddens/R/14_Ratio_500_L_5_R_10.png","xmouse":[773,773,773,773,773,773,773,773,773,773,773,773,773,773,773,773,773,773,773,773,773,773,773,773,773,773,773,773,773,773,773,773,773,773,773,773,775,779,783,791,802,826,875,892,897,900,901,920,932,945,953,957,973,988,1000,1013,1017,1017,1019,1026,1038,1052,1075],"ymouse":[523,523,523,523,523,523,523,523,523,523,523,523,523,523,523,523,523,523,523,523,523,523,523,523,523,523,523,523,523,523,523,523,523,523,522,521,519,511,503,488,470,434,367,340,329,323,318,277,252,222,200,186,153,135,120,110,109,108,108,108,108,106,98],"timestamp_mouse":[10,26,47,67,87,106,126,146,167,186,207,226,246,266,287,306,326,345,366,387,406,427,446,466,486,507,525,547,566,585,605,626,646,667,685,706,727,746,766,786,805,827,846,866,887,907,926,945,966,987,1006,1026,1046,1066,1087,1106,1127,1146,1166,1187,1207,1227,1246],"xSR":741.5,"ySR":469.95,"xT1":424.9,"yT1":0,"xT2":1058.1,"yT2":0,"toosoon":0,"cond_shown":"equaldotanddens","ratio_trial":500,"smaller_num":"5","larger_num":"10","correct_side":2,"subjID":"nicolas guillen 22","gender":"0","age":"9","school":"4","test":{"fix_dur":[250,1500],"timestim":300,"targets_dim":[100,100],"targets_relative_coord":[0.3,0.7],"size_stim":[880,420],"start_dim":[100,100],"size_start":[300,300],"size_fix":60,"samplingrate":20,"img_types":["equaldotsize","equaldotanddens","randomdotsizeEA"],"ratios":[250,500,750,900],"rep_conds":9,"nTrials":120,"trials_to_rest":500,"Trials_order":[112,68,12,49,72,2,101,16,80,114,98,46,31,15,69,32,52,88,14,115,11,109,5,102,41,103,66,96,43,19,97,47,24,87,27,91,4,58,104,13,89,93,18,28,119,37,8,85,56,54,108,73,62,86,99,81,6,77,116,110,7,113,64,107,90,57,84,78,61,65,92,25,95,30,76,17,9,55,105,117,20,1,10,23,48,35,60,42,111,45,40,75,53,38,82,3,63,36,26,33,100,34,79,74,50,39,94,59,51,22,70,118,21,106,83,71,29,0,67,44],"cond_shown":["equaldotanddens","randomdotsizeEA","equaldotsize","equaldotanddens","equaldotsize","randomdotsizeEA","randomdotsizeEA","equaldotanddens","randomdotsizeEA","equaldotsize","randomdotsizeEA","equaldotanddens","equaldotanddens","equaldotsize","equaldotsize","randomdotsizeEA","equaldotanddens","equaldotanddens","randomdotsizeEA","equaldotanddens","randomdotsizeEA","equaldotanddens","randomdotsizeEA","equaldotsize","randomdotsizeEA","equaldotanddens","equaldotsize","equaldotsize","equaldotanddens","equaldotanddens","equaldotanddens","randomdotsizeEA","equaldotsize","equaldotsize","equaldotsize","equaldotanddens","equaldotanddens","equaldotanddens","randomdotsizeEA","equaldotanddens","randomdotsizeEA","equaldotsize","equaldotsize","equaldotanddens","randomdotsizeEA","equaldotanddens","randomdotsizeEA","equaldotanddens","randomdotsizeEA","equaldotsize","equaldotsize","equaldotanddens","randomdotsizeEA","randomdotsizeEA","equaldotsize","equaldotsize","equaldotsize","randomdotsizeEA","randomdotsizeEA","randomdotsizeEA","equaldotanddens","randomdotsizeEA","equaldotanddens","randomdotsizeEA","equaldotsize","equaldotsize","equaldotsize","equaldotsize","equaldotanddens","randomdotsizeEA","randomdotsizeEA","equaldotanddens","randomdotsizeEA","equaldotsize","equaldotanddens","randomdotsizeEA","equaldotsize","equaldotanddens","equaldotsize","equaldotsize","randomdotsizeEA","equaldotanddens","equaldotanddens","randomdotsizeEA","equaldotsize","randomdotsizeEA","equaldotsize","equaldotsize","equaldotsize","equaldotsize","equaldotanddens","equaldotsize","randomdotsizeEA","randomdotsizeEA","equaldotanddens","equaldotsize","equaldotsize","equaldotsize","randomdotsizeEA","equaldotsize","equaldotanddens","equaldotanddens","equaldotanddens","randomdotsizeEA","randomdotsizeEA","equaldotsize","equaldotanddens","randomdotsizeEA","equaldotsize","equaldotanddens","equaldotanddens","equaldotanddens","equaldotsize","equaldotanddens","randomdotsizeEA","randomdotsizeEA","randomdotsizeEA","equaldotsize","equaldotanddens","randomdotsizeEA"],"ratio_trial":[500,750,250,250,250,250,500,500,750,750,250,900,750,500,900,750,500,500,250,750,900,250,500,750,500,750,750,250,750,750,250,900,250,500,500,750,500,900,750,250,500,900,750,500,900,250,750,250,750,750,250,250,250,250,500,900,750,500,750,250,750,500,500,900,750,900,250,750,250,500,750,250,900,750,500,500,900,750,900,900,750,250,900,900,250,900,250,750,500,900,500,500,500,250,900,500,500,250,250,900,500,900,750,250,250,500,900,900,500,900,900,900,900,900,900,900,500,250,750,750],"smaller_num":["5","3","2","2","6","2","1","5","3","6","4","18","6","1","18","18","2","2","6","6","18","2","2","15","9","3","6","3","3","18","1","18","6","5","10","12","4","9","3","3","9","18","3","2","18","3","6","6","9","6","3","6","2","2","9","18","15","4","15","3","15","2","6","18","15","18","3","18","3","4","3","3","18","3","2","4","18","15","9","18","15","3","9","18","2","18","2","15","9","9","5","2","1","4","9","10","3","2","3","18","9","18","3","3","4","6","18","9","1","9","18","18","9","9","18","18","6","6","3","15"],"larger_num":["10","4","8","8","24","8","2","10","4","8","16","20","8","2","20","24","4","4","24","8","20","8","4","20","18","4","8","12","4","24","4","20","24","10","20","16","8","10","4","12","18","20","4","4","20","12","8","24","12","8","12","24","8","8","18","20","20","8","20","12","20","4","12","20","20","20","12","24","12","8","4","12","20","4","4","8","20","20","10","20","20","12","10","20","8","20","8","20","18","10","10","4","2","16","10","20","6","8","12","20","18","20","4","12","16","12","20","10","2","10","20","20","10","10","20","20","12","24","4","20"],"correct_side":[2,2,1,1,1,1,2,1,2,1,2,1,1,2,1,1,2,2,1,1,1,1,1,1,2,1,1,1,1,1,2,2,2,2,2,2,1,1,1,2,1,1,1,1,2,1,2,2,2,2,1,2,1,1,2,1,2,1,2,2,2,1,1,2,2,1,1,1,2,1,2,1,1,2,1,1,1,2,1,1,2,2,2,1,1,2,1,1,1,2,1,1,2,1,2,2,2,1,1,1,2,2,2,1,2,1,1,2,2,2,1,1,2,2,2,2,1,1,2,2],"img_shown":["img/500/equaldotanddens/R/14_Ratio_500_L_5_R_10.png","img/750/randomdotsizeEA/R/7_Ratio_750_L_3_R_4.png","img/250/equaldotsize/L/7_Ratio_250_L_8_R_2.png","img/250/equaldotanddens/L/3_Ratio_250_L_8_R_2.png","img/250/equaldotsize/L/5_Ratio_250_L_24_R_6.png","img/250/randomdotsizeEA/L/7_Ratio_250_L_8_R_2.png","img/500/randomdotsizeEA/R/15_Ratio_500_L_1_R_2.png","img/500/equaldotanddens/L/7_Ratio_500_L_10_R_5.png","img/750/randomdotsizeEA/R/7_Ratio_750_L_3_R_4.png","img/750/equaldotsize/L/14_Ratio_750_L_8_R_6.png","img/250/randomdotsizeEA/R/10_Ratio_250_L_4_R_16.png","img/900/equaldotanddens/L/8_Ratio_900_L_20_R_18.png","img/750/equaldotanddens/L/13_Ratio_750_L_8_R_6.png","img/500/equaldotsize/R/15_Ratio_500_L_1_R_2.png","img/900/equaldotsize/L/10_Ratio_900_L_20_R_18.png","img/750/randomdotsizeEA/L/6_Ratio_750_L_24_R_18.png","img/500/equaldotanddens/R/9_Ratio_500_L_2_R_4.png","img/500/equaldotanddens/R/9_Ratio_500_L_2_R_4.png","img/250/randomdotsizeEA/L/5_Ratio_250_L_24_R_6.png","img/750/equaldotanddens/L/14_Ratio_750_L_8_R_6.png","img/900/randomdotsizeEA/L/4_Ratio_900_L_20_R_18.png","img/250/equaldotanddens/L/3_Ratio_250_L_8_R_2.png","img/500/randomdotsizeEA/L/5_Ratio_500_L_4_R_2.png","img/750/equaldotsize/L/1_Ratio_750_L_20_R_15.png","img/500/randomdotsizeEA/R/6_Ratio_500_L_9_R_18.png","img/750/equaldotanddens/L/8_Ratio_750_L_4_R_3.png","img/750/equaldotsize/L/13_Ratio_750_L_8_R_6.png","img/250/equaldotsize/L/14_Ratio_250_L_12_R_3.png","img/750/equaldotanddens/L/8_Ratio_750_L_4_R_3.png","img/750/equaldotanddens/L/6_Ratio_750_L_24_R_18.png","img/250/equaldotanddens/R/8_Ratio_250_L_1_R_4.png","img/900/randomdotsizeEA/R/13_Ratio_900_L_18_R_20.png","img/250/equaldotsize/R/6_Ratio_250_L_6_R_24.png","img/500/equaldotsize/R/14_Ratio_500_L_5_R_10.png","img/500/equaldotsize/R/3_Ratio_500_L_10_R_20.png","img/750/equaldotanddens/R/11_Ratio_750_L_12_R_16.png","img/500/equaldotanddens/L/8_Ratio_500_L_8_R_4.png","img/900/equaldotanddens/L/1_Ratio_900_L_10_R_9.png","img/750/randomdotsizeEA/L/10_Ratio_750_L_4_R_3.png","img/250/equaldotanddens/R/4_Ratio_250_L_3_R_12.png","img/500/randomdotsizeEA/L/4_Ratio_500_L_18_R_9.png","img/900/equaldotsize/L/2_Ratio_900_L_20_R_18.png","img/750/equaldotsize/L/9_Ratio_750_L_4_R_3.png","img/500/equaldotanddens/L/10_Ratio_500_L_4_R_2.png","img/900/randomdotsizeEA/R/13_Ratio_900_L_18_R_20.png","img/250/equaldotanddens/L/14_Ratio_250_L_12_R_3.png","img/750/randomdotsizeEA/R/2_Ratio_750_L_6_R_8.png","img/250/equaldotanddens/R/6_Ratio_250_L_6_R_24.png","img/750/randomdotsizeEA/R/15_Ratio_750_L_9_R_12.png","img/750/equaldotsize/R/2_Ratio_750_L_6_R_8.png","img/250/equaldotsize/L/15_Ratio_250_L_12_R_3.png","img/250/equaldotanddens/R/6_Ratio_250_L_6_R_24.png","img/250/randomdotsizeEA/L/1_Ratio_250_L_8_R_2.png","img/250/randomdotsizeEA/L/1_Ratio_250_L_8_R_2.png","img/500/equaldotsize/R/1_Ratio_500_L_9_R_18.png","img/900/equaldotsize/L/10_Ratio_900_L_20_R_18.png","img/750/equaldotsize/R/5_Ratio_750_L_15_R_20.png","img/500/randomdotsizeEA/L/8_Ratio_500_L_8_R_4.png","img/750/randomdotsizeEA/R/3_Ratio_750_L_15_R_20.png","img/250/randomdotsizeEA/R/11_Ratio_250_L_3_R_12.png","img/750/equaldotanddens/R/3_Ratio_750_L_15_R_20.png","img/500/randomdotsizeEA/L/10_Ratio_500_L_4_R_2.png","img/500/equaldotanddens/L/13_Ratio_500_L_12_R_6.png","img/900/randomdotsizeEA/R/14_Ratio_900_L_18_R_20.png","img/750/equaldotsize/R/4_Ratio_750_L_15_R_20.png","img/900/equaldotsize/L/10_Ratio_900_L_20_R_18.png","img/250/equaldotsize/L/14_Ratio_250_L_12_R_3.png","img/750/equaldotsize/L/6_Ratio_750_L_24_R_18.png","img/250/equaldotanddens/R/4_Ratio_250_L_3_R_12.png","img/500/randomdotsizeEA/L/8_Ratio_500_L_8_R_4.png","img/750/randomdotsizeEA/R/12_Ratio_750_L_3_R_4.png","img/250/equaldotanddens/L/15_Ratio_250_L_12_R_3.png","img/900/randomdotsizeEA/L/10_Ratio_900_L_20_R_18.png","img/750/equaldotsize/R/7_Ratio_750_L_3_R_4.png","img/500/equaldotanddens/L/5_Ratio_500_L_4_R_2.png","img/500/randomdotsizeEA/L/8_Ratio_500_L_8_R_4.png","img/900/equaldotsize/L/4_Ratio_900_L_20_R_18.png","img/750/equaldotanddens/R/3_Ratio_750_L_15_R_20.png","img/900/equaldotsize/L/1_Ratio_900_L_10_R_9.png","img/900/equaldotsize/L/8_Ratio_900_L_20_R_18.png","img/750/randomdotsizeEA/R/3_Ratio_750_L_15_R_20.png","img/250/equaldotanddens/R/4_Ratio_250_L_3_R_12.png","img/900/equaldotanddens/R/6_Ratio_900_L_9_R_10.png","img/900/randomdotsizeEA/L/8_Ratio_900_L_20_R_18.png","img/250/equaldotsize/L/3_Ratio_250_L_8_R_2.png","img/900/randomdotsizeEA/R/14_Ratio_900_L_18_R_20.png","img/250/equaldotsize/L/3_Ratio_250_L_8_R_2.png","img/750/equaldotsize/L/1_Ratio_750_L_20_R_15.png","img/500/equaldotsize/L/4_Ratio_500_L_18_R_9.png","img/900/equaldotsize/R/15_Ratio_900_L_9_R_10.png","img/500/equaldotanddens/L/7_Ratio_500_L_10_R_5.png","img/500/equaldotsize/L/10_Ratio_500_L_4_R_2.png","img/500/randomdotsizeEA/R/12_Ratio_500_L_1_R_2.png","img/250/randomdotsizeEA/L/2_Ratio_250_L_16_R_4.png","img/900/equaldotanddens/R/3_Ratio_900_L_9_R_10.png","img/500/equaldotsize/R/3_Ratio_500_L_10_R_20.png","img/500/equaldotsize/R/2_Ratio_500_L_3_R_6.png","img/250/equaldotsize/L/1_Ratio_250_L_8_R_2.png","img/250/randomdotsizeEA/L/14_Ratio_250_L_12_R_3.png","img/900/equaldotsize/L/4_Ratio_900_L_20_R_18.png","img/500/equaldotanddens/R/6_Ratio_500_L_9_R_18.png","img/900/equaldotanddens/R/13_Ratio_900_L_18_R_20.png","img/750/equaldotanddens/R/12_Ratio_750_L_3_R_4.png","img/250/randomdotsizeEA/L/15_Ratio_250_L_12_R_3.png","img/250/randomdotsizeEA/R/10_Ratio_250_L_4_R_16.png","img/500/equaldotsize/L/11_Ratio_500_L_12_R_6.png","img/900/equaldotanddens/L/8_Ratio_900_L_20_R_18.png","img/900/randomdotsizeEA/R/6_Ratio_900_L_9_R_10.png","img/500/equaldotsize/R/12_Ratio_500_L_1_R_2.png","img/900/equaldotanddens/R/7_Ratio_900_L_9_R_10.png","img/900/equaldotanddens/L/4_Ratio_900_L_20_R_18.png","img/900/equaldotanddens/L/2_Ratio_900_L_20_R_18.png","img/900/equaldotsize/R/15_Ratio_900_L_9_R_10.png","img/900/equaldotanddens/R/5_Ratio_900_L_9_R_10.png","img/900/randomdotsizeEA/R/11_Ratio_900_L_18_R_20.png","img/900/randomdotsizeEA/R/11_Ratio_900_L_18_R_20.png","img/500/randomdotsizeEA/L/13_Ratio_500_L_12_R_6.png","img/250/equaldotsize/L/5_Ratio_250_L_24_R_6.png","img/750/equaldotanddens/R/12_Ratio_750_L_3_R_4.png","img/750/randomdotsizeEA/R/3_Ratio_750_L_15_R_20.png"],"Rat0":[["12_Ratio_0_L_9_R_0.png","13_Ratio_0_L_6_R_0.png","5_Ratio_0_L_2_R_0.png","6_Ratio_0_L_4_R_0.png","8_Ratio_0_L_6_R_0.png"],["1_Ratio_0_L_0_R_17.png","10_Ratio_0_L_0_R_22.png","11_Ratio_0_L_0_R_1.png","14_Ratio_0_L_0_R_24.png","15_Ratio_0_L_0_R_4.png","2_Ratio_0_L_0_R_5.png","3_Ratio_0_L_0_R_17.png","4_Ratio_0_L_0_R_7.png","7_Ratio_0_L_0_R_19.png","9_Ratio_0_L_0_R_15.png"]],"Rat250":[["1_Ratio_250_L_8_R_2.png","14_Ratio_250_L_12_R_3.png","15_Ratio_250_L_12_R_3.png","2_Ratio_250_L_16_R_4.png","3_Ratio_250_L_8_R_2.png","5_Ratio_250_L_24_R_6.png","7_Ratio_250_L_8_R_2.png"],["10_Ratio_250_L_4_R_16.png","11_Ratio_250_L_3_R_12.png","12_Ratio_250_L_5_R_20.png","13_Ratio_250_L_2_R_8.png","4_Ratio_250_L_3_R_12.png","6_Ratio_250_L_6_R_24.png","8_Ratio_250_L_1_R_4.png","9_Ratio_250_L_3_R_12.png"]],"Rat500":[["10_Ratio_500_L_4_R_2.png","11_Ratio_500_L_12_R_6.png","13_Ratio_500_L_12_R_6.png","4_Ratio_500_L_18_R_9.png","5_Ratio_500_L_4_R_2.png","7_Ratio_500_L_10_R_5.png","8_Ratio_500_L_8_R_4.png"],["1_Ratio_500_L_9_R_18.png","12_Ratio_500_L_1_R_2.png","14_Ratio_500_L_5_R_10.png","15_Ratio_500_L_1_R_2.png","2_Ratio_500_L_3_R_6.png","3_Ratio_500_L_10_R_20.png","6_Ratio_500_L_9_R_18.png","9_Ratio_500_L_2_R_4.png"]],"Rat750":[["1_Ratio_750_L_20_R_15.png","10_Ratio_750_L_4_R_3.png","13_Ratio_750_L_8_R_6.png","14_Ratio_750_L_8_R_6.png","6_Ratio_750_L_24_R_18.png","8_Ratio_750_L_4_R_3.png","9_Ratio_750_L_4_R_3.png"],["11_Ratio_750_L_12_R_16.png","12_Ratio_750_L_3_R_4.png","15_Ratio_750_L_9_R_12.png","2_Ratio_750_L_6_R_8.png","3_Ratio_750_L_15_R_20.png","4_Ratio_750_L_15_R_20.png","5_Ratio_750_L_15_R_20.png","7_Ratio_750_L_3_R_4.png"]],"Rat900":[["1_Ratio_900_L_10_R_9.png","10_Ratio_900_L_20_R_18.png","2_Ratio_900_L_20_R_18.png","4_Ratio_900_L_20_R_18.png","8_Ratio_900_L_20_R_18.png"],["11_Ratio_900_L_18_R_20.png","12_Ratio_900_L_18_R_20.png","13_Ratio_900_L_18_R_20.png","14_Ratio_900_L_18_R_20.png","15_Ratio_900_L_9_R_10.png","3_Ratio_900_L_9_R_10.png","5_Ratio_900_L_9_R_10.png","6_Ratio_900_L_9_R_10.png","7_Ratio_900_L_9_R_10.png","9_Ratio_900_L_18_R_20.png"]],"Rat1000":[["10_Ratio_1000_L_16_R_16.png","11_Ratio_1000_L_6_R_6.png","12_Ratio_1000_L_14_R_14.png","13_Ratio_1000_L_20_R_20.png","15_Ratio_1000_L_15_R_15.png","2_Ratio_1000_L_17_R_17.png","4_Ratio_1000_L_9_R_9.png","5_Ratio_1000_L_6_R_6.png","6_Ratio_1000_L_19_R_19.png","8_Ratio_1000_L_14_R_14.png","9_Ratio_1000_L_25_R_25.png"],["1_Ratio_1000_L_1_R_1.png","14_Ratio_1000_L_17_R_17.png","3_Ratio_1000_L_17_R_17.png","7_Ratio_1000_L_6_R_6.png"]]}},{"start_time":1552074691278,"click_time":1552074692586,"finger_time":1552074692266,"fix_duration":250,"trial":1,"RT":988,"MT":320,"sideResp":2,"stimulus":"img/750/randomdotsizeEA/R/7_Ratio_750_L_3_R_4.png","xmouse":[808,808,808,808,808,808,808,806,806,806,806,806,806,806,806,806,806,806,806,806,806,806,806,806,806,806,806,806,806,806,806,806,806,806,806,806,806,806,806,806,806,806,806,806,806,806,806,816,831,873,902,944,985,1013,1040,1047,1051,1053,1055,1061,1066,1072,1074,1074,1075,1078],"ymouse":[518,518,518,518,518,518,518,518,518,518,518,518,518,518,518,518,518,518,518,518,518,518,518,518,518,518,518,518,518,518,518,518,518,518,518,518,518,518,518,518,518,518,518,518,518,518,518,514,500,446,393,338,283,239,190,170,151,145,140,123,115,107,104,103,101,96],"timestamp_mouse":[13,38,48,68,89,108,128,148,169,189,208,228,248,269,288,307,329,348,369,388,409,429,448,469,489,508,528,549,568,588,609,628,647,668,689,709,729,749,768,787,807,829,849,868,889,909,928,949,968,988,1008,1027,1048,1069,1088,1109,1128,1148,1169,1188,1208,1228,1248,1268,1288,1308],"xSR":741.5,"ySR":469.95,"xT1":424.9,"yT1":0,"xT2":1058.1,"yT2":0,"toosoon":0,"cond_shown":"randomdotsizeEA","ratio_trial":750,"smaller_num":"3","larger_num":"4","correct_side":2,"subjID":"nicolas guillen 22","gender":"0","age":"9","school":"4"},{"start_time":1552074694601,"click_time":1552074695906,"finger_time":1552074695365,"fix_duration":1474.2691815371832,"trial":2,"RT":764,"MT":541,"sideResp":1,"stimulus":"img/250/equaldotsize/L/7_Ratio_250_L_8_R_2.png","xmouse":[763,763,763,763,763,763,763,763,763,763,763,763,763,763,763,763,763,763,763,763,763,763,763,763,763,763,763,763,763,763,763,763,763,763,763,763,757,748,702,645,628,617,606,596,581,576,571,562,551,537,536,535,533,520,507,495,490,489,489,488,487,485,484,484,484,484],"ymouse":[536,536,536,536,536,536,536,536,536,536,536,536,536,536,536,536,536,536,536,536,536,536,536,536,536,536,536,536,536,536,536,536,536,536,536,536,524,508,421,308,278,261,249,237,215,210,205,199,193,186,185,183,178,160,142,128,121,121,121,118,112,109,107,104,102,95],"timestamp_mouse":[5,26,45,65,86,104,125,145,165,185,206,226,246,265,286,305,326,345,364,385,406,425,446,466,485,505,526,544,566,585,605,626,645,665,684,704,725,745,764,784,806,825,846,865,885,906,925,944,964,986,1007,1025,1045,1066,1085,1105,1126,1144,1166,1185,1205,1224,1245,1266,1285,1305],"xSR":741.5,"ySR":469.95,"xT1":424.9,"yT1":0,"xT2":1058.1,"yT2":0,"toosoon":0,"cond_shown":"equaldotsize","ratio_trial":250,"smaller_num":"2","larger_num":"8","correct_side":1,"subjID":"nicolas guillen 22","gender":"0","age":"9","school":"4"},{"start_time":1552074699428,"click_time":1552074700786,"finger_time":1552074700286,"fix_duration":940.0992334617988,"trial":3,"RT":858,"MT":500,"sideResp":1,"stimulus":"img/250/equaldotanddens/L/3_Ratio_250_L_8_R_2.png","xmouse":[776,776,776,776,776,776,776,776,776,776,776,776,776,776,776,776,776,776,776,776,776,776,776,776,776,776,776,776,776,776,776,776,776,776,776,776,776,776,776,776,774,761,724,704,685,664,653,638,631,625,618,610,595,589,583,576,569,551,546,544,543,543,539,536,531,530,528,524],"ymouse":[540,540,540,540,540,540,540,540,540,540,540,540,540,540,540,540,540,540,540,540,540,540,540,540,540,540,540,540,540,540,540,540,540,540,540,540,540,540,540,539,536,519,440,392,348,302,282,259,249,240,229,218,201,193,187,179,168,139,126,119,114,112,103,96,89,87,84,78],"timestamp_mouse":[19,38,58,79,97,119,138,159,179,198,218,238,259,279,298,318,338,358,377,399,419,438,459,478,499,518,538,559,578,597,619,638,658,678,699,718,737,759,779,798,818,837,858,878,899,917,937,958,978,998,1019,1039,1058,1078,1097,1119,1138,1158,1177,1199,1218,1237,1258,1278,1298,1319,1338,1358],"xSR":741.5,"ySR":469.95,"xT1":424.9,"yT1":0,"xT2":1058.1,"yT2":0,"toosoon":0,"cond_shown":"equaldotanddens","ratio_trial":250,"smaller_num":"2","larger_num":"8","correct_side":1,"subjID":"nicolas guillen 22","gender":"0","age":"9","school":"4"},{"start_time":1552074702724,"click_time":1552074703687,"finger_time":1552074703406,"fix_duration":931.388778837178,"trial":4,"RT":682,"MT":281,"sideResp":1,"stimulus":"img/250/equaldotsize/L/5_Ratio_250_L_24_R_6.png","xmouse":[786,786,786,786,786,786,786,786,786,786,786,786,786,786,786,786,786,786,786,786,786,786,786,786,786,786,786,786,786,786,786,784,778,756,705,681,664,652,640,628,621,616,614,604,591,573,556,539,516],"ymouse":[530,530,530,530,530,530,530,530,530,530,530,530,530,530,530,530,530,530,530,530,530,530,530,530,530,530,530,530,530,530,530,530,527,509,445,410,387,369,355,324,300,281,262,209,177,143,123,110,95],"timestamp_mouse":[9,22,42,62,81,103,122,141,162,182,202,221,243,262,281,301,323,342,362,381,403,422,443,462,482,502,522,541,562,583,602,623,643,662,682,702,722,742,762,783,803,822,841,863,882,902,922,943,963],"xSR":741.5,"ySR":469.95,"xT1":424.9,"yT1":0,"xT2":1058.1,"yT2":0,"toosoon":0,"cond_shown":"equaldotsize","ratio_trial":250,"smaller_num":"6","larger_num":"24","correct_side":1,"subjID":"nicolas guillen 22","gender":"0","age":"9","school":"4"},{"start_time":1552074704855,"click_time":1552074706226,"finger_time":1552074705806,"fix_duration":545.906494149002,"trial":5,"RT":951,"MT":420,"sideResp":2,"stimulus":"img/250/randomdotsizeEA/L/7_Ratio_250_L_8_R_2.png","xmouse":[793,793,793,793,793,793,793,793,793,793,793,793,793,793,793,793,793,793,793,793,793,793,793,793,793,793,793,793,793,793,793,793,793,793,793,793,793,793,793,793,793,793,793,795,799,803,811,842,859,874,893,948,1023,1056,1078,1094,1116,1129,1141,1151,1157,1162,1166,1167,1167,1166,1158,1131,1110],"ymouse":[539,539,539,539,539,539,539,539,539,539,539,539,539,539,539,539,539,539,539,539,539,539,539,539,539,539,539,539,539,539,539,539,539,539,539,539,539,539,539,539,539,539,539,539,539,537,533,508,489,469,447,393,319,291,271,255,230,215,200,189,182,174,161,158,154,146,133,103,89],"timestamp_mouse":[11,39,51,72,92,110,132,152,172,191,211,230,252,272,292,312,331,352,371,391,412,431,452,472,491,511,532,551,571,591,612,632,651,671,692,711,730,751,771,792,810,831,851,871,891,911,931,951,971,992,1011,1031,1051,1071,1090,1111,1132,1150,1170,1191,1211,1231,1251,1271,1291,1311,1330,1350,1371],"xSR":741.5,"ySR":469.95,"xT1":424.9,"yT1":0,"xT2":1058.1,"yT2":0,"toosoon":0,"cond_shown":"randomdotsizeEA","ratio_trial":250,"smaller_num":"2","larger_num":"8","correct_side":1,"subjID":"nicolas guillen 22","gender":"0","age":"9","school":"4"},{"start_time":1552074710535,"click_time":1552074711686,"finger_time":1552074711306,"fix_duration":1445.3333554427638,"trial":6,"RT":771,"MT":380,"sideResp":1,"stimulus":"img/500/randomdotsizeEA/R/15_Ratio_500_L_1_R_2.png","xmouse":[781,781,781,781,781,781,781,781,781,781,781,781,781,781,781,781,781,781,781,781,781,781,781,781,781,781,781,781,781,781,781,781,781,781,781,782,780,774,750,734,719,701,686,674,656,643,629,617,585,571,564,561,560,546,534,517,509,505],"ymouse":[525,525,525,525,525,525,525,525,525,525,525,525,525,525,525,525,525,525,525,525,525,525,525,525,525,525,525,525,525,525,525,525,525,525,525,524,511,496,463,441,420,387,356,334,302,278,258,240,198,182,176,172,170,146,131,110,102,96],"timestamp_mouse":[19,34,52,71,92,112,130,150,171,191,211,231,252,271,291,311,331,351,371,391,412,432,451,471,490,511,532,551,571,591,612,632,651,670,692,711,731,751,771,791,811,831,851,871,891,911,932,951,972,991,1011,1031,1051,1072,1091,1111,1131,1150],"xSR":741.5,"ySR":469.95,"xT1":424.9,"yT1":0,"xT2":1058.1,"yT2":0,"toosoon":0,"cond_shown":"randomdotsizeEA","ratio_trial":500,"smaller_num":"1","larger_num":"2","correct_side":2,"subjID":"nicolas guillen 22","gender":"0","age":"9","school":"4"},{"start_time":1552074713739,"click_time":1552074719166,"finger_time":1552074718726,"fix_duration":1270.709475605653,"trial":7,"RT":4987,"MT":440,"sideResp":2,"stimulus":"img/500/equaldotanddens/L/7_Ratio_500_L_10_R_5.png","xmouse":[801,801,801,801,801,801,801,801,801,801,801,801,801,801,801,801,801,801,801,801,801,801,801,801,801,801,800,800,800,800,800,800,800,800,800,800,800,800,800,800,800,800,800,800,800,800,800,800,800,800,800,800,800,800,800,800,800,800,800,800,800,800,800,800,800,800,800,800,800,800,800,800,800,800,800,800,800,800,800,800,800,800,800,800,800,800,800,800,800,800,800,800,800,800,800,800,800,800,800,800,800,800,800,800,800,800,800,800,800,800,800,800,800,800,800,800,800,800,800,800,800,800,800,800,800,801,801,801,801,802,803,805,807,811,814,814,815,815,815,815,815,815,815,815,815,815,815,815,815,815,815,815,815,815,815,815,815,815,815,815,816,816,817,817,817,817,817,817,817,817,817,817,817,817,817,817,817,817,817,817,817,817,817,817,817,817,817,817,817,817,817,817,817,817,817,817,816,815,814,812,810,809,808,808,808,808,807,806,803,799,798,797,797,797,797,797,797,797,797,797,797,797,797,797,797,797,797,797,797,797,797,797,797,797,797,797,797,797,797,797,797,797,796,796,796,796,796,796,796,792,785,781,784,808,921,972,1003,1018,1025,1027,1024,1020,1020,1017,1014,1013,1013,1013,1017,1040,1053,1067],"ymouse":[484,484,484,484,484,484,484,484,484,484,484,484,484,484,484,484,484,484,484,484,484,484,484,484,485,486,487,487,487,487,487,487,487,487,487,487,487,487,487,487,487,487,487,487,487,487,487,487,487,487,487,487,487,487,487,487,487,487,487,487,487,487,487,487,487,487,487,487,487,487,487,487,487,487,487,487,487,487,487,487,487,487,487,487,487,487,487,487,487,487,487,487,487,487,487,487,487,487,487,487,487,487,487,487,487,487,487,487,487,487,487,487,487,487,487,487,487,487,487,487,487,487,488,489,490,491,491,492,493,495,497,500,504,509,511,512,513,513,513,514,514,514,514,514,514,514,514,514,514,514,514,514,514,514,514,514,514,514,514,514,514,514,511,510,509,509,509,509,509,509,509,509,509,509,509,509,509,509,509,509,509,509,509,509,509,509,509,509,509,509,509,509,509,509,509,509,509,509,509,509,509,509,509,509,509,509,506,502,495,485,482,480,480,480,480,480,480,480,480,480,480,480,480,480,480,480,480,480,480,480,480,480,483,485,486,489,491,491,491,492,492,493,494,494,494,494,494,493,489,456,433,393,370,346,285,264,243,229,217,205,176,156,142,129,119,107,106,104,101,94,92,88],"timestamp_mouse":[10,38,47,68,88,106,126,148,168,188,208,226,246,268,287,307,327,348,368,386,407,428,448,466,488,507,526,547,568,587,608,627,647,668,687,706,728,747,768,787,808,827,846,868,887,907,928,948,968,986,1008,1027,1048,1066,1088,1108,1127,1146,1168,1188,1208,1227,1247,1268,1288,1308,1327,1347,1367,1388,1407,1428,1447,1466,1488,1508,1527,1548,1568,1587,1607,1627,1648,1667,1687,1707,1728,1747,1768,1787,1807,1828,1848,1868,1888,1907,1928,1947,1966,1988,2008,2028,2048,2068,2088,2108,2128,2148,2168,2187,2206,2228,2247,2267,2287,2307,2327,2347,2367,2388,2408,2426,2446,2468,2488,2507,2526,2547,2567,2587,2606,2628,2647,2668,2687,2708,2726,2747,2767,2786,2808,2826,2847,2867,2887,2908,2928,2948,2967,2988,3007,3027,3047,3067,3087,3108,3128,3148,3167,3187,3207,3227,3247,3267,3288,3307,3328,3347,3368,3388,3407,3427,3447,3468,3488,3507,3526,3547,3568,3587,3607,3628,3648,3668,3686,3708,3728,3748,3767,3788,3806,3826,3847,3867,3888,3907,3927,3947,3968,3987,4008,4028,4047,4068,4088,4106,4127,4147,4168,4187,4207,4227,4246,4268,4288,4308,4327,4347,4368,4388,4407,4426,4447,4468,4488,4508,4528,4548,4567,4588,4608,4627,4647,4668,4688,4707,4727,4748,4768,4787,4808,4827,4848,4867,4888,4907,4934,4947,4967,4987,5007,5027,5047,5066,5088,5107,5126,5147,5167,5187,5207,5227,5248,5267,5287,5307,5327,5347,5367,5386,5406,5427],"xSR":741.5,"ySR":469.95,"xT1":424.9,"yT1":0,"xT2":1058.1,"yT2":0,"toosoon":0,"cond_shown":"equaldotanddens","ratio_trial":500,"smaller_num":"5","larger_num":"10","correct_side":1,"subjID":"nicolas guillen 22","gender":"0","age":"9","school":"4"},{"start_time":1552074720785,"click_time":1552074722725,"finger_time":1552074722407,"fix_duration":597.8980570776631,"trial":8,"RT":1622,"MT":318,"sideResp":1,"stimulus":"img/750/randomdotsizeEA/R/7_Ratio_750_L_3_R_4.png","xmouse":[783,783,783,783,783,783,783,783,783,783,783,783,783,783,783,783,783,783,783,783,783,783,783,783,783,783,783,783,783,783,783,783,783,783,783,783,783,783,783,783,783,783,783,783,783,783,783,783,783,783,783,783,783,783,783,783,783,783,783,783,783,783,783,783,783,783,783,783,783,783,783,783,783,783,783,783,783,782,779,774,768,756,704,685,679,678,677,675,645,626,613,606,593,580,564,546,526,511],"ymouse":[507,507,507,507,507,507,507,507,507,507,507,507,507,507,507,507,507,507,507,507,507,507,507,507,507,507,507,507,507,507,507,507,507,507,507,507,507,507,507,507,507,507,507,507,507,507,507,507,507,507,507,507,507,507,507,507,507,507,507,507,507,507,507,507,507,507,507,507,507,507,507,507,507,507,507,507,507,507,500,490,473,447,314,248,222,214,209,201,162,143,130,121,111,101,93,84,77,69],"timestamp_mouse":[10,21,41,62,80,100,120,140,160,181,201,222,240,260,281,301,321,341,362,381,402,420,440,462,481,502,521,541,562,580,601,622,641,660,682,701,722,741,762,782,802,822,842,861,882,901,920,942,962,982,1002,1021,1041,1062,1082,1101,1121,1142,1162,1181,1202,1221,1242,1261,1282,1301,1322,1342,1361,1380,1401,1421,1441,1461,1482,1501,1521,1541,1561,1581,1600,1622,1642,1661,1682,1701,1722,1741,1761,1782,1801,1822,1842,1860,1882,1902,1921,1940],"xSR":741.5,"ySR":469.95,"xT1":424.9,"yT1":0,"xT2":1058.1,"yT2":0,"toosoon":0,"cond_shown":"randomdotsizeEA","ratio_trial":750,"smaller_num":"3","larger_num":"4","correct_side":2,"subjID":"nicolas guillen 22","gender":"0","age":"9","school":"4"},{"start_time":1552074723714,"click_time":1552074724746,"finger_time":1552074724486,"fix_duration":266.91172878435896,"trial":9,"RT":772,"MT":260,"sideResp":1,"stimulus":"img/750/equaldotsize/L/14_Ratio_750_L_8_R_6.png","xmouse":[801,801,801,801,801,801,801,801,801,801,801,801,801,801,801,801,801,801,801,801,801,801,801,801,801,801,801,801,801,801,801,801,801,801,801,800,791,782,766,709,660,603,598,593,591,588,586,585,572,564,527,450],"ymouse":[532,532,532,532,532,532,532,532,532,532,532,532,532,532,532,532,532,532,532,532,532,532,532,532,532,532,532,532,532,532,532,532,532,532,532,530,514,498,466,335,225,85,72,63,56,52,49,48,40,36,21,9],"timestamp_mouse":[13,33,52,72,93,112,132,152,172,193,212,233,253,272,291,312,333,353,372,392,413,431,453,472,492,512,533,552,573,593,612,633,653,673,692,712,732,751,772,793,813,831,852,872,892,913,932,952,972,991,1011,1031],"xSR":741.5,"ySR":469.95,"xT1":424.9,"yT1":0,"xT2":1058.1,"yT2":0,"toosoon":0,"cond_shown":"equaldotsize","ratio_trial":750,"smaller_num":"6","larger_num":"8","correct_side":1,"subjID":"nicolas guillen 22","gender":"0","age":"9","school":"4"},{"start_time":1552074726900,"click_time":1552074728566,"finger_time":1552074728067,"fix_duration":253.39514812427723,"trial":10,"RT":1167,"MT":499,"sideResp":2,"stimulus":"img/250/randomdotsizeEA/R/10_Ratio_250_L_4_R_16.png","xmouse":[798,798,798,798,798,798,798,798,798,798,798,798,798,798,798,798,798,798,798,798,798,798,798,798,798,798,798,798,798,798,798,798,798,798,798,798,798,798,798,798,798,798,798,798,798,798,798,798,798,798,798,798,798,798,803,810,820,838,850,865,877,892,907,943,964,993,1036,1090,1115,1125,1133,1143,1155,1173,1177,1179,1180,1180,1179,1178,1178,1175,1160,1150],"ymouse":[558,558,558,558,558,558,558,558,558,558,558,558,558,558,558,558,558,558,558,558,558,558,558,558,558,558,558,558,558,558,558,558,558,558,558,558,558,558,558,558,558,558,558,558,558,558,558,558,558,558,558,558,558,557,551,540,532,517,509,493,481,462,436,384,360,330,291,249,227,217,205,190,169,128,106,83,65,51,49,49,49,49,51,54],"timestamp_mouse":[13,25,47,66,87,107,127,146,167,187,205,227,246,267,286,305,327,346,366,387,407,426,447,467,485,507,527,547,567,586,605,627,646,666,686,707,726,747,765,787,806,827,846,865,887,907,925,946,967,986,1005,1027,1045,1066,1087,1106,1126,1146,1167,1186,1206,1226,1246,1266,1286,1306,1325,1347,1366,1386,1406,1426,1446,1465,1486,1507,1526,1546,1567,1586,1606,1626,1646,1666],"xSR":741.5,"ySR":469.95,"xT1":424.9,"yT1":0,"xT2":1058.1,"yT2":0,"toosoon":0,"cond_shown":"randomdotsizeEA","ratio_trial":250,"smaller_num":"4","larger_num":"16","correct_side":2,"subjID":"nicolas guillen 22","gender":"0","age":"9","school":"4"},{"start_time":1552074730367,"click_time":1552074733986,"finger_time":1552074733746,"fix_duration":879.8415478804411,"trial":11,"RT":3379,"MT":240,"sideResp":1,"stimulus":"img/900/equaldotanddens/L/8_Ratio_900_L_20_R_18.png","xmouse":[795,795,795,795,795,795,795,795,795,795,795,795,795,795,795,795,795,795,795,795,795,795,795,795,795,795,795,795,795,795,795,795,795,795,795,795,795,795,795,795,795,795,795,795,795,795,795,795,795,795,795,795,795,795,795,795,795,795,795,795,795,795,795,795,795,795,795,795,795,795,795,795,795,795,795,795,795,795,795,795,795,795,795,795,795,795,795,795,795,795,795,795,795,795,795,795,795,795,795,795,795,795,795,795,795,795,795,795,795,795,795,795,795,795,795,795,795,795,795,795,795,795,795,795,795,795,795,795,795,795,795,795,795,795,795,795,795,795,795,795,795,795,795,795,795,795,795,795,795,795,795,795,795,795,795,795,795,795,795,795,795,795,795,795,795,792,779,764,747,695,661,633,610,591,584,583,583,583,579,543,515],"ymouse":[534,534,534,534,534,534,534,534,534,534,534,534,534,534,534,534,534,534,534,534,534,534,534,534,534,534,534,534,534,534,534,534,534,534,534,534,534,534,534,534,534,534,534,534,534,534,534,534,534,534,534,534,534,534,534,534,534,534,534,534,534,534,534,534,534,534,534,534,534,534,534,534,534,534,534,534,534,534,534,534,534,534,534,534,534,534,534,534,534,534,534,534,534,534,534,534,534,534,534,534,534,534,534,534,534,534,534,534,534,534,534,534,534,534,534,534,534,534,534,534,534,534,534,534,534,534,534,534,534,534,534,534,534,534,534,534,534,534,534,534,534,534,534,534,534,534,534,534,534,534,534,534,534,534,534,534,534,534,534,534,534,534,534,534,534,534,515,487,459,354,288,221,167,129,118,117,117,117,113,86,70],"timestamp_mouse":[32,39,59,80,100,120,140,160,179,199,219,240,260,279,299,319,340,359,380,400,420,439,460,480,498,520,539,558,578,598,619,640,660,679,700,720,739,758,778,799,820,839,859,880,899,920,938,960,979,1000,1018,1040,1059,1078,1100,1119,1140,1159,1178,1200,1219,1240,1260,1280,1299,1320,1340,1359,1378,1400,1419,1440,1460,1480,1499,1520,1540,1560,1579,1600,1620,1640,1659,1678,1699,1720,1738,1759,1779,1800,1820,1838,1859,1880,1899,1920,1939,1960,1979,2000,2019,2040,2059,2080,2099,2119,2139,2159,2179,2198,2219,2240,2260,2280,2298,2319,2340,2360,2378,2398,2419,2440,2460,2479,2498,2519,2540,2559,2578,2599,2620,2639,2659,2680,2699,2719,2739,2759,2779,2800,2819,2840,2859,2878,2900,2919,2939,2958,2978,3000,3019,3039,3060,3078,3100,3120,3138,3159,3179,3200,3219,3239,3260,3279,3300,3319,3340,3358,3379,3399,3419,3439,3458,3480,3499,3519,3540,3559,3578,3599,3619],"xSR":741.5,"ySR":469.95,"xT1":424.9,"yT1":0,"xT2":1058.1,"yT2":0,"toosoon":0,"cond_shown":"equaldotanddens","ratio_trial":900,"smaller_num":"18","larger_num":"20","correct_side":1,"subjID":"nicolas guillen 22","gender":"0","age":"9","school":"4"},{"start_time":1552074735887,"click_time":1552074736826,"finger_time":1552074736545,"fix_duration":918.2081457474037,"trial":12,"RT":658,"MT":281,"sideResp":1,"stimulus":"img/750/equaldotanddens/L/13_Ratio_750_L_8_R_6.png","xmouse":[821,821,821,821,821,821,821,821,821,821,821,821,821,821,821,821,821,821,821,821,821,821,821,821,821,821,821,821,821,812,799,781,761,740,709,697,678,669,659,643,634,623,608,594,562,551,538,524],"ymouse":[557,557,557,557,557,557,557,557,557,557,557,557,557,557,557,557,557,557,557,557,557,557,557,557,557,557,557,557,557,553,549,539,526,509,457,425,378,348,316,264,244,226,206,185,141,122,102,87],"timestamp_mouse":[1,20,43,59,80,99,119,138,158,179,199,219,240,259,280,298,320,339,359,379,399,420,438,459,479,500,520,540,559,578,599,619,640,658,680,699,719,738,758,780,799,819,839,860,880,898,919,938],"xSR":741.5,"ySR":469.95,"xT1":424.9,"yT1":0,"xT2":1058.1,"yT2":0,"toosoon":0,"cond_shown":"equaldotanddens","ratio_trial":750,"smaller_num":"6","larger_num":"8","correct_side":1,"subjID":"nicolas guillen 22","gender":"0","age":"9","school":"4"},{"start_time":1552074738008,"click_time":1552074739507,"finger_time":1552074739126,"fix_duration":301.5330838420717,"trial":13,"RT":1118,"MT":381,"sideResp":1,"stimulus":"img/500/equaldotsize/R/15_Ratio_500_L_1_R_2.png","xmouse":[793,793,793,793,793,793,793,793,793,793,793,793,793,793,793,793,793,793,793,793,793,793,793,793,793,793,793,793,793,793,793,793,793,793,793,793,793,793,793,793,793,793,793,793,793,793,793,793,793,793,793,793,793,790,778,759,730,663,621,598,578,557,523,513,507,504,502,501,501,501,502,502,502,502,496],"ymouse":[537,537,537,537,537,537,537,537,537,537,537,537,537,537,537,537,537,537,537,537,537,537,537,537,537,537,537,537,537,537,537,537,537,537,537,537,537,537,537,537,537,537,537,537,537,537,537,537,537,537,537,537,537,517,477,427,378,289,245,224,205,188,158,149,140,131,124,118,113,111,110,109,108,104,97],"timestamp_mouse":[17,41,59,78,98,118,138,157,178,199,218,238,259,278,298,319,338,357,379,398,419,438,458,477,498,518,538,558,578,599,617,637,658,679,699,719,737,759,779,799,819,838,858,878,899,918,939,957,978,999,1018,1039,1059,1078,1098,1118,1138,1160,1178,1198,1218,1238,1259,1278,1298,1317,1338,1358,1378,1398,1418,1438,1458,1478,1498],"xSR":741.5,"ySR":469.95,"xT1":424.9,"yT1":0,"xT2":1058.1,"yT2":0,"toosoon":0,"cond_shown":"equaldotsize","ratio_trial":500,"smaller_num":"1","larger_num":"2","correct_side":2,"subjID":"nicolas guillen 22","gender":"0","age":"9","school":"4"},{"start_time":1552074741329,"click_time":1552074742107,"finger_time":1552074742066,"fix_duration":942.6410900008167,"trial":14,"RT":737,"MT":41,"sideResp":1,"stimulus":"img/900/equaldotsize/L/10_Ratio_900_L_20_R_18.png","xmouse":[759,759,759,759,759,759,759,759,759,759,759,759,759,759,759,759,759,759,759,759,759,759,759,759,759,759,759,759,759,759,759,759,759,759,759,754,734,559,507],"ymouse":[499,499,499,499,499,499,499,499,499,499,499,499,499,499,499,499,499,499,499,499,499,499,499,499,499,499,499,499,499,499,499,499,499,499,499,483,436,105,14],"timestamp_mouse":[21,43,57,77,97,116,137,157,177,197,218,236,256,277,297,318,337,357,378,398,417,437,458,476,498,517,538,557,578,596,618,637,658,676,697,717,737,758,778],"xSR":741.5,"ySR":469.95,"xT1":424.9,"yT1":0,"xT2":1058.1,"yT2":0,"toosoon":0,"cond_shown":"equaldotsize","ratio_trial":900,"smaller_num":"18","larger_num":"20","correct_side":1,"subjID":"nicolas guillen 22","gender":"0","age":"9","school":"4"},{"start_time":1552074744553,"click_time":1552074745146,"finger_time":1552074744766,"fix_duration":1045.3741787929591,"trial":15,"RT":213,"MT":380,"sideResp":1,"stimulus":"img/750/randomdotsizeEA/L/6_Ratio_750_L_24_R_18.png","xmouse":[773,773,773,773,772,766,759,753,745,739,736,736,736,736,736,736,734,732,726,720,707,705,703,701,695,655,609,514,445],"ymouse":[506,506,506,506,506,500,492,486,479,475,471,471,471,471,471,471,458,443,418,391,344,328,316,304,288,240,199,136,98],"timestamp_mouse":[35,59,73,94,114,133,154,173,194,213,233,253,273,293,314,333,353,373,393,413,433,453,473,494,514,533,554,573,593],"xSR":741.5,"ySR":469.95,"xT1":424.9,"yT1":0,"xT2":1058.1,"yT2":0,"toosoon":0,"cond_shown":"randomdotsizeEA","ratio_trial":750,"smaller_num":"18","larger_num":"24","correct_side":1,"subjID":"nicolas guillen 22","gender":"0","age":"9","school":"4"},{"start_time":1552074750175,"click_time":1552074751486,"finger_time":1552074750567,"fix_duration":968.2986126811782,"trial":16,"RT":392,"MT":919,"sideResp":2,"stimulus":"img/500/equaldotanddens/R/9_Ratio_500_L_2_R_4.png","xmouse":[786,786,786,786,786,786,786,786,786,786,786,786,786,786,786,786,785,778,771,765,757,748,747,747,747,747,747,747,747,747,747,746,744,740,734,727,711,700,691,688,688,689,701,723,771,815,934,996,1054,1094,1121,1147,1150,1150,1149,1147,1146,1145,1140,1131,1119,1102,1097,1092,1086,1083],"ymouse":[522,522,522,522,522,522,522,522,522,522,522,522,522,522,522,522,505,488,472,454,436,416,414,414,414,414,414,414,414,414,414,413,409,403,393,381,358,344,330,322,319,317,317,317,318,324,339,343,341,324,303,254,239,227,217,212,207,202,193,181,166,141,131,118,104,95],"timestamp_mouse":[10,44,51,71,92,112,131,151,171,191,212,232,251,272,291,311,331,351,370,392,410,432,451,471,491,511,531,551,570,592,612,631,651,671,691,711,730,751,771,791,811,831,851,872,892,911,931,951,971,991,1013,1031,1052,1072,1091,1111,1131,1151,1171,1191,1212,1231,1251,1270,1291,1311],"xSR":741.5,"ySR":469.95,"xT1":424.9,"yT1":0,"xT2":1058.1,"yT2":0,"toosoon":0,"cond_shown":"equaldotanddens","ratio_trial":500,"smaller_num":"2","larger_num":"4","correct_side":2,"subjID":"nicolas guillen 22","gender":"0","age":"9","school":"4"},{"start_time":1552074753561,"click_time":1552074754966,"finger_time":1552074754345,"fix_duration":1452.7784719787066,"trial":17,"RT":784,"MT":621,"sideResp":2,"stimulus":"img/500/equaldotanddens/R/9_Ratio_500_L_2_R_4.png","xmouse":[774,774,774,774,774,774,774,774,774,774,774,774,774,774,774,774,776,780,784,788,791,793,795,796,796,801,807,811,813,813,813,813,813,813,813,814,816,828,833,842,855,875,928,981,1012,1035,1057,1094,1109,1124,1133,1142,1146,1141,1127,1111,1089,1047,1023,1003,990,983,980,981,982,985,995,1008,1039,1052,1065],"ymouse":[528,528,528,528,528,528,528,528,528,528,528,528,528,528,528,528,528,528,528,527,527,527,526,526,526,523,519,516,515,515,515,515,515,515,515,513,512,495,486,475,461,444,404,365,344,327,311,279,268,258,250,242,231,212,194,179,163,127,105,87,75,63,51,50,48,48,48,50,59,65,70],"timestamp_mouse":[8,26,46,65,84,106,126,144,165,186,205,226,246,266,285,306,325,345,365,385,405,424,445,465,485,505,526,545,566,586,606,624,645,665,686,706,725,745,765,784,806,825,846,865,885,905,925,946,965,985,1006,1024,1046,1065,1085,1105,1125,1146,1165,1185,1205,1225,1246,1265,1285,1305,1325,1345,1365,1385,1405],"xSR":741.5,"ySR":469.95,"xT1":424.9,"yT1":0,"xT2":1058.1,"yT2":0,"toosoon":0,"cond_shown":"equaldotanddens","ratio_trial":500,"smaller_num":"2","larger_num":"4","correct_side":2,"subjID":"nicolas guillen 22","gender":"0","age":"9","school":"4"},{"start_time":1552074757215,"click_time":1552074758446,"finger_time":1552074757946,"fix_duration":1206.7531267603704,"trial":18,"RT":731,"MT":500,"sideResp":1,"stimulus":"img/250/randomdotsizeEA/L/5_Ratio_250_L_24_R_6.png","xmouse":[790,790,790,790,790,790,790,790,790,790,790,790,790,790,790,790,790,790,790,790,790,790,790,790,790,790,790,790,790,790,790,790,790,790,781,769,752,732,715,700,674,669,666,665,665,659,652,642,628,607,565,542,523,514,507,504,502,501,499,499,499,500],"ymouse":[537,537,537,537,537,537,537,537,537,537,537,537,537,537,537,537,537,537,536,536,536,536,536,536,536,536,536,536,536,536,536,536,536,527,498,471,431,385,354,328,292,284,278,275,271,256,248,236,220,199,170,154,141,134,127,120,116,112,110,104,103,99],"timestamp_mouse":[13,37,51,71,90,112,131,151,172,191,212,231,251,272,292,311,332,350,371,392,412,432,452,472,492,511,531,551,572,591,610,632,651,671,692,711,731,752,771,791,811,831,851,871,891,911,931,951,971,991,1011,1031,1051,1071,1092,1111,1132,1151,1172,1193,1211,1231],"xSR":741.5,"ySR":469.95,"xT1":424.9,"yT1":0,"xT2":1058.1,"yT2":0,"toosoon":0,"cond_shown":"randomdotsizeEA","ratio_trial":250,"smaller_num":"6","larger_num":"24","correct_side":1,"subjID":"nicolas guillen 22","gender":"0","age":"9","school":"4"},{"start_time":1552074761552,"click_time":1552074762786,"finger_time":1552074762326,"fix_duration":904.9537248766397,"trial":19,"RT":774,"MT":460,"sideResp":1,"stimulus":"img/750/equaldotanddens/L/14_Ratio_750_L_8_R_6.png","xmouse":[791,791,791,791,791,791,791,791,791,791,791,791,791,791,791,791,791,791,791,791,791,791,791,791,791,791,791,791,791,791,791,791,791,791,791,791,789,785,770,757,738,724,712,692,685,679,674,670,655,639,625,606,588,550,531,509,492,476,453,450,449,449],"ymouse":[529,529,529,529,529,529,529,529,529,529,529,529,529,529,529,529,529,529,529,529,529,529,529,529,529,529,529,529,529,529,529,529,529,529,529,524,506,489,443,416,380,362,348,328,320,315,310,307,294,280,269,253,238,207,189,171,153,137,111,105,101,99],"timestamp_mouse":[14,39,54,74,95,114,134,155,175,194,213,235,254,274,295,313,335,355,374,394,413,435,453,473,495,515,533,553,575,594,615,633,655,674,693,714,734,755,774,795,814,834,853,875,894,914,934,955,974,994,1015,1035,1054,1074,1094,1114,1134,1153,1174,1194,1214,1234],"xSR":741.5,"ySR":469.95,"xT1":424.9,"yT1":0,"xT2":1058.1,"yT2":0,"toosoon":0,"cond_shown":"equaldotanddens","ratio_trial":750,"smaller_num":"6","larger_num":"8","correct_side":1,"subjID":"nicolas guillen 22","gender":"0","age":"9","school":"4"},{"start_time":1552074764792,"click_time":1552074765627,"finger_time":1552074765346,"fix_duration":1063.8964181075953,"trial":20,"RT":554,"MT":281,"sideResp":1,"stimulus":"img/900/randomdotsizeEA/L/4_Ratio_900_L_20_R_18.png","xmouse":[781,781,781,781,781,781,781,781,781,781,781,781,781,781,781,781,781,781,781,781,781,781,781,781,781,782,782,773,764,752,738,693,661,628,597,571,542,539,537,535,532,512],"ymouse":[509,509,509,509,509,509,509,509,509,509,509,509,509,509,509,509,509,509,509,509,509,509,509,509,509,503,483,455,433,409,385,322,282,244,209,177,134,123,118,113,108,88],"timestamp_mouse":[14,40,53,73,95,113,134,154,175,195,215,234,254,275,293,315,335,353,375,395,415,435,455,474,495,514,535,554,574,594,614,636,653,675,694,714,736,754,774,793,815,835],"xSR":741.5,"ySR":469.95,"xT1":424.9,"yT1":0,"xT2":1058.1,"yT2":0,"toosoon":0,"cond_shown":"randomdotsizeEA","ratio_trial":900,"smaller_num":"18","larger_num":"20","correct_side":1,"subjID":"nicolas guillen 22","gender":"0","age":"9","school":"4"},{"start_time":1552074770148,"click_time":1552074770966,"finger_time":1552074770686,"fix_duration":840.029536447785,"trial":21,"RT":538,"MT":280,"sideResp":1,"stimulus":"img/250/equaldotanddens/L/3_Ratio_250_L_8_R_2.png","xmouse":[794,794,794,794,794,794,794,794,794,794,794,794,794,794,794,794,794,793,791,786,783,781,779,777,772,767,760,749,733,698,680,654,628,605,570,545,536,528,528,525,524],"ymouse":[522,522,522,522,522,522,522,522,522,522,522,522,522,522,522,522,522,522,522,518,516,512,508,502,488,471,453,432,403,343,313,277,241,208,161,127,111,93,93,82,77],"timestamp_mouse":[18,39,57,79,98,119,138,158,179,199,217,238,258,279,299,318,338,359,378,398,418,437,459,479,498,519,538,558,579,598,618,638,658,679,698,717,739,771,778,798,818],"xSR":741.5,"ySR":469.95,"xT1":424.9,"yT1":0,"xT2":1058.1,"yT2":0,"toosoon":0,"cond_shown":"equaldotanddens","ratio_trial":250,"smaller_num":"2","larger_num":"8","correct_side":1,"subjID":"nicolas guillen 22","gender":"0","age":"9","school":"4"},{"start_time":1552074772925,"click_time":1552074774886,"finger_time":1552074773886,"fix_duration":998.5291448829,"trial":22,"RT":961,"MT":1000,"sideResp":1,"stimulus":"img/500/randomdotsizeEA/L/5_Ratio_500_L_4_R_2.png","xmouse":[807,807,807,807,807,807,807,807,807,807,807,807,807,807,807,807,807,807,807,807,807,807,807,807,807,807,807,807,807,807,807,807,807,807,807,807,807,807,806,806,806,806,809,810,811,814,816,826,832,835,839,840,840,840,840,840,829,794,764,722,684,649,608,593,582,570,567,550,540,533,526,519,512,508,506,502,496,486,486,486,486,486,486,486,485,485,485,485,485,485,485,483,483,482,482,482,482,481,481],"ymouse":[506,506,506,506,506,506,506,506,506,506,506,506,506,506,506,506,506,506,506,506,506,506,506,506,506,506,506,506,506,506,506,506,506,506,506,506,506,506,506,506,506,505,498,497,495,491,485,470,461,452,444,436,432,431,429,427,424,408,396,380,363,344,309,286,266,241,233,207,193,182,174,167,156,150,146,140,134,124,123,123,122,120,118,116,114,112,109,109,108,108,107,106,106,106,106,105,105,103,96],"timestamp_mouse":[4,26,40,62,82,102,122,141,162,182,201,222,241,261,282,301,322,341,361,382,401,420,442,461,482,501,522,542,562,581,600,621,642,662,682,702,721,741,762,781,802,820,841,862,881,902,921,941,961,982,1001,1023,1041,1062,1081,1101,1121,1141,1161,1182,1202,1220,1241,1261,1281,1302,1321,1342,1361,1382,1401,1422,1441,1462,1481,1501,1521,1541,1562,1582,1601,1620,1640,1661,1681,1701,1722,1741,1761,1782,1801,1823,1841,1861,1880,1901,1922,1941,1961],"xSR":741.5,"ySR":469.95,"xT1":424.9,"yT1":0,"xT2":1058.1,"yT2":0,"toosoon":0,"cond_shown":"randomdotsizeEA","ratio_trial":500,"smaller_num":"2","larger_num":"4","correct_side":1,"subjID":"nicolas guillen 22","gender":"0","age":"9","school":"4"},{"start_time":1552074777198,"click_time":1552074778366,"finger_time":1552074777885,"fix_duration":1209.1380213979903,"trial":23,"RT":687,"MT":481,"sideResp":1,"stimulus":"img/750/equaldotsize/L/1_Ratio_750_L_20_R_15.png","xmouse":[793,793,793,793,793,793,793,793,793,793,793,793,793,793,793,793,793,793,793,793,793,793,793,793,793,793,793,793,793,789,785,780,771,756,746,734,719,705,678,667,658,648,642,636,634,629,624,616,594,585,575,565,559,549,543,535,521,518,502],"ymouse":[549,549,549,549,549,549,549,549,549,549,549,549,549,549,549,549,549,549,549,549,549,549,549,549,549,549,549,549,543,534,526,518,504,479,464,447,428,407,368,350,335,315,305,289,283,272,262,246,211,193,178,162,153,139,132,122,109,105,93],"timestamp_mouse":[12,35,48,69,87,109,129,148,169,187,209,228,248,269,288,308,328,349,367,387,409,428,447,467,489,507,528,548,567,588,608,628,649,668,687,709,728,748,768,788,808,828,847,868,889,908,928,947,968,988,1009,1029,1048,1068,1088,1109,1128,1148,1168],"xSR":741.5,"ySR":469.95,"xT1":424.9,"yT1":0,"xT2":1058.1,"yT2":0,"toosoon":0,"cond_shown":"equaldotsize","ratio_trial":750,"smaller_num":"15","larger_num":"20","correct_side":1,"subjID":"nicolas guillen 22","gender":"0","age":"9","school":"4"},{"start_time":1552074780985,"click_time":1552074782407,"finger_time":1552074781787,"fix_duration":1276.7210736562963,"trial":24,"RT":802,"MT":620,"sideResp":1,"stimulus":"img/500/randomdotsizeEA/R/6_Ratio_500_L_9_R_18.png","xmouse":[780,780,780,780,780,780,780,780,780,780,780,780,780,780,780,780,780,780,780,780,780,780,780,780,780,780,780,780,780,780,780,780,780,780,780,782,784,788,789,781,777,775,773,770,768,767,766,766,763,759,750,732,709,684,634,603,580,564,550,550,550,550,550,550,550,550,549,545,538,525,519],"ymouse":[522,522,522,522,522,522,522,522,522,522,522,522,522,522,522,522,522,522,522,522,522,522,522,522,522,522,522,522,522,522,522,522,522,522,522,521,514,493,470,431,421,412,407,396,393,390,387,384,370,357,339,310,273,239,185,150,123,109,98,98,98,98,98,98,98,98,97,94,88,78,75],"timestamp_mouse":[20,48,61,81,100,121,141,161,180,201,221,241,261,280,301,321,341,361,380,402,422,442,462,481,501,520,542,561,580,600,622,641,662,681,701,722,742,762,781,802,821,841,861,882,901,921,941,962,983,1001,1022,1042,1061,1081,1101,1121,1141,1161,1182,1201,1221,1241,1262,1281,1302,1322,1341,1361,1381,1401,1422],"xSR":741.5,"ySR":469.95,"xT1":424.9,"yT1":0,"xT2":1058.1,"yT2":0,"toosoon":0,"cond_shown":"randomdotsizeEA","ratio_trial":500,"smaller_num":"9","larger_num":"18","correct_side":2,"subjID":"nicolas guillen 22","gender":"0","age":"9","school":"4"},{"start_time":1552074785594,"click_time":1552074787386,"finger_time":1552074786686,"fix_duration":725.5829723428394,"trial":25,"RT":1092,"MT":700,"sideResp":2,"stimulus":"img/750/equaldotanddens/L/8_Ratio_750_L_4_R_3.png","xmouse":[802,802,802,802,802,802,802,802,802,802,802,802,802,802,802,802,802,802,802,802,802,802,802,802,802,802,802,802,802,802,802,802,802,802,802,802,802,802,802,802,802,802,802,802,802,802,802,801,797,789,789,789,789,827,1018,1130,1212,1272,1295,1339,1357,1367,1375,1378,1378,1376,1358,1346,1303,1265,1259,1257,1256,1255,1254,1253,1251,1240,1224,1197,1189,1186,1185,1184,1178,1176,1173,1166,1162,1149],"ymouse":[525,525,525,525,525,525,525,525,525,525,525,525,525,525,525,525,525,525,525,525,525,525,525,525,525,525,525,525,525,525,525,525,525,525,525,525,525,525,525,525,525,525,525,525,525,525,525,525,526,535,536,536,536,517,392,301,238,197,185,159,146,137,129,124,118,115,111,109,109,109,109,109,109,109,109,109,107,97,80,52,43,42,42,42,44,45,46,49,52,56],"timestamp_mouse":[12,33,52,72,92,113,133,152,171,192,213,232,252,272,291,313,333,352,372,393,412,433,452,471,493,512,532,553,573,593,612,633,653,671,693,713,733,752,773,793,812,832,852,872,893,912,932,952,973,991,1012,1032,1052,1073,1092,1113,1133,1152,1172,1192,1212,1232,1252,1272,1292,1311,1333,1352,1372,1392,1412,1431,1452,1473,1492,1511,1532,1552,1573,1593,1612,1632,1652,1672,1691,1713,1732,1753,1772,1792],"xSR":741.5,"ySR":469.95,"xT1":424.9,"yT1":0,"xT2":1058.1,"yT2":0,"toosoon":0,"cond_shown":"equaldotanddens","ratio_trial":750,"smaller_num":"3","larger_num":"4","correct_side":1,"subjID":"nicolas guillen 22","gender":"0","age":"9","school":"4"},{"start_time":1552074788379,"click_time":1552074789507,"finger_time":1552074789186,"fix_duration":250,"trial":26,"RT":807,"MT":321,"sideResp":1,"stimulus":"img/750/equaldotsize/L/13_Ratio_750_L_8_R_6.png","xmouse":[771,771,771,771,771,771,771,771,771,771,771,771,771,771,771,771,771,771,771,771,771,771,771,771,771,771,771,771,771,771,771,771,770,769,768,766,763,760,757,752,734,713,682,649,622,594,591,591,592,593,593,589,583,578,571,542,515],"ymouse":[503,503,503,503,503,503,503,503,503,503,503,503,503,503,503,503,503,503,503,503,503,503,503,503,503,503,503,503,503,503,503,503,504,503,502,501,497,492,484,474,433,396,338,277,220,153,135,130,124,119,114,96,84,78,72,65,61],"timestamp_mouse":[9,37,48,67,86,107,127,147,167,188,206,227,247,268,287,308,328,347,367,388,408,428,447,468,486,508,528,547,567,587,607,628,647,668,687,707,727,747,768,788,807,827,847,868,886,908,927,947,968,987,1007,1027,1047,1067,1088,1108,1128],"xSR":741.5,"ySR":469.95,"xT1":424.9,"yT1":0,"xT2":1058.1,"yT2":0,"toosoon":0,"cond_shown":"equaldotsize","ratio_trial":750,"smaller_num":"6","larger_num":"8","correct_side":1,"subjID":"nicolas guillen 22","gender":"0","age":"9","school":"4"},{"start_time":1552074790838,"click_time":1552074792027,"finger_time":1552074791486,"fix_duration":449.7283479784424,"trial":27,"RT":648,"MT":541,"sideResp":1,"stimulus":"img/250/equaldotsize/L/14_Ratio_250_L_12_R_3.png","xmouse":[799,799,799,799,799,799,799,799,799,799,799,799,798,798,798,798,798,798,798,798,798,798,798,798,798,798,798,798,798,793,791,783,772,730,711,692,679,669,667,666,665,665,661,656,654,653,650,644,626,611,597,581,560,548,544,539,535,529,525,524],"ymouse":[505,505,505,505,505,505,505,505,505,505,505,505,505,505,505,505,505,505,505,505,505,505,505,505,505,505,505,505,505,503,500,485,461,354,287,221,180,149,144,141,138,135,121,111,108,106,106,105,105,105,105,105,105,105,105,105,105,102,98,97],"timestamp_mouse":[9,36,49,69,88,107,129,149,169,188,208,228,249,268,289,309,328,348,368,388,409,429,448,468,489,508,529,549,568,588,608,629,648,669,688,707,728,749,768,789,807,828,850,868,888,909,929,948,968,989,1008,1028,1048,1069,1088,1109,1128,1148,1168,1189],"xSR":741.5,"ySR":469.95,"xT1":424.9,"yT1":0,"xT2":1058.1,"yT2":0,"toosoon":0,"cond_shown":"equaldotsize","ratio_trial":250,"smaller_num":"3","larger_num":"12","correct_side":1,"subjID":"nicolas guillen 22","gender":"0","age":"9","school":"4"},{"start_time":1552074793799,"click_time":1552074794827,"finger_time":1552074794326,"fix_duration":830.9956939350644,"trial":28,"RT":527,"MT":501,"sideResp":1,"stimulus":"img/750/equaldotanddens/L/8_Ratio_750_L_4_R_3.png","xmouse":[792,792,792,792,792,792,792,792,792,792,792,792,792,792,792,792,792,792,791,791,790,788,786,784,778,755,741,725,706,679,631,615,600,581,571,561,560,560,560,560,558,556,552,546,542,538,537,536,535,533,525,519],"ymouse":[553,553,553,553,553,553,553,553,553,553,553,553,553,553,553,553,553,553,550,549,548,546,543,541,533,503,484,460,430,382,290,257,233,200,183,164,161,161,161,161,158,155,151,140,135,128,124,123,120,117,106,98],"timestamp_mouse":[8,27,48,67,87,108,126,148,167,187,208,228,248,267,287,306,327,348,367,387,407,427,447,468,487,507,527,546,567,587,607,628,647,667,687,708,727,746,767,788,807,828,848,867,888,907,927,948,967,987,1008,1028],"xSR":741.5,"ySR":469.95,"xT1":424.9,"yT1":0,"xT2":1058.1,"yT2":0,"toosoon":0,"cond_shown":"equaldotanddens","ratio_trial":750,"smaller_num":"3","larger_num":"4","correct_side":1,"subjID":"nicolas guillen 22","gender":"0","age":"9","school":"4"},{"start_time":1552074796697,"click_time":1552074797767,"finger_time":1552074797206,"fix_duration":989.0135073898942,"trial":29,"RT":509,"MT":561,"sideResp":1,"stimulus":"img/750/equaldotanddens/L/6_Ratio_750_L_24_R_18.png","xmouse":[760,760,760,760,760,760,760,760,760,760,760,760,760,760,760,760,760,760,760,760,760,760,755,752,746,732,723,722,717,712,702,692,681,668,655,645,642,641,639,637,627,620,613,606,596,581,575,571,565,558,537,531,525,522],"ymouse":[531,531,531,531,531,531,531,531,531,531,531,531,531,531,531,531,531,531,531,531,531,531,527,524,518,504,496,493,485,477,451,426,395,358,319,272,255,250,248,243,227,214,201,184,168,140,129,122,115,107,82,74,68,66],"timestamp_mouse":[10,36,49,69,88,110,130,150,169,190,209,228,250,269,289,309,330,350,368,389,410,428,450,470,489,509,528,549,570,589,610,629,649,669,689,709,729,749,770,789,809,829,849,870,889,909,929,949,970,988,1010,1029,1049,1069],"xSR":741.5,"ySR":469.95,"xT1":424.9,"yT1":0,"xT2":1058.1,"yT2":0,"toosoon":0,"cond_shown":"equaldotanddens","ratio_trial":750,"smaller_num":"18","larger_num":"24","correct_side":1,"subjID":"nicolas guillen 22","gender":"0","age":"9","school":"4"},{"start_time":1552074802299,"click_time":1552074803226,"finger_time":1552074802866,"fix_duration":250,"trial":30,"RT":567,"MT":360,"sideResp":2,"stimulus":"img/250/equaldotanddens/R/8_Ratio_250_L_1_R_4.png","xmouse":[802,802,802,802,802,802,802,803,803,803,803,803,803,803,803,803,803,802,800,798,797,795,794,792,790,789,788,788,788,788,786,779,778,783,798,861,961,990,1008,1018,1022,1026,1029,1036,1060,1074,1087],"ymouse":[502,502,502,502,502,502,502,503,505,505,505,505,505,505,505,505,505,506,506,506,506,502,497,493,485,480,474,471,466,460,452,425,409,390,364,297,231,209,190,173,160,144,142,134,118,106,91],"timestamp_mouse":[13,28,54,68,88,107,127,147,167,187,208,228,247,266,288,307,327,347,367,387,407,427,446,468,488,508,526,547,567,588,607,627,647,666,686,708,727,747,767,787,809,826,847,867,887,908,927],"xSR":741.5,"ySR":469.95,"xT1":424.9,"yT1":0,"xT2":1058.1,"yT2":0,"toosoon":0,"cond_shown":"equaldotanddens","ratio_trial":250,"smaller_num":"1","larger_num":"4","correct_side":2,"subjID":"nicolas guillen 22","gender":"0","age":"9","school":"4"},{"start_time":1552074805619,"click_time":1552074807006,"finger_time":1552074806267,"fix_duration":250,"trial":31,"RT":648,"MT":739,"sideResp":1,"stimulus":"img/900/randomdotsizeEA/R/13_Ratio_900_L_18_R_20.png","xmouse":[771,771,771,771,771,771,771,771,771,771,771,771,771,771,771,771,771,771,771,771,771,771,771,771,771,771,771,771,771,771,771,760,740,716,691,640,605,587,583,583,578,576,575,575,575,575,575,574,571,567,560,556,552,548,542,528,519,513,511,510,507,505,503,502,500,500,498,497,496,495],"ymouse":[516,516,516,516,516,516,516,516,516,516,516,516,516,516,516,516,516,516,516,516,516,516,516,516,516,516,516,516,516,516,516,514,509,499,486,454,426,409,398,384,353,335,319,302,284,264,247,234,219,207,189,184,178,174,171,167,163,159,157,155,145,137,131,126,122,119,109,104,101,97],"timestamp_mouse":[12,41,47,68,87,108,127,147,168,188,208,228,248,267,287,307,328,347,367,387,407,427,448,467,488,507,528,547,568,587,608,627,648,667,687,708,727,748,767,788,808,827,847,868,887,909,927,948,967,988,1007,1027,1047,1067,1088,1107,1127,1148,1167,1187,1207,1227,1248,1267,1287,1308,1327,1348,1367,1387],"xSR":741.5,"ySR":469.95,"xT1":424.9,"yT1":0,"xT2":1058.1,"yT2":0,"toosoon":0,"cond_shown":"randomdotsizeEA","ratio_trial":900,"smaller_num":"18","larger_num":"20","correct_side":2,"subjID":"nicolas guillen 22","gender":"0","age":"9","school":"4"},{"start_time":1552074808539,"click_time":1552074809627,"finger_time":1552074809227,"fix_duration":490.68637755186637,"trial":32,"RT":688,"MT":400,"sideResp":2,"stimulus":"img/250/equaldotsize/R/6_Ratio_250_L_6_R_24.png","xmouse":[772,772,772,772,772,772,772,772,772,772,772,772,772,772,772,772,772,772,772,772,772,772,772,772,772,772,772,772,772,772,778,787,793,803,835,860,884,913,938,964,1027,1048,1067,1080,1101,1110,1113,1116,1119,1119,1120,1120,1120,1120,1118],"ymouse":[528,528,528,528,528,528,528,528,528,528,528,528,528,528,528,528,528,528,528,528,528,528,528,528,528,528,528,528,528,528,525,514,507,496,460,428,393,347,307,270,196,178,160,146,128,121,118,115,114,113,110,108,105,100,95],"timestamp_mouse":[13,30,47,67,87,107,127,148,168,187,207,227,247,267,288,307,327,348,368,387,407,427,448,467,487,508,528,548,567,588,608,627,648,667,688,707,727,747,768,788,807,828,847,867,889,907,928,947,968,987,1008,1028,1047,1067,1088],"xSR":741.5,"ySR":469.95,"xT1":424.9,"yT1":0,"xT2":1058.1,"yT2":0,"toosoon":0,"cond_shown":"equaldotsize","ratio_trial":250,"smaller_num":"6","larger_num":"24","correct_side":2,"subjID":"nicolas guillen 22","gender":"0","age":"9","school":"4"},{"start_time":1552074810898,"click_time":1552074811986,"finger_time":1552074811486,"fix_duration":348.83297797727687,"trial":33,"RT":588,"MT":500,"sideResp":2,"stimulus":"img/500/equaldotsize/R/14_Ratio_500_L_5_R_10.png","xmouse":[773,773,773,773,773,773,773,773,773,773,773,773,773,773,773,773,773,773,773,773,773,773,773,773,773,780,785,809,823,852,862,892,952,975,998,1027,1056,1106,1113,1115,1115,1115,1109,1104,1095,1090,1086,1079,1079,1079,1079,1083,1084,1084,1085],"ymouse":[522,522,522,522,522,522,522,522,522,522,522,522,522,522,522,522,522,522,522,522,522,522,522,522,522,514,508,487,480,459,453,427,361,330,303,274,251,222,216,214,211,207,188,178,164,155,146,131,128,125,121,115,104,100,96],"timestamp_mouse":[9,40,48,68,89,108,128,149,169,188,208,229,249,269,289,308,328,349,369,388,409,428,449,469,489,508,528,548,568,588,609,629,648,668,688,708,729,748,768,788,808,828,848,868,888,909,928,948,968,988,1008,1028,1048,1068,1088],"xSR":741.5,"ySR":469.95,"xT1":424.9,"yT1":0,"xT2":1058.1,"yT2":0,"toosoon":0,"cond_shown":"equaldotsize","ratio_trial":500,"smaller_num":"5","larger_num":"10","correct_side":2,"subjID":"nicolas guillen 22","gender":"0","age":"9","school":"4"},{"start_time":1552074813671,"click_time":1552074815387,"finger_time":1552074814886,"fix_duration":742.3827209435972,"trial":34,"RT":1215,"MT":501,"sideResp":2,"stimulus":"img/500/equaldotsize/R/3_Ratio_500_L_10_R_20.png","xmouse":[776,776,776,776,776,776,776,776,776,776,776,776,776,776,776,776,776,776,776,776,776,776,776,776,776,779,782,788,790,790,790,790,790,790,790,790,790,790,790,790,790,790,790,790,790,790,790,790,790,790,790,790,790,790,790,790,790,794,803,826,857,902,956,1041,1094,1151,1197,1234,1269,1276,1290,1303,1309,1309,1309,1309,1309,1309,1309,1309,1309,1309,1309,1309,1309,1130],"ymouse":[541,541,541,541,541,541,541,541,541,541,541,541,541,541,541,541,541,541,541,541,541,541,541,541,541,541,540,536,534,534,534,534,534,534,534,534,534,534,534,534,534,534,534,534,534,534,534,534,534,534,534,534,534,534,534,534,534,531,526,512,495,469,435,375,338,296,258,219,146,120,69,25,1,1,1,1,1,1,1,1,1,1,1,1,1,6],"timestamp_mouse":[15,38,56,76,95,116,135,155,175,195,216,236,255,275,295,315,336,356,375,396,415,436,456,475,495,515,535,555,575,596,616,635,655,675,696,716,736,756,775,796,816,836,855,875,896,915,935,956,975,995,1015,1035,1054,1075,1095,1115,1135,1156,1175,1196,1215,1235,1255,1276,1295,1316,1336,1355,1376,1396,1416,1436,1456,1475,1496,1515,1535,1555,1576,1596,1615,1636,1655,1675,1695,1716],"xSR":741.5,"ySR":469.95,"xT1":424.9,"yT1":0,"xT2":1058.1,"yT2":0,"toosoon":0,"cond_shown":"equaldotsize","ratio_trial":500,"smaller_num":"10","larger_num":"20","correct_side":2,"subjID":"nicolas guillen 22","gender":"0","age":"9","school":"4"},{"start_time":1552074816518,"click_time":1552074818606,"finger_time":1552074818366,"fix_duration":250,"trial":35,"RT":1848,"MT":240,"sideResp":1,"stimulus":"img/750/equaldotanddens/R/11_Ratio_750_L_12_R_16.png","xmouse":[770,770,771,775,777,778,779,783,784,786,786,788,788,788,788,788,788,788,788,788,788,788,788,788,788,788,788,788,788,788,788,788,788,788,788,788,788,788,788,788,788,788,788,788,788,788,788,788,788,788,788,788,788,788,788,788,788,788,788,788,788,788,788,788,788,788,788,788,788,792,799,803,808,809,810,811,811,811,811,811,811,811,811,811,811,811,811,811,806,795,784,773,754,745,736,709,662,612,602,600,596,578,552,530,520],"ymouse":[517,517,518,521,521,523,524,525,525,526,526,526,526,526,526,526,526,526,526,526,526,526,526,526,526,526,526,526,526,526,526,526,526,526,526,526,526,526,526,526,526,526,526,526,526,526,526,526,526,526,526,526,526,526,526,526,526,526,526,526,526,526,526,526,526,526,526,526,526,523,506,496,487,486,484,484,483,483,483,483,483,483,483,483,483,483,483,483,483,482,480,476,457,436,407,344,252,170,152,142,131,96,55,26,17],"timestamp_mouse":[12,28,48,69,88,109,128,149,169,189,209,228,249,269,289,308,329,349,369,389,409,429,449,469,488,509,529,548,568,588,609,629,649,669,689,709,728,749,768,789,809,828,849,868,889,909,928,949,969,988,1008,1029,1048,1068,1089,1108,1128,1148,1168,1189,1208,1229,1248,1269,1288,1309,1328,1348,1368,1389,1408,1428,1448,1468,1488,1508,1529,1549,1568,1588,1609,1629,1647,1668,1689,1708,1728,1748,1768,1788,1808,1828,1848,1868,1888,1908,1928,1948,1969,1988,2009,2030,2048,2069,2088],"xSR":741.5,"ySR":469.95,"xT1":424.9,"yT1":0,"xT2":1058.1,"yT2":0,"toosoon":0,"cond_shown":"equaldotanddens","ratio_trial":750,"smaller_num":"12","larger_num":"16","correct_side":2,"subjID":"nicolas guillen 22","gender":"0","age":"9","school":"4"},{"start_time":1552074822299,"click_time":1552074823427,"finger_time":1552074822746,"fix_duration":1270.4359399984362,"trial":36,"RT":447,"MT":681,"sideResp":2,"stimulus":"img/500/equaldotanddens/L/8_Ratio_500_L_8_R_4.png","xmouse":[783,783,783,783,783,783,783,783,783,783,783,783,783,783,783,783,783,783,785,787,790,794,796,800,813,826,856,891,941,1047,1085,1110,1130,1155,1169,1177,1181,1183,1186,1187,1187,1187,1183,1169,1159,1156,1153,1151,1140,1132,1128,1127,1127,1124,1120,1118,1116],"ymouse":[490,490,490,490,490,490,490,490,490,490,490,490,490,490,490,490,490,490,487,482,477,472,469,464,456,451,439,421,394,323,292,268,250,222,206,198,194,190,182,178,172,164,155,140,134,133,131,130,123,118,115,115,114,110,106,103,99],"timestamp_mouse":[9,38,47,68,88,107,128,147,167,188,207,228,248,267,288,308,328,348,367,387,407,427,447,467,488,508,528,547,567,587,608,627,647,668,687,707,728,747,768,787,807,828,848,868,887,907,927,948,967,987,1008,1027,1047,1067,1087,1107,1128],"xSR":741.5,"ySR":469.95,"xT1":424.9,"yT1":0,"xT2":1058.1,"yT2":0,"toosoon":0,"cond_shown":"equaldotanddens","ratio_trial":500,"smaller_num":"4","larger_num":"8","correct_side":1,"subjID":"nicolas guillen 22","gender":"0","age":"9","school":"4"},{"start_time":1552074825188,"click_time":1552074825867,"finger_time":1552074825466,"fix_duration":999.8264924064687,"trial":37,"RT":278,"MT":401,"sideResp":2,"stimulus":"img/900/equaldotanddens/L/1_Ratio_900_L_10_R_9.png","xmouse":[770,770,770,770,770,770,770,773,777,799,805,809,815,844,858,868,877,883,901,922,936,951,980,1017,1075,1092,1100,1104,1108,1122,1127,1131,1133,1136],"ymouse":[539,539,539,539,539,539,539,539,539,522,518,514,507,465,434,408,387,368,342,326,319,310,295,274,240,224,212,201,187,154,137,120,109,98],"timestamp_mouse":[18,45,58,78,98,119,138,159,178,199,218,239,258,278,298,318,338,358,380,398,419,438,458,479,498,518,538,558,579,598,618,638,658,679],"xSR":741.5,"ySR":469.95,"xT1":424.9,"yT1":0,"xT2":1058.1,"yT2":0,"toosoon":0,"cond_shown":"equaldotanddens","ratio_trial":900,"smaller_num":"9","larger_num":"10","correct_side":1,"subjID":"nicolas guillen 22","gender":"0","age":"9","school":"4"},{"start_time":1552074827965,"click_time":1552074829106,"finger_time":1552074828446,"fix_duration":1096.954605504933,"trial":38,"RT":481,"MT":660,"sideResp":2,"stimulus":"img/750/randomdotsizeEA/L/10_Ratio_750_L_4_R_3.png","xmouse":[798,798,798,798,798,798,798,798,798,798,798,798,798,798,798,799,801,803,805,805,805,800,795,787,783,771,756,749,744,733,721,694,680,670,666,666,670,694,749,779,869,975,1012,1044,1070,1083,1099,1113,1115,1118,1119,1119,1119,1119,1119,1119,1122,1122],"ymouse":[520,520,520,520,520,520,520,520,520,520,520,520,520,517,515,513,507,505,502,496,495,487,482,476,469,459,437,420,398,361,337,298,281,268,264,264,263,263,270,278,296,303,296,279,258,245,221,207,202,197,192,181,174,163,149,135,112,98],"timestamp_mouse":[10,21,41,61,81,101,122,142,160,182,201,221,241,262,282,300,321,341,361,382,402,421,441,462,481,502,521,541,562,582,602,621,641,661,681,701,721,741,762,781,802,821,841,861,881,902,921,941,962,982,1002,1021,1041,1062,1081,1102,1121,1141],"xSR":741.5,"ySR":469.95,"xT1":424.9,"yT1":0,"xT2":1058.1,"yT2":0,"toosoon":0,"cond_shown":"randomdotsizeEA","ratio_trial":750,"smaller_num":"3","larger_num":"4","correct_side":1,"subjID":"nicolas guillen 22","gender":"0","age":"9","school":"4"},{"start_time":1552074830349,"click_time":1552074831146,"finger_time":1552074830686,"fix_duration":460.8597228297219,"trial":39,"RT":337,"MT":460,"sideResp":1,"stimulus":"img/250/equaldotanddens/R/4_Ratio_250_L_3_R_12.png","xmouse":[779,779,779,779,779,779,779,779,779,779,779,779,776,772,767,754,723,688,658,632,607,573,565,558,555,554,554,554,554,554,554,549,546,543,539,534,527,526,525,524],"ymouse":[535,535,535,535,535,535,535,535,535,535,535,535,532,528,524,511,471,410,357,305,260,200,184,171,160,152,142,138,133,127,121,109,105,101,97,93,90,90,90,90],"timestamp_mouse":[21,40,57,78,98,117,137,157,177,197,217,237,257,277,298,318,337,357,378,397,417,438,457,477,498,518,537,558,578,598,618,638,657,677,697,718,737,757,777,797],"xSR":741.5,"ySR":469.95,"xT1":424.9,"yT1":0,"xT2":1058.1,"yT2":0,"toosoon":0,"cond_shown":"equaldotanddens","ratio_trial":250,"smaller_num":"3","larger_num":"12","correct_side":2,"subjID":"nicolas guillen 22","gender":"0","age":"9","school":"4"},{"start_time":1552074833259,"click_time":1552074834206,"finger_time":1552074833986,"fix_duration":991.3675835998242,"trial":40,"RT":727,"MT":220,"sideResp":1,"stimulus":"img/500/randomdotsizeEA/L/4_Ratio_500_L_18_R_9.png","xmouse":[798,798,798,798,798,798,798,798,798,798,798,798,798,798,798,798,798,798,798,798,798,798,798,798,798,798,798,798,798,798,798,798,789,780,770,756,742,692,660,621,581,545,495,487,480,472,463,441],"ymouse":[553,553,553,553,553,553,553,553,553,553,553,553,553,553,553,553,553,553,553,553,553,553,553,553,553,553,553,553,553,553,550,544,529,516,501,483,460,387,343,298,254,219,175,165,154,137,116,63],"timestamp_mouse":[10,38,47,67,88,108,127,147,168,187,207,228,248,267,288,307,327,348,368,388,407,428,448,468,487,508,527,547,567,587,608,628,648,667,688,707,727,747,767,787,808,827,847,868,888,908,927,947],"xSR":741.5,"ySR":469.95,"xT1":424.9,"yT1":0,"xT2":1058.1,"yT2":0,"toosoon":0,"cond_shown":"randomdotsizeEA","ratio_trial":500,"smaller_num":"9","larger_num":"18","correct_side":1,"subjID":"nicolas guillen 22","gender":"0","age":"9","school":"4"},{"start_time":1552074837597,"click_time":1552074840807,"finger_time":1552074840506,"fix_duration":1029.4398209784308,"trial":41,"RT":2909,"MT":301,"sideResp":1,"stimulus":"img/900/equaldotsize/L/2_Ratio_900_L_20_R_18.png","xmouse":[790,790,790,790,790,790,790,790,790,790,790,790,790,790,790,790,790,790,790,790,790,790,790,790,790,790,790,790,790,790,790,790,790,790,790,790,790,790,790,790,790,790,790,790,790,790,790,790,790,790,790,790,790,790,790,790,790,790,790,790,790,790,790,790,790,790,790,790,790,790,790,790,790,790,790,790,790,790,790,790,790,790,790,790,790,791,791,791,791,791,791,791,791,791,791,791,791,791,791,791,791,791,791,791,791,791,791,791,791,791,791,791,791,791,791,791,791,791,791,791,791,791,791,791,791,791,791,791,791,791,791,791,791,791,791,791,791,791,791,790,780,773,766,762,759,759,759,759,760,762,764,764,764,764,762,746,730,707,675,622,511],"ymouse":[538,538,538,538,538,538,538,538,538,538,538,538,538,538,538,538,538,538,538,538,538,538,538,538,538,538,538,538,538,538,538,538,538,538,538,538,538,538,538,538,538,538,538,538,538,538,538,538,538,538,538,538,538,538,538,538,538,538,538,538,538,538,538,538,538,538,538,538,538,538,538,538,538,538,538,538,538,538,538,538,538,538,538,538,538,538,538,538,538,538,538,538,538,538,538,538,538,538,538,538,538,538,538,538,538,538,538,538,538,538,538,538,538,538,538,538,538,538,538,538,538,538,538,538,538,538,538,538,538,538,538,538,538,538,538,538,538,538,538,538,532,525,509,499,488,467,453,436,421,412,408,408,408,403,385,336,306,268,224,167,82],"timestamp_mouse":[14,47,50,68,89,110,129,149,169,190,210,229,250,269,290,309,329,349,369,389,410,429,449,469,490,510,529,550,570,590,610,629,649,670,689,710,729,749,770,789,810,829,849,869,889,910,929,949,970,989,1010,1030,1049,1069,1089,1109,1129,1150,1170,1189,1210,1230,1249,1269,1289,1309,1330,1349,1370,1390,1410,1430,1449,1469,1489,1510,1530,1549,1570,1590,1610,1630,1650,1670,1689,1709,1729,1750,1769,1790,1810,1830,1849,1869,1889,1909,1930,1950,1969,1990,2009,2030,2050,2070,2089,2110,2130,2149,2170,2189,2209,2230,2249,2270,2290,2309,2330,2349,2370,2390,2409,2429,2449,2469,2490,2509,2529,2549,2570,2589,2609,2629,2650,2670,2690,2710,2729,2749,2770,2789,2809,2829,2849,2869,2890,2909,2929,2949,2969,2989,3010,3030,3049,3070,3090,3110,3129,3149,3170,3189,3210],"xSR":741.5,"ySR":469.95,"xT1":424.9,"yT1":0,"xT2":1058.1,"yT2":0,"toosoon":0,"cond_shown":"equaldotsize","ratio_trial":900,"smaller_num":"18","larger_num":"20","correct_side":1,"subjID":"nicolas guillen 22","gender":"0","age":"9","school":"4"},{"start_time":1552074852659,"click_time":1552074853946,"finger_time":1552074853206,"fix_duration":1411.0472812720604,"trial":42,"RT":547,"MT":740,"sideResp":1,"stimulus":"img/750/equaldotsize/L/9_Ratio_750_L_4_R_3.png","xmouse":[783,786,786,787,787,787,787,788,788,788,788,788,788,789,789,789,790,793,798,805,806,807,807,807,807,807,808,814,817,817,817,810,803,785,750,728,687,606,438,391,381,381,381,383,387,389,393,398,428,447,458,466,470,477,480,482,483,484,485,487,487,487,488,489,490],"ymouse":[491,491,491,491,491,491,491,492,492,492,492,492,493,494,494,494,495,494,491,489,489,489,489,489,489,489,484,461,434,384,369,353,343,323,301,293,280,258,209,194,188,188,185,179,164,156,152,148,141,138,135,133,130,127,125,123,122,120,117,114,112,110,107,101,90],"timestamp_mouse":[14,39,47,68,88,108,127,147,168,187,207,227,248,267,288,308,327,347,367,387,407,428,448,468,488,507,528,547,567,587,608,627,648,667,687,707,727,747,769,787,807,828,847,867,888,907,928,947,969,987,1008,1027,1048,1068,1087,1107,1127,1147,1168,1187,1207,1228,1247,1267,1287],"xSR":741.5,"ySR":469.95,"xT1":424.9,"yT1":0,"xT2":1058.1,"yT2":0,"toosoon":0,"cond_shown":"equaldotsize","ratio_trial":750,"smaller_num":"3","larger_num":"4","correct_side":1,"subjID":"nicolas guillen 22","gender":"0","age":"9","school":"4"},{"start_time":1552074858328,"click_time":1552074860766,"finger_time":1552074859986,"fix_duration":1079.8743048348324,"trial":43,"RT":1658,"MT":780,"sideResp":2,"stimulus":"img/500/equaldotanddens/L/10_Ratio_500_L_4_R_2.png","xmouse":[796,796,796,796,796,796,796,796,797,797,799,799,799,799,799,799,800,801,802,802,802,802,802,802,802,802,802,802,802,802,802,802,802,802,802,802,802,802,802,802,802,802,802,802,802,802,802,802,802,802,802,802,802,802,802,802,802,802,802,802,802,802,802,802,802,802,802,802,802,802,802,802,802,802,802,802,802,805,807,809,813,820,834,847,874,913,1040,1068,1093,1112,1122,1134,1141,1146,1150,1154,1156,1151,1147,1146,1145,1139,1135,1131,1124,1117,1110,1075,1060,1052,1050,1049,1049,1051,1052,1052,1044,1034,1034,1034,1039,1068,1086],"ymouse":[536,536,536,536,536,530,527,526,525,523,521,519,519,519,519,519,517,517,516,515,515,515,515,515,515,515,515,515,515,515,515,515,515,515,515,515,515,515,515,515,515,515,515,515,515,515,515,515,515,515,515,515,515,515,515,515,515,515,515,515,515,515,515,515,515,515,515,515,515,515,515,515,515,515,515,515,515,510,508,506,502,497,488,478,461,442,392,380,369,357,350,337,329,319,309,296,284,236,211,188,171,154,150,149,149,149,156,220,235,241,241,241,237,227,209,180,142,106,106,106,105,101,91],"timestamp_mouse":[8,31,48,58,78,99,118,139,158,179,198,219,238,258,279,297,319,339,358,379,398,418,438,459,478,499,518,539,559,579,599,618,638,659,678,698,718,738,759,778,798,818,838,859,878,898,918,937,959,979,999,1019,1039,1059,1079,1099,1118,1139,1158,1179,1198,1218,1238,1259,1278,1298,1318,1338,1359,1379,1398,1418,1439,1459,1479,1499,1518,1539,1558,1579,1598,1618,1638,1658,1679,1698,1720,1738,1758,1778,1798,1819,1838,1859,1879,1898,1918,1938,1958,1978,1998,2020,2038,2058,2079,2098,2119,2139,2158,2178,2199,2219,2238,2258,2278,2298,2318,2338,2359,2379,2398,2420,2437],"xSR":741.5,"ySR":469.95,"xT1":424.9,"yT1":0,"xT2":1058.1,"yT2":0,"toosoon":0,"cond_shown":"equaldotanddens","ratio_trial":500,"smaller_num":"2","larger_num":"4","correct_side":1,"subjID":"nicolas guillen 22","gender":"0","age":"9","school":"4"},{"start_time":1552074867004,"click_time":1552074868269,"finger_time":1552074867068,"fix_duration":1355.5297291300496,"trial":44,"RT":64,"MT":1201,"sideResp":1,"stimulus":"img/900/randomdotsizeEA/R/13_Ratio_900_L_18_R_20.png","xmouse":[753,747,747,708,703,701,701,700,700,700,700,700,700,700,700,700,700,700,700,700,700,700,700,700,700,700,700,700,700,719,727,739,746,761,776,791,805,816,828,840,844,846,846,836,829,812,775,733,696,663,663,663,663,663,663,663,663,663,663,663,663,550,530,493],"ymouse":[531,530,530,536,536,536,536,536,536,536,536,536,536,536,536,536,536,536,536,536,536,536,536,536,536,536,536,536,536,534,533,530,527,514,498,477,457,433,388,347,321,300,282,255,237,209,156,99,51,0,0,0,0,0,0,0,0,0,0,0,0,8,15,32],"timestamp_mouse":[4,37,44,64,95,104,124,144,164,184,203,225,245,265,285,303,323,345,365,384,405,424,445,463,483,505,524,543,564,584,603,624,644,663,683,704,725,744,765,783,803,824,843,864,883,904,924,944,964,983,1004,1024,1044,1064,1083,1103,1124,1144,1164,1184,1203,1225,1244,1265],"xSR":741.5,"ySR":469.95,"xT1":424.9,"yT1":0,"xT2":1058.1,"yT2":0,"toosoon":0,"cond_shown":"randomdotsizeEA","ratio_trial":900,"smaller_num":"18","larger_num":"20","correct_side":2,"subjID":"nicolas guillen 22","gender":"0","age":"9","school":"4"},{"start_time":1552074894787,"click_time":1552074896088,"finger_time":1552074895547,"fix_duration":1118.2220183749025,"trial":45,"RT":760,"MT":541,"sideResp":1,"stimulus":"img/250/equaldotanddens/L/14_Ratio_250_L_12_R_3.png","xmouse":[795,796,798,801,801,802,804,807,808,807,806,804,804,804,804,804,804,804,804,804,804,804,804,804,804,804,804,804,804,804,804,804,804,804,804,800,798,785,768,758,750,740,686,667,654,643,635,626,615,611,607,607,605,590,566,562,557,548,542,538,537,535,534,529,527,523],"ymouse":[485,486,487,489,490,490,491,492,494,497,500,505,505,505,505,505,505,505,505,505,505,505,505,505,505,505,505,505,505,505,505,505,505,505,505,502,498,470,444,419,389,344,220,186,162,143,129,115,104,102,101,101,101,106,107,107,107,105,103,101,99,98,96,81,74,65],"timestamp_mouse":[1,21,43,60,80,101,122,140,161,180,200,220,242,261,281,301,321,341,360,380,400,422,440,460,480,501,520,541,560,581,602,620,640,662,680,701,721,741,760,781,800,821,842,860,880,900,921,942,961,981,1001,1021,1041,1061,1080,1100,1120,1142,1160,1181,1200,1220,1240,1262,1281,1301],"xSR":741.5,"ySR":469.95,"xT1":424.9,"yT1":0,"xT2":1058.1,"yT2":0,"toosoon":0,"cond_shown":"equaldotanddens","ratio_trial":250,"smaller_num":"3","larger_num":"12","correct_side":1,"subjID":"nicolas guillen 22","gender":"0","age":"9","school":"4"},{"start_time":1552074897242,"click_time":1552074898248,"finger_time":1552074897888,"fix_duration":250,"trial":46,"RT":646,"MT":360,"sideResp":1,"stimulus":"img/750/randomdotsizeEA/R/2_Ratio_750_L_6_R_8.png","xmouse":[787,787,787,787,787,787,787,787,787,787,787,787,787,787,787,787,787,787,787,787,787,787,787,787,787,787,787,787,787,787,782,765,735,664,607,537,532,532,532,532,532,532,532,524,515,494,481,474,473,475,486],"ymouse":[532,532,532,532,532,532,532,532,532,532,532,532,532,532,532,532,532,532,532,532,532,532,532,532,532,532,532,532,532,532,530,521,505,479,452,406,398,394,393,392,388,382,374,356,325,238,194,168,148,131,95],"timestamp_mouse":[12,34,47,67,86,106,126,146,166,186,206,226,246,266,286,307,327,346,365,385,406,426,447,467,486,505,525,547,565,586,605,626,646,665,685,706,726,745,766,786,805,827,847,866,885,906,926,945,965,986,1006],"xSR":741.5,"ySR":469.95,"xT1":424.9,"yT1":0,"xT2":1058.1,"yT2":0,"toosoon":0,"cond_shown":"randomdotsizeEA","ratio_trial":750,"smaller_num":"6","larger_num":"8","correct_side":2,"subjID":"nicolas guillen 22","gender":"0","age":"9","school":"4"},{"start_time":1552074904008,"click_time":1552074905750,"finger_time":1552074905008,"fix_duration":936.9362274471092,"trial":47,"RT":1000,"MT":742,"sideResp":1,"stimulus":"img/250/equaldotanddens/R/6_Ratio_250_L_6_R_24.png","xmouse":[786,786,786,786,786,786,786,786,786,786,786,786,786,786,786,786,786,786,786,786,786,786,786,786,786,786,786,786,786,786,786,786,786,786,786,786,786,786,786,786,786,786,786,786,786,786,786,786,785,778,767,747,720,692,683,677,669,655,650,647,646,645,645,644,642,640,636,635,629,626,623,620,612,601,597,588,571,555,533,531,530,530,530,530,530,529,528,522],"ymouse":[529,529,529,529,529,529,529,529,529,529,529,529,529,529,529,529,529,529,529,529,529,529,529,529,529,529,529,529,529,529,529,529,529,529,529,529,529,529,529,529,529,529,529,529,529,529,529,529,520,495,465,414,358,302,283,267,251,220,208,201,198,195,192,182,175,166,159,153,142,139,136,133,124,115,112,109,101,93,80,79,78,78,78,78,78,77,76,71],"timestamp_mouse":[9,20,43,61,79,100,120,140,161,181,202,219,241,261,281,300,320,341,361,379,399,420,440,461,479,500,521,541,559,579,600,620,640,660,680,701,721,740,759,781,801,820,839,861,880,899,921,941,960,980,1000,1019,1040,1059,1080,1099,1120,1141,1160,1180,1200,1219,1239,1259,1280,1300,1320,1340,1359,1379,1400,1420,1440,1460,1479,1500,1519,1539,1559,1579,1600,1619,1640,1659,1679,1700,1720,1742],"xSR":741.5,"ySR":469.95,"xT1":424.9,"yT1":0,"xT2":1058.1,"yT2":0,"toosoon":0,"cond_shown":"equaldotanddens","ratio_trial":250,"smaller_num":"6","larger_num":"24","correct_side":2,"subjID":"nicolas guillen 22","gender":"0","age":"9","school":"4"},{"start_time":1552074906900,"click_time":1552074910587,"finger_time":1552074908148,"fix_duration":331.1447437648224,"trial":48,"RT":1248,"MT":2439,"sideResp":1,"stimulus":"img/750/randomdotsizeEA/R/15_Ratio_750_L_9_R_12.png","xmouse":[787,787,787,787,787,787,787,787,787,787,787,787,787,787,787,787,787,787,787,787,787,791,795,795,795,795,795,795,795,795,795,795,789,785,784,784,784,784,779,773,771,771,771,770,771,772,772,772,768,764,763,762,762,762,767,769,769,769,769,769,758,747,736,722,703,700,700,700,700,700,700,700,700,700,700,700,700,700,700,700,700,700,700,700,700,700,700,700,700,700,700,700,700,700,700,700,700,700,700,700,700,700,700,700,700,700,700,700,700,700,700,700,700,700,700,700,700,700,700,700,700,700,700,700,700,700,700,700,700,700,700,700,700,700,700,700,700,700,700,700,700,700,700,700,700,700,700,700,700,700,699,688,664,624,620,620,620,620,620,620,625,636,619,597,614,636,636,636,636,636,636,636,636,636,643,610,601,598,596,590,583,573,565,543,506],"ymouse":[516,516,516,516,516,516,516,516,516,516,516,516,516,516,516,516,516,516,516,512,499,485,475,474,474,474,474,474,474,474,474,474,476,480,481,481,481,481,485,487,489,489,489,483,480,479,479,479,479,480,480,480,480,480,480,480,480,480,480,485,506,525,534,535,530,529,529,529,529,529,529,529,529,529,529,529,529,529,529,529,529,529,529,529,529,529,529,529,529,529,529,529,529,529,529,529,529,529,529,529,529,529,529,529,529,529,529,529,529,529,529,529,529,529,529,529,529,529,529,529,529,529,529,529,529,529,529,529,529,529,529,529,529,529,529,529,529,529,529,529,529,529,529,529,529,529,529,529,529,529,529,530,547,587,594,595,595,595,595,595,577,469,342,225,80,25,25,25,25,25,25,25,25,25,5,43,55,63,67,68,68,67,62,60,60],"timestamp_mouse":[10,39,47,68,89,108,129,148,167,188,208,228,248,269,289,307,327,347,369,387,408,428,448,468,489,509,527,547,568,587,608,628,647,667,687,708,729,747,767,788,808,827,848,867,889,909,929,947,967,988,1008,1029,1048,1068,1087,1107,1127,1148,1167,1188,1207,1228,1248,1267,1287,1307,1327,1349,1369,1389,1408,1428,1448,1469,1488,1507,1527,1547,1568,1588,1609,1628,1648,1669,1689,1708,1727,1747,1768,1789,1808,1828,1848,1867,1888,1907,1928,1947,1968,1988,2009,2028,2049,2068,2087,2108,2127,2149,2168,2187,2208,2227,2249,2268,2288,2309,2329,2349,2368,2388,2408,2427,2447,2469,2488,2508,2528,2548,2567,2587,2608,2628,2649,2667,2688,2708,2727,2748,2769,2788,2808,2827,2848,2867,2888,2908,2928,2949,2967,2987,3008,3027,3048,3068,3088,3108,3128,3149,3168,3187,3208,3229,3248,3268,3288,3308,3329,3348,3369,3388,3407,3428,3448,3468,3487,3507,3528,3547,3568,3587,3608,3628,3648,3669,3687],"xSR":741.5,"ySR":469.95,"xT1":424.9,"yT1":0,"xT2":1058.1,"yT2":0,"toosoon":0,"cond_shown":"randomdotsizeEA","ratio_trial":750,"smaller_num":"9","larger_num":"12","correct_side":2,"subjID":"nicolas guillen 22","gender":"0","age":"9","school":"4"},{"start_time":1552074911752,"click_time":1552074913069,"finger_time":1552074912547,"fix_duration":263.7878430885894,"trial":49,"RT":795,"MT":522,"sideResp":1,"stimulus":"img/750/equaldotsize/R/2_Ratio_750_L_6_R_8.png","xmouse":[806,806,806,806,806,806,806,806,806,806,806,806,806,806,806,806,806,806,806,806,806,806,806,806,806,806,806,806,806,806,806,806,806,806,806,806,806,793,773,754,726,700,692,689,687,679,674,665,655,648,632,624,611,590,563,529,438,407,387,383,383,386,392,402,416,432],"ymouse":[499,499,499,499,499,499,499,499,499,499,499,499,499,499,499,499,499,499,499,499,499,499,499,499,499,499,499,499,499,499,499,499,499,499,499,499,498,490,478,465,441,420,411,408,404,390,377,361,345,332,306,295,276,250,230,202,123,99,85,83,83,81,79,77,73,66],"timestamp_mouse":[15,37,55,77,95,116,137,155,176,196,216,235,255,277,297,316,336,355,376,395,415,436,457,475,496,516,537,555,576,595,617,637,656,677,696,715,735,756,776,795,815,835,856,875,896,917,936,955,975,996,1017,1035,1055,1076,1095,1117,1135,1155,1177,1197,1215,1235,1256,1275,1297,1317],"xSR":741.5,"ySR":469.95,"xT1":424.9,"yT1":0,"xT2":1058.1,"yT2":0,"toosoon":0,"cond_shown":"equaldotsize","ratio_trial":750,"smaller_num":"6","larger_num":"8","correct_side":2,"subjID":"nicolas guillen 22","gender":"0","age":"9","school":"4"},{"start_time":1552074917249,"click_time":1552074918068,"finger_time":1552074917488,"fix_duration":900.3864919142687,"trial":50,"RT":239,"MT":580,"sideResp":1,"stimulus":"img/250/equaldotsize/L/15_Ratio_250_L_12_R_3.png","xmouse":[787,787,787,787,787,785,784,782,780,779,778,778,778,774,769,763,741,721,692,658,630,595,589,587,585,581,575,552,541,534,533,533,533,533,532,531,530,529,517,506,495],"ymouse":[495,495,495,495,495,495,493,490,487,484,478,463,452,430,415,395,358,330,289,249,217,175,169,167,163,157,152,132,126,121,121,121,121,121,121,121,121,120,114,105,96],"timestamp_mouse":[20,40,59,79,99,119,138,159,180,199,220,239,259,278,300,319,339,358,378,398,419,439,459,479,499,518,538,558,579,598,618,638,659,680,699,719,739,759,780,799,819],"xSR":741.5,"ySR":469.95,"xT1":424.9,"yT1":0,"xT2":1058.1,"yT2":0,"toosoon":0,"cond_shown":"equaldotsize","ratio_trial":250,"smaller_num":"3","larger_num":"12","correct_side":1,"subjID":"nicolas guillen 22","gender":"0","age":"9","school":"4"},{"start_time":1552074921079,"click_time":1552074923767,"finger_time":1552074923429,"fix_duration":669.2800439304683,"trial":51,"RT":2350,"MT":338,"sideResp":1,"stimulus":"img/250/equaldotanddens/R/6_Ratio_250_L_6_R_24.png","xmouse":[811,811,811,811,811,811,811,811,811,811,811,811,811,811,811,811,811,811,811,811,811,811,811,811,811,811,811,811,811,811,811,811,811,811,811,811,811,811,811,811,811,811,811,811,811,811,811,811,811,811,811,811,811,811,811,811,811,811,811,811,811,811,811,811,811,811,811,811,811,811,811,811,811,811,811,811,811,811,811,811,811,811,811,811,811,811,811,811,811,811,811,811,811,811,811,811,811,811,811,811,811,811,811,811,811,811,811,811,811,811,811,811,811,811,811,811,812,829,850,857,851,830,813,793,772,757,752,751,750,742,714,632,584,545,523],"ymouse":[536,536,536,536,536,536,536,536,536,536,536,536,536,536,536,536,536,536,536,536,536,536,536,536,536,536,536,536,536,536,536,536,536,536,536,536,536,536,536,536,536,536,536,536,536,536,536,536,536,536,536,536,536,536,536,536,536,536,536,536,536,536,536,536,536,536,536,536,536,536,536,536,536,536,536,536,536,536,536,536,536,536,536,536,536,536,536,536,536,536,536,536,536,536,536,536,536,536,536,536,536,536,536,536,536,536,536,536,536,536,536,536,536,536,536,536,535,454,324,229,221,205,189,161,130,110,103,102,102,98,87,52,34,23,20],"timestamp_mouse":[20,37,49,69,89,108,130,148,168,190,210,228,248,268,290,309,328,348,368,390,410,430,448,470,490,508,529,549,570,589,608,628,649,669,688,708,728,749,769,790,808,830,848,868,888,910,929,950,969,990,1008,1028,1050,1069,1090,1110,1128,1150,1170,1190,1210,1228,1249,1269,1288,1310,1328,1350,1368,1389,1408,1429,1450,1469,1489,1510,1528,1548,1570,1590,1608,1629,1650,1669,1689,1710,1728,1750,1769,1788,1809,1830,1848,1869,1888,1909,1928,1950,1970,1990,2009,2030,2048,2069,2089,2108,2128,2149,2170,2188,2210,2229,2249,2270,2288,2310,2328,2350,2369,2388,2409,2429,2449,2469,2489,2509,2528,2548,2570,2589,2609,2630,2648,2669,2688],"xSR":741.5,"ySR":469.95,"xT1":424.9,"yT1":0,"xT2":1058.1,"yT2":0,"toosoon":0,"cond_shown":"equaldotanddens","ratio_trial":250,"smaller_num":"6","larger_num":"24","correct_side":2,"subjID":"nicolas guillen 22","gender":"0","age":"9","school":"4"},{"start_time":1552074926303,"click_time":1552074927191,"finger_time":1552074926828,"fix_duration":473.02213351390355,"trial":52,"RT":525,"MT":363,"sideResp":2,"stimulus":"img/250/randomdotsizeEA/L/1_Ratio_250_L_8_R_2.png","xmouse":[797,797,797,797,797,797,797,797,797,797,797,797,797,797,797,797,797,797,798,799,801,802,803,803,807,826,843,857,873,886,893,897,897,899,900,909,916,934,953,966,1009,1028,1044,1058,1071],"ymouse":[542,542,542,542,542,542,542,542,542,542,542,542,542,542,542,542,542,540,538,535,532,530,528,526,520,491,466,448,423,399,372,323,305,293,284,256,230,187,153,125,79,64,54,45,40],"timestamp_mouse":[9,38,44,66,86,105,126,145,166,186,205,226,244,266,285,306,326,344,365,384,405,426,444,465,486,504,525,544,564,585,605,625,646,664,684,708,727,747,767,787,807,827,847,867,888],"xSR":741.5,"ySR":469.95,"xT1":424.9,"yT1":0,"xT2":1058.1,"yT2":0,"toosoon":0,"cond_shown":"randomdotsizeEA","ratio_trial":250,"smaller_num":"2","larger_num":"8","correct_side":1,"subjID":"nicolas guillen 22","gender":"0","age":"9","school":"4"},{"start_time":1552074928815,"click_time":1552074929650,"finger_time":1552074929271,"fix_duration":803.8436777666316,"trial":53,"RT":456,"MT":379,"sideResp":1,"stimulus":"img/250/randomdotsizeEA/L/1_Ratio_250_L_8_R_2.png","xmouse":[785,784,784,784,784,784,784,784,784,784,784,784,784,784,784,784,784,784,784,784,777,757,730,696,632,614,602,596,590,586,569,560,549,540,537,537,537,534,527,522,497,490],"ymouse":[548,547,547,547,547,547,547,547,547,547,547,547,547,547,547,547,547,547,547,547,543,529,509,484,428,409,396,386,379,373,356,349,342,338,338,337,334,322,297,263,101,56],"timestamp_mouse":[20,36,56,75,94,116,136,155,176,196,215,236,256,276,295,316,335,355,376,396,415,435,456,475,496,516,536,556,575,596,615,635,656,676,697,715,735,755,775,794,815,835],"xSR":741.5,"ySR":469.95,"xT1":424.9,"yT1":0,"xT2":1058.1,"yT2":0,"toosoon":0,"cond_shown":"randomdotsizeEA","ratio_trial":250,"smaller_num":"2","larger_num":"8","correct_side":1,"subjID":"nicolas guillen 22","gender":"0","age":"9","school":"4"},{"start_time":1552074931266,"click_time":1552074932090,"finger_time":1552074931610,"fix_duration":635.4336817536731,"trial":54,"RT":344,"MT":480,"sideResp":1,"stimulus":"img/500/equaldotsize/R/1_Ratio_500_L_9_R_18.png","xmouse":[752,752,752,752,752,752,752,752,752,752,752,752,752,752,752,752,752,745,734,731,727,716,701,663,644,626,604,572,555,537,525,522,520,520,519,519,519,517,517,515,513,510],"ymouse":[486,486,486,486,486,486,486,486,486,486,486,486,486,486,486,480,472,450,437,435,431,421,408,376,357,335,304,257,232,212,199,192,187,185,184,181,178,151,138,123,110,99],"timestamp_mouse":[13,24,44,64,85,105,124,144,164,185,204,225,244,265,284,304,324,344,364,384,404,425,445,463,485,504,524,546,564,584,605,625,646,664,684,704,725,745,764,783,804,824],"xSR":741.5,"ySR":469.95,"xT1":424.9,"yT1":0,"xT2":1058.1,"yT2":0,"toosoon":0,"cond_shown":"equaldotsize","ratio_trial":500,"smaller_num":"9","larger_num":"18","correct_side":2,"subjID":"nicolas guillen 22","gender":"0","age":"9","school":"4"},{"start_time":1552074933341,"click_time":1552074934410,"finger_time":1552074933730,"fix_duration":250,"trial":55,"RT":389,"MT":680,"sideResp":1,"stimulus":"img/900/equaldotsize/L/10_Ratio_900_L_20_R_18.png","xmouse":[818,817,816,816,816,816,816,816,816,816,816,816,816,816,816,816,814,806,795,772,765,759,752,745,732,729,725,721,712,681,639,627,592,579,551,539,531,528,528,527,527,524,521,519,518,518,518,517,514,500,494,489,488,487],"ymouse":[515,516,516,516,516,516,516,516,516,516,516,516,516,516,516,516,515,502,486,454,441,430,416,404,390,387,384,377,365,325,283,270,247,237,217,209,203,201,201,199,192,182,173,163,148,143,138,133,126,110,105,101,101,98],"timestamp_mouse":[13,36,49,68,90,109,130,150,170,189,209,229,250,269,290,309,330,350,369,389,410,430,449,470,489,509,529,550,569,589,609,629,649,669,689,710,729,749,769,789,810,829,850,869,889,910,930,949,970,989,1009,1029,1050,1069],"xSR":741.5,"ySR":469.95,"xT1":424.9,"yT1":0,"xT2":1058.1,"yT2":0,"toosoon":0,"cond_shown":"equaldotsize","ratio_trial":900,"smaller_num":"18","larger_num":"20","correct_side":1,"subjID":"nicolas guillen 22","gender":"0","age":"9","school":"4"},{"start_time":1552074935562,"click_time":1552074936790,"finger_time":1552074936151,"fix_duration":250,"trial":56,"RT":589,"MT":639,"sideResp":1,"stimulus":"img/750/equaldotsize/R/5_Ratio_750_L_15_R_20.png","xmouse":[797,797,797,797,797,797,797,797,797,797,797,797,797,797,797,797,797,797,797,797,797,796,794,789,786,783,780,775,764,744,723,704,690,670,659,650,640,636,631,629,626,619,612,597,590,584,578,574,569,564,564,564,564,564,562,558,555,550,534,517,504,493],"ymouse":[535,535,535,535,535,535,535,535,535,535,535,535,535,535,535,535,535,535,535,535,535,533,528,522,519,515,512,504,476,435,401,373,354,324,313,306,299,296,292,290,284,276,265,239,221,204,191,181,167,160,160,160,160,160,158,156,153,147,125,110,102,94],"timestamp_mouse":[14,29,48,68,87,108,128,149,168,188,207,229,248,268,289,309,328,349,368,389,408,427,448,468,488,509,528,548,568,589,608,629,648,668,688,708,728,748,769,788,808,828,849,868,888,908,928,948,969,988,1008,1029,1049,1068,1087,1108,1128,1148,1169,1188,1208,1228],"xSR":741.5,"ySR":469.95,"xT1":424.9,"yT1":0,"xT2":1058.1,"yT2":0,"toosoon":0,"cond_shown":"equaldotsize","ratio_trial":750,"smaller_num":"15","larger_num":"20","correct_side":2,"subjID":"nicolas guillen 22","gender":"0","age":"9","school":"4"},{"start_time":1552074938123,"click_time":1552074939431,"finger_time":1552074938991,"fix_duration":250,"trial":57,"RT":868,"MT":440,"sideResp":1,"stimulus":"img/500/randomdotsizeEA/L/8_Ratio_500_L_8_R_4.png","xmouse":[817,817,817,815,815,814,813,813,813,813,813,813,813,813,813,813,813,813,813,813,813,813,813,813,813,813,813,813,813,813,813,813,813,813,813,813,813,813,813,810,806,779,763,749,724,684,610,597,590,586,581,578,578,574,571,565,565,565,565,564,559,553,543,536,527,503],"ymouse":[533,533,533,535,536,536,538,538,538,538,538,538,538,538,538,538,538,538,538,538,538,538,538,538,538,538,538,538,538,538,538,538,538,538,538,538,538,538,538,536,530,494,472,451,418,368,273,252,240,231,218,170,148,126,100,72,67,63,62,61,61,61,65,68,73,86],"timestamp_mouse":[10,33,46,68,86,108,128,148,166,187,208,228,247,266,288,308,328,348,368,387,407,427,447,468,486,506,528,547,568,588,606,628,648,668,688,707,728,748,768,788,807,827,847,868,887,908,927,948,967,988,1008,1027,1047,1067,1088,1108,1127,1148,1167,1187,1209,1226,1247,1267,1287,1308],"xSR":741.5,"ySR":469.95,"xT1":424.9,"yT1":0,"xT2":1058.1,"yT2":0,"toosoon":0,"cond_shown":"randomdotsizeEA","ratio_trial":500,"smaller_num":"4","larger_num":"8","correct_side":1,"subjID":"nicolas guillen 22","gender":"0","age":"9","school":"4"},{"start_time":1552074941722,"click_time":1552074942430,"finger_time":1552074942130,"fix_duration":1089.9681566743952,"trial":58,"RT":408,"MT":300,"sideResp":1,"stimulus":"img/750/randomdotsizeEA/R/3_Ratio_750_L_15_R_20.png","xmouse":[777,777,777,777,777,777,777,777,777,777,777,777,777,777,777,777,777,777,777,774,769,762,758,755,752,750,744,733,710,690,658,594,570,551,535,521],"ymouse":[484,484,484,484,484,484,484,484,484,484,484,484,484,484,484,484,484,484,484,482,469,430,404,376,349,329,300,283,249,216,179,93,69,59,56,56],"timestamp_mouse":[12,44,48,68,89,108,128,148,169,189,209,229,249,268,289,308,328,349,368,389,408,428,448,469,489,508,528,548,568,588,608,628,648,669,688,708],"xSR":741.5,"ySR":469.95,"xT1":424.9,"yT1":0,"xT2":1058.1,"yT2":0,"toosoon":0,"cond_shown":"randomdotsizeEA","ratio_trial":750,"smaller_num":"15","larger_num":"20","correct_side":2,"subjID":"nicolas guillen 22","gender":"0","age":"9","school":"4"},{"start_time":1552074944119,"click_time":1552074944990,"finger_time":1552074944391,"fix_duration":667.2464893928128,"trial":59,"RT":272,"MT":599,"sideResp":1,"stimulus":"img/250/randomdotsizeEA/R/11_Ratio_250_L_3_R_12.png","xmouse":[775,775,775,775,775,775,775,775,775,771,764,752,745,734,725,708,645,614,599,590,581,555,551,549,548,546,543,532,522,510,508,508,507,506,506,506,506,506,506,504,500,497,496,495],"ymouse":[555,555,555,555,555,555,555,555,552,546,537,524,515,504,489,463,365,322,307,297,285,255,243,230,219,208,195,158,137,131,124,117,112,110,110,110,110,110,110,110,108,104,102,99],"timestamp_mouse":[11,33,51,71,91,112,131,152,171,192,211,231,251,272,291,311,331,351,371,392,411,431,451,471,491,511,531,551,571,591,611,631,650,671,692,712,731,751,771,792,812,831,851,871],"xSR":741.5,"ySR":469.95,"xT1":424.9,"yT1":0,"xT2":1058.1,"yT2":0,"toosoon":0,"cond_shown":"randomdotsizeEA","ratio_trial":250,"smaller_num":"3","larger_num":"12","correct_side":2,"subjID":"nicolas guillen 22","gender":"0","age":"9","school":"4"},{"start_time":1552074946939,"click_time":1552074947670,"finger_time":1552074947330,"fix_duration":1226.7358489741337,"trial":60,"RT":391,"MT":340,"sideResp":1,"stimulus":"img/750/equaldotanddens/R/3_Ratio_750_L_15_R_20.png","xmouse":[776,775,775,775,775,775,775,775,775,775,775,775,775,775,775,775,762,750,742,740,740,740,740,739,739,737,734,729,721,701,623,587,562,542,526,498,487],"ymouse":[541,541,541,536,534,534,534,534,534,534,534,534,534,532,530,529,509,498,494,493,493,493,493,492,490,452,429,392,340,282,193,169,151,139,128,106,95],"timestamp_mouse":[13,45,51,71,91,112,131,151,172,192,211,232,251,271,291,311,332,351,372,391,412,431,451,471,492,512,531,551,571,592,612,631,651,671,691,712,731],"xSR":741.5,"ySR":469.95,"xT1":424.9,"yT1":0,"xT2":1058.1,"yT2":0,"toosoon":0,"cond_shown":"equaldotanddens","ratio_trial":750,"smaller_num":"15","larger_num":"20","correct_side":2,"subjID":"nicolas guillen 22","gender":"0","age":"9","school":"4"},{"start_time":1552074950278,"click_time":1552074951690,"finger_time":1552074951590,"fix_duration":284.36517974831696,"trial":61,"RT":1312,"MT":100,"sideResp":1,"stimulus":"img/500/randomdotsizeEA/L/10_Ratio_500_L_4_R_2.png","xmouse":[805,805,805,805,805,805,805,805,805,805,805,805,805,805,805,805,805,805,805,805,805,805,805,805,805,805,805,805,805,805,805,805,805,805,805,805,805,805,805,805,805,805,805,805,805,805,805,805,805,805,805,805,805,805,805,805,805,805,805,805,805,805,805,805,804,791,756,679,629,540,500],"ymouse":[512,512,512,512,512,512,512,512,512,512,512,512,512,512,512,512,512,512,512,512,512,512,512,512,512,512,512,512,512,512,512,512,512,512,512,512,512,512,512,512,512,512,512,512,512,512,512,512,512,512,512,512,512,512,512,512,512,512,512,512,512,512,512,510,483,444,380,264,193,109,83],"timestamp_mouse":[13,39,53,72,93,112,133,152,172,193,213,233,253,272,293,312,333,353,373,393,412,433,453,472,493,513,532,553,572,592,613,632,652,673,692,713,733,753,772,793,813,832,852,872,893,912,933,951,973,993,1012,1032,1053,1073,1093,1112,1132,1153,1173,1193,1211,1233,1252,1272,1291,1312,1332,1353,1372,1392,1412],"xSR":741.5,"ySR":469.95,"xT1":424.9,"yT1":0,"xT2":1058.1,"yT2":0,"toosoon":0,"cond_shown":"randomdotsizeEA","ratio_trial":500,"smaller_num":"2","larger_num":"4","correct_side":1,"subjID":"nicolas guillen 22","gender":"0","age":"9","school":"4"},{"start_time":1552074952842,"click_time":1552074954371,"finger_time":1552074953530,"fix_duration":250,"trial":62,"RT":688,"MT":841,"sideResp":1,"stimulus":"img/500/equaldotanddens/L/13_Ratio_500_L_12_R_6.png","xmouse":[830,830,830,830,830,830,830,830,830,830,830,830,830,830,830,830,830,830,830,830,830,830,830,830,830,830,830,830,829,826,808,788,753,708,663,614,608,608,608,608,608,607,605,604,601,599,595,595,592,589,584,584,584,584,584,581,581,579,578,578,563,556,550,546,542,540,540,539,539,539,539,538,536,530,527,520],"ymouse":[530,530,530,530,530,530,530,530,530,530,530,530,530,530,530,530,530,530,530,530,530,530,530,530,530,530,530,530,530,530,523,508,482,447,413,366,347,339,333,326,317,314,308,302,293,284,261,239,223,208,166,146,127,111,103,98,98,98,98,98,100,102,103,104,105,106,106,106,106,106,106,106,106,103,102,99],"timestamp_mouse":[12,48,68,87,109,128,148,169,188,209,228,248,268,288,308,328,348,369,388,409,428,448,469,489,509,529,548,568,589,608,628,648,669,688,709,728,748,768,789,808,828,847,868,888,909,929,949,968,988,1008,1028,1048,1068,1087,1109,1129,1149,1168,1