[{"start_time":1552073881104,"click_time":1552073883426,"finger_time":1552073883345,"fix_duration":415.26555109039464,"trial":0,"RT":2241,"MT":81,"sideResp":2,"stimulus":[],"xmouse":[789,789,789,788,788,788,788,783,779,760,750,749,749,749,749,749,749,749,749,749,749,749,749,749,749,749,749,749,749,750,750,750,750,750,751,752,753,753,753,753,753,753,753,753,753,753,753,753,753,753,753,753,753,753,753,753,753,753,753,753,753,753,753,753,753,753,753,753,753,753,753,753,753,753,753,753,753,753,753,753,753,753,753,753,753,753,753,753,753,753,753,753,753,753,753,753,753,753,753,753,753,753,753,753,753,753,753,753,753,753,784,824,875,935,991,1101,1152],"ymouse":[507,507,507,507,507,508,508,515,520,534,541,542,542,542,542,542,542,542,542,542,540,538,537,537,537,536,536,534,534,533,532,531,530,529,526,523,523,523,523,523,523,523,523,523,523,523,523,523,523,523,523,523,523,523,523,523,523,523,523,523,523,523,523,523,523,523,523,523,523,523,523,523,523,523,523,523,523,523,523,523,523,523,523,523,523,523,523,523,523,523,523,523,523,523,523,523,523,523,523,523,523,523,523,523,523,523,523,523,523,522,509,484,439,365,281,120,47],"timestamp_mouse":[9,33,40,61,80,100,120,140,160,181,200,220,240,261,280,300,320,341,361,381,400,421,440,461,481,500,521,541,561,581,600,621,641,661,681,701,721,740,760,781,801,821,841,861,880,901,920,941,960,980,1000,1020,1041,1060,1081,1101,1120,1140,1160,1180,1201,1220,1240,1260,1281,1301,1321,1341,1360,1380,1400,1421,1440,1460,1481,1500,1520,1540,1560,1581,1601,1620,1640,1660,1681,1701,1721,1741,1761,1781,1801,1821,1841,1860,1880,1901,1921,1940,1961,1981,2001,2022,2041,2060,2080,2100,2121,2141,2160,2180,2200,2220,2241,2260,2280,2300,2321],"xSR":741.5,"ySR":469.95,"xT1":424.9,"yT1":0,"xT2":1058.1,"yT2":0,"toosoon":0,"cond_shown":"Congruent","ratio_trial":300,"L_num":3,"L_den":6,"R_num":2,"R_den":10,"correct_side":1,"subjID":"Nicolas Guillen Alarcon 22","gender":"0","age":"9","school":"4","test":{"fix_dur":[250,1500],"timestim":1000,"targets_dim":[100,100],"targets_relative_coord":[0.3,0.7],"size_stim":[880,420],"start_dim":[100,100],"size_start":[300,300],"size_fix":60,"samplingrate":20,"img_types":["Congruent","Incongruent"],"ratios":[100,200,300],"rep_conds":19,"nTrials":120,"trials_to_rest":500,"Trials_order":[34,15,21,106,100,25,51,103,50,112,64,23,8,32,105,63,90,83,56,44,89,94,78,17,91,45,9,5,80,71,47,37,14,46,88,92,39,6,81,58,35,55,70,104,4,19,52,60,62,48,113,42,49,119,76,40,53,38,93,114,61,26,18,7,1,110,118,3,20,24,28,65,98,74,33,31,115,13,69,109,85,99,86,87,111,79,66,117,27,16,84,82,12,11,36,54,59,10,43,68,116,30,96,41,102,97,95,75,57,22,108,2,67,73,101,107,72,0,29,77],"cond_shown":["Congruent","Incongruent","Incongruent","Congruent","Congruent","Incongruent","Incongruent","Incongruent","Congruent","Congruent","Congruent","Incongruent","Congruent","Congruent","Incongruent","Incongruent","Congruent","Incongruent","Congruent","Congruent","Incongruent","Congruent","Congruent","Incongruent","Incongruent","Incongruent","Incongruent","Incongruent","Congruent","Incongruent","Incongruent","Incongruent","Congruent","Congruent","Congruent","Congruent","Incongruent","Congruent","Incongruent","Congruent","Incongruent","Incongruent","Congruent","Congruent","Congruent","Incongruent","Congruent","Congruent","Congruent","Congruent","Incongruent","Congruent","Incongruent","Incongruent","Congruent","Congruent","Incongruent","Congruent","Incongruent","Congruent","Incongruent","Congruent","Congruent","Incongruent","Incongruent","Congruent","Congruent","Incongruent","Congruent","Congruent","Congruent","Incongruent","Congruent","Congruent","Incongruent","Incongruent","Incongruent","Incongruent","Incongruent","Incongruent","Incongruent","Incongruent","Congruent","Incongruent","Incongruent","Incongruent","Congruent","Incongruent","Incongruent","Congruent","Congruent","Congruent","Congruent","Incongruent","Congruent","Congruent","Incongruent","Congruent","Incongruent","Congruent","Congruent","Congruent","Congruent","Incongruent","Congruent","Incongruent","Incongruent","Incongruent","Incongruent","Congruent","Congruent","Congruent","Incongruent","Incongruent","Incongruent","Incongruent","Congruent","Congruent","Incongruent","Incongruent"],"ratio_trial":[300,200,200,300,300,100,200,100,200,300,300,300,200,200,200,200,100,300,200,200,300,300,100,300,100,200,200,300,200,300,300,100,200,300,300,200,200,100,200,300,300,100,300,200,300,100,300,100,200,100,300,100,100,300,300,300,300,200,200,100,100,200,100,100,100,200,300,200,200,100,300,300,200,200,200,100,100,100,200,100,100,200,200,200,200,100,100,200,200,300,100,300,100,300,100,100,300,300,100,200,200,100,100,300,100,100,300,200,200,300,100,200,100,100,300,300,100,100,300,300],"left_num":[3,7,7,2,2,9,1,9,7,3,2,4,4,13,9,9,1,7,9,6,8,4,10,4,6,4,9,13,6,13,1,10,8,1,5,12,9,10,4,4,1,6,1,9,4,6,20,3,7,10,8,6,10,4,1,1,13,5,6,4,1,16,15,6,13,3,5,3,12,4,20,4,4,1,7,11,9,9,7,11,1,7,3,3,11,4,2,7,7,1,15,2,3,2,11,12,2,4,9,1,16,11,1,4,9,17,13,14,3,20,8,16,10,6,4,8,2,8,1,1],"right_num":[2,12,14,12,10,20,2,20,18,2,12,2,3,14,8,8,18,8,4,3,14,2,3,2,7,14,8,12,7,12,2,9,3,6,7,6,8,3,6,2,2,3,6,13,1,13,14,2,18,3,14,15,9,6,8,3,12,14,3,15,8,9,13,13,6,14,7,11,6,15,9,2,3,21,6,9,14,20,6,9,8,6,14,1,3,8,6,8,14,19,13,10,4,6,4,13,6,1,14,21,9,6,18,2,8,10,12,12,11,14,2,12,9,3,2,14,6,2,3,2],"left_den":[6,10,10,10,20,10,3,10,15,6,10,20,8,26,15,15,2,10,20,15,10,5,25,20,10,6,15,26,12,26,2,25,15,5,25,15,15,25,5,5,2,12,5,30,10,10,25,6,15,25,10,12,25,5,30,5,26,10,20,10,2,30,25,10,26,6,25,4,20,10,25,20,10,2,15,22,15,10,15,22,2,15,6,10,20,8,5,10,10,3,25,20,20,4,22,30,4,10,15,2,30,22,2,20,15,30,26,30,4,25,16,20,25,12,20,10,5,16,2,2],"right_den":[10,24,28,24,25,25,15,25,27,10,24,4,10,20,10,10,30,20,16,15,28,4,10,4,14,30,10,15,10,15,10,18,9,12,14,10,10,10,10,4,10,5,12,26,10,26,28,5,27,10,28,25,18,12,24,6,15,20,6,30,20,27,26,26,10,20,14,20,15,30,18,4,15,30,9,15,28,25,9,15,20,9,20,2,4,20,12,16,28,30,26,25,16,30,10,26,30,10,28,30,27,15,30,4,16,15,15,18,20,28,5,20,18,5,4,28,12,5,15,10],"correct_side":[1,1,1,2,2,1,1,1,2,1,2,2,1,2,2,2,2,1,1,1,1,1,1,2,1,1,2,2,2,2,1,2,1,2,2,1,2,1,1,1,1,2,2,2,1,1,1,1,2,1,1,2,2,1,2,2,2,2,2,2,1,1,1,1,2,2,2,1,1,2,1,2,1,2,2,2,1,1,2,2,1,2,2,2,2,1,2,1,1,2,1,2,2,1,1,2,1,1,1,2,1,1,2,2,1,2,2,2,1,1,1,1,2,2,2,1,2,1,1,1],"img_shown":["img2/300/Congruent/L/C_Dist_300_LN_3_LD_6_RN_2_RD_10_0.png","img2/200/Incongruent/L/I_Dist_200_LN_7_LD_10_RN_12_RD_24_0.png","img2/200/Incongruent/L/I_Dist_200_LN_7_LD_10_RN_14_RD_28_0.png","img2/300/Congruent/R/C_Dist_300_LN_2_LD_10_RN_12_RD_24_1.png","img2/300/Congruent/R/C_Dist_300_LN_2_LD_20_RN_10_RD_25_1.png","img2/100/Incongruent/L/I_Dist_100_LN_9_LD_10_RN_20_RD_25_0.png","img2/200/Incongruent/L/I_Dist_200_LN_1_LD_3_RN_2_RD_15_0.png","img2/100/Incongruent/L/I_Dist_100_LN_9_LD_10_RN_20_RD_25_0.png","img2/200/Congruent/R/C_Dist_200_LN_7_LD_15_RN_18_RD_27_1.png","img2/300/Congruent/L/C_Dist_300_LN_3_LD_6_RN_2_RD_10_0.png","img2/300/Congruent/R/C_Dist_300_LN_2_LD_10_RN_12_RD_24_1.png","img2/300/Incongruent/R/I_Dist_300_LN_4_LD_20_RN_2_RD_4_1.png","img2/200/Congruent/L/C_Dist_200_LN_4_LD_8_RN_3_RD_10_0.png","img2/200/Congruent/R/C_Dist_200_LN_13_LD_26_RN_14_RD_20_1.png","img2/200/Incongruent/R/I_Dist_200_LN_9_LD_15_RN_8_RD_10_1.png","img2/200/Incongruent/R/I_Dist_200_LN_9_LD_15_RN_8_RD_10_1.png","img2/100/Congruent/R/C_Dist_100_LN_1_LD_2_RN_18_RD_30_1.png","img2/300/Incongruent/L/I_Dist_300_LN_7_LD_10_RN_8_RD_20_0.png","img2/200/Congruent/L/C_Dist_200_LN_9_LD_20_RN_4_RD_16_0.png","img2/200/Congruent/L/C_Dist_200_LN_6_LD_15_RN_3_RD_15_0.png","img2/300/Incongruent/L/I_Dist_300_LN_8_LD_10_RN_14_RD_28_0.png","img2/300/Congruent/L/C_Dist_300_LN_4_LD_5_RN_2_RD_4_0.png","img2/100/Congruent/L/C_Dist_100_LN_10_LD_25_RN_3_RD_10_0.png","img2/300/Incongruent/R/I_Dist_300_LN_4_LD_20_RN_2_RD_4_1.png","img2/100/Incongruent/L/I_Dist_100_LN_6_LD_10_RN_7_RD_14_0.png","img2/200/Incongruent/L/I_Dist_200_LN_4_LD_6_RN_14_RD_30_0.png","img2/200/Incongruent/R/I_Dist_200_LN_9_LD_15_RN_8_RD_10_1.png","img2/300/Incongruent/R/I_Dist_300_LN_13_LD_26_RN_12_RD_15_1.png","img2/200/Congruent/R/C_Dist_200_LN_6_LD_12_RN_7_RD_10_1.png","img2/300/Incongruent/R/I_Dist_300_LN_13_LD_26_RN_12_RD_15_1.png","img2/300/Incongruent/L/I_Dist_300_LN_1_LD_2_RN_2_RD_10_0.png","img2/100/Incongruent/R/I_Dist_100_LN_10_LD_25_RN_9_RD_18_1.png","img2/200/Congruent/L/C_Dist_200_LN_8_LD_15_RN_3_RD_9_0.png","img2/300/Congruent/R/C_Dist_300_LN_1_LD_5_RN_6_RD_12_1.png","img2/300/Congruent/R/C_Dist_300_LN_5_LD_25_RN_7_RD_14_1.png","img2/200/Congruent/L/C_Dist_200_LN_12_LD_15_RN_6_RD_10_0.png","img2/200/Incongruent/R/I_Dist_200_LN_9_LD_15_RN_8_RD_10_1.png","img2/100/Congruent/L/C_Dist_100_LN_10_LD_25_RN_3_RD_10_0.png","img2/200/Incongruent/L/I_Dist_200_LN_4_LD_5_RN_6_RD_10_0.png","img2/300/Congruent/L/C_Dist_300_LN_4_LD_5_RN_2_RD_4_0.png","img2/300/Incongruent/L/I_Dist_300_LN_1_LD_2_RN_2_RD_10_0.png","img2/100/Incongruent/R/I_Dist_100_LN_6_LD_12_RN_3_RD_5_1.png","img2/300/Congruent/R/C_Dist_300_LN_1_LD_5_RN_6_RD_12_1.png","img2/200/Congruent/R/C_Dist_200_LN_9_LD_30_RN_13_RD_26_1.png","img2/300/Congruent/L/C_Dist_300_LN_4_LD_10_RN_1_RD_10_0.png","img2/100/Incongruent/L/I_Dist_100_LN_6_LD_10_RN_13_RD_26_0.png","img2/300/Congruent/L/C_Dist_300_LN_20_LD_25_RN_14_RD_28_0.png","img2/100/Congruent/L/C_Dist_100_LN_3_LD_6_RN_2_RD_5_0.png","img2/200/Congruent/R/C_Dist_200_LN_7_LD_15_RN_18_RD_27_1.png","img2/100/Congruent/L/C_Dist_100_LN_10_LD_25_RN_3_RD_10_0.png","img2/300/Incongruent/L/I_Dist_300_LN_8_LD_10_RN_14_RD_28_0.png","img2/100/Congruent/R/C_Dist_100_LN_6_LD_12_RN_15_RD_25_1.png","img2/100/Incongruent/R/I_Dist_100_LN_10_LD_25_RN_9_RD_18_1.png","img2/300/Incongruent/L/I_Dist_300_LN_4_LD_5_RN_6_RD_12_0.png","img2/300/Congruent/R/C_Dist_300_LN_1_LD_30_RN_8_RD_24_1.png","img2/300/Congruent/R/C_Dist_300_LN_1_LD_5_RN_3_RD_6_1.png","img2/300/Incongruent/R/I_Dist_300_LN_13_LD_26_RN_12_RD_15_1.png","img2/200/Congruent/R/C_Dist_200_LN_5_LD_10_RN_14_RD_20_1.png","img2/200/Incongruent/R/I_Dist_200_LN_6_LD_20_RN_3_RD_6_1.png","img2/100/Congruent/R/C_Dist_100_LN_4_LD_10_RN_15_RD_30_1.png","img2/100/Incongruent/L/I_Dist_100_LN_1_LD_2_RN_8_RD_20_0.png","img2/200/Congruent/L/C_Dist_200_LN_16_LD_30_RN_9_RD_27_0.png","img2/100/Congruent/L/C_Dist_100_LN_15_LD_25_RN_13_RD_26_0.png","img2/100/Incongruent/L/I_Dist_100_LN_6_LD_10_RN_13_RD_26_0.png","img2/100/Incongruent/R/I_Dist_100_LN_13_LD_26_RN_6_RD_10_1.png","img2/200/Congruent/R/C_Dist_200_LN_3_LD_6_RN_14_RD_20_1.png","img2/300/Congruent/R/C_Dist_300_LN_5_LD_25_RN_7_RD_14_1.png","img2/200/Incongruent/L/I_Dist_200_LN_3_LD_4_RN_11_RD_20_0.png","img2/200/Congruent/L/C_Dist_200_LN_12_LD_20_RN_6_RD_15_0.png","img2/100/Congruent/R/C_Dist_100_LN_4_LD_10_RN_15_RD_30_1.png","img2/300/Congruent/L/C_Dist_300_LN_20_LD_25_RN_9_RD_18_0.png","img2/300/Incongruent/R/I_Dist_300_LN_4_LD_20_RN_2_RD_4_1.png","img2/200/Congruent/L/C_Dist_200_LN_4_LD_10_RN_3_RD_15_0.png","img2/200/Congruent/R/C_Dist_200_LN_1_LD_2_RN_21_RD_30_1.png","img2/200/Incongruent/R/I_Dist_200_LN_7_LD_15_RN_6_RD_9_1.png","img2/100/Incongruent/R/I_Dist_100_LN_11_LD_22_RN_9_RD_15_1.png","img2/100/Incongruent/L/I_Dist_100_LN_9_LD_15_RN_14_RD_28_0.png","img2/100/Incongruent/L/I_Dist_100_LN_9_LD_10_RN_20_RD_25_0.png","img2/200/Incongruent/R/I_Dist_200_LN_7_LD_15_RN_6_RD_9_1.png","img2/100/Incongruent/R/I_Dist_100_LN_11_LD_22_RN_9_RD_15_1.png","img2/100/Incongruent/L/I_Dist_100_LN_1_LD_2_RN_8_RD_20_0.png","img2/200/Incongruent/R/I_Dist_200_LN_7_LD_15_RN_6_RD_9_1.png","img2/200/Congruent/R/C_Dist_200_LN_3_LD_6_RN_14_RD_20_1.png","img2/200/Incongruent/R/I_Dist_200_LN_3_LD_10_RN_1_RD_2_1.png","img2/200/Incongruent/R/I_Dist_200_LN_11_LD_20_RN_3_RD_4_1.png","img2/100/Incongruent/L/I_Dist_100_LN_4_LD_8_RN_8_RD_20_0.png","img2/100/Congruent/R/C_Dist_100_LN_2_LD_5_RN_6_RD_12_1.png","img2/200/Incongruent/L/I_Dist_200_LN_7_LD_10_RN_8_RD_16_0.png","img2/200/Incongruent/L/I_Dist_200_LN_7_LD_10_RN_14_RD_28_0.png","img2/300/Congruent/R/C_Dist_300_LN_1_LD_3_RN_19_RD_30_1.png","img2/100/Congruent/L/C_Dist_100_LN_15_LD_25_RN_13_RD_26_0.png","img2/300/Congruent/R/C_Dist_300_LN_2_LD_20_RN_10_RD_25_1.png","img2/100/Congruent/R/C_Dist_100_LN_3_LD_20_RN_4_RD_16_1.png","img2/300/Incongruent/L/I_Dist_300_LN_2_LD_4_RN_6_RD_30_0.png","img2/100/Congruent/L/C_Dist_100_LN_11_LD_22_RN_4_RD_10_0.png","img2/100/Congruent/R/C_Dist_100_LN_12_LD_30_RN_13_RD_26_1.png","img2/300/Incongruent/L/I_Dist_300_LN_2_LD_4_RN_6_RD_30_0.png","img2/300/Congruent/L/C_Dist_300_LN_4_LD_10_RN_1_RD_10_0.png","img2/100/Incongruent/L/I_Dist_100_LN_9_LD_15_RN_14_RD_28_0.png","img2/200/Congruent/R/C_Dist_200_LN_1_LD_2_RN_21_RD_30_1.png","img2/200/Congruent/L/C_Dist_200_LN_16_LD_30_RN_9_RD_27_0.png","img2/100/Congruent/L/C_Dist_100_LN_11_LD_22_RN_6_RD_15_0.png","img2/100/Congruent/R/C_Dist_100_LN_1_LD_2_RN_18_RD_30_1.png","img2/300/Incongruent/R/I_Dist_300_LN_4_LD_20_RN_2_RD_4_1.png","img2/100/Congruent/L/C_Dist_100_LN_9_LD_15_RN_8_RD_16_0.png","img2/100/Incongruent/R/I_Dist_100_LN_17_LD_30_RN_10_RD_15_1.png","img2/300/Incongruent/R/I_Dist_300_LN_13_LD_26_RN_12_RD_15_1.png","img2/200/Incongruent/R/I_Dist_200_LN_14_LD_30_RN_12_RD_18_1.png","img2/200/Incongruent/L/I_Dist_200_LN_3_LD_4_RN_11_RD_20_0.png","img2/300/Congruent/L/C_Dist_300_LN_20_LD_25_RN_14_RD_28_0.png","img2/100/Congruent/L/C_Dist_100_LN_8_LD_16_RN_2_RD_5_0.png","img2/200/Congruent/L/C_Dist_200_LN_16_LD_20_RN_12_RD_20_0.png","img2/100/Incongruent/R/I_Dist_100_LN_10_LD_25_RN_9_RD_18_1.png","img2/100/Incongruent/R/I_Dist_100_LN_6_LD_12_RN_3_RD_5_1.png","img2/300/Incongruent/R/I_Dist_300_LN_4_LD_20_RN_2_RD_4_1.png","img2/300/Incongruent/L/I_Dist_300_LN_8_LD_10_RN_14_RD_28_0.png","img2/100/Congruent/R/C_Dist_100_LN_2_LD_5_RN_6_RD_12_1.png","img2/100/Congruent/L/C_Dist_100_LN_8_LD_16_RN_2_RD_5_0.png","img2/300/Incongruent/L/I_Dist_300_LN_1_LD_2_RN_3_RD_15_0.png","img2/300/Incongruent/L/I_Dist_300_LN_1_LD_2_RN_2_RD_10_0.png"],"dist100_C":[["C_Dist_100_LN_10_LD_25_RN_3_RD_10_0.png","C_Dist_100_LN_11_LD_22_RN_4_RD_10_0.png","C_Dist_100_LN_11_LD_22_RN_6_RD_15_0.png","C_Dist_100_LN_15_LD_25_RN_13_RD_26_0.png","C_Dist_100_LN_3_LD_6_RN_2_RD_5_0.png","C_Dist_100_LN_6_LD_20_RN_5_RD_25_0.png","C_Dist_100_LN_8_LD_16_RN_2_RD_5_0.png","C_Dist_100_LN_9_LD_15_RN_8_RD_16_0.png"],["C_Dist_100_LN_1_LD_2_RN_18_RD_30_1.png","C_Dist_100_LN_1_LD_2_RN_3_RD_5_1.png","C_Dist_100_LN_12_LD_30_RN_13_RD_26_1.png","C_Dist_100_LN_2_LD_5_RN_11_RD_22_1.png","C_Dist_100_LN_2_LD_5_RN_6_RD_12_1.png","C_Dist_100_LN_3_LD_20_RN_4_RD_16_1.png","C_Dist_100_LN_4_LD_10_RN_15_RD_30_1.png","C_Dist_100_LN_4_LD_8_RN_6_RD_10_1.png","C_Dist_100_LN_6_LD_12_RN_15_RD_25_1.png","C_Dist_100_LN_7_LD_14_RN_15_RD_25_1.png","C_Dist_100_LN_7_LD_14_RN_9_RD_15_1.png"]],"dist100_I":[["I_Dist_100_LN_1_LD_2_RN_8_RD_20_0.png","I_Dist_100_LN_2_LD_4_RN_6_RD_15_0.png","I_Dist_100_LN_2_LD_4_RN_8_RD_20_0.png","I_Dist_100_LN_3_LD_5_RN_11_RD_22_0.png","I_Dist_100_LN_3_LD_5_RN_8_RD_16_0.png","I_Dist_100_LN_3_LD_6_RN_4_RD_10_0.png","I_Dist_100_LN_3_LD_9_RN_7_RD_30_0.png","I_Dist_100_LN_4_LD_8_RN_8_RD_20_0.png","I_Dist_100_LN_6_LD_10_RN_11_RD_22_0.png","I_Dist_100_LN_6_LD_10_RN_13_RD_26_0.png","I_Dist_100_LN_6_LD_10_RN_7_RD_14_0.png","I_Dist_100_LN_9_LD_10_RN_20_RD_25_0.png","I_Dist_100_LN_9_LD_15_RN_13_RD_26_0.png","I_Dist_100_LN_9_LD_15_RN_14_RD_28_0.png"],["I_Dist_100_LN_10_LD_25_RN_8_RD_16_1.png","I_Dist_100_LN_10_LD_25_RN_9_RD_18_1.png","I_Dist_100_LN_11_LD_22_RN_9_RD_15_1.png","I_Dist_100_LN_12_LD_24_RN_9_RD_15_1.png","I_Dist_100_LN_12_LD_30_RN_2_RD_4_1.png","I_Dist_100_LN_13_LD_26_RN_12_RD_20_1.png","I_Dist_100_LN_13_LD_26_RN_6_RD_10_1.png","I_Dist_100_LN_17_LD_30_RN_10_RD_15_1.png","I_Dist_100_LN_6_LD_12_RN_3_RD_5_1.png","I_Dist_100_LN_8_LD_16_RN_6_RD_10_1.png","I_Dist_100_LN_8_LD_20_RN_1_RD_2_1.png","I_Dist_100_LN_9_LD_18_RN_6_RD_10_1.png"]],"dist100_S":[["E_Dist_100_LN_2_LD_12_RN_2_RD_30_0.png","E_Dist_100_LN_6_LD_10_RN_6_RD_12_0.png"],["E_Dist_100_LN_6_LD_12_RN_6_RD_10_1.png"]],"dist200_C":[["C_Dist_200_LN_11_LD_22_RN_3_RD_10_0.png","C_Dist_200_LN_12_LD_15_RN_6_RD_10_0.png","C_Dist_200_LN_12_LD_20_RN_6_RD_15_0.png","C_Dist_200_LN_14_LD_28_RN_6_RD_20_0.png","C_Dist_200_LN_15_LD_25_RN_4_RD_10_0.png","C_Dist_200_LN_16_LD_20_RN_12_RD_20_0.png","C_Dist_200_LN_16_LD_30_RN_9_RD_27_0.png","C_Dist_200_LN_20_LD_25_RN_9_RD_15_0.png","C_Dist_200_LN_21_LD_30_RN_2_RD_4_0.png","C_Dist_200_LN_4_LD_10_RN_3_RD_15_0.png","C_Dist_200_LN_4_LD_8_RN_3_RD_10_0.png","C_Dist_200_LN_6_LD_15_RN_3_RD_15_0.png","C_Dist_200_LN_7_LD_21_RN_2_RD_15_0.png","C_Dist_200_LN_8_LD_15_RN_2_RD_6_0.png","C_Dist_200_LN_8_LD_15_RN_3_RD_9_0.png","C_Dist_200_LN_8_LD_15_RN_7_RD_21_0.png","C_Dist_200_LN_9_LD_20_RN_4_RD_16_0.png"],["C_Dist_200_LN_1_LD_2_RN_21_RD_30_1.png","C_Dist_200_LN_13_LD_26_RN_14_RD_20_1.png","C_Dist_200_LN_3_LD_10_RN_11_RD_22_1.png","C_Dist_200_LN_3_LD_10_RN_14_RD_28_1.png","C_Dist_200_LN_3_LD_10_RN_7_RD_14_1.png","C_Dist_200_LN_3_LD_12_RN_9_RD_20_1.png","C_Dist_200_LN_3_LD_6_RN_14_RD_20_1.png","C_Dist_200_LN_5_LD_10_RN_14_RD_20_1.png","C_Dist_200_LN_6_LD_12_RN_7_RD_10_1.png","C_Dist_200_LN_6_LD_20_RN_11_RD_22_1.png","C_Dist_200_LN_7_LD_15_RN_18_RD_27_1.png","C_Dist_200_LN_9_LD_30_RN_13_RD_26_1.png"]],"dist200_I":[["I_Dist_200_LN_1_LD_2_RN_3_RD_10_0.png","I_Dist_200_LN_1_LD_3_RN_2_RD_15_0.png","I_Dist_200_LN_3_LD_4_RN_11_RD_20_0.png","I_Dist_200_LN_4_LD_5_RN_6_RD_10_0.png","I_Dist_200_LN_4_LD_6_RN_14_RD_30_0.png","I_Dist_200_LN_7_LD_10_RN_12_RD_24_0.png","I_Dist_200_LN_7_LD_10_RN_14_RD_28_0.png","I_Dist_200_LN_7_LD_10_RN_8_RD_16_0.png"],["I_Dist_200_LN_11_LD_20_RN_3_RD_4_1.png","I_Dist_200_LN_14_LD_30_RN_12_RD_18_1.png","I_Dist_200_LN_14_LD_30_RN_6_RD_9_1.png","I_Dist_200_LN_3_LD_10_RN_1_RD_2_1.png","I_Dist_200_LN_4_LD_30_RN_1_RD_3_1.png","I_Dist_200_LN_6_LD_20_RN_3_RD_6_1.png","I_Dist_200_LN_7_LD_15_RN_4_RD_6_1.png","I_Dist_200_LN_7_LD_15_RN_6_RD_9_1.png","I_Dist_200_LN_9_LD_15_RN_8_RD_10_1.png"]],"dist200_S":[["E_Dist_200_LN_3_LD_6_RN_3_RD_10_0.png"],["E_Dist_200_LN_3_LD_10_RN_3_RD_6_1.png"]],"dist300_C":[["C_Dist_300_LN_11_LD_22_RN_1_RD_5_0.png","C_Dist_300_LN_11_LD_22_RN_2_RD_10_0.png","C_Dist_300_LN_11_LD_22_RN_4_RD_20_0.png","C_Dist_300_LN_12_LD_24_RN_2_RD_10_0.png","C_Dist_300_LN_18_LD_20_RN_9_RD_15_0.png","C_Dist_300_LN_20_LD_25_RN_13_RD_26_0.png","C_Dist_300_LN_20_LD_25_RN_14_RD_28_0.png","C_Dist_300_LN_20_LD_25_RN_5_RD_10_0.png","C_Dist_300_LN_20_LD_25_RN_8_RD_16_0.png","C_Dist_300_LN_20_LD_25_RN_9_RD_18_0.png","C_Dist_300_LN_24_LD_30_RN_2_RD_4_0.png","C_Dist_300_LN_24_LD_30_RN_8_RD_16_0.png","C_Dist_300_LN_3_LD_6_RN_2_RD_10_0.png","C_Dist_300_LN_4_LD_10_RN_1_RD_10_0.png","C_Dist_300_LN_4_LD_5_RN_2_RD_4_0.png","C_Dist_300_LN_8_LD_16_RN_1_RD_5_0.png","C_Dist_300_LN_9_LD_10_RN_3_RD_5_0.png"],["C_Dist_300_LN_1_LD_20_RN_7_RD_20_1.png","C_Dist_300_LN_1_LD_3_RN_19_RD_30_1.png","C_Dist_300_LN_1_LD_30_RN_8_RD_24_1.png","C_Dist_300_LN_1_LD_5_RN_11_RD_22_1.png","C_Dist_300_LN_1_LD_5_RN_3_RD_6_1.png","C_Dist_300_LN_1_LD_5_RN_6_RD_12_1.png","C_Dist_300_LN_2_LD_10_RN_12_RD_24_1.png","C_Dist_300_LN_2_LD_20_RN_10_RD_25_1.png","C_Dist_300_LN_3_LD_12_RN_11_RD_20_1.png","C_Dist_300_LN_3_LD_6_RN_4_RD_5_1.png","C_Dist_300_LN_4_LD_20_RN_13_RD_26_1.png","C_Dist_300_LN_5_LD_25_RN_6_RD_12_1.png","C_Dist_300_LN_5_LD_25_RN_7_RD_14_1.png","C_Dist_300_LN_7_LD_14_RN_20_RD_25_1.png","C_Dist_300_LN_8_LD_15_RN_10_RD_12_1.png"]],"dist300_I":[["I_Dist_300_LN_1_LD_2_RN_2_RD_10_0.png","I_Dist_300_LN_1_LD_2_RN_3_RD_15_0.png","I_Dist_300_LN_2_LD_4_RN_6_RD_30_0.png","I_Dist_300_LN_3_LD_6_RN_4_RD_20_0.png","I_Dist_300_LN_4_LD_5_RN_6_RD_12_0.png","I_Dist_300_LN_4_LD_5_RN_8_RD_16_0.png","I_Dist_300_LN_7_LD_10_RN_8_RD_20_0.png","I_Dist_300_LN_8_LD_10_RN_14_RD_28_0.png","I_Dist_300_LN_8_LD_10_RN_9_RD_18_0.png"],["I_Dist_300_LN_13_LD_26_RN_12_RD_15_1.png","I_Dist_300_LN_4_LD_20_RN_2_RD_4_1.png"]],"dist300_S":[["E_Dist_300_LN_9_LD_12_RN_9_RD_20_0.png"],["E_Dist_300_LN_18_LD_30_RN_18_RD_20_1.png","E_Dist_300_LN_3_LD_10_RN_3_RD_5_1.png","E_Dist_300_LN_9_LD_20_RN_9_RD_12_1.png"]],"dist500_C":[["C_Dist_500_LN_10_LD_13_RN_7_RD_26_0.png","C_Dist_500_LN_10_LD_15_RN_4_RD_24_0.png","C_Dist_500_LN_12_LD_16_RN_3_RD_12_0.png","C_Dist_500_LN_12_LD_18_RN_4_RD_24_0.png","C_Dist_500_LN_15_LD_18_RN_5_RD_15_0.png","C_Dist_500_LN_15_LD_20_RN_1_RD_4_0.png","C_Dist_500_LN_18_LD_27_RN_1_RD_6_0.png","C_Dist_500_LN_20_LD_24_RN_1_RD_3_0.png","C_Dist_500_LN_20_LD_24_RN_3_RD_9_0.png","C_Dist_500_LN_20_LD_24_RN_7_RD_21_0.png","C_Dist_500_LN_20_LD_28_RN_3_RD_14_0.png","C_Dist_500_LN_21_LD_28_RN_6_RD_24_0.png","C_Dist_500_LN_22_LD_28_RN_2_RD_7_0.png","C_Dist_500_LN_25_LD_30_RN_9_RD_27_0.png","C_Dist_500_LN_4_LD_6_RN_1_RD_6_0.png","C_Dist_500_LN_5_LD_6_RN_2_RD_6_0.png","C_Dist_500_LN_6_LD_9_RN_1_RD_6_0.png","C_Dist_500_LN_7_LD_10_RN_1_RD_5_0.png","C_Dist_500_LN_8_LD_12_RN_1_RD_6_0.png","C_Dist_500_LN_8_LD_12_RN_4_RD_24_0.png"],["C_Dist_500_LN_1_LD_4_RN_12_RD_16_1.png","C_Dist_500_LN_1_LD_4_RN_9_RD_12_1.png","C_Dist_500_LN_1_LD_9_RN_11_RD_18_1.png","C_Dist_500_LN_10_LD_24_RN_22_RD_24_1.png","C_Dist_500_LN_2_LD_12_RN_10_RD_15_1.png","C_Dist_500_LN_2_LD_12_RN_12_RD_18_1.png","C_Dist_500_LN_2_LD_12_RN_4_RD_6_1.png","C_Dist_500_LN_2_LD_24_RN_7_RD_12_1.png","C_Dist_500_LN_2_LD_5_RN_18_RD_20_1.png","C_Dist_500_LN_2_LD_5_RN_9_RD_10_1.png","C_Dist_500_LN_2_LD_8_RN_12_RD_16_1.png","C_Dist_500_LN_2_LD_8_RN_21_RD_28_1.png","C_Dist_500_LN_3_LD_10_RN_4_RD_5_1.png","C_Dist_500_LN_3_LD_12_RN_15_RD_20_1.png","C_Dist_500_LN_3_LD_30_RN_6_RD_10_1.png","C_Dist_500_LN_3_LD_8_RN_14_RD_16_1.png","C_Dist_500_LN_4_LD_16_RN_15_RD_20_1.png","C_Dist_500_LN_4_LD_24_RN_12_RD_18_1.png","C_Dist_500_LN_5_LD_14_RN_6_RD_7_1.png","C_Dist_500_LN_7_LD_21_RN_20_RD_24_1.png","C_Dist_500_LN_7_LD_28_RN_12_RD_16_1.png","C_Dist_500_LN_7_LD_28_RN_9_RD_12_1.png","C_Dist_500_LN_9_LD_27_RN_20_RD_24_1.png"]],"dist500_I":[["I_Dist_500_LN_2_LD_3_RN_4_RD_24_0.png","I_Dist_500_LN_5_LD_6_RN_6_RD_18_0.png","I_Dist_500_LN_7_LD_8_RN_9_RD_24_0.png"],["I_Dist_500_LN_7_LD_21_RN_5_RD_6_1.png"]],"dist500_S":[["E_Dist_500_LN_6_LD_8_RN_6_RD_24_0.png"],["E_Dist_500_LN_2_LD_12_RN_2_RD_3_1.png","E_Dist_500_LN_6_LD_24_RN_6_RD_8_1.png"]]}},{"start_time":1552073886706,"click_time":1552073888465,"finger_time":1552073888045,"fix_duration":1479.3175327102463,"trial":1,"RT":1339,"MT":420,"sideResp":2,"stimulus":[],"xmouse":[805,804,804,803,802,801,801,801,801,801,801,801,801,801,801,801,801,801,801,801,801,801,801,801,801,801,801,801,801,801,801,801,801,801,801,801,801,801,801,801,801,801,801,801,801,801,801,801,801,801,801,801,801,801,801,801,801,801,801,801,801,801,801,801,807,815,829,842,867,906,926,943,959,978,1033,1067,1097,1119,1129,1129,1129,1129,1129,1129,1129,1129,1129,1129],"ymouse":[507,508,508,510,511,511,511,511,511,511,511,511,511,511,511,511,511,511,511,511,511,511,511,511,511,511,511,511,511,511,511,511,511,511,511,511,511,511,511,511,511,511,511,511,511,511,511,511,511,511,511,511,511,511,511,511,511,511,511,511,511,511,511,510,497,480,457,433,400,369,355,340,316,285,201,167,141,123,109,100,100,100,100,100,100,100,100,99],"timestamp_mouse":[18,49,58,78,98,118,138,158,178,198,219,239,258,278,298,318,338,359,379,399,419,438,458,478,499,519,538,558,579,598,619,638,658,679,698,719,739,759,778,799,818,838,859,879,898,919,939,958,979,998,1018,1038,1058,1079,1098,1118,1139,1158,1178,1198,1218,1239,1259,1278,1298,1318,1339,1359,1378,1399,1418,1439,1459,1478,1499,1518,1539,1558,1579,1599,1619,1639,1658,1678,1698,1719,1738,1758],"xSR":741.5,"ySR":469.95,"xT1":424.9,"yT1":0,"xT2":1058.1,"yT2":0,"toosoon":0,"cond_shown":"Incongruent","ratio_trial":200,"L_num":7,"L_den":10,"R_num":12,"R_den":24,"correct_side":1,"subjID":"Nicolas Guillen Alarcon 22","gender":"0","school":"4","age":"9"},{"start_time":1552073890577,"click_time":1552073891484,"finger_time":1552073891005,"fix_duration":671.9471421390421,"trial":2,"RT":428,"MT":479,"sideResp":1,"stimulus":[],"xmouse":[778,778,778,778,778,778,778,777,777,777,777,777,777,777,775,774,772,771,770,769,769,764,744,663,579,491,357,310,279,258,249,246,249,256,264,276,291,321,336,357,384,421,421,421,424,427],"ymouse":[521,521,521,521,521,521,521,521,521,521,521,521,521,521,519,514,508,493,488,483,478,458,431,357,305,250,170,136,112,92,74,66,52,45,44,44,44,54,60,67,78,90,90,90,90,90],"timestamp_mouse":[14,27,48,68,87,107,127,148,168,187,208,227,248,268,288,307,327,347,368,388,407,428,447,467,487,507,529,547,567,587,608,627,647,667,688,707,727,747,767,787,808,829,847,867,888,907],"xSR":741.5,"ySR":469.95,"xT1":424.9,"yT1":0,"xT2":1058.1,"yT2":0,"toosoon":0,"cond_shown":"Incongruent","ratio_trial":200,"L_num":7,"L_den":10,"R_num":14,"R_den":28,"correct_side":1,"subjID":"Nicolas Guillen Alarcon 22","gender":"0","school":"4","age":"9"},{"start_time":1552073892878,"click_time":1552073894824,"finger_time":1552073894324,"fix_duration":250,"trial":3,"RT":1446,"MT":500,"sideResp":2,"stimulus":[],"xmouse":[794,794,794,794,794,794,794,794,794,794,794,794,794,794,794,794,794,794,794,794,794,794,794,794,794,794,794,794,794,794,794,794,794,794,794,794,794,794,794,794,794,794,794,794,794,794,794,794,794,794,794,794,794,794,794,794,794,794,794,794,794,794,794,794,794,794,794,794,794,794,803,809,849,874,911,962,1025,1183,1219,1232,1237,1237,1237,1235,1229,1220,1215,1207,1205,1203,1200,1193,1182,1178,1175,1173,1168,1144],"ymouse":[519,519,519,519,519,519,519,519,519,519,519,519,519,519,519,519,519,519,519,519,519,519,519,519,519,519,519,519,519,519,519,519,519,519,519,519,519,519,519,519,519,519,519,519,519,519,519,519,519,519,519,519,519,519,519,519,519,519,519,519,519,519,519,519,519,519,519,519,519,519,510,503,464,433,396,352,305,198,163,141,125,120,120,119,119,119,119,119,119,119,115,110,100,96,93,89,84,70],"timestamp_mouse":[10,26,50,67,87,107,126,146,167,187,206,227,246,266,287,307,327,346,367,386,407,427,446,466,487,507,527,546,567,587,607,627,646,666,687,707,727,747,767,786,806,828,847,866,886,906,927,947,966,986,1007,1026,1046,1067,1087,1107,1127,1147,1166,1186,1206,1227,1247,1266,1287,1307,1327,1347,1366,1387,1407,1426,1446,1467,1487,1506,1526,1546,1567,1586,1606,1627,1647,1666,1687,1707,1727,1746,1767,1786,1806,1827,1846,1866,1886,1906,1926,1946],"xSR":741.5,"ySR":469.95,"xT1":424.9,"yT1":0,"xT2":1058.1,"yT2":0,"toosoon":0,"cond_shown":"Congruent","ratio_trial":300,"L_num":2,"L_den":10,"R_num":12,"R_den":24,"correct_side":2,"subjID":"Nicolas Guillen Alarcon 22","gender":"0","school":"4","age":"9"},{"start_time":1552073896549,"click_time":1552073897585,"finger_time":1552073897505,"fix_duration":623.5195408951449,"trial":4,"RT":956,"MT":80,"sideResp":2,"stimulus":[],"xmouse":[798,798,798,798,798,798,798,798,798,798,798,798,798,798,798,798,798,798,798,798,798,798,798,798,798,798,798,798,798,798,798,798,798,798,798,798,798,798,798,798,798,798,798,798,799,804,817,857,987,1037,1069,1104],"ymouse":[517,517,517,517,517,517,517,517,517,517,517,517,517,517,517,517,517,517,517,517,517,517,517,517,517,517,517,517,517,517,517,517,517,517,517,517,517,517,517,517,517,517,517,517,517,511,496,449,284,203,133,53],"timestamp_mouse":[16,48,56,75,95,116,136,156,175,195,215,236,255,276,295,315,336,355,375,397,416,436,456,476,495,516,536,556,575,596,616,636,655,675,696,715,736,756,775,796,816,836,856,875,895,916,936,956,975,995,1015,1036],"xSR":741.5,"ySR":469.95,"xT1":424.9,"yT1":0,"xT2":1058.1,"yT2":0,"toosoon":0,"cond_shown":"Congruent","ratio_trial":300,"L_num":2,"L_den":20,"R_num":10,"R_den":25,"correct_side":2,"subjID":"Nicolas Guillen Alarcon 22","gender":"0","school":"4","age":"9"},{"start_time":1552073899648,"click_time":1552073902126,"finger_time":1552073901804,"fix_duration":1103.0527013905016,"trial":5,"RT":2156,"MT":322,"sideResp":1,"stimulus":[],"xmouse":[820,820,820,820,820,820,820,820,820,820,820,820,820,820,820,820,820,820,820,820,820,820,820,820,820,820,820,820,820,820,820,820,820,820,820,820,820,820,820,820,820,820,820,820,820,820,820,820,820,820,820,820,820,820,820,820,820,820,820,820,820,820,820,820,820,820,820,820,820,820,820,820,820,820,820,820,820,820,820,820,820,820,820,820,820,820,820,820,820,820,820,820,820,820,820,820,820,820,820,820,820,820,820,820,819,817,810,771,705,550,502,487,484,483,483,481,478,476,474,473,474,481,485,493],"ymouse":[511,511,511,511,511,511,511,511,511,511,511,511,511,511,511,511,511,510,510,510,510,510,510,510,510,510,510,510,510,510,510,510,510,510,510,510,510,510,510,510,510,510,510,510,510,510,510,510,510,510,510,510,510,510,510,510,510,510,510,510,510,510,510,510,510,510,510,510,510,510,510,510,510,510,510,510,510,510,510,510,510,510,510,510,510,510,510,510,510,510,510,510,510,510,510,510,510,510,510,510,510,510,510,510,503,490,473,441,407,329,310,301,299,299,299,297,291,283,270,226,195,175,149,94],"timestamp_mouse":[16,44,56,76,96,117,136,157,176,196,216,236,256,277,296,316,337,356,377,396,416,437,456,477,496,517,536,556,577,596,617,636,656,677,696,717,736,757,777,797,816,837,856,877,897,916,937,956,977,997,1016,1037,1056,1077,1096,1117,1136,1156,1177,1196,1217,1237,1257,1277,1297,1317,1337,1357,1376,1397,1417,1437,1457,1477,1497,1516,1537,1557,1577,1597,1616,1636,1656,1676,1696,1716,1736,1757,1776,1797,1817,1836,1857,1877,1897,1917,1937,1957,1977,1996,2017,2036,2057,2077,2096,2117,2137,2156,2177,2196,2218,2236,2256,2276,2296,2316,2337,2357,2376,2396,2417,2436,2456,2477],"xSR":741.5,"ySR":469.95,"xT1":424.9,"yT1":0,"xT2":1058.1,"yT2":0,"toosoon":0,"cond_shown":"Incongruent","ratio_trial":100,"L_num":9,"L_den":10,"R_num":20,"R_den":25,"correct_side":1,"subjID":"Nicolas Guillen Alarcon 22","gender":"0","school":"4","age":"9"},{"start_time":1552073905857,"click_time":1552073907565,"finger_time":1552073907425,"fix_duration":731.1229859292797,"trial":6,"RT":1568,"MT":140,"sideResp":2,"stimulus":[],"xmouse":[780,780,780,780,780,780,780,780,780,780,780,780,780,780,780,780,780,780,780,780,780,780,780,780,780,780,780,780,780,780,780,780,780,780,780,780,780,780,780,780,780,780,780,780,780,780,780,780,780,780,780,780,780,780,780,780,780,780,780,780,780,780,780,780,780,780,780,780,780,780,780,780,780,780,780,780,786,798,816,836,890,927,980,1016,1051,1114],"ymouse":[518,518,518,518,518,518,518,518,518,518,518,518,518,518,518,518,518,518,518,518,518,518,518,518,518,518,518,518,518,518,518,518,518,518,518,518,518,518,518,518,518,518,518,518,518,518,518,518,518,518,518,518,518,518,518,518,518,518,518,518,518,518,518,518,518,518,518,518,518,518,518,518,518,518,518,518,505,489,465,436,361,302,219,160,108,15],"timestamp_mouse":[12,31,48,67,88,107,128,148,168,187,208,227,248,267,287,307,328,347,367,388,408,428,449,468,488,508,527,547,568,588,608,629,647,667,687,707,727,748,768,787,808,828,847,867,887,908,928,948,968,987,1007,1028,1047,1068,1087,1107,1127,1148,1167,1187,1208,1228,1248,1268,1287,1308,1329,1348,1368,1387,1408,1428,1447,1468,1487,1508,1528,1548,1568,1588,1607,1627,1647,1668,1687,1708],"xSR":741.5,"ySR":469.95,"xT1":424.9,"yT1":0,"xT2":1058.1,"yT2":0,"toosoon":0,"cond_shown":"Incongruent","ratio_trial":200,"L_num":1,"L_den":3,"R_num":2,"R_den":15,"correct_side":1,"subjID":"Nicolas Guillen Alarcon 22","gender":"0","school":"4","age":"9"},{"start_time":1552073909638,"click_time":1552073911086,"finger_time":1552073910865,"fix_duration":1172.1300569136604,"trial":7,"RT":1227,"MT":221,"sideResp":1,"stimulus":[],"xmouse":[776,776,776,776,776,776,776,776,776,776,776,776,776,776,776,776,776,776,776,776,776,776,776,776,776,776,776,776,776,776,776,776,776,776,776,776,776,776,776,776,776,776,776,776,776,776,776,776,776,776,776,776,776,776,776,776,776,776,773,768,754,735,725,703,666,608,470,434,423,419,419,440,452],"ymouse":[497,497,497,497,497,494,485,485,485,485,485,485,485,485,485,485,485,485,485,485,485,485,485,485,485,485,485,485,485,485,485,485,485,485,485,485,485,485,485,485,485,485,485,485,485,485,485,485,485,485,485,485,485,485,485,485,485,485,484,480,470,445,431,417,388,344,223,189,168,151,138,104,98],"timestamp_mouse":[12,41,47,67,86,106,127,146,166,187,207,226,247,267,287,307,326,346,367,387,407,426,447,467,486,506,527,546,567,586,606,627,647,666,687,706,727,747,767,786,806,827,846,867,887,906,927,946,967,987,1006,1026,1047,1066,1086,1106,1127,1146,1166,1187,1207,1226,1247,1266,1287,1306,1326,1346,1367,1387,1406,1426,1448],"xSR":741.5,"ySR":469.95,"xT1":424.9,"yT1":0,"xT2":1058.1,"yT2":0,"toosoon":0,"cond_shown":"Incongruent","ratio_trial":100,"L_num":9,"L_den":10,"R_num":20,"R_den":25,"correct_side":1,"subjID":"Nicolas Guillen Alarcon 22","gender":"0","school":"4","age":"9"},{"start_time":1552073913306,"click_time":1552073916985,"finger_time":1552073915265,"fix_duration":1019.3690833680108,"trial":8,"RT":1959,"MT":1720,"sideResp":2,"stimulus":[],"xmouse":[778,778,778,778,778,778,778,778,778,778,778,778,778,778,778,778,778,778,778,778,778,778,778,778,778,778,778,778,778,778,778,778,778,778,778,778,778,778,778,778,778,778,778,778,778,778,778,778,778,778,778,778,778,778,778,778,778,778,778,778,778,778,778,778,778,778,778,778,778,778,778,778,778,778,778,778,778,778,777,776,774,774,774,774,774,774,774,774,774,774,774,774,775,784,788,801,810,827,833,839,844,848,852,854,858,861,865,872,876,881,885,891,903,907,912,918,921,927,931,937,943,948,953,960,965,968,970,976,978,981,984,987,990,992,994,999,1002,1009,1013,1017,1021,1024,1032,1037,1045,1049,1054,1064,1067,1070,1072,1073,1077,1079,1080,1082,1085,1086,1089,1089,1089,1090,1090,1090,1090,1090,1090,1090,1090,1090,1090,1090,1090,1090,1090,1090,1090,1090,1090,1090,1090,1090,1090,1091],"ymouse":[538,538,538,538,538,538,538,538,538,538,538,538,538,538,538,538,538,538,538,538,538,538,538,538,538,538,538,538,538,538,538,538,538,538,538,538,538,538,538,538,538,538,538,538,538,538,538,538,538,538,538,538,538,538,538,538,538,538,538,538,538,538,538,538,538,538,538,538,538,538,538,538,538,538,538,538,538,538,534,531,527,526,526,526,526,526,526,526,526,526,526,525,518,504,499,482,472,452,445,439,432,429,425,424,423,420,417,413,408,404,401,396,382,377,371,362,359,347,342,334,327,318,311,302,295,292,289,282,279,275,271,267,261,256,252,247,242,231,226,220,215,211,199,192,181,175,168,154,149,145,140,137,130,126,123,119,113,110,104,103,102,101,101,101,101,101,101,101,101,101,101,101,101,101,101,101,101,101,101,101,101,101,100,98],"timestamp_mouse":[19,40,58,78,98,118,139,159,179,198,218,239,258,279,299,319,339,358,379,399,418,439,458,479,499,519,538,558,578,598,618,638,658,679,699,719,738,758,779,799,820,838,858,878,899,919,938,958,979,999,1020,1039,1058,1078,1099,1118,1138,1158,1178,1198,1219,1239,1259,1279,1299,1318,1338,1360,1378,1399,1419,1439,1459,1479,1500,1519,1539,1560,1578,1598,1618,1638,1659,1679,1698,1718,1739,1758,1779,1799,1818,1838,1858,1879,1898,1919,1938,1959,1978,1998,2019,2038,2060,2078,2098,2118,2139,2159,2178,2198,2219,2238,2259,2278,2298,2318,2339,2359,2378,2398,2418,2438,2459,2478,2498,2518,2538,2558,2578,2599,2619,2638,2659,2678,2699,2719,2738,2760,2778,2798,2819,2839,2860,2878,2899,2919,2938,2959,2978,2998,3019,3038,3059,3078,3098,3118,3139,3158,3179,3198,3218,3238,3258,3279,3299,3318,3339,3359,3378,3398,3418,3439,3459,3479,3498,3519,3539,3559,3578,3599,3619,3639,3659,3679],"xSR":741.5,"ySR":469.95,"xT1":424.9,"yT1":0,"xT2":1058.1,"yT2":0,"toosoon":0,"cond_shown":"Congruent","ratio_trial":200,"L_num":7,"L_den":15,"R_num":18,"R_den":27,"correct_side":2,"subjID":"Nicolas Guillen Alarcon 22","gender":"0","school":"4","age":"9"},{"start_time":1552073921144,"click_time":1552073923105,"finger_time":1552073922484,"fix_duration":436.18370261370177,"trial":9,"RT":1340,"MT":621,"sideResp":1,"stimulus":[],"xmouse":[785,785,785,785,785,785,785,785,785,785,785,785,785,785,785,785,785,785,785,785,785,785,785,785,785,785,785,785,785,785,785,785,785,785,785,785,785,785,785,785,785,785,785,785,785,785,785,785,785,785,785,785,785,785,785,785,785,785,785,785,785,785,785,785,785,785,781,767,754,742,733,724,708,692,677,664,653,644,642,638,630,600,434,331,262,227,217,217,220,222,228,239,277,301,324,349,373,418,432],"ymouse":[505,505,505,505,505,505,505,505,505,505,505,505,505,505,505,505,505,505,505,505,505,505,505,505,505,505,505,505,505,505,505,505,505,505,505,505,505,505,505,505,505,505,505,505,505,505,505,505,505,505,505,505,505,505,505,505,505,505,505,505,505,505,505,505,505,496,488,456,433,410,389,364,310,274,242,212,188,173,170,166,162,149,115,83,58,42,35,32,31,29,28,27,27,27,27,27,27,28,31],"timestamp_mouse":[10,20,40,60,80,101,121,141,161,180,201,220,240,261,280,301,321,341,360,381,400,421,441,460,481,500,521,541,561,580,601,620,640,661,680,701,720,741,761,781,800,821,840,861,880,900,920,940,961,981,1000,1020,1040,1061,1080,1100,1120,1140,1161,1181,1201,1222,1241,1261,1281,1300,1320,1340,1360,1380,1400,1420,1441,1460,1480,1501,1521,1541,1560,1580,1600,1621,1640,1660,1680,1700,1722,1741,1760,1780,1800,1820,1841,1860,1880,1900,1920,1942,1960],"xSR":741.5,"ySR":469.95,"xT1":424.9,"yT1":0,"xT2":1058.1,"yT2":0,"toosoon":0,"cond_shown":"Congruent","ratio_trial":300,"L_num":3,"L_den":6,"R_num":2,"R_den":10,"correct_side":1,"subjID":"Nicolas Guillen Alarcon 22","gender":"0","school":"4","age":"9"},{"start_time":1552073924641,"click_time":1552073926424,"finger_time":1552073925985,"fix_duration":574.7027766052294,"trial":10,"RT":1344,"MT":439,"sideResp":2,"stimulus":[],"xmouse":[789,789,789,789,789,789,789,789,789,789,789,789,791,792,792,793,793,793,793,793,793,793,793,793,793,793,793,793,793,793,793,793,793,793,793,793,793,793,793,793,793,793,793,793,793,793,793,793,793,793,793,793,793,793,793,793,793,793,793,793,793,793,793,793,793,794,801,814,869,895,911,921,926,952,978,999,1025,1051,1080,1084,1084,1086,1088,1096,1100,1100,1101,1103,1106,1110],"ymouse":[500,500,500,500,500,500,500,500,500,499,498,496,493,492,491,489,487,486,486,486,486,486,486,486,486,486,486,486,486,486,486,486,486,486,486,486,486,486,486,486,486,486,486,486,486,486,486,486,486,486,486,486,486,486,486,486,486,486,486,486,486,486,486,486,486,483,474,454,395,369,352,340,330,287,255,233,213,195,173,169,166,161,158,147,138,133,127,112,103,93],"timestamp_mouse":[13,23,43,63,83,104,123,143,164,183,204,223,244,264,283,303,324,344,364,383,403,424,443,470,484,504,523,544,564,583,604,624,643,663,683,704,723,743,764,784,804,823,843,865,883,903,924,944,963,983,1003,1023,1044,1064,1083,1103,1124,1144,1163,1183,1203,1223,1244,1263,1284,1303,1323,1344,1363,1383,1403,1423,1445,1463,1483,1504,1523,1544,1565,1584,1604,1624,1644,1663,1683,1703,1723,1744,1764,1783],"xSR":741.5,"ySR":469.95,"xT1":424.9,"yT1":0,"xT2":1058.1,"yT2":0,"toosoon":0,"cond_shown":"Congruent","ratio_trial":300,"L_num":2,"L_den":10,"R_num":12,"R_den":24,"correct_side":2,"subjID":"Nicolas Guillen Alarcon 22","gender":"0","school":"4","age":"9"},{"start_time":1552073927693,"click_time":1552073929344,"finger_time":1552073929204,"fix_duration":286.76428127698904,"trial":11,"RT":1511,"MT":140,"sideResp":1,"stimulus":[],"xmouse":[802,802,802,802,802,802,802,802,801,801,801,801,801,801,801,801,801,801,801,801,801,801,801,801,801,801,801,801,801,801,801,801,801,801,801,801,801,801,801,801,801,801,801,801,801,801,801,801,801,801,801,801,801,801,801,801,801,801,800,797,789,788,788,788,788,788,788,788,788,788,788,784,776,768,756,723,700,674,652,625,547,512,488],"ymouse":[551,551,551,551,551,551,550,550,550,550,550,550,550,550,550,550,550,550,550,550,550,550,550,550,550,550,550,550,550,550,550,550,550,550,550,550,550,550,550,550,550,550,550,550,550,550,550,550,550,550,550,550,550,550,550,550,550,550,550,548,543,543,542,542,542,542,542,542,542,542,542,536,525,514,500,458,425,391,356,318,175,113,62],"timestamp_mouse":[14,43,51,72,93,112,131,151,172,193,211,232,252,272,291,312,332,352,371,392,412,431,452,471,492,512,531,551,571,592,612,631,652,671,692,711,731,752,771,791,812,832,851,871,892,911,932,952,972,991,1012,1032,1051,1072,1091,1112,1131,1152,1172,1191,1211,1232,1251,1272,1291,1311,1333,1352,1371,1391,1411,1432,1451,1471,1491,1511,1531,1551,1571,1591,1611,1631,1651],"xSR":741.5,"ySR":469.95,"xT1":424.9,"yT1":0,"xT2":1058.1,"yT2":0,"toosoon":0,"cond_shown":"Incongruent","ratio_trial":300,"L_num":4,"L_den":20,"R_num":2,"R_den":4,"correct_side":2,"subjID":"Nicolas Guillen Alarcon 22","gender":"0","school":"4","age":"9"},{"start_time":1552073932746,"click_time":1552073934544,"finger_time":1552073934185,"fix_duration":939.6751977317239,"trial":12,"RT":1439,"MT":359,"sideResp":2,"stimulus":[],"xmouse":[783,783,783,783,783,783,783,783,783,783,783,783,783,783,783,783,783,783,783,783,783,783,783,783,783,783,783,783,783,783,783,783,783,783,783,783,783,783,783,783,783,783,783,783,783,783,783,783,783,783,783,783,783,783,783,783,783,783,783,783,783,783,783,783,783,783,783,783,783,792,810,844,886,952,963,969,976,986,1025,1051,1077,1096,1104,1109,1109,1110,1112,1112,1112,1115],"ymouse":[541,541,541,541,541,541,541,541,541,541,541,541,541,541,541,541,541,541,541,541,541,541,541,541,541,541,541,541,541,541,541,541,541,541,541,541,541,541,541,541,541,541,541,541,541,541,541,541,541,541,541,541,541,541,541,541,541,541,541,541,541,541,541,541,541,541,541,541,536,524,505,474,443,392,379,367,356,343,304,284,266,251,244,242,238,226,203,178,118,90],"timestamp_mouse":[18,49,58,78,99,118,138,158,178,198,219,238,258,278,298,319,339,359,379,398,419,439,459,478,498,518,539,558,578,599,619,639,659,679,698,719,739,758,779,798,819,839,858,878,899,918,939,959,978,998,1018,1040,1059,1079,1100,1118,1139,1159,1179,1199,1219,1239,1258,1279,1299,1319,1338,1359,1379,1398,1419,1439,1458,1478,1498,1519,1539,1560,1578,1598,1619,1638,1660,1678,1698,1718,1739,1758,1779,1798],"xSR":741.5,"ySR":469.95,"xT1":424.9,"yT1":0,"xT2":1058.1,"yT2":0,"toosoon":0,"cond_shown":"Congruent","ratio_trial":200,"L_num":4,"L_den":8,"R_num":3,"R_den":10,"correct_side":1,"subjID":"Nicolas Guillen Alarcon 22","gender":"0","school":"4","age":"9"},{"start_time":1552073936105,"click_time":1552073937926,"finger_time":1552073937587,"fix_duration":539.8737750117672,"trial":13,"RT":1482,"MT":339,"sideResp":1,"stimulus":[],"xmouse":[815,815,815,815,815,815,815,815,815,815,815,815,815,815,815,815,815,815,815,815,815,815,815,815,815,815,815,815,815,815,815,815,815,815,815,815,815,815,815,815,815,815,815,815,815,815,815,815,815,815,815,815,815,815,815,815,815,815,815,815,815,815,815,815,815,815,815,815,815,815,812,796,764,674,641,440,366,314,293,289,289,289,289,291,297,307,337,359,385,411,433],"ymouse":[521,521,521,521,521,521,521,521,521,521,521,521,521,521,521,521,521,521,521,521,521,521,521,521,521,521,521,521,521,521,521,521,521,521,521,521,521,521,521,521,521,521,521,521,521,521,521,521,521,521,521,521,521,521,521,521,521,521,521,521,521,521,521,521,521,521,521,521,521,521,517,503,474,413,387,248,195,158,142,137,134,129,123,115,107,98,87,79,71,65,56],"timestamp_mouse":[19,52,59,80,99,120,141,160,180,200,219,240,260,279,299,319,339,359,380,400,419,440,459,480,500,520,539,560,580,600,620,640,660,680,700,719,739,759,779,799,819,839,860,880,899,919,939,960,980,999,1019,1040,1059,1081,1100,1120,1139,1160,1180,1199,1220,1240,1259,1280,1300,1320,1341,1361,1381,1400,1421,1442,1461,1482,1502,1521,1542,1560,1582,1602,1621,1642,1661,1681,1702,1721,1742,1761,1781,1802,1821],"xSR":741.5,"ySR":469.95,"xT1":424.9,"yT1":0,"xT2":1058.1,"yT2":0,"toosoon":0,"cond_shown":"Congruent","ratio_trial":200,"L_num":13,"L_den":26,"R_num":14,"R_den":20,"correct_side":2,"subjID":"Nicolas Guillen Alarcon 22","gender":"0","school":"4","age":"9"},{"start_time":1552073939260,"click_time":1552073940986,"finger_time":1552073940906,"fix_duration":491.36937010993256,"trial":14,"RT":1646,"MT":80,"sideResp":1,"stimulus":[],"xmouse":[769,769,769,769,769,769,769,769,769,769,769,769,769,769,769,769,769,769,769,769,769,769,769,769,769,769,769,769,769,769,769,769,769,769,769,769,769,769,769,769,769,769,769,769,769,769,769,769,769,769,769,769,769,769,769,769,769,769,769,769,769,769,769,769,769,769,769,769,769,769,769,769,769,769,769,769,768,767,765,761,756,752,740,674,625,569,507],"ymouse":[513,513,513,513,513,513,513,513,513,513,513,513,513,513,513,513,513,513,513,513,513,513,513,513,513,513,513,513,513,513,513,512,512,512,512,512,512,512,512,512,512,512,512,512,512,512,512,512,512,512,512,512,512,512,512,512,512,512,512,512,512,512,512,512,512,512,512,512,512,512,511,511,509,508,508,507,505,503,501,495,488,482,462,369,294,210,98],"timestamp_mouse":[9,40,46,66,87,107,127,147,167,187,206,226,246,266,287,307,327,346,367,387,406,427,447,466,487,506,527,545,566,587,607,626,647,666,687,705,727,747,767,786,806,827,846,867,887,906,926,945,966,986,1006,1027,1047,1066,1087,1107,1127,1147,1166,1187,1206,1226,1246,1265,1287,1307,1327,1347,1366,1387,1406,1427,1447,1467,1486,1507,1527,1547,1566,1586,1606,1630,1646,1667,1686,1706,1726],"xSR":741.5,"ySR":469.95,"xT1":424.9,"yT1":0,"xT2":1058.1,"yT2":0,"toosoon":0,"cond_shown":"Incongruent","ratio_trial":200,"L_num":9,"L_den":15,"R_num":8,"R_den":10,"correct_side":2,"subjID":"Nicolas Guillen Alarcon 22","gender":"0","school":"4","age":"9"},{"start_time":1552073942949,"click_time":1552073944786,"finger_time":1552073943927,"fix_duration":1200.8322647692332,"trial":15,"RT":978,"MT":859,"sideResp":2,"stimulus":[],"xmouse":[796,796,796,796,796,796,796,796,796,796,796,796,796,796,796,796,796,796,796,796,796,796,796,796,796,796,796,796,796,796,796,796,796,796,796,796,796,796,796,796,796,796,796,796,796,796,796,798,815,863,918,991,1033,1033,1033,1033,1033,1033,1033,1033,1033,1033,1033,1033,1033,1033,1033,1033,1033,1033,1033,1033,1210,1195,1180,1179,1179,1178,1176,1175,1175,1175,1173,1173,1173,1172,1172,1171,1168,1162,1160,1156],"ymouse":[533,533,533,533,533,533,533,533,533,533,533,532,531,530,528,528,527,527,526,526,526,526,526,526,526,526,526,526,526,526,526,525,525,525,525,525,524,524,524,523,522,522,521,520,519,518,516,513,442,310,207,96,41,41,41,41,41,41,41,41,41,41,41,41,41,41,41,41,41,41,41,41,10,22,34,35,35,35,35,35,35,35,35,35,35,35,36,36,36,37,38,38],"timestamp_mouse":[18,38,58,78,98,118,137,157,178,197,218,237,257,277,298,317,338,357,378,397,418,437,458,478,498,518,538,558,578,598,617,637,657,678,697,717,737,757,778,797,818,838,857,878,897,918,936,957,978,998,1017,1037,1057,1077,1098,1117,1138,1156,1177,1197,1217,1238,1258,1278,1298,1318,1338,1357,1378,1397,1417,1437,1457,1478,1498,1517,1537,1556,1578,1597,1618,1637,1658,1677,1698,1718,1737,1758,1777,1797,1818,1837],"xSR":741.5,"ySR":469.95,"xT1":424.9,"yT1":0,"xT2":1058.1,"yT2":0,"toosoon":0,"cond_shown":"Incongruent","ratio_trial":200,"L_num":9,"L_den":15,"R_num":8,"R_den":10,"correct_side":2,"subjID":"Nicolas Guillen Alarcon 22","gender":"0","school":"4","age":"9"},{"start_time":1552073946532,"click_time":1552073973506,"finger_time":1552073972787,"fix_duration":862.7818907188289,"trial":16,"RT":26255,"MT":719,"sideResp":1,"stimulus":[],"xmouse":[801,801,801,801,801,801,801,801,801,801,801,801,801,801,801,801,801,801,801,801,801,801,801,801,801,801,801,801,801,801,801,801,801,801,801,801,801,801,801,801,801,801,801,801,801,801,801,801,801,801,801,801,801,801,801,801,801,801,801,801,801,801,801,801,801,801,801,801,801,801,801,801,801,801,801,801,801,801,801,801,801,801,801,801,801,801,801,801,801,801,801,801,801,801,801,801,801,801,801,801,801,801,801,801,801,801,801,801,801,801,801,801,801,801,801,801,801,801,801,801,801,801,801,801,801,801,801,801,801,801,801,801,801,801,801,801,801,801,801,801,801,801,801,801,801,801,801,801,801,801,801,801,801,801,801,801,801,801,801,801,801,801,801,801,801,801,801,801,801,801,801,801,801,801,801,801,801,801,801,801,801,801,801,801,801,801,801,801,801,801,801,801,801,801,801,801,801,801,801,801,801,801,801,801,801,801,801,801,801,801,801,801,801,801,801,801,801,801,801,801,801,801,801,801,801,801,801,801,801,801,801,801,801,801,801,801,801,801,801,801,801,801,801,801,801,801,801,801,801,801,801,801,801,801,801,801,801,801,801,801,801,801,801,801,801,801,801,801,801,801,801,801,801,801,801,801,801,801,801,801,801,801,801,801,801,801,801,801,801,801,801,801,801,801,801,801,801,801,801,801,801,801,801,801,801,801,801,801,801,801,801,801,801,801,801,801,801,801,801,801,801,801,801,801,801,801,801,801,801,801,801,801,801,801,801,801,801,801,801,801,801,801,801,801,801,801,801,801,801,801,801,801,801,801,801,801,801,801,801,801,801,801,801,801,801,801,801,801,801,801,801,801,801,801,801,801,801,801,801,801,801,801,801,801,801,801,801,801,801,801,801,801,801,801,801,801,801,801,801,801,801,801,801,801,801,801,801,801,801,801,801,801,801,801,801,801,801,801,801,801,801,801,801,801,801,801,801,801,801,801,801,801,801,801,801,801,801,801,801,801,801,801,801,801,801,801,801,801,801,801,801,801,801,801,801,801,801,801,801,801,801,801,801,801,801,801,801,801,801,801,801,801,801,801,801,801,801,801,801,801,801,801,801,801,801,801,801,801,801,801,801,801,801,801,801,801,801,801,801,801,801,801,801,801,801,801,801,801,801,801,801,801,801,801,801,801,801,801,801,801,801,801,801,801,801,801,801,801,801,801,801,801,801,801,801,801,801,801,801,801,801,801,801,801,801,801,801,801,801,801,801,801,801,801,801,801,801,801,801,801,801,801,801,801,801,801,801,801,801,801,801,801,801,801,801,801,801,801,801,801,801,801,801,801,801,801,801,801,801,801,801,801,801,801,801,801,801,801,801,801,801,801,801,801,801,801,801,801,801,801,801,801,801,801,801,801,801,801,801,801,801,801,801,801,801,801,801,801,801,801,801,801,801,801,801,801,801,801,801,801,801,801,801,801,801,801,801,801,801,801,801,801,801,801,801,801,801,801,801,801,801,801,801,801,801,801,801,801,801,801,801,801,801,801,801,801,801,801,801,801,801,801,801,801,801,801,801,801,801,801,801,801,801,801,801,801,801,801,801,801,801,801,801,801,801,801,801,801,801,801,801,801,801,801,801,801,801,801,801,801,801,801,801,801,801,801,801,801,801,801,801,801,801,801,801,801,801,801,801,801,801,801,801,801,801,801,801,801,801,801,801,801,801,801,801,801,801,801,801,801,801,801,801,801,801,801,801,801,801,801,801,801,801,801,801,801,801,801,801,801,801,801,801,801,801,801,801,801,801,801,801,801,801,801,801,801,801,801,801,801,801,801,801,801,801,801,801,801,801,801,801,801,801,801,801,801,801,801,801,801,801,801,801,801,801,801,801,801,801,801,801,801,801,801,801,801,801,801,801,801,801,801,801,801,801,801,801,801,801,801,801,801,801,801,801,801,801,801,801,801,801,801,801,801,801,801,801,801,801,801,801,801,801,801,801,801,801,801,801,801,801,801,801,801,801,801,801,801,801,801,801,801,801,801,801,801,801,801,801,801,801,801,801,801,801,801,801,801,801,801,801,801,801,801,801,801,801,801,801,801,801,801,801,801,801,801,801,801,801,801,801,801,801,801,801,801,801,801,801,801,801,801,801,801,801,801,801,801,801,801,801,801,801,801,801,801,801,801,801,801,801,801,801,801,801,801,801,801,801,801,801,801,801,801,801,801,801,801,801,801,801,801,801,801,801,801,801,801,801,801,801,801,801,801,801,801,801,801,801,801,801,801,801,801,801,801,801,801,801,801,801,801,801,801,801,801,801,801,801,801,801,801,801,801,801,801,801,801,801,801,801,801,801,801,801,801,801,801,801,801,801,801,801,801,801,801,801,801,801,801,801,801,801,801,801,801,801,801,801,801,801,801,801,801,801,801,801,801,801,801,801,801,801,801,801,801,801,801,801,801,801,801,801,801,801,801,801,801,801,801,801,801,801,801,801,801,801,801,801,801,801,801,801,801,801,801,801,801,801,801,801,801,801,801,801,801,801,801,801,801,801,801,801,801,801,801,801,801,801,801,801,801,801,801,801,801,801,801,801,801,801,801,801,801,801,801,801,801,801,801,801,801,801,801,801,801,801,801,801,801,801,801,801,801,801,801,801,801,801,801,801,801,801,801,801,801,801,801,801,801,801,801,801,801,801,801,801,801,801,801,801,801,801,801,801,801,801,801,801,801,801,801,801,801,801,801,801,801,801,801,801,801,801,801,801,801,801,801,801,801,801,801,801,801,801,801,801,801,801,801,801,801,801,801,801,801,801,801,801,801,801,801,801,801,801,801,801,801,801,801,801,801,801,801,801,801,801,801,801,801,801,801,801,801,801,801,801,801,801,801,801,801,801,801,801,801,801,801,801,801,801,801,801,801,801,801,801,801,801,801,801,801,801,801,801,801,801,801,801,801,801,801,801,801,801,801,801,801,801,801,801,801,827,848,862,869,869,869,869,864,860,858,858,858,858,855,854,849,842,839,834,831,830,828,810,792,775,747,703,670,627,592,576,559,549,539,528,510,496],"ymouse":[500,500,500,500,500,500,500,500,500,500,500,500,500,500,500,500,500,500,500,500,500,500,500,500,500,500,500,500,500,500,500,500,500,500,500,500,500,500,500,500,500,500,500,500,500,500,500,500,500,500,500,500,500,500,500,500,500,500,500,500,500,500,500,500,500,500,500,500,500,500,500,500,500,500,500,500,500,500,500,500,500,500,500,500,500,500,500,500,500,500,500,500,500,500,500,500,500,500,500,500,500,500,500,500,500,500,500,500,500,500,500,500,500,500,500,500,500,500,500,500,500,500,500,500,500,500,500,500,500,500,500,500,500,500,500,500,500,500,500,500,500,500,500,500,500,500,500,500,500,500,500,500,500,500,500,500,500,500,500,500,500,500,500,500,500,500,500,500,500,500,500,500,500,500,500,500,500,500,500,500,500,500,500,500,500,500,500,500,500,500,500,500,500,500,500,500,500,500,500,500,500,500,500,500,500,500,500,500,500,500,500,500,500,500,500,500,500,500,500,500,500,500,500,500,500,500,500,500,500,500,500,500,500,500,500,500,500,500,500,500,500,500,500,500,500,500,500,500,500,500,500,500,500,500,500,500,500,500,500,500,500,500,500,500,500,500,500,500,500,500,500,500,500,500,500,500,500,500,500,500,500,500,500,500,500,500,500,500,500,500,500,500,500,500,500,500,500,500,500,500,500,500,500,500,500,500,500,500,500,500,500,500,500,500,500,500,500,500,500,500,500,500,500,500,500,500,500,500,500,500,500,500,500,500,500,500,500,500,500,500,500,500,500,500,500,500,500,500,500,500,500,500,500,500,500,500,500,500,500,500,500,500,500,500,500,500,500,500,500,500,500,500,500,500,500,500,500,500,500,500,500,500,500,500,500,500,500,500,500,500,500,500,500,500,500,500,500,500,500,500,500,500,500,500,500,500,500,500,500,500,500,500,500,500,500,500,500,500,500,500,500,500,500,500,500,500,500,500,500,500,500,500,500,500,500,500,500,500,500,500,500,500,500,500,500,500,500,500,500,500,500,500,500,500,500,500,500,500,500,500,500,500,500,500,500,500,500,500,500,500,500,500,500,500,500,500,500,500,500,500,500,500,500,500,500,500,500,500,500,500,500,500,500,500,500,500,500,500,500,500,500,500,500,500,500,500,500,500,500,500,500,500,500,500,500,500,500,500,500,500,500,500,500,500,500,500,500,500,500,500,500,500,500,500,500,500,500,500,500,500,500,500,500,500,500,500,500,500,500,500,500,500,500,500,500,500,500,500,500,500,500,500,500,500,500,500,500,500,500,500,500,500,500,500,500,500,500,500,500,500,500,500,500,500,500,500,500,500,500,500,500,500,500,500,500,500,500,500,500,500,500,500,500,500,500,500,500,500,500,500,500,500,500,500,500,500,500,500,500,500,500,500,500,500,500,500,500,500,500,500,500,500,500,500,500,500,500,500,500,500,500,500,500,500,500,500,500,500,500,500,500,500,500,500,500,500,500,500,500,500,500,500,500,500,500,500,500,500,500,500,500,500,500,500,500,500,500,500,500,500,500,500,500,500,500,500,500,500,500,500,500,500,500,500,500,500,500,500,500,500,500,500,500,500,500,500,500,500,500,500,500,500,500,500,500,500,500,500,500,500,500,500,500,500,500,500,500,500,500,500,500,500,500,500,500,500,500,500,500,500,500,500,500,500,500,500,500,500,500,500,500,500,500,500,500,500,500,500,500,500,500,500,500,500,500,500,500,500,500,500,500,500,500,500,500,500,500,500,500,500,500,500,500,500,500,500,500,500,500,500,500,500,500,500,500,500,500,500,500,500,500,500,500,500,500,500,500,500,500,500,500,500,500,500,500,500,500,500,500,500,500,500,500,500,500,500,500,500,500,500,500,500,500,500,500,500,500,500,500,500,500,500,500,500,500,500,500,500,500,500,500,500,500,500,500,500,500,500,500,500,500,500,500,500,500,500,500,500,500,500,500,500,500,500,500,500,500,500,500,500,500,500,500,500,500,500,500,500,500,500,500,500,500,500,500,500,500,500,500,500,500,500,500,500,500,500,500,500,500,500,500,500,500,500,500,500,500,500,500,500,500,500,500,500,500,500,500,500,500,500,500,500,500,500,500,500,500,500,500,500,500,500,500,500,500,500,500,500,500,500,500,500,500,500,500,500,500,500,500,500,500,500,500,500,500,500,500,500,500,500,500,500,500,500,500,500,500,500,500,500,500,500,500,500,500,500,500,500,500,500,500,500,500,500,500,500,500,500,500,500,500,500,500,500,500,500,500,500,500,500,500,500,500,500,500,500,500,500,500,500,500,500,500,500,500,500,500,500,500,500,500,500,500,500,500,500,500,500,500,500,500,500,500,500,500,500,500,500,500,500,500,500,500,500,500,500,500,500,500,500,500,500,500,500,500,500,500,500,500,500,500,500,500,500,500,500,500,500,500,500,500,500,500,500,500,500,500,500,500,500,500,500,500,500,500,500,500,500,500,500,500,500,500,500,500,500,500,500,500,500,500,500,500,500,500,500,500,500,500,500,500,500,500,500,500,500,500,500,500,500,500,500,500,500,500,500,500,500,500,500,500,500,500,500,500,500,500,500,500,500,500,500,500,500,500,500,500,500,500,500,500,500,500,500,500,500,500,500,500,500,500,500,500,500,500,500,500,500,500,500,500,500,500,500,500,500,500,500,500,500,500,500,500,500,500,500,500,500,500,500,500,500,500,500,500,500,500,500,500,500,500,500,500,500,500,500,500,500,500,500,500,500,500,500,500,500,500,500,500,500,500,500,500,500,500,500,500,500,500,500,500,500,500,500,500,500,500,500,500,500,500,500,500,500,500,500,500,500,500,500,500,500,500,500,500,500,500,500,500,500,500,500,500,500,500,500,500,500,500,500,500,500,500,500,500,500,500,500,500,500,500,500,500,500,500,500,500,500,500,500,500,500,500,500,500,500,500,500,500,500,500,498,450,419,403,399,399,399,399,398,398,398,398,398,398,400,403,411,423,428,437,440,441,441,437,431,424,408,372,341,304,272,254,229,213,195,174,128,75],"timestamp_mouse":[15,49,54,74,95,115,135,155,174,194,214,233,255,275,295,315,334,354,374,394,415,434,454,473,495,515,533,553,575,595,615,635,655,675,695,714,734,755,775,794,815,835,853,874,895,915,934,955,974,994,1014,1034,1054,1074,1095,1114,1135,1154,1175,1194,1213,1233,1255,1275,1295,1315,1335,1355,1374,1395,1414,1434,1455,1474,1494,1513,1535,1555,1575,1594,1615,1635,1655,1674,1694,1714,1735,1755,1775,1795,1814,1835,1855,1875,1894,1913,1933,1954,1975,1995,2014,2034,2054,2074,2095,2114,2135,2154,2175,2193,2214,2235,2255,2274,2294,2314,2335,2355,2375,2394,2415,2435,2455,2475,2494,2514,2534,2554,2575,2595,2613,2635,2654,2675,2695,2714,2735,2754,2774,2795,2814,2834,2855,2874,2894,2914,2935,2953,2975,2994,3014,3034,3055,3075,3094,3114,3135,3155,3175,3195,3214,3235,3255,3275,3295,3314,3335,3354,3374,3394,3415,3435,3454,3475,3494,3514,3535,3555,3574,3594,3615,3635,3655,3674,3694,3715,3734,3754,3775,3795,3814,3835,3855,3875,3893,3915,3935,3955,3975,3995,4014,4034,4055,4075,4093,4115,4135,4155,4175,4195,4214,4235,4255,4275,4295,4314,4335,4354,4374,4394,4415,4435,4455,4475,4494,4515,4534,4554,4573,4595,4614,4634,4654,4675,4695,4714,4735,4754,4774,4795,4814,4835,4854,4874,4895,4914,4935,4954,4974,4995,5015,5035,5055,5075,5095,5114,5135,5154,5175,5194,5215,5234,5255,5275,5295,5314,5333,5355,5375,5394,5415,5434,5455,5474,5494,5515,5535,5555,5575,5594,5614,5635,5655,5675,5695,5714,5735,5755,5774,5794,5814,5834,5855,5875,5894,5913,5935,5955,5975,5995,6013,6035,6055,6075,6093,6114,6135,6155,6175,6195,6213,6235,6255,6275,6295,6315,6335,6355,6374,6395,6413,6435,6455,6475,6494,6514,6535,6555,6574,6594,6615,6634,6654,6675,6695,6714,6735,6754,6774,6794,6814,6835,6855,6875,6894,6914,6935,6955,6974,6995,7015,7034,7054,7075,7095,7115,7135,7154,7175,7193,7215,7234,7255,7275,7294,7315,7334,7355,7375,7394,7415,7434,7455,7474,7494,7515,7535,7555,7575,7594,7614,7635,7654,7675,7694,7715,7734,7755,7774,7795,7814,7835,7855,7875,7894,7914,7935,7954,7975,7995,8014,8035,8054,8075,8095,8114,8135,8155,8175,8194,8214,8235,8255,8273,8294,8315,8335,8353,8375,8394,8414,8434,8454,8475,8495,8514,8534,8554,8575,8594,8615,8635,8654,8674,8695,8715,8735,8755,8775,8794,8814,8835,8854,8874,8895,8914,8935,8954,8975,8995,9015,9035,9055,9074,9095,9115,9135,9154,9174,9195,9215,9235,9254,9275,9295,9314,9335,9354,9375,9394,9415,9435,9454,9475,9495,9514,9533,9555,9575,9594,9614,9634,9654,9675,9694,9714,9735,9754,9774,9795,9815,9835,9855,9874,9895,9915,9934,9954,9975,9994,10015,10035,10055,10074,10095,10114,10134,10155,10175,10195,10215,10235,10254,10275,10294,10314,10334,10354,10375,10394,10415,10435,10454,10475,10494,10515,10534,10555,10575,10595,10614,10634,10654,10674,10695,10714,10734,10755,10775,10795,10814,10834,10855,10875,10895,10915,10934,10954,10975,10995,11014,11034,11055,11074,11094,11114,11134,11155,11173,11195,11215,11234,11254,11274,11295,11315,11334,11354,11375,11395,11414,11435,11455,11474,11495,11515,11534,11554,11574,11594,11614,11634,11653,11675,11694,11715,11734,11755,11774,11795,11814,11833,11855,11875,11894,11914,11935,11955,11973,11995,12015,12035,12055,12074,12094,12115,12134,12155,12175,12194,12215,12234,12254,12274,12295,12314,12335,12355,12374,12395,12414,12434,12455,12474,12494,12515,12534,12555,12575,12594,12613,12634,12654,12675,12695,12715,12734,12755,12774,12795,12815,12834,12855,12874,12894,12914,12934,12955,12973,12994,13015,13034,13055,13086,13095,13114,13134,13155,13174,13194,13214,13235,13255,13274,13295,13314,13335,13355,13375,13395,13415,13434,13454,13474,13494,13514,13534,13554,13574,13595,13614,13635,13655,13674,13694,13714,13735,13755,13774,13794,13814,13835,13855,13874,13895,13914,13935,13954,13974,13994,14015,14035,14054,14075,14095,14114,14134,14154,14175,14195,14215,14234,14255,14275,14295,14314,14335,14355,14375,14395,14414,14434,14454,14475,14495,14514,14535,14555,14574,14595,14614,14635,14655,14675,14694,14714,14735,14755,14774,14795,14814,14835,14855,14875,14894,14915,14935,14955,14974,14995,15014,15035,15054,15075,15095,15114,15134,15154,15175,15194,15213,15234,15255,15274,15294,15314,15334,15355,15375,15394,15414,15434,15455,15475,15495,15515,15533,15555,15574,15594,15615,15634,15655,15674,15694,15715,15734,15755,15775,15795,15815,15834,15855,15875,15895,15914,15935,15955,15974,15995,16015,16035,16053,16075,16095,16115,16134,16155,16175,16193,16215,16234,16255,16274,16294,16315,16334,16355,16374,16395,16415,16435,16454,16473,16495,16514,16534,16554,16574,16595,16615,16635,16654,16675,16695,16714,16734,16755,16774,16795,16815,16834,16855,16874,16895,16914,16934,16955,16974,16994,17013,17035,17054,17074,17094,17115,17135,17154,17174,17195,17215,17235,17253,17274,17295,17314,17334,17355,17374,17395,17414,17434,17455,17475,17494,17515,17535,17555,17574,17595,17615,17634,17655,17674,17695,17714,17734,17755,17774,17795,17815,17834,17854,17874,17894,17915,17935,17955,17975,17994,18015,18035,18055,18074,18095,18114,18134,18155,18174,18194,18215,18234,18255,18274,18295,18315,18334,18354,18375,18394,18415,18433,18455,18475,18494,18515,18534,18555,18575,18593,18615,18635,18655,18674,18695,18715,18735,18755,18774,18794,18815,18834,18855,18874,18893,18914,18935,18954,18974,18995,19014,19035,19054,19074,19094,19114,19135,19154,19174,19194,19215,19235,19253,19274,19294,19314,19334,19354,19374,19394,19415,19435,19453,19475,19495,19514,19534,19555,19575,19595,19614,19635,19655,19675,19694,19715,19734,19754,19774,19795,19814,19835,19854,19874,19895,19915,19935,19955,19975,19995,20015,20035,20054,20075,20095,20115,20135,20155,20175,20194,20214,20234,20254,20274,20293,20315,20334,20354,20375,20395,20415,20434,20454,20474,20495,20515,20535,20554,20575,20595,20614,20634,20653,20675,20695,20714,20735,20754,20775,20794,20813,20835,20855,20874,20895,20913,20935,20955,20975,20994,21015,21035,21054,21075,21094,21114,21135,21154,21175,21194,21214,21233,21255,21275,21294,21314,21335,21354,21373,21394,21415,21435,21454,21475,21494,21515,21534,21555,21575,21595,21614,21635,21653,21675,21695,21715,21734,21754,21775,21795,21814,21835,21855,21875,21895,21915,21934,21955,21974,21995,22014,22035,22054,22075,22094,22115,22135,22154,22174,22194,22214,22235,22255,22275,22294,22315,22334,22354,22374,22395,22415,22435,22454,22474,22495,22515,22535,22554,22574,22595,22615,22634,22655,22674,22695,22715,22734,22755,22774,22795,22814,22835,22854,22875,22894,22914,22934,22955,22974,22995,23014,23035,23055,23074,23094,23114,23135,23155,23174,23193,23214,23235,23255,23275,23293,23314,23335,23355,23374,23394,23415,23435,23454,23475,23495,23514,23535,23554,23574,23595,23614,23634,23654,23675,23694,23714,23735,23754,23775,23795,23814,23834,23855,23875,23895,23914,23935,23954,23975,23995,24015,24034,24055,24075,24094,24115,24135,24154,24175,24194,24214,24235,24255,24274,24294,24313,24334,24354,24375,24394,24414,24434,24455,24475,24494,24515,24534,24554,24575,24594,24615,24634,24655,24675,24695,24714,24735,24754,24774,24795,24814,24835,24855,24875,24895,24915,24935,24954,24974,24995,25015,25033,25055,25074,25095,25115,25135,25154,25175,25194,25215,25234,25254,25275,25293,25314,25334,25354,25374,25394,25415,25435,25454,25475,25495,25514,25533,25555,25574,25595,25615,25635,25655,25675,25695,25714,25733,25755,25775,25794,25814,25834,25855,25875,25894,25914,25934,25955,25975,25994,26015,26034,26054,26075,26094,26114,26135,26155,26174,26194,26215,26234,26255,26274,26294,26315,26334,26353,26375,26395,26414,26435,26455,26474,26494,26514,26534,26554,26574,26594,26614,26634,26654,26674,26693,26715,26734,26755,26774,26795,26814,26834,26855,26873,26894,26913,26933,26955,26974],"xSR":741.5,"ySR":469.95,"xT1":424.9,"yT1":0,"xT2":1058.1,"yT2":0,"toosoon":0,"cond_shown":"Congruent","ratio_trial":100,"L_num":1,"L_den":2,"R_num":18,"R_den":30,"correct_side":2,"subjID":"Nicolas Guillen Alarcon 22","gender":"0","school":"4","age":"9"},{"start_time":1552073976802,"click_time":1552073978326,"finger_time":1552073978207,"fix_duration":873.4666704347301,"trial":17,"RT":1405,"MT":119,"sideResp":1,"stimulus":[],"xmouse":[766,766,766,766,766,766,766,766,766,766,766,766,766,766,766,766,766,766,766,766,766,766,766,766,766,766,766,766,766,766,766,766,766,766,766,766,766,766,766,766,766,766,766,766,766,766,766,766,766,766,766,766,766,766,766,766,766,766,766,766,766,766,766,766,766,766,766,766,761,755,726,607,562,527,507,498,494],"ymouse":[494,494,494,494,494,494,494,494,494,494,494,494,494,494,494,494,494,494,494,494,494,494,494,494,494,494,494,494,494,494,494,494,494,494,494,494,494,494,494,494,494,494,494,494,494,494,494,494,494,494,494,494,494,494,494,494,494,494,494,494,494,494,494,494,494,494,494,494,494,490,468,271,191,142,117,103,92],"timestamp_mouse":[13,39,44,64,85,104,125,145,165,184,205,224,245,264,285,303,324,344,365,384,404,425,445,465,485,505,524,545,565,585,605,624,644,665,685,705,725,744,764,785,804,825,846,864,885,905,925,945,964,985,1004,1024,1044,1064,1085,1105,1125,1143,1164,1183,1204,1225,1245,1265,1284,1305,1324,1345,1365,1385,1405,1424,1445,1464,1485,1504,1524],"xSR":741.5,"ySR":469.95,"xT1":424.9,"yT1":0,"xT2":1058.1,"yT2":0,"toosoon":0,"cond_shown":"Incongruent","ratio_trial":300,"L_num":7,"L_den":10,"R_num":8,"R_den":20,"correct_side":1,"subjID":"Nicolas Guillen Alarcon 22","gender":"0","school":"4","age":"9"},{"start_time":1552073979748,"click_time":1552073982330,"finger_time":1552073981886,"fix_duration":580.4799511205414,"trial":18,"RT":2138,"MT":444,"sideResp":1,"stimulus":[],"xmouse":[809,809,809,809,809,809,809,809,809,809,809,809,809,809,809,809,809,809,809,809,809,809,809,809,809,809,809,809,809,809,809,809,809,809,809,809,809,809,809,809,809,809,809,809,809,809,809,809,809,809,809,809,809,809,809,809,809,809,809,809,809,809,809,809,809,809,809,809,809,809,809,809,809,809,809,809,809,809,809,809,809,809,809,809,809,809,809,809,809,809,809,809,809,809,809,809,809,809,809,809,809,809,812,822,823,823,817,806,767,744,724,701,676,676,676,676,676,676,676,676,676,676,676,543,541,538,536,529,516],"ymouse":[545,545,545,545,545,545,545,545,545,545,545,545,545,545,545,545,545,545,545,545,545,545,545,545,545,545,545,545,545,545,545,545,545,545,545,545,545,545,545,545,545,545,545,545,545,545,545,545,545,545,545,545,545,545,545,545,545,545,545,545,545,545,545,545,545,545,545,545,545,545,545,545,545,545,545,545,545,545,545,545,545,545,545,545,545,545,545,545,545,545,545,545,545,545,545,545,545,545,545,545,545,545,545,547,546,530,468,377,210,163,127,80,23,23,23,23,23,23,23,23,23,23,23,14,21,30,40,56,81],"timestamp_mouse":[18,38,59,79,99,118,138,159,179,199,219,238,259,279,298,317,337,359,379,399,419,439,458,478,498,518,538,559,578,597,619,639,658,678,698,718,739,759,778,799,819,838,858,878,899,919,939,959,979,999,1019,1039,1059,1079,1097,1118,1139,1159,1178,1198,1218,1238,1258,1279,1298,1319,1337,1359,1379,1398,1419,1438,1459,1479,1498,1519,1538,1558,1578,1598,1618,1639,1659,1678,1699,1719,1738,1759,1778,1798,1819,1838,1858,1879,1899,1919,1938,1957,1979,1999,2018,2038,2059,2078,2099,2119,2138,2159,2178,2198,2219,2239,2259,2278,2299,2318,2338,2359,2378,2399,2418,2438,2459,2478,2499,2518,2538,2558,2581],"xSR":741.5,"ySR":469.95,"xT1":424.9,"yT1":0,"xT2":1058.1,"yT2":0,"toosoon":0,"cond_shown":"Congruent","ratio_trial":200,"L_num":9,"L_den":20,"R_num":4,"R_den":16,"correct_side":1,"subjID":"Nicolas Guillen Alarcon 22","gender":"0","school":"4","age":"9"},{"start_time":1552073984601,"click_time":1552073986887,"finger_time":1552073986146,"fix_duration":1233.2348482326872,"trial":19,"RT":1545,"MT":741,"sideResp":1,"stimulus":[],"xmouse":[771,771,771,771,771,771,771,771,771,771,771,771,771,771,771,771,771,771,771,771,771,771,771,771,771,771,771,771,771,771,771,771,771,771,771,771,771,771,771,771,771,771,771,771,771,771,771,771,771,771,771,771,771,771,771,771,771,771,771,771,771,771,771,771,771,771,771,771,771,771,771,771,772,772,772,772,769,749,725,715,708,692,673,653,637,630,616,602,593,591,591,591,591,591,591,591,591,591,592,593,593,593,593,593,593,593,593,589,575,555,537,529,524,523,522],"ymouse":[515,515,515,515,515,515,515,515,515,515,515,515,515,515,515,515,515,515,515,515,515,515,515,515,515,515,515,515,515,515,515,515,515,515,515,515,515,515,515,515,515,515,515,515,515,515,515,515,515,515,515,515,515,515,515,515,515,515,515,515,515,515,515,515,515,515,515,515,515,515,515,515,513,511,506,498,487,452,412,384,359,311,278,239,208,194,174,158,151,149,149,149,149,149,149,149,149,149,149,149,149,149,149,149,149,149,149,149,146,141,133,126,115,107,96],"timestamp_mouse":[11,24,51,64,86,106,125,146,165,186,205,225,245,266,286,305,326,346,365,385,405,426,446,465,485,505,525,546,566,586,606,625,646,666,685,705,724,746,765,785,805,825,846,865,885,905,925,945,965,985,1004,1026,1045,1065,1086,1106,1125,1146,1166,1185,1205,1225,1245,1265,1285,1305,1325,1346,1366,1386,1406,1424,1446,1466,1486,1505,1526,1545,1566,1585,1606,1627,1645,1665,1686,1704,1727,1745,1766,1785,1806,1825,1845,1865,1885,1905,1926,1945,1965,1985,2006,2024,2045,2066,2086,2105,2125,2144,2165,2186,2205,2225,2245,2265,2286],"xSR":741.5,"ySR":469.95,"xT1":424.9,"yT1":0,"xT2":1058.1,"yT2":0,"toosoon":0,"cond_shown":"Congruent","ratio_trial":200,"L_num":6,"L_den":15,"R_num":3,"R_den":15,"correct_side":1,"subjID":"Nicolas Guillen Alarcon 22","gender":"0","school":"4","age":"9"},{"start_time":1552073988296,"click_time":1552073989666,"finger_time":1552073989125,"fix_duration":687.7480326470123,"trial":20,"RT":829,"MT":541,"sideResp":1,"stimulus":[],"xmouse":[765,765,765,765,765,765,765,765,765,765,765,765,765,765,765,765,765,765,765,765,765,765,765,765,765,765,765,765,765,765,765,765,765,765,765,765,765,765,765,762,755,732,694,680,665,654,638,608,600,597,594,590,586,586,589,589,589,588,588,588,588,586,585,585,583,577,561,480,428],"ymouse":[490,490,490,490,490,490,490,490,490,490,490,490,490,490,490,490,490,490,490,490,490,490,490,490,490,490,490,490,490,490,490,490,490,490,490,490,490,490,490,489,484,468,440,430,420,410,393,362,352,344,334,318,281,264,243,226,211,175,159,148,142,136,135,134,132,127,118,102,94],"timestamp_mouse":[12,35,50,70,91,110,130,149,171,191,211,231,251,270,290,311,330,351,370,390,411,430,451,469,491,510,531,549,571,591,611,631,651,670,691,711,730,751,771,790,810,829,850,869,891,911,930,950,969,990,1012,1030,1050,1071,1090,1111,1131,1150,1170,1191,1210,1231,1250,1271,1290,1311,1330,1350,1369],"xSR":741.5,"ySR":469.95,"xT1":424.9,"yT1":0,"xT2":1058.1,"yT2":0,"toosoon":0,"cond_shown":"Incongruent","ratio_trial":300,"L_num":8,"L_den":10,"R_num":14,"R_den":28,"correct_side":1,"subjID":"Nicolas Guillen Alarcon 22","gender":"0","school":"4","age":"9"},{"start_time":1552073992454,"click_time":1552073994266,"finger_time":1552073993866,"fix_duration":547.1546358004855,"trial":21,"RT":1412,"MT":400,"sideResp":1,"stimulus":[],"xmouse":[804,804,804,804,804,803,802,802,802,802,802,802,802,802,802,802,802,802,802,802,802,802,802,802,802,802,802,802,802,802,802,802,802,802,802,802,802,802,802,802,802,802,802,802,802,802,802,802,802,802,802,802,802,802,802,802,802,802,802,802,802,802,802,802,802,801,797,789,781,767,764,754,747,739,722,720,716,706,693,646,596,571,555,543,538,538,538,537,536,525,496],"ymouse":[521,521,521,521,521,521,522,522,522,522,522,522,522,522,522,522,522,522,522,522,522,522,522,522,522,522,522,522,522,522,522,522,522,522,522,522,522,522,522,522,522,522,522,522,522,522,522,522,522,522,522,522,522,522,522,522,522,522,522,522,522,522,522,522,522,522,522,518,513,480,396,341,309,284,250,245,239,224,209,182,165,156,151,145,142,142,142,142,138,122,82],"timestamp_mouse":[13,39,52,73,93,112,132,153,172,192,212,233,253,271,292,312,333,353,373,392,413,432,452,473,491,511,532,553,572,592,612,632,652,673,692,711,733,753,773,792,812,833,852,873,892,913,932,952,972,991,1012,1033,1053,1073,1093,1113,1133,1152,1173,1192,1212,1232,1252,1273,1292,1312,1332,1353,1372,1392,1412,1432,1453,1472,1494,1512,1532,1553,1572,1593,1612,1632,1653,1672,1692,1713,1732,1753,1772,1793,1812],"xSR":741.5,"ySR":469.95,"xT1":424.9,"yT1":0,"xT2":1058.1,"yT2":0,"toosoon":0,"cond_shown":"Congruent","ratio_trial":300,"L_num":4,"L_den":5,"R_num":2,"R_den":4,"correct_side":1,"subjID":"Nicolas Guillen Alarcon 22","gender":"0","school":"4","age":"9"},{"start_time":1552073995320,"click_time":1552073997246,"finger_time":1552073996866,"fix_duration":250,"trial":22,"RT":1546,"MT":380,"sideResp":1,"stimulus":[],"xmouse":[766,766,766,766,766,766,766,766,766,766,766,766,766,766,766,766,766,766,766,766,766,766,766,766,766,766,766,766,766,766,766,766,766,766,766,766,766,766,766,766,766,766,766,766,766,766,766,766,766,766,766,766,766,766,766,766,766,766,766,766,766,766,766,766,766,766,766,766,766,766,766,766,766,766,766,765,763,705,663,607,564,547,541,541,541,541,541,548,551,552,552,551,544,538,532,525,517],"ymouse":[537,537,537,537,537,537,537,537,537,537,537,537,537,537,537,537,537,537,537,537,537,537,537,537,537,537,537,537,537,537,537,537,537,537,537,537,537,537,537,537,537,537,537,537,537,537,537,537,537,537,537,537,537,537,537,537,537,537,537,537,537,537,537,537,537,537,537,537,537,537,537,537,537,537,537,535,529,418,351,291,253,237,222,216,204,190,178,156,148,144,139,134,115,103,94,84,74],"timestamp_mouse":[12,27,46,67,86,106,126,147,167,187,207,226,247,266,287,307,326,347,366,387,407,427,446,467,485,506,526,546,567,587,606,625,646,667,686,707,727,747,767,786,805,825,847,866,887,906,927,947,965,987,1007,1026,1047,1067,1086,1107,1126,1146,1167,1187,1207,1227,1245,1267,1287,1305,1326,1346,1366,1386,1406,1426,1446,1467,1487,1507,1527,1546,1566,1586,1606,1627,1646,1666,1685,1706,1726,1746,1766,1786,1807,1826,1846,1867,1885,1907,1926],"xSR":741.5,"ySR":469.95,"xT1":424.9,"yT1":0,"xT2":1058.1,"yT2":0,"toosoon":0,"cond_shown":"Congruent","ratio_trial":100,"L_num":10,"L_den":25,"R_num":3,"R_den":10,"correct_side":1,"subjID":"Nicolas Guillen Alarcon 22","gender":"0","school":"4","age":"9"},{"start_time":1552074000419,"click_time":1552074002169,"finger_time":1552074001828,"fix_duration":250,"trial":23,"RT":1409,"MT":341,"sideResp":2,"stimulus":[],"xmouse":[795,795,795,795,795,795,795,795,795,795,795,795,795,795,795,795,795,795,795,795,795,795,795,795,795,795,795,795,795,795,795,795,795,795,795,795,795,795,795,795,795,795,795,795,795,795,795,795,795,795,795,795,795,795,795,795,795,795,795,795,795,795,795,795,795,795,795,795,803,827,951,1018,1104,1136,1163,1181,1198,1233,1247,1249,1251,1248,1234,1200,1190,1178,1160,1142],"ymouse":[534,534,534,534,534,534,534,534,534,534,534,534,534,534,534,534,534,534,534,534,534,534,534,534,534,534,534,534,534,534,534,534,534,534,534,534,534,534,534,534,534,534,534,534,534,534,534,534,534,534,534,534,534,534,534,534,534,534,534,534,534,534,534,534,534,534,534,534,528,515,436,394,333,305,273,242,206,143,117,110,92,78,60,34,32,32,32,32],"timestamp_mouse":[13,33,48,69,88,109,128,148,168,188,209,230,248,269,288,308,328,349,368,387,408,429,448,467,488,509,529,548,569,588,609,628,648,669,688,707,729,748,769,788,808,829,848,869,889,908,928,948,968,989,1008,1028,1049,1068,1088,1108,1128,1148,1169,1188,1209,1229,1248,1268,1289,1309,1329,1348,1368,1389,1408,1429,1448,1468,1488,1509,1528,1549,1568,1588,1608,1628,1648,1669,1688,1709,1729,1749],"xSR":741.5,"ySR":469.95,"xT1":424.9,"yT1":0,"xT2":1058.1,"yT2":0,"toosoon":0,"cond_shown":"Incongruent","ratio_trial":300,"L_num":4,"L_den":20,"R_num":2,"R_den":4,"correct_side":2,"subjID":"Nicolas Guillen Alarcon 22","gender":"0","school":"4","age":"9"},{"start_time":1552074003331,"click_time":1552074005588,"finger_time":1552074005087,"fix_duration":562.4506196628996,"trial":24,"RT":1756,"MT":501,"sideResp":2,"stimulus":[],"xmouse":[780,780,780,780,780,780,780,780,780,780,780,780,780,780,780,780,780,780,780,780,780,780,780,780,780,780,780,780,780,780,780,780,780,780,780,780,780,780,780,780,780,780,780,780,780,780,780,780,780,780,780,780,780,780,780,780,779,778,777,776,776,776,776,776,776,776,776,776,776,776,776,776,776,776,776,776,774,773,773,773,773,773,769,768,768,770,825,898,984,1060,1108,1153,1175,1181,1185,1190,1200,1212,1214,1214,1213,1210,1193,1182,1168,1160,1158,1158,1156,1155,1155,1156,1156],"ymouse":[556,556,556,556,556,556,556,556,556,556,556,556,556,556,556,556,556,556,556,556,556,556,556,556,556,556,556,556,556,556,556,556,556,556,556,556,556,556,556,556,556,556,556,556,556,556,556,556,556,556,556,556,556,556,556,556,556,556,556,556,556,556,556,556,556,556,556,556,556,556,556,556,556,556,556,556,560,567,567,567,567,567,565,564,564,559,525,493,456,419,389,351,318,307,298,289,274,246,231,217,207,202,186,176,164,155,150,144,134,123,115,106,91],"timestamp_mouse":[17,36,56,76,96,117,136,156,176,197,217,236,257,277,296,317,337,357,375,397,416,436,456,477,496,516,537,556,577,597,616,636,657,676,696,716,737,757,776,796,816,837,856,876,897,916,937,957,977,996,1016,1036,1056,1076,1097,1116,1136,1156,1176,1196,1217,1237,1257,1276,1296,1318,1337,1357,1377,1397,1416,1436,1456,1477,1496,1517,1536,1555,1577,1596,1617,1635,1656,1676,1696,1717,1738,1756,1776,1797,1816,1838,1856,1877,1896,1917,1936,1956,1977,1997,2017,2036,2055,2076,2096,2117,2136,2156,2177,2196,2216,2236,2257],"xSR":741.5,"ySR":469.95,"xT1":424.9,"yT1":0,"xT2":1058.1,"yT2":0,"toosoon":0,"cond_shown":"Incongruent","ratio_trial":100,"L_num":6,"L_den":10,"R_num":7,"R_den":14,"correct_side":1,"subjID":"Nicolas Guillen Alarcon 22","gender":"0","school":"4","age":"9"},{"start_time":1552074009900,"click_time":1552074013768,"finger_time":1552074011667,"fix_duration":570.0600592655741,"trial":25,"RT":1767,"MT":2101,"sideResp":1,"stimulus":[],"xmouse":[764,764,764,764,764,764,764,764,764,764,764,764,764,764,764,764,764,764,764,764,764,764,764,764,764,764,764,764,764,764,764,764,764,764,764,764,764,764,764,764,764,764,764,764,764,764,764,764,764,764,764,764,764,764,764,764,764,764,764,764,764,764,764,764,764,764,764,764,764,764,764,764,764,764,764,764,764,764,764,764,764,766,768,768,769,769,768,767,764,761,757,755,754,752,751,750,748,747,744,738,736,735,731,727,724,718,715,711,707,702,696,694,692,692,686,682,678,674,671,662,655,650,645,640,633,629,625,622,621,618,612,607,601,596,591,588,585,583,580,576,574,571,569,568,564,557,553,546,544,538,534,533,530,529,527,523,522,522,522,525,525,525,525,525,525,525,525,525,525,525,525,525,525,525,525,525,525,525,525,525,525,525,525,525,525,525,525,525,525,525,525,525,525,524],"ymouse":[515,515,515,515,515,515,515,515,515,515,515,515,515,515,515,515,515,515,515,515,515,515,515,515,515,515,515,515,515,515,515,515,515,515,515,515,515,515,515,515,515,515,515,515,515,515,515,515,515,515,515,515,515,515,515,515,515,515,515,515,515,515,515,515,515,515,515,515,515,515,515,515,515,515,515,515,515,515,515,515,515,515,509,502,488,482,477,474,469,464,454,447,443,439,435,431,426,421,414,400,394,387,380,371,366,355,348,343,337,333,326,324,323,322,317,313,308,303,299,292,283,278,272,266,258,255,252,248,246,243,237,234,229,225,218,215,213,211,209,207,206,204,203,202,200,195,193,188,186,181,179,178,174,172,166,152,137,119,104,81,73,68,65,63,62,62,62,61,61,61,61,61,61,61,61,61,61,61,61,61,61,61,61,61,61,61,61,61,61,61,61,61,61,61],"timestamp_mouse":[13,36,48,67,87,107,127,147,168,187,207,228,247,267,287,307,327,347,367,387,408,426,447,467,488,507,528,547,567,587,608,628,647,668,688,707,728,748,769,788,808,828,847,867,888,907,927,948,967,988,1007,1027,1048,1067,1087,1108,1127,1148,1167,1187,1208,1227,1248,1268,1287,1307,1327,1348,1368,1387,1408,1427,1448,1468,1487,1508,1528,1548,1568,1587,1608,1627,1647,1668,1687,1708,1728,1747,1767,1787,1808,1827,1848,1867,1888,1907,1927,1948,1967,1989,2007,2029,2048,2068,2087,2106,2127,2148,2168,2187,2207,2227,2248,2267,2289,2307,2327,2347,2367,2389,2407,2427,2448,2468,2489,2507,2528,2547,2567,2587,2607,2627,2648,2667,2689,2707,2727,2748,2767,2789,2807,2826,2847,2867,2887,2907,2927,2947,2967,2989,3007,3027,3048,3067,3086,3107,3128,3147,3167,3189,3207,3228,3248,3267,3288,3308,3328,3348,3368,3387,3408,3428,3448,3468,3488,3508,3527,3547,3568,3588,3607,3627,3647,3668,3687,3708,3727,3748,3767,3787,3807,3828,3847,3867],"xSR":741.5,"ySR":469.95,"xT1":424.9,"yT1":0,"xT2":1058.1,"yT2":0,"toosoon":0,"cond_shown":"Incongruent","ratio_trial":200,"L_num":4,"L_den":6,"R_num":14,"R_den":30,"correct_side":1,"subjID":"Nicolas Guillen Alarcon 22","gender":"0","school":"4","age":"9"},{"start_time":1552074017374,"click_time":1552074019608,"finger_time":1552074018948,"fix_duration":405.0321472100693,"trial":26,"RT":1574,"MT":660,"sideResp":2,"stimulus":[],"xmouse":[774,774,778,778,778,778,778,778,778,778,778,778,778,778,778,778,778,778,778,778,778,778,778,778,778,778,778,778,778,778,778,778,778,778,778,778,778,778,778,778,778,778,778,778,778,778,778,778,778,778,778,778,778,778,778,778,778,778,778,778,778,778,778,778,778,778,778,778,778,778,778,778,778,778,778,778,770,765,761,759,758,758,758,758,758,758,758,758,758,758,758,787,851,909,956,980,1003,1010,1021,1031,1042,1069,1088,1106,1110,1111,1115,1121,1131,1141,1149,1155],"ymouse":[518,518,520,520,520,520,520,520,520,520,520,520,520,520,520,520,520,520,520,520,520,520,520,520,520,520,520,520,520,520,520,520,520,520,520,520,520,520,520,520,520,520,520,520,520,520,520,520,520,520,520,520,520,520,520,520,520,520,520,520,520,520,520,520,520,520,520,520,520,520,520,520,520,520,520,515,490,476,465,460,456,455,455,455,455,455,455,455,455,455,454,431,376,330,298,282,266,260,251,241,230,199,186,170,167,164,156,150,137,121,106,93],"timestamp_mouse":[13,40,53,73,93,113,134,153,174,194,213,233,253,275,294,314,333,353,373,394,414,433,453,474,494,513,533,554,574,594,613,633,654,673,693,714,733,754,773,794,812,833,853,874,894,913,933,953,972,993,1013,1033,1053,1073,1094,1113,1132,1154,1174,1194,1214,1233,1254,1273,1293,1313,1333,1354,1374,1393,1413,1433,1453,1473,1494,1514,1533,1554,1574,1593,1613,1634,1654,1674,1693,1713,1734,1753,1773,1793,1813,1834,1853,1873,1893,1913,1934,1953,1973,1992,2014,2034,2053,2073,2094,2114,2134,2153,2174,2194,2214,2234],"xSR":741.5,"ySR":469.95,"xT1":424.9,"yT1":0,"xT2":1058.1,"yT2":0,"toosoon":0,"cond_shown":"Incongruent","ratio_trial":200,"L_num":9,"L_den":15,"R_num":8,"R_den":10,"correct_side":2,"subjID":"Nicolas Guillen Alarcon 22","gender":"0","school":"4","age":"9"},{"start_time":1552074021351,"click_time":1552074023549,"finger_time":1552074023127,"fix_duration":722.7874467097947,"trial":27,"RT":1776,"MT":422,"sideResp":2,"stimulus":[],"xmouse":[797,797,797,797,797,797,797,797,797,797,797,797,797,797,797,797,797,797,797,797,797,797,797,797,797,797,797,797,797,797,797,797,797,797,797,797,797,797,797,797,797,797,797,797,797,797,797,797,797,797,797,797,797,797,797,797,797,797,797,797,797,797,797,797,797,797,797,797,797,797,797,797,797,797,797,797,797,797,797,797,797,797,797,795,785,773,766,766,803,820,832,846,876,896,907,922,941,957,983,998,1020,1054,1061,1061,1059,1059,1059,1059,1059,1059],"ymouse":[538,538,538,538,538,538,538,538,538,538,538,538,538,538,538,538,538,538,538,538,538,538,538,538,538,538,538,538,538,538,538,538,538,538,538,538,538,538,538,538,538,538,538,538,538,538,538,538,538,538,538,538,538,538,538,538,538,538,538,538,538,538,538,538,538,538,538,538,538,538,538,538,538,538,538,538,538,538,538,538,538,538,538,533,517,497,484,475,426,399,377,353,303,291,290,286,280,271,251,243,233,210,202,189,187,170,143,131,103,94],"timestamp_mouse":[16,37,56,76,96,116,137,156,177,197,216,237,256,276,297,317,336,357,376,396,417,437,457,476,496,516,537,556,576,596,617,637,657,677,697,717,736,757,777,795,817,837,857,876,897,916,937,957,977,996,1017,1037,1056,1075,1096,1117,1135,1157,1177,1197,1215,1237,1256,1276,1296,1316,1337,1356,1376,1396,1416,1437,1456,1476,1497,1517,1537,1557,1576,1597,1617,1636,1656,1676,1697,1717,1737,1755,1776,1797,1817,1836,1858,1876,1897,1917,1937,1957,1977,1997,2017,2037,2057,2076,2097,2116,2136,2157,2176,2197],"xSR":741.5,"ySR":469.95,"xT1":424.9,"yT1":0,"xT2":1058.1,"yT2":0,"toosoon":0,"cond_shown":"Incongruent","ratio_trial":300,"L_num":13,"L_den":26,"R_num":12,"R_den":15,"correct_side":2,"subjID":"Nicolas Guillen Alarcon 22","gender":"0","school":"4","age":"9"},{"start_time":1552074026297,"click_time":1552074028147,"finger_time":1552074027587,"fix_duration":307.9465704216674,"trial":28,"RT":1290,"MT":560,"sideResp":2,"stimulus":[],"xmouse":[752,752,752,752,752,752,752,752,752,752,752,752,752,752,752,752,752,752,752,752,752,752,752,752,752,752,752,752,752,752,752,752,752,752,752,752,752,752,752,752,752,752,752,752,752,752,752,752,752,752,752,752,752,752,752,752,752,752,755,758,760,761,767,786,801,815,832,838,845,853,862,872,887,894,903,910,918,941,961,993,1049,1049,1049,1049,1049,1049,1049,1049,1049,1049,1049,1049,1142],"ymouse":[524,524,524,524,524,524,524,524,524,524,524,524,524,524,524,524,524,524,524,524,524,524,524,524,524,524,524,524,524,524,524,524,524,524,524,524,524,524,524,524,524,524,524,524,524,524,524,524,524,524,524,524,524,524,524,524,524,524,524,523,522,522,511,471,436,402,360,345,331,314,293,271,234,219,197,185,171,133,101,57,3,3,3,3,3,3,3,3,3,3,3,3,2],"timestamp_mouse":[20,30,50,70,90,111,131,150,171,191,211,230,250,271,291,310,330,350,371,391,410,430,450,470,490,510,531,551,570,590,611,630,650,671,690,710,730,751,770,791,811,830,849,871,891,910,930,951,971,991,1010,1030,1049,1070,1090,1111,1130,1150,1171,1190,1211,1231,1250,1271,1290,1311,1331,1350,1370,1391,1411,1431,1451,1471,1490,1510,1531,1550,1570,1591,1610,1631,1651,1670,1690,1711,1730,1751,1770,1791,1810,1831,1849],"xSR":741.5,"ySR":469.95,"xT1":424.9,"yT1":0,"xT2":1058.1,"yT2":0,"toosoon":0,"cond_shown":"Congruent","ratio_trial":200,"L_num":6,"L_den":12,"R_num":7,"R_den":10,"correct_side":2,"subjID":"Nicolas Guillen Alarcon 22","gender":"0","school":"4","age":"9"},{"start_time":1552074029672,"click_time":1552074031208,"finger_time":1552074030666,"fix_duration":443.96567628559234,"trial":29,"RT":994,"MT":542,"sideResp":2,"stimulus":[],"xmouse":[811,811,811,811,811,811,811,811,811,811,811,811,811,811,811,811,811,811,811,811,811,811,811,811,811,811,811,811,811,811,811,811,811,811,811,811,811,811,811,811,811,811,811,811,818,823,826,829,835,836,838,838,840,849,853,858,866,877,901,908,909,913,920,935,945,961,982,997,1013,1013,1013,1013,1013,1013,1013,1013,1074],"ymouse":[503,503,503,503,503,503,503,503,503,503,503,503,503,503,503,503,503,503,503,503,503,503,503,503,503,503,503,503,503,503,503,503,503,503,503,503,503,503,503,503,503,503,503,503,498,492,487,482,470,466,463,457,449,424,410,392,366,328,243,216,196,177,157,108,88,60,29,13,0,0,0,0,0,0,0,0,8],"timestamp_mouse":[16,37,55,75,95,116,136,156,175,196,216,236,256,276,296,316,336,356,375,396,415,435,455,476,496,516,535,556,575,595,615,635,656,675,696,715,736,756,776,796,815,836,855,875,896,916,935,955,976,994,1015,1035,1056,1076,1095,1115,1136,1156,1175,1195,1216,1236,1255,1275,1296,1315,1335,1357,1375,1396,1415,1435,1456,1475,1495,1515,1536],"xSR":741.5,"ySR":469.95,"xT1":424.9,"yT1":0,"xT2":1058.1,"yT2":0,"toosoon":0,"cond_shown":"Incongruent","ratio_trial":300,"L_num":13,"L_den":26,"R_num":12,"R_den":15,"correct_side":2,"subjID":"Nicolas Guillen Alarcon 22","gender":"0","school":"4","age":"9"},{"start_time":1552074033931,"click_time":1552074036188,"finger_time":1552074035647,"fix_duration":1383.2004503515293,"trial":30,"RT":1716,"MT":541,"sideResp":1,"stimulus":[],"xmouse":[791,791,791,791,791,791,791,791,791,791,791,791,791,791,791,791,791,791,791,791,791,791,791,791,791,791,791,791,791,791,791,791,791,791,791,791,791,791,791,791,791,791,791,791,791,791,791,791,791,791,791,791,791,791,791,791,791,791,791,791,791,791,791,791,791,791,791,791,791,791,791,791,791,791,791,791,791,791,791,791,786,776,769,758,743,709,676,630,575,481,404,387,377,370,363,343,337,336,336,342,352,357,363,369,377,397,406,412,415,415,417,422,430],"ymouse":[501,501,501,501,501,501,501,501,501,501,501,501,501,501,501,501,501,501,501,501,501,501,501,501,501,501,501,501,501,501,501,501,501,501,501,501,501,501,501,501,501,501,501,501,501,501,501,501,501,501,501,501,501,501,501,501,501,501,501,501,501,501,501,501,501,501,501,501,501,501,501,501,501,501,501,501,501,501,501,501,500,500,498,496,488,468,449,419,391,349,309,298,285,273,258,236,227,221,213,201,188,179,170,161,149,115,103,94,89,89,88,83,79],"timestamp_mouse":[17,36,57,75,96,117,136,157,176,197,216,236,256,276,296,316,336,356,377,397,417,436,456,476,496,516,536,557,576,596,616,635,657,676,696,718,737,757,776,797,816,837,857,876,897,917,936,957,976,996,1017,1036,1055,1076,1097,1119,1136,1157,1177,1197,1216,1237,1257,1276,1296,1316,1336,1357,1376,1396,1416,1436,1457,1476,1497,1517,1537,1557,1577,1596,1616,1636,1657,1676,1697,1716,1736,1757,1776,1797,1816,1836,1856,1876,1896,1917,1935,1956,1976,1997,2017,2036,2056,2077,2096,2117,2136,2156,2177,2196,2217,2237,2257],"xSR":741.5,"ySR":469.95,"xT1":424.9,"yT1":0,"xT2":1058.1,"yT2":0,"toosoon":0,"cond_shown":"Incongruent","ratio_trial":300,"L_num":1,"L_den":2,"R_num":2,"R_den":10,"correct_side":1,"subjID":"Nicolas Guillen Alarcon 22","gender":"0","school":"4","age":"9"},{"start_time":1552074042472,"click_time":1552074044608,"finger_time":1552074044067,"fix_duration":1341.2492148862023,"trial":31,"RT":1595,"MT":541,"sideResp":2,"stimulus":[],"xmouse":[788,788,788,788,788,788,788,788,788,788,788,788,788,788,788,788,788,788,788,788,788,788,788,788,788,788,788,788,788,788,788,788,788,788,788,788,788,788,788,788,788,788,788,788,788,788,788,788,788,788,788,788,788,788,788,788,788,788,788,788,788,788,788,788,788,788,788,788,788,788,788,788,788,788,788,788,788,788,787,794,808,834,860,877,900,909,918,927,928,928,928,931,936,947,966,972,974,977,989,1019,1030,1038,1043,1050,1056,1057,1062],"ymouse":[531,531,531,531,531,531,531,531,531,531,531,531,531,531,531,531,531,531,531,531,531,531,531,531,531,531,531,531,531,531,531,531,531,531,531,531,531,531,531,531,531,531,531,531,531,531,531,531,531,531,531,531,531,531,531,531,531,531,531,531,531,531,531,531,531,531,531,531,531,531,531,531,531,531,531,531,531,523,510,402,327,251,186,153,118,105,93,80,79,78,78,77,73,69,59,58,58,57,53,41,41,41,41,41,41,41,44],"timestamp_mouse":[16,40,55,75,95,116,136,155,175,195,215,235,255,275,295,316,335,355,376,395,415,436,456,475,494,515,536,555,576,595,615,635,656,676,696,716,736,756,775,795,815,836,856,875,896,916,936,956,975,995,1015,1036,1056,1075,1095,1116,1135,1156,1176,1195,1216,1236,1255,1276,1295,1315,1334,1356,1375,1395,1415,1436,1456,1475,1495,1516,1535,1555,1575,1595,1615,1635,1655,1675,1696,1715,1735,1755,1776,1795,1815,1835,1856,1875,1896,1915,1935,1955,1976,1996,2014,2036,2056,2075,2096,2115,2136],"xSR":741.5,"ySR":469.95,"xT1":424.9,"yT1":0,"xT2":1058.1,"yT2":0,"toosoon":0,"cond_shown":"Incongruent","ratio_trial":100,"L_num":10,"L_den":25,"R_num":9,"R_den":18,"correct_side":2,"subjID":"Nicolas Guillen Alarcon 22","gender":"0","school":"4","age":"9"},{"start_time":1552074047139,"click_time":1552074050467,"finger_time":1552074049928,"fix_duration":250,"trial":32,"RT":2789,"MT":539,"sideResp":1,"stimulus":[],"xmouse":[774,774,774,774,774,774,774,774,774,774,774,774,774,774,774,774,774,774,774,774,774,774,774,774,774,774,774,774,774,774,774,774,774,774,774,774,774,774,774,774,774,774,774,774,774,774,774,774,774,774,774,774,774,774,774,774,774,774,774,774,774,774,774,774,774,774,774,774,774,774,774,774,774,774,774,774,774,774,774,774,774,774,774,774,774,774,774,774,774,774,774,774,774,774,774,774,774,774,774,774,774,774,774,774,774,774,774,774,774,774,774,774,774,774,774,774,774,774,774,774,774,774,774,774,774,774,774,774,774,774,774,774,774,774,774,774,771,759,753,743,735,715,695,687,681,679,679,679,678,671,658,636,603,602,601,601,601,601,601,600,596,592,570,558,544,531,516],"ymouse":[520,520,520,520,520,520,520,520,520,520,520,520,520,520,520,520,520,520,520,520,520,520,520,520,520,520,520,520,520,520,520,520,520,520,520,520,520,520,520,520,520,520,520,520,520,520,520,520,520,520,520,520,520,520,520,520,520,520,520,520,520,520,520,520,520,520,520,520,520,520,520,520,520,520,520,520,520,520,520,520,520,520,520,520,520,520,520,520,520,520,520,520,520,520,520,520,520,520,520,520,520,520,520,520,520,520,520,520,520,520,520,520,520,520,520,520,520,520,520,520,520,520,520,520,520,520,520,520,520,520,520,520,520,520,520,520,518,505,470,410,345,281,254,250,248,247,247,247,245,235,215,185,129,121,119,119,119,119,119,117,115,112,102,95,88,81,73],"timestamp_mouse":[19,46,48,69,88,108,128,148,168,189,209,228,248,268,288,309,329,349,368,388,408,429,449,469,489,508,529,549,567,589,608,629,649,668,689,709,728,749,768,787,809,829,849,868,889,909,928,948,968,989,1009,1029,1048,1068,1088,1109,1129,1148,1169,1189,1209,1228,1249,1268,1288,1309,1329,1348,1368,1389,1408,1429,1449,1469,1488,1509,1529,1548,1569,1589,1609,1628,1648,1668,1689,1709,1728,1748,1768,1788,1808,1828,1849,1868,1888,1909,1928,1948,1969,1988,2009,2028,2049,2068,2089,2109,2129,2148,2169,2188,2208,2229,2248,2269,2288,2307,2329,2349,2369,2388,2409,2429,2448,2469,2488,2509,2528,2549,2569,2589,2608,2627,2648,2668,2688,2708,2729,2748,2768,2789,2808,2828,2848,2869,2888,2909,2928,2948,2969,2989,3008,3029,3048,3068,3088,3108,3129,3148,3169,3189,3208,3229,3248,3268,3289,3307,3328],"xSR":741.5,"ySR":469.95,"xT1":424.9,"yT1":0,"xT2":1058.1,"yT2":0,"toosoon":0,"cond_shown":"Congruent","ratio_trial":200,"L_num":8,"L_den":15,"R_num":3,"R_den":9,"correct_side":1,"subjID":"Nicolas Guillen Alarcon 22","gender":"0","school":"4","age":"9"},{"start_time":1552074057988,"click_time":1552074060488,"finger_time":1552074059789,"fix_duration":338.91357761564575,"trial":33,"RT":1801,"MT":699,"sideResp":2,"stimulus":[],"xmouse":[781,781,781,781,781,781,781,781,781,781,781,781,781,781,781,781,781,781,781,781,781,781,781,781,781,781,781,781,781,781,781,781,781,781,781,781,781,781,781,781,781,781,781,781,781,781,781,781,781,781,781,781,781,781,781,781,781,781,781,781,781,781,781,781,781,781,781,781,781,781,781,781,781,781,781,781,781,781,781,781,781,781,781,781,781,783,784,786,789,793,796,800,803,805,809,819,855,874,894,913,930,948,951,955,962,974,989,996,1002,1009,1017,1032,1043,1054,1062,1068,1070,1071,1071,1072,1072,1074,1077,1081,1088,1097],"ymouse":[509,509,509,509,509,509,509,509,509,509,509,509,509,510,510,510,510,510,510,510,510,510,510,510,510,510,510,510,510,510,510,510,510,510,510,510,510,510,510,510,510,510,510,510,510,510,510,510,510,510,510,510,510,510,510,510,510,510,510,510,510,510,510,510,510,510,510,510,510,510,510,510,510,510,510,510,510,510,510,510,510,510,508,505,504,499,493,488,480,471,466,454,450,445,437,426,397,385,374,363,356,345,341,335,326,313,291,274,257,241,227,202,187,174,163,152,148,147,146,145,144,142,136,126,116,97],"timestamp_mouse":[1,30,38,60,80,98,120,139,160,179,200,219,240,260,279,299,319,339,359,379,400,420,439,459,481,499,521,541,561,579,600,621,641,661,680,700,721,740,759,781,800,820,840,861,881,899,921,940,960,981,999,1019,1040,1060,1081,1099,1119,1139,1161,1181,1199,1221,1240,1259,1280,1301,1321,1339,1359,1379,1401,1419,1439,1461,1481,1500,1520,1541,1560,1581,1600,1621,1639,1660,1679,1701,1721,1741,1759,1780,1801,1819,1840,1861,1879,1899,1920,1941,1960,1981,2000,2020,2039,2061,2080,2101,2120,2140,2160,2180,2200,2220,2240,2260,2280,2301,2320,2340,2359,2380,2400,2421,2441,2460,2480,2500],"xSR":741.5,"ySR":469.95,"xT1":424.9,"yT1":0,"xT2":1058.1,"yT2":0,"toosoon":0,"cond_shown":"Congruent","ratio_trial":300,"L_num":1,"L_den":5,"R_num":6,"R_den":12,"correct_side":2,"subjID":"Nicolas Guillen Alarcon 22","gender":"0","school":"4","age":"9"},{"start_time":1552074062445,"click_time":1552074064428,"finger_time":1552074062729,"fix_duration":934.3611309449727,"trial":34,"RT":284,"MT":1699,"sideResp":1,"stimulus":[],"xmouse":[837,837,837,837,837,837,837,837,837,837,837,837,838,841,843,844,845,845,845,845,845,845,845,845,845,845,845,845,845,845,845,845,845,845,845,845,845,845,845,845,845,845,845,845,845,845,845,843,836,833,829,827,825,814,811,811,811,811,811,810,810,810,810,810,810,810,810,810,810,810,810,810,810,810,810,810,810,810,810,810,810,810,810,810,810,810,810,811,851,925,995,999,992,921,864,796,722,643,566,449],"ymouse":[496,496,496,496,496,496,496,496,493,493,493,493,491,483,478,474,471,470,470,470,470,470,470,470,470,470,470,470,470,470,470,470,470,470,470,470,470,470,470,470,470,470,470,470,470,470,470,473,480,483,486,488,491,506,509,509,509,509,509,510,510,510,510,510,510,510,510,510,510,510,510,510,510,510,510,510,510,510,510,510,510,510,510,510,510,510,510,509,485,444,402,397,380,300,258,216,175,136,92,27],"timestamp_mouse":[4,37,43,64,83,103,124,144,163,183,202,223,243,263,284,303,323,344,363,383,403,423,442,463,482,503,524,544,563,582,604,624,644,663,683,703,722,742,764,784,804,823,843,863,884,904,923,943,963,984,1003,1023,1043,1063,1082,1103,1124,1143,1163,1183,1203,1224,1242,1263,1283,1302,1322,1343,1363,1383,1403,1422,1444,1463,1484,1503,1522,1543,1564,1584,1603,1622,1643,1662,1682,1704,1723,1742,1764,1783,1803,1823,1843,1864,1883,1904,1924,1943,1963,1983],"xSR":741.5,"ySR":469.95,"xT1":424.9,"yT1":0,"xT2":1058.1,"yT2":0,"toosoon":0,"cond_shown":"Congruent","ratio_trial":300,"L_num":5,"L_den":25,"R_num":7,"R_den":14,"correct_side":2,"subjID":"Nicolas Guillen Alarcon 22","gender":"0","school":"4","age":"9"},{"start_time":1552074068091,"click_time":1552074069129,"finger_time":1552074068948,"fix_duration":661.9930656995278,"trial":35,"RT":857,"MT":181,"sideResp":1,"stimulus":[],"xmouse":[771,771,771,771,771,771,771,771,771,771,771,771,771,771,771,771,771,771,771,771,771,771,771,771,771,771,771,771,771,771,771,771,771,771,771,771,771,771,771,771,771,769,760,730,715,674,612,582,548,520,504,499],"ymouse":[490,490,490,490,490,490,490,490,490,490,490,490,490,490,490,490,490,490,490,490,490,490,490,490,490,490,490,490,490,490,490,490,490,490,490,490,490,490,490,490,488,474,453,404,384,332,262,223,178,130,103,90],"timestamp_mouse":[17,37,65,77,97,118,136,156,176,198,217,238,257,276,296,318,337,357,377,397,418,437,456,478,498,517,538,557,577,598,618,638,656,677,697,718,736,757,778,798,817,836,857,877,897,918,937,957,977,998,1018,1037],"xSR":741.5,"ySR":469.95,"xT1":424.9,"yT1":0,"xT2":1058.1,"yT2":0,"toosoon":0,"cond_shown":"Congruent","ratio_trial":200,"L_num":12,"L_den":15,"R_num":6,"R_den":10,"correct_side":1,"subjID":"Nicolas Guillen Alarcon 22","gender":"0","school":"4","age":"9"},{"start_time":1552074076058,"click_time":1552074078369,"finger_time":1552074077548,"fix_duration":628.4709823078026,"trial":36,"RT":1490,"MT":821,"sideResp":2,"stimulus":[],"xmouse":[757,757,757,757,757,757,757,757,757,757,757,757,757,757,757,757,757,757,757,757,757,757,757,757,757,757,757,757,757,757,757,757,757,757,757,757,757,757,757,757,757,757,757,757,757,757,757,757,757,757,757,757,757,757,757,757,757,757,757,757,757,757,757,757,757,757,757,757,757,757,757,757,760,781,868,892,906,918,927,960,991,1030,1069,1124,1182,1204,1228,1243,1258,1286,1298,1302,1302,1302,1302,1302,1302,1302,1286,1271,1260,1248,1236,1224,1216,1216,1216,1210,1203,1191,1176,1174,1172,1172,1169,1154],"ymouse":[508,508,508,508,508,508,508,5