[{"start_time":1552312876346,"click_time":1552312881100,"finger_time":1552312877159,"fix_duration":1302.6266404929352,"trial":0,"RT":813,"MT":3941,"sideResp":2,"stimulus":[],"xmouse":[782,782,782,782,782,782,782,782,782,782,782,782,782,782,782,782,782,782,782,782,782,782,782,782,782,782,782,782,782,782,782,782,782,781,780,779,778,777,776,774,769,763,762,761,761,761,760,760,764,773,786,847,900,949,992,1032,1062,1077,1078,1078,1078,1080,1082,1085,1086,1086,1086,1086,1086,1086,1085,1077,1071,1064,1057,1049,1030,1020,1004,990,973,958,929,910,895,884,866,865,865,864,864,863,863,863,863,863,860,856,854,854,853,853,851,850,846,841,834,831,829,827,825,822,821,820,820,820,818,813,808,804,800,795,793,789,788,787,787,787,787,787,787,787,787,787,787,787,787,786,786,786,785,785,785,785,785,785,785,785,785,785,785,785,785,785,785,784,784,784,784,784,784,784,784,784,784,784,784,784,784,784,784,784,784,784,784,784,784,784,784,784,784,784,784,784,784,784,784,784,784,784,784,784,784,784,784,784,784,784,784,784,784,784,784,784,784,784,784,784,784,784,784,784,784,784,784,784,784,784,784,785,792,849,892,951,1011,1072,1156,1162,1163,1163,1163,1163,1163,1163,1163,1163,1161,1157],"ymouse":[565,565,565,565,565,565,565,565,565,565,565,565,565,565,565,565,565,565,565,565,565,565,565,565,565,565,565,565,565,565,565,565,565,561,556,550,523,510,497,482,468,449,445,442,441,438,428,401,382,359,336,282,254,231,211,197,183,178,178,178,178,178,178,178,178,178,178,178,178,178,178,177,177,177,177,177,214,244,294,348,410,472,576,614,638,652,668,669,669,669,668,642,624,603,585,566,543,527,525,525,524,524,525,526,530,536,545,554,557,559,562,564,564,564,564,564,564,562,558,556,554,551,551,549,549,549,549,549,549,549,549,549,549,549,549,549,549,549,551,553,556,561,562,562,562,562,562,562,562,562,562,562,562,562,562,563,563,563,563,563,563,563,563,563,563,563,563,563,563,563,563,563,563,563,563,563,563,563,563,563,563,563,563,563,563,563,563,563,563,563,563,563,563,563,563,563,563,563,563,563,563,563,563,563,563,563,563,563,563,563,563,563,563,563,563,563,563,563,563,563,558,489,426,352,282,219,116,99,94,94,94,94,94,94,94,93,93,90],"timestamp_mouse":[12,38,54,73,93,114,132,153,172,192,213,232,252,272,292,312,332,353,372,393,414,433,453,472,492,512,533,552,572,593,613,632,652,672,692,713,733,752,772,794,813,833,852,872,892,913,932,953,972,994,1013,1033,1052,1072,1093,1113,1132,1154,1173,1193,1213,1233,1252,1272,1293,1313,1333,1354,1373,1393,1412,1434,1452,1472,1493,1513,1533,1553,1572,1593,1613,1632,1652,1672,1692,1712,1733,1752,1772,1793,1814,1834,1853,1872,1893,1914,1933,1953,1973,1993,2013,2033,2052,2073,2092,2113,2133,2154,2173,2193,2212,2233,2252,2273,2292,2313,2332,2354,2372,2392,2413,2433,2452,2474,2492,2513,2532,2553,2572,2594,2612,2633,2652,2674,2694,2713,2732,2753,2772,2793,2813,2833,2853,2873,2893,2913,2934,2953,2973,2993,3012,3033,3052,3072,3092,3112,3133,3154,3173,3194,3213,3233,3253,3274,3294,3312,3333,3354,3373,3393,3414,3432,3454,3472,3493,3513,3533,3554,3574,3593,3613,3634,3654,3673,3693,3714,3733,3753,3772,3792,3814,3832,3852,3872,3894,3913,3933,3954,3973,3992,4014,4032,4052,4072,4094,4112,4133,4152,4172,4193,4212,4232,4252,4273,4292,4313,4333,4352,4374,4392,4413,4433,4453,4474,4492,4513,4533,4553,4572,4593,4614,4633,4653,4673,4692,4712,4732,4753],"xSR":741.5,"ySR":469.95,"xT1":424.9,"yT1":0,"xT2":1058.1,"yT2":0,"toosoon":0,"cond_shown":"Congruent","ratio_trial":200,"L_num":12,"L_den":15,"R_num":6,"R_den":10,"correct_side":1,"subjID":"orihanagomez27","gender":"1","age":"9","school":"4","test":{"fix_dur":[250,1500],"timestim":1000,"targets_dim":[100,100],"targets_relative_coord":[0.3,0.7],"size_stim":[880,420],"start_dim":[100,100],"size_start":[300,300],"size_fix":60,"samplingrate":20,"img_types":["Congruent","Incongruent"],"ratios":[100,200,300],"rep_conds":19,"nTrials":120,"trials_to_rest":500,"Trials_order":[38,118,110,43,7,90,114,49,108,92,16,42,98,91,81,53,23,113,95,57,17,67,99,87,79,51,35,11,26,40,107,41,102,82,46,62,111,74,88,12,39,3,72,117,61,115,78,15,65,96,37,55,86,13,31,93,21,112,75,64,106,119,25,45,20,22,68,63,44,52,1,47,80,10,71,48,109,6,105,73,32,36,83,5,19,30,0,18,59,103,94,50,28,4,24,27,29,66,58,116,34,76,85,69,97,2,84,8,70,33,9,104,77,89,14,54,60,100,56,101],"cond_shown":["Congruent","Congruent","Congruent","Incongruent","Incongruent","Congruent","Congruent","Incongruent","Congruent","Congruent","Congruent","Congruent","Congruent","Incongruent","Incongruent","Incongruent","Incongruent","Incongruent","Incongruent","Incongruent","Incongruent","Incongruent","Incongruent","Incongruent","Incongruent","Incongruent","Incongruent","Incongruent","Congruent","Congruent","Incongruent","Incongruent","Congruent","Congruent","Congruent","Congruent","Incongruent","Congruent","Congruent","Congruent","Incongruent","Incongruent","Congruent","Incongruent","Incongruent","Incongruent","Congruent","Incongruent","Incongruent","Congruent","Incongruent","Incongruent","Congruent","Incongruent","Incongruent","Incongruent","Incongruent","Congruent","Incongruent","Congruent","Congruent","Incongruent","Incongruent","Incongruent","Congruent","Congruent","Congruent","Incongruent","Congruent","Congruent","Incongruent","Incongruent","Congruent","Congruent","Incongruent","Congruent","Incongruent","Congruent","Incongruent","Incongruent","Congruent","Congruent","Incongruent","Incongruent","Incongruent","Congruent","Congruent","Congruent","Incongruent","Incongruent","Congruent","Congruent","Congruent","Congruent","Congruent","Incongruent","Incongruent","Congruent","Congruent","Congruent","Congruent","Congruent","Incongruent","Incongruent","Incongruent","Congruent","Congruent","Congruent","Congruent","Incongruent","Incongruent","Congruent","Incongruent","Incongruent","Congruent","Congruent","Congruent","Congruent","Congruent","Incongruent"],"ratio_trial":[200,300,200,100,100,100,100,100,100,200,300,100,200,100,200,300,300,300,300,200,300,100,200,200,100,200,300,300,200,300,300,300,100,300,300,200,200,200,300,100,200,200,100,200,100,100,100,200,300,100,100,100,200,100,100,200,200,300,200,300,300,300,100,200,200,300,200,200,200,300,100,300,200,300,300,100,100,100,200,100,200,100,300,300,100,100,100,100,300,100,300,200,300,300,100,200,300,100,300,200,300,300,100,200,100,200,100,200,300,200,200,200,300,300,200,100,100,300,200,300],"left_num":[12,1,3,10,3,15,3,6,7,12,1,9,3,1,4,7,4,13,1,11,13,10,1,14,2,9,2,13,3,1,7,2,1,1,1,9,1,12,4,10,14,1,1,14,3,8,6,14,13,4,10,12,9,9,2,7,6,3,11,3,1,13,1,4,6,20,3,3,1,20,3,1,9,7,4,8,11,9,6,4,8,3,7,13,13,11,7,10,4,10,1,13,1,1,11,4,3,10,24,5,3,4,2,14,17,11,7,6,5,4,11,6,4,13,16,3,15,2,16,4],"right_num":[6,8,11,8,8,13,4,3,15,6,6,8,9,8,14,8,6,12,3,3,12,8,3,12,8,8,6,12,14,7,8,6,3,7,19,4,3,6,2,3,6,3,3,12,11,1,5,12,12,15,8,2,13,14,8,12,3,2,3,2,19,12,8,14,3,5,14,1,21,13,8,3,13,20,2,2,9,8,3,8,7,4,8,12,6,4,9,3,8,8,11,14,19,6,6,6,4,3,8,14,2,13,6,6,10,3,15,7,7,14,3,3,2,12,9,2,13,10,9,2],"left_den":[15,30,10,25,5,25,20,12,14,15,5,15,12,2,6,10,5,26,2,20,26,25,2,30,4,15,4,26,6,20,10,4,2,20,3,20,2,15,5,25,30,2,2,30,5,20,20,30,26,10,25,30,30,15,4,10,20,6,20,6,3,26,2,6,15,25,6,10,2,25,5,2,30,14,20,16,22,15,20,8,15,20,10,26,26,22,14,25,5,25,5,26,3,5,22,5,6,25,30,10,6,20,4,30,30,22,14,12,25,6,20,15,20,26,30,6,25,20,30,20],"right_den":[10,24,22,16,16,26,16,5,25,10,12,16,20,20,30,20,12,15,15,4,15,16,10,18,20,10,30,15,20,20,20,30,5,20,30,16,10,10,4,10,9,10,5,18,22,2,25,18,15,30,16,4,26,28,20,24,6,10,4,10,30,15,20,30,15,10,20,2,30,26,16,15,26,25,4,5,15,16,6,20,21,16,20,15,10,10,15,10,16,16,22,20,30,12,15,10,20,10,16,20,10,26,15,9,15,10,25,10,14,30,4,15,4,15,27,5,26,25,27,4],"correct_side":[1,2,2,2,1,1,2,2,2,1,2,1,2,1,1,1,1,2,1,2,2,2,1,2,1,2,1,2,2,2,1,1,2,2,2,1,1,1,1,1,2,1,2,2,1,2,1,2,2,2,2,2,2,1,1,1,2,1,2,1,2,2,1,1,1,1,2,2,2,1,1,1,2,2,2,1,2,1,2,1,1,2,1,2,2,1,2,1,1,2,2,2,2,2,1,1,1,1,1,2,1,2,1,2,2,1,2,2,2,1,2,1,2,2,1,1,1,2,1,2],"img_shown":["img2/200/Congruent/L/C_Dist_200_LN_12_LD_15_RN_6_RD_10_0.png","img2/300/Congruent/R/C_Dist_300_LN_1_LD_30_RN_8_RD_24_1.png","img2/200/Congruent/R/C_Dist_200_LN_3_LD_10_RN_11_RD_22_1.png","img2/100/Incongruent/R/I_Dist_100_LN_10_LD_25_RN_8_RD_16_1.png","img2/100/Incongruent/L/I_Dist_100_LN_3_LD_5_RN_8_RD_16_0.png","img2/100/Congruent/L/C_Dist_100_LN_15_LD_25_RN_13_RD_26_0.png","img2/100/Congruent/R/C_Dist_100_LN_3_LD_20_RN_4_RD_16_1.png","img2/100/Incongruent/R/I_Dist_100_LN_6_LD_12_RN_3_RD_5_1.png","img2/100/Congruent/R/C_Dist_100_LN_7_LD_14_RN_15_RD_25_1.png","img2/200/Congruent/L/C_Dist_200_LN_12_LD_15_RN_6_RD_10_0.png","img2/300/Congruent/R/C_Dist_300_LN_1_LD_5_RN_6_RD_12_1.png","img2/100/Congruent/L/C_Dist_100_LN_9_LD_15_RN_8_RD_16_0.png","img2/200/Congruent/R/C_Dist_200_LN_3_LD_12_RN_9_RD_20_1.png","img2/100/Incongruent/L/I_Dist_100_LN_1_LD_2_RN_8_RD_20_0.png","img2/200/Incongruent/L/I_Dist_200_LN_4_LD_6_RN_14_RD_30_0.png","img2/300/Incongruent/L/I_Dist_300_LN_7_LD_10_RN_8_RD_20_0.png","img2/300/Incongruent/L/I_Dist_300_LN_4_LD_5_RN_6_RD_12_0.png","img2/300/Incongruent/R/I_Dist_300_LN_13_LD_26_RN_12_RD_15_1.png","img2/300/Incongruent/L/I_Dist_300_LN_1_LD_2_RN_3_RD_15_0.png","img2/200/Incongruent/R/I_Dist_200_LN_11_LD_20_RN_3_RD_4_1.png","img2/300/Incongruent/R/I_Dist_300_LN_13_LD_26_RN_12_RD_15_1.png","img2/100/Incongruent/R/I_Dist_100_LN_10_LD_25_RN_8_RD_16_1.png","img2/200/Incongruent/L/I_Dist_200_LN_1_LD_2_RN_3_RD_10_0.png","img2/200/Incongruent/R/I_Dist_200_LN_14_LD_30_RN_12_RD_18_1.png","img2/100/Incongruent/L/I_Dist_100_LN_2_LD_4_RN_8_RD_20_0.png","img2/200/Incongruent/R/I_Dist_200_LN_9_LD_15_RN_8_RD_10_1.png","img2/300/Incongruent/L/I_Dist_300_LN_2_LD_4_RN_6_RD_30_0.png","img2/300/Incongruent/R/I_Dist_300_LN_13_LD_26_RN_12_RD_15_1.png","img2/200/Congruent/R/C_Dist_200_LN_3_LD_6_RN_14_RD_20_1.png","img2/300/Congruent/R/C_Dist_300_LN_1_LD_20_RN_7_RD_20_1.png","img2/300/Incongruent/L/I_Dist_300_LN_7_LD_10_RN_8_RD_20_0.png","img2/300/Incongruent/L/I_Dist_300_LN_2_LD_4_RN_6_RD_30_0.png","img2/100/Congruent/R/C_Dist_100_LN_1_LD_2_RN_3_RD_5_1.png","img2/300/Congruent/R/C_Dist_300_LN_1_LD_20_RN_7_RD_20_1.png","img2/300/Congruent/R/C_Dist_300_LN_1_LD_3_RN_19_RD_30_1.png","img2/200/Congruent/L/C_Dist_200_LN_9_LD_20_RN_4_RD_16_0.png","img2/200/Incongruent/L/I_Dist_200_LN_1_LD_2_RN_3_RD_10_0.png","img2/200/Congruent/L/C_Dist_200_LN_12_LD_15_RN_6_RD_10_0.png","img2/300/Congruent/L/C_Dist_300_LN_4_LD_5_RN_2_RD_4_0.png","img2/100/Congruent/L/C_Dist_100_LN_10_LD_25_RN_3_RD_10_0.png","img2/200/Incongruent/R/I_Dist_200_LN_14_LD_30_RN_6_RD_9_1.png","img2/200/Incongruent/L/I_Dist_200_LN_1_LD_2_RN_3_RD_10_0.png","img2/100/Congruent/R/C_Dist_100_LN_1_LD_2_RN_3_RD_5_1.png","img2/200/Incongruent/R/I_Dist_200_LN_14_LD_30_RN_12_RD_18_1.png","img2/100/Incongruent/L/I_Dist_100_LN_3_LD_5_RN_11_RD_22_0.png","img2/100/Incongruent/R/I_Dist_100_LN_8_LD_20_RN_1_RD_2_1.png","img2/100/Congruent/L/C_Dist_100_LN_6_LD_20_RN_5_RD_25_0.png","img2/200/Incongruent/R/I_Dist_200_LN_14_LD_30_RN_12_RD_18_1.png","img2/300/Incongruent/R/I_Dist_300_LN_13_LD_26_RN_12_RD_15_1.png","img2/100/Congruent/R/C_Dist_100_LN_4_LD_10_RN_15_RD_30_1.png","img2/100/Incongruent/R/I_Dist_100_LN_10_LD_25_RN_8_RD_16_1.png","img2/100/Incongruent/R/I_Dist_100_LN_12_LD_30_RN_2_RD_4_1.png","img2/200/Congruent/R/C_Dist_200_LN_9_LD_30_RN_13_RD_26_1.png","img2/100/Incongruent/L/I_Dist_100_LN_9_LD_15_RN_14_RD_28_0.png","img2/100/Incongruent/L/I_Dist_100_LN_2_LD_4_RN_8_RD_20_0.png","img2/200/Incongruent/L/I_Dist_200_LN_7_LD_10_RN_12_RD_24_0.png","img2/200/Incongruent/R/I_Dist_200_LN_6_LD_20_RN_3_RD_6_1.png","img2/300/Congruent/L/C_Dist_300_LN_3_LD_6_RN_2_RD_10_0.png","img2/200/Incongruent/R/I_Dist_200_LN_11_LD_20_RN_3_RD_4_1.png","img2/300/Congruent/L/C_Dist_300_LN_3_LD_6_RN_2_RD_10_0.png","img2/300/Congruent/R/C_Dist_300_LN_1_LD_3_RN_19_RD_30_1.png","img2/300/Incongruent/R/I_Dist_300_LN_13_LD_26_RN_12_RD_15_1.png","img2/100/Incongruent/L/I_Dist_100_LN_1_LD_2_RN_8_RD_20_0.png","img2/200/Incongruent/L/I_Dist_200_LN_4_LD_6_RN_14_RD_30_0.png","img2/200/Congruent/L/C_Dist_200_LN_6_LD_15_RN_3_RD_15_0.png","img2/300/Congruent/L/C_Dist_300_LN_20_LD_25_RN_5_RD_10_0.png","img2/200/Congruent/R/C_Dist_200_LN_3_LD_6_RN_14_RD_20_1.png","img2/200/Incongruent/R/I_Dist_200_LN_3_LD_10_RN_1_RD_2_1.png","img2/200/Congruent/R/C_Dist_200_LN_1_LD_2_RN_21_RD_30_1.png","img2/300/Congruent/L/C_Dist_300_LN_20_LD_25_RN_13_RD_26_0.png","img2/100/Incongruent/L/I_Dist_100_LN_3_LD_5_RN_8_RD_16_0.png","img2/300/Incongruent/L/I_Dist_300_LN_1_LD_2_RN_3_RD_15_0.png","img2/200/Congruent/R/C_Dist_200_LN_9_LD_30_RN_13_RD_26_1.png","img2/300/Congruent/R/C_Dist_300_LN_7_LD_14_RN_20_RD_25_1.png","img2/300/Incongruent/R/I_Dist_300_LN_4_LD_20_RN_2_RD_4_1.png","img2/100/Congruent/L/C_Dist_100_LN_8_LD_16_RN_2_RD_5_0.png","img2/100/Incongruent/R/I_Dist_100_LN_11_LD_22_RN_9_RD_15_1.png","img2/100/Congruent/L/C_Dist_100_LN_9_LD_15_RN_8_RD_16_0.png","img2/200/Incongruent/R/I_Dist_200_LN_6_LD_20_RN_3_RD_6_1.png","img2/100/Incongruent/L/I_Dist_100_LN_4_LD_8_RN_8_RD_20_0.png","img2/200/Congruent/L/C_Dist_200_LN_8_LD_15_RN_7_RD_21_0.png","img2/100/Congruent/R/C_Dist_100_LN_3_LD_20_RN_4_RD_16_1.png","img2/300/Incongruent/L/I_Dist_300_LN_7_LD_10_RN_8_RD_20_0.png","img2/300/Incongruent/R/I_Dist_300_LN_13_LD_26_RN_12_RD_15_1.png","img2/100/Incongruent/R/I_Dist_100_LN_13_LD_26_RN_6_RD_10_1.png","img2/100/Congruent/L/C_Dist_100_LN_11_LD_22_RN_4_RD_10_0.png","img2/100/Congruent/R/C_Dist_100_LN_7_LD_14_RN_9_RD_15_1.png","img2/100/Congruent/L/C_Dist_100_LN_10_LD_25_RN_3_RD_10_0.png","img2/300/Incongruent/L/I_Dist_300_LN_4_LD_5_RN_8_RD_16_0.png","img2/100/Incongruent/R/I_Dist_100_LN_10_LD_25_RN_8_RD_16_1.png","img2/300/Congruent/R/C_Dist_300_LN_1_LD_5_RN_11_RD_22_1.png","img2/200/Congruent/R/C_Dist_200_LN_13_LD_26_RN_14_RD_20_1.png","img2/300/Congruent/R/C_Dist_300_LN_1_LD_3_RN_19_RD_30_1.png","img2/300/Congruent/R/C_Dist_300_LN_1_LD_5_RN_6_RD_12_1.png","img2/100/Congruent/L/C_Dist_100_LN_11_LD_22_RN_6_RD_15_0.png","img2/200/Incongruent/L/I_Dist_200_LN_4_LD_5_RN_6_RD_10_0.png","img2/300/Incongruent/L/I_Dist_300_LN_3_LD_6_RN_4_RD_20_0.png","img2/100/Congruent/L/C_Dist_100_LN_10_LD_25_RN_3_RD_10_0.png","img2/300/Congruent/L/C_Dist_300_LN_24_LD_30_RN_8_RD_16_0.png","img2/200/Congruent/R/C_Dist_200_LN_5_LD_10_RN_14_RD_20_1.png","img2/300/Congruent/L/C_Dist_300_LN_3_LD_6_RN_2_RD_10_0.png","img2/300/Congruent/R/C_Dist_300_LN_4_LD_20_RN_13_RD_26_1.png","img2/100/Incongruent/L/I_Dist_100_LN_2_LD_4_RN_6_RD_15_0.png","img2/200/Incongruent/R/I_Dist_200_LN_14_LD_30_RN_6_RD_9_1.png","img2/100/Incongruent/R/I_Dist_100_LN_17_LD_30_RN_10_RD_15_1.png","img2/200/Congruent/L/C_Dist_200_LN_11_LD_22_RN_3_RD_10_0.png","img2/100/Congruent/R/C_Dist_100_LN_7_LD_14_RN_15_RD_25_1.png","img2/200/Congruent/R/C_Dist_200_LN_6_LD_12_RN_7_RD_10_1.png","img2/300/Congruent/R/C_Dist_300_LN_5_LD_25_RN_7_RD_14_1.png","img2/200/Incongruent/L/I_Dist_200_LN_4_LD_6_RN_14_RD_30_0.png","img2/200/Incongruent/R/I_Dist_200_LN_11_LD_20_RN_3_RD_4_1.png","img2/200/Congruent/L/C_Dist_200_LN_6_LD_15_RN_3_RD_15_0.png","img2/300/Incongruent/R/I_Dist_300_LN_4_LD_20_RN_2_RD_4_1.png","img2/300/Incongruent/R/I_Dist_300_LN_13_LD_26_RN_12_RD_15_1.png","img2/200/Congruent/L/C_Dist_200_LN_16_LD_30_RN_9_RD_27_0.png","img2/100/Congruent/L/C_Dist_100_LN_3_LD_6_RN_2_RD_5_0.png","img2/100/Congruent/L/C_Dist_100_LN_15_LD_25_RN_13_RD_26_0.png","img2/300/Congruent/R/C_Dist_300_LN_2_LD_20_RN_10_RD_25_1.png","img2/200/Congruent/L/C_Dist_200_LN_16_LD_30_RN_9_RD_27_0.png","img2/300/Incongruent/R/I_Dist_300_LN_4_LD_20_RN_2_RD_4_1.png"],"dist100_C":[["C_Dist_100_LN_10_LD_25_RN_3_RD_10_0.png","C_Dist_100_LN_11_LD_22_RN_4_RD_10_0.png","C_Dist_100_LN_11_LD_22_RN_6_RD_15_0.png","C_Dist_100_LN_15_LD_25_RN_13_RD_26_0.png","C_Dist_100_LN_3_LD_6_RN_2_RD_5_0.png","C_Dist_100_LN_6_LD_20_RN_5_RD_25_0.png","C_Dist_100_LN_8_LD_16_RN_2_RD_5_0.png","C_Dist_100_LN_9_LD_15_RN_8_RD_16_0.png"],["C_Dist_100_LN_1_LD_2_RN_18_RD_30_1.png","C_Dist_100_LN_1_LD_2_RN_3_RD_5_1.png","C_Dist_100_LN_12_LD_30_RN_13_RD_26_1.png","C_Dist_100_LN_2_LD_5_RN_11_RD_22_1.png","C_Dist_100_LN_2_LD_5_RN_6_RD_12_1.png","C_Dist_100_LN_3_LD_20_RN_4_RD_16_1.png","C_Dist_100_LN_4_LD_10_RN_15_RD_30_1.png","C_Dist_100_LN_4_LD_8_RN_6_RD_10_1.png","C_Dist_100_LN_6_LD_12_RN_15_RD_25_1.png","C_Dist_100_LN_7_LD_14_RN_15_RD_25_1.png","C_Dist_100_LN_7_LD_14_RN_9_RD_15_1.png"]],"dist100_I":[["I_Dist_100_LN_1_LD_2_RN_8_RD_20_0.png","I_Dist_100_LN_2_LD_4_RN_6_RD_15_0.png","I_Dist_100_LN_2_LD_4_RN_8_RD_20_0.png","I_Dist_100_LN_3_LD_5_RN_11_RD_22_0.png","I_Dist_100_LN_3_LD_5_RN_8_RD_16_0.png","I_Dist_100_LN_3_LD_6_RN_4_RD_10_0.png","I_Dist_100_LN_3_LD_9_RN_7_RD_30_0.png","I_Dist_100_LN_4_LD_8_RN_8_RD_20_0.png","I_Dist_100_LN_6_LD_10_RN_11_RD_22_0.png","I_Dist_100_LN_6_LD_10_RN_13_RD_26_0.png","I_Dist_100_LN_6_LD_10_RN_7_RD_14_0.png","I_Dist_100_LN_9_LD_10_RN_20_RD_25_0.png","I_Dist_100_LN_9_LD_15_RN_13_RD_26_0.png","I_Dist_100_LN_9_LD_15_RN_14_RD_28_0.png"],["I_Dist_100_LN_10_LD_25_RN_8_RD_16_1.png","I_Dist_100_LN_10_LD_25_RN_9_RD_18_1.png","I_Dist_100_LN_11_LD_22_RN_9_RD_15_1.png","I_Dist_100_LN_12_LD_24_RN_9_RD_15_1.png","I_Dist_100_LN_12_LD_30_RN_2_RD_4_1.png","I_Dist_100_LN_13_LD_26_RN_12_RD_20_1.png","I_Dist_100_LN_13_LD_26_RN_6_RD_10_1.png","I_Dist_100_LN_17_LD_30_RN_10_RD_15_1.png","I_Dist_100_LN_6_LD_12_RN_3_RD_5_1.png","I_Dist_100_LN_8_LD_16_RN_6_RD_10_1.png","I_Dist_100_LN_8_LD_20_RN_1_RD_2_1.png","I_Dist_100_LN_9_LD_18_RN_6_RD_10_1.png"]],"dist100_S":[["E_Dist_100_LN_2_LD_12_RN_2_RD_30_0.png","E_Dist_100_LN_6_LD_10_RN_6_RD_12_0.png"],["E_Dist_100_LN_6_LD_12_RN_6_RD_10_1.png"]],"dist200_C":[["C_Dist_200_LN_11_LD_22_RN_3_RD_10_0.png","C_Dist_200_LN_12_LD_15_RN_6_RD_10_0.png","C_Dist_200_LN_12_LD_20_RN_6_RD_15_0.png","C_Dist_200_LN_14_LD_28_RN_6_RD_20_0.png","C_Dist_200_LN_15_LD_25_RN_4_RD_10_0.png","C_Dist_200_LN_16_LD_20_RN_12_RD_20_0.png","C_Dist_200_LN_16_LD_30_RN_9_RD_27_0.png","C_Dist_200_LN_20_LD_25_RN_9_RD_15_0.png","C_Dist_200_LN_21_LD_30_RN_2_RD_4_0.png","C_Dist_200_LN_4_LD_10_RN_3_RD_15_0.png","C_Dist_200_LN_4_LD_8_RN_3_RD_10_0.png","C_Dist_200_LN_6_LD_15_RN_3_RD_15_0.png","C_Dist_200_LN_7_LD_21_RN_2_RD_15_0.png","C_Dist_200_LN_8_LD_15_RN_2_RD_6_0.png","C_Dist_200_LN_8_LD_15_RN_3_RD_9_0.png","C_Dist_200_LN_8_LD_15_RN_7_RD_21_0.png","C_Dist_200_LN_9_LD_20_RN_4_RD_16_0.png"],["C_Dist_200_LN_1_LD_2_RN_21_RD_30_1.png","C_Dist_200_LN_13_LD_26_RN_14_RD_20_1.png","C_Dist_200_LN_3_LD_10_RN_11_RD_22_1.png","C_Dist_200_LN_3_LD_10_RN_14_RD_28_1.png","C_Dist_200_LN_3_LD_10_RN_7_RD_14_1.png","C_Dist_200_LN_3_LD_12_RN_9_RD_20_1.png","C_Dist_200_LN_3_LD_6_RN_14_RD_20_1.png","C_Dist_200_LN_5_LD_10_RN_14_RD_20_1.png","C_Dist_200_LN_6_LD_12_RN_7_RD_10_1.png","C_Dist_200_LN_6_LD_20_RN_11_RD_22_1.png","C_Dist_200_LN_7_LD_15_RN_18_RD_27_1.png","C_Dist_200_LN_9_LD_30_RN_13_RD_26_1.png"]],"dist200_I":[["I_Dist_200_LN_1_LD_2_RN_3_RD_10_0.png","I_Dist_200_LN_1_LD_3_RN_2_RD_15_0.png","I_Dist_200_LN_3_LD_4_RN_11_RD_20_0.png","I_Dist_200_LN_4_LD_5_RN_6_RD_10_0.png","I_Dist_200_LN_4_LD_6_RN_14_RD_30_0.png","I_Dist_200_LN_7_LD_10_RN_12_RD_24_0.png","I_Dist_200_LN_7_LD_10_RN_14_RD_28_0.png","I_Dist_200_LN_7_LD_10_RN_8_RD_16_0.png"],["I_Dist_200_LN_11_LD_20_RN_3_RD_4_1.png","I_Dist_200_LN_14_LD_30_RN_12_RD_18_1.png","I_Dist_200_LN_14_LD_30_RN_6_RD_9_1.png","I_Dist_200_LN_3_LD_10_RN_1_RD_2_1.png","I_Dist_200_LN_4_LD_30_RN_1_RD_3_1.png","I_Dist_200_LN_6_LD_20_RN_3_RD_6_1.png","I_Dist_200_LN_7_LD_15_RN_4_RD_6_1.png","I_Dist_200_LN_7_LD_15_RN_6_RD_9_1.png","I_Dist_200_LN_9_LD_15_RN_8_RD_10_1.png"]],"dist200_S":[["E_Dist_200_LN_3_LD_6_RN_3_RD_10_0.png"],["E_Dist_200_LN_3_LD_10_RN_3_RD_6_1.png"]],"dist300_C":[["C_Dist_300_LN_11_LD_22_RN_1_RD_5_0.png","C_Dist_300_LN_11_LD_22_RN_2_RD_10_0.png","C_Dist_300_LN_11_LD_22_RN_4_RD_20_0.png","C_Dist_300_LN_12_LD_24_RN_2_RD_10_0.png","C_Dist_300_LN_18_LD_20_RN_9_RD_15_0.png","C_Dist_300_LN_20_LD_25_RN_13_RD_26_0.png","C_Dist_300_LN_20_LD_25_RN_14_RD_28_0.png","C_Dist_300_LN_20_LD_25_RN_5_RD_10_0.png","C_Dist_300_LN_20_LD_25_RN_8_RD_16_0.png","C_Dist_300_LN_20_LD_25_RN_9_RD_18_0.png","C_Dist_300_LN_24_LD_30_RN_2_RD_4_0.png","C_Dist_300_LN_24_LD_30_RN_8_RD_16_0.png","C_Dist_300_LN_3_LD_6_RN_2_RD_10_0.png","C_Dist_300_LN_4_LD_10_RN_1_RD_10_0.png","C_Dist_300_LN_4_LD_5_RN_2_RD_4_0.png","C_Dist_300_LN_8_LD_16_RN_1_RD_5_0.png","C_Dist_300_LN_9_LD_10_RN_3_RD_5_0.png"],["C_Dist_300_LN_1_LD_20_RN_7_RD_20_1.png","C_Dist_300_LN_1_LD_3_RN_19_RD_30_1.png","C_Dist_300_LN_1_LD_30_RN_8_RD_24_1.png","C_Dist_300_LN_1_LD_5_RN_11_RD_22_1.png","C_Dist_300_LN_1_LD_5_RN_3_RD_6_1.png","C_Dist_300_LN_1_LD_5_RN_6_RD_12_1.png","C_Dist_300_LN_2_LD_10_RN_12_RD_24_1.png","C_Dist_300_LN_2_LD_20_RN_10_RD_25_1.png","C_Dist_300_LN_3_LD_12_RN_11_RD_20_1.png","C_Dist_300_LN_3_LD_6_RN_4_RD_5_1.png","C_Dist_300_LN_4_LD_20_RN_13_RD_26_1.png","C_Dist_300_LN_5_LD_25_RN_6_RD_12_1.png","C_Dist_300_LN_5_LD_25_RN_7_RD_14_1.png","C_Dist_300_LN_7_LD_14_RN_20_RD_25_1.png","C_Dist_300_LN_8_LD_15_RN_10_RD_12_1.png"]],"dist300_I":[["I_Dist_300_LN_1_LD_2_RN_2_RD_10_0.png","I_Dist_300_LN_1_LD_2_RN_3_RD_15_0.png","I_Dist_300_LN_2_LD_4_RN_6_RD_30_0.png","I_Dist_300_LN_3_LD_6_RN_4_RD_20_0.png","I_Dist_300_LN_4_LD_5_RN_6_RD_12_0.png","I_Dist_300_LN_4_LD_5_RN_8_RD_16_0.png","I_Dist_300_LN_7_LD_10_RN_8_RD_20_0.png","I_Dist_300_LN_8_LD_10_RN_14_RD_28_0.png","I_Dist_300_LN_8_LD_10_RN_9_RD_18_0.png"],["I_Dist_300_LN_13_LD_26_RN_12_RD_15_1.png","I_Dist_300_LN_4_LD_20_RN_2_RD_4_1.png"]],"dist300_S":[["E_Dist_300_LN_9_LD_12_RN_9_RD_20_0.png"],["E_Dist_300_LN_18_LD_30_RN_18_RD_20_1.png","E_Dist_300_LN_3_LD_10_RN_3_RD_5_1.png","E_Dist_300_LN_9_LD_20_RN_9_RD_12_1.png"]],"dist500_C":[["C_Dist_500_LN_10_LD_13_RN_7_RD_26_0.png","C_Dist_500_LN_10_LD_15_RN_4_RD_24_0.png","C_Dist_500_LN_12_LD_16_RN_3_RD_12_0.png","C_Dist_500_LN_12_LD_18_RN_4_RD_24_0.png","C_Dist_500_LN_15_LD_18_RN_5_RD_15_0.png","C_Dist_500_LN_15_LD_20_RN_1_RD_4_0.png","C_Dist_500_LN_18_LD_27_RN_1_RD_6_0.png","C_Dist_500_LN_20_LD_24_RN_1_RD_3_0.png","C_Dist_500_LN_20_LD_24_RN_3_RD_9_0.png","C_Dist_500_LN_20_LD_24_RN_7_RD_21_0.png","C_Dist_500_LN_20_LD_28_RN_3_RD_14_0.png","C_Dist_500_LN_21_LD_28_RN_6_RD_24_0.png","C_Dist_500_LN_22_LD_28_RN_2_RD_7_0.png","C_Dist_500_LN_25_LD_30_RN_9_RD_27_0.png","C_Dist_500_LN_4_LD_6_RN_1_RD_6_0.png","C_Dist_500_LN_5_LD_6_RN_2_RD_6_0.png","C_Dist_500_LN_6_LD_9_RN_1_RD_6_0.png","C_Dist_500_LN_7_LD_10_RN_1_RD_5_0.png","C_Dist_500_LN_8_LD_12_RN_1_RD_6_0.png","C_Dist_500_LN_8_LD_12_RN_4_RD_24_0.png"],["C_Dist_500_LN_1_LD_4_RN_12_RD_16_1.png","C_Dist_500_LN_1_LD_4_RN_9_RD_12_1.png","C_Dist_500_LN_1_LD_9_RN_11_RD_18_1.png","C_Dist_500_LN_10_LD_24_RN_22_RD_24_1.png","C_Dist_500_LN_2_LD_12_RN_10_RD_15_1.png","C_Dist_500_LN_2_LD_12_RN_12_RD_18_1.png","C_Dist_500_LN_2_LD_12_RN_4_RD_6_1.png","C_Dist_500_LN_2_LD_24_RN_7_RD_12_1.png","C_Dist_500_LN_2_LD_5_RN_18_RD_20_1.png","C_Dist_500_LN_2_LD_5_RN_9_RD_10_1.png","C_Dist_500_LN_2_LD_8_RN_12_RD_16_1.png","C_Dist_500_LN_2_LD_8_RN_21_RD_28_1.png","C_Dist_500_LN_3_LD_10_RN_4_RD_5_1.png","C_Dist_500_LN_3_LD_12_RN_15_RD_20_1.png","C_Dist_500_LN_3_LD_30_RN_6_RD_10_1.png","C_Dist_500_LN_3_LD_8_RN_14_RD_16_1.png","C_Dist_500_LN_4_LD_16_RN_15_RD_20_1.png","C_Dist_500_LN_4_LD_24_RN_12_RD_18_1.png","C_Dist_500_LN_5_LD_14_RN_6_RD_7_1.png","C_Dist_500_LN_7_LD_21_RN_20_RD_24_1.png","C_Dist_500_LN_7_LD_28_RN_12_RD_16_1.png","C_Dist_500_LN_7_LD_28_RN_9_RD_12_1.png","C_Dist_500_LN_9_LD_27_RN_20_RD_24_1.png"]],"dist500_I":[["I_Dist_500_LN_2_LD_3_RN_4_RD_24_0.png","I_Dist_500_LN_5_LD_6_RN_6_RD_18_0.png","I_Dist_500_LN_7_LD_8_RN_9_RD_24_0.png"],["I_Dist_500_LN_7_LD_21_RN_5_RD_6_1.png"]],"dist500_S":[["E_Dist_500_LN_6_LD_8_RN_6_RD_24_0.png"],["E_Dist_500_LN_2_LD_12_RN_2_RD_3_1.png","E_Dist_500_LN_6_LD_24_RN_6_RD_8_1.png"]]}},{"start_time":1552312885194,"click_time":1552312887060,"finger_time":1552312886639,"fix_duration":512.4899747725353,"trial":1,"RT":1445,"MT":421,"sideResp":1,"stimulus":[],"xmouse":[776,776,776,776,776,777,777,778,779,779,779,779,779,779,779,779,779,779,779,779,779,779,779,779,779,779,779,779,779,779,779,779,779,779,779,778,778,778,778,778,778,778,778,778,778,778,778,778,778,778,778,778,778,778,778,778,778,778,778,778,778,778,778,778,778,778,778,778,778,778,778,778,774,752,740,657,628,600,586,586,586,586,586,586,586,586,586,586,586,586,586,396,418,448],"ymouse":[564,564,564,564,564,562,561,560,559,559,559,559,559,559,559,559,559,559,559,559,559,559,559,559,559,559,559,559,555,548,542,536,531,526,523,519,518,518,518,518,518,518,518,518,518,518,518,518,518,518,518,518,518,518,518,518,518,518,518,518,518,518,518,518,518,518,518,518,518,511,496,479,452,388,357,170,97,33,2,2,2,2,2,2,2,2,2,2,2,2,2,22,47,69],"timestamp_mouse":[10,24,46,65,85,104,124,145,164,185,206,226,245,264,285,304,324,344,365,385,405,424,444,465,485,504,524,544,564,585,604,626,645,664,684,705,724,744,766,784,804,825,845,865,886,906,926,945,965,984,1004,1025,1045,1064,1086,1104,1124,1146,1166,1185,1205,1224,1245,1265,1284,1305,1324,1344,1364,1384,1404,1424,1445,1465,1484,1504,1524,1545,1565,1585,1606,1625,1646,1664,1685,1705,1725,1745,1765,1785,1805,1826,1845,1866],"xSR":741.5,"ySR":469.95,"xT1":424.9,"yT1":0,"xT2":1058.1,"yT2":0,"toosoon":0,"cond_shown":"Congruent","ratio_trial":300,"L_num":1,"L_den":30,"R_num":8,"R_den":24,"correct_side":2,"subjID":"orihanagomez27","gender":"1","school":"4","age":"9"},{"start_time":1552312894422,"click_time":1552312895580,"finger_time":1552312895060,"fix_duration":941.9394615094519,"trial":2,"RT":638,"MT":520,"sideResp":2,"stimulus":[],"xmouse":[786,786,786,786,786,786,786,786,786,786,786,786,786,786,786,786,786,786,786,786,786,786,786,786,786,788,791,805,815,825,833,843,861,868,877,884,892,898,915,918,929,938,960,967,973,982,990,1006,1015,1021,1030,1038,1051,1056,1061,1070,1080,1097],"ymouse":[564,564,564,564,564,564,564,564,564,564,564,564,564,564,564,564,564,564,564,564,564,564,564,564,564,561,559,545,531,513,492,469,409,383,364,346,328,314,279,273,257,240,206,194,183,170,159,139,131,125,118,113,110,109,109,108,106,99],"timestamp_mouse":[17,41,56,77,97,118,136,156,178,198,218,237,257,278,298,317,337,358,377,398,417,437,458,477,496,518,537,557,576,597,616,638,657,676,697,718,737,757,783,796,816,837,857,876,896,917,936,957,976,996,1016,1036,1056,1077,1097,1117,1138,1157],"xSR":741.5,"ySR":469.95,"xT1":424.9,"yT1":0,"xT2":1058.1,"yT2":0,"toosoon":0,"cond_shown":"Congruent","ratio_trial":200,"L_num":3,"L_den":10,"R_num":11,"R_den":22,"correct_side":2,"subjID":"orihanagomez27","gender":"1","school":"4","age":"9"},{"start_time":1552312898246,"click_time":1552312899780,"finger_time":1552312899700,"fix_duration":966.5318218717508,"trial":3,"RT":1454,"MT":80,"sideResp":1,"stimulus":[],"xmouse":[781,781,781,781,781,781,781,781,781,781,781,781,781,781,781,781,781,781,781,781,781,781,781,781,781,781,781,781,781,781,781,781,781,781,781,781,781,781,781,781,781,781,781,781,781,781,781,781,781,781,781,781,781,781,781,781,781,781,781,781,781,781,781,781,781,781,781,781,781,781,781,781,743,709,658,598,482],"ymouse":[569,569,569,569,569,569,569,569,569,569,569,569,569,569,569,569,569,569,569,569,569,569,569,569,569,569,569,569,569,569,569,569,569,569,569,569,569,569,569,569,569,569,569,569,569,569,569,569,569,569,569,569,569,569,569,569,569,569,569,569,569,569,569,569,569,569,569,569,569,569,563,554,460,394,306,214,56],"timestamp_mouse":[14,33,53,73,94,113,132,153,173,193,213,233,253,272,293,313,332,353,373,394,412,432,453,472,494,514,533,552,573,594,613,632,654,674,692,713,732,754,772,793,814,834,853,873,893,914,934,953,974,993,1012,1033,1053,1073,1093,1112,1133,1153,1173,1192,1214,1233,1253,1274,1293,1313,1333,1353,1373,1392,1412,1433,1454,1472,1492,1513,1533],"xSR":741.5,"ySR":469.95,"xT1":424.9,"yT1":0,"xT2":1058.1,"yT2":0,"toosoon":0,"cond_shown":"Incongruent","ratio_trial":100,"L_num":10,"L_den":25,"R_num":8,"R_den":16,"correct_side":2,"subjID":"orihanagomez27","gender":"1","school":"4","age":"9"},{"start_time":1552312905100,"click_time":1552312905598,"finger_time":1552312905438,"fix_duration":1400.6244229535132,"trial":4,"RT":338,"MT":160,"sideResp":2,"stimulus":[],"xmouse":[798,798,798,798,798,798,798,798,798,798,798,798,798,800,811,833,878,927,971,1056,1074,1084,1089,1099,1106],"ymouse":[558,558,558,558,558,558,558,558,558,558,558,558,558,553,533,503,447,376,304,183,158,141,127,104,92],"timestamp_mouse":[19,45,59,79,99,119,138,160,179,199,218,238,259,279,298,319,338,358,378,399,418,438,459,479,498],"xSR":741.5,"ySR":469.95,"xT1":424.9,"yT1":0,"xT2":1058.1,"yT2":0,"toosoon":0,"cond_shown":"Incongruent","ratio_trial":100,"L_num":3,"L_den":5,"R_num":8,"R_den":16,"correct_side":1,"subjID":"orihanagomez27","gender":"1","school":"4","age":"9"},{"start_time":1552312910242,"click_time":1552312911581,"finger_time":1552312910740,"fix_duration":999.4630885622099,"trial":5,"RT":498,"MT":841,"sideResp":1,"stimulus":[],"xmouse":[776,776,776,776,776,776,776,776,776,776,776,776,776,776,776,776,776,776,776,776,776,776,760,746,727,709,664,649,645,644,644,644,644,644,644,644,644,644,644,644,644,643,643,643,643,643,643,643,644,647,652,660,703,718,732,742,746,747,747,747,747,748,721,677,620,555,506],"ymouse":[532,532,532,532,532,532,532,532,532,532,532,532,532,532,532,532,532,532,532,532,532,532,510,494,470,451,418,409,406,406,406,406,406,406,406,406,406,406,406,406,406,406,408,409,410,410,414,416,421,429,435,446,483,495,504,510,513,514,514,514,514,514,449,357,248,135,42],"timestamp_mouse":[18,38,59,78,98,119,138,157,179,199,219,238,258,278,299,318,338,358,379,397,419,437,457,477,498,517,539,557,578,599,617,639,658,679,699,718,738,758,778,798,819,837,858,877,898,918,939,957,977,998,1018,1037,1057,1077,1097,1117,1139,1158,1179,1199,1219,1237,1257,1277,1297,1318,1339],"xSR":741.5,"ySR":469.95,"xT1":424.9,"yT1":0,"xT2":1058.1,"yT2":0,"toosoon":0,"cond_shown":"Congruent","ratio_trial":100,"L_num":15,"L_den":25,"R_num":13,"R_den":26,"correct_side":1,"subjID":"orihanagomez27","gender":"1","school":"4","age":"9"},{"start_time":1552312913880,"click_time":1552312917981,"finger_time":1552312917180,"fix_duration":479.39193956171135,"trial":6,"RT":3300,"MT":801,"sideResp":1,"stimulus":[],"xmouse":[794,793,791,788,783,782,781,780,780,780,780,780,780,780,780,780,780,780,780,781,781,782,782,783,783,783,783,784,784,784,784,785,786,787,788,788,788,788,788,788,788,788,788,788,788,788,788,788,788,788,788,788,788,788,788,788,788,788,788,788,788,788,788,788,788,788,788,788,788,788,788,788,788,788,788,788,788,788,788,788,788,788,788,788,788,788,788,788,788,788,788,788,788,788,788,788,788,788,788,788,788,788,788,788,788,788,788,788,788,788,788,788,788,788,788,788,788,788,787,787,787,786,783,782,778,778,778,778,778,776,775,775,775,775,775,775,775,775,775,775,775,775,775,775,775,775,775,775,774,774,773,773,773,773,773,773,773,773,773,773,773,773,772,770,720,664,604,551,515,490,478,475,475,474,473,473,473,473,473,473,473,473,473,473,473,473,473,473,473,473,473,473,473,473,473,473,473,473,473,473,473,473,473,473,473],"ymouse":[490,494,506,514,526,530,533,533,533,533,533,533,533,533,533,533,533,533,532,531,530,529,528,527,527,527,527,526,526,525,524,523,521,519,518,518,518,518,518,518,518,518,518,518,518,518,518,518,518,518,518,518,518,518,518,518,518,518,518,518,518,518,518,518,518,518,518,518,518,518,518,518,518,518,518,518,518,518,518,518,518,518,518,518,518,518,518,518,518,518,518,518,518,518,518,518,518,518,518,518,518,518,518,518,518,518,518,518,518,518,518,518,518,518,519,523,527,530,533,534,535,536,541,543,547,548,548,548,548,551,552,552,552,553,553,553,553,553,553,553,553,553,553,553,553,555,556,559,562,565,568,569,569,569,569,569,569,569,569,569,569,569,569,569,530,486,444,401,356,291,221,192,169,147,118,108,103,100,100,100,100,100,100,100,100,100,100,100,100,100,100,100,100,100,100,100,100,100,100,100,100,100,100,100,98],"timestamp_mouse":[10,39,61,80,100,120,140,161,180,200,220,239,259,281,300,320,339,359,380,401,420,439,462,479,501,521,539,560,581,600,619,639,659,681,701,719,739,761,781,800,820,840,860,880,901,920,939,961,981,1000,1019,1039,1061,1079,1101,1119,1141,1161,1179,1199,1220,1239,1261,1279,1300,1320,1341,1361,1380,1399,1420,1439,1461,1480,1500,1519,1539,1561,1579,1599,1619,1641,1661,1680,1700,1719,1741,1761,1780,1801,1821,1841,1860,1881,1900,1921,1940,1960,1981,2001,2019,2040,2061,2079,2100,2120,2141,2161,2180,2200,2220,2240,2259,2280,2300,2319,2340,2360,2380,2399,2420,2439,2459,2480,2500,2521,2540,2561,2580,2600,2621,2639,2659,2681,2699,2721,2740,2761,2780,2799,2820,2840,2860,2881,2901,2919,2940,2959,2979,3000,3021,3040,3060,3080,3100,3119,3139,3161,3180,3199,3220,3240,3260,3280,3300,3319,3339,3360,3380,3400,3420,3439,3460,3480,3501,3519,3540,3560,3580,3600,3620,3640,3661,3679,3701,3721,3740,3761,3780,3800,3820,3840,3860,3881,3900,3921,3941,3959,3980,4001,4021,4040,4060,4079,4100],"xSR":741.5,"ySR":469.95,"xT1":424.9,"yT1":0,"xT2":1058.1,"yT2":0,"toosoon":0,"cond_shown":"Congruent","ratio_trial":100,"L_num":3,"L_den":20,"R_num":4,"R_den":16,"correct_side":2,"subjID":"orihanagomez27","gender":"1","school":"4","age":"9"},{"start_time":1552312922054,"click_time":1552312923080,"finger_time":1552312922620,"fix_duration":390.20863332589187,"trial":7,"RT":566,"MT":460,"sideResp":2,"stimulus":[],"xmouse":[755,755,755,755,755,755,757,763,768,772,775,777,777,778,778,780,780,780,780,780,780,780,780,780,780,783,796,813,845,882,944,1019,1036,1036,1036,1036,1036,1036,1036,1036,1036,1036,1036,1036,1036,1036,1036,1036,1036,1036,1036,1109],"ymouse":[560,560,551,550,550,550,549,549,549,549,550,550,550,551,551,552,552,552,552,552,552,552,552,552,552,550,523,489,434,357,226,51,12,12,12,12,12,12,12,12,12,12,12,12,12,12,12,12,12,12,12,1],"timestamp_mouse":[11,25,45,65,86,106,126,145,166,186,207,225,245,266,287,307,326,347,366,387,406,427,447,466,485,506,526,546,566,586,607,626,645,666,686,707,727,745,765,786,806,826,847,865,886,905,927,947,966,986,1006,1026],"xSR":741.5,"ySR":469.95,"xT1":424.9,"yT1":0,"xT2":1058.1,"yT2":0,"toosoon":0,"cond_shown":"Incongruent","ratio_trial":100,"L_num":6,"L_den":12,"R_num":3,"R_den":5,"correct_side":2,"subjID":"orihanagomez27","gender":"1","school":"4","age":"9"},{"start_time":1552312927804,"click_time":1552312928981,"finger_time":1552312928340,"fix_duration":723.0922528595904,"trial":8,"RT":536,"MT":641,"sideResp":2,"stimulus":[],"xmouse":[800,800,800,800,800,800,800,800,800,800,800,800,800,800,800,800,800,800,800,800,800,800,801,804,822,835,860,885,935,955,974,983,989,996,996,996,996,998,999,1001,1002,1005,1008,1027,1039,1046,1053,1062,1085,1095,1102,1108,1112,1113,1115,1116,1118,1120,1123],"ymouse":[563,563,563,563,563,563,563,563,563,563,563,563,563,563,563,563,563,563,563,563,563,563,560,554,524,503,467,429,337,298,260,236,218,188,177,170,164,156,149,135,130,126,123,117,114,113,111,111,111,111,111,111,110,109,108,106,105,103,99],"timestamp_mouse":[16,43,55,76,97,116,136,157,176,196,215,236,256,277,296,316,337,357,377,396,417,437,455,476,496,515,536,556,577,596,616,636,656,676,696,715,736,757,776,795,815,836,857,877,895,916,937,956,977,996,1016,1035,1055,1076,1097,1116,1136,1156,1177],"xSR":741.5,"ySR":469.95,"xT1":424.9,"yT1":0,"xT2":1058.1,"yT2":0,"toosoon":0,"cond_shown":"Congruent","ratio_trial":100,"L_num":7,"L_den":14,"R_num":15,"R_den":25,"correct_side":2,"subjID":"orihanagomez27","gender":"1","school":"4","age":"9"},{"start_time":1552312933847,"click_time":1552312935399,"finger_time":1552312935340,"fix_duration":505.38216656197534,"trial":9,"RT":1493,"MT":59,"sideResp":1,"stimulus":[],"xmouse":[773,774,774,774,774,774,774,774,774,774,774,774,774,774,774,774,774,774,774,774,774,774,774,774,774,774,774,774,774,774,774,774,774,774,774,774,774,774,774,774,774,774,774,774,774,774,774,774,774,774,774,774,774,774,774,774,774,774,774,774,774,774,774,774,774,774,774,774,774,774,774,774,770,760,737,688,629,517],"ymouse":[562,563,563,563,563,563,563,563,563,563,563,563,563,563,563,563,563,563,563,563,563,563,563,563,563,563,563,563,563,563,563,563,563,563,563,563,563,563,563,563,563,563,563,563,563,563,563,563,563,563,563,563,563,563,563,563,563,563,563,563,563,563,563,563,563,563,563,563,563,563,563,563,553,537,498,410,303,93],"timestamp_mouse":[14,36,53,73,92,114,133,153,173,193,214,234,253,273,293,313,334,353,372,393,413,432,454,473,494,514,533,553,574,594,612,632,654,673,693,713,734,753,774,794,813,833,852,873,893,912,934,953,974,994,1013,1033,1053,1073,1094,1113,1133,1153,1173,1194,1213,1234,1253,1273,1294,1314,1333,1353,1373,1394,1414,1432,1454,1472,1493,1513,1532,1552],"xSR":741.5,"ySR":469.95,"xT1":424.9,"yT1":0,"xT2":1058.1,"yT2":0,"toosoon":0,"cond_shown":"Congruent","ratio_trial":200,"L_num":12,"L_den":15,"R_num":6,"R_den":10,"correct_side":1,"subjID":"orihanagomez27","gender":"1","school":"4","age":"9"},{"start_time":1552312939010,"click_time":1552312941461,"finger_time":1552312941100,"fix_duration":848.8132492345366,"trial":10,"RT":2090,"MT":361,"sideResp":2,"stimulus":[],"xmouse":[791,791,792,793,793,793,793,793,793,794,794,794,794,794,794,794,794,794,794,794,794,794,794,794,794,794,794,794,794,794,794,794,794,794,794,794,794,794,794,794,794,794,794,794,794,794,794,794,794,794,794,795,796,798,799,800,800,800,800,800,800,800,801,801,803,803,804,804,809,810,811,812,812,812,812,812,812,812,812,812,812,812,812,812,812,812,812,812,812,812,812,812,812,812,812,812,812,812,812,812,812,810,809,808,807,807,807,807,807,807,807,807,807,807,807,807,807,811,820,870,919,982,1096],"ymouse":[565,567,568,568,568,568,568,568,568,568,568,568,568,568,568,568,568,568,568,568,567,567,567,567,567,567,567,567,567,567,567,567,567,567,567,567,567,567,567,567,567,567,567,567,567,567,567,567,567,567,567,565,561,558,554,553,553,553,553,553,553,553,553,553,552,552,552,552,545,543,541,539,539,539,539,539,539,539,539,539,539,539,539,539,539,539,539,539,539,539,539,539,539,539,539,539,539,539,539,540,546,554,563,566,576,577,577,577,577,577,577,577,575,573,563,556,546,533,510,408,323,218,68],"timestamp_mouse":[11,30,55,69,91,110,130,149,170,190,210,229,249,271,289,310,331,350,369,391,410,431,451,469,490,511,531,550,571,590,611,630,649,671,689,710,730,751,771,791,810,830,850,871,891,910,930,951,971,991,1011,1029,1049,1070,1090,1110,1129,1151,1169,1190,1210,1230,1250,1269,1291,1309,1330,1350,1370,1390,1410,1430,1451,1470,1490,1511,1529,1549,1571,1591,1610,1631,1650,1669,1691,1711,1730,1751,1769,1791,1810,1830,1851,1869,1891,1911,1931,1949,1970,1989,2011,2029,2049,2070,2090,2109,2129,2150,2171,2190,2210,2231,2250,2269,2290,2309,2330,2350,2370,2390,2411,2429,2450],"xSR":741.5,"ySR":469.95,"xT1":424.9,"yT1":0,"xT2":1058.1,"yT2":0,"toosoon":0,"cond_shown":"Congruent","ratio_trial":300,"L_num":1,"L_den":5,"R_num":6,"R_den":12,"correct_side":2,"subjID":"orihanagomez27","gender":"1","school":"4","age":"9"},{"start_time":1552312946414,"click_time":1552312947560,"finger_time":1552312947141,"fix_duration":413.9291454462805,"trial":11,"RT":727,"MT":419,"sideResp":1,"stimulus":[],"xmouse":[795,795,795,795,795,795,795,795,795,795,795,795,795,795,795,795,795,795,795,795,795,795,795,795,794,793,793,792,791,791,791,791,791,788,782,771,753,730,706,668,662,660,659,656,654,653,651,647,639,633,628,619,602,572,554,539,530,523],"ymouse":[565,565,565,565,565,565,565,565,565,565,565,565,565,565,565,565,565,565,565,565,565,565,565,563,557,557,556,554,553,553,553,553,552,547,536,509,466,415,360,269,235,215,198,172,161,151,144,137,126,124,123,122,121,115,109,104,100,96],"timestamp_mouse":[13,36,45,66,87,106,126,147,165,187,207,226,245,267,287,306,326,345,367,386,407,426,446,466,486,505,527,546,566,586,606,626,647,666,686,706,727,746,766,786,806,826,846,867,885,906,926,946,967,986,1006,1026,1047,1067,1085,1105,1127,1146],"xSR":741.5,"ySR":469.95,"xT1":424.9,"yT1":0,"xT2":1058.1,"yT2":0,"toosoon":0,"cond_shown":"Congruent","ratio_trial":100,"L_num":9,"L_den":15,"R_num":8,"R_den":16,"correct_side":1,"subjID":"orihanagomez27","gender":"1","school":"4","age":"9"},{"start_time":1552312949829,"click_time":1552312950881,"finger_time":1552312950459,"fix_duration":966.4721011579499,"trial":12,"RT":630,"MT":422,"sideResp":2,"stimulus":[],"xmouse":[776,776,776,776,776,776,776,776,776,776,776,776,776,776,776,776,776,776,776,776,776,776,776,776,776,776,778,793,808,825,841,866,910,928,945,959,974,995,1000,1003,1003,1005,1007,1009,1014,1016,1020,1026,1028,1030,1033,1040,1075],"ymouse":[563,563,563,563,563,563,563,563,563,563,563,563,563,563,563,563,563,563,563,563,563,563,563,563,563,563,563,547,531,511,492,463,408,381,354,321,289,231,214,205,198,195,187,172,156,142,130,115,110,107,103,99,85],"timestamp_mouse":[12,31,52,71,90,112,131,151,172,191,212,232,251,272,292,311,332,352,370,391,411,431,451,472,492,511,530,551,571,591,611,630,651,671,691,710,731,751,770,792,811,831,851,870,891,911,931,952,971,991,1011,1032,1051],"xSR":741.5,"ySR":469.95,"xT1":424.9,"yT1":0,"xT2":1058.1,"yT2":0,"toosoon":0,"cond_shown":"Congruent","ratio_trial":200,"L_num":3,"L_den":12,"R_num":9,"R_den":20,"correct_side":2,"subjID":"orihanagomez27","gender":"1","school":"4","age":"9"},{"start_time":1552312952562,"click_time":1552312953520,"finger_time":1552312953160,"fix_duration":381.599778862041,"trial":13,"RT":598,"MT":360,"sideResp":2,"stimulus":[],"xmouse":[798,798,798,798,798,798,798,795,794,794,793,793,793,793,792,790,789,788,787,787,787,787,787,787,786,787,810,821,833,844,868,879,892,908,925,974,997,1021,1049,1074,1101,1106,1110,1113,1116,1125,1128,1131],"ymouse":[560,560,560,560,560,560,560,562,563,564,565,565,565,566,566,566,566,566,566,566,566,566,566,566,566,562,516,497,480,464,438,429,417,404,390,344,324,306,285,267,240,224,208,189,170,122,102,84],"timestamp_mouse":[29,38,57,78,98,119,138,158,177,198,218,237,258,278,297,318,338,358,379,398,418,439,459,478,498,518,539,558,578,598,618,637,658,678,698,718,737,757,778,798,818,837,858,878,899,919,938,958],"xSR":741.5,"ySR":469.95,"xT1":424.9,"yT1":0,"xT2":1058.1,"yT2":0,"toosoon":0,"cond_shown":"Incongruent","ratio_trial":100,"L_num":1,"L_den":2,"R_num":8,"R_den":20,"correct_side":1,"subjID":"orihanagomez27","gender":"1","school":"4","age":"9"},{"start_time":1552312958229,"click_time":1552312959381,"finger_time":1552312958480,"fix_duration":1447.191475749875,"trial":14,"RT":251,"MT":901,"sideResp":1,"stimulus":[],"xmouse":[800,800,800,800,800,800,800,800,800,800,798,796,792,782,781,781,781,781,781,781,781,781,781,781,781,781,781,781,781,780,778,773,772,770,767,763,760,757,757,757,757,757,757,751,746,741,734,724,717,711,704,702,681,664,636,598,558,498],"ymouse":[545,545,545,545,545,545,545,545,545,545,551,558,574,612,617,617,617,617,617,617,617,617,617,617,617,617,617,617,617,618,619,622,622,624,626,629,631,633,633,633,633,633,633,617,600,580,557,518,503,488,471,466,429,404,362,305,233,56],"timestamp_mouse":[13,37,51,70,92,110,131,151,170,190,210,230,251,270,292,312,332,352,371,390,411,431,452,471,490,510,531,551,571,591,610,630,651,670,691,712,732,751,770,792,811,832,851,870,890,912,931,951,971,991,1010,1031,1052,1072,1090,1112,1132,1152],"xSR":741.5,"ySR":469.95,"xT1":424.9,"yT1":0,"xT2":1058.1,"yT2":0,"toosoon":0,"cond_shown":"Incongruent","ratio_trial":200,"L_num":4,"L_den":6,"R_num":14,"R_den":30,"correct_side":1,"subjID":"orihanagomez27","gender":"1","school":"4","age":"9"},{"start_time":1552312962113,"click_time":1552312963100,"finger_time":1552312962941,"fix_duration":250,"trial":15,"RT":828,"MT":159,"sideResp":2,"stimulus":[],"xmouse":[769,769,769,769,769,769,769,769,769,769,769,769,770,771,771,771,771,772,772,772,772,772,772,772,772,772,772,772,771,770,770,770,770,769,768,768,768,768,785,807,837,864,895,944,969,996,1026,1053,1085,1112],"ymouse":[552,552,552,552,552,552,553,555,555,556,557,558,559,563,564,565,566,567,567,568,568,568,568,568,568,568,568,567,559,555,551,546,544,541,539,538,537,535,522,504,471,434,388,308,267,226,193,161,112,54],"timestamp_mouse":[16,36,48,67,87,108,128,147,167,186,208,227,247,267,287,306,327,347,366,387,408,427,447,466,487,507,526,547,567,587,607,628,646,668,688,707,727,748,767,786,807,828,846,867,886,907,926,946,967,987],"xSR":741.5,"ySR":469.95,"xT1":424.9,"yT1":0,"xT2":1058.1,"yT2":0,"toosoon":0,"cond_shown":"Incongruent","ratio_trial":300,"L_num":7,"L_den":10,"R_num":8,"R_den":20,"correct_side":1,"subjID":"orihanagomez27","gender":"1","school":"4","age":"9"},{"start_time":1552312969993,"click_time":1552312970700,"finger_time":1552312970500,"fix_duration":250,"trial":16,"RT":507,"MT":200,"sideResp":1,"stimulus":[],"xmouse":[795,795,795,795,795,795,795,795,795,795,795,795,795,795,795,795,795,795,795,795,795,795,793,781,753,738,719,691,661,580,547,525,514,509,501,500],"ymouse":[562,562,562,562,562,562,562,562,562,562,562,562,562,562,562,562,562,562,562,562,562,560,556,544,508,483,449,410,367,272,230,198,173,152,110,96],"timestamp_mouse":[12,38,47,68,88,106,127,147,168,188,207,227,248,268,286,307,326,348,366,388,407,427,447,467,487,507,527,548,567,588,606,628,647,667,688,707],"xSR":741.5,"ySR":469.95,"xT1":424.9,"yT1":0,"xT2":1058.1,"yT2":0,"toosoon":0,"cond_shown":"Incongruent","ratio_trial":300,"L_num":4,"L_den":5,"R_num":6,"R_den":12,"correct_side":1,"subjID":"orihanagomez27","gender":"1","school":"4","age":"9"},{"start_time":1552312972352,"click_time":1552312973581,"finger_time":1552312973260,"fix_duration":250,"trial":17,"RT":908,"MT":321,"sideResp":2,"stimulus":[],"xmouse":[790,790,790,790,790,790,790,790,790,790,790,790,790,790,790,790,790,790,790,790,790,790,790,790,790,790,790,790,790,790,790,790,790,790,790,790,790,790,790,790,790,790,800,808,826,866,1024,1094,1159,1200,1216,1216,1216,1216,1216,1216,1216,1216,1216,1216,1216,1132],"ymouse":[557,557,559,559,559,559,559,559,560,560,560,561,561,561,561,561,561,561,561,561,561,561,561,561,561,561,561,561,561,561,561,561,561,561,561,561,561,561,561,561,561,561,551,541,517,457,229,144,73,25,5,5,5,5,5,5,5,5,5,5,5,30],"timestamp_mouse":[10,35,49,67,87,107,128,149,169,188,208,229,249,268,287,308,329,348,367,388,409,429,448,468,488,508,528,549,568,588,609,629,647,668,688,709,728,747,769,787,808,829,848,869,887,908,928,947,968,989,1008,1029,1049,1068,1089,1108,1128,1148,1168,1188,1209,1229],"xSR":741.5,"ySR":469.95,"xT1":424.9,"yT1":0,"xT2":1058.1,"yT2":0,"toosoon":0,"cond_shown":"Incongruent","ratio_trial":300,"L_num":13,"L_den":26,"R_num":12,"R_den":15,"correct_side":2,"subjID":"orihanagomez27","gender":"1","school":"4","age":"9"},{"start_time":1552312977862,"click_time":1552312978360,"finger_time":1552312978299,"fix_duration":718.1941098278255,"trial":18,"RT":437,"MT":61,"sideResp":2,"stimulus":[],"xmouse":[779,779,779,779,779,779,779,779,779,779,779,779,779,779,779,779,779,779,779,784,796,811,898,951,1020,1127],"ymouse":[565,565,565,565,565,565,565,565,565,565,565,565,565,565,565,565,565,565,565,559,547,524,409,318,210,35],"timestamp_mouse":[1,19,37,57,79,98,117,137,158,178,197,218,238,258,278,297,317,338,359,378,398,418,437,457,478,498],"xSR":741.5,"ySR":469.95,"xT1":424.9,"yT1":0,"xT2":1058.1,"yT2":0,"toosoon":0,"cond_shown":"Incongruent","ratio_trial":300,"L_num":1,"L_den":2,"R_num":3,"R_den":15,"correct_side":1,"subjID":"orihanagomez27","gender":"1","school":"4","age":"9"},{"start_time":1552312986314,"click_time":1552312987301,"finger_time":1552312986819,"fix_duration":250,"trial":19,"RT":505,"MT":482,"sideResp":1,"stimulus":[],"xmouse":[767,767,767,767,767,767,767,767,767,767,767,767,767,767,767,767,767,767,767,767,767,767,767,764,758,738,710,680,628,579,562,548,536,536,536,536,536,536,536,536,536,536,536,536,536,536,536,536,536,513],"ymouse":[565,565,565,565,565,565,565,565,565,565,565,565,565,565,565,565,565,565,565,565,565,565,557,530,496,435,370,303,215,125,80,48,11,11,11,11,11,11,11,11,11,11,11,11,11,11,11,11,11,8],"timestamp_mouse":[6,38,45,66,87,105,125,147,167,185,207,226,246,267,286,306,326,346,366,385,407,427,446,466,486,505,526,546,566,587,605,626,646,667,686,707,726,747,766,786,805,826,846,866,886,906,926,945,965,987],"xSR":741.5,"ySR":469.95,"xT1":424.9,"yT1":0,"xT2":1058.1,"yT2":0,"toosoon":0,"cond_shown":"Incongruent","ratio_trial":200,"L_num":11,"L_den":20,"R_num":3,"R_den":4,"correct_side":2,"subjID":"orihanagomez27","gender":"1","school":"4","age":"9"},{"start_time":1552312990212,"click_time":1552312991380,"finger_time":1552312990880,"fix_duration":250,"trial":20,"RT":668,"MT":500,"sideResp":2,"stimulus":[],"xmouse":[784,783,783,783,783,783,783,783,782,781,781,781,781,781,781,781,781,781,781,781,781,781,781,781,781,781,781,781,781,785,792,807,834,888,922,958,973,981,983,983,984,985,989,1000,1002,1005,1005,1005,1006,1008,1009,1012,1015,1031,1038,1043,1049,1054,1072],"ymouse":[552,554,554,556,556,556,557,558,564,568,569,569,569,569,569,569,569,569,569,569,569,569,569,569,569,569,569,569,569,562,554,534,494,413,363,309,286,274,269,269,268,267,263,246,239,232,228,225,222,216,210,202,195,166,151,133,114,95,61],"timestamp_mouse":[14,40,48,68,87,109,128,147,168,188,208,229,247,269,289,308,329,348,368,388,407,429,449,469,488,509,528,548,569,588,608,628,649,668,688,707,729,748,768,787,807,827,849,868,888,907,928,947,969,988,1009,1028,1048,1068,1087,1108,1129,1149,1168],"xSR":741.5,"ySR":469.95,"xT1":424.9,"yT1":0,"xT2":1058.1,"yT2":0,"toosoon":0,"cond_shown":"Incongruent","ratio_trial":300,"L_num":13,"L_den":26,"R_num":12,"R_den":15,"correct_side":2,"subjID":"orihanagomez27","gender":"1","school":"4","age":"9"},{"start_time":1552312993932,"click_time":1552312994761,"finger_time":1552312994500,"fix_duration":250,"trial":21,"RT":568,"MT":261,"sideResp":2,"stimulus":[],"xmouse":[788,788,788,786,786,786,786,786,786,786,786,786,786,786,786,786,786,786,786,786,786,786,786,791,793,801,811,828,864,872,879,884,895,902,914,928,944,967,994,1017,1044,1068],"ymouse":[561,561,565,567,568,568,568,568,568,568,568,568,568,568,568,568,568,568,568,568,568,568,568,568,568,563,557,546,514,495,475,454,416,396,371,329,291,236,177,135,94,54],"timestamp_mouse":[22,31,48,68,88,108,128,148,169,188,208,228,248,269,289,308,327,349,368,387,408,429,449,468,488,508,527,548,568,588,607,628,649,667,689,707,728,747,769,787,808,829],"xSR":741.5,"ySR":469.95,"xT1":424.9,"yT1":0,"xT2":1058.1,"yT2":0,"toosoon":0,"cond_shown":"Incongruent","ratio_trial":100,"L_num":10,"L_den":25,"R_num":8,"R_den":16,"correct_side":2,"subjID":"orihanagomez27","gender":"1","school":"4","age":"9"},{"start_time":1552313002294,"click_time":1552313003240,"finger_time":1552313002859,"fix_duration":272.0546959671425,"trial":22,"RT":565,"MT":381,"sideResp":2,"stimulus":[],"xmouse":[796,796,796,796,796,796,796,796,794,793,791,791,791,791,791,791,791,789,789,789,789,789,789,789,789,789,795,800,819,843,854,864,876,887,898,917,926,933,942,952,967,975,987,997,1009,1037,1053,1066],"ymouse":[512,512,512,512,512,512,512,512,512,512,512,512,512,512,512,512,512,512,512,512,512,512,512,512,512,512,501,493,463,426,407,388,367,346,326,285,263,237,209,173,130,110,92,76,60,34,24,17],"timestamp_mouse":[14,32,46,65,87,107,126,146,166,186,205,227,245,267,286,306,326,346,366,390,406,426,446,466,486,506,527,546,565,586,606,626,645,665,686,706,725,745,765,786,805,825,845,865,886,905,926,946],"xSR":741.5,"ySR":469.95,"xT1":424.9,"yT1":0,"xT2":1058.1,"yT2":0,"toosoon":0,"cond_shown":"Incongruent","ratio_trial":200,"L_num":1,"L_den":2,"R_num":3,"R_den":10,"correct_side":1,"subjID":"orihanagomez27","gender":"1","school":"4","age":"9"},{"start_time":1552313007552,"click_time":1552313009141,"finger_time":1552313008720,"fix_duration":250,"trial":23,"RT":1168,"MT":421,"sideResp":2,"stimulus":[],"xmouse":[787,787,787,787,787,787,787,787,787,787,787,787,787,787,787,787,787,787,787,787,787,787,787,787,787,787,787,787,787,787,787,787,787,787,787,787,787,787,787,787,787,787,787,787,787,787,787,787,787,787,787,787,787,787,787,787,791,819,861,898,932,1001,1028,1049,1066,1079,1086,1086,1087,1087,1087,1084,1079,1070,1065,1061,1057,1057,1058,1060],"ymouse":[522,522,522,522,522,522,522,522,522,522,522,522,522,522,522,522,522,522,522,522,522,522,522,522,522,522,522,522,522,522,522,522,522,522,522,522,522,522,522,522,522,522,522,522,522,522,522,522,522,522,522,522,522,522,522,522,518,485,436,391,358,294,271,252,234,219,204,200,196,193,189,185,182,177,171,163,148,114,97,82],"timestamp_mouse":[9,41,48,69,89,108,129,147,169,189,209,229,249,267,288,309,328,348,368,389,409,429,448,467,488,509,529,548,569,588,609,628,648,669,689,709,728,748,768,789,809,828,849,868,887,908,929,949,969,989,1008,1027,1048,1068,1089,1109,1128,1149,1168,1188,1208,1228,1248,1269,1288,1308,1327,1348,1368,1388,1408,1429,1448,1468,1488,1507,1528,1548,1568,1589],"xSR":741.5,"ySR":469.95,"xT1":424.9,"yT1":0,"xT2":1058.1,"yT2":0,"toosoon":0,"cond_shown":"Incongruent","ratio_trial":200,"L_num":14,"L_den":30,"R_num":12,"R_den":18,"correct_side":2,"subjID":"orihanagomez27","gender":"1","school":"4","age":"9"},{"start_time":1552313013327,"click_time":1552313015020,"finger_time":1552313014800,"fix_duration":965.8432526357109,"trial":24,"RT":1473,"MT":220,"sideResp":2,"stimulus":[],"xmouse":[783,783,783,783,783,783,783,783,783,783,783,783,783,783,783,783,783,783,783,783,783,783,783,783,783,783,783,783,783,783,783,783,783,783,783,783,783,783,783,783,783,783,783,783,783,783,783,783,783,783,783,783,783,783,783,783,783,783,783,783,783,783,783,783,783,783,783,783,783,783,783,783,803,823,846,872,905,957,996,1010,1025,1041,1067,1070,1073],"ymouse":[499,499,499,499,499,499,499,499,499,499,499,499,499,499,499,499,499,499,499,499,499,499,499,499,499,499,499,499,499,499,499,499,499,499,499,499,499,499,499,499,499,499,499,499,499,499,499,499,499,499,499,499,499,499,499,499,499,499,499,499,499,499,499,499,499,499,499,499,499,499,499,498,472,445,414,371,327,264,212,191,171,148,114,102,91],"timestamp_mouse":[13,32,53,73,92,113,134,152,173,194,212,232,254,274,292,313,333,354,373,394,414,433,454,473,492,514,534,554,572,593,613,632,654,674,692,714,734,753,773,794,814,832,854,874,892,913,933,954,973,994,1014,1033,1053,1073,1092,1114,1134,1153,1173,1194,1213,1233,1253,1273,1292,1312,1334,1354,1374,1393,1412,1433,1453,1473,1494,1512,1533,1553,1573,1593,1613,1632,1654,1673,1693],"xSR":741.5,"ySR":469.95,"xT1":424.9,"yT1":0,"xT2":1058.1,"yT2":0,"toosoon":0,"cond_shown":"Incongruent","ratio_trial":100,"L_num":2,"L_den":4,"R_num":8,"R_den":20,"correct_side":1,"subjID":"orihanagomez27","gender":"1","school":"4","age":"9"},{"start_time":1552313021654,"click_time":1552313023540,"finger_time":1552313022821,"fix_duration":774.3139305143641,"trial":25,"RT":1167,"MT":719,"sideResp":2,"stimulus":[],"xmouse":[767,768,768,768,768,768,768,768,768,768,768,768,768,768,768,768,768,768,768,768,768,768,768,768,768,768,768,768,768,768,768,768,768,768,768,768,768,768,768,768,768,768,768,768,768,768,768,768,768,768,768,768,768,768,768,771,792,819,858,905,955,1054,1080,1097,1113,1123,1143,1152,1162,1190,1208,1208,1208,1208,1208,1208,1208,1208,1208,1208,1208,1208,1208,1208,1208,1208,1208,1208,1208,1208,1208,1208,1208,1208,1147],"ymouse":[558,561,564,564,564,564,564,564,564,564,564,564,564,564,564,564,564,564,564,564,564,564,564,564,564,564,564,564,564,564,564,564,564,564,564,564,564,564,564,564,564,564,564,564,564,564,564,564,564,564,564,564,564,564,564,564,537,503,457,403,344,241,211,194,177,165,132,111,88,37,1,1,1,1,1,1,1,1,1,1,1,1,1,1,1,1,1,1,1,1,1,1,1,1,6],"timestamp_mouse":[5,32,47,65,86,106,125,146,167,186,205,226,247,266,286,307,326,346,366,385,406,427,447,466,487,506,526,546,565,587,607,627,646,665,687,707,727,746,767,786,806,827,847,867,887,906,927,946,966,986,1005,1027,1046,1066,1087,1106,1127,1146,1167,1187,1206,1227,1246,1267,1287,1306,1327,1345,1366,1385,1406,1425,1446,1466,1486,1507,1526,1546,1566,1586,1606,1626,1647,1666,1687,1706,1726,1747,1767,1786,1806,1826,1846,1866,1886],"xSR":741.5,"ySR":469.95,"xT1":424.9,"yT1":0,"xT2":1058.1,"yT2":0,"toosoon":0,"cond_shown":"Incongruent","ratio_trial":200,"L_num":9,"L_den":15,"R_num":8,"R_den":10,"correct_side":2,"subjID":"orihanagomez27","gender":"1","school":"4","age":"9"},{"start_time":1552313026442,"click_time":1552313028260,"finger_time":1552313027860,"fix_duration":540.1510142236152,"trial":26,"RT":1418,"MT":400,"sideResp":1,"stimulus":[],"xmouse":[808,808,808,808,808,808,808,808,808,808,808,808,808,808,808,808,808,808,808,808,808,808,808,808,808,808,808,808,808,808,808,808,808,808,808,808,808,808,808,808,808,808,808,808,808,808,808,808,808,808,808,808,808,808,808,808,808,808,808,808,808,808,808,808,808,808,808,805,785,749,707,604,583,569,560,553,540,538,537,536,536,536,536,536,533,530,516,509,502,494,486],"ymouse":[523,523,523,523,523,523,523,523,523,523,523,523,523,523,523,523,523,523,523,523,523,523,523,523,523,523,523,523,523,523,523,523,523,523,523,523,523,523,523,523,523,523,523,523,523,523,523,523,523,523,523,523,523,523,523,523,523,523,523,523,523,523,523,523,523,523,523,518,506,486,459,368,333,303,281,261,233,228,223,220,217,206,200,191,182,171,146,135,122,109,96],"timestamp_mouse":[18,39,57,78,99,119,137,157,178,199,218,239,258,279,299,319,339,359,379,399,417,438,458,478,497,519,539,557,579,599,617,638,659,677,698,719,737,759,779,797,817,839,859,877,899,919,938,958,978,999,1018,1038,1058,1079,1098,1119,1137,1159,1178,1198,1219,1238,1258,1277,1298,1318,1338,1358,1379,1398,1418,1439,1457,1478,1499,1518,1539,1558,1577,1597,1619,1638,1658,1678,1697,1718,1738,1758,1778,1797,1818],"xSR":741.5,"ySR":469.95,"xT1":424.9,"yT1":0,"xT2":1058.1,"yT2":0,"toosoon":0,"cond_shown":"Incongruent","ratio_trial":300,"L_num":2,"L_den":4,"R_num":6,"R_den":30,"correct_side":1,"subjID":"orihanagomez27","gender":"1","school":"4","age":"9"},{"start_time":1552313034484,"click_time":1552313036180,"finger_time":1552313035780,"fix_duration":1102.033473831638,"trial":27,"RT":1296,"MT":400,"sideResp":2,"stimulus":[],"xmouse":[796,796,796,796,796,796,796,796,796,795,793,793,792,792,792,792,792,792,792,792,792,792,792,792,792,792,792,792,792,792,792,792,792,792,792,792,792,792,792,792,792,792,792,792,792,792,792,792,792,792,792,792,792,792,792,792,792,792,792,792,792,792,792,792,816,841,876,923,973,973,973,973,973,973,973,973,973,973,973,973,973,1172,1164,1159,1154],"ymouse":[518,518,518,518,518,518,518,518,518,518,518,518,518,518,518,518,518,518,517,517,517,517,517,517,517,517,517,517,517,517,517,517,517,517,517,517,517,517,517,517,517,517,517,517,517,517,517,517,517,517,517,517,517,517,517,517,517,517,517,517,517,517,508,499,415,329,235,127,27,27,27,27,27,27,27,27,27,27,27,27,27,5,11,17,24],"timestamp_mouse":[17,35,57,75,95,116,137,157,176,196,215,237,255,276,296,316,336,356,376,397,417,435,455,476,496,517,535,556,576,596,617,636,656,676,696,715,736,756,777,796,815,836,856,877,897,916,935,957,975,996,1015,1035,1056,1075,1096,1116,1136,1156,1175,1196,1215,1235,1256,1276,1296,1315,1335,1355,1376,1396,1416,1436,1455,1475,1495,1516,1535,1556,1575,1596,1615,1636,1657,1676,1696],"xSR":741.5,"ySR":469.95,"xT1":424.9,"yT1":0,"xT2":1058.1,"yT2":0,"toosoon":0,"cond_shown":"Incongruent","ratio_trial":300,"L_num":13,"L_den":26,"R_num":12,"R_den":15,"correct_side":2,"subjID":"orihanagomez27","gender":"1","school":"4","age":"9"},{"start_time":1552313039375,"click_time":1552313040041,"finger_time":1552313039840,"fix_duration":1013.7099465800861,"trial":28,"RT":465,"MT":201,"sideResp":2,"stimulus":[],"xmouse":[781,781,781,781,781,781,781,781,781,781,781,781,781,781,781,781,781,781,781,781,781,785,796,807,828,875,905,936,966,986,1029,1047,1057,1062],"ymouse":[491,490,490,490,490,490,490,490,490,490,490,490,490,490,490,490,490,490,490,490,490,485,474,462,436,373,340,305,256,201,96,53,30,17],"timestamp_mouse":[12,25,54,66,84,104,125,145,166,185,205,224,246,264,285,305,326,345,365,385,406,424,445,465,486,506,525,544,565,584,605,625,645,666],"xSR":741.5,"ySR":469.95,"xT1":424.9,"yT1":0,"xT2":1058.1,"yT2":0,"toosoon":0,"cond_shown":"Congruent","ratio_trial":200,"L_num":3,"L_den":6,"R_num":14,"R_den":20,"correct_side":2,"subjID":"orihanagomez27","gender":"1","school":"4","age":"9"},{"start_time":1552313041799,"click_time":1552313042339,"finger_time":1552313042160,"fix_duration":318.5291564712746,"trial":29,"RT":361,"MT":179,"sideResp":2,"stimulus":[],"xmouse":[791,791,791,791,791,791,791,791,791,793,797,800,803,805,807,813,819,834,853,912,959,994,1039,1066,1116,1128,1133,1137],"ymouse":[554,554,554,554,554,554,554,554,554,549,546,541,538,536,534,531,527,519,509,468,432,396,333,292,182,148,122,97],"timestamp_mouse":[9,20,40,60,81,100,120,141,161,181,200,222,241,261,280,301,320,341,361,381,400,420,441,462,481,500,520,540],"xSR":741.5,"ySR":469.95,"xT1":424.9,"yT1":0,"xT2":1058.1,"yT2":0,"toosoon":0,"cond_shown":"Congruent","ratio_trial":300,"L_num":1,"L_den":20,"R_num":7,"R_den":20,"correct_side":2,"subjID":"orihanagomez27","gender":"1","school":"4","age":"9"},{"start_time":1552313043731,"click_time":1552313044520,"finger_time":1552313044421,"fix_duration":250,"trial":30,"RT":690,"MT":99,"sideResp":2,"stimulus":[],"xmouse":[769,769,769,769,769,769,769,769,769,769,769,769,769,769,769,769,769,769,769,769,769,769,769,769,769,769,769,769,769,769,769,769,782,807,848,893,942,1060,1097,1114],"ymouse":[541,541,541,541,541,541,541,541,541,541,541,541,541,541,541,541,541,541,541,541,541,541,541,541,541,541,541,541,541,541,541,537,519,490,442,391,327,172,113,79],"timestamp_mouse":[16,42,49,68,88,110,128,148,170,188,208,230,249,270,289,308,329,349,370,389,409,429,449,469,489,509,529,549,569,590,609,628,649,668,690,710,729,750,768,789],"xSR":741.5,"ySR":469.95,"xT1":424.9,"yT1":0,"xT2":1058.1,"yT2":0,"toosoon":0,"cond_shown":"Incongruent","ratio_trial":300,"L_num":7,"L_den":10,"R_num":8,"R_den":20,"correct_side":1,"subjID":"orihanagomez27","gender":"1","school":"4","age":"9"},{"start_time":1552313049850,"click_time":1552313051680,"finger_time":1552313051240,"fix_duration":988.9213581881021,"trial":31,"RT":1390,"MT":440,"sideResp":1,"stimulus":[],"xmouse":[773,773,773,773,773,773,773,773,773,773,773,773,773,773,773,773,773,773,773,773,773,773,773,773,773,773,773,773,773,773,773,773,773,773,773,773,773,773,773,773,773,773,773,773,773,773,773,773,773,773,773,773,773,773,773,773,773,773,773,773,773,773,773,773,773,773,773,773,773,767,749,724,716,710,704,698,678,670,662,654,652,636,630,618,607,590,554,538,522,508,496,481],"ymouse":[530,530,530,530,530,530,530,530,530,530,530,530,530,530,530,530,530,530,530,530,530,530,530,530,530,530,530,530,530,530,530,530,530,530,530,530,530,530,530,530,530,530,530,530,530,530,530,530,530,530,530,530,530,530,530,530,530,530,530,530,530,530,530,530,530,529,518,504,485,466,437,411,402,391,379,363,326,310,293,277,267,233,219,203,188,168,140,131,120,111,102,90],"timestamp_mouse":[14,29,49,70,89,110,130,149,169,191,210,230,251,269,290,309,329,351,370,389,409,431,450,470,489,511,529,549,571,591,611,630,650,670,691,710,731,749,771,790,810,829,850,871,890,909,930,950,971,990,1009,1029,1049,1071,1089,1111,1129,1150,1169,1189,1210,1231,1250,1269,1290,1310,1330,1349,1369,1390,1410,1431,1449,1470,1490,1509,1530,1550,1570,1590,1610,1630,1650,1669,1689,1709,1730,1749,1771,1789,1811,1829],"xSR":741.5,"ySR":469.95,"xT1":424.9,"yT1":0,"xT2":1058.1,"yT2":0,"toosoon":0,"cond_shown":"Incongruent","ratio_trial":300,"L_num":2,"L_den":4,"R_num":6,"R_den":30,"correct_side":1,"subjID":"orihanagomez27","gender":"1","school":"4","age":"9"},{"start_time":1552313053647,"click_time":1552313055120,"finger_time":1552313054760,"fix_duration":566.8742037334696,"trial":32,"RT":1113,"MT":360,"sideResp":2,"stimulus":[],"xmouse":[794,794,794,794,794,794,794,794,794,794,794,794,794,794,794,794,794,794,794,794,794,794,794,794,794,794,794,794,794,794,794,794,794,794,794,794,794,794,794,794,794,794,794,794,794,794,794,794,794,794,794,794,796,805,818,832,868,892,921,948,981,1008,1017,1023,1028,1029,1030,1032,1032,1032,1033,1041,1051,1062],"ymouse":[516,516,516,516,516,516,516,516,516,516,516,516,516,516,516,516,516,516,516,516,516,516,516,516,516,516,516,516,516,516,516,516,516,516,516,516,516,516,516,516,516,516,516,516,516,516,516,516,516,516,516,516,515,496,476,444,365,313,253,199,127,60,45,30,22,19,17,15,15,15,15,17,28,39],"timestamp_mouse":[13,37,53,73,92,113,133,154,172,192,213,234,253,272,293,313,334,354,373,393,412,433,452,472,492,514,533,552,572,592,612,634,654,672,694,712,733,754,773,792,813,834,853,873,894,913,932,953,973,993,1013,1033,1053,1072,1093,1113,1134,1152,1173,1192,1212,1233,1252,1273,1292,1314,1332,1353,1374,1394,1413,1433,1452,1473],"xSR":741.5,"ySR":469.95,"xT1":424.9,"yT1":0,"xT2":1058.1,"yT2":0,"toosoon":0,"cond_shown":"Congruent","ratio_trial":100,"L_num":1,"L_den":2,"R_num":3,"R_den":5,"correct_side":2,"subjID":"orihanagomez27","gender":"1","school":"4","age":"9"},{"start_time":1552313057126,"click_time":1552313058919,"finger_time":1552313058780,"fix_duration":785.0760166920049,"trial":33,"RT":1654,"MT":139,"sideResp":2,"stimulus":[],"xmouse":[786,786,786,786,786,786,786,786,786,786,786,786,786,786,786,786,786,786,786,786,786,786,786,786,786,786,786,786,786,786,786,786,786,786,786,786,786,786,786,786,786,786,786,786,786,786,786,786,786,786,786,786,786,786,786,786,786,786,786,786,786,786,786,786,786,786,786,786,786,786,786,786,786,786,786,786,786,786,786,789,792,798,825,847,881,923,985,1041,1064,1079],"ymouse":[521,521,521,521,521,521,521,521,521,521,521,521,521,521,521,521,521,521,521,521,521,521,521,521,521,521,521,521,521,521,521,521,521,521,521,521,521,521,521,521,521,521,521,521,521,521,521,521,521,521,521,521,521,521,521,521,521,521,521,521,521,521,521,521,521,521,521,521,521,521,521,521,521,521,521,521,521,521,521,514,510,501,465,438,391,340,260,154,108,70],"timestamp_mouse":[13,33,54,74,94,114,134,154,175,194,214,234,254,275,293,314,334,354,375,393,415,433,453,475,493,515,533,553,575,593,613,634,655,673,693,713,733,754,774,794,814,835,855,874,894,915,933,954,974,994,1013,1034,1054,1075,1094,1114,1134,1153,1175,1194,1213,1235,1253,1274,1293,1314,1335,1354,1373,1394,1413,1434,1455,1473,1494,1513,1533,1555,1574,1593,1614,1633,1654,1674,1694,1714,1734,1755,1773,1793],"xSR":741.5,"ySR":469.95,"xT1":424.9,"yT1":0,"xT2":1058.1,"yT2":0,"toosoon":0,"cond_shown":"Congruent","ratio_trial":300,"L_num":1,"L_den":20,"R_num":7,"R_den":20,"correct_side":2,"subjID":"orihanagomez27","gender":"1","school":"4","age":"9"},{"start_time":1552313061797,"click_time":1552313063060,"finger_time":1552313062520,"fix_duration":1334.2368055345164,"trial":34,"RT":723,"MT":540,"sideResp":2,"stimulus":[],"xmouse":[764,764,764,764,764,764,764,764,764,764,764,764,764,764,764,764,764,764,764,764,764,766,770,776,778,779,779,779,779,779,780,780,780,781,789,798,811,830,859,928,961,986,999,1005,1013,1013,1013,1013,1013,1013,1013,1013,1013,1014,1022,1028,1034,1040,1047,1061,1071,1084,1096,1110],"ymouse":[496,496,496,496,496,496,496,496,496,496,496,496,496,496,496,496,496,496,496,496,496,496,496,496,496,496,496,496,496,496,496,496,496,496,491,483,464,436,392,294,245,200,168,147,118,116,116,116,116,116,116,116,116,116,116,117,117,117,117,117,117,110,102,89],"timestamp_mouse":[13,37,43,64,83,102,122,144,164,182,202,224,242,263,284,304,322,343,364,382,402,424,442,463,483,503,522,544,563,584,603,623,643,663,683,702,723,743,762,783,803,824,842,863,882,904,923,942,964,984,1002,1023,1044,1062,1083,1102,1122,1144,1164,1184,1202,1223,1244,1263],"xSR":741.5,"ySR":469.95,"xT1":424.9,"yT1":0,"xT2":1058.1,"yT2":0,"toosoon":0,"cond_shown":"Congruent","ratio_trial":300,"L_num":1,"L_den":3,"R_num":19,"R_den":30,"correct_side":2,"subjID":"orihanagomez27","gender":"1","school":"4","age":"9"},{"start_time":1552313067704,"click_time":1552313068919,"finger_time":1552313068220,"fix_duration":1002.5599879405778,"trial":35,"RT":516,"MT":699,"sideResp":1,"stimulus":[],"xmouse":[807,807,807,807,807,807,807,807,807,807,807,807,807,807,807,807,807,807,807,807,807,807,807,818,826,836,846,853,854,854,854,849,834,813,759,735,714,697,675,668,665,663,662,662,662,660,654,646,619,609,599,589,578,559,551,545,538,530,526,526,524],"ymouse":[530,530,530,530,530,530,530,530,530,530,530,530,530,530,530,530,530,530,530,530,530,530,529,502,484,466,450,431,423,422,421,421,419,415,406,398,389,380,350,332,312,292,274,235,215,198,183,172,151,148,146,143,141,137,135,132,128,122,106,90,77],"timestamp_mouse":[17,41,56,75,97,116,135,157,175,197,217,236,257,275,296,317,335,357,375,396,417,436,455,475,495,516,536,556,577,595,615,636,656,676,696,715,735,755,776,796,815,836,855,876,895,915,936,956,976,996,1016,1036,1056,1076,1096,1116,1137,1157,1176,1195,1215],"xSR":741.5,"ySR":469.95,"xT1":424.9,"yT1":0,"xT2":1058.1,"yT2":0,"toosoon":0,"cond_shown":"Congruent","ratio_trial":200,"L_num":9,"L_den":20,"R_num":4,"R_den":16,"correct_side":1,"subjID":"orihanagomez27","gender":"1","school":"4","age":"9"},{"start_time":1552313071175,"click_time":1552313071860,"finger_time":1552313071580,"fix_duration":934.0357804144147,"trial":36,"RT":405,"MT":280,"sideResp":2,"stimulus":[],"xmouse":[796,796,796,796,796,796,796,796,796,796,796,796,796,796,796,796,796,796,801,805,833,854,871,889,905,949,965,979,997,1016,1056,1073,1087,1099,1120],"ymouse":[490,490,490,490,490,490,490,490,490,490,490,490,490,490,490,490,490,490,487,484,466,454,446,438,429,405,391,374,356,329,260,222,185,153,99],"timestamp_mouse":[11,39,46,64,85,106,125,144,166,186,205,225,245,266,284,304,326,346,365,384,405,424,445,465,484,505,524,545,566,584,605,624,644,664,684],"xSR":741.5,"ySR":469.95,"xT1":424.9,"yT1":0,"xT2":1058.1,"yT2":0,"toosoon":0,"cond_shown":"Incongruent","ratio_trial":200,"L_num":1,"L_den":2,"R_num":3,"R_den":10,"correct_side":1,"subjID":"orihanagomez27","gender":"1","school":"4","age":"9"},{"start_time":1552313085552,"click_time":1552313087281,"finger_time":1552313086479,"fix_duration":250,"trial":37,"RT":927,"MT":802,"sideResp":1,"stimulus":[],"xmouse":[781,781,781,781,781,781,781,781,781,781,781,781,781,781,781,781,782,783,783,783,783,783,783,783,783,783,783,783,783,783,783,783,783,783,783,783,783,783,783,783,783,783,783,780,773,757,731,721,711,702,693,678,672,671,670,670,667,664,662,659,656,648,641,634,626,609,582,574,569,565,561,561,561,561,561,561,561,561,561,561,561,561,561,561,561,561,516],"ymouse":[562,560,556,556,556,556,556,556,555,555,555,555,555,554,553,550,547,543,543,543,543,543,543,543,543,543,543,543,543,543,543,543,543,543,543,543,543,543,543,543,543,542,532,521,508,479,436,415,399,379,357,324,312,308,304,302,292,286,282,274,267,246,229,209,184,142,77,55,35,20,0,0,0,0,0,0,0,0,0,0,0,0,0,0,0,0,6],"timestamp_mouse":[10,35,47,67,89,108,128,148,168,187,208,227,249,268,287,309,328,348,367,389,408,429,449,468,488,507,529,549,568,587,609,628,648,669,688,707,728,747,769,788,809,828,848,867,887,909,927,947,968,989,1007,1028,1047,1068,1087,1108,1127,1147,1168,1187,1207,1227,1247,1267,1287,1308,1328,1347,1367,1389,1407,1428,1448,1467,1487,1508,1527,1547,1568,1588,1608,1627,1648,1667,1687,1708,1729],"xSR":741.5,"ySR":469.95,"xT1":424.9,"yT1":0,"xT2":1058.1,"yT2":0,"toosoon":0,"cond_shown":"Congruent","ratio_trial":200,"L_num":12,"L_den":15,"R_num":6,"R_den":10,"correct_side":1,"subjID":"orihanagomez27","gender":"1","school":"4","age":"9"},{"start_time":1552313089395,"click_time":1552313091119,"finger_time":1552313090799,"fix_duration":773.2577523260086,"trial":38,"RT":1404,"MT":320,"sideResp":1,"stimulus":[],"xmouse":[802,802,802,802,802,802,802,802,802,802,802,802,802,802,802,802,802,802,802,802,804,805,806,807,807,807,807,807,807,807,807,807,807,807,807,807,807,807,807,807,807,807,807,807,807,807,807,807,807,807,807,807,807,807,807,807,807,807,807,807,807,807,807,807,807,807,807,807,807,804,782,749,702,666,640,637,635,634,633,632,630,621,600,590,525,493,467],"ymouse":[519,519,519,519,519,519,519,519,519,519,519,519,519,519,519,519,519,519,519,519,519,519,519,519,519,519,519,519,519,519,519,519,519,519,519,519,519,519,519,519,519,519,519,519,519,519,519,519,519,519,519,519,519,519,519,519,519,519,519,519,519,519,519,519,519,519,519,519,519,507,465,407,332,273,195,176,161,155,150,148,146,144,138,136,119,106,93],"timestamp_mouse":[13,37,45,64,84,104,126,146,164,186,206,224,246,264,284,306,324,346,364,384,404,425,445,465,486,505,525,545,565,585,604,625,644,664,686,705,725,746,764,785,805,825,846,866,885,905,925,944,966,986,1005,1025,1044,1064,1086,1105,1126,1144,1164,1184,1206,1225,1246,1264,1284,1306,1325,1345,1366,1385,1404,1424,1445,1464,1485,1505,1524,1544,1564,1584,1604,1625,1644,1664,1685,1704,1724],"xSR":741.5,"ySR":469.95,"xT1":424.9,"yT1":0,"xT2":1058.1,"yT2":0,"toosoon":0,"cond_shown":"Congruent","ratio_trial":300,"L_num":4,"L_den":5,"R_num":2,"R_den":4,"correct_side":1,"subjID":"orihanagomez27","gender":"1","school":"4","age":"9"},{"start_time":1552313094111,"click_time":1552313095260,"finger_time":1552313094939,"fix_duration":250,"trial":39,"RT":828,"MT":321,"sideResp":2,"stimulus":[],"xmouse":[792,792,792,792,792,792,792,792,792,792,792,792,792,792,792,792,792,792,792,792,792,792,792,792,792,792,792,792,792,792,792,792,792,792,792,792,792,792,792,800,822,874,939,1027,1042,1047,1050,1056,1090,1105,1110,1110,1110,1110,1110,1110,1110,1110],"ymouse":[511,511,511,511,511,511,511,511,511,511,511,511,511,511,511,511,511,511,511,511,511,511,511,511,511,511,511,511,511,511,511,511,511,511,511,511,507,505,499,489,476,460,445,416,410,408,407,406,389,379,365,346,325,276,243,199,147,52],"timestamp_mouse":[12,35,49,69,88,108,129,148,168,188,209,228,250,268,289,308,330,349,369,390,408,428,449,470,489,508,528,548,569,589,610,628,648,669,688,708,728,749,768,789,808,828,848,870,888,908,929,949,968,988,1008,1028,1048,1069,1088,1108,1129,1149],"xSR":741.5,"ySR":469.95,"xT1":424.9,"yT1":0,"xT2":1058.1,"yT2":0,"toosoon":0,"cond_shown":"Congruent","ratio_trial":100,"L_num":10,"L_den":25,"R_num":3,"R_den":10,"correct_side":1,"subjID":"orihanagomez27","gender":"1","school":"4","age":"9"},{"start_time":1552313100040,"click_time":1552313100860,"finger_time":1552313100460,"fix_duration":1339.4143847019723,"trial":40,"RT":420,"MT":400,"sideResp":1,"stimulus":[],"xmouse":[767,767,767,767,767,767,767,767,767,767,767,767,767,767,767,767,767,767,767,751,742,712,649,630,617,608,600,586,582,577,577,577,577,576,576,576,576,573,558,541,531,523],"ymouse":[538,538,538,538,538,538,538,538,538,538,538,538,538,538,538,538,538,538,538,509,486,444,384,367,357,348,341,330,330,329,329,329,329,329,318,307,290,213,176,138,110,91],"timestamp_mouse":[1,20,40,59,80,100,119,139,159,179,199,220,240,260,280,299,319,340,361,379,399,420,440,459,481,499,519,539,560,579,600,620,640,659,679,699,719,740,759,779,799,820],"xSR":741.5,"ySR":469.95,"xT1":424.9,"yT1":0,"xT2":1058.1,"yT2":0,"toosoon":0,"cond_shown":"Incongruent","ratio_trial":200,"L_num":14,"L_den":30,"R_num":6,"R_den":9,"correct_side":2,"subjID":"orihanagomez27","gender":"1","school":"4","age":"9"},{"start_time":1552313103654,"click_time":1552313105180,"finger_time":1552313104680,"fix_duration":872.717034553303,"trial":41,"RT":1026,"MT":500,"sideResp":2,"stimulus":[],"xmouse":[796,796,796,796,796,796,796,796,796,796,796,796,796,796,796,796,796,796,796,796,796,796,796,796,796,796,796,798,802,806,808,808,808,808,808,808,808,808,808,808,808,808,808,808,808,808,808,808,808,808,808,852,894,931,958,978,1000,1008,1014,1019,1022,1028,1030,1032,1035,1037,1044,1046,1050,1054,1058,1065,1066,1068,1071,1073,1077],"ymouse":[525,525,525,525,525,525,525,525,525,525,525,525,525,525,525,525,525,525,525,525,525,525,525,525,525,525,525,525,525,525,525,525,525,525,525,525,525,525,525,525,525,525,525,525,525,525,525,525,525,525,525,506,482,460,439,419,387,373,358,345,335,305,291,272,254,237,201,178,163,148,135,116,112,109,106,103,96],"timestamp_mouse":[12,39,45,67,86,105,125,146,165,186,206,226,246,266,285,306,325,347,366,385,405,425,446,467,486,505,525,545,566,585,606,627,646,666,685,705,725,745,766,786,806,826,846,865,886,906,925,946,966,987,1006,1026,1045,1066,1085,1105,1126,1145,1165,1187,1206,1226,1246,1265,1285,1307,1326,1346,1366,1385,1405,1426,1445,1465,1487,1505,1525],"xSR":741.5,"ySR":469.95,"xT1":424.9,"yT1":0,"xT2":1058.1,"yT2":0,"toosoon":0,"cond_shown":"Incongruent","ratio_trial":200,"L_num":1,"L_den":2,"R_num":3,"R_den":10,"correct_side":1,"subjID":"orihanagomez27","gender":"1","school":"4","age":"9"},{"start_time":1552313108861,"click_time":1552313110519,"finger_time":1552313110119,"fix_duration":1080.7545986589807,"trial":42,"RT":1258,"MT":400,"sideResp":2,"stimulus":[],"xmouse":[771,771,771,771,771,771,771,771,771,771,771,771,771,771,771,771,771,771,771,771,771,771,771,771,771,771,771,771,771,771,771,771,771,771,771,771,771,771,771,771,771,771,771,771,771,771,771,771,771,771,771,771,771,771,771,771,771,775,778,779,791,799,808,819,830,853,867,878,888,899,911,917,926,934,939,955,966,981,1002,1026,1070,1097,1100],"ymouse":[509,509,509,509,509,509,509,509,509,509,509,509,509,509,509,509,509,509,509,509,509,509,509,509,509,509,509,509,509,509,509,509,509,509,509,509,509,509,509,509,509,509,509,509,509,509,509,509,509,509,509,509,509,509,509,509,509,506,503,502,488,478,466,451,432,386,356,335,316,291,268,257,245,236,227,208,199,189,176,161,132,105,97],"timestamp_mouse":[20,45,58,78,99,118,138,160,179,199,218,238,258,279,298,319,339,359,378,398,418,440,458,478,499,518,538,558,579,599,619,638,658,679,699,719,739,758,778,799,819,839,858,878,898,919,939,958,979,999,1019,1039,1059,1078,1099,1118,1139,1158,1178,1199,1218,1239,1258,1279,1298,1318,1338,1358,1378,1398,1418,1439,1459,1478,1498,1520,1538,1559,1578,1599,1619,1638,1658],"xSR":741.5,"ySR":469.95,"xT1":424.9,"yT1":0,"xT2":1058.1,"yT2":0,"toosoon":0,"cond_shown":"Congruent","ratio_trial":100,"L_num":1,"L_den":2,"R_num":3,"R_den":5,"correct_side":2,"subjID":"orihanagomez27","gender":"1","school":"4","age":"9"},{"start_time":1552313120624,"click_time":1552313122680,"finger_time":1552313122041,"fix_duration":443.3377107470342,"trial":43,"RT":1417,"MT":639,"sideResp":2,"stimulus":[],"xmouse":[808,808,808,808,808,808,808,808,808,808,808,808,808,808,808,808,808,808,808,808,808,808,808,808,808,808,808,808,808,808,808,808,808,808,808,808,808,808,808,808,808,808,808,808,808,808,808,808,808,808,808,808,808,808,808,808,808,808,808,808,808,808,808,808,808,808,808,808,808,830,867,883,950,966,979,993,1008,1021,1037,1040,1041,1041,1041,1041,1041,1041,1038,1030,1023,1018,1010,1004,1000,1000,1008,1017,1027,1040,1045,1048,1049,1050,1068],"ymouse":[513,513,513,513,513,513,513,513,513,513,513,513,513,513,513,513,513,513,513,513,513,513,513,513,513,513,513,513,513,513,513,513,513,513,513,513,513,513,513,513,513,513,513,513,513,513,513,513,513,513,513,513,513,513,513,513,513,513,513,513,513,513,513,513,513,513,513,513,513,505,491,488,461,451,436,413,395,377,353,346,345,344,344,344,344,344,343,339,332,327,316,300,253,227,199,172,145,114,97,85,79,77,76],"timestamp_mouse":[16,37,56,75,95,115,137,155,177,195,216,236,255,275,296,317,335,355,377,395,415,436,455,476,496,515,535,557,576,596,616,636,656,675,696,716,736,755,775,796,815,836,855,876,896,915,936,955,975,995,1016,1036,1056,1075,1095,1115,1137,1156,1175,1196,1216,1236,1256,1276,1296,1316,1335,1356,1376,1397,1417,1436,1455,1475,1495,1515,1535,1556,1576,1595,1615,1635,1656,1676,1697,1715,1735,1756,1776,1796,1815,1836,1856,1875,1895,1916,1937,1955,1976,1995,2015,2035,2055],"xSR":741.5,"ySR":469.95,"xT1":424.9,"yT1":0,"xT2":1058.1,"yT2":0,"toosoon":0,"cond_shown":"Incongruent","ratio_trial":200,"L_num":14,"L_den":30,"R_num":12,"R_den":18,"correct_side":2,"subjID":"orihanagomez27","gender":"1","school":"4","age":"9"},{"start_time":1552313125503,"click_time":1552313127239,"finger_time":1552313126039,"fix_duration":1122.9363379059162,"trial":44,"RT":536,"MT":1200,"sideResp":2,"stimulus":[],"xmouse":[778,778,778,777,776,775,775,774,774,774,774,774,774,774,774,774,774,774,777,795,802,810,816,829,834,839,843,851,858,858,858,858,858,860,863,868,879,895,940,957,972,993,1012,1056,1077,1103,1130,1145,1162,1175,1178,1184,1189,1201,1203,1203,1203,1203,1203,1203,1203,1203,1203,1203,1203,1203,1203,1203,1203,1203,1179,1179,1179,1183,1184,1184,1184,1188,1197,1199,1200,1196,1196,1196,1196,1196,1115],"ymouse":[512,512,512,512,513,514,514,514,514,514,514,514,514,514,514,514,514,514,514,513,511,508,506,503,501,500,498,493,477,470,462,455,447,422,405,385,363,343,301,289,278,266,255,228,212,192,169,152,125,95,82,66,49,12,2,2,2,2,2,2,2,2,2,2,2,2,2,2,2,2,14,33,54,73,74,74,74,71,45,30,15,5,5,5,5,5,2],"timestamp_mouse":[17,42,56,76,98,116,137,156,176,197,216,237,257,277,297,317,336,358,376,397,416,436,458,476,496,518,536,557,577,598,617,636,656,677,696,716,737,756,776,796,816,836,856,876,896,916,936,957,977,997,1017,1037,1056,1076,1097,1117,1137,1157,1176,1196,1216,1237,1257,1276,1297,1317,1338,1358,1378,1396,1418,1437,1457,1476,1497,1516,1536,1556,1577,1596,1616,1636,1657,1678,1697,1717,1736],"xSR":741.5,"ySR":469.95,"xT1":424.9,"yT1":0,"xT2":1058.1,"yT2":0,"toosoon":0,"cond_shown":"Incongruent","ratio_trial":100,"L_num":3,"L_den":5,"R_num":11,"R_den":22,"correct_side":1,"subjID":"orihanagomez27","gender":"1","school":"4","age":"9"},{"start_time":1552313131917,"click_time":1552313133380,"finger_time":1552313132679,"fix_duration":456.9950806539891,"trial":45,"RT":762,"MT":701,"sideResp":1,"stimulus":[],"xmouse":[810,810,810,810,810,810,810,810,810,810,810,810,810,810,810,810,810,810,810,810,810,810,810,810,810,810,810,810,810,810,810,810,810,810,810,810,810,806,761,732,713,701,694,682,678,676,673,672,668,667,667,667,667,667,667,667,665,661,650,647,643,635,625,605,601,597,593,584,570,559,548,538,530,506],"ymouse":[519,519,519,519,519,519,519,519,519,519,519,519,519,519,519,519,519,519,519,519,519,519,519,519,519,519,519,519,519,519,519,519,519,518,515,514,513,505,454,421,398,379,362,321,302,282,260,243,216,214,212,210,208,198,191,184,173,164,147,144,142,138,135,125,124,122,118,109,95,87,79,72,69,63],"timestamp_mouse":[12,23,42,62,82,103,123,144,163,182,202,222,244,263,282,303,322,343,363,382,402,423,443,463,482,502,523,542,563,582,602,622,643,662,683,702,722,742,762,782,802,822,844,862,882,903,924,943,963,982,1002,1022,1043,1063,1082,1102,1123,1142,1163,1183,1203,1223,1242,1262,1282,1302,1323,1343,1363,1382,1402,1422,1442,1463],"xSR":741.5,"ySR":469.95,"xT1":424.9,"yT1":0,"xT2":1058.1,"yT2":0,"toosoon":0,"cond_shown":"Incongruent","ratio_trial":100,"L_num":8,"L_den":20,"R_num":1,"R_den":2,"correct_side":2,"subjID":"orihanagomez27","gender":"1","school":"4","age":"9"},{"start_time":1552313135887,"click_time":1552313136840,"finger_time":1552313136260,"fix_duration":524.2334011523932,"trial":46,"RT":373,"MT":580,"sideResp":2,"stimulus":[],"xmouse":[785,785,785,785,785,785,785,785,785,785,785,785,785,786,791,795,807,819,834,873,877,880,883,885,889,891,893,896,901,920,931,941,953,966,1002,1023,1044,1064,1084,1124,1131,1134,1136,1136,1136,1136,1136,1132],"ymouse":[521,521,521,521,521,521,521,521,521,521,521,521,521,521,519,515,503,486,462,383,373,365,360,355,346,342,337,331,323,299,286,270,256,239,208,195,181,169,158,133,127,123,120,120,119,113,106,94],"timestamp_mouse":[13,42,52,73,94,112,133,152,173,194,212,233,253,274,292,312,333,352,373,393,413,432,453,473,493,512,532,552,573,592,612,632,653,672,692,712,734,752,773,792,812,832,853,873,893,912,932,953],"xSR":741.5,"ySR":469.95,"xT1":424.9,"yT1":0,"xT2":1058.1,"yT2":0,"toosoon":0,"cond_shown":"Congruent","ratio_trial":100,"L_num":6,"L_den":20,"R_num":5,"R_den":25,"correct_side":1,"subjID":"orihanagomez27","gender":"1","school":"4","age":"9"},{"start_time":1552313139663,"click_time":1552313140480,"finger_time":1552313140080,"fix_duration":823.3742583645301,"trial":47,"RT":417,"MT":400,"sideResp":1,"stimulus":[],"xmouse":[787,787,787,787,787,787,787,787,787,787,787,787,787,787,787,787,787,787,786,775,755,739,723,707,691,669,659,652,641,637,625,624,622,620,618,605,594,576,556,539,501],"ymouse":[525,525,525,525,525,525,523,522,521,521,521,521,521,521,521,521,519,514,506,488,464,447,426,407,385,338,307,277,223,204,150,141,133,127,122,107,99,90,79,69,51],"timestamp_mouse":[17,36,57,77,97,116,138,157,177,196,217,237,258,277,297,317,336,357,376,397,417,436,457,476,496,517,536,556,576,596,616,636,656,677,697,717,736,756,776,796,817],"xSR":741.5,"ySR":469.95,"xT1":424.9,"yT1":0,"xT2":1058.1,"yT2":0,"toosoon":0,"cond_shown":"Incongruent","ratio_trial":200,"L_num":14,"L_den":30,"R_num":12,"R_den":18,"correct_side":2,"subjID":"orihanagomez27","gender":"1","school":"4","age":"9"},{"start_time":1552313142887,"click_time":1552313143699,"finger_time":1552313143300,"fix_duration":1007.1375654930632,"trial":48,"RT":413,"MT":399,"sideResp":2,"stimulus":[],"xmouse":[780,780,780,780,780,780,780,780,780,780,780,780,780,780,780,780,789,801,810,825,860,870,877,881,891,899,910,924,945,965,1000,1007,1014,1020,1038,1049,1062,1076,1096,1117,1123],"ymouse":[529,529,529,529,529,529,529,529,529,529,529,529,529,529,529,529,525,512,503,489,451,438,426,416,395,385,368,349,317,300,271,266,259,252,227,212,195,176,146,105,90],"timestamp_mouse":[13,40,52,74,92,113,134,154,172,193,214,233,253,273,292,313,333,352,373,392,413,432,454,473,493,512,532,553,572,592,612,634,652,672,693,712,733,752,772,793,812],"xSR":741.5,"ySR":469.95,"xT1":424.9,"yT1":0,"xT2":1058.1,"yT2":0,"toosoon":0,"cond_shown":"Incongruent","ratio_trial":300,"L_num":13,"L_den":26,"R_num":12,"R_den":15,"correct_side":2,"subjID":"orihanagomez27","gender":"1","school":"4","age":"9"},{"start_time":1552313145331,"click_time":1552313146520,"finger_time":1552313145979,"fix_duration":250,"trial":49,"RT":648,"MT":541,"sideResp":1,"stimulus":[],"xmouse":[816,816,816,816,816,816,816,816,816,816,816,815,814,814,812,809,808,808,808,808,808,808,808,808,808,808,808,808,808,808,807,809,869,907,933,951,962,972,972,972,967,954,916,888,862,828,787,706,686,669,654,642,629,594,574,557,543,531,529,523],"ymouse":[514,514,514,514,514,512,510,505,503,500,496,495,494,494,493,492,492,492,492,492,492,492,492,492,492,492,492,492,492,492,490,477,369,314,274,242,221,197,196,195,194,192,178,169,161,153,148,134,131,126,121,116,109,94,85,78,74,70,69,68],"timestamp_mouse":[13,33,49,69,89,108,129,148,169,188,210,228,249,268,289,309,328,349,368,389,409,428,449,469,489,508,529,549,569,589,609,628,648,668,688,710,728,748,769,788,809,830,848,868,888,908,928,949,968,989,1009,1030,1049,1070,1088,1108,1128,1149,1168,1188],"xSR":741.5,"ySR":469.95,"xT1":424.9,"yT1":0,"xT2":1058.1,"yT2":0,"toosoon":0,"cond_shown":"Congruent","ratio_trial":100,"L_num":4,"L_den":10,"R_num":15,"R_den":30,"correct_side":2,"subjID":"orihanagomez27","gender":"1","school":"4","age":"9"},{"start_time":1552313148942,"click_time":1552313149961,"finger_time":1552313149420,"fix_duration":799.8646234427941,"trial":50,"RT":478,"MT":541,"sideResp":2,"stimulus":[],"xmouse":[759,759,759,759,759,759,759,759,759,761,761,761,762,762,763,765,785,797,809,819,827,836,840,844,849,858,877,885,896,909,915,923,940,947,962,966,974,988,991,995,1000,1011,1016,1020,1023,1027,1036,1040,1046,1055,1065],"ymouse":[516,516,516,516,516,516,516,516,516,514,514,512,511,511,509,507,499,496,493,491,489,483,480,476,471,458,418,384,336,280,248,218,166,146,120,113,102,89,88,86,86,86,86,86,86,86,87,87,88,88,88],"timestamp_mouse":[20,45,58,78,97,117,138,157,178,197,217,238,259,277,299,318,337,358,378,397,417,438,459,478,498,517,538,558,578,597,618,638,659,679,698,719,738,759,778,798,817,838,857,878,898,918,938,957,978,999,1019],"xSR":741.5,"ySR":469.95,"xT1":424.9,"yT1":0,"xT2":1058.1,"yT2":0,"toosoon":0,"cond_shown":"Incongruent","ratio_trial":100,"L_num":10,"L_den":25,"R_num":8,"R_den":16,"correct_side":2,"subjID":"orihanagomez27","gender":"1","school":"4","age":"9"},{"start_time":1552313152361,"click_time":1552313153280,"finger_time":1552313152979,"fix_duration":841.6169368803078,"trial":51,"RT":618,"MT":301,"sideResp":2,"stimulus":[],"xmouse":[796,796,796,796,796,796,796,796,796,796,796,796,796,796,796,796,796,796,796,796,796,796,796,796,796,796,796,804,810,819,841,852,863,877,893,910,918,925,933,941,963,975,987,1001,1014,1059],"ymouse":[516,516,516,516,516,516,516,516,516,516,516,516,516,516,516,516,516,516,516,516,516,516,516,516,516,516,516,507,498,486,454,435,411,383,345,305,287,269,251,230,180,155,135,115,97,47],"timestamp_mouse":[18,44,58,77,98,118,138,158,178,199,217,239,259,277,297,318,339,357,378,398,419,438,458,477,498,518,537,557,578,598,618,638,658,678,699,719,738,758,779,797,820,837,858,878,898,919],"xSR":741.5,"ySR":469.95,"xT1":424.9,"yT1":0,"xT2":1058.1,"yT2":0,"toosoon":0,"cond_shown":"Incongruent","ratio_trial":100,"L_num":12,"L_den":30,"R_num":2,"R_den":4,"correct_side":2,"subjID":"orihanagomez27","gender":"1","school":"4","age":"9"},{"start_time":1552313158943,"click_time":1552313160819,"finger_time":1552313160479,"fix_duration":1362.3530857162764,"trial":52,"RT":1536,"MT":340,"sideResp":2,"stimulus":[],"xmouse":[790,790,790,790,790,790,790,790,790,790,790,790,790,790,790,790,790,790,790,790,790,790,790,790,790,790,790,790,790,790,790,790,790,790,790,790,790,790,790,790,790,790,790,790,790,790,790,790,790,790,790,790,790,790,790,790,790,790,790,790,790,790,790,790,790,790,790,790,790,790,790,790,790,790,790,790,877,996,1088,1115,1145,1207,1219,1228,1236,1241,1250,1252,1253,1253,1252,1244,1195,1156],"ymouse":[502,502,502,502,502,502,502,502,502,502,502,502,502,502,502,502,502,502,502,502,502,502,502,502,502,502,502,502,502,502,502,502,502,502,502,502,502,502,502,502,502,502,502,502,502,502,502,502,502,502,502,502,502,502,502,502,502,502,502,502,502,502,502,502,502,502,502,502,502,502,502,502,502,502,502,502,473,440,413,392,372,319,300,279,260,239,195,183,168,153,140,128,102,91],"timestamp_mouse":[16,37,57,76,97,116,137,156,177,197,217,236,257,277,296,315,337,356,376,397,415,436,456,477,495,516,536,556,575,597,616,636,656,675,697,715,736,756,777,797,816,836,857,875,896,916,935,957,976,996,1017,1036,1056,1075,1097,1117,1136,1156,1177,1196,1215,1236,1257,1276,1296,1316,1337,1357,1376,1397,1416,1437,1457,1477,1496,1516,1536,1557,1577,1596,1615,1637,1655,1676,1696,1716,1735,1755,1776,1797,1815,1836,1857,1875],"xSR":741.5,"ySR":469.95,"xT1":424.9,"yT1":0,"xT2":1058.1,"yT2":0,"toosoon":0,"cond_shown":"Congruent","ratio_trial":200,"L_num":9,"L_den":30,"R_num":13,"R_den":26,"correct_side":2,"subjID":"orihanagomez27","gender":"1","school":"4","age":"9"},{"start_time":1552313166359,"click_time":1552313169319,"finger_time":1552313167579,"fix_duration":318.8606614897482,"trial":53,"RT":1220,"MT":1740,"sideResp":1,"stimulus":[],"xmouse":[799,799,799,799,799,799,799,799,799,799,799,799,799,799,799,799,799,799,799,799,799,799,799,799,799,799,799,799,799,799,799,799,799,799,799,799,799,799,799,799,799,799,799,799,799,799,799,799,799,799,799,799,799,799,799,799,799,799,799,809,819,861,872,881,883,883,850,800,736,675,631,585,577,573,571,570,567,567,567,567,567,567,568,570,572,573,573,570,566,563,560,555,554,553,553,553,553,553,553,553,553,553,553,553,553,553,553,553,553,553,553,553,553,553,553,553,553,553,553,553,553,553,553,553,553,553,553,553,553,553,553,554,553,547,540,531,504,496,495,494,494,493,493,493,493,493,492,490,487],"ymouse":[483,483,483,483,483,483,483,483,483,483,483,483,483,483,483,483,483,483,483,483,483,483,483,483,483,483,483,483,483,483,483,483,483,483,483,483,483,483,483,483,483,483,483,483,483,483,483,483,483,483,483,483,483,483,483,483,483,483,483,482,480,460,449,434,420,406,352,314,275,242,219,200,199,197,197,197,197,197,197,197,197,197,197,199,201,202,205,209,214,219,223,235,239,244,246,246,246,246,246,246,246,246,246,246,246,246,246,246,246,246,246,246,246,246,246,246,246,246,246,246,246,246,246,246,246,246,246,246,246,246,243,234,229,222,217,209,190,186,185,184,184,182,180,178,175,170,142,122,97],"timestamp_mouse":[10,36,41,60,81,100,119,141,161,179,200,221,240,259,281,300,320,340,360,380,400,420,439,461,479,500,520,539,561,581,600,621,640,660,681,701,720,741,761,780,800,821,841,861,881,900,921,941,961,980,1000,1020,1040,1061,1081,1099,1119,1141,1161,1181,1200,1220,1240,1260,1281,1300,1320,1339,1361,1381,1400,1420,1439,1461,1480,1501,1520,1540,1561,1579,1599,1620,1640,1661,1681,1701,1721,1741,1761,1780,1801,1821,1840,1859,1880,1899,1920,1940,1961,1981,2000,2021,2041,2061,2080,2101,2120,2141,2160,2181,2200,2221,2241,2261,2280,2301,2320,2341,2360,2380,2400,2419,2441,2461,2481,2500,2520,2541,2560,2580,2601,2621,2640,2660,2680,2700,2721,2740,2761,2781,2801,2820,2839,2859,2880,2900,2921,2941,2960],"xSR":741.5,"ySR":469.95,"xT1":424.9,"yT1":0,"xT2":1058.1,"yT2":0,"toosoon":0,"cond_shown":"Incongruent","ratio_trial":100,"L_num":9,"L_den":15,"R_num":14,"R_den":28,"correct_side":1,"subjID":"orihanagomez27","gender":"1","school":"4","age":"9"},{"start_time":1552313184854,"click_time":1552313185958,"finger_time":1552313185699,"fix_duration":652.889236911027,"trial":54,"RT":845,"MT":259,"sideResp":1,"stimulus":[],"xmouse":[776,776,776,776,776,776,776,776,776,776,776,776,776,776,776,776,776,776,776,776,776,776,776,776,776,776,776,776,776,776,776,776,776,776,776,776,776,776,777,777,779,783,786,790,792,792,779,772,762,755,742,714,686,642,576,500],"ymouse":[520,520,520,520,520,520,520,520,520,520,520,520,520,520,520,520,520,520,520,520,520,520,520,520,520,520,520,520,520,520,520,520,520,520,520,520,520,520,517,514,504,478,456,433,385,355,285,259,238,221,198,166,148,126,104,82],"timestamp_mouse":[12,41,44,66,85,106,124,144,166,186,206,226,246,266,285,306,324,346,365,386,405,424,445,466,485,504,526,546,566,585,606,625,645,666,684,704,725,746,765,785,805,825,845,865,886,904,925,944,966,985,1005,1025,1045,1065,1086,1104],"xSR":741.5,"ySR":469.95,"xT1":424.9,"yT1":0,"xT2":1058.1,"yT2":0,"toosoon":0,"cond_shown":"Incongruent","ratio_trial":100,"L_num":2,"L_den":4,"R_num":8,"R_den":20,"correct_side":1,"subjID":"orihanagomez27","gender":"1","school":"4","age":"9"},{"start_time":1552313188391,"click_time":1552313189980,"finger_time":1552313189118,"fix_duration":309.0793890838042,"trial":55,"RT":727,"MT":862,"sideResp":2,"stimulus":[],"xmouse":[789,789,789,789,789,789,789,789,789,789,789,789,789,789,789,789,789,789,789,789,789,789,789,789,789,789,789,789,789,789,789,789,789,789,814,832,851,869,882,905,913,917,921,925,926,926,926,926,926,927,928,931,933,937,948,951,954,961,969,980,1015,1028,1039,1044,1054,1057,1060,1062,1065,1074,1076,1077,1077,1077,1077,1077,1077,1077,1077,1077],"ymouse":[532,532,532,532,532,532,532,532,532,532,532,532,532,532,532,532,532,532,532,532,532,532,532,532,532,532,532,532,532,532,532,532,532,529,505,487,469,450,433,393,371,353,337,312,295,291,286,282,277,267,263,259,256,256,252,250,248,242,237,230,214,208,202,198,189,185,178,169,158,131,121,114,108,105,103,103,103,103,101,98],"timestamp_mouse":[21,45,48,68,88,108,129,148,169,189,209,229,248,268,288,309,329,347,368,389,408,428,449,468,489,507,528,548,569,588,609,628,648,668,688,709,727,747,768,789,807,828,849,869,889,908,928,949,968,988,1007,1028,1048,1068,1089,1108,1128,1148,1168,1188,1209,1227,1247,1268,1288,1308,1328,1349,1369,1389,1409,1428,1448,1468,1488,1508,1529,1549,1568,1588],"xSR":741.5,"ySR":469.95,"xT1":424.9,"yT1":0,"xT2":1058.1,"yT2":0,"toosoon":0,"cond_shown":"Incongruent","ratio_trial":200,"L_num":7,"L_den":10,"R_num":12,"R_den":24,"correct_side":1,"subjID":"orihanagomez27","gender":"1","school":"4","age":"9"},{"start_time":1552313193990,"click_time":1552313197139,"finger_time":1552313194640,"fix_duration":308.4775391965712,"trial":56,"RT":650,"MT":2499,"sideResp":2,"stimulus":[],"xmouse":[837,837,837,837,837,837,837,836,836,836,836,836,836,836,836,834,832,831,831,831,831,830,829,828,824,824,822,821,820,818,818,817,817,816,814,814,813,813,813,813,813,813,813,813,813,813,813,813,813,813,813,813,813,813,814,814,814,814,814,814,814,814,814,813,810,809,808,807,806,806,806,805,804,804,803,802,802,802,802,802,801,801,800,797,792,792,792,792,792,792,792,792,792,792,792,792,792,792,792,792,792,793,794,797,812,828,843,862,874,914,931,948,965,980,1010,1017,1022,1025,1029,1034,1035,1037,1037,1040,1040,1041,1042,1042,1043,1049,1053,1059,1065,1074,1088,1096,1106,1113,1121,1131,1150,1161,1171,1179,1189,1189,1189,1189,1190,1187,1179,1175,1170,1170,1166,1165,1161,1158],"ymouse":[487,487,487,484,481,480,479,478,477,476,476,476,476,476,476,475,475,475,475,475,475,475,475,474,473,473,473,473,473,473,473,472,468,464,456,453,452,451,451,451,451,451,451,450,446,443,441,440,437,437,437,437,436,436,434,434,434,434,434,434,434,434,435,437,447,452,455,458,460,462,463,465,466,466,470,471,472,474,475,476,478,482,487,498,514,518,518,518,518,518,518,518,518,518,518,518,518,518,518,518,518,517,515,509,491,478,467,452,439,392,369,346,318,297,263,252,247,241,236,226,222,217,214,208,203,197,192,190,188,183,179,175,170,162,150,144,137,132,127,119,100,89,78,70,51,47,45,45,44,43,41,41,40,40,39,39,39,39],"timestamp_mouse":[13,42,49,69,89,108,129,149,168,188,209,229,250,269,290,309,330,348,369,389,408,428,449,470,489,509,529,548,569,590,609,630,650,669,688,709,728,748,770,789,809,829,850,869,890,909,929,950,970,989,1009,1030,1049,1070,1089,1109,1128,1148,1169,1189,1209,1229,1249,1270,1289,1308,1328,1349,1370,1390,1410,1429,1449,1469,1489,1509,1530,1549,1569,1588,1609,1630,1650,1668,1689,1710,1729,1750,1769,1790,1810,1830,1848,1870,1888,1910,1930,1949,1969,1989,2010,2030,2048,2070,2089,2110,2130,2149,2168,2189,2209,2229,2250,2270,2290,2309,2329,2349,2369,2389,2408,2430,2450,2469,2489,2509,2530,2548,2569,2589,2609,2629,2650,2669,2689,2709,2730,2749,2770,2789,2810,2829,2849,2870,2889,2908,2929,2950,2970,2990,3009,3030,3049,3069,3089,3109,3129,3149],"xSR":741.5,"ySR":469.95,"xT1":424.9,"yT1":0,"xT2":1058.1,"yT2":0,"toosoon":0,"cond_shown":"Incongruent","ratio_trial":200,"L_num":6,"L_den":20,"R_num":3,"R_den":6,"correct_side":2,"subjID":"orihanagomez27","gender":"1","school":"4","age":"9"},{"start_time":1552313205597,"click_time":1552313210319,"finger_time":1552313206000,"fix_duration":1216.1643166913107,"trial":57,"RT":403,"MT":4319,"sideResp":2,"stimulus":[],"xmouse":[766,766,766,766,766,766,766,766,766,766,766,766,766,766,766,766,766,766,766,766,754,743,729,710,654,624,596,577,560,539,531,524,520,517,515,515,515,515,515,515,515,515,515,517,529,536,543,554,566,607,636,672,713,765,832,862,889,914,935,965,969,970,970,970,969,949,921,885,847,777,750,714,678,637,598,577,551,518,518,518,518,518,518,518,518,518,518,518,518,518,518,518,518,518,518,518,518,518,369,250,226,198,191,172,160,145,143,152,152,152,152,152,932,960,964,947,922,897,879,856,849,843,838,828,811,809,809,809,809,805,797,776,733,666,525,283,185,122,84,52,43,35,28,28,28,28,28,28,28,28,28,28,28,28,28,28,28,28,28,28,28,28,28,28,28,28,28,28,28,28,28,28,28,28,28,28,28,28,28,28,28,167,247,600,1198,1492,1492,1492,1492,1492,1492,1492,1492,1492,1492,1440,1278,1071,733,733,733,733,733,733,733,733,733,733,733,141,175,217,315,363,542,797,898,970,1006,1039,1049,1052,1054,1054,1054,1054,1054,1054,1054,1054,1054,1054,1054,1054,1054,1055,1075],"ymouse":[505,505,505,505,505,505,505,505,505,505,505,505,505,505,499,495,490,485,480,475,457,445,430,411,358,333,310,296,288,275,270,267,266,264,263,263,263,263,263,263,263,263,262,262,262,262,262,262,262,262,262,262,262,262,263,263,263,263,261,253,251,250,250,250,250,250,250,250,255,279,296,329,369,432,512,568,627,702,702,702,702,702,702,702,702,702,702,702,702,702,702,702,702,702,702,702,702,702,694,662,662,664,666,677,682,695,706,718,718,718,718,718,722,705,646,575,481,424,399,367,359,353,349,345,339,339,339,338,335,321,310,299,281,253,198,96,65,42,27,14,10,5,0,0,0,0,0,0,0,0,0,0,0,0,0,0,0,0,0,0,0,0,0,0,0,0,0,0,0,0,0,0,0,0,0,0,0,0,0,0,0,27,73,204,393,477,477,477,477,477,477,477,477,477,477,301,217,129,18,18,18,18,18,18,18,18,18,18,18,65,130,198,271,282,288,248,214,176,148,96,63,35,8,8,8,8,8,8,8,8,8,8,8,8,8,13,24],"timestamp_mouse":[10,22,42,63,82,101,122,143,163,183,201,223,241,263,282,303,322,343,363,382,403,422,442,462,483,502,523,543,563,582,602,622,642,662,682,702,722,742,763,783,802,823,843,863,882,901,922,942,963,981,1002,1021,1042,1063,1082,1102,1122,1143,1163,1182,1201,1223,1242,1261,1282,1302,1322,1344,1363,1382,1403,1422,1441,1461,1482,1503,1523,1543,1563,1583,1603,1622,1643,1663,1682,1703,1723,1743,1763,1782,1802,1823,1843,1863,1882,1902,1922,1942,1962,1982,2003,2021,2042,2063,2082,2103,2122,2143,2162,2182,2203,2222,2242,2262,2281,2302,2322,2343,2363,2382,2402,2423,2443,2462,2482,2502,2521,2542,2562,2582,2603,2622,2642,2662,2682,2703,2723,2743,2762,2782,2802,2823,2843,2862,2882,2902,2923,2942,2963,2982,3002,3022,3042,3062,3082,3103,3123,3143,3163,3182,3202,3222,3243,3262,3282,3302,3323,3343,3363,3382,3402,3422,3443,3463,3482,3502,3522,3543,3562,3582,3602,3622,3643,3663,3683,3702,3722,3743,3762,3782,3802,3823,3842,3862,3882,3903,3922,3943,3962,3982,4003,4023,4042,4062,4082,4103,4121,4142,4162,4183,