[{"start_time":1552313661441,"click_time":1552313663506,"finger_time":1552313661451,"fix_duration":1389.4985713957549,"trial":0,"RT":10,"MT":2055,"sideResp":1,"stimulus":"img/750/randomdotsizeEA/R/12_Ratio_750_L_3_R_4.png","xmouse":[780,780,780,780,783,784,785,785,786,786,786,786,786,786,786,786,786,786,786,786,786,786,786,786,786,786,786,786,786,787,790,795,797,798,798,798,799,799,799,799,799,799,799,799,799,799,799,799,797,797,796,796,796,796,796,795,794,793,792,792,792,792,792,792,792,792,792,792,792,792,792,792,792,792,792,792,792,793,793,793,763,748,712,695,659,644,628,613,597,583,563,547,534,523,515,503,500,498,498,498,498,498,498,498],"ymouse":[530,530,530,530,529,529,529,529,528,528,528,528,528,528,528,528,528,528,528,528,528,528,528,528,528,528,528,528,528,531,544,568,580,590,601,603,605,605,605,605,605,605,605,605,605,605,606,608,610,612,615,616,616,616,616,616,618,620,623,626,628,628,628,628,628,628,628,628,628,628,628,628,628,628,628,628,628,613,603,578,431,405,346,312,253,235,218,209,199,196,191,182,174,166,159,141,133,125,119,111,105,102,100,98],"timestamp_mouse":[10,24,44,63,86,104,123,144,165,184,205,223,244,265,285,304,323,344,363,385,405,425,444,464,485,504,524,545,564,585,603,623,644,665,685,705,724,745,765,785,804,825,845,864,885,903,924,944,964,984,1004,1024,1044,1065,1085,1104,1124,1145,1164,1185,1204,1224,1245,1265,1284,1304,1325,1343,1364,1384,1404,1423,1444,1464,1484,1504,1525,1545,1564,1583,1604,1624,1644,1663,1685,1704,1724,1744,1764,1784,1805,1824,1844,1864,1884,1905,1924,1945,1964,1985,2004,2025,2044,2065],"xSR":741.5,"ySR":469.95,"xT1":424.9,"yT1":0,"xT2":1058.1,"yT2":0,"toosoon":0,"cond_shown":"randomdotsizeEA","ratio_trial":750,"smaller_num":"3","larger_num":"4","correct_side":2,"subjID":"orihanagomez ","gender":"1","age":"9","school":"9","test":{"fix_dur":[250,1500],"timestim":300,"targets_dim":[100,100],"targets_relative_coord":[0.3,0.7],"size_stim":[880,420],"start_dim":[100,100],"size_start":[300,300],"size_fix":60,"samplingrate":20,"img_types":["equaldotsize","equaldotanddens","randomdotsizeEA"],"ratios":[250,500,750,900],"rep_conds":9,"nTrials":120,"trials_to_rest":500,"Trials_order":[116,65,44,10,107,110,86,93,34,18,63,102,98,74,35,45,66,17,60,97,52,73,82,59,109,36,100,7,80,62,79,119,16,56,84,54,32,117,81,89,108,92,23,64,2,50,118,5,91,49,29,22,105,101,104,87,14,55,76,37,33,1,68,4,114,90,11,112,30,113,61,20,3,27,48,31,51,75,8,19,83,106,43,103,71,40,72,24,78,13,42,115,88,67,95,41,9,57,6,12,47,69,53,85,99,111,28,26,38,25,39,21,77,96,0,46,15,58,94,70],"cond_shown":["randomdotsizeEA","randomdotsizeEA","randomdotsizeEA","equaldotanddens","randomdotsizeEA","randomdotsizeEA","randomdotsizeEA","equaldotsize","equaldotanddens","equaldotsize","equaldotsize","equaldotsize","randomdotsizeEA","randomdotsizeEA","randomdotsizeEA","equaldotsize","equaldotsize","randomdotsizeEA","equaldotsize","equaldotanddens","equaldotanddens","equaldotanddens","equaldotanddens","randomdotsizeEA","equaldotanddens","equaldotsize","equaldotanddens","equaldotanddens","randomdotsizeEA","randomdotsizeEA","equaldotanddens","randomdotsizeEA","equaldotanddens","randomdotsizeEA","equaldotsize","equaldotsize","randomdotsizeEA","equaldotsize","equaldotsize","randomdotsizeEA","equaldotsize","randomdotsizeEA","randomdotsizeEA","equaldotanddens","randomdotsizeEA","randomdotsizeEA","equaldotanddens","randomdotsizeEA","equaldotanddens","equaldotanddens","randomdotsizeEA","equaldotanddens","equaldotsize","randomdotsizeEA","randomdotsizeEA","equaldotsize","randomdotsizeEA","equaldotanddens","equaldotanddens","equaldotanddens","equaldotsize","equaldotanddens","randomdotsizeEA","equaldotanddens","equaldotsize","equaldotsize","randomdotsizeEA","equaldotanddens","equaldotsize","randomdotsizeEA","equaldotanddens","randomdotsizeEA","equaldotsize","equaldotsize","equaldotsize","equaldotanddens","equaldotsize","equaldotsize","randomdotsizeEA","equaldotanddens","randomdotsizeEA","equaldotanddens","equaldotanddens","equaldotanddens","randomdotsizeEA","equaldotanddens","equaldotsize","equaldotsize","equaldotsize","equaldotanddens","equaldotsize","equaldotanddens","equaldotanddens","equaldotanddens","randomdotsizeEA","randomdotsizeEA","equaldotsize","equaldotsize","equaldotsize","equaldotsize","randomdotsizeEA","equaldotsize","randomdotsizeEA","equaldotanddens","equaldotsize","equaldotsize","equaldotanddens","randomdotsizeEA","randomdotsizeEA","equaldotanddens","equaldotsize","equaldotsize","randomdotsizeEA","equaldotsize","equaldotsize","equaldotanddens","equaldotsize","equaldotanddens","equaldotanddens","equaldotanddens"],"ratio_trial":[750,500,750,900,900,250,250,900,900,750,500,750,250,250,900,900,750,500,250,250,500,250,900,900,250,250,500,750,750,250,750,900,500,750,250,750,750,900,900,500,250,750,900,500,250,250,900,500,750,250,500,900,900,500,750,500,250,750,500,250,900,250,750,500,750,750,900,500,750,500,250,750,500,500,250,750,500,500,750,750,900,900,750,750,900,500,250,250,750,250,750,750,500,750,900,500,900,900,750,250,900,900,500,250,500,500,500,250,250,250,500,900,500,250,250,900,500,900,900,900],"smaller_num":["3","2","6","9","9","3","3","9","9","18","5","3","6","4","9","9","12","1","3","3","9","2","18","18","3","2","4","6","3","3","6","9","10","18","3","12","6","18","18","1","2","3","9","4","4","2","18","1","6","1","6","18","18","2","15","6","3","3","2","5","9","2","3","5","18","15","18","9","3","1","2","3","10","9","3","3","1","6","18","9","18","18","3","9","9","1","6","2","15","3","6","6","2","18","9","1","9","9","3","2","18","18","2","3","5","4","10","6","3","4","1","9","5","2","3","9","1","18","18","18"],"larger_num":["4","4","8","10","10","12","12","10","10","24","10","4","24","16","10","10","16","2","12","12","18","8","20","20","12","8","8","8","4","12","8","10","20","24","12","16","8","20","20","2","8","4","10","8","16","8","20","2","8","4","12","20","20","4","20","12","12","4","4","20","10","8","4","10","24","20","20","18","4","2","8","4","20","18","12","4","2","12","24","12","20","20","4","12","10","2","24","8","20","12","8","8","4","24","10","2","10","10","4","8","20","20","4","12","10","8","20","24","12","16","2","10","10","8","12","10","2","20","20","20"],"correct_side":[2,2,1,2,2,2,1,1,2,1,2,1,1,2,1,1,2,2,1,1,2,1,1,1,1,1,1,1,1,2,1,2,2,1,1,2,1,2,2,2,1,1,1,1,1,2,1,2,2,2,1,1,1,1,2,1,1,1,1,2,2,1,1,1,1,1,2,2,1,2,2,1,2,2,1,2,2,1,1,2,2,2,2,2,2,2,2,1,2,2,1,2,1,1,2,2,1,2,2,1,1,2,2,1,1,1,2,2,2,1,2,2,1,2,2,2,2,2,2,2],"img_shown":["img/750/randomdotsizeEA/R/12_Ratio_750_L_3_R_4.png","img/500/randomdotsizeEA/R/9_Ratio_500_L_2_R_4.png","img/750/randomdotsizeEA/L/13_Ratio_750_L_8_R_6.png","img/900/equaldotanddens/R/6_Ratio_900_L_9_R_10.png","img/900/randomdotsizeEA/R/3_Ratio_900_L_9_R_10.png","img/250/randomdotsizeEA/R/9_Ratio_250_L_3_R_12.png","img/250/randomdotsizeEA/L/14_Ratio_250_L_12_R_3.png","img/900/equaldotsize/L/1_Ratio_900_L_10_R_9.png","img/900/equaldotanddens/R/15_Ratio_900_L_9_R_10.png","img/750/equaldotsize/L/6_Ratio_750_L_24_R_18.png","img/500/equaldotsize/R/14_Ratio_500_L_5_R_10.png","img/750/equaldotsize/L/10_Ratio_750_L_4_R_3.png","img/250/randomdotsizeEA/L/5_Ratio_250_L_24_R_6.png","img/250/randomdotsizeEA/R/10_Ratio_250_L_4_R_16.png","img/900/randomdotsizeEA/L/1_Ratio_900_L_10_R_9.png","img/900/equaldotsize/L/1_Ratio_900_L_10_R_9.png","img/750/equaldotsize/R/11_Ratio_750_L_12_R_16.png","img/500/randomdotsizeEA/R/12_Ratio_500_L_1_R_2.png","img/250/equaldotsize/L/15_Ratio_250_L_12_R_3.png","img/250/equaldotanddens/L/14_Ratio_250_L_12_R_3.png","img/500/equaldotanddens/R/1_Ratio_500_L_9_R_18.png","img/250/equaldotanddens/L/3_Ratio_250_L_8_R_2.png","img/900/equaldotanddens/L/2_Ratio_900_L_20_R_18.png","img/900/randomdotsizeEA/L/8_Ratio_900_L_20_R_18.png","img/250/equaldotanddens/L/14_Ratio_250_L_12_R_3.png","img/250/equaldotsize/L/7_Ratio_250_L_8_R_2.png","img/500/equaldotanddens/L/8_Ratio_500_L_8_R_4.png","img/750/equaldotanddens/L/13_Ratio_750_L_8_R_6.png","img/750/randomdotsizeEA/L/9_Ratio_750_L_4_R_3.png","img/250/randomdotsizeEA/R/9_Ratio_250_L_3_R_12.png","img/750/equaldotanddens/L/14_Ratio_750_L_8_R_6.png","img/900/randomdotsizeEA/R/15_Ratio_900_L_9_R_10.png","img/500/equaldotanddens/R/3_Ratio_500_L_10_R_20.png","img/750/randomdotsizeEA/L/6_Ratio_750_L_24_R_18.png","img/250/equaldotsize/L/15_Ratio_250_L_12_R_3.png","img/750/equaldotsize/R/11_Ratio_750_L_12_R_16.png","img/750/randomdotsizeEA/L/14_Ratio_750_L_8_R_6.png","img/900/equaldotsize/R/14_Ratio_900_L_18_R_20.png","img/900/equaldotsize/R/11_Ratio_900_L_18_R_20.png","img/500/randomdotsizeEA/R/12_Ratio_500_L_1_R_2.png","img/250/equaldotsize/L/3_Ratio_250_L_8_R_2.png","img/750/randomdotsizeEA/L/9_Ratio_750_L_4_R_3.png","img/900/randomdotsizeEA/L/1_Ratio_900_L_10_R_9.png","img/500/equaldotanddens/L/8_Ratio_500_L_8_R_4.png","img/250/randomdotsizeEA/L/2_Ratio_250_L_16_R_4.png","img/250/randomdotsizeEA/R/13_Ratio_250_L_2_R_8.png","img/900/equaldotanddens/L/8_Ratio_900_L_20_R_18.png","img/500/randomdotsizeEA/R/12_Ratio_500_L_1_R_2.png","img/750/equaldotanddens/R/2_Ratio_750_L_6_R_8.png","img/250/equaldotanddens/R/8_Ratio_250_L_1_R_4.png","img/500/randomdotsizeEA/L/11_Ratio_500_L_12_R_6.png","img/900/equaldotanddens/L/10_Ratio_900_L_20_R_18.png","img/900/equaldotsize/L/10_Ratio_900_L_20_R_18.png","img/500/randomdotsizeEA/L/10_Ratio_500_L_4_R_2.png","img/750/randomdotsizeEA/R/4_Ratio_750_L_15_R_20.png","img/500/equaldotsize/L/11_Ratio_500_L_12_R_6.png","img/250/randomdotsizeEA/L/14_Ratio_250_L_12_R_3.png","img/750/equaldotanddens/L/10_Ratio_750_L_4_R_3.png","img/500/equaldotanddens/L/10_Ratio_500_L_4_R_2.png","img/250/equaldotanddens/R/12_Ratio_250_L_5_R_20.png","img/900/equaldotsize/R/3_Ratio_900_L_9_R_10.png","img/250/equaldotanddens/L/3_Ratio_250_L_8_R_2.png","img/750/randomdotsizeEA/L/9_Ratio_750_L_4_R_3.png","img/500/equaldotanddens/L/7_Ratio_500_L_10_R_5.png","img/750/equaldotsize/L/6_Ratio_750_L_24_R_18.png","img/750/equaldotsize/L/1_Ratio_750_L_20_R_15.png","img/900/randomdotsizeEA/R/9_Ratio_900_L_18_R_20.png","img/500/equaldotanddens/R/6_Ratio_500_L_9_R_18.png","img/750/equaldotsize/L/8_Ratio_750_L_4_R_3.png","img/500/randomdotsizeEA/R/12_Ratio_500_L_1_R_2.png","img/250/equaldotanddens/R/13_Ratio_250_L_2_R_8.png","img/750/randomdotsizeEA/L/9_Ratio_750_L_4_R_3.png","img/500/equaldotsize/R/3_Ratio_500_L_10_R_20.png","img/500/equaldotsize/R/6_Ratio_500_L_9_R_18.png","img/250/equaldotsize/L/15_Ratio_250_L_12_R_3.png","img/750/equaldotanddens/R/12_Ratio_750_L_3_R_4.png","img/500/equaldotsize/R/15_Ratio_500_L_1_R_2.png","img/500/equaldotsize/L/13_Ratio_500_L_12_R_6.png","img/750/randomdotsizeEA/L/6_Ratio_750_L_24_R_18.png","img/750/equaldotanddens/R/15_Ratio_750_L_9_R_12.png","img/900/randomdotsizeEA/R/9_Ratio_900_L_18_R_20.png","img/900/equaldotanddens/R/14_Ratio_900_L_18_R_20.png","img/750/equaldotanddens/R/7_Ratio_750_L_3_R_4.png","img/750/equaldotanddens/R/15_Ratio_750_L_9_R_12.png","img/900/randomdotsizeEA/R/15_Ratio_900_L_9_R_10.png","img/500/equaldotanddens/R/12_Ratio_500_L_1_R_2.png","img/250/equaldotsize/R/6_Ratio_250_L_6_R_24.png","img/250/equaldotsize/L/7_Ratio_250_L_8_R_2.png","img/750/equaldotsize/R/3_Ratio_750_L_15_R_20.png","img/250/equaldotanddens/R/11_Ratio_250_L_3_R_12.png","img/750/equaldotsize/L/14_Ratio_750_L_8_R_6.png","img/750/equaldotanddens/R/2_Ratio_750_L_6_R_8.png","img/500/equaldotanddens/L/10_Ratio_500_L_4_R_2.png","img/750/equaldotanddens/L/6_Ratio_750_L_24_R_18.png","img/900/randomdotsizeEA/R/3_Ratio_900_L_9_R_10.png","img/500/randomdotsizeEA/R/12_Ratio_500_L_1_R_2.png","img/900/equaldotsize/L/1_Ratio_900_L_10_R_9.png","img/900/equaldotsize/R/3_Ratio_900_L_9_R_10.png","img/750/equaldotsize/R/7_Ratio_750_L_3_R_4.png","img/250/equaldotsize/L/1_Ratio_250_L_8_R_2.png","img/900/randomdotsizeEA/L/8_Ratio_900_L_20_R_18.png","img/900/equaldotsize/R/13_Ratio_900_L_18_R_20.png","img/500/randomdotsizeEA/R/9_Ratio_500_L_2_R_4.png","img/250/equaldotanddens/L/14_Ratio_250_L_12_R_3.png","img/500/equaldotsize/L/7_Ratio_500_L_10_R_5.png","img/500/equaldotsize/L/8_Ratio_500_L_8_R_4.png","img/500/equaldotanddens/R/3_Ratio_500_L_10_R_20.png","img/250/randomdotsizeEA/R/6_Ratio_250_L_6_R_24.png","img/250/randomdotsizeEA/R/9_Ratio_250_L_3_R_12.png","img/250/equaldotanddens/L/2_Ratio_250_L_16_R_4.png","img/500/equaldotsize/R/12_Ratio_500_L_1_R_2.png","img/900/equaldotsize/R/3_Ratio_900_L_9_R_10.png","img/500/randomdotsizeEA/L/7_Ratio_500_L_10_R_5.png","img/250/equaldotsize/R/13_Ratio_250_L_2_R_8.png","img/250/equaldotsize/R/9_Ratio_250_L_3_R_12.png","img/900/equaldotanddens/R/3_Ratio_900_L_9_R_10.png","img/500/equaldotsize/R/15_Ratio_500_L_1_R_2.png","img/900/equaldotanddens/R/9_Ratio_900_L_18_R_20.png","img/900/equaldotanddens/R/13_Ratio_900_L_18_R_20.png","img/900/equaldotanddens/R/11_Ratio_900_L_18_R_20.png"],"Rat0":[["12_Ratio_0_L_9_R_0.png","13_Ratio_0_L_6_R_0.png","5_Ratio_0_L_2_R_0.png","6_Ratio_0_L_4_R_0.png","8_Ratio_0_L_6_R_0.png"],["1_Ratio_0_L_0_R_17.png","10_Ratio_0_L_0_R_22.png","11_Ratio_0_L_0_R_1.png","14_Ratio_0_L_0_R_24.png","15_Ratio_0_L_0_R_4.png","2_Ratio_0_L_0_R_5.png","3_Ratio_0_L_0_R_17.png","4_Ratio_0_L_0_R_7.png","7_Ratio_0_L_0_R_19.png","9_Ratio_0_L_0_R_15.png"]],"Rat250":[["1_Ratio_250_L_8_R_2.png","14_Ratio_250_L_12_R_3.png","15_Ratio_250_L_12_R_3.png","2_Ratio_250_L_16_R_4.png","3_Ratio_250_L_8_R_2.png","5_Ratio_250_L_24_R_6.png","7_Ratio_250_L_8_R_2.png"],["10_Ratio_250_L_4_R_16.png","11_Ratio_250_L_3_R_12.png","12_Ratio_250_L_5_R_20.png","13_Ratio_250_L_2_R_8.png","4_Ratio_250_L_3_R_12.png","6_Ratio_250_L_6_R_24.png","8_Ratio_250_L_1_R_4.png","9_Ratio_250_L_3_R_12.png"]],"Rat500":[["10_Ratio_500_L_4_R_2.png","11_Ratio_500_L_12_R_6.png","13_Ratio_500_L_12_R_6.png","4_Ratio_500_L_18_R_9.png","5_Ratio_500_L_4_R_2.png","7_Ratio_500_L_10_R_5.png","8_Ratio_500_L_8_R_4.png"],["1_Ratio_500_L_9_R_18.png","12_Ratio_500_L_1_R_2.png","14_Ratio_500_L_5_R_10.png","15_Ratio_500_L_1_R_2.png","2_Ratio_500_L_3_R_6.png","3_Ratio_500_L_10_R_20.png","6_Ratio_500_L_9_R_18.png","9_Ratio_500_L_2_R_4.png"]],"Rat750":[["1_Ratio_750_L_20_R_15.png","10_Ratio_750_L_4_R_3.png","13_Ratio_750_L_8_R_6.png","14_Ratio_750_L_8_R_6.png","6_Ratio_750_L_24_R_18.png","8_Ratio_750_L_4_R_3.png","9_Ratio_750_L_4_R_3.png"],["11_Ratio_750_L_12_R_16.png","12_Ratio_750_L_3_R_4.png","15_Ratio_750_L_9_R_12.png","2_Ratio_750_L_6_R_8.png","3_Ratio_750_L_15_R_20.png","4_Ratio_750_L_15_R_20.png","5_Ratio_750_L_15_R_20.png","7_Ratio_750_L_3_R_4.png"]],"Rat900":[["1_Ratio_900_L_10_R_9.png","10_Ratio_900_L_20_R_18.png","2_Ratio_900_L_20_R_18.png","4_Ratio_900_L_20_R_18.png","8_Ratio_900_L_20_R_18.png"],["11_Ratio_900_L_18_R_20.png","12_Ratio_900_L_18_R_20.png","13_Ratio_900_L_18_R_20.png","14_Ratio_900_L_18_R_20.png","15_Ratio_900_L_9_R_10.png","3_Ratio_900_L_9_R_10.png","5_Ratio_900_L_9_R_10.png","6_Ratio_900_L_9_R_10.png","7_Ratio_900_L_9_R_10.png","9_Ratio_900_L_18_R_20.png"]],"Rat1000":[["10_Ratio_1000_L_16_R_16.png","11_Ratio_1000_L_6_R_6.png","12_Ratio_1000_L_14_R_14.png","13_Ratio_1000_L_20_R_20.png","15_Ratio_1000_L_15_R_15.png","2_Ratio_1000_L_17_R_17.png","4_Ratio_1000_L_9_R_9.png","5_Ratio_1000_L_6_R_6.png","6_Ratio_1000_L_19_R_19.png","8_Ratio_1000_L_14_R_14.png","9_Ratio_1000_L_25_R_25.png"],["1_Ratio_1000_L_1_R_1.png","14_Ratio_1000_L_17_R_17.png","3_Ratio_1000_L_17_R_17.png","7_Ratio_1000_L_6_R_6.png"]]}},{"start_time":1552313666174,"click_time":1552313670645,"finger_time":1552313668044,"fix_duration":1027.761939761742,"trial":1,"RT":1870,"MT":2601,"sideResp":2,"stimulus":"img/500/randomdotsizeEA/R/9_Ratio_500_L_2_R_4.png","xmouse":[788,788,788,788,788,788,788,788,788,788,788,788,788,788,788,788,788,788,788,788,788,788,788,788,788,788,788,788,788,788,788,788,788,788,788,788,788,788,788,788,788,788,788,788,788,788,788,788,788,788,788,788,789,792,794,794,794,794,794,794,794,795,795,795,795,796,797,801,802,803,804,804,807,810,811,816,818,818,818,816,813,809,808,807,807,806,806,806,804,798,791,783,773,767,764,762,761,761,761,761,761,761,761,759,756,751,749,748,746,747,751,753,758,760,762,762,763,766,770,775,784,795,814,820,828,829,829,829,829,829,829,828,823,821,815,811,806,802,797,796,795,794,794,793,791,791,791,791,791,792,795,798,804,806,808,809,811,811,811,811,811,811,811,811,811,811,811,811,811,811,811,811,811,811,811,811,811,811,811,811,811,811,811,811,811,810,809,809,809,808,808,807,807,806,805,805,804,804,804,802,800,799,798,798,798,798,798,798,798,800,804,813,842,860,905,940,972,1004,1048,1065,1079,1090,1101,1117],"ymouse":[627,627,627,627,627,627,627,627,627,627,627,627,627,627,627,627,627,629,630,630,630,630,630,630,630,630,630,630,630,630,630,630,630,630,630,630,630,630,630,630,630,630,630,630,630,630,630,630,630,630,630,630,631,628,625,624,624,624,624,624,624,624,624,624,624,624,624,624,624,625,625,626,634,639,644,654,657,657,654,645,637,629,626,624,624,623,622,622,622,625,631,641,664,682,694,705,716,724,734,736,738,738,738,738,739,740,742,742,741,738,732,715,705,703,703,703,703,696,687,673,655,634,597,584,569,566,566,566,566,568,572,576,586,590,603,612,623,632,648,655,661,669,688,697,705,706,706,706,706,706,702,698,690,687,683,680,678,677,677,677,676,676,671,667,666,665,665,665,665,665,665,665,665,665,665,665,665,665,665,665,665,665,665,665,665,665,666,669,669,670,670,671,672,673,673,673,673,673,673,673,673,673,673,673,673,673,673,673,673,668,663,652,625,602,539,478,422,359,256,214,181,151,127,90],"timestamp_mouse":[14,33,52,72,91,110,131,150,170,192,211,231,251,272,290,310,331,351,371,391,412,431,452,470,491,512,532,552,571,591,612,632,651,672,692,711,731,752,772,792,811,832,852,870,892,911,931,951,972,992,1012,1031,1051,1071,1090,1112,1131,1152,1171,1191,1211,1232,1252,1271,1290,1311,1331,1351,1372,1391,1412,1432,1451,1470,1491,1511,1532,1552,1572,1592,1612,1631,1651,1670,1691,1712,1732,1750,1772,1791,1811,1831,1852,1870,1890,1910,1931,1952,1971,1992,2011,2031,2051,2071,2090,2111,2132,2151,2171,2191,2210,2230,2252,2270,2291,2312,2332,2352,2371,2391,2411,2431,2451,2471,2490,2512,2531,2552,2571,2591,2610,2631,2652,2672,2691,2711,2731,2751,2771,2792,2812,2831,2852,2871,2891,2911,2930,2952,2971,2991,3010,3030,3051,3071,3091,3111,3132,3151,3172,3191,3212,3231,3252,3271,3291,3311,3331,3351,3370,3391,3410,3432,3451,3472,3491,3511,3530,3551,3571,3591,3612,3631,3650,3671,3690,3711,3731,3751,3771,3790,3811,3831,3852,3870,3891,3912,3932,3951,3972,3991,4010,4030,4052,4071,4091,4112,4131,4151,4171,4192,4210,4231,4252,4270,4291,4311,4331,4352,4371,4391,4410,4432,4452,4471],"xSR":741.5,"ySR":573.95,"xT1":424.9,"yT1":0,"xT2":1058.1,"yT2":0,"toosoon":0,"cond_shown":"randomdotsizeEA","ratio_trial":500,"smaller_num":"2","larger_num":"4","correct_side":2,"subjID":"orihanagomez ","gender":"1","age":"9","school":"9"},{"start_time":1552313673603,"click_time":1552313674865,"finger_time":1552313674545,"fix_duration":1235.7690748582568,"trial":2,"RT":942,"MT":320,"sideResp":1,"stimulus":"img/750/randomdotsizeEA/L/13_Ratio_750_L_8_R_6.png","xmouse":[791,790,789,788,788,788,788,788,788,788,788,788,788,788,788,788,788,788,788,788,788,788,788,788,788,788,788,788,788,788,788,788,788,788,788,788,788,788,788,788,788,788,788,788,788,787,786,770,740,671,580,491,483,477,476,471,461,455,452,450,450,450,450,451],"ymouse":[645,646,647,648,648,648,648,648,648,648,648,648,648,648,648,648,648,648,648,648,648,648,648,648,648,648,648,648,648,648,648,648,648,648,648,648,648,648,648,648,648,648,648,648,648,646,638,526,387,305,250,191,182,175,171,163,146,135,128,123,119,108,102,96],"timestamp_mouse":[1,22,41,62,83,102,123,142,162,182,201,223,242,263,282,301,323,343,361,383,402,423,443,463,482,502,522,543,562,583,603,623,643,662,682,702,721,743,762,782,801,823,842,863,882,902,922,942,963,983,1002,1022,1042,1062,1082,1103,1122,1141,1162,1183,1203,1222,1242,1262],"xSR":741.5,"ySR":573.95,"xT1":424.9,"yT1":0,"xT2":1058.1,"yT2":0,"toosoon":0,"cond_shown":"randomdotsizeEA","ratio_trial":750,"smaller_num":"6","larger_num":"8","correct_side":1,"subjID":"orihanagomez ","gender":"1","age":"9","school":"9"},{"start_time":1552313676604,"click_time":1552313678085,"finger_time":1552313677725,"fix_duration":736.2352610689488,"trial":3,"RT":1121,"MT":360,"sideResp":2,"stimulus":"img/900/equaldotanddens/R/6_Ratio_900_L_9_R_10.png","xmouse":[762,762,762,762,762,762,762,762,762,762,762,762,762,762,762,762,762,762,762,762,762,762,762,762,762,762,762,762,762,762,762,762,762,762,762,762,762,762,762,762,762,762,762,763,763,764,770,774,775,778,779,782,785,787,801,817,861,880,907,942,964,1012,1031,1046,1049,1049,1044,1034,1032,1032,1032,1037,1042,1050,1065],"ymouse":[641,641,641,641,641,641,641,641,641,641,641,641,641,641,641,641,641,641,641,641,641,641,641,641,641,641,641,641,641,641,641,641,641,641,641,641,641,641,641,641,641,641,641,641,641,641,641,641,641,641,641,642,642,642,635,620,582,563,522,468,439,387,368,342,326,305,283,239,219,198,177,137,122,107,87],"timestamp_mouse":[9,21,40,61,81,101,122,142,162,182,202,222,240,262,281,300,322,341,361,381,400,420,441,461,482,501,521,541,562,582,601,622,642,661,682,701,721,741,760,781,800,822,841,861,882,901,921,942,961,982,1001,1021,1041,1061,1080,1101,1121,1141,1161,1181,1200,1222,1241,1262,1280,1300,1321,1341,1361,1381,1401,1421,1441,1462,1480],"xSR":741.5,"ySR":573.95,"xT1":424.9,"yT1":0,"xT2":1058.1,"yT2":0,"toosoon":0,"cond_shown":"equaldotanddens","ratio_trial":900,"smaller_num":"9","larger_num":"10","correct_side":2,"subjID":"orihanagomez ","gender":"1","age":"9","school":"9"},{"start_time":1552313683197,"click_time":1552313684506,"finger_time":1552313684085,"fix_duration":250,"trial":4,"RT":888,"MT":421,"sideResp":1,"stimulus":"img/900/randomdotsizeEA/R/3_Ratio_900_L_9_R_10.png","xmouse":[765,765,765,765,765,765,765,765,765,765,765,765,765,765,765,765,765,765,765,765,765,765,765,765,765,765,765,765,765,765,765,765,765,765,765,765,765,765,765,765,765,765,762,757,741,723,687,657,636,627,620,611,607,603,597,591,581,574,564,553,546,542,533,526,515,510],"ymouse":[628,628,628,628,628,628,628,628,628,628,628,628,628,628,628,628,628,628,628,628,628,628,628,628,628,628,628,628,628,628,628,628,628,628,628,628,628,628,628,628,628,628,619,599,542,485,355,272,231,213,199,184,181,176,172,171,165,159,152,143,135,128,116,110,100,95],"timestamp_mouse":[10,27,47,69,89,109,127,147,168,188,208,227,249,268,288,309,329,347,369,389,409,429,449,469,488,508,527,549,567,589,609,627,647,668,688,709,728,749,768,789,809,829,848,868,888,908,928,947,968,989,1008,1029,1047,1068,1088,1109,1128,1148,1168,1189,1208,1227,1248,1268,1289,1309],"xSR":741.5,"ySR":573.95,"xT1":424.9,"yT1":0,"xT2":1058.1,"yT2":0,"toosoon":0,"cond_shown":"randomdotsizeEA","ratio_trial":900,"smaller_num":"9","larger_num":"10","correct_side":2,"subjID":"orihanagomez ","gender":"1","age":"9","school":"9"},{"start_time":1552313688605,"click_time":1552313691827,"finger_time":1552313691246,"fix_duration":1437.665327973605,"trial":5,"RT":2641,"MT":581,"sideResp":2,"stimulus":"img/250/randomdotsizeEA/R/9_Ratio_250_L_3_R_12.png","xmouse":[813,813,813,813,813,813,813,813,813,813,813,813,813,813,813,813,813,813,813,813,813,813,813,813,813,813,813,813,813,813,813,813,813,813,813,813,813,813,813,813,813,813,813,813,813,813,813,813,813,813,813,813,813,813,813,813,813,813,813,813,813,813,813,813,813,813,813,813,813,813,813,813,813,813,813,813,813,813,813,813,813,813,813,813,813,813,813,813,813,813,813,813,813,813,813,813,813,813,813,813,813,813,813,813,813,813,813,813,813,813,813,813,813,813,813,813,813,813,813,813,813,813,813,813,813,813,813,813,813,813,813,831,908,986,1100,1147,1224,1247,1268,1288,1302,1327,1335,1338,1338,1333,1324,1286,1263,1242,1227,1204,1192,1189,1185,1181,1173,1172,1170,1166,1163,1154],"ymouse":[631,631,631,631,631,631,631,631,631,631,631,631,631,631,631,631,631,631,631,631,631,631,631,631,631,631,631,631,631,631,631,631,631,631,631,631,631,631,631,631,631,631,631,631,631,631,631,631,631,631,631,631,631,631,631,631,631,631,631,631,631,631,631,631,631,631,631,631,631,631,631,631,631,631,631,631,631,631,631,631,631,631,631,631,631,631,631,631,631,631,631,631,631,631,631,631,631,631,631,631,631,631,631,631,631,631,631,631,631,631,631,631,631,631,631,631,631,631,631,631,631,631,631,631,631,631,631,631,631,631,631,604,498,416,321,274,206,177,145,112,89,46,27,12,0,0,0,0,0,0,0,0,0,0,2,4,5,5,7,10,14,23],"timestamp_mouse":[10,20,40,61,81,100,120,140,161,180,201,220,240,261,280,300,320,340,360,380,399,419,440,461,479,499,521,540,561,579,599,621,640,660,680,701,720,741,761,781,799,820,840,859,880,900,921,940,959,981,1001,1021,1039,1059,1080,1101,1120,1140,1160,1180,1200,1220,1240,1260,1280,1300,1320,1340,1360,1381,1400,1421,1441,1461,1479,1501,1520,1541,1560,1581,1601,1621,1640,1659,1680,1701,1721,1741,1760,1780,1800,1821,1841,1859,1879,1900,1921,1941,1960,1981,2001,2021,2041,2061,2081,2100,2120,2139,2159,2181,2201,2220,2241,2261,2281,2300,2321,2340,2360,2380,2401,2419,2440,2460,2479,2499,2521,2540,2560,2579,2599,2619,2641,2661,2680,2700,2720,2740,2760,2781,2801,2820,2839,2859,2881,2901,2921,2940,2959,2980,3000,3021,3039,3060,3080,3100,3120,3139,3160,3181,3200,3222],"xSR":741.5,"ySR":573.95,"xT1":424.9,"yT1":0,"xT2":1058.1,"yT2":0,"toosoon":0,"cond_shown":"randomdotsizeEA","ratio_trial":250,"smaller_num":"3","larger_num":"12","correct_side":2,"subjID":"orihanagomez ","gender":"1","age":"9","school":"9"},{"start_time":1552313693891,"click_time":1552313695426,"finger_time":1552313694925,"fix_duration":303.01005406235794,"trial":6,"RT":1034,"MT":501,"sideResp":1,"stimulus":"img/250/randomdotsizeEA/L/14_Ratio_250_L_12_R_3.png","xmouse":[777,777,777,777,777,777,777,777,777,777,777,777,777,777,777,777,777,777,777,777,777,777,777,777,777,777,777,777,777,777,777,777,777,777,777,777,777,777,777,777,777,777,777,777,777,777,777,777,777,776,776,776,704,646,593,572,566,566,566,566,562,558,553,553,553,553,553,553,553,553,553,544,538,534,531,527,519],"ymouse":[659,659,659,659,659,659,659,659,659,659,659,659,659,659,659,659,659,659,659,659,659,659,659,659,659,659,659,659,659,659,659,659,659,659,659,659,659,659,659,659,659,659,659,659,659,659,659,659,659,659,638,546,359,265,191,150,128,94,72,61,49,40,34,34,34,34,34,34,34,34,34,37,40,41,42,43,43],"timestamp_mouse":[14,35,55,73,94,115,134,154,173,194,215,235,254,275,295,314,335,355,374,394,415,435,454,474,495,514,533,553,575,594,614,634,654,675,693,713,735,754,774,793,815,834,854,875,895,913,933,953,974,994,1015,1034,1053,1075,1095,1114,1135,1154,1175,1193,1213,1234,1254,1274,1294,1315,1335,1354,1374,1394,1413,1435,1454,1474,1495,1513,1535],"xSR":741.5,"ySR":573.95,"xT1":424.9,"yT1":0,"xT2":1058.1,"yT2":0,"toosoon":0,"cond_shown":"randomdotsizeEA","ratio_trial":250,"smaller_num":"3","larger_num":"12","correct_side":1,"subjID":"orihanagomez ","gender":"1","age":"9","school":"9"},{"start_time":1552313698084,"click_time":1552313698866,"finger_time":1552313698505,"fix_duration":536.2859871881883,"trial":7,"RT":421,"MT":361,"sideResp":2,"stimulus":"img/900/equaldotsize/L/1_Ratio_900_L_10_R_9.png","xmouse":[795,795,795,795,795,795,795,795,795,795,795,795,795,795,795,795,795,795,795,799,803,806,824,850,868,896,937,1057,1104,1112,1113,1113,1108,1105,1103,1100,1098,1095,1089,1082],"ymouse":[637,637,637,637,637,637,637,637,637,637,637,637,637,637,637,637,637,637,637,620,597,573,532,475,417,355,309,238,209,198,190,181,171,164,159,150,139,129,108,97],"timestamp_mouse":[9,22,41,62,82,102,121,142,162,181,202,222,241,261,280,301,322,340,360,382,402,421,441,462,481,502,520,542,561,580,600,620,642,661,682,700,722,742,762,781],"xSR":741.5,"ySR":573.95,"xT1":424.9,"yT1":0,"xT2":1058.1,"yT2":0,"toosoon":0,"cond_shown":"equaldotsize","ratio_trial":900,"smaller_num":"9","larger_num":"10","correct_side":1,"subjID":"orihanagomez ","gender":"1","age":"9","school":"9"},{"start_time":1552313708996,"click_time":1552313709705,"finger_time":1552313709405,"fix_duration":849.0189379686084,"trial":8,"RT":409,"MT":300,"sideResp":1,"stimulus":"img/900/equaldotanddens/R/15_Ratio_900_L_9_R_10.png","xmouse":[769,769,769,769,769,769,769,769,769,769,769,769,769,769,769,769,769,769,763,748,716,612,552,482,459,454,453,451,450,448,447,445,445,445,445,445],"ymouse":[646,646,646,646,646,646,646,646,646,646,646,646,646,646,646,646,646,645,632,606,552,415,335,242,211,199,185,174,166,156,146,124,113,107,102,96],"timestamp_mouse":[9,33,49,69,88,108,129,150,170,190,209,228,250,270,289,310,329,349,369,389,408,430,449,469,489,510,530,548,569,590,610,630,649,669,689,709],"xSR":741.5,"ySR":573.95,"xT1":424.9,"yT1":0,"xT2":1058.1,"yT2":0,"toosoon":0,"cond_shown":"equaldotanddens","ratio_trial":900,"smaller_num":"9","larger_num":"10","correct_side":2,"subjID":"orihanagomez ","gender":"1","age":"9","school":"9"},{"start_time":1552313711376,"click_time":1552313712084,"finger_time":1552313711746,"fix_duration":389.54442994939166,"trial":9,"RT":370,"MT":338,"sideResp":2,"stimulus":"img/750/equaldotsize/L/6_Ratio_750_L_24_R_18.png","xmouse":[786,786,786,786,786,786,786,786,786,786,786,786,786,786,786,786,786,786,883,953,1023,1090,1142,1184,1189,1192,1193,1193,1193,1191,1189,1182,1158,1139,1134,1122],"ymouse":[609,609,609,609,609,609,609,609,609,609,609,609,609,609,609,609,609,609,554,494,420,349,293,218,201,190,180,175,171,169,166,160,145,128,120,96],"timestamp_mouse":[12,32,48,69,88,108,130,150,168,190,209,228,249,270,290,310,330,348,370,389,410,428,449,468,489,510,530,549,570,589,608,629,650,668,689,708],"xSR":741.5,"ySR":573.95,"xT1":424.9,"yT1":0,"xT2":1058.1,"yT2":0,"toosoon":0,"cond_shown":"equaldotsize","ratio_trial":750,"smaller_num":"18","larger_num":"24","correct_side":1,"subjID":"orihanagomez ","gender":"1","age":"9","school":"9"},{"start_time":1552313713806,"click_time":1552313715146,"finger_time":1552313714685,"fix_duration":978.1131961733862,"trial":10,"RT":879,"MT":461,"sideResp":2,"stimulus":"img/500/equaldotsize/R/14_Ratio_500_L_5_R_10.png","xmouse":[793,793,793,793,793,793,793,793,793,793,793,793,793,793,793,793,793,793,793,793,793,793,793,793,793,793,793,793,793,793,793,793,794,794,794,794,794,794,794,794,794,796,805,829,853,884,964,996,1008,1020,1025,1030,1034,1034,1034,1034,1034,1031,1029,1029,1029,1029,1032,1036,1043,1048,1054,1062],"ymouse":[641,641,641,641,641,641,641,641,641,641,641,641,641,641,641,641,641,641,641,641,641,641,641,641,641,641,641,641,641,641,641,641,641,633,629,625,615,613,610,609,608,606,600,587,572,551,491,462,437,395,368,341,295,258,229,177,152,117,106,103,102,98,93,89,87,85,82,80],"timestamp_mouse":[1,20,40,59,79,98,118,140,160,179,198,220,239,260,278,300,319,338,358,380,399,420,439,459,479,500,518,539,560,579,599,619,639,659,680,700,719,739,759,780,799,818,839,859,879,898,920,939,960,980,999,1019,1038,1059,1079,1100,1119,1140,1158,1180,1199,1219,1238,1259,1280,1299,1319,1340],"xSR":741.5,"ySR":573.95,"xT1":424.9,"yT1":0,"xT2":1058.1,"yT2":0,"toosoon":0,"cond_shown":"equaldotsize","ratio_trial":500,"smaller_num":"5","larger_num":"10","correct_side":2,"subjID":"orihanagomez ","gender":"1","age":"9","school":"9"},{"start_time":1552313716839,"click_time":1552313717926,"finger_time":1552313717705,"fix_duration":471.0444879783393,"trial":11,"RT":866,"MT":221,"sideResp":1,"stimulus":"img/750/equaldotsize/L/10_Ratio_750_L_4_R_3.png","xmouse":[810,810,810,807,804,803,802,802,801,800,799,798,797,795,792,792,792,792,792,792,792,792,792,792,792,792,792,792,792,792,792,792,792,792,792,792,792,792,792,792,792,787,772,755,698,666,636,616,605,596,582,569,555,540,521],"ymouse":[622,622,622,629,636,639,640,641,643,644,646,648,651,654,657,657,657,657,657,657,657,657,657,657,657,657,657,657,657,657,657,657,657,657,657,657,657,657,657,657,657,650,610,545,371,293,226,177,150,134,113,96,80,65,50],"timestamp_mouse":[10,36,46,66,86,105,126,147,165,186,206,227,247,266,286,305,327,347,365,385,406,426,446,468,486,506,526,547,566,588,607,626,647,667,686,706,726,746,766,786,806,826,846,866,886,906,926,947,966,986,1007,1026,1047,1066,1087],"xSR":741.5,"ySR":573.95,"xT1":424.9,"yT1":0,"xT2":1058.1,"yT2":0,"toosoon":0,"cond_shown":"equaldotsize","ratio_trial":750,"smaller_num":"3","larger_num":"4","correct_side":1,"subjID":"orihanagomez ","gender":"1","age":"9","school":"9"},{"start_time":1552313720944,"click_time":1552313721966,"finger_time":1552313721585,"fix_duration":256.9901696213333,"trial":12,"RT":641,"MT":381,"sideResp":2,"stimulus":"img/250/randomdotsizeEA/L/5_Ratio_250_L_24_R_6.png","xmouse":[774,774,774,774,774,774,774,774,774,774,774,774,774,774,774,774,774,774,774,774,774,774,774,774,774,774,774,774,774,777,796,830,897,972,1129,1184,1234,1248,1252,1252,1247,1245,1243,1242,1238,1237,1234,1228,1215,1183,1163,1147],"ymouse":[634,634,634,634,634,634,634,634,634,634,634,634,634,634,634,634,634,634,634,634,634,634,634,634,634,634,634,634,634,633,620,594,543,477,322,248,151,114,91,51,33,20,10,0,0,0,0,0,0,2,12,24],"timestamp_mouse":[10,31,42,61,81,101,121,141,161,182,201,222,242,262,281,301,321,342,361,381,401,422,442,462,482,501,521,542,562,582,602,622,641,662,682,701,721,742,762,781,801,822,842,861,881,901,921,941,961,983,1001,1022],"xSR":741.5,"ySR":573.95,"xT1":424.9,"yT1":0,"xT2":1058.1,"yT2":0,"toosoon":0,"cond_shown":"randomdotsizeEA","ratio_trial":250,"smaller_num":"6","larger_num":"24","correct_side":1,"subjID":"orihanagomez ","gender":"1","age":"9","school":"9"},{"start_time":1552313723799,"click_time":1552313725265,"finger_time":1552313724346,"fix_duration":250,"trial":13,"RT":547,"MT":919,"sideResp":2,"stimulus":"img/250/randomdotsizeEA/R/10_Ratio_250_L_4_R_16.png","xmouse":[769,769,769,769,769,769,769,769,769,769,769,769,769,769,769,769,769,769,769,769,769,769,769,769,769,769,770,765,741,706,675,659,643,639,635,631,628,618,611,608,607,610,624,674,755,880,1015,1291,1388,1446,1463,1465,1449,1433,1418,1406,1395,1374,1361,1347,1332,1316,1280,1274,1263,1247,1227,1191,1181,1178,1175,1173,1165,1153],"ymouse":[609,609,609,609,609,609,609,609,609,609,609,609,609,609,609,609,609,609,609,609,609,609,609,609,609,609,585,545,498,444,398,369,322,304,289,279,267,243,227,218,210,192,184,181,182,200,215,240,240,232,223,202,181,164,148,130,114,88,79,72,67,63,59,58,57,57,57,55,53,52,52,52,49,46],"timestamp_mouse":[19,39,46,66,87,107,127,147,166,186,206,226,246,266,286,307,328,347,367,387,407,427,447,466,487,507,527,547,567,587,607,626,647,667,686,707,726,747,766,786,806,827,847,866,886,907,926,946,966,987,1007,1027,1046,1066,1087,1107,1126,1147,1166,1187,1207,1227,1247,1266,1287,1307,1326,1347,1366,1386,1407,1427,1446,1466],"xSR":741.5,"ySR":573.95,"xT1":424.9,"yT1":0,"xT2":1058.1,"yT2":0,"toosoon":0,"cond_shown":"randomdotsizeEA","ratio_trial":250,"smaller_num":"4","larger_num":"16","correct_side":2,"subjID":"orihanagomez ","gender":"1","age":"9","school":"9"},{"start_time":1552313727692,"click_time":1552313729046,"finger_time":1552313728526,"fix_duration":1123.3852300686312,"trial":14,"RT":834,"MT":520,"sideResp":1,"stimulus":"img/900/randomdotsizeEA/L/1_Ratio_900_L_10_R_9.png","xmouse":[767,767,768,770,770,771,771,771,771,771,771,771,771,771,771,771,771,771,773,778,780,780,780,780,780,780,780,780,780,780,780,780,780,780,780,780,780,780,780,782,784,784,764,736,707,685,669,642,634,622,596,561,539,522,511,507,503,498,497,497,497,497,497,497,497,496,495,492],"ymouse":[610,610,603,602,601,599,599,599,599,599,599,599,599,599,599,599,599,599,599,599,600,600,600,600,600,600,600,600,600,600,600,600,600,600,600,600,600,600,600,592,578,523,460,405,364,335,318,287,277,261,243,215,195,174,151,137,127,113,110,110,109,109,109,109,108,106,104,98],"timestamp_mouse":[13,33,54,73,93,113,134,154,173,194,213,233,253,274,294,313,334,353,373,393,414,435,454,474,493,513,534,554,574,594,614,633,653,674,695,714,733,754,773,794,813,834,853,874,893,913,933,954,974,994,1013,1034,1053,1074,1094,1114,1134,1153,1173,1194,1213,1233,1254,1274,1293,1314,1334,1354],"xSR":741.5,"ySR":573.95,"xT1":424.9,"yT1":0,"xT2":1058.1,"yT2":0,"toosoon":0,"cond_shown":"randomdotsizeEA","ratio_trial":900,"smaller_num":"9","larger_num":"10","correct_side":1,"subjID":"orihanagomez ","gender":"1","age":"9","school":"9"},{"start_time":1552313730923,"click_time":1552313731926,"finger_time":1552313731666,"fix_duration":635.5688797485016,"trial":15,"RT":743,"MT":260,"sideResp":2,"stimulus":"img/900/equaldotsize/L/1_Ratio_900_L_10_R_9.png","xmouse":[784,784,784,784,784,784,784,784,784,784,784,784,784,784,784,784,784,784,784,784,784,784,784,784,784,784,784,784,784,784,784,784,784,784,784,805,829,865,927,963,1022,1043,1059,1067,1075,1082,1096,1101,1101,1100,1095],"ymouse":[633,633,633,633,633,633,633,628,623,621,620,620,620,620,620,620,620,620,620,620,620,620,620,620,620,620,620,620,620,620,620,620,620,620,618,597,574,539,456,415,334,304,273,246,220,194,151,125,112,102,93],"timestamp_mouse":[19,42,42,63,83,103,122,142,163,183,203,222,243,262,283,302,323,343,363,384,403,423,442,463,483,503,522,542,563,583,603,623,643,662,683,703,723,743,763,783,803,822,842,863,882,902,922,943,963,982,1003],"xSR":741.5,"ySR":573.95,"xT1":424.9,"yT1":0,"xT2":1058.1,"yT2":0,"toosoon":0,"cond_shown":"equaldotsize","ratio_trial":900,"smaller_num":"9","larger_num":"10","correct_side":1,"subjID":"orihanagomez ","gender":"1","age":"9","school":"9"},{"start_time":1552313735972,"click_time":1552313736926,"finger_time":1552313736626,"fix_duration":1343.9334614588583,"trial":16,"RT":654,"MT":300,"sideResp":2,"stimulus":"img/750/equaldotsize/R/11_Ratio_750_L_12_R_16.png","xmouse":[781,781,781,781,781,781,781,781,781,781,781,781,781,781,781,781,781,781,781,781,781,781,781,781,781,781,781,781,781,781,781,801,830,1010,1153,1216,1248,1264,1264,1258,1249,1243,1241,1236,1224,1204,1177,1110],"ymouse":[616,616,616,616,616,616,616,616,616,616,616,616,616,616,616,616,616,616,616,616,616,616,616,616,616,616,616,616,616,616,616,589,553,419,325,252,191,105,80,61,47,42,41,41,41,41,45,64],"timestamp_mouse":[13,33,54,74,93,113,134,154,173,193,214,233,254,274,293,313,334,354,374,393,414,434,454,473,493,513,534,554,573,594,614,634,654,673,693,713,734,753,773,793,813,833,854,873,893,914,933,954],"xSR":741.5,"ySR":573.95,"xT1":424.9,"yT1":0,"xT2":1058.1,"yT2":0,"toosoon":0,"cond_shown":"equaldotsize","ratio_trial":750,"smaller_num":"12","larger_num":"16","correct_side":2,"subjID":"orihanagomez ","gender":"1","age":"9","school":"9"},{"start_time":1552313742220,"click_time":1552313743586,"finger_time":1552313743146,"fix_duration":851.3281937959916,"trial":17,"RT":926,"MT":440,"sideResp":1,"stimulus":"img/500/randomdotsizeEA/R/12_Ratio_500_L_1_R_2.png","xmouse":[763,763,763,763,763,763,763,763,763,763,763,763,763,763,763,763,763,763,763,763,763,763,763,763,763,763,763,763,763,763,763,763,763,763,763,763,763,763,763,763,763,763,763,763,763,766,771,772,766,755,735,726,713,699,685,654,638,619,603,584,554,535,530,513,503,490,489,489,489],"ymouse":[607,607,607,607,607,607,607,607,607,607,607,607,607,607,607,607,607,607,607,607,607,607,607,607,607,607,607,607,607,607,607,607,607,607,607,607,607,607,607,607,607,607,607,607,607,598,573,540,511,487,446,429,407,391,376,348,337,322,308,293,264,241,233,204,184,148,133,114,93],"timestamp_mouse":[10,25,46,66,85,105,125,146,167,186,206,225,245,265,286,305,325,346,365,387,406,426,445,466,485,505,525,545,566,586,606,626,645,665,686,705,725,746,765,786,805,826,846,866,886,905,926,947,966,985,1006,1025,1046,1065,1086,1106,1125,1145,1166,1185,1205,1225,1245,1266,1285,1305,1325,1345,1366],"xSR":741.5,"ySR":573.95,"xT1":424.9,"yT1":0,"xT2":1058.1,"yT2":0,"toosoon":0,"cond_shown":"randomdotsizeEA","ratio_trial":500,"smaller_num":"1","larger_num":"2","correct_side":2,"subjID":"orihanagomez ","gender":"1","age":"9","school":"9"},{"start_time":1552313745594,"click_time":1552313746567,"finger_time":1552313746186,"fix_duration":366.7017029038342,"trial":18,"RT":592,"MT":381,"sideResp":2,"stimulus":"img/250/equaldotsize/L/15_Ratio_250_L_12_R_3.png","xmouse":[791,791,791,791,791,791,791,791,791,791,791,791,791,791,791,791,791,791,791,791,791,791,791,791,791,791,789,789,795,806,816,850,891,918,952,983,1038,1054,1062,1064,1065,1063,1055,1055,1055,1055,1054,1058,1065],"ymouse":[622,622,622,622,622,622,622,622,622,622,622,622,622,622,622,622,622,622,622,622,622,622,622,622,622,622,622,610,588,557,524,409,289,217,154,103,23,1,0,0,0,0,0,0,0,0,3,11,20],"timestamp_mouse":[11,34,51,71,91,111,131,151,172,191,212,231,251,271,292,312,333,352,372,391,412,432,451,472,493,511,531,552,572,592,611,632,651,671,691,712,732,752,771,791,812,833,851,871,891,911,933,951,972],"xSR":741.5,"ySR":573.95,"xT1":424.9,"yT1":0,"xT2":1058.1,"yT2":0,"toosoon":0,"cond_shown":"equaldotsize","ratio_trial":250,"smaller_num":"3","larger_num":"12","correct_side":1,"subjID":"orihanagomez ","gender":"1","age":"9","school":"9"},{"start_time":1552313750186,"click_time":1552313751146,"finger_time":1552313750826,"fix_duration":398.47968603111104,"trial":19,"RT":640,"MT":320,"sideResp":1,"stimulus":"img/250/equaldotanddens/L/14_Ratio_250_L_12_R_3.png","xmouse":[802,802,802,802,802,802,802,802,802,802,802,802,802,802,802,802,802,802,802,802,802,802,802,802,802,802,802,802,802,802,797,795,786,757,746,739,733,730,713,701,688,671,652,610,593,577,555,531,486],"ymouse":[624,624,624,624,624,624,624,624,624,624,624,624,624,624,624,624,624,624,624,624,624,624,624,624,624,624,624,624,624,624,607,597,571,502,466,438,411,384,315,281,254,228,201,140,126,115,100,87,63],"timestamp_mouse":[1,20,39,60,80,99,119,139,159,180,201,219,240,259,279,299,320,341,360,380,400,420,439,459,479,500,519,540,559,579,600,620,640,659,679,699,719,739,759,780,800,819,839,861,879,899,920,939,960],"xSR":741.5,"ySR":573.95,"xT1":424.9,"yT1":0,"xT2":1058.1,"yT2":0,"toosoon":0,"cond_shown":"equaldotanddens","ratio_trial":250,"smaller_num":"3","larger_num":"12","correct_side":1,"subjID":"orihanagomez ","gender":"1","age":"9","school":"9"},{"start_time":1552313754263,"click_time":1552313755345,"finger_time":1552313754965,"fix_duration":296.84978352146516,"trial":20,"RT":702,"MT":380,"sideResp":1,"stimulus":"img/500/equaldotanddens/R/1_Ratio_500_L_9_R_18.png","xmouse":[771,771,771,771,771,771,771,771,771,771,771,771,771,771,771,771,771,771,771,771,771,771,771,771,772,772,773,773,774,775,777,778,779,787,790,793,793,790,769,759,743,734,728,720,705,686,663,645,618,602,592,580,569,556,523],"ymouse":[644,644,644,644,644,644,644,644,644,644,644,644,644,644,644,644,644,644,644,644,644,644,644,644,643,643,642,641,640,639,637,633,628,607,588,564,529,476,395,366,327,304,286,270,234,193,162,136,98,80,73,67,64,62,58],"timestamp_mouse":[11,30,43,63,82,103,122,143,163,183,202,222,242,263,282,302,323,343,364,383,403,422,442,462,483,503,523,542,563,583,603,623,643,662,683,702,723,742,763,782,803,823,842,862,882,902,923,942,962,982,1002,1022,1042,1062,1082],"xSR":741.5,"ySR":573.95,"xT1":424.9,"yT1":0,"xT2":1058.1,"yT2":0,"toosoon":0,"cond_shown":"equaldotanddens","ratio_trial":500,"smaller_num":"9","larger_num":"18","correct_side":2,"subjID":"orihanagomez ","gender":"1","age":"9","school":"9"},{"start_time":1552313756639,"click_time":1552313757745,"finger_time":1552313757625,"fix_duration":250,"trial":21,"RT":986,"MT":120,"sideResp":1,"stimulus":"img/250/equaldotanddens/L/3_Ratio_250_L_8_R_2.png","xmouse":[799,799,799,799,799,799,799,799,799,799,799,799,799,799,799,799,799,799,799,799,799,799,799,800,801,801,802,802,802,802,802,802,802,802,802,802,802,802,802,802,802,802,802,802,802,802,803,803,799,786,729,667,617,559,504,446],"ymouse":[610,610,610,610,610,610,610,610,610,610,610,610,610,610,610,610,610,610,610,610,610,610,610,610,610,610,610,610,610,610,610,610,610,610,610,610,610,610,610,610,610,610,610,610,610,610,610,602,577,535,425,333,265,197,130,46],"timestamp_mouse":[13,29,46,66,86,107,126,146,167,187,206,226,247,266,286,307,326,348,366,386,406,426,446,467,487,506,526,546,566,586,606,627,647,666,686,706,727,746,766,786,807,827,846,866,887,906,926,946,967,986,1007,1026,1046,1067,1087,1106],"xSR":741.5,"ySR":573.95,"xT1":424.9,"yT1":0,"xT2":1058.1,"yT2":0,"toosoon":0,"cond_shown":"equaldotanddens","ratio_trial":250,"smaller_num":"2","larger_num":"8","correct_side":1,"subjID":"orihanagomez ","gender":"1","age":"9","school":"9"},{"start_time":1552313760056,"click_time":1552313761126,"finger_time":1552313760745,"fix_duration":1009.2189731155621,"trial":22,"RT":689,"MT":381,"sideResp":2,"stimulus":"img/900/equaldotanddens/L/2_Ratio_900_L_20_R_18.png","xmouse":[779,779,779,779,780,781,782,782,782,782,782,782,782,782,782,782,782,782,782,782,782,784,787,789,789,789,789,789,789,789,789,790,791,823,856,902,956,1017,1077,1169,1189,1201,1207,1208,1203,1196,1191,1187,1184,1180,1174,1168,1160,1139],"ymouse":[644,644,644,643,633,631,629,629,629,629,629,629,629,629,629,629,629,629,629,629,629,629,634,636,636,636,636,636,636,636,636,636,636,611,583,540,473,413,354,258,230,208,190,176,164,160,159,158,157,154,148,138,127,96],"timestamp_mouse":[9,29,49,69,89,109,130,150,169,189,209,229,250,269,289,310,329,350,370,390,409,430,449,469,490,510,530,550,570,589,610,629,650,670,689,709,730,749,769,790,809,830,850,870,889,909,930,949,970,989,1010,1029,1050,1070],"xSR":741.5,"ySR":573.95,"xT1":424.9,"yT1":0,"xT2":1058.1,"yT2":0,"toosoon":0,"cond_shown":"equaldotanddens","ratio_trial":900,"smaller_num":"18","larger_num":"20","correct_side":1,"subjID":"orihanagomez ","gender":"1","age":"9","school":"9"},{"start_time":1552313763388,"click_time":1552313764546,"finger_time":1552313763865,"fix_duration":1100.5463172690881,"trial":23,"RT":477,"MT":681,"sideResp":1,"stimulus":"img/900/randomdotsizeEA/L/8_Ratio_900_L_20_R_18.png","xmouse":[817,817,817,817,817,817,817,817,817,817,817,817,817,817,817,817,817,817,817,817,817,817,818,818,807,792,772,760,751,743,735,727,703,682,667,655,606,590,584,584,584,584,582,582,582,582,584,584,579,575,572,569,561,551,543,534,523,516],"ymouse":[622,622,622,622,622,622,622,622,622,622,622,622,622,622,622,622,622,622,622,622,622,622,610,573,530,480,404,378,357,344,333,325,311,299,291,283,263,257,257,257,257,257,249,234,212,190,172,145,133,125,120,116,113,111,108,106,101,98],"timestamp_mouse":[18,38,58,77,98,117,138,157,177,197,217,239,257,277,298,317,337,358,377,398,417,438,457,477,498,519,538,558,577,598,617,638,658,678,697,718,738,757,777,798,817,837,858,878,897,918,937,958,978,998,1018,1038,1058,1077,1097,1118,1138,1157],"xSR":741.5,"ySR":573.95,"xT1":424.9,"yT1":0,"xT2":1058.1,"yT2":0,"toosoon":0,"cond_shown":"randomdotsizeEA","ratio_trial":900,"smaller_num":"18","larger_num":"20","correct_side":1,"subjID":"orihanagomez ","gender":"1","age":"9","school":"9"},{"start_time":1552313774519,"click_time":1552313775585,"finger_time":1552313775066,"fix_duration":410.16542673928745,"trial":24,"RT":547,"MT":519,"sideResp":1,"stimulus":"img/250/equaldotanddens/L/14_Ratio_250_L_12_R_3.png","xmouse":[810,809,803,801,799,797,797,797,797,797,797,797,797,797,797,797,797,797,797,797,797,797,797,797,798,823,840,848,855,859,862,862,862,860,851,810,762,703,646,621,617,618,618,615,605,576,548,539,537,536,536,532,528,523],"ymouse":[637,640,651,657,659,661,662,662,662,662,662,662,662,662,662,662,662,662,662,662,662,662,662,660,656,620,593,579,565,558,549,546,541,531,513,447,377,268,184,137,111,83,77,72,64,47,35,30,28,28,28,26,25,24],"timestamp_mouse":[9,28,47,66,87,106,126,146,167,186,206,228,246,266,286,307,327,346,367,387,407,426,447,466,486,507,526,547,567,587,607,627,646,667,686,707,726,746,767,787,806,827,847,867,886,907,926,947,967,986,1007,1027,1046,1066],"xSR":741.5,"ySR":573.95,"xT1":424.9,"yT1":0,"xT2":1058.1,"yT2":0,"toosoon":0,"cond_shown":"equaldotanddens","ratio_trial":250,"smaller_num":"3","larger_num":"12","correct_side":1,"subjID":"orihanagomez ","gender":"1","age":"9","school":"9"},{"start_time":1552313779426,"click_time":1552313784365,"finger_time":1552313783206,"fix_duration":878.9728440935966,"trial":25,"RT":3780,"MT":1159,"sideResp":1,"stimulus":"img/250/equaldotsize/L/7_Ratio_250_L_8_R_2.png","xmouse":[802,802,802,802,802,802,802,802,802,802,802,803,803,803,803,803,803,803,803,804,808,808,808,808,808,808,808,808,808,808,808,808,808,808,808,808,808,808,808,808,808,808,808,808,808,808,808,808,808,808,808,808,808,808,808,808,808,808,808,808,808,808,808,808,808,807,807,807,807,807,806,806,806,806,806,806,806,806,806,806,808,810,814,815,816,817,817,817,817,818,818,818,818,820,821,823,823,826,828,830,834,834,835,835,835,835,835,835,835,835,835,835,835,835,835,835,835,835,835,835,835,835,835,835,835,835,835,835,835,835,835,835,835,835,835,835,835,835,835,835,835,835,835,835,835,835,835,835,835,835,835,835,835,835,835,835,835,835,835,835,835,835,835,835,835,835,835,835,835,835,835,835,835,835,835,835,835,835,835,835,835,835,835,835,835,835,834,832,830,830,835,837,837,837,837,834,830,824,815,805,785,780,774,771,768,767,767,767,767,767,767,767,767,767,767,767,767,767,767,767,767,767,767,767,767,767,767,767,767,766,762,747,734,720,700,612,565,525,505,496,492,489,488,484,481,479,479,479],"ymouse":[605,605,605,605,605,605,605,605,605,605,604,603,603,603,603,603,603,603,603,602,596,595,595,595,595,595,595,595,595,595,595,595,595,595,595,595,595,595,595,595,595,595,595,595,595,595,595,595,595,595,595,595,595,595,595,595,595,595,595,595,595,595,595,595,595,594,594,594,594,594,594,599,601,601,601,601,601,601,601,602,602,602,603,603,603,603,603,603,603,603,603,601,600,599,598,597,596,595,593,591,587,586,585,585,585,585,585,585,585,585,585,585,585,585,585,585,585,585,585,585,585,585,585,585,585,585,585,585,585,585,585,585,585,585,585,585,585,585,585,585,585,585,585,585,585,585,585,585,585,585,585,585,585,585,585,585,585,585,585,585,585,585,585,585,585,585,585,585,585,585,585,585,585,585,585,585,585,585,585,585,585,587,595,603,613,629,635,643,657,674,699,708,713,715,716,717,717,714,708,699,680,673,663,658,651,647,647,647,645,644,643,643,641,641,640,639,639,639,639,639,639,639,639,639,639,639,639,639,639,638,636,626,608,587,558,432,357,287,251,224,191,171,166,147,120,107,101,95],"timestamp_mouse":[1,21,39,59,78,100,119,140,160,179,200,219,239,258,280,298,319,340,359,380,400,419,440,460,479,500,519,540,560,580,599,619,640,660,680,698,719,740,759,779,800,819,839,860,880,899,919,939,960,980,1000,1020,1040,1059,1078,1098,1120,1140,1159,1178,1198,1218,1240,1260,1280,1299,1320,1339,1360,1380,1399,1419,1440,1460,1479,1499,1519,1540,1560,1580,1600,1619,1640,1659,1679,1700,1719,1740,1760,1780,1798,1818,1839,1859,1878,1900,1920,1938,1959,1979,1999,2018,2040,2060,2079,2099,2119,2140,2159,2179,2200,2218,2238,2260,2279,2298,2319,2340,2359,2379,2399,2419,2440,2460,2478,2500,2519,2540,2559,2580,2599,2619,2639,2660,2680,2700,2719,2738,2759,2780,2800,2820,2840,2858,2880,2899,2919,2940,2959,2980,2999,3018,3040,3059,3079,3100,3119,3138,3159,3178,3199,3219,3239,3260,3278,3299,3319,3339,3360,3378,3399,3419,3439,3460,3479,3498,3519,3539,3559,3580,3599,3619,3639,3659,3679,3699,3718,3740,3760,3780,3799,3818,3840,3859,3880,3900,3919,3940,3960,3979,4000,4018,4039,4060,4080,4099,4120,4139,4160,4180,4199,4219,4239,4258,4279,4300,4319,4340,4360,4378,4400,4419,4440,4460,4480,4499,4519,4539,4559,4579,4599,4619,4640,4659,4679,4700,4718,4740,4760,4779,4799,4818,4839,4859,4887,4900,4919,4939],"xSR":741.5,"ySR":573.95,"xT1":424.9,"yT1":0,"xT2":1058.1,"yT2":0,"toosoon":0,"cond_shown":"equaldotsize","ratio_trial":250,"smaller_num":"2","larger_num":"8","correct_side":1,"subjID":"orihanagomez ","gender":"1","age":"9","school":"9"},{"start_time":1552313785797,"click_time":1552313786746,"finger_time":1552313786405,"fix_duration":250,"trial":26,"RT":608,"MT":341,"sideResp":1,"stimulus":"img/500/equaldotanddens/L/8_Ratio_500_L_8_R_4.png","xmouse":[769,771,775,775,775,775,775,775,775,775,775,775,775,775,775,775,775,775,775,775,775,775,775,775,775,775,776,772,768,761,752,737,698,675,638,619,599,591,585,581,576,566,542,537,533,529,525,517],"ymouse":[618,620,622,622,622,622,622,622,622,622,622,622,622,622,622,622,622,622,622,622,622,622,622,622,622,622,621,613,606,593,573,536,431,374,289,246,175,147,125,112,97,82,54,50,46,46,44,43],"timestamp_mouse":[9,28,55,68,88,108,128,148,168,189,207,229,249,267,288,308,328,349,368,389,409,428,448,468,488,509,529,549,569,589,608,628,647,669,688,708,728,748,768,789,808,828,848,869,888,909,928,949],"xSR":741.5,"ySR":573.95,"xT1":424.9,"yT1":0,"xT2":1058.1,"yT2":0,"toosoon":0,"cond_shown":"equaldotanddens","ratio_trial":500,"smaller_num":"4","larger_num":"8","correct_side":1,"subjID":"orihanagomez ","gender":"1","age":"9","school":"9"},{"start_time":1552313788327,"click_time":1552313789745,"finger_time":1552313789365,"fix_duration":700.5366566453636,"trial":27,"RT":1038,"MT":380,"sideResp":1,"stimulus":"img/750/equaldotanddens/L/13_Ratio_750_L_8_R_6.png","xmouse":[790,790,790,790,790,790,790,790,790,790,790,790,790,790,790,790,790,790,790,790,790,790,790,790,790,790,790,790,790,790,790,790,790,790,790,790,790,790,790,790,790,790,790,790,790,790,790,790,790,791,798,802,809,816,817,803,792,731,675,625,562,546,540,537,532,524,512,507,507,507,503],"ymouse":[611,611,611,611,611,611,611,611,611,611,611,611,611,611,611,611,611,611,611,611,611,611,611,611,611,611,611,611,611,611,611,611,611,611,611,611,611,611,611,611,611,611,611,611,611,611,611,611,611,604,574,544,507,458,380,325,297,205,147,85,19,0,0,0,0,0,0,0,0,0,7],"timestamp_mouse":[20,42,58,79,97,119,138,158,179,199,217,239,259,278,299,318,339,357,379,399,418,439,459,477,497,518,538,557,578,599,618,638,659,679,698,718,739,759,779,799,818,839,858,879,899,918,938,958,978,998,1019,1038,1059,1078,1098,1118,1138,1158,1179,1197,1219,1239,1257,1278,1297,1318,1338,1358,1379,1399,1418],"xSR":741.5,"ySR":573.95,"xT1":424.9,"yT1":0,"xT2":1058.1,"yT2":0,"toosoon":0,"cond_shown":"equaldotanddens","ratio_trial":750,"smaller_num":"6","larger_num":"8","correct_side":1,"subjID":"orihanagomez ","gender":"1","age":"9","school":"9"},{"start_time":1552313795705,"click_time":1552313796426,"finger_time":1552313796186,"fix_duration":1298.5359373983003,"trial":28,"RT":481,"MT":240,"sideResp":1,"stimulus":"img/750/randomdotsizeEA/L/9_Ratio_750_L_4_R_3.png","xmouse":[787,787,787,787,787,787,787,787,787,787,787,787,787,787,787,787,787,787,787,787,787,788,788,788,788,788,768,746,700,672,643,610,600,587,575,557,516],"ymouse":[618,618,618,618,618,618,618,618,618,618,618,618,618,618,618,618,618,618,618,618,618,616,592,580,564,540,444,381,291,252,218,175,160,144,129,114,84],"timestamp_mouse":[9,20,50,61,79,100,120,140,161,181,201,220,240,261,279,301,321,341,360,379,400,420,441,460,481,499,521,540,560,581,601,621,640,660,681,701,721],"xSR":741.5,"ySR":573.95,"xT1":424.9,"yT1":0,"xT2":1058.1,"yT2":0,"toosoon":0,"cond_shown":"randomdotsizeEA","ratio_trial":750,"smaller_num":"3","larger_num":"4","correct_side":1,"subjID":"orihanagomez ","gender":"1","age":"9","school":"9"},{"start_time":1552313799857,"click_time":1552313801746,"finger_time":1552313800765,"fix_duration":470.008746013002,"trial":29,"RT":908,"MT":981,"sideResp":2,"stimulus":"img/250/randomdotsizeEA/R/9_Ratio_250_L_3_R_12.png","xmouse":[787,787,787,787,787,787,787,787,787,787,787,787,787,787,787,787,787,787,787,787,787,787,787,787,787,787,787,787,787,787,787,787,787,787,787,787,787,787,787,787,787,787,787,787,795,806,817,830,840,884,923,966,1002,1021,1034,1035,1035,1035,1035,1035,1035,1035,1035,1035,1035,1035,1035,1035,1035,1035,1035,1035,1035,1035,1027,1022,1020,1020,1020,1019,1021,1030,1043,1060,1089,1101,1109,1118,1123,1123,1123,1124,1126,1127,1128],"ymouse":[605,605,605,605,605,605,605,605,605,605,605,605,605,605,605,605,605,605,605,605,605,605,605,605,605,605,605,605,605,605,605,605,605,605,605,605,605,605,605,605,605,605,605,601,587,568,546,522,500,391,329,276,236,213,198,194,194,194,194,194,194,194,194,194,194,194,194,194,194,194,194,194,194,193,192,192,192,192,192,191,185,174,163,152,136,127,119,114,110,110,110,109,107,101,98],"timestamp_mouse":[13,31,49,67,88,109,129,148,169,188,209,228,248,267,288,308,328,349,369,388,407,429,448,469,487,507,527,549,569,588,608,628,649,669,688,708,729,749,769,788,808,829,848,867,887,908,929,948,967,988,1008,1029,1049,1067,1088,1108,1129,1149,1169,1188,1208,1228,1247,1269,1289,1308,1329,1347,1369,1389,1408,1429,1448,1469,1488,1509,1529,1548,1568,1588,1608,1629,1648,1667,1688,1708,1729,1747,1769,1787,1808,1828,1848,1869,1889],"xSR":741.5,"ySR":573.95,"xT1":424.9,"yT1":0,"xT2":1058.1,"yT2":0,"toosoon":0,"cond_shown":"randomdotsizeEA","ratio_trial":250,"smaller_num":"3","larger_num":"12","correct_side":2,"subjID":"orihanagomez ","gender":"1","age":"9","school":"9"},{"start_time":1552313808216,"click_time":1552313812446,"finger_time":1552313809185,"fix_duration":250,"trial":30,"RT":969,"MT":3261,"sideResp":1,"stimulus":"img/750/equaldotanddens/L/14_Ratio_750_L_8_R_6.png","xmouse":[751,751,751,751,753,753,753,753,753,754,754,754,754,754,754,754,754,754,754,754,754,754,754,754,754,754,754,754,754,754,754,754,754,754,754,754,754,754,754,754,754,754,754,754,754,751,748,744,738,731,719,710,704,698,690,686,682,682,682,682,682,682,682,682,682,682,682,682,682,682,680,679,678,677,677,676,676,676,676,676,676,676,676,678,678,678,678,678,678,676,669,665,664,658,652,646,646,646,646,646,646,646,646,646,646,646,646,646,646,646,646,646,646,646,646,646,646,646,646,646,646,646,646,646,646,646,646,646,646,646,646,646,646,646,646,646,646,646,646,646,646,646,646,646,689,1103,1274,1433,1433,1433,1433,1433,1433,1433,1433,1433,1433,1433,1545,1441,1281,850,714,619,554,515,414,373,332,309,299,299,299,298,297,294,289,282,273,267,254,253,253,255,272,307,392,419,440,452,466,493,500,507,515,520,527,528,529,529,529,530,531,531,531,532,532,532,532,532,532,509],"ymouse":[625,625,625,625,625,625,625,625,625,626,626,626,626,626,626,626,626,626,626,626,626,626,626,626,626,626,626,626,626,626,626,626,626,626,626,626,626,626,626,626,626,626,626,626,626,617,602,588,565,541,509,488,474,452,436,419,384,367,351,337,314,303,300,292,290,287,285,282,278,274,269,267,266,265,265,260,257,254,250,246,239,236,232,224,217,205,199,192,185,175,152,137,133,116,103,88,88,88,88,88,88,88,88,88,88,88,88,88,88,88,88,88,88,88,88,88,88,88,88,88,88,88,88,88,88,88,88,88,88,88,88,88,88,88,88,88,88,88,88,88,88,88,88,88,95,142,144,146,146,146,146,146,146,146,146,146,146,146,0,0,0,0,0,0,0,0,0,0,4,10,14,14,14,14,6,0,0,0,0,0,0,0,10,32,58,94,162,188,208,221,232,239,237,234,227,216,195,186,178,169,158,132,125,121,118,117,114,112,112,112,109,97],"timestamp_mouse":[10,28,48,69,90,109,130,149,170,189,209,228,250,270,290,310,329,350,368,390,410,430,449,470,490,510,529,549,570,589,609,629,650,669,689,710,729,749,770,790,809,828,848,870,889,909,930,949,969,988,1009,1028,1049,1070,1089,1108,1129,1149,1170,1188,1210,1229,1249,1269,1289,1309,1329,1350,1369,1389,1409,1430,1450,1469,1489,1509,1529,1550,1570,1588,1609,1629,1649,1670,1689,1709,1729,1749,1770,1790,1809,1829,1850,1869,1890,1909,1930,1949,1970,1990,2009,2030,2050,2070,2090,2110,2130,2149,2170,2189,2209,2228,2250,2270,2289,2309,2328,2348,2370,2389,2410,2430,2449,2470,2489,2510,2529,2549,2570,2589,2609,2629,2649,2670,2690,2709,2728,2749,2768,2790,2810,2829,2848,2869,2889,2910,2928,2949,2970,2990,3010,3030,3050,3068,3088,3110,3129,3148,3169,3188,3210,3229,3249,3270,3289,3308,3329,3348,3369,3389,3410,3429,3449,3469,3490,3509,3528,3549,3570,3588,3609,3629,3650,3670,3689,3708,3728,3749,3769,3789,3810,3829,3849,3868,3889,3909,3929,3949,3969,3988,4008,4028,4049,4070,4088,4108,4128,4150,4170,4189,4210,4230],"xSR":741.5,"ySR":573.95,"xT1":424.9,"yT1":0,"xT2":1058.1,"yT2":0,"toosoon":0,"cond_shown":"equaldotanddens","ratio_trial":750,"smaller_num":"6","larger_num":"8","correct_side":1,"subjID":"orihanagomez ","gender":"1","age":"9","school":"9"},{"start_time":1552313829052,"click_time":1552313829565,"finger_time":1552313829246,"fix_duration":1144.7155259247986,"trial":31,"RT":194,"MT":319,"sideResp":1,"stimulus":"img/900/randomdotsizeEA/R/15_Ratio_900_L_9_R_10.png","xmouse":[779,779,779,779,779,779,781,785,798,831,843,843,841,826,779,748,715,678,598,565,551,543,540,533,525,516],"ymouse":[642,642,642,642,642,642,629,620,594,494,413,353,292,228,83,20,0,0,0,0,0,0,0,3,22,44],"timestamp_mouse":[14,35,53,73,94,113,133,154,173,194,214,233,253,272,293,313,334,353,375,393,413,434,453,473,493,513],"xSR":741.5,"ySR":573.95,"xT1":424.9,"yT1":0,"xT2":1058.1,"yT2":0,"toosoon":0,"cond_shown":"randomdotsizeEA","ratio_trial":900,"smaller_num":"9","larger_num":"10","correct_side":2,"subjID":"orihanagomez ","gender":"1","age":"9","school":"9"},{"start_time":1552313832156,"click_time":1552313832686,"finger_time":1552313832626,"fix_duration":1308.3853272509523,"trial":32,"RT":470,"MT":60,"sideResp":2,"stimulus":"img/500/equaldotanddens/R/3_Ratio_500_L_10_R_20.png","xmouse":[791,791,791,791,791,791,791,791,791,791,791,791,791,791,791,791,791,791,791,791,792,797,810,837,937,1050,1144],"ymouse":[622,622,622,622,622,622,622,622,622,622,622,622,622,622,622,622,622,622,622,621,616,606,575,516,357,190,74],"timestamp_mouse":[10,37,49,68,90,109,130,150,169,188,209,229,250,270,290,310,329,350,369,389,410,429,449,470,490,509,530],"xSR":741.5,"ySR":573.95,"xT1":424.9,"yT1":0,"xT2":1058.1,"yT2":0,"toosoon":0,"cond_shown":"equaldotanddens","ratio_trial":500,"smaller_num":"10","larger_num":"20","correct_side":2,"subjID":"orihanagomez ","gender":"1","age":"9","school":"9"},{"start_time":1552313834642,"click_time":1552313837145,"finger_time":1552313835965,"fix_duration":296.40415580608123,"trial":33,"RT":1323,"MT":1180,"sideResp":1,"stimulus":"img/750/randomdotsizeEA/L/6_Ratio_750_L_24_R_18.png","xmouse":[823,823,823,823,823,823,823,823,823,823,827,829,829,829,829,829,829,829,829,829,829,829,829,829,829,829,830,830,830,830,830,830,830,830,830,830,830,830,830,830,830,830,830,830,830,830,830,830,830,830,830,830,830,830,830,830,830,830,830,830,830,830,830,830,832,838,842,844,844,844,841,831,827,823,812,809,807,787,752,714,648,637,624,624,624,624,624,624,624,624,624,624,624,624,624,624,624,624,624,624,624,624,624,624,624,624,624,624,624,624,624,624,713,1062,1445,1445,1445,1445,1445,1445,1559,1469,1318,1134,697,487],"ymouse":[627,627,627,627,627,627,627,627,627,627,629,630,630,630,630,630,630,630,630,630,630,630,630,630,630,630,631,631,631,631,631,631,631,631,631,631,631,631,631,631,631,631,631,631,631,631,631,631,631,631,631,631,631,631,631,631,631,631,631,631,631,631,631,631,631,612,586,566,542,513,436,361,334,314,284,278,274,265,248,231,203,199,192,192,192,192,192,192,192,192,192,192,192,192,192,192,192,192,192,192,192,192,192,192,192,192,192,192,192,192,192,192,237,363,486,486,486,486,486,486,574,486,386,293,120,63],"timestamp_mouse":[12,32,44,63,84,104,124,144,164,183,203,224,244,263,284,303,324,343,362,383,402,424,444,462,484,504,524,543,564,583,603,624,643,664,683,703,723,744,763,782,802,824,843,864,884,903,924,943,962,984,1004,1023,1044,1064,1083,1104,1124,1143,1164,1183,1203,1222,1244,1264,1284,1302,1323,1342,1362,1384,1404,1423,1443,1463,1484,1503,1523,1543,1563,1582,1603,1623,1644,1663,1683,1703,1724,1744,1763,1784,1802,1822,1843,1863,1884,1903,1923,1943,1964,1984,2003,2023,2044,2063,2083,2103,2124,2144,2163,2183,2203,2223,2244,2263,2284,2302,2324,2344,2362,2384,2403,2423,2444,2464,2484,2503],"xSR":741.5,"ySR":573.95,"xT1":424.9,"yT1":0,"xT2":1058.1,"yT2":0,"toosoon":0,"cond_shown":"randomdotsizeEA","ratio_trial":750,"smaller_num":"18","larger_num":"24","correct_side":1,"subjID":"orihanagomez ","gender":"1","age":"9","school":"9"},{"start_time":1552313844540,"click_time":1552313847106,"finger_time":1552313846626,"fix_duration":1052.9957631418715,"trial":34,"RT":2086,"MT":480,"sideResp":1,"stimulus":"img/250/equaldotsize/L/15_Ratio_250_L_12_R_3.png","xmouse":[800,800,800,800,800,800,800,802,806,810,811,811,811,811,812,812,813,813,813,813,813,813,813,813,813,813,813,813,813,813,813,809,806,804,804,804,804,804,804,804,804,804,804,804,804,804,804,804,804,804,804,804,804,804,804,804,804,804,804,804,804,804,804,804,804,804,804,803,802,802,802,802,802,802,802,802,802,802,802,802,802,802,802,802,802,802,802,802,802,802,802,801,801,801,801,801,801,801,803,808,810,813,817,823,838,846,853,854,852,841,792,759,714,673,627,619,618,618,617,603,588,574,562,555,546,542,539,530,522],"ymouse":[599,599,599,599,599,599,599,600,605,610,612,613,613,613,615,615,616,616,616,616,616,616,616,616,616,616,616,616,616,616,616,616,616,616,616,616,616,616,616,616,616,616,616,616,616,616,616,616,616,616,616,616,616,616,616,616,616,616,616,616,616,616,616,616,616,616,616,616,615,615,615,615,615,615,615,615,615,615,615,615,615,615,615,615,615,615,615,615,615,615,615,614,614,614,614,614,614,614,611,604,602,599,595,589,566,548,512,488,464,435,376,345,291,255,223,220,219,219,219,196,178,158,139,122,102,95,90,84,79],"timestamp_mouse":[13,29,46,66,86,106,126,146,166,186,206,227,247,265,287,307,327,346,366,386,407,426,447,466,485,505,525,546,565,587,606,626,646,667,685,705,726,746,765,787,806,827,845,866,885,905,925,946,967,986,1006,1026,1046,1067,1085,1106,1126,1146,1165,1185,1205,1225,1245,1266,1286,1306,1326,1346,1366,1385,1406,1426,1447,1465,1485,1506,1527,1545,1567,1586,1606,1627,1646,1666,1687,1705,1725,1746,1767,1785,1805,1826,1847,1867,1886,1905,1926,1946,1965,1986,2007,2027,2046,2066,2086,2106,2125,2146,2166,2186,2205,2226,2247,2267,2287,2305,2326,2345,2365,2386,2405,2426,2446,2466,2486,2506,2526,2545,2566],"xSR":741.5,"ySR":573.95,"xT1":424.9,"yT1":0,"xT2":1058.1,"yT2":0,"toosoon":0,"cond_shown":"equaldotsize","ratio_trial":250,"smaller_num":"3","larger_num":"12","correct_side":1,"subjID":"orihanagomez ","gender":"1","age":"9","school":"9"},{"start_time":1552313854309,"click_time":1552313855026,"finger_time":1552313854606,"fix_duration":381.886907468403,"trial":35,"RT":297,"MT":420,"sideResp":2,"stimulus":"img/750/equaldotsize/R/11_Ratio_750_L_12_R_16.png","xmouse":[792,792,792,792,792,792,792,792,792,792,792,792,792,794,801,828,857,870,872,872,880,889,901,908,914,920,922,925,930,940,977,995,1015,1034,1048,1066],"ymouse":[580,580,580,580,580,580,580,580,580,580,580,580,580,578,570,517,429,368,326,297,253,236,220,210,198,179,170,160,153,144,122,110,96,83,73,53],"timestamp_mouse":[17,38,57,76,98,117,137,158,177,196,218,236,257,276,297,317,337,357,377,396,417,436,457,478,497,517,536,557,577,598,617,638,658,677,698,717],"xSR":741.5,"ySR":573.95,"xT1":424.9,"yT1":0,"xT2":1058.1,"yT2":0,"toosoon":0,"cond_shown":"equaldotsize","ratio_trial":750,"smaller_num":"12","larger_num":"16","correct_side":2,"subjID":"orihanagomez ","gender":"1","age":"9","school":"9"},{"start_time":1552313859818,"click_time":1552313860626,"finger_time":1552313860266,"fix_duration":250,"trial":36,"RT":448,"MT":360,"sideResp":2,"stimulus":"img/750/randomdotsizeEA/L/14_Ratio_750_L_8_R_6.png","xmouse":[813,813,813,813,813,813,813,813,813,813,813,813,813,813,813,813,813,813,814,818,820,835,844,857,876,906,1004,1066,1120,1156,1192,1197,1202,1202,1201,1195,1193,1188,1184,1169,1150],"ymouse":[613,614,614,614,614,616,616,616,616,616,616,616,616,616,616,616,616,617,617,611,606,577,562,538,501,451,331,282,245,219,176,161,141,129,115,85,77,71,69,67,66],"timestamp_mouse":[10,28,53,69,88,108,129,149,167,188,209,229,249,268,287,307,329,347,367,387,409,428,448,468,488,507,528,549,569,589,608,627,648,668,689,708,728,748,769,787,807],"xSR":741.5,"ySR":573.95,"xT1":424.9,"yT1":0,"xT2":1058.1,"yT2":0,"toosoon":0,"cond_shown":"randomdotsizeEA","ratio_trial":750,"smaller_num":"6","larger_num":"8","correct_side":1,"subjID":"orihanagomez ","gender":"1","age":"9","school":"9"},{"start_time":1552313866136,"click_time":1552313866786,"finger_time":1552313866487,"fix_duration":587.7788759574906,"trial":37,"RT":351,"MT":299,"sideResp":1,"stimulus":"img/900/equaldotsize/R/14_Ratio_900_L_18_R_20.png","xmouse":[785,786,788,788,788,788,788,788,788,788,788,788,788,788,788,784,766,664,568,436,417,415,421,434,451,452,452,452,453,468,484,500,509],"ymouse":[660,659,658,658,658,658,658,658,658,658,658,658,658,658,658,648,625,479,351,215,193,178,163,151,139,139,139,139,139,132,121,107,96],"timestamp_mouse":[14,29,50,71,89,109,130,151,170,190,211,231,251,270,290,309,329,351,370,391,410,430,451,470,490,510,529,550,570,590,609,630,650],"xSR":741.5,"ySR":573.95,"xT1":424.9,"yT1":0,"xT2":1058.1,"yT2":0,"toosoon":0,"cond_shown":"equaldotsize","ratio_trial":900,"smaller_num":"18","larger_num":"20","correct_side":2,"subjID":"orihanagomez ","gender":"1","age":"9","school":"9"},{"start_time":1552313867901,"click_time":1552313868986,"finger_time":1552313868247,"fix_duration":292.5484760874396,"trial":38,"RT":346,"MT":739,"sideResp":2,"stimulus":"img/900/equaldotsize/R/11_Ratio_900_L_18_R_20.png","xmouse":[781,781,781,781,781,781,781,781,781,781,781,781,781,785,789,797,817,831,834,848,858,867,880,885,892,898,908,909,910,911,912,931,944,962,981,998,1032,1044,1046,1047,1047,1047,1047,1047,1046,1046,1046,1045,1046,1047,1048,1051,1054,1057,1061],"ymouse":[653,653,653,653,653,653,653,653,653,653,653,653,653,653,650,645,616,569,532,428,370,315,225,184,157,139,115,112,110,109,109,109,110,113,114,114,115,115,115,114,112,107,104,104,102,101,97,91,83,81,80,75,71,68,64],"timestamp_mouse":[6,31,45,64,84,104,125,144,164,186,206,225,246,265,285,305,325,346,366,385,405,425,445,464,486,504,525,544,565,584,604,624,644,666,685,706,725,745,765,785,805,824,846,865,885,905,925,944,965,986,1005,1025,1045,1065,1085],"xSR":741.5,"ySR":573.95,"xT1":424.9,"yT1":0,"xT2":1058.1,"yT2":0,"toosoon":0,"cond_shown":"equaldotsize","ratio_trial":900,"smaller_num":"18","larger_num":"20","correct_side":2,"subjID":"orihanagomez ","gender":"1","age":"9","school":"9"},{"start_time":1552313870208,"click_time":1552313870825,"finger_time":1552313870426,"fix_duration":400.1625305717711,"trial":39,"RT":218,"MT":399,"sideResp":1,"stimulus":"img/500/randomdotsizeEA/R/12_Ratio_500_L_1_R_2.png","xmouse":[775,775,775,775,775,775,775,775,775,775,771,755,747,712,681,626,611,607,604,603,601,601,600,599,597,587,576,566,554,541,519],"ymouse":[598,598,598,598,598,598,598,597,595,591,569,526,502,421,346,200,138,103,87,74,59,55,51,49,46,41,39,37,36,33,30],"timestamp_mouse":[19,39,58,78,98,117,138,158,177,197,218,237,259,279,298,318,337,358,379,398,419,437,458,478,498,518,538,559,578,597,617],"xSR":741.5,"ySR":573.95,"xT1":424.9,"yT1":0,"xT2":1058.1,"yT2":0,"toosoon":0,"cond_shown":"randomdotsizeEA","ratio_trial":500,"smaller_num":"1","larger_num":"2","correct_side":2,"subjID":"orihanagomez ","gender":"1","age":"9","school":"9"},{"start_time":1552313872102,"click_time":1552313872486,"finger_time":1552313872148,"fix_duration":534.4788161350625,"trial":40,"RT":46,"MT":338,"sideResp":2,"stimulus":"img/250/equaldotsize/L/3_Ratio_250_L_8_R_2.png","xmouse":[821,838,850,864,894,950,1028,1177,1212,1214,1214,1213,1212,1211,1211,1211,1206,1195,1170,1150],"ymouse":[615,595,583,566,509,433,353,171,117,105,99,95,94,94,94,94,92,87,74,61],"timestamp_mouse":[3,25,46,63,84,103,124,143,163,183,205,224,244,265,283,303,324,343,363,384],"xSR":741.5,"ySR":573.95,"xT1":424.9,"yT1":0,"xT2":1058.1,"yT2":0,"toosoon":0,"cond_shown":"equaldotsize","ratio_trial":250,"smaller_num":"2","larger_num":"8","correct_side":1,"subjID":"orihanagomez ","gender":"1","age":"9","school":"9"},{"start_time":1552313874058,"click_time":1552313874486,"finger_time":1552313874386,"fix_duration":570.7498477403002,"trial":41,"RT":328,"MT":100,"sideResp":1,"stimulus":"img/750/randomdotsizeEA/L/9_Ratio_750_L_4_R_3.png","xmouse":[800,800,800,800,800,800,800,800,800,800,800,800,800,800,801,801,794,770,688,635,569,440],"ymouse":[600,600,600,600,600,600,600,600,600,600,600,600,600,599,595,586,568,533,416,342,250,98],"timestamp_mouse":[9,29,49,67,88,107,128,148,168,187,207,227,249,269,288,308,328,347,368,388,409,428],"xSR":741.5,"ySR":573.95,"xT1":424.9,"yT1":0,"xT2":1058.1,"yT2":0,"toosoon":0,"cond_shown":"randomdotsizeEA","ratio_trial":750,"smaller_num":"3","larger_num":"4","correct_side":1,"subjID":"orihanagomez ","gender":"1","age":"9","school":"9"},{"start_time":1552313876267,"click_time":1552313877067,"finger_time":1552313876586,"fix_duration":439.3870425195996,"trial":42,"RT":319,"MT":481,"sideResp":1,"stimulus":"img/900/randomdotsizeEA/L/1_Ratio_900_L_10_R_9.png","xmouse":[769,769,769,769,769,769,769,769,769,769,769,769,769,769,768,763,755,745,732,709,702,696,687,673,652,642,634,629,621,617,604,595,586,577,572,563,549,536,529,522,514],"ymouse":[604,604,604,604,604,604,604,604,604,604,604,604,604,604,603,591,573,549,518,429,384,360,330,297,237,211,191,176,159,156,148,144,140,138,137,134,128,123,117,105,97],"timestamp_mouse":[2,18,38,59,78,99,118,139,160,180,199,219,238,259,279,298,319,338,359,378,400,419,440,459,479,498,519,538,560,579,600,618,639,659,678,698,720,739,759,779,800],"xSR":741.5,"ySR":573.95,"xT1":424.9,"yT1":0,"xT2":1058.1,"yT2":0,"toosoon":0,"cond_shown":"randomdotsizeEA","ratio_trial":900,"smaller_num":"9","larger_num":"10","correct_side":1,"subjID":"orihanagomez ","gender":"1","age":"9","school":"9"},{"start_time":1552313878702,"click_time":1552313879846,"finger_time":1552313879026,"fix_duration":773.5915814367039,"trial":43,"RT":324,"MT":820,"sideResp":2,"stimulus":"img/500/equaldotanddens/L/8_Ratio_500_L_8_R_4.png","xmouse":[789,789,789,789,789,789,789,789,789,789,789,789,789,789,789,799,821,849,905,947,989,1020,1058,1066,1072,1074,1075,1075,1075,1076,1077,1078,1081,1081,1083,1085,1089,1091,1092,1093,1093,1093,1094,1094,1094,1094,1094,1094,1094,1094,1094,1094,1094,1094,1094,1095,1095,1095],"ymouse":[613,613,613,613,613,613,613,613,613,613,613,613,613,613,613,602,572,539,473,415,357,306,234,213,194,180,171,158,155,149,141,134,123,119,116,113,108,104,102,102,101,101,101,101,101,101,101,101,101,101,101,101,101,101,101,101,101,98],"timestamp_mouse":[12,33,43,63,84,105,123,143,165,184,204,224,245,264,283,304,324,343,365,384,404,424,443,463,485,505,523,544,564,583,605,623,643,664,685,704,724,743,764,784,805,823,845,865,883,903,924,943,965,984,1003,1024,1045,1064,1083,1103,1125,1144],"xSR":741.5,"ySR":573.95,"xT1":424.9,"yT1":0,"xT2":1058.1,"yT2":0,"toosoon":0,"cond_shown":"equaldotanddens","ratio_trial":500,"smaller_num":"4","larger_num":"8","correct_side":1,"subjID":"orihanagomez ","gender":"1","age":"9","school":"9"},{"start_time":1552313885751,"click_time":1552313886485,"finger_time":1552313885926,"fix_duration":1162.9663503145898,"trial":44,"RT":175,"MT":559,"sideResp":1,"stimulus":"img/250/randomdotsizeEA/L/2_Ratio_250_L_16_R_4.png","xmouse":[792,792,792,792,792,792,791,785,738,686,627,554,479,414,332,316,313,312,312,312,313,314,317,337,349,358,366,374,387,390,394,398,402,410,417,421,425],"ymouse":[617,617,617,617,617,617,615,601,534,477,425,362,299,244,164,139,133,129,128,126,121,116,108,95,90,87,83,81,74,72,69,68,66,66,66,66,66],"timestamp_mouse":[16,35,56,76,95,116,135,156,175,195,215,235,255,276,296,316,335,354,375,395,415,435,454,476,494,516,536,555,575,595,615,634,656,675,695,714,734],"xSR":741.5,"ySR":573.95,"xT1":424.9,"yT1":0,"xT2":1058.1,"yT2":0,"toosoon":0,"cond_shown":"randomdotsizeEA","ratio_trial":250,"smaller_num":"4","larger_num":"16","correct_side":1,"subjID":"orihanagomez ","gender":"1","age":"9","school":"9"},{"start_time":1552313888626,"click_time":1552313889245,"finger_time":1552313889007,"fix_duration":978.8740042412115,"trial":45,"RT":381,"MT":238,"sideResp":2,"stimulus":"img/250/randomdotsizeEA/R/13_Ratio_250_L_2_R_8.png","xmouse":[801,801,801,801,801,801,801,801,801,801,801,801,801,801,801,801,801,804,819,843,899,936,992,1019,1043,1069,1076,1079,1083,1088,1104,1118],"ymouse":[617,617,617,617,617,617,617,617,617,617,617,617,617,617,617,617,617,608,588,550,442,383,304,274,249,208,191,181,169,158,118,86],"timestamp_mouse":[1,20,39,61,80,99,119,140,161,181,199,219,240,261,280,300,319,339,361,381,400,419,440,460,480,500,520,539,559,580,600,619],"xSR":741.5,"ySR":573.95,"xT1":424.9,"yT1":0,"xT2":1058.1,"yT2":0,"toosoon":0,"cond_shown":"randomdotsizeEA","ratio_trial":250,"smaller_num":"2","larger_num":"8","correct_side":2,"subjID":"orihanagomez ","gender":"1","age":"9","school":"9"},{"start_time":1552313893152,"click_time":1552313893905,"finger_time":1552313893426,"fix_duration":1284.2530607414708,"trial":46,"RT":274,"MT":479,"sideResp":1,"stimulus":"img/900/equaldotanddens/L/8_Ratio_900_L_20_R_18.png","xmouse":[795,796,797,799,799,799,799,799,799,799,796,793,793,794,798,803,803,803,803,803,803,799,785,763,670,642,630,627,626,624,616,605,597,586,575,563,543,521],"ymouse":[592,590,589,584,582,582,582,582,582,582,581,578,574,556,543,508,481,443,331,266,201,129,49,0,0,0,0,0,0,0,0,0,0,0,0,1,4,4],"timestamp_mouse":[14,34,54,74,93,114,133,154,174,193,213,234,254,274,293,313,333,355,374,393,413,433,454,474,494,514,535,555,575,594,615,635,653,676,694,714,733,753],"xSR":741.5,"ySR":573.95,"xT1":424.9,"yT1":0,"xT2":1058.1,"yT2":0,"toosoon":0,"cond_shown":"equaldotanddens","ratio_trial":900,"smaller_num":"18","larger_num":"20","correct_side":1,"subjID":"orihanagomez ","gender":"1","age":"9","school":"9"},{"start_time":1552313902882,"click_time":1552313904131,"finger_time":1552313903629,"fix_duration":250,"trial":47,"RT":747,"MT":502,"sideResp":1,"stimulus":"img/500/randomdotsizeEA/R/12_Ratio_500_L_1_R_2.png","xmouse":[776,776,776,776,776,776,776,776,776,776,776,776,776,776,776,776,776,776,776,776,776,776,776,776,776,776,776,776,776,776,776,776,776,776,776,776,776,760,738,715,695,669,609,580,549,523,497,450,429,423,422,421,419,413,411,408,408,407,407,407,412,422,455],"ymouse":[645,645,645,645,645,645,645,645,645,645,645,645,645,645,645,645,645,645,645,645,645,645,645,645,645,645,645,645,645,645,645,645,645,645,644,638,617,517,385,304,235,176,84,49,20,0,0,0,0,0,0,0,2,8,11,16,19,22,26,26,27,28,28],"timestamp_mouse":[12,31,46,67,87,108,128,147,166,186,208,228,247,268,288,308,326,346,366,387,407,427,447,467,487,506,527,546,566,587,608,627,648,668,688,707,727,747,766,787,807,827,847,867,887,907,926,949,968,986,1007,1027,1048,1068,1086,1107,1126,1147,1166,1186,1207,1227,1249],"xSR":741.5,"ySR":573.95,"xT1":424.9,"yT1":0,"xT2":1058.1,"yT2":0,"toosoon":0,"cond_shown":"randomdotsizeEA","ratio_trial":500,"smaller_num":"1","larger_num":"2","correct_side":2,"subjID":"orihanagomez ","gender":"1","age":"9","school":"9"},{"start_time":1552313906455,"click_time":1552313907529,"finger_time":1552313906929,"fix_duration":1185.6848060070508,"trial":48,"RT":474,"MT":600,"sideResp":2,"stimulus":"img/750/equaldotanddens/R/2_Ratio_750_L_6_R_8.png","xmouse":[794,795,795,795,795,795,795,795,795,795,795,795,796,799,799,799,800,801,804,812,818,829,839,853,856,856,856,856,856,856,856,855,854,853,853,853,853,855,872,893,912,942,986,1068,1112,1149,1171,1183,1184,1183,1180,1177,1173,1155],"ymouse":[631,631,632,632,632,632,632,632,632,632,632,632,632,632,632,632,631,630,628,623,619,614,610,606,606,606,606,606,606,606,606,610,613,614,614,614,614,612,584,554,527,492,443,335,279,227,194,168,154,132,120,110,96,56],"timestamp_mouse":[15,35,55,74,93,114,133,155,174,195,214,234,254,274,294,314,335,354,374,394,414,433,454,474,494,513,534,553,574,593,614,634,654,674,693,714,734,754,774,794,813,833,853,874,894,913,933,954,973,993,1014,1034,1054,1074],"xSR":741.5,"ySR":573.95,"xT1":424.9,"yT1":0,"xT2":1058.1,"yT2":0,"toosoon":0,"cond_shown":"equaldotanddens","ratio_trial":750,"smaller_num":"6","larger_num":"8","correct_side":2,"subjID":"orihanagomez ","gender":"1","age":"9","school":"9"},{"start_time":1552313912774,"click_time":1552313913589,"finger_time":1552313913249,"fix_duration":623.6607505670129,"trial":49,"RT":475,"MT":340,"sideResp":2,"stimulus":"img/250/equaldotanddens/R/8_Ratio_250_L_1_R_4.png","xmouse":[770,770,770,770,771,771,773,774,774,774,774,774,774,774,774,774,774,774,776,780,787,799,834,873,911,944,979,1062,1101,1133,1156,1172,1185,1208,1208,1208,1206,1190,1178,1162,1144],"ymouse":[653,653,653,653,653,653,653,652,652,652,652,652,652,652,652,652,652,652,651,650,647,642,627,611,594,578,558,500,461,414,370,323,274,182,164,152,143,126,117,105,92],"timestamp_mouse":[15,34,55,74,96,115,135,155,175,194,216,235,255,275,294,314,335,356,375,394,416,435,455,475,495,514,536,555,574,595,616,635,655,674,694,715,734,754,775,796,815],"xSR":741.5,"ySR":573.95,"xT1":424.9,"yT1":0,"xT2":1058.1,"yT2":0,"toosoon":0,"cond_shown":"equaldotanddens","ratio_trial":250,"smaller_num":"1","larger_num":"4","correct_side":2,"subjID":"orihanagomez ","gender":"1","age":"9","school":"9"},{"start_time":1552313916419,"click_time":1552313917629,"finger_time":1552313916669,"fix_duration":1388.9979066873427,"trial":50,"RT":250,"MT":960,"sideResp":2,"stimulus":"img/500/randomdotsizeEA/L/11_Ratio_500_L_12_R_6.png","xmouse":[816,816,816,816,816,816,816,816,816,821,828,838,858,875,888,901,903,904,904,904,904,904,904,904,904,904,904,904,904,904,904,902,896,893,891,891,891,898,910,925,961,976,981,987,994,1000,1007,1008,1008,1008,1009,1013,1021,1031,1048,1080,1096,1106,1113,1116,1121],"ymouse":[646,646,646,646,646,646,646,646,646,644,641,639,636,633,631,627,627,626,626,626,626,626,626,626,626,626,626,626,626,626,626,629,637,639,640,640,634,612,583,543,455,401,357,311,266,225,191,186,183,181,178,176,174,171,162,140,128,118,110,103,89],"timestamp_mouse":[9,38,50,70,89,111,129,150,170,190,210,229,250,269,290,311,329,350,370,390,410,429,449,470,490,510,529,550,570,590,610,629,649,670,690,710,730,749,770,789,810,830,851,871,891,909,930,950,970,990,1011,1029,1050,1070,1090,1110,1130,1150,1170,1189,1210],"xSR":741.5,"ySR":573.95,"xT1":424.9,"yT1":0,"xT2":1058.1,"yT2":0,"toosoon":0,"cond_shown":"randomdotsizeEA","ratio_trial":500,"smaller_num":"6","larger_num":"12","correct_side":1,"subjID":"orihanagomez ","gender":"1","age":"9","school":"9"},{"start_time":1552313919300,"click_time":1552313921268,"finger_time":1552313920690,"fix_duration":250,"trial":51,"RT":1390,"MT":578,"sideResp":2,"stimulus":"img/900/equaldotanddens/L/10_Ratio_900_L_20_R_18.png","xmouse":[792,792,792,792,792,792,792,792,792,792,793,793,793,793,793,793,793,793,793,793,793,793,793,793,793,793,793,793,793,793,793,793,793,793,793,793,793,793,795,796,796,796,796,796,796,796,796,796,797,798,799,802,802,803,803,804,806,807,807,807,807,807,807,807,807,808,810,818,832,854,883,915,999,1054,1116,1175,1211,1233,1230,1227,1225,1221,1217,1207,1194,1181,1168,1167,1167,1167,1167,1167,1167,1167,1167,1167,1167,1162,1156],"ymouse":[653,653,653,653,653,653,653,653,653,653,653,653,653,653,653,653,653,653,653,653,653,653,653,653,653,653,653,653,653,653,653,653,653,653,653,653,653,653,652,652,651,650,650,650,650,650,650,650,649,649,649,648,648,648,648,648,649,649,649,649,649,649,649,649,649,649,649,642,633,613,588,556,431,337,235,131,50,0,0,0,0,0,10,30,49,65,83,84,84,84,84,84,84,84,83,81,79,72,68],"timestamp_mouse":[26,28,48,69,89,108,129,149,169,190,208,228,250,269,289,309,330,349,368,390,410,429,449,469,488,510,528,548,569,588,608,630,649,668,689,708,729,750,770,789,809,829,848,870,888,909,928,948,968,990,1009,1029,1049,1068,1088,1108,1129,1150,1169,1188,1209,1229,1249,1270,1290,1308,1329,1348,1368,1390,1409,1428,1449,1469,1489,1508,1528,1548,1568,1589,1608,1631,1650,1669,1689,1710,1731,1750,1768,1788,1809,1829,1849,1869,1889,1908,1929,1949,1968],"xSR":741.5,"ySR":573.95,"xT1":424.9,"yT1":0,"xT2":1058.1,"yT2":0,"toosoon":0,"cond_shown":"equaldotanddens","ratio_trial":900,"smaller_num":"18","larger_num":"20","correct_side":1,"subjID":"orihanagomez ","gender":"1","age":"9","school":"9"},{"start_time":1552313925102,"click_time":1552313927649,"finger_time":1552313925109,"fix_duration":1131.8391044739644,"trial":52,"RT":7,"MT":2540,"sideResp":1,"stimulus":"img/900/equaldotsize/L/10_Ratio_900_L_20_R_18.png","xmouse":[843,844,847,849,850,851,851,848,845,843,841,839,833,827,826,823,823,823,823,823,823,823,823,823,823,823,823,823,823,823,823,823,823,823,823,823,823,823,823,823,823,823,823,823,823,823,823,823,823,823,823,824,825,826,826,826,826,826,826,827,826,823,821,819,818,818,818,818,818,817,818,841,849,854,859,863,866,867,867,867,867,864,856,853,848,847,835,825,821,818,818,818,818,817,816,813,807,803,799,796,794,791,791,791,791,791,791,791,791,791,791,790,787,783,776,767,754,726,726,726,726,700,676,649,627,593,540,447],"ymouse":[642,645,653,661,666,674,683,717,731,744,758,768,782,790,795,800,801,801,801,801,801,801,801,801,801,801,801,801,801,801,801,801,801,801,801,801,801,801,801,801,801,801,801,801,801,801,801,801,801,801,801,801,801,800,800,800,800,800,800,801,803,806,807,809,810,810,810,810,810,809,797,708,654,625,589,570,558,557,557,557,556,558,565,566,568,569,574,580,582,585,585,585,585,586,586,588,593,598,603,607,611,618,618,618,618,618,618,618,618,618,618,619,614,606,592,571,539,414,362,316,270,179,139,105,85,68,51,23],"timestamp_mouse":[7,28,47,66,86,106,126,146,167,188,207,227,247,266,286,307,328,347,368,387,407,426,447,466,487,506,528,546,566,587,608,627,647,667,687,707,727,746,767,788,807,827,846,867,886,907,928,946,967,987,1008,1027,1046,1066,1087,1107,1126,1147,1167,1187,1207,1226,1246,1267,1287,1306,1326,1347,1366,1387,1407,1427,1446,1468,1487,1507,1527,1546,1568,1588,1607,1626,1647,1666,1687,1707,1726,1747,1767,1788,1808,1827,1846,1867,1886,1908,1927,1947,1967,1987,2007,2028,2046,2066,2087,2106,2127,2147,2168,2187,2207,2227,2247,2267,2286,2307,2327,2347,2366,2387,2406,2426,2447,2467,2487,2507,2527,2547],"xSR":741.5,"ySR":573.95,"xT1":424.9,"yT1":0,"xT2":1058.1,"yT2":0,"toosoon":0,"cond_shown":"equaldotsize","ratio_trial":900,"smaller_num":"18","larger_num":"20","correct_side":1,"subjID":"orihanagomez ","gender":"1","age":"9","school":"9"},{"start_time":1552313929822,"click_time":1552313930709,"finger_time":1552313930229,"fix_duration":572.4789853382495,"trial":53,"RT":407,"MT":480,"sideResp":2,"stimulus":"img/500/randomdotsizeEA/L/10_Ratio_500_L_4_R_2.png","xmouse":[776,776,776,776,776,776,776,776,776,776,776,776,776,777,778,779,781,783,785,787,790,791,791,792,794,797,801,803,804,805,807,810,815,823,834,868,891,917,946,975,1042,1069,1096,1106,1112],"ymouse":[660,660,660,660,660,660,660,660,660,660,660,660,660,660,660,661,663,664,668,672,678,678,678,679,677,669,657,652,649,644,640,625,609,595,575,527,494,451,393,313,174,138,109,103,99],"timestamp_mouse":[13,35,47,67,87,106,127,148,167,188,208,226,247,268,287,307,327,347,367,387,407,426,447,467,487,507,527,546,568,587,607,626,646,667,687,707,727,746,767,786,807,826,847,868,887],"xSR":741.5,"ySR":573.95,"xT1":424.9,"yT1":0,"xT2":1058.1,"yT2":0,"toosoon":0,"cond_shown":"randomdotsizeEA","ratio_trial":500,"smaller_num":"2","larger_num":"4","correct_side":1,"subjID":"orihanagomez ","gender":"1","age":"9","school":"9"},{"start_time":1552313939639,"click_time":1552313940631,"finger_time":1552313940170,"fix_duration":1109.5013230325758,"trial":54,"RT":531,"MT":461,"sideResp":2,"stimulus":"img/750/randomdotsizeEA/R/4_Ratio_750_L_15_R_20.png","xmouse":[762,762,762,762,762,762,762,762,762,762,762,762,762,762,762,762,762,762,762,762,762,762,763,766,783,792,805,827,846,890,918,938,962,969,977,982,987,992,997,1013,1027,1044,1052,1056,1057,1057,1058,1060,1061,1065],"ymouse":[640,640,640,640,641,642,642,642,642,642,642,642,642,642,642,642,642,642,642,642,642,642,643,641,623,603,557,508,448,350,297,249,184,150,102,83,65,48,34,11,0,0,0,0,0,0,0,0,0,5],"timestamp_mouse":[9,31,50,71,89,110,129,150,171,189,210,229,251,269,289,310,331,350,370,390,410,430,450,470,490,510,531,550,570,590,609,630,650,670,689,710,730,750,769,790,810,830,850,869,889,910,931,949,971,991],"xSR":741.5,"ySR":573.95,"xT1":424.9,"yT1":0,"xT2":1058.1,"yT2":0,"toosoon":0,"cond_shown":"randomdotsizeEA","ratio_trial":750,"smaller_num":"15","larger_num":"20","correct_side":2,"subjID":"orihanagomez ","gender":"1","age":"9","school":"9"},{"start_time":1552313944241,"click_time":1552313944989,"finger_time":1552313944669,"fix_duration":250,"trial":55,"RT":428,"MT":320,"sideResp":2,"stimulus":"img/500/equaldotsize/L/11_Ratio_500_L_12_R_6.png","xmouse":[807,807,807,807,807,807,807,807,807,807,807,807,807,807,807,807,807,807,808,810,832,844,858,876,885,895,899,905,914,924,943,959,975,991,1021,1038,1054,1077],"ymouse":[663,663,663,663,663,663,663,663,663,663,663,663,663,663,663,663,663,663,662,656,591,545,493,438,398,343,320,294,271,245,199,162,136,107,56,33,18,4],"timestamp_mouse":[10,29,48,67,89,107,127,147,168,188,208,227,247,268,288,307,327,347,368,388,408,428,449,469,488,508,528,548,568,588,607,629,649,668,688,707,728,747],"xSR":741.5,"ySR":573.95,"xT1":424.9,"yT1":0,"xT2":1058.1,"yT2":0,"toosoon":0,"cond_shown":"equaldotsize","ratio_trial":500,"smaller_num":"6","larger_num":"12","correct_side":1,"subjID":"orihanagomez ","gender":"1","age":"9","school":"9"},{"start_time":1552313948231,"click_time":1552313949390,"finger_time":1552313949048,"fix_duration":560.1523632393405,"trial":56,"RT":817,"MT":342,"sideResp":1,"stimulus":"img/250/randomdotsizeEA/L/14_Ratio_250_L_12_R_3.png","xmouse":[799,799,799,799,799,799,799,799,799,799,799,799,799,799,799,799,799,799,799,799,799,799,799,799,799,799,799,799,799,799,799,799,799,799,799,799,799,799,797,793,752,713,658,613,569,564,563,562,562,564,564,564,564,564,564,548,528,501],"ymouse":[621,621,621,621,621,621,621,621,621,621,621,621,621,621,621,621,621,621,621,621,621,621,621,621,621,621,621,621,621,621,621,621,621,621,621,621,621,621,612,600,502,440,366,296,210,188,169,159,153,149,148,145,144,142,139,122,108,88],"timestamp_mouse":[18,39,58,78,97,117,138,157,178,197,219,239,258,277,298,318,338,358,377,397,418,438,458,479,497,517,537,558,579,597,617,638,659,678,697,719,738,758,777,798,817,838,858,878,898,917,937,958,978,998,1017,1037,1059,1078,1098,1118,1138,1159],"xSR":741.5,"ySR":573.95,"xT1":424.9,"yT1":0,"xT2":1058.1,"yT2":0,"toosoon":0,"cond_shown":"randomdotsizeEA","ratio_trial":250,"smaller_num":"3","larger_num":"12","correct_side":1,"subjID":"orihanagomez ","gender":"1","age":"9","school":"9"},{"start_time":1552313951031,"click_time":1552313951729,"finger_time":1552313951249,"fix_duration":621.5117110156544,"trial":57,"RT":218,"MT":480,"sideResp":2,"stimulus":"img/750/equaldotanddens/L/10_Ratio_750_L_4_R_3.png","xmouse":[822,822,822,822,822,822,822,822,823,829,849,866,898,935,1017,1057,1089,1109,1123,1137,1138,1141,1143,1145,1156,1161,1165,1168,1169,1169,1169,1168,1165,1162,1152],"ymouse":[628,628,628,628,628,628,628,627,624,617,590,563,521,459,361,319,286,262,246,224,222,214,209,205,188,175,162,149,138,120,113,107,102,97,89],"timestamp_mouse":[17,41,58,78,97,117,137,158,177,198,218,238,259,279,298,318,337,357,378,398,417,439,458,478,498,517,537,558,578,598,617,638,658,679,698],"xSR":741.5,"ySR":573.95,"xT1":424.9,"yT1":0,"xT2":1058.1,"yT2":0,"toosoon":0,"cond_shown":"equaldotanddens","ratio_trial":750,"smaller_num":"3","larger_num":"4","correct_side":1,"subjID":"orihanagomez ","gender":"1","age":"9","school":"9"},{"start_time":1552313954521,"click_time":1552313980770,"finger_time":1552313980251,"fix_duration":250,"trial":58,"RT":25730,"MT":519,"sideResp":2,"stimulus":"img/500/equaldotanddens/L/10_Ratio_500_L_4_R_2.png","xmouse":[801,801,801,801,800,798,797,797,795,793,793,793,793,793,793,793,793,793,793,793,793,793,793,793,793,793,793,793,793,793,793,793,793,793,793,793,793,793,793,793,793,793,793,793,793,793,793,793,793,793,793,793,793,793,793,793,793,793,793,793,793,793,793,793,793,793,793,793,793,793,793,793,793,793,793,793,793,793,793,793,793,793,793,793,793,793,793,793,793,793,793,793,793,793,793,793,793,793,793,793,793,793,793,793,793,793,793,793,793,793,793,793,793,793,793,793,793,793,793,793,793,793,793,793,793,793,793,793,793,793,793,793,793,793,793,793,793,793,793,793,793,793,793,793,793,793,793,793,793,793,793,793,793,793,793,793,793,793,793,793,793,793,793,793,793,793,793,793,793,793,793,793,793,793,793,793,793,793,793,793,793,793,793,793,793,793,793,793,793,793,793,793,793,793,793,793,793,793,793,793,793,793,793,793,793,793,793,793,793,793,793,793,793,793,793,793,793,793,793,793,793,793,793,793,793,793,793,793,793,793,793,793,793,793,793,793,793,793,793,793,793,793,793,793,793,793,793,793,793,793,793,793,793,793,793,793,793,793,793,793,793,793,793,793,793,793,793,793,793,793,793,793,793,793,793,793,793,793,793,793,793,793,793,793,793,793,793,793,793,793,793,793,793,793,793,793,793,793,793,793,793,793,793,793,793,793,793,793,793,793,793,793,793,793,793,793,793,793,793,793,793,793,793,793,793,793,793,793,793,793,793,793,793,793,793,793,793,793,793,793,793,793,793,793,793,793,793,793,793,793,793,793,793,793,793,793,793,793,793,793,793,793,793,793,793,793,793,793,793,793,793,793,793,793,793,793,793,793,793,793,793,793,793,793,793,793,793,793,793,793,793,793,793,793,793,793,793,793,793,793,793,793,793,793,793,793,793,793,793,793,793,793,793,793,793,793,793,793,793,793,793,793,793,793,793,793,793,793,793,793,793,793,793,793,793,793,793,793,793,793,793,793,793,793,793,793,793,793,793,793,793,793,793,793,793,793,793,793,793,793,793,793,793,793,793,793,793,793,793,793,793,793,793,793,793,793,793,793,793,793,793,793,793,793,793,793,793,793,793,793,793,793,793,793,793,793,793,793,793,793,793,793,793,793,793,793,793,793,793,793,793,793,793,793,793,793,793,793,793,793,793,793,793,793,793,793,793,793,793,793,793,793,793,793,793,793,793,793,793,793,793,793,793,793,793,793,793,793,793,793,793,793,793,793,793,793,793,793,793,793,793,793,793,793,793,793,793,793,793,793,793,793,793,793,793,793,793,793,793,793,793,793,793,793,793,793,793,793,793,793,793,793,793,793,793,793,793,793,793,793,793,793,793,793,793,793,793,793,793,793,793,793,793,793,793,793,793,793,793,793,793,793,793,793,793,793,793,793,793,793,793,793,793,793,793,793,793,793,793,793,793,793,793,793,793,793,793,793,793,793,793,793,793,793,793,793,793,793,793,793,793,793,793,793,793,793,793,793,793,793,793,793,793,793,793,793,793,793,793,793,793,793,793,793,793,793,793,793,793,793,793,793,793,793,793,793,793,793,793,793,793,793,793,793,793,793,793,793,793,793,793,793,793,793,793,793,793,793,793,793,793,793,793,793,793,793,793,793,793,793,793,793,793,793,793,793,793,793,793,793,793,793,793,793,793,793,793,793,793,793,793,793,793,793,793,793,793,793,793,793,793,793,793,793,793,793,793,793,793,793,793,793,793,793,793,793,793,793,793,793,793,793,793,793,793,793,793,793,793,793,793,793,793,793,793,793,793,793,793,793,793,793,793,793,793,793,793,793,793,793,793,793,793,793,793,793,793,793,793,793,793,793,793,793,793,793,793,793,793,793,793,793,793,793,793,793,793,793,793,793,793,793,793,793,793,793,793,793,793,793,793,793,793,793,793,793,793,793,793,793,793,793,793,793,793,793,793,793,793,793,793,793,793,793,793,793,793,793,793,793,793,793,793,793,793,793,793,793,793,793,793,793,793,793,793,793,793,793,793,793,793,793,793,793,793,793,793,793,793,793,793,793,793,793,793,793,793,793,793,793,793,793,793,793,793,793,793,793,793,793,793,793,793,793,793,793,793,793,793,793,793,793,793,793,793,793,793,793,793,793,793,793,793,793,793,793,793,793,793,793,793,793,793,793,793,793,793,793,793,793,793,793,793,793,793,793,793,793,793,793,793,793,793,793,793,793,793,793,793,793,793,793,793,793,793,793,793,793,793,793,793,793,793,793,793,793,793,793,793,793,793,793,793,793,793,793,793,793,793,793,793,793,793,793,793,793,793,793,793,793,793,793,793,793,793,793,793,793,793,793,793,793,793,793,793,793,793,793,793,793,793,793,793,793,793,793,793,793,793,793,793,793,793,793,793,793,793,793,793,793,793,793,793,793,793,793,793,793,793,793,793,793,793,793,793,793,793,793,793,793,793,793,793,793,793,793,793,793,793,793,793,793,793,793,793,793,793,793,793,793,793,793,793,793,793,793,793,793,793,793,793,793,793,793,793,793,793,793,793,793,793,793,793,793,793,793,793,793,793,793,793,793,793,793,793,793,793,793,793,793,793,793,793,793,793,793,793,793,793,793,793,793,793,793,793,793,793,793,793,793,793,793,793,793,793,793,793,793,793,793,793,793,793,793,793,793,793,793,793,793,793,793,793,793,793,793,793,793,793,793,793,793,793,793,793,793,793,793,793,793,793,793,793,793,793,793,793,793,793,793,793,793,793,793,793,793,793,793,793,793,793,793,793,793,793,793,793,793,793,793,793,793,793,793,793,793,793,793,793,793,793,793,793,793,793,793,793,793,793,793,793,793,793,793,793,793,793,793,793,793,793,793,793,793,793,793,793,793,793,793,793,793,793,793,793,802,885,921,1028,1056,1121,1123,1123,1123,1123,1123,1123,1123,1123,1123,1123,1123,1123,1123,1123,1123,1123,1123,1123,1123,1123,1123,1111],"ymouse":[631,630,630,629,628,628,628,628,628,628,628,628,628,628,628,628,628,628,628,628,628,628,628,628,628,628,628,628,628,628,628,628,628,628,628,628,628,628,628,628,628,628,628,628,628,628,628,628,628,628,628,628,628,628,628,628,628,628,628,628,628,628,628,628,628,628,628,628,628,628,628,628,628,628,628,628,628,628,628,628,628,628,628,628,628,628,628,628,628,628,628,628,628,628,628,628,628,628,628,628,628,628,628,628,628,628,628,628,628,628,628,628,628,628,628,628,628,628,628,628,628,628,628,628,628,628,628,628,628,628,628,628,628,628,628,628,628,628,628,628,628,628,628,628,628,628,628,628,628,628,628,628,628,628,628,628,628,628,628,628,628,628,628,628,628,628,628,628,628,628,628,628,628,628,628,628,628,628,628,628,628,628,628,628,628,628,628,628,628,628,628,628,628,628,628,628,628,628,628,628,628,628,628,628,628,628,628,628,628,628,628,628,628,628,628,628,628,628,628,628,628,628,628,628,628,628,628,628,628,628,628,628,628,628,628,628,628,628,628,628,628,628,628,628,628,628,628,628,628,628,628,628,628,628,628,628,628,628,628,628,628,628,628,628,628,628,628,628,628,628,628,628,628,628,628,628,628,628,628,628,628,628,628,628,628,628,628,628,628,628,628,628,628,628,628,628,628,628,628,628,628,628,628,628,628,628,628,628,628,628,628,628,628,628,628,628,628,628,628,628,628,628,628,628,628,628,628,628,628,628,628,628,628,628,628,628,628,628,628,628,628,628,628,628,628,628,628,628,628,628,628,628,628,628,628,628,628,628,628,628,628,628,628,628,628,628,628,628,628,628,628,628,628,628,628,628,628,628,628,628,628,628,628,628,628,628,628,628,628,628,628,628,628,628,628,628,628,628,628,628,628,628,628,628,628,628,628,628,628,628,628,628,628,628,628,628,628,628,628,628,628,628,628,628,628,628,628,628,628,628,628,628,628,628,628,628,628,628,628,628,628,628,628,628,628,628,628,628,628,628,628,628,628,628,628,628,628,628,628,628,628,628,628,628,628,628,628,628,628,628,628,628,628,628,628,628,628,628,628,628,628,628,628,628,628,628,628,628,628,628,628,628,628,628,628,628,628,628,628,628,628,628,628,628,628,628,628,628,628,628,628,628,628,628,628,628,628,628,628,628,628,628,628,628,628,628,628,628,628,628,628,628,628,628,628,628,628,628,628,628,628,628,628,628,628,628,628,628,628,628,628,628,628,628,628,628,628,628,628,628,628,628,628,628,628,628,628,628,628,628,628,628,628,628,628,628,628,628,628,628,628,628,628,628,628,628,628,628,628,628,628,628,628,628,628,628,628,628,628,628,628,628,628,628,628,628,628,628,628,628,628,628,628,628,628,628,628,628,628,628,628,628,628,628,628,628,628,628,628,628,628,628,628,628,628,628,628,628,628,628,628,628,628,628,628,628,628,628,628,628,628,628,628,628,628,628,628,628,628,628,628,628,628,628,628,628,628,628,628,628,628,628,628,628,628,628,628,628,628,628,628,628,628,628,628,628,628,628,628,628,628,628,628,628,628,628,628,628,628,628,628,628,628,628,628,628,628,628,628,628,628,628,628,628,628,628,628,628,628,628,628,628,628,628,628,628,628,628,628,628,628,628,628,628,628,628,628,628,628,628,628,628,628,628,628,628,628,628,628,628,628,628,628,628,628,628,628,628,628,628,628,628,628,628,628,628,628,628,628,628,628,628,628,628,628,628,628,628,628,628,628,628,628,628,628,628,628,628,628,628,628,628,628,628,628,628,628,628,628,628,628,628,628,628,628,628,628,628,628,628,628,628,628,628,628,628,628,628,628,628,628,628,628,628,628,628,628,628,628,628,628,628,628,628,628,628,628,628,628,628,628,628,628,628,628,628,628,628,628,628,628,628,628,628,628,628,628,628,628,628,628,628,628,628,628,628,628,628,628,628,628,628,628,628,628,628,628,628,628,628,628,628,628,628,628,628,628,628,628,628,628,628,628,628,628,628,628,628,628,628,628,628,628,628,628,628,628,628,628,628,628,628,628,628,628,628,628,628,628,628,628,628,628,628,628,628,628,628,628,628,628,628,628,628,628,628,628,628,628,628,628,628,628,628,628,628,628,628,628,628,628,628,628,628,628,628,628,628,628,628,628,628,628,628,628,628,628,628,628,628,628,628,628,628,628,628,628,628,628,628,628,628,628,628,628,628,628,628,628,628,628,628,628,628,628,628,628,628,628,628,628,628,628,628,628,628,628,628,628,628,628,628,628,628,628,628,628,628,628,628,628,628,628,628,628,628,628,628,628,628,628,628,628,628,628,628,628,628,628,628,628,628,628,628,628,628,628,628,628,628,628,628,628,628,628,628,628,628,628,628,628,628,628,628,628,628,628,628,628,628,628,628,628,628,628,628,628,628,628,628,628,628,628,628,628,628,628,628,628,628,628,628,628,628,628,628,628,62