[{"start_time":1552054994999,"click_time":1552054998185,"finger_time":1552054995010,"fix_duration":405.22972109700015,"trial":0,"RT":11,"MT":3175,"sideResp":1,"stimulus":"img/500/equaldotanddens/R/1_Ratio_500_L_9_R_18.png","xmouse":[788,788,788,788,788,788,788,788,788,788,788,788,788,788,788,788,788,788,788,788,788,788,788,788,788,788,788,788,788,788,788,788,788,788,788,788,788,788,788,788,788,788,788,788,788,788,788,788,788,788,788,789,796,801,805,806,807,808,810,810,810,810,810,810,810,810,810,810,809,809,808,807,805,804,804,804,802,799,788,782,776,775,775,775,775,775,775,775,775,775,775,775,775,775,775,775,775,775,775,775,775,775,775,775,775,775,775,775,775,775,775,775,775,775,776,776,776,776,776,776,776,776,776,776,776,776,776,776,776,776,776,776,776,776,776,776,776,777,774,761,726,702,666,606,592,587,587,587,587,587,587,587,586,581,577,569,557,542,504,481],"ymouse":[570,570,570,570,570,570,570,570,570,570,570,570,570,570,570,570,570,570,570,570,570,570,570,570,570,570,570,570,570,570,570,570,570,570,570,570,570,570,570,570,570,570,570,570,570,570,570,570,570,570,570,570,565,560,558,556,556,555,550,546,542,541,540,540,540,539,539,539,538,538,536,535,533,532,532,530,528,518,487,473,462,459,459,459,459,459,459,459,459,459,459,459,459,459,459,459,459,459,468,473,476,476,477,479,481,482,482,482,484,486,489,491,494,500,501,502,502,502,502,502,502,502,502,502,502,502,502,502,502,502,502,502,502,502,502,502,502,503,493,464,406,363,323,261,250,246,246,246,246,246,246,246,246,240,235,224,207,185,121,79],"timestamp_mouse":[10,27,47,67,86,107,127,148,166,187,205,227,247,266,286,307,327,347,367,386,407,426,446,466,486,507,526,547,567,587,607,626,647,666,686,707,726,747,767,787,807,827,846,866,887,907,927,947,967,986,1006,1027,1048,1066,1087,1106,1127,1147,1167,1186,1205,1225,1247,1267,1286,1306,1326,1345,1367,1387,1406,1427,1447,1467,1486,1506,1526,1546,1567,1586,1606,1627,1646,1666,1686,1706,1727,1747,1765,1786,1807,1827,1847,1865,1887,1907,1927,1946,1966,1986,2006,2027,2047,2067,2086,2106,2125,2147,2166,2187,2206,2226,2246,2267,2286,2306,2326,2347,2366,2387,2407,2426,2445,2467,2487,2507,2526,2547,2567,2586,2607,2627,2646,2666,2687,2706,2727,2746,2765,2786,2806,2827,2846,2866,2885,2907,2926,2946,2967,2986,3006,3026,3046,3065,3087,3107,3126,3146,3166,3186],"xSR":741.5,"ySR":501.8,"xT1":424.9,"yT1":0,"xT2":1058.1,"yT2":0,"toosoon":0,"cond_shown":"equaldotanddens","ratio_trial":500,"smaller_num":"9","larger_num":"18","correct_side":2,"subjID":"OSCARCENDALES32","gender":"0","age":"9","school":"4","test":{"fix_dur":[250,1500],"timestim":300,"targets_dim":[100,100],"targets_relative_coord":[0.3,0.7],"size_stim":[880,420],"start_dim":[100,100],"size_start":[300,300],"size_fix":60,"samplingrate":20,"img_types":["equaldotsize","equaldotanddens","randomdotsizeEA"],"ratios":[250,500,750,900],"rep_conds":9,"nTrials":120,"trials_to_rest":500,"Trials_order":[28,99,31,53,70,51,84,109,90,48,100,63,64,113,86,29,22,72,39,67,26,8,5,17,116,83,21,34,112,106,111,77,79,15,12,20,43,110,105,16,42,35,40,66,37,27,11,6,41,71,1,93,65,58,118,23,4,13,36,62,46,81,115,98,14,18,24,19,7,94,82,59,10,102,114,44,57,80,104,25,0,49,119,9,75,92,76,96,55,73,107,56,91,33,95,108,88,45,30,54,101,52,38,60,3,2,32,69,117,47,103,61,74,68,50,97,87,85,89,78],"cond_shown":["equaldotanddens","equaldotsize","equaldotanddens","randomdotsizeEA","equaldotanddens","equaldotsize","equaldotsize","equaldotanddens","equaldotsize","equaldotsize","equaldotanddens","equaldotsize","equaldotanddens","randomdotsizeEA","randomdotsizeEA","randomdotsizeEA","equaldotanddens","equaldotsize","equaldotsize","equaldotanddens","randomdotsizeEA","randomdotsizeEA","randomdotsizeEA","randomdotsizeEA","randomdotsizeEA","randomdotsizeEA","equaldotsize","equaldotanddens","equaldotanddens","equaldotanddens","equaldotsize","randomdotsizeEA","equaldotanddens","equaldotsize","equaldotsize","randomdotsizeEA","equaldotanddens","randomdotsizeEA","equaldotsize","equaldotanddens","equaldotsize","randomdotsizeEA","equaldotanddens","equaldotsize","equaldotanddens","equaldotsize","randomdotsizeEA","equaldotsize","randomdotsizeEA","randomdotsizeEA","equaldotanddens","equaldotsize","randomdotsizeEA","equaldotanddens","equaldotanddens","randomdotsizeEA","equaldotanddens","equaldotanddens","equaldotsize","randomdotsizeEA","equaldotanddens","equaldotsize","equaldotanddens","randomdotsizeEA","randomdotsizeEA","equaldotsize","equaldotsize","equaldotanddens","equaldotanddens","equaldotanddens","equaldotanddens","randomdotsizeEA","equaldotanddens","equaldotsize","equaldotsize","randomdotsizeEA","equaldotsize","randomdotsizeEA","randomdotsizeEA","equaldotanddens","equaldotsize","equaldotanddens","randomdotsizeEA","equaldotsize","equaldotsize","randomdotsizeEA","equaldotanddens","equaldotsize","equaldotanddens","equaldotanddens","randomdotsizeEA","randomdotsizeEA","equaldotanddens","equaldotsize","randomdotsizeEA","equaldotsize","equaldotanddens","equaldotsize","equaldotsize","equaldotsize","randomdotsizeEA","equaldotanddens","randomdotsizeEA","equaldotsize","equaldotsize","randomdotsizeEA","randomdotsizeEA","equaldotsize","equaldotsize","randomdotsizeEA","equaldotanddens","equaldotanddens","randomdotsizeEA","randomdotsizeEA","randomdotsizeEA","equaldotanddens","equaldotsize","equaldotanddens","randomdotsizeEA","equaldotsize"],"ratio_trial":[500,500,750,500,900,500,250,250,750,250,500,500,500,500,250,500,900,250,500,750,250,750,500,500,750,900,900,900,500,900,500,500,750,500,250,750,750,250,900,500,750,900,500,750,250,500,900,750,500,900,250,900,500,900,900,900,500,250,250,250,900,900,750,250,250,750,250,750,750,900,900,900,900,750,750,750,900,750,750,250,250,250,900,900,500,750,500,250,750,250,900,750,750,900,900,250,500,900,750,750,500,500,250,250,500,250,750,900,900,900,750,250,250,750,250,250,500,250,500,750],"smaller_num":["9","1","15","4","18","2","6","6","3","2","5","5","6","9","3","4","9","4","2","15","2","3","9","4","12","9","18","18","10","18","9","1","6","2","3","6","3","6","18","2","15","18","5","18","2","6","18","15","2","9","4","18","6","18","18","9","2","2","3","4","9","18","15","3","3","9","3","6","9","9","18","9","18","15","15","6","18","3","15","4","6","3","9","18","9","15","9","3","9","2","18","9","9","18","9","3","10","9","3","15","6","1","3","2","1","3","9","18","9","9","3","3","6","15","5","4","3","4","5","3"],"larger_num":["18","2","20","8","20","4","24","24","4","8","10","10","12","18","12","8","10","16","4","20","8","4","18","8","16","10","20","20","20","20","18","2","8","4","12","8","4","24","20","4","20","20","10","24","8","12","20","20","4","10","16","20","12","20","20","10","4","8","12","16","10","20","20","12","12","12","12","8","12","10","20","10","20","20","20","8","20","4","20","16","24","12","10","20","18","20","18","12","12","8","20","12","12","20","10","12","20","10","4","20","12","2","12","8","2","12","12","20","10","10","4","12","24","20","20","16","6","16","10","4"],"correct_side":[2,2,1,1,1,1,2,1,1,1,1,2,1,2,2,1,2,2,1,2,1,1,2,1,2,2,1,2,2,1,1,2,1,1,1,1,2,2,2,1,2,1,1,1,1,1,2,1,1,2,1,1,1,1,2,2,1,2,1,2,2,2,2,1,1,2,1,2,2,2,2,2,2,2,2,2,1,2,2,2,1,2,2,1,2,2,1,1,2,1,1,2,2,1,2,1,2,2,1,1,1,2,1,2,2,2,2,1,2,2,1,2,1,1,2,2,2,1,1,1],"img_shown":["img/500/equaldotanddens/R/1_Ratio_500_L_9_R_18.png","img/500/equaldotsize/R/12_Ratio_500_L_1_R_2.png","img/750/equaldotanddens/L/1_Ratio_750_L_20_R_15.png","img/500/randomdotsizeEA/L/8_Ratio_500_L_8_R_4.png","img/900/equaldotanddens/L/2_Ratio_900_L_20_R_18.png","img/500/equaldotsize/L/10_Ratio_500_L_4_R_2.png","img/250/equaldotsize/R/6_Ratio_250_L_6_R_24.png","img/250/equaldotanddens/L/5_Ratio_250_L_24_R_6.png","img/750/equaldotsize/L/8_Ratio_750_L_4_R_3.png","img/250/equaldotsize/L/1_Ratio_250_L_8_R_2.png","img/500/equaldotanddens/L/7_Ratio_500_L_10_R_5.png","img/500/equaldotsize/R/14_Ratio_500_L_5_R_10.png","img/500/equaldotanddens/L/11_Ratio_500_L_12_R_6.png","img/500/randomdotsizeEA/R/6_Ratio_500_L_9_R_18.png","img/250/randomdotsizeEA/R/4_Ratio_250_L_3_R_12.png","img/500/randomdotsizeEA/L/8_Ratio_500_L_8_R_4.png","img/900/equaldotanddens/R/6_Ratio_900_L_9_R_10.png","img/250/equaldotsize/R/10_Ratio_250_L_4_R_16.png","img/500/equaldotsize/L/10_Ratio_500_L_4_R_2.png","img/750/equaldotanddens/R/4_Ratio_750_L_15_R_20.png","img/250/randomdotsizeEA/L/3_Ratio_250_L_8_R_2.png","img/750/randomdotsizeEA/L/8_Ratio_750_L_4_R_3.png","img/500/randomdotsizeEA/R/6_Ratio_500_L_9_R_18.png","img/500/randomdotsizeEA/L/8_Ratio_500_L_8_R_4.png","img/750/randomdotsizeEA/R/11_Ratio_750_L_12_R_16.png","img/900/randomdotsizeEA/R/3_Ratio_900_L_9_R_10.png","img/900/equaldotsize/L/8_Ratio_900_L_20_R_18.png","img/900/equaldotanddens/R/11_Ratio_900_L_18_R_20.png","img/500/equaldotanddens/R/3_Ratio_500_L_10_R_20.png","img/900/equaldotanddens/L/2_Ratio_900_L_20_R_18.png","img/500/equaldotsize/L/4_Ratio_500_L_18_R_9.png","img/500/randomdotsizeEA/R/15_Ratio_500_L_1_R_2.png","img/750/equaldotanddens/L/13_Ratio_750_L_8_R_6.png","img/500/equaldotsize/L/10_Ratio_500_L_4_R_2.png","img/250/equaldotsize/L/15_Ratio_250_L_12_R_3.png","img/750/randomdotsizeEA/L/13_Ratio_750_L_8_R_6.png","img/750/equaldotanddens/R/7_Ratio_750_L_3_R_4.png","img/250/randomdotsizeEA/R/6_Ratio_250_L_6_R_24.png","img/900/equaldotsize/R/12_Ratio_900_L_18_R_20.png","img/500/equaldotanddens/L/5_Ratio_500_L_4_R_2.png","img/750/equaldotsize/R/5_Ratio_750_L_15_R_20.png","img/900/randomdotsizeEA/L/10_Ratio_900_L_20_R_18.png","img/500/equaldotanddens/L/7_Ratio_500_L_10_R_5.png","img/750/equaldotsize/L/6_Ratio_750_L_24_R_18.png","img/250/equaldotanddens/L/7_Ratio_250_L_8_R_2.png","img/500/equaldotsize/L/13_Ratio_500_L_12_R_6.png","img/900/randomdotsizeEA/R/14_Ratio_900_L_18_R_20.png","img/750/equaldotsize/L/1_Ratio_750_L_20_R_15.png","img/500/randomdotsizeEA/L/10_Ratio_500_L_4_R_2.png","img/900/randomdotsizeEA/R/15_Ratio_900_L_9_R_10.png","img/250/equaldotanddens/L/2_Ratio_250_L_16_R_4.png","img/900/equaldotsize/L/8_Ratio_900_L_20_R_18.png","img/500/randomdotsizeEA/L/11_Ratio_500_L_12_R_6.png","img/900/equaldotanddens/L/8_Ratio_900_L_20_R_18.png","img/900/equaldotanddens/R/9_Ratio_900_L_18_R_20.png","img/900/randomdotsizeEA/R/5_Ratio_900_L_9_R_10.png","img/500/equaldotanddens/L/10_Ratio_500_L_4_R_2.png","img/250/equaldotanddens/R/13_Ratio_250_L_2_R_8.png","img/250/equaldotsize/L/15_Ratio_250_L_12_R_3.png","img/250/randomdotsizeEA/R/10_Ratio_250_L_4_R_16.png","img/900/equaldotanddens/R/5_Ratio_900_L_9_R_10.png","img/900/equaldotsize/R/13_Ratio_900_L_18_R_20.png","img/750/equaldotanddens/R/5_Ratio_750_L_15_R_20.png","img/250/randomdotsizeEA/L/14_Ratio_250_L_12_R_3.png","img/250/randomdotsizeEA/L/15_Ratio_250_L_12_R_3.png","img/750/equaldotsize/R/15_Ratio_750_L_9_R_12.png","img/250/equaldotsize/L/14_Ratio_250_L_12_R_3.png","img/750/equaldotanddens/R/2_Ratio_750_L_6_R_8.png","img/750/equaldotanddens/R/15_Ratio_750_L_9_R_12.png","img/900/equaldotanddens/R/3_Ratio_900_L_9_R_10.png","img/900/equaldotanddens/R/12_Ratio_900_L_18_R_20.png","img/900/randomdotsizeEA/R/7_Ratio_900_L_9_R_10.png","img/900/equaldotanddens/R/13_Ratio_900_L_18_R_20.png","img/750/equaldotsize/R/4_Ratio_750_L_15_R_20.png","img/750/equaldotsize/R/4_Ratio_750_L_15_R_20.png","img/750/randomdotsizeEA/R/2_Ratio_750_L_6_R_8.png","img/900/equaldotsize/L/2_Ratio_900_L_20_R_18.png","img/750/randomdotsizeEA/R/7_Ratio_750_L_3_R_4.png","img/750/randomdotsizeEA/R/4_Ratio_750_L_15_R_20.png","img/250/equaldotanddens/R/10_Ratio_250_L_4_R_16.png","img/250/equaldotsize/L/5_Ratio_250_L_24_R_6.png","img/250/equaldotanddens/R/9_Ratio_250_L_3_R_12.png","img/900/randomdotsizeEA/R/7_Ratio_900_L_9_R_10.png","img/900/equaldotsize/L/10_Ratio_900_L_20_R_18.png","img/500/equaldotsize/R/1_Ratio_500_L_9_R_18.png","img/750/randomdotsizeEA/R/5_Ratio_750_L_15_R_20.png","img/500/equaldotanddens/L/4_Ratio_500_L_18_R_9.png","img/250/equaldotsize/L/15_Ratio_250_L_12_R_3.png","img/750/equaldotanddens/R/15_Ratio_750_L_9_R_12.png","img/250/equaldotanddens/L/1_Ratio_250_L_8_R_2.png","img/900/randomdotsizeEA/L/8_Ratio_900_L_20_R_18.png","img/750/randomdotsizeEA/R/15_Ratio_750_L_9_R_12.png","img/750/equaldotanddens/R/15_Ratio_750_L_9_R_12.png","img/900/equaldotsize/L/8_Ratio_900_L_20_R_18.png","img/900/randomdotsizeEA/R/5_Ratio_900_L_9_R_10.png","img/250/equaldotsize/L/14_Ratio_250_L_12_R_3.png","img/500/equaldotanddens/R/3_Ratio_500_L_10_R_20.png","img/900/equaldotsize/R/6_Ratio_900_L_9_R_10.png","img/750/equaldotsize/L/10_Ratio_750_L_4_R_3.png","img/750/equaldotsize/L/1_Ratio_750_L_20_R_15.png","img/500/randomdotsizeEA/L/11_Ratio_500_L_12_R_6.png","img/500/equaldotanddens/R/12_Ratio_500_L_1_R_2.png","img/250/randomdotsizeEA/L/15_Ratio_250_L_12_R_3.png","img/250/equaldotsize/R/13_Ratio_250_L_2_R_8.png","img/500/equaldotsize/R/12_Ratio_500_L_1_R_2.png","img/250/randomdotsizeEA/R/9_Ratio_250_L_3_R_12.png","img/750/randomdotsizeEA/R/15_Ratio_750_L_9_R_12.png","img/900/equaldotsize/L/8_Ratio_900_L_20_R_18.png","img/900/equaldotsize/R/6_Ratio_900_L_9_R_10.png","img/900/randomdotsizeEA/R/7_Ratio_900_L_9_R_10.png","img/750/equaldotanddens/L/10_Ratio_750_L_4_R_3.png","img/250/equaldotanddens/R/9_Ratio_250_L_3_R_12.png","img/250/randomdotsizeEA/L/5_Ratio_250_L_24_R_6.png","img/750/randomdotsizeEA/L/1_Ratio_750_L_20_R_15.png","img/250/randomdotsizeEA/R/12_Ratio_250_L_5_R_20.png","img/250/equaldotanddens/R/10_Ratio_250_L_4_R_16.png","img/500/equaldotsize/R/2_Ratio_500_L_3_R_6.png","img/250/equaldotanddens/L/2_Ratio_250_L_16_R_4.png","img/500/randomdotsizeEA/L/7_Ratio_500_L_10_R_5.png","img/750/equaldotsize/L/8_Ratio_750_L_4_R_3.png"],"Rat0":[["12_Ratio_0_L_9_R_0.png","13_Ratio_0_L_6_R_0.png","5_Ratio_0_L_2_R_0.png","6_Ratio_0_L_4_R_0.png","8_Ratio_0_L_6_R_0.png"],["1_Ratio_0_L_0_R_17.png","10_Ratio_0_L_0_R_22.png","11_Ratio_0_L_0_R_1.png","14_Ratio_0_L_0_R_24.png","15_Ratio_0_L_0_R_4.png","2_Ratio_0_L_0_R_5.png","3_Ratio_0_L_0_R_17.png","4_Ratio_0_L_0_R_7.png","7_Ratio_0_L_0_R_19.png","9_Ratio_0_L_0_R_15.png"]],"Rat250":[["1_Ratio_250_L_8_R_2.png","14_Ratio_250_L_12_R_3.png","15_Ratio_250_L_12_R_3.png","2_Ratio_250_L_16_R_4.png","3_Ratio_250_L_8_R_2.png","5_Ratio_250_L_24_R_6.png","7_Ratio_250_L_8_R_2.png"],["10_Ratio_250_L_4_R_16.png","11_Ratio_250_L_3_R_12.png","12_Ratio_250_L_5_R_20.png","13_Ratio_250_L_2_R_8.png","4_Ratio_250_L_3_R_12.png","6_Ratio_250_L_6_R_24.png","8_Ratio_250_L_1_R_4.png","9_Ratio_250_L_3_R_12.png"]],"Rat500":[["10_Ratio_500_L_4_R_2.png","11_Ratio_500_L_12_R_6.png","13_Ratio_500_L_12_R_6.png","4_Ratio_500_L_18_R_9.png","5_Ratio_500_L_4_R_2.png","7_Ratio_500_L_10_R_5.png","8_Ratio_500_L_8_R_4.png"],["1_Ratio_500_L_9_R_18.png","12_Ratio_500_L_1_R_2.png","14_Ratio_500_L_5_R_10.png","15_Ratio_500_L_1_R_2.png","2_Ratio_500_L_3_R_6.png","3_Ratio_500_L_10_R_20.png","6_Ratio_500_L_9_R_18.png","9_Ratio_500_L_2_R_4.png"]],"Rat750":[["1_Ratio_750_L_20_R_15.png","10_Ratio_750_L_4_R_3.png","13_Ratio_750_L_8_R_6.png","14_Ratio_750_L_8_R_6.png","6_Ratio_750_L_24_R_18.png","8_Ratio_750_L_4_R_3.png","9_Ratio_750_L_4_R_3.png"],["11_Ratio_750_L_12_R_16.png","12_Ratio_750_L_3_R_4.png","15_Ratio_750_L_9_R_12.png","2_Ratio_750_L_6_R_8.png","3_Ratio_750_L_15_R_20.png","4_Ratio_750_L_15_R_20.png","5_Ratio_750_L_15_R_20.png","7_Ratio_750_L_3_R_4.png"]],"Rat900":[["1_Ratio_900_L_10_R_9.png","10_Ratio_900_L_20_R_18.png","2_Ratio_900_L_20_R_18.png","4_Ratio_900_L_20_R_18.png","8_Ratio_900_L_20_R_18.png"],["11_Ratio_900_L_18_R_20.png","12_Ratio_900_L_18_R_20.png","13_Ratio_900_L_18_R_20.png","14_Ratio_900_L_18_R_20.png","15_Ratio_900_L_9_R_10.png","3_Ratio_900_L_9_R_10.png","5_Ratio_900_L_9_R_10.png","6_Ratio_900_L_9_R_10.png","7_Ratio_900_L_9_R_10.png","9_Ratio_900_L_18_R_20.png"]],"Rat1000":[["10_Ratio_1000_L_16_R_16.png","11_Ratio_1000_L_6_R_6.png","12_Ratio_1000_L_14_R_14.png","13_Ratio_1000_L_20_R_20.png","15_Ratio_1000_L_15_R_15.png","2_Ratio_1000_L_17_R_17.png","4_Ratio_1000_L_9_R_9.png","5_Ratio_1000_L_6_R_6.png","6_Ratio_1000_L_19_R_19.png","8_Ratio_1000_L_14_R_14.png","9_Ratio_1000_L_25_R_25.png"],["1_Ratio_1000_L_1_R_1.png","14_Ratio_1000_L_17_R_17.png","3_Ratio_1000_L_17_R_17.png","7_Ratio_1000_L_6_R_6.png"]]}},{"start_time":1552055000628,"click_time":1552055002106,"finger_time":1552055001706,"fix_duration":761.5136703176746,"trial":1,"RT":1078,"MT":400,"sideResp":2,"stimulus":"img/500/equaldotsize/R/12_Ratio_500_L_1_R_2.png","xmouse":[758,758,758,758,758,758,758,758,758,758,758,758,758,758,758,758,758,758,758,758,758,758,758,758,758,758,758,758,758,758,758,758,758,758,758,758,758,758,758,758,758,758,758,758,758,758,758,758,758,758,759,762,766,772,781,803,813,863,877,888,899,922,930,936,941,943,951,956,966,975,986,1002,1044,1079],"ymouse":[484,484,484,484,484,484,484,484,484,484,484,484,484,484,484,484,484,484,484,484,484,484,484,484,484,484,484,484,484,484,484,484,484,484,484,484,484,484,484,484,484,484,484,484,484,484,484,484,484,484,485,480,471,458,438,404,390,319,300,283,268,231,216,204,193,187,168,153,139,129,121,111,97,93],"timestamp_mouse":[17,38,58,78,98,117,137,156,177,197,218,237,256,277,297,318,337,357,378,397,417,437,458,477,498,518,537,558,578,597,617,637,658,678,698,717,738,758,777,797,818,837,858,876,898,917,938,958,978,998,1018,1037,1057,1078,1097,1118,1137,1157,1177,1197,1217,1238,1257,1277,1297,1317,1338,1357,1377,1398,1417,1437,1458,1477],"xSR":741.5,"ySR":469.95,"xT1":424.9,"yT1":0,"xT2":1058.1,"yT2":0,"toosoon":0,"cond_shown":"equaldotsize","ratio_trial":500,"smaller_num":"1","larger_num":"2","correct_side":2,"subjID":"OSCARCENDALES32","gender":"0","age":"9","school":"4"},{"start_time":1552055004570,"click_time":1552055005925,"finger_time":1552055005365,"fix_duration":942.9821475792121,"trial":2,"RT":795,"MT":560,"sideResp":1,"stimulus":"img/750/equaldotanddens/L/1_Ratio_750_L_20_R_15.png","xmouse":[823,823,823,823,823,823,823,823,823,823,823,823,823,823,823,823,823,823,823,823,823,823,823,823,823,823,823,823,823,823,823,823,823,823,823,823,823,824,828,829,842,852,861,871,876,894,907,912,920,922,922,922,922,922,923,933,948,961,970,970,970,970,968,947,896,715,614,495],"ymouse":[523,523,523,523,523,523,523,523,523,523,523,523,523,523,523,523,523,523,523,523,523,523,523,523,523,523,523,523,523,523,523,523,523,523,523,519,515,511,481,435,319,274,231,201,174,115,84,75,55,48,48,48,48,48,47,47,47,47,47,47,47,47,49,54,63,85,89,89],"timestamp_mouse":[20,41,55,76,96,115,136,155,175,195,216,236,255,276,296,315,336,355,376,396,416,435,456,475,495,516,535,554,575,596,616,636,656,676,695,715,735,755,775,795,815,835,855,875,895,915,936,954,975,996,1015,1036,1056,1076,1096,1115,1135,1155,1175,1196,1215,1236,1256,1274,1295,1315,1336,1355],"xSR":741.5,"ySR":469.95,"xT1":424.9,"yT1":0,"xT2":1058.1,"yT2":0,"toosoon":0,"cond_shown":"equaldotanddens","ratio_trial":750,"smaller_num":"15","larger_num":"20","correct_side":1,"subjID":"OSCARCENDALES32","gender":"0","age":"9","school":"4"},{"start_time":1552055008201,"click_time":1552055009565,"finger_time":1552055008965,"fix_duration":1013.153592551418,"trial":3,"RT":764,"MT":600,"sideResp":2,"stimulus":"img/500/randomdotsizeEA/L/8_Ratio_500_L_8_R_4.png","xmouse":[781,781,781,781,781,781,781,781,781,781,781,781,781,781,781,781,781,781,781,781,781,781,781,781,781,781,781,781,781,781,781,781,781,782,788,799,809,821,843,905,932,953,970,985,1004,1006,1006,1007,1010,1042,1074,1105,1127,1143,1162,1166,1167,1167,1167,1168,1168,1168,1168,1168,1168,1165,1158,1144,1133],"ymouse":[497,497,497,497,497,497,497,497,497,497,497,497,497,497,497,497,497,497,497,497,497,497,497,497,497,497,497,497,497,497,497,497,497,497,497,494,487,482,467,436,426,418,411,405,398,397,397,396,394,351,302,254,214,188,141,124,114,108,105,104,104,104,104,104,104,104,103,101,99],"timestamp_mouse":[12,37,44,65,84,105,125,145,164,184,204,225,244,264,284,304,325,344,364,384,405,423,445,465,484,505,525,545,565,584,604,624,644,664,684,704,724,744,764,785,803,824,844,864,884,904,925,944,963,985,1004,1024,1044,1064,1085,1105,1124,1144,1163,1184,1204,1225,1244,1265,1284,1304,1324,1344,1364],"xSR":741.5,"ySR":469.95,"xT1":424.9,"yT1":0,"xT2":1058.1,"yT2":0,"toosoon":0,"cond_shown":"randomdotsizeEA","ratio_trial":500,"smaller_num":"4","larger_num":"8","correct_side":1,"subjID":"OSCARCENDALES32","gender":"0","age":"9","school":"4"},{"start_time":1552055011116,"click_time":1552055012345,"finger_time":1552055011925,"fix_duration":250,"trial":4,"RT":809,"MT":420,"sideResp":1,"stimulus":"img/900/equaldotanddens/L/2_Ratio_900_L_20_R_18.png","xmouse":[809,809,809,809,808,807,806,805,805,804,804,804,804,804,804,804,804,804,804,804,804,804,804,804,804,804,804,804,804,804,804,804,804,804,804,804,804,804,804,781,741,701,667,619,601,588,578,569,567,564,564,564,564,560,557,556,555,554,549,521,498,477],"ymouse":[512,512,513,514,519,524,527,531,540,541,541,541,541,541,541,541,541,541,541,541,541,541,541,541,541,541,541,541,541,541,541,541,541,541,541,541,541,540,536,486,431,371,303,216,184,169,159,152,150,148,148,148,148,147,147,147,147,146,144,123,103,83],"timestamp_mouse":[13,35,49,69,89,109,129,149,169,189,210,230,249,269,289,309,329,350,369,389,409,429,450,470,489,510,530,550,570,590,610,629,649,670,689,710,729,749,769,789,809,829,850,871,889,909,929,949,969,989,1009,1029,1048,1070,1089,1109,1129,1149,1170,1188,1209,1229],"xSR":741.5,"ySR":469.95,"xT1":424.9,"yT1":0,"xT2":1058.1,"yT2":0,"toosoon":0,"cond_shown":"equaldotanddens","ratio_trial":900,"smaller_num":"18","larger_num":"20","correct_side":1,"subjID":"OSCARCENDALES32","gender":"0","age":"9","school":"4"},{"start_time":1552055014893,"click_time":1552055016326,"finger_time":1552055015725,"fix_duration":1425.9819885498875,"trial":5,"RT":832,"MT":601,"sideResp":1,"stimulus":"img/500/equaldotsize/L/10_Ratio_500_L_4_R_2.png","xmouse":[807,807,807,807,807,807,807,807,807,807,807,807,807,807,807,807,807,807,807,807,807,807,807,807,807,807,807,807,807,807,807,807,807,807,807,807,807,807,807,807,804,795,783,771,756,720,692,673,659,647,639,631,625,620,615,604,598,595,588,578,554,541,531,523,518,512,510,504,498,492,479,473],"ymouse":[494,494,494,494,494,494,494,494,494,494,494,494,494,494,494,494,494,494,494,494,494,494,494,494,494,494,494,494,494,494,494,494,494,494,494,494,494,494,494,495,486,468,451,436,421,391,367,349,333,318,307,294,283,275,269,253,247,243,241,236,225,216,208,199,191,180,175,165,155,143,114,99],"timestamp_mouse":[15,45,53,72,92,113,132,152,172,192,213,233,252,273,292,313,332,353,373,393,412,433,453,473,492,513,532,552,571,592,612,632,653,672,692,712,732,752,771,792,812,832,852,872,893,912,933,952,972,992,1013,1032,1052,1072,1093,1112,1133,1152,1173,1192,1212,1232,1253,1273,1293,1312,1332,1352,1373,1391,1412,1433],"xSR":741.5,"ySR":469.95,"xT1":424.9,"yT1":0,"xT2":1058.1,"yT2":0,"toosoon":0,"cond_shown":"equaldotsize","ratio_trial":500,"smaller_num":"2","larger_num":"4","correct_side":1,"subjID":"OSCARCENDALES32","gender":"0","age":"9","school":"4"},{"start_time":1552055019409,"click_time":1552055020625,"finger_time":1552055020165,"fix_duration":780.4545939021597,"trial":6,"RT":756,"MT":460,"sideResp":2,"stimulus":"img/250/equaldotsize/R/6_Ratio_250_L_6_R_24.png","xmouse":[804,804,804,804,804,804,804,804,804,804,804,804,804,804,804,804,804,804,804,804,804,804,804,804,804,804,804,804,804,804,804,804,804,804,804,805,811,849,906,1027,1056,1079,1101,1122,1167,1188,1209,1226,1239,1248,1255,1255,1255,1255,1255,1254,1251,1246,1223,1198,1112],"ymouse":[526,526,526,526,526,526,526,526,526,526,526,526,526,526,526,526,526,526,526,526,526,526,526,526,526,526,526,526,526,526,526,526,526,526,526,526,524,500,462,361,328,305,285,266,236,222,208,196,182,172,151,146,144,144,142,140,137,133,124,113,87],"timestamp_mouse":[17,35,57,77,96,116,137,157,177,196,216,236,256,277,296,316,337,357,376,397,417,436,457,477,496,517,537,557,577,596,617,636,657,676,696,716,736,756,776,797,816,836,856,876,897,916,937,956,976,996,1016,1036,1062,1077,1097,1115,1136,1157,1176,1197,1216],"xSR":741.5,"ySR":469.95,"xT1":424.9,"yT1":0,"xT2":1058.1,"yT2":0,"toosoon":0,"cond_shown":"equaldotsize","ratio_trial":250,"smaller_num":"6","larger_num":"24","correct_side":2,"subjID":"OSCARCENDALES32","gender":"0","age":"9","school":"4"},{"start_time":1552055022758,"click_time":1552055023805,"finger_time":1552055023565,"fix_duration":250,"trial":7,"RT":807,"MT":240,"sideResp":1,"stimulus":"img/250/equaldotanddens/L/5_Ratio_250_L_24_R_6.png","xmouse":[760,760,760,760,760,760,760,760,760,760,760,760,760,760,760,760,760,760,760,760,760,760,760,760,760,760,760,760,760,760,760,760,760,760,760,760,760,760,761,752,724,701,685,661,648,633,620,603,546,530,486,455,435],"ymouse":[514,514,514,514,514,514,514,514,514,514,514,514,514,514,514,514,514,514,514,514,514,514,514,514,514,514,514,514,514,514,514,514,514,514,514,514,514,514,509,475,402,369,347,309,288,269,251,231,176,166,135,112,97],"timestamp_mouse":[10,37,48,67,88,106,127,147,166,187,207,227,247,267,287,307,328,347,367,388,407,427,447,467,488,508,527,547,568,588,608,628,647,667,687,707,728,746,767,787,807,828,847,867,888,908,927,947,967,987,1007,1027,1047],"xSR":741.5,"ySR":469.95,"xT1":424.9,"yT1":0,"xT2":1058.1,"yT2":0,"toosoon":0,"cond_shown":"equaldotanddens","ratio_trial":250,"smaller_num":"6","larger_num":"24","correct_side":1,"subjID":"OSCARCENDALES32","gender":"0","age":"9","school":"4"},{"start_time":1552055026404,"click_time":1552055028226,"finger_time":1552055027225,"fix_duration":1277.6086190163749,"trial":8,"RT":821,"MT":1001,"sideResp":1,"stimulus":"img/750/equaldotsize/L/8_Ratio_750_L_4_R_3.png","xmouse":[797,797,797,797,797,797,797,797,797,797,797,797,797,797,797,797,797,797,797,797,797,797,797,797,797,797,797,797,797,797,797,797,797,797,797,797,797,797,803,808,820,862,887,913,933,957,972,972,972,972,972,972,972,969,966,957,932,914,894,871,851,810,789,772,755,738,702,681,669,662,662,661,659,658,655,649,627,598,578,560,549,537,534,531,528,527,527,527,526,526,526,523],"ymouse":[520,520,520,520,520,520,520,520,520,520,520,520,520,520,520,520,520,520,520,520,520,520,520,520,520,520,520,520,520,520,520,520,520,520,520,520,520,520,520,520,520,515,511,507,500,494,489,488,488,488,485,479,474,467,459,443,422,408,396,382,368,341,326,313,300,286,253,239,229,221,219,216,214,213,209,202,188,173,160,147,139,121,116,110,105,103,100,99,99,98,97,92],"timestamp_mouse":[10,34,41,61,81,102,122,141,162,182,201,222,242,262,282,301,322,341,362,380,400,421,442,462,481,501,521,542,561,582,602,621,641,662,681,702,721,741,761,781,801,821,841,861,881,901,922,940,961,982,1001,1022,1041,1062,1081,1101,1122,1141,1162,1181,1201,1222,1241,1261,1281,1301,1321,1340,1361,1381,1401,1422,1442,1462,1481,1501,1521,1540,1561,1582,1601,1621,1641,1662,1682,1701,1722,1741,1761,1781,1801,1822],"xSR":741.5,"ySR":469.95,"xT1":424.9,"yT1":0,"xT2":1058.1,"yT2":0,"toosoon":0,"cond_shown":"equaldotsize","ratio_trial":750,"smaller_num":"3","larger_num":"4","correct_side":1,"subjID":"OSCARCENDALES32","gender":"0","age":"9","school":"4"},{"start_time":1552055054678,"click_time":1552055056287,"finger_time":1552055055445,"fix_duration":250,"trial":9,"RT":767,"MT":842,"sideResp":1,"stimulus":"img/250/equaldotsize/L/1_Ratio_250_L_8_R_2.png","xmouse":[775,775,775,775,775,775,775,775,775,775,775,775,775,775,775,775,775,775,775,775,775,775,775,775,775,775,775,775,775,775,775,775,775,775,775,772,762,753,740,725,700,640,606,559,513,443,422,408,390,384,382,381,381,381,381,396,410,422,432,441,445,445,444,444,444,443,442,442,442,442,442,443,443,443,443,443,443,443,443,443,442],"ymouse":[532,532,532,532,532,532,532,532,532,532,532,532,532,532,532,532,532,532,532,532,532,532,532,532,532,532,532,532,532,532,532,532,532,532,532,532,526,505,460,416,367,306,279,247,219,180,171,164,156,153,151,151,151,150,149,140,135,129,123,120,117,117,116,116,113,113,111,111,111,109,106,103,102,102,102,102,102,102,102,100,99],"timestamp_mouse":[13,37,48,68,88,108,128,148,169,189,208,228,249,269,289,308,328,347,369,387,408,429,448,468,489,508,527,548,567,589,608,628,649,669,687,708,728,748,767,788,808,829,848,867,887,909,927,949,968,988,1008,1029,1048,1068,1088,1109,1127,1148,1169,1188,1208,1227,1248,1268,1288,1309,1328,1349,1369,1388,1408,1427,1447,1468,1488,1508,1529,1549,1569,1589,1609],"xSR":741.5,"ySR":469.95,"xT1":424.9,"yT1":0,"xT2":1058.1,"yT2":0,"toosoon":0,"cond_shown":"equaldotsize","ratio_trial":250,"smaller_num":"2","larger_num":"8","correct_side":1,"subjID":"OSCARCENDALES32","gender":"0","age":"9","school":"4"},{"start_time":1552055058525,"click_time":1552055059906,"finger_time":1552055059325,"fix_duration":718.0050922951644,"trial":10,"RT":800,"MT":581,"sideResp":1,"stimulus":"img/500/equaldotanddens/L/7_Ratio_500_L_10_R_5.png","xmouse":[792,792,792,792,792,792,792,792,792,792,792,792,792,792,792,792,792,792,792,792,792,792,792,792,792,792,792,792,792,792,792,792,792,792,792,792,792,792,792,796,808,823,847,861,872,872,871,870,869,866,862,853,837,816,756,699,666,623,576,470,435,417,413,411,411,411,411,414,421,439],"ymouse":[478,478,478,478,478,478,478,478,478,478,478,478,478,478,478,478,478,478,478,478,478,478,478,478,478,478,478,478,478,478,478,478,478,478,478,478,478,478,478,474,454,422,380,349,307,287,280,275,274,270,268,262,255,243,221,204,195,184,171,141,131,129,129,128,128,128,126,120,106,75],"timestamp_mouse":[10,31,42,62,81,100,120,142,161,182,200,222,241,260,281,301,321,341,360,382,402,422,442,461,481,501,521,541,561,580,601,621,641,662,680,700,721,740,761,780,800,821,841,861,881,901,920,942,960,980,1000,1022,1040,1062,1081,1100,1120,1141,1160,1180,1200,1221,1241,1261,1281,1302,1321,1341,1360,1381],"xSR":741.5,"ySR":469.95,"xT1":424.9,"yT1":0,"xT2":1058.1,"yT2":0,"toosoon":0,"cond_shown":"equaldotanddens","ratio_trial":500,"smaller_num":"5","larger_num":"10","correct_side":1,"subjID":"OSCARCENDALES32","gender":"0","age":"9","school":"4"},{"start_time":1552055063591,"click_time":1552055070667,"finger_time":1552055067925,"fix_duration":903.9133351555715,"trial":11,"RT":4334,"MT":2742,"sideResp":2,"stimulus":"img/500/equaldotsize/R/14_Ratio_500_L_5_R_10.png","xmouse":[771,771,771,771,771,771,771,771,771,771,771,771,771,771,771,771,771,771,771,771,771,771,771,771,771,771,771,771,771,771,771,771,771,771,771,771,771,771,771,771,771,771,771,771,771,771,771,771,771,771,771,771,771,771,771,771,771,771,771,771,771,771,772,773,773,773,773,773,773,773,773,773,773,773,773,773,773,773,773,773,773,773,773,773,773,773,773,773,773,773,773,773,773,773,778,797,801,801,801,801,801,801,801,801,801,801,801,801,801,801,801,801,801,801,801,801,801,801,801,801,801,801,801,801,801,801,801,801,801,801,801,801,801,801,801,801,801,801,801,801,801,801,801,801,801,801,801,801,801,801,802,808,814,820,825,828,828,829,829,830,830,830,830,830,830,830,830,830,830,830,830,830,830,830,830,830,830,830,830,830,830,830,830,830,830,830,830,830,830,830,830,830,830,830,830,830,830,830,830,830,830,830,830,830,830,830,830,830,830,830,830,830,830,832,833,839,847,850,850,850,850,850,850,850,850,850,850,850,850,850,850,850,850,850,851,851,851,852,853,854,856,864,872,877,880,882,887,888,890,890,890,890,890,890,893,896,900,902,908,912,916,921,922,923,923,924,930,944,949,951,951,951,951,951,951,951,951,951,951,951,951,951,951,951,951,951,951,951,952,952,957,963,964,964,964,964,964,964,964,964,964,964,965,965,965,965,965,969,975,983,989,992,992,992,993,995,997,1000,1001,1003,1005,1007,1010,1010,1010,1010,1010,1010,1010,1010,1010,1010,1010,1010,1010,1010,1010,1010,1010,1010,1010,1010,1010,1010,1010,1010,1010,1010,1010,1010,1010,1010,1010,1109],"ymouse":[544,544,544,544,544,544,544,544,544,544,544,544,544,544,544,544,544,544,544,544,544,544,544,544,544,544,544,544,544,544,544,544,544,544,544,544,544,544,544,544,544,544,544,544,544,544,544,544,544,544,544,544,544,544,544,544,544,544,544,544,544,544,543,543,542,542,542,542,542,542,541,540,540,540,540,540,540,540,540,540,540,540,540,540,540,540,540,540,540,540,540,540,540,540,542,553,555,555,555,555,555,555,555,555,555,555,555,555,555,555,555,555,555,555,555,555,555,555,555,555,555,555,555,555,555,555,555,555,555,555,555,555,555,555,555,555,555,555,555,555,555,555,555,555,555,555,555,555,555,555,555,552,550,547,544,542,542,541,541,541,541,541,541,541,541,541,541,541,541,541,541,541,541,541,541,541,541,541,541,541,541,541,541,541,541,541,541,541,541,541,541,541,541,541,541,541,541,541,541,541,541,541,541,541,541,541,541,541,541,541,541,541,541,538,532,513,479,467,465,463,461,454,451,449,448,446,443,442,442,442,441,440,439,439,439,439,438,435,433,431,429,408,391,378,368,357,344,332,326,322,321,320,320,318,314,310,307,305,300,298,296,293,293,293,293,293,289,279,275,274,274,274,274,274,274,274,274,274,274,274,274,274,274,274,274,274,274,274,273,272,270,265,264,264,264,263,262,262,262,262,262,262,261,261,261,261,259,254,245,240,236,233,233,233,230,227,222,216,212,201,185,163,120,98,73,44,11,11,11,11,11,11,11,11,11,11,11,11,11,11,11,11,11,11,11,11,11,11,11,11,11,11,11,9],"timestamp_mouse":[19,41,56,75,95,115,135,155,175,194,214,236,256,275,294,315,336,354,376,395,416,435,455,474,495,516,536,556,574,596,616,636,654,675,694,716,735,756,776,796,815,835,855,875,896,915,936,955,975,994,1015,1034,1055,1074,1096,1116,1136,1155,1176,1196,1216,1236,1254,1274,1294,1314,1334,1355,1374,1396,1414,1435,1456,1475,1496,1516,1535,1554,1574,1594,1614,1652,1655,1674,1695,1715,1736,1756,1775,1794,1815,1836,1855,1875,1895,1916,1934,1954,1975,1996,2015,2034,2055,2076,2095,2116,2135,2154,2175,2196,2215,2236,2254,2275,2295,2315,2335,2355,2376,2395,2416,2436,2454,2474,2496,2516,2536,2555,2575,2595,2614,2636,2654,2676,2694,2714,2734,2756,2775,2794,2814,2836,2856,2876,2894,2915,2936,2954,2975,2994,3014,3036,3054,3074,3094,3116,3136,3156,3175,3194,3214,3236,3256,3275,3296,3316,3336,3355,3375,3394,3415,3436,3456,3475,3495,3514,3536,3555,3575,3595,3615,3634,3654,3675,3696,3716,3734,3755,3774,3795,3815,3835,3856,3876,3894,3915,3935,3956,3975,3994,4015,4034,4054,4075,4096,4116,4136,4155,4176,4195,4214,4234,4256,4275,4295,4315,4334,4355,4374,4396,4415,4434,4455,4474,4494,4514,4534,4555,4575,4594,4615,4636,4654,4675,4695,4716,4735,4755,4774,4794,4815,4834,4854,4875,4894,4915,4935,4954,4974,4994,5014,5035,5056,5076,5094,5115,5135,5155,5175,5196,5214,5235,5255,5274,5295,5314,5335,5355,5375,5396,5415,5435,5454,5475,5495,5516,5535,5555,5575,5595,5614,5634,5654,5675,5694,5715,5734,5755,5775,5795,5816,5834,5854,5875,5894,5916,5936,5955,5975,5994,6014,6035,6055,6076,6096,6115,6135,6155,6174,6195,6214,6235,6255,6276,6294,6314,6334,6355,6374,6394,6414,6435,6456,6475,6494,6514,6536,6554,6574,6594,6614,6635,6655,6675,6695,6715,6734,6754,6774,6795,6815,6834,6855,6875,6895,6915,6935,6954,6974,6995,7015,7034,7054,7076],"xSR":741.5,"ySR":469.95,"xT1":424.9,"yT1":0,"xT2":1058.1,"yT2":0,"toosoon":0,"cond_shown":"equaldotsize","ratio_trial":500,"smaller_num":"5","larger_num":"10","correct_side":2,"subjID":"OSCARCENDALES32","gender":"0","age":"9","school":"4"},{"start_time":1552055089778,"click_time":1552055090785,"finger_time":1552055090167,"fix_duration":1050.2863672494905,"trial":12,"RT":389,"MT":618,"sideResp":1,"stimulus":"img/500/equaldotanddens/L/11_Ratio_500_L_12_R_6.png","xmouse":[786,786,786,786,786,786,786,786,786,786,786,786,786,786,786,786,785,784,775,770,726,672,606,540,485,485,485,485,485,485,485,485,485,485,485,485,485,484,492,515,535,539,540,540,540,540,540,540,535,530,507],"ymouse":[482,482,482,482,482,482,482,482,482,482,482,482,482,482,482,482,481,481,473,453,347,266,204,168,157,157,157,157,157,157,157,157,157,157,157,157,157,154,137,107,78,70,66,66,66,66,66,65,65,65,65],"timestamp_mouse":[13,34,48,67,88,109,128,149,169,188,207,227,249,267,288,307,327,347,368,389,409,428,447,468,489,508,527,548,567,588,609,629,648,668,688,708,728,748,769,787,807,827,848,868,889,909,929,949,968,987,1007],"xSR":741.5,"ySR":469.95,"xT1":424.9,"yT1":0,"xT2":1058.1,"yT2":0,"toosoon":0,"cond_shown":"equaldotanddens","ratio_trial":500,"smaller_num":"6","larger_num":"12","correct_side":1,"subjID":"OSCARCENDALES32","gender":"0","age":"9","school":"4"},{"start_time":1552055096186,"click_time":1552055097787,"finger_time":1552055096925,"fix_duration":578.8933862392421,"trial":13,"RT":739,"MT":862,"sideResp":2,"stimulus":"img/500/randomdotsizeEA/R/6_Ratio_500_L_9_R_18.png","xmouse":[803,803,803,803,803,803,803,803,803,803,803,803,803,803,803,803,803,803,803,803,803,803,803,803,803,803,803,803,803,803,804,806,811,818,835,839,847,852,856,859,872,882,893,913,943,961,978,990,1000,1013,1024,1033,1042,1045,1047,1052,1055,1056,1056,1056,1057,1058,1059,1060,1062,1063,1064,1064,1065,1065,1068,1068,1070,1071,1073,1075,1078,1079,1081,1084],"ymouse":[543,543,543,543,543,543,543,543,543,543,543,543,543,543,543,543,543,543,543,543,543,543,543,543,543,543,543,543,543,543,543,541,530,519,488,471,453,440,428,417,381,362,344,316,281,265,253,244,238,228,222,218,215,215,215,209,204,199,195,191,187,182,175,169,150,144,140,138,137,136,131,129,126,124,117,113,109,106,101,93],"timestamp_mouse":[21,47,61,80,99,121,139,161,180,200,220,239,261,281,300,320,340,359,381,400,419,440,460,480,500,519,539,560,581,600,620,640,659,680,699,721,739,761,780,800,819,839,860,881,900,920,940,960,979,1000,1019,1040,1060,1080,1100,1120,1139,1160,1179,1199,1219,1239,1259,1279,1300,1320,1339,1359,1380,1399,1419,1439,1460,1480,1500,1519,1541,1560,1579,1601],"xSR":741.5,"ySR":469.95,"xT1":424.9,"yT1":0,"xT2":1058.1,"yT2":0,"toosoon":0,"cond_shown":"randomdotsizeEA","ratio_trial":500,"smaller_num":"9","larger_num":"18","correct_side":2,"subjID":"OSCARCENDALES32","gender":"0","age":"9","school":"4"},{"start_time":1552055100780,"click_time":1552055120965,"finger_time":1552055120027,"fix_duration":1272.7815135748551,"trial":14,"RT":19247,"MT":938,"sideResp":2,"stimulus":"img/250/randomdotsizeEA/R/4_Ratio_250_L_3_R_12.png","xmouse":[768,768,768,768,768,768,768,768,768,768,768,768,768,768,768,768,768,768,768,768,768,768,768,768,768,768,768,768,768,768,768,768,768,768,768,768,768,768,768,768,768,768,768,768,768,768,768,768,768,768,768,768,768,768,768,768,768,768,768,768,768,768,768,768,768,768,768,768,768,768,768,768,768,768,768,768,768,768,768,768,768,768,768,768,768,768,768,768,768,768,768,768,768,768,768,768,768,768,768,768,768,768,768,768,768,768,768,768,768,768,768,768,768,768,768,768,768,768,768,768,768,768,768,768,768,768,768,768,768,768,768,768,768,768,768,768,768,768,768,768,768,768,768,768,768,768,768,768,768,768,768,768,768,768,768,768,768,768,768,768,768,768,768,768,768,768,768,768,768,768,768,768,768,768,768,768,768,768,768,768,768,768,768,768,768,768,768,768,768,768,768,768,768,768,768,768,768,768,768,768,768,768,768,768,768,768,768,768,768,768,768,768,768,768,768,768,768,768,768,768,768,768,768,768,768,768,768,768,768,768,768,768,768,768,768,768,768,768,768,768,768,768,768,768,768,768,768,768,768,768,768,768,768,768,768,768,768,768,768,768,768,768,768,768,768,768,768,768,768,768,768,768,768,768,768,768,768,768,768,768,768,768,768,768,768,768,768,768,768,768,768,768,768,768,768,768,768,768,768,768,768,768,768,768,768,768,768,768,768,768,768,768,768,768,768,768,768,768,768,768,768,768,768,768,768,768,768,768,768,768,768,768,768,768,768,768,768,768,768,768,768,768,768,768,768,768,768,768,768,768,768,768,768,768,768,768,768,768,768,768,768,768,768,768,768,768,768,768,768,768,768,768,768,768,768,768,768,768,768,768,768,768,768,768,768,768,768,768,768,768,768,768,768,768,768,768,768,768,768,768,768,768,768,768,768,768,768,768,768,768,768,768,768,768,768,768,768,768,768,768,768,768,768,768,768,768,768,768,768,768,768,768,768,768,768,768,768,768,768,768,768,768,768,768,768,768,768,768,768,768,768,768,768,768,768,768,768,768,768,768,768,768,768,768,768,768,768,768,768,768,768,768,768,768,768,768,768,768,768,768,768,768,768,768,768,768,768,768,768,768,768,768,768,768,768,768,768,768,768,768,768,768,768,768,768,768,768,768,768,768,768,768,768,768,768,768,768,768,768,768,768,768,768,768,768,768,768,768,768,768,768,768,768,768,768,768,768,768,768,768,768,768,768,768,768,768,768,768,768,768,768,768,768,768,768,768,768,768,768,768,768,768,768,768,768,768,768,768,768,768,768,768,768,768,768,768,768,768,768,768,768,768,768,768,768,768,768,768,768,768,768,768,768,768,768,768,768,768,768,768,768,768,768,768,768,768,768,768,768,768,768,768,768,768,768,768,768,768,768,768,768,768,768,768,768,768,768,768,768,768,768,768,768,768,768,768,768,768,768,768,768,768,768,768,768,768,768,768,768,768,768,768,768,768,768,768,768,768,768,768,768,768,768,768,768,768,768,768,768,768,768,768,768,768,768,768,768,768,768,768,768,768,768,768,768,768,768,768,768,768,768,768,768,768,768,768,768,768,768,768,768,768,768,768,768,768,768,768,768,768,768,768,768,768,768,768,768,768,768,768,768,768,768,768,768,768,768,768,768,768,768,768,768,768,768,768,768,768,768,768,768,768,768,768,768,768,768,768,768,768,768,768,768,768,768,768,768,768,768,768,768,768,768,768,768,768,768,768,768,768,768,768,768,768,768,768,768,768,768,768,768,768,768,768,768,768,768,768,768,768,768,768,768,768,768,768,768,768,768,768,768,768,768,768,768,768,768,768,768,768,768,768,768,768,768,768,768,768,768,768,768,768,768,768,768,768,768,768,768,768,768,768,768,768,768,768,768,768,768,768,768,768,768,768,768,768,768,768,768,768,768,768,768,768,768,768,768,768,768,768,768,768,768,768,768,768,768,768,768,768,768,768,768,768,768,768,768,768,768,768,768,768,768,768,768,768,768,768,768,768,768,768,768,768,768,768,768,768,768,768,768,768,768,768,768,768,768,768,768,768,768,768,768,768,768,768,768,768,768,768,768,768,768,768,768,768,768,768,768,768,768,768,768,768,768,768,768,768,768,768,768,768,768,768,768,768,768,768,768,768,768,768,768,770,770,770,770,770,770,770,771,770,764,762,761,760,760,760,760,760,760,760,760,760,760,760,760,760,760,760,760,760,760,760,760,760,761,769,787,798,814,838,869,954,987,1002,1002,1002,1002,1002,1002,1002,1002,1002,1002,1002,1002,1002,1002,1067],"ymouse":[517,518,519,520,521,523,524,525,525,529,532,540,540,540,540,540,540,540,540,540,540,540,540,540,540,540,540,540,540,540,540,540,540,540,540,540,540,540,540,540,540,540,540,540,540,540,540,540,540,540,540,540,540,540,540,540,540,540,540,540,540,540,540,540,540,540,540,540,540,540,540,540,540,540,540,540,540,540,540,540,540,540,540,540,540,540,540,540,540,540,540,540,540,540,540,540,540,540,540,540,540,540,540,540,540,540,540,540,540,540,540,540,540,540,540,540,540,540,540,540,540,540,540,540,540,540,540,540,540,540,540,540,540,540,540,540,540,540,540,540,540,540,540,540,540,540,540,540,540,540,540,540,540,540,540,540,540,540,540,540,540,540,540,540,540,540,540,540,540,540,540,540,540,540,540,540,540,540,540,540,540,540,540,540,540,540,540,540,540,540,540,540,540,540,540,540,540,540,540,540,540,540,540,540,540,540,540,540,540,540,540,540,540,540,540,540,540,540,540,540,540,540,540,540,540,540,540,540,540,540,540,540,540,540,540,540,540,540,540,540,540,540,540,540,540,540,540,540,540,540,540,540,540,540,540,540,540,540,540,540,540,540,540,540,540,540,540,540,540,540,540,540,540,540,540,540,540,540,540,540,540,540,540,540,540,540,540,540,540,540,540,540,540,540,540,540,540,540,540,540,540,540,540,540,540,540,540,540,540,540,540,540,540,540,540,540,540,540,540,540,540,540,540,540,540,540,540,540,540,540,540,540,540,540,540,540,540,540,540,540,540,540,540,540,540,540,540,540,540,540,540,540,540,540,540,540,540,540,540,540,540,540,540,540,540,540,540,540,540,540,540,540,540,540,540,540,540,540,540,540,540,540,540,540,540,540,540,540,540,540,540,540,540,540,540,540,540,540,540,540,540,540,540,540,540,540,540,540,540,540,540,540,540,540,540,540,540,540,540,540,540,540,540,540,540,540,540,540,540,540,540,540,540,540,540,540,540,540,540,540,540,540,540,540,540,540,540,540,540,540,540,540,540,540,540,540,540,540,540,540,540,540,540,540,540,540,540,540,540,540,540,540,540,540,540,540,540,540,540,540,540,540,540,540,540,540,540,540,540,540,540,540,540,540,540,540,540,540,540,540,540,540,540,540,540,540,540,540,540,540,540,540,540,540,540,540,540,540,540,540,540,540,540,540,540,540,540,540,540,540,540,540,540,540,540,540,540,540,540,540,540,540,540,540,540,540,540,540,540,540,540,540,540,540,540,540,540,540,540,540,540,540,540,540,540,540,540,540,540,540,540,540,540,540,540,540,540,540,540,540,540,540,540,540,540,540,540,540,540,540,540,540,540,540,540,540,540,540,540,540,540,540,540,540,540,540,540,540,540,540,540,540,540,540,540,540,540,540,540,540,540,540,540,540,540,540,540,540,540,540,540,540,540,540,540,540,540,540,540,540,540,540,540,540,540,540,540,540,540,540,540,540,540,540,540,540,540,540,540,540,540,540,540,540,540,540,540,540,540,540,540,540,540,540,540,540,540,540,540,540,540,540,540,540,540,540,540,540,540,540,540,540,540,540,540,540,540,540,540,540,540,540,540,540,540,540,540,540,540,540,540,540,540,540,540,540,540,540,540,540,540,540,540,540,540,540,540,540,540,540,540,540,540,540,540,540,540,540,540,540,540,540,540,540,540,540,540,540,540,540,540,540,540,540,540,540,540,540,540,540,540,540,540,540,540,540,540,540,540,540,540,540,540,540,540,540,540,540,540,540,540,540,540,540,540,540,540,540,540,540,540,540,540,540,540,540,540,540,540,540,540,540,540,540,540,540,540,540,540,540,540,540,540,540,540,540,540,540,540,540,540,540,540,540,540,540,540,540,540,540,540,540,540,540,540,540,540,540,540,540,540,540,540,540,540,540,540,540,540,540,540,540,540,540,540,540,540,540,540,540,540,540,540,540,540,540,540,540,540,540,540,540,540,540,540,540,540,540,540,540,540,540,540,540,540,540,540,540,540,540,540,540,540,540,540,540,540,540,540,540,540,540,540,540,540,540,540,540,540,540,540,540,540,540,540,540,540,540,540,540,540,540,540,540,540,540,540,540,540,540,540,540,540,540,540,540,540,540,540,540,540,540,540,540,540,540,540,540,540,540,540,540,540,542,543,543,543,543,543,543,543,550,573,589,601,606,608,608,608,608,608,608,608,608,608,608,608,608,608,608,608,608,608,608,608,608,604,593,540,497,445,381,306,98,39,20,20,20,20,20,20,20,20,20,20,20,20,20,20,32],"timestamp_mouse":[13,39,45,67,86,105,126,147,166,186,206,225,245,267,285,305,326,347,366,387,405,427,445,465,485,507,527,545,565,586,605,627,645,665,685,705,725,745,765,787,807,826,845,865,887,906,925,947,965,986,1007,1027,1045,1065,1085,1105,1127,1146,1166,1185,1207,1225,1246,1265,1287,1307,1327,1345,1367,1386,1406,1425,1447,1465,1487,1507,1526,1546,1567,1585,1606,1627,1646,1667,1685,1707,1725,1747,1766,1786,1805,1827,1846,1866,1885,1905,1926,1946,1967,1986,2005,2025,2045,2067,2087,2106,2125,2147,2167,2187,2205,2227,2245,2265,2287,2305,2325,2346,2366,2386,2405,2427,2447,2467,2486,2506,2527,2547,2566,2586,2607,2627,2646,2665,2685,2707,2727,2745,2766,2785,2807,2825,2846,2867,2887,2906,2926,2945,2965,2985,3006,3026,3046,3066,3086,3105,3126,3146,3165,3187,3205,3225,3246,3266,3287,3306,3326,3345,3367,3387,3407,3425,3446,3466,3486,3506,3525,3551,3567,3586,3606,3625,3646,3665,3685,3707,3726,3745,3765,3787,3805,3826,3845,3865,3885,3906,3925,3947,3966,3986,4006,4026,4045,4066,4085,4105,4126,4147,4166,4186,4207,4226,4246,4266,4285,4307,4326,4346,4366,4387,4407,4425,4446,4465,4487,4507,4525,4545,4567,4586,4605,4625,4645,4667,4687,4706,4726,4747,4765,4787,4806,4825,4847,4865,4886,4905,4926,4945,4966,4986,5006,5025,5046,5066,5085,5107,5127,5146,5166,5185,5205,5226,5247,5267,5285,5305,5325,5345,5367,5387,5405,5425,5446,5467,5486,5505,5526,5545,5565,5587,5606,5626,5646,5667,5685,5705,5726,5746,5767,5787,5805,5826,5845,5867,5887,5906,5926,5945,5966,5986,6007,6026,6046,6067,6085,6106,6127,6147,6166,6187,6207,6226,6247,6266,6286,6306,6326,6345,6366,6387,6406,6426,6446,6465,6487,6507,6525,6547,6567,6586,6606,6627,6647,6667,6685,6707,6726,6745,6767,6786,6807,6826,6846,6866,6886,6906,6925,6946,6967,6986,7006,7027,7047,7066,7086,7107,7126,7146,7167,7185,7205,7227,7247,7265,7286,7307,7325,7345,7367,7386,7405,7425,7446,7467,7485,7506,7527,7547,7566,7585,7605,7626,7647,7666,7687,7705,7725,7747,7766,7787,7806,7826,7846,7865,7887,7907,7926,7945,7967,7987,8005,8026,8046,8067,8086,8105,8127,8145,8165,8186,8207,8226,8245,8267,8287,8306,8325,8346,8365,8386,8407,8425,8446,8467,8485,8506,8527,8546,8566,8587,8605,8626,8646,8666,8685,8706,8727,8746,8765,8787,8806,8826,8847,8866,8886,8906,8927,8945,8965,8987,9005,9027,9046,9067,9085,9107,9127,9146,9166,9185,9207,9227,9247,9266,9286,9306,9327,9347,9365,9386,9405,9427,9447,9465,9485,9507,9525,9546,9565,9587,9607,9625,9647,9665,9686,9707,9726,9746,9766,9786,9807,9826,9847,9866,9885,9907,9925,9946,9966,9986,10007,10026,10047,10065,10086,10107,10126,10147,10167,10186,10206,10227,10246,10267,10286,10306,10326,10347,10366,10386,10406,10426,10447,10466,10486,10506,10526,10547,10566,10586,10605,10626,10647,10666,10686,10707,10726,10745,10766,10786,10805,10826,10845,10866,10887,10906,10925,10945,10966,10987,11006,11025,11047,11067,11085,11105,11126,11145,11166,11187,11207,11225,11245,11266,11287,11306,11326,11347,11365,11385,11405,11425,11447,11465,11485,11506,11527,11546,11565,11587,11606,11625,11645,11667,11686,11705,11727,11745,11765,11785,11806,11826,11845,11867,11887,11905,11926,11945,11967,11985,12007,12027,12045,12065,12086,12107,12125,12145,12167,12185,12206,12226,12246,12267,12285,12307,12326,12345,12367,12386,12405,12426,12446,12466,12485,12506,12526,12545,12566,12587,12605,12625,12646,12667,12687,12706,12727,12745,12766,12787,12806,12827,12846,12866,12887,12905,12926,12946,12967,12985,13005,13027,13046,13066,13085,13107,13125,13146,13167,13186,13207,13227,13246,13266,13287,13307,13327,13345,13367,13386,13406,13427,13445,13467,13487,13506,13526,13545,13565,13586,13606,13625,13646,13665,13687,13707,13726,13746,13766,13785,13805,13826,13847,13867,13885,13905,13926,13946,13967,13986,14007,14025,14046,14066,14087,14106,14126,14146,14166,14185,14206,14226,14246,14265,14287,14307,14327,14345,14367,14385,14405,14427,14446,14466,14486,14506,14526,14545,14567,14586,14607,14626,14645,14665,14686,14706,14726,14746,14765,14787,14807,14826,14846,14866,14887,14907,14925,14947,14965,14986,15007,15026,15047,15067,15086,15107,15127,15146,15166,15186,15205,15225,15245,15267,15286,15307,15326,15347,15367,15387,15407,15427,15445,15465,15485,15505,15527,15546,15565,15586,15606,15627,15646,15667,15686,15706,15725,15747,15765,15787,15805,15826,15847,15865,15887,15907,15925,15945,15978,15986,16005,16026,16046,16067,16086,16105,16125,16147,16167,16185,16206,16227,16246,16267,16287,16306,16326,16345,16366,16387,16407,16426,16446,16465,16487,16506,16527,16546,16567,16585,16605,16627,16645,16665,16686,16707,16726,16745,16766,16787,16807,16826,16846,16865,16887,16905,16926,16947,16967,16986,17006,17026,17047,17066,17085,17106,17127,17146,17166,17187,17207,17226,17246,17266,17286,17307,17325,17346,17367,17385,17407,17426,17446,17465,17487,17505,17525,17546,17567,17587,17607,17626,17647,17665,17685,17707,17726,17746,17767,17785,17806,17826,17846,17867,17885,17906,17927,17946,17965,17985,18007,18027,18046,18067,18086,18106,18125,18146,18167,18185,18206,18225,18247,18267,18286,18306,18325,18347,18367,18385,18405,18427,18445,18467,18487,18505,18526,18546,18567,18585,18606,18625,18647,18667,18686,18706,18726,18747,18765,18787,18805,18826,18846,18866,18886,18907,18927,18945,18967,18987,19006,19027,19045,19065,19085,19107,19126,19147,19165,19186,19206,19225,19247,19266,19286,19307,19326,19345,19367,19387,19406,19426,19446,19466,19486,19507,19527,19547,19566,19587,19606,19627,19649,19665,19687,19706,19725,19745,19767,19787,19806,19827,19846,19865,19886,19906,19925,19945,19966,19986,20006,20025,20045,20065,20086,20105,20126,20147,20165,20185],"xSR":741.5,"ySR":469.95,"xT1":424.9,"yT1":0,"xT2":1058.1,"yT2":0,"toosoon":0,"cond_shown":"randomdotsizeEA","ratio_trial":250,"smaller_num":"3","larger_num":"12","correct_side":2,"subjID":"OSCARCENDALES32","gender":"0","age":"9","school":"4"},{"start_time":1552055127994,"click_time":1552055129165,"finger_time":1552055128845,"fix_duration":1066.8041004358047,"trial":15,"RT":851,"MT":320,"sideResp":2,"stimulus":"img/500/randomdotsizeEA/L/8_Ratio_500_L_8_R_4.png","xmouse":[749,749,749,749,749,749,749,749,749,749,749,749,749,749,749,749,749,749,749,749,749,749,749,749,749,749,749,749,749,749,749,749,749,749,749,749,749,749,749,746,743,742,740,740,740,741,747,758,789,804,825,838,853,889,914,953,996,1041,1107],"ymouse":[521,521,521,521,521,521,521,521,521,521,521,521,521,521,521,521,521,521,521,521,521,521,521,521,521,521,521,521,521,521,521,521,521,521,521,521,521,519,513,506,502,498,493,483,477,467,453,436,394,377,353,338,324,296,277,246,210,163,85],"timestamp_mouse":[14,38,52,72,91,111,133,151,172,191,213,231,252,272,292,312,332,351,372,392,413,432,453,472,493,511,533,552,573,592,613,632,653,673,692,712,732,752,772,793,812,832,851,871,891,911,931,951,972,992,1012,1032,1053,1071,1092,1112,1133,1152,1171],"xSR":741.5,"ySR":469.95,"xT1":424.9,"yT1":0,"xT2":1058.1,"yT2":0,"toosoon":0,"cond_shown":"randomdotsizeEA","ratio_trial":500,"smaller_num":"4","larger_num":"8","correct_side":1,"subjID":"OSCARCENDALES32","gender":"0","age":"9","school":"4"},{"start_time":1552055132958,"click_time":1552055136267,"finger_time":1552055135527,"fix_duration":250,"trial":16,"RT":2569,"MT":740,"sideResp":2,"stimulus":"img/900/equaldotanddens/R/6_Ratio_900_L_9_R_10.png","xmouse":[786,786,786,786,786,786,786,786,786,786,786,786,786,786,786,786,786,786,786,786,786,786,786,786,786,786,786,786,786,786,786,786,786,786,786,786,786,786,786,786,786,786,786,786,786,786,786,786,786,786,786,786,786,786,786,786,786,786,786,786,786,786,786,786,786,786,786,786,786,786,786,786,786,786,786,786,786,786,786,786,786,786,786,786,786,786,786,786,786,786,786,786,786,786,786,786,786,786,786,786,786,786,786,786,786,786,786,786,786,786,786,786,786,786,786,786,786,786,786,786,786,786,790,792,797,802,814,835,842,864,868,877,888,901,909,911,911,912,922,937,955,986,998,1008,1016,1022,1026,1027,1027,1027,1027,1027,1027,1029,1032,1033,1033,1032,1030,1030,1033,1038,1047,1058,1071,1084],"ymouse":[539,539,539,539,539,539,539,539,539,539,539,539,539,539,539,539,539,539,539,539,539,539,539,539,539,539,539,539,539,539,539,539,539,539,539,539,539,539,539,539,539,539,539,539,539,539,539,539,539,539,539,539,539,539,539,539,539,539,539,539,539,539,539,539,539,539,539,539,539,539,539,539,539,539,539,539,539,539,539,539,539,539,539,539,539,539,539,539,539,539,539,539,539,539,539,539,539,539,539,539,539,539,539,539,539,539,539,539,539,539,539,539,539,539,539,539,539,539,539,539,539,539,531,526,516,507,489,472,467,451,446,431,423,416,410,405,391,382,365,352,340,309,289,273,259,248,239,239,239,239,238,226,215,203,189,179,170,164,159,154,144,139,129,117,102,85],"timestamp_mouse":[8,28,47,67,87,107,127,147,169,187,207,227,248,269,287,308,328,348,368,388,408,428,448,468,488,507,529,549,568,587,608,629,649,668,689,709,729,748,768,788,808,829,848,869,889,909,928,947,969,989,1008,1027,1049,1069,1087,1109,1129,1148,1168,1189,1209,1228,1247,1269,1289,1308,1329,1348,1369,1389,1409,1427,1448,1469,1487,1508,1528,1548,1567,1587,1609,1629,1647,1669,1688,1709,1728,1748,1769,1789,1807,1829,1849,1868,1887,1909,1928,1949,1967,1989,2009,2028,2048,2067,2088,2109,2128,2147,2168,2189,2207,2227,2248,2269,2288,2307,2329,2347,2369,2388,2409,2429,2448,2467,2487,2507,2527,2548,2569,2588,2607,2628,2647,2667,2687,2708,2728,2747,2768,2787,2808,2828,2849,2868,2888,2908,2927,2948,2969,2988,3009,3028,3048,3068,3088,3108,3127,3148,3168,3188,3209,3229,3248,3268,3287,3308],"xSR":741.5,"ySR":469.95,"xT1":424.9,"yT1":0,"xT2":1058.1,"yT2":0,"toosoon":0,"cond_shown":"equaldotanddens","ratio_trial":900,"smaller_num":"9","larger_num":"10","correct_side":2,"subjID":"OSCARCENDALES32","gender":"0","age":"9","school":"4"},{"start_time":1552055213658,"click_time":1552055215005,"finger_time":1552055214465,"fix_duration":1490.951915491223,"trial":17,"RT":807,"MT":540,"sideResp":2,"stimulus":"img/250/equaldotsize/R/10_Ratio_250_L_4_R_16.png","xmouse":[814,814,812,807,801,800,800,800,800,800,800,800,800,800,800,800,800,800,800,800,800,800,800,800,800,800,800,800,800,800,800,800,800,800,800,800,800,799,799,801,804,807,811,815,821,837,853,865,883,899,933,950,970,988,1012,1083,1126,1137,1141,1141,1141,1141,1141,1141,1141,1133,1127,1123],"ymouse":[501,501,501,502,503,504,504,504,504,504,504,504,504,504,504,504,504,504,504,504,504,504,504,504,504,504,504,504,504,504,504,504,504,504,504,504,504,503,500,492,468,456,444,436,427,405,385,372,357,345,322,309,294,277,257,194,154,134,121,116,116,116,116,116,116,109,104,99],"timestamp_mouse":[24,28,53,67,88,108,127,148,169,187,208,228,248,268,287,307,328,348,367,387,407,429,447,467,489,508,528,547,567,587,607,628,649,668,687,708,728,747,767,787,807,827,848,867,888,907,928,948,967,988,1008,1027,1047,1067,1087,1108,1127,1147,1168,1188,1207,1228,1247,1267,1287,1308,1327,1347],"xSR":741.5,"ySR":469.95,"xT1":424.9,"yT1":0,"xT2":1058.1,"yT2":0,"toosoon":0,"cond_shown":"equaldotsize","ratio_trial":250,"smaller_num":"4","larger_num":"16","correct_side":2,"subjID":"OSCARCENDALES32","gender":"0","age":"9","school":"4"},{"start_time":1552055233457,"click_time":1552055234405,"finger_time":1552055234105,"fix_duration":250,"trial":18,"RT":648,"MT":300,"sideResp":1,"stimulus":"img/500/equaldotsize/L/10_Ratio_500_L_4_R_2.png","xmouse":[757,757,757,757,757,757,757,757,757,757,757,757,757,757,757,757,757,757,757,757,757,758,760,760,760,760,760,760,760,760,760,760,740,708,667,621,561,537,531,529,528,528,528,528,528,528,528,521],"ymouse":[496,496,496,500,502,503,503,503,503,503,503,503,503,503,503,503,503,503,503,503,503,503,503,503,503,503,503,503,503,503,500,496,451,393,321,241,125,62,47,41,40,40,40,40,40,40,39,46],"timestamp_mouse":[19,29,49,68,90,109,128,148,168,188,208,230,248,268,289,309,328,348,369,388,409,428,448,468,490,510,530,549,568,588,609,628,648,668,690,708,729,748,768,788,808,829,849,869,888,908,930,948],"xSR":741.5,"ySR":469.95,"xT1":424.9,"yT1":0,"xT2":1058.1,"yT2":0,"toosoon":0,"cond_shown":"equaldotsize","ratio_trial":500,"smaller_num":"2","larger_num":"4","correct_side":1,"subjID":"OSCARCENDALES32","gender":"0","age":"9","school":"4"},{"start_time":1552055238077,"click_time":1552055240226,"finger_time":1552055238566,"fix_duration":250,"trial":19,"RT":489,"MT":1660,"sideResp":2,"stimulus":"img/750/equaldotanddens/R/4_Ratio_750_L_15_R_20.png","xmouse":[766,766,766,766,766,766,766,766,766,766,766,766,766,766,766,766,766,766,766,766,766,768,771,773,780,790,835,864,892,910,925,933,939,946,955,966,989,1000,1010,1019,1027,1040,1043,1048,1051,1057,1063,1071,1074,1074,1074,1074,1074,1074,1074,1074,1068,1033,1001,947,884,803,777,746,730,711,680,665,651,643,641,641,641,641,640,639,631,628,627,625,625,625,627,646,681,714,769,799,827,856,879,899,903,906,906,906,907,908,912,915,922,931,958,988,1012,1037,1057,1081],"ymouse":[491,491,491,491,491,491,491,491,491,491,491,491,491,491,491,491,491,491,491,491,490,487,480,476,468,458,422,400,381,368,359,353,348,341,332,322,299,288,276,262,249,228,221,211,206,197,188,175,169,167,167,167,167,167,166,166,166,165,167,173,176,176,176,176,178,180,189,193,197,197,197,197,197,197,197,191,173,166,163,161,161,160,156,150,140,135,126,121,118,111,105,103,102,101,101,101,101,100,99,98,97,96,92,88,86,84,83,79],"timestamp_mouse":[14,29,48,69,90,109,129,148,168,188,208,229,249,269,289,308,329,348,368,390,409,429,449,468,489,510,530,548,568,588,608,629,649,669,688,710,728,750,768,789,809,829,848,868,889,909,928,948,968,990,1008,1028,1048,1068,1088,1109,1128,1148,1169,1188,1208,1230,1249,1268,1288,1309,1330,1348,1368,1389,1408,1428,1448,1469,1488,1508,1530,1548,1568,1588,1609,1630,1648,1668,1688,1708,1729,1748,1768,1788,1809,1829,1848,1870,1888,1909,1929,1949,1968,1989,2008,2029,2048,2068,2090,2110,2130,2149],"xSR":741.5,"ySR":469.95,"xT1":424.9,"yT1":0,"xT2":1058.1,"yT2":0,"toosoon":0,"cond_shown":"equaldotanddens","ratio_trial":750,"smaller_num":"15","larger_num":"20","correct_side":2,"subjID":"OSCARCENDALES32","gender":"0","age":"9","school":"4"},{"start_time":1552055265305,"click_time":1552055266668,"finger_time":1552055265886,"fix_duration":1317.9601215761127,"trial":20,"RT":581,"MT":782,"sideResp":1,"stimulus":"img/250/randomdotsizeEA/L/3_Ratio_250_L_8_R_2.png","xmouse":[788,788,788,788,788,788,788,788,788,788,788,788,788,788,788,788,788,788,788,788,788,788,788,788,788,789,788,784,777,759,747,727,711,678,661,647,636,625,607,599,593,590,587,584,578,574,570,570,569,569,569,569,569,569,569,566,552,542,536,531,531,531,531,531,512,496,478,455,426],"ymouse":[507,507,507,507,507,507,507,507,507,507,507,507,507,507,507,507,507,507,507,507,507,507,507,507,507,502,499,489,476,449,433,409,394,358,336,315,296,276,239,222,203,192,186,179,171,167,163,162,162,162,162,162,162,162,162,162,159,155,153,149,149,149,149,149,138,128,117,106,89],"timestamp_mouse":[12,21,43,63,81,101,122,141,162,182,200,221,241,262,281,301,321,342,362,382,401,422,441,462,482,501,522,542,562,581,601,621,641,663,681,702,721,742,763,780,802,821,842,862,881,901,922,942,962,982,1002,1021,1040,1061,1081,1101,1121,1142,1161,1181,1202,1221,1240,1262,1281,1301,1322,1341,1363],"xSR":741.5,"ySR":469.95,"xT1":424.9,"yT1":0,"xT2":1058.1,"yT2":0,"toosoon":0,"cond_shown":"randomdotsizeEA","ratio_trial":250,"smaller_num":"2","larger_num":"8","correct_side":1,"subjID":"OSCARCENDALES32","gender":"0","age":"9","school":"4"},{"start_time":1552055268995,"click_time":1552055270386,"finger_time":1552055269727,"fix_duration":1145.5561347125606,"trial":21,"RT":732,"MT":659,"sideResp":2,"stimulus":"img/750/randomdotsizeEA/L/8_Ratio_750_L_4_R_3.png","xmouse":[757,757,757,757,757,757,757,757,757,757,757,757,757,757,757,757,757,757,757,757,757,757,757,757,757,757,757,757,757,757,757,757,757,757,781,805,842,877,906,951,979,1002,1023,1043,1062,1072,1081,1089,1092,1097,1099,1100,1100,1100,1100,1100,1100,1100,1100,1100,1100,1100,1100,1100,1098,1097,1097,1097,1097,1097],"ymouse":[510,510,510,510,510,510,510,510,510,510,510,510,510,510,510,510,510,510,510,510,510,510,510,510,510,510,510,510,510,510,510,510,510,510,504,495,481,464,448,411,386,359,333,303,266,249,232,219,209,196,190,185,180,175,171,168,163,158,154,148,148,147,147,146,140,132,121,112,103,97],"timestamp_mouse":[13,37,51,70,92,112,130,151,172,191,212,232,252,272,292,312,331,351,371,391,411,431,452,472,491,511,532,551,571,591,612,631,652,670,691,711,732,751,771,791,811,831,851,871,891,911,931,951,972,991,1011,1031,1052,1071,1091,1113,1131,1151,1171,1191,1211,1231,1252,1272,1291,1311,1332,1351,1372,1391],"xSR":741.5,"ySR":469.95,"xT1":424.9,"yT1":0,"xT2":1058.1,"yT2":0,"toosoon":0,"cond_shown":"randomdotsizeEA","ratio_trial":750,"smaller_num":"3","larger_num":"4","correct_side":1,"subjID":"OSCARCENDALES32","gender":"0","age":"9","school":"4"},{"start_time":1552055272479,"click_time":1552055274506,"finger_time":1552055273247,"fix_duration":1150.2912467599167,"trial":22,"RT":768,"MT":1259,"sideResp":2,"stimulus":"img/500/randomdotsizeEA/R/6_Ratio_500_L_9_R_18.png","xmouse":[810,810,810,810,810,810,810,810,810,810,810,810,810,810,810,810,810,810,810,810,810,810,810,810,810,810,810,810,810,810,810,810,810,809,809,821,828,832,839,840,841,841,839,837,832,827,812,795,786,762,746,716,703,693,683,672,661,657,657,657,657,657,657,658,677,730,920,1104,1233,1339,1407,1438,1438,1438,1438,1438,1435,1428,1422,1416,1400,1390,1380,1370,1359,1346,1309,1250,1209,1161,1141,1131,1131,1131,1131,1131,1131,1131,1131,1131,1131,1123],"ymouse":[556,556,556,556,556,556,556,556,556,556,556,556,556,556,556,556,556,556,556,556,556,556,556,556,556,556,556,556,556,556,556,556,556,556,553,523,501,475,436,416,388,377,367,358,349,341,321,304,298,279,265,232,217,206,196,188,179,176,176,176,176,176,176,176,176,176,177,195,207,209,209,208,208,208,208,208,204,200,196,195,192,190,190,188,186,183,174,159,145,126,113,103,103,103,103,103,103,103,103,103,103,99],"timestamp_mouse":[19,36,46,68,87,107,126,147,167,186,208,227,247,268,288,307,327,348,368,387,408,428,448,468,488,507,527,546,568,587,606,628,647,668,687,707,728,748,768,787,809,827,847,867,887,908,927,947,967,987,1007,1027,1047,1067,1088,1107,1127,1147,1168,1187,1209,1227,1247,1267,1287,1307,1328,1348,1367,1387,1407,1427,1448,1468,1488,1507,1527,1547,1567,1588,1609,1627,1647,1668,1687,1709,1727,1747,1767,1788,1807,1827,1847,1868,1888,1907,1927,1948,1968,1988,2007,2027],"xSR":741.5,"ySR":469.95,"xT1":424.9,"yT1":0,"xT2":1058.1,"yT2":0,"toosoon":0,"cond_shown":"randomdotsizeEA","ratio_trial":500,"smaller_num":"9","larger_num":"18","correct_side":2,"subjID":"OSCARCENDALES32","gender":"0","age":"9","school":"4"},{"start_time":1552055276079,"click_time":1552055277746,"finger_time":1552055277106,"fix_duration":250,"trial":23,"RT":1027,"MT":640,"sideResp":1,"stimulus":"img/500/randomdotsizeEA/L/8_Ratio_500_L_8_R_4.png","xmouse":[782,782,782,782,782,782,782,782,782,782,782,782,782,782,782,782,782,782,782,782,781,781,779,772,770,770,770,770,770,770,770,770,770,770,770,770,770,770,770,770,770,770,770,770,770,770,770,770,770,770,770,765,741,724,704,684,643,631,624,624,624,624,624,624,624,624,624,624,624,551,548,548,548,548,548,548,548,548,548,548,548,532,502,472],"ymouse":[480,480,480,480,480,480,480,480,480,480,480,480,480,480,480,480,480,480,480,480,480,480,480,479,478,478,478,478,478,478,478,478,478,478,478,478,478,478,478,478,478,478,478,478,478,478,478,478,478,478,475,434,370,332,286,240,129,50,6,6,6,6,6,6,6,6,6,6,6,65,91,125,132,138,139,139,140,140,140,140,140,134,116,99],"timestamp_mouse":[13,42,48,68,87,108,128,148,166,188,207,227,248,268,287,307,328,348,368,388,407,427,447,468,487,507,528,547,567,588,608,628,648,668,688,708,728,747,767,787,807,828,848,868,887,907,928,948,967,988,1008,1027,1048,1067,1086,1106,1127,1146,1167,1187,1208,1228,1247,1267,1287,1307,1327,1348,1368,1388,1408,1427,1447,1468,1488,1507,1527,1548,1568,1588,1607,1626,1647,1667],"xSR":741.5,"ySR":469.95,"xT1":424.9,"yT1":0,"xT2":1058.1,"yT2":0,"toosoon":0,"cond_shown":"randomdotsizeEA","ratio_trial":500,"smaller_num":"4","larger_num":"8","correct_side":1,"subjID":"OSCARCENDALES32","gender":"0","age":"9","school":"4"},{"start_time":1552055280730,"click_time":1552055282367,"finger_time":1552055281606,"fix_duration":460.89694654532343,"trial":24,"RT":876,"MT":761,"sideResp":2,"stimulus":"img/750/randomdotsizeEA/R/11_Ratio_750_L_12_R_16.png","xmouse":[804,804,804,804,804,804,804,804,804,804,804,804,804,804,804,804,804,804,804,804,804,804,804,804,804,804,804,804,804,804,804,804,804,804,804,804,804,804,804,804,804,804,804,850,901,961,1017,1054,1113,1150,1171,1188,1205,1215,1219,1220,1220,1220,1220,1220,1220,1220,1219,1201,1194,1189,1186,1185,1182,1177,1174,1174,1174,1174,1174,1174,1174,1174,1174,1174,1164,1133],"ymouse":[550,550,550,550,550,550,550,550,550,550,550,550,550,550,550,550,550,550,550,550,550,550,550,550,550,550,550,550,550,550,550,550,550,550,550,550,550,550,550,550,550,550,550,502,445,389,343,307,215,160,130,98,63,31,19,12,10,10,10,10,10,10,10,21,28,32,34,35,40,44,46,47,47,47,47,47,47,47,47,47,47,49],"timestamp_mouse":[16,41,56,76,96,117,136,156,176,197,217,236,257,276,297,316,336,357,376,397,417,436,457,476,499,516,536,556,577,595,616,636,657,675,696,716,737,756,775,797,817,837,855,876,896,917,936,956,978,996,1016,1036,1057,1077,1096,1116,1135,1156,1177,1196,1216,1236,1257,1277,1296,1316,1337,1357,1378,1396,1416,1437,1457,1476,1496,1516,1537,1557,1577,1596,1616,1637],"xSR":741.5,"ySR":469.95,"xT1":424.9,"yT1":0,"xT2":1058.1,"yT2":0,"toosoon":0,"cond_shown":"randomdotsizeEA","ratio_trial":750,"smaller_num":"12","larger_num":"16","correct_side":2,"subjID":"OSCARCENDALES32","gender":"0","age":"9","school":"4"},{"start_time":1552055287618,"click_time":1552055292147,"finger_time":1552055289127,"fix_duration":1491.16362827902,"trial":25,"RT":1509,"MT":3020,"sideResp":1,"stimulus":"img/900/randomdotsizeEA/R/3_Ratio_900_L_9_R_10.png","xmouse":[775,775,775,775,775,775,775,775,775,775,775,775,775,775,775,775,775,775,775,775,775,775,775,775,775,775,775,775,775,775,775,775,775,775,775,775,775,775,775,775,775,775,775,775,775,775,775,775,775,775,775,775,775,775,775,775,775,775,775,775,775,775,775,775,775,775,775,775,775,775,775,775,776,771,755,724,720,718,717,715,715,713,702,692,626,538,518,505,494,482,479,479,479,479,479,479,479,479,479,479,479,479,479,479,479,479,479,479,479,479,479,479,479,479,479,479,479,479,479,479,479,479,479,479,479,479,479,479,479,479,479,479,479,479,479,479,479,479,479,479,479,479,479,479,479,479,479,479,479,479,479,479,479,479,479,504,521,525,525,504,477,477,477,477,477,477,477,477,477,477,477,477,477,477,477,477,477,477,477,477,477,477,477,477,477,477,477,477,477,477,477,477,477,548,787,978,1155,1171,1172,1170,1161,1161,1166,1184,1216,1309,1321,1321,1321,1319,1295,1073,941,803,674,616,616,616,616,616,616,616,616,616,616,616,471],"ymouse":[533,533,533,533,533,533,533,533,533,533,533,533,533,533,533,533,533,533,533,533,533,533,533,533,533,533,533,533,533,533,533,533,533,533,533,533,533,533,533,533,533,533,533,533,533,533,533,533,533,533,533,533,533,533,533,533,533,533,533,533,533,533,533,533,533,533,533,533,533,533,533,533,533,514,479,433,428,426,425,425,423,420,401,388,307,235,224,214,204,188,183,183,183,183,183,183,183,183,183,183,183,183,183,183,183,183,183,183,183,183,183,183,183,183,183,183,183,183,183,183,183,183,183,183,183,183,183,183,183,183,183,183,183,183,183,183,183,183,183,183,183,183,183,183,183,183,183,183,183,183,183,183,183,183,183,170,155,138,124,113,102,102,102,102,102,102,102,102,102,102,102,102,102,102,102,102,102,102,102,102,102,102,102,102,102,102,102,102,102,102,102,102,102,124,213,304,432,458,472,478,490,492,499,503,504,500,497,497,496,491,473,341,259,158,51,2,2,2,2,2,2,2,2,2,2,2,82],"timestamp_mouse":[11,41,47,68,89,108,128,147,169,189,208,228,248,268,289,308,328,349,368,388,408,429,449,468,488,508,529,548,569,587,608,628,648,669,687,707,728,748,769,789,808,829,849,869,888,908,929,948,968,987,1008,1029,1048,1067,1090,1107,1128,1148,1169,1188,1208,1229,1249,1269,1289,1308,1328,1349,1368,1388,1408,1429,1448,1469,1488,1509,1528,1548,1569,1588,1608,1628,1648,1669,1688,1708,1728,1748,1769,1788,1808,1828,1849,1868,1887,1909,1929,1948,1969,1988,2009,2028,2049,2067,2089,2109,2128,2149,2168,2188,2209,2227,2248,2268,2289,2308,2329,2349,2369,2388,2409,2427,2448,2469,2487,2509,2528,2549,2569,2588,2609,2628,2648,2668,2689,2709,2729,2748,2769,2788,2808,2827,2848,2868,2888,2909,2929,2949,2969,2989,3009,3028,3047,3069,3088,3109,3127,3148,3168,3188,3208,3228,3247,3268,3288,3309,3328,3348,3368,3388,3408,3428,3448,3467,3489,3509,3528,3548,3568,3589,3609,3629,3648,3668,3688,3709,3729,3748,3768,3788,3809,3828,3848,3868,3889,3908,3928,3949,3969,3988,4010,4028,4048,4069,4089,4109,4128,4148,4168,4188,4208,4228,4247,4267,4289,4308,4328,4347,4368,4388,4407,4428,4449,4469,4489,4509,4529],"xSR":741.5,"ySR":469.95,"xT1":424.9,"yT1":0,"xT2":1058.1,"yT2":0,"toosoon":0,"cond_shown":"randomdotsizeEA","ratio_trial":900,"smaller_num":"9","larger_num":"10","correct_side":2,"subjID":"OSCARCENDALES32","gender":"0","age":"9","school":"4"},{"start_time":1552055312749,"click_time":1552055313586,"finger_time":1552055313286,"fix_duration":541.8911556344103,"trial":26,"RT":537,"MT":300,"sideResp":1,"stimulus":"img/900/equaldotsize/L/8_Ratio_900_L_20_R_18.png","xmouse":[775,775,775,775,775,775,775,775,775,775,775,775,775,775,775,775,775,775,775,775,775,775,775,777,782,788,796,797,797,797,798,800,800,800,795,782,715,676,625,568,522,483],"ymouse":[531,531,531,531,531,531,531,531,531,531,531,531,531,531,531,531,531,531,531,531,531,531,528,516,498,479,454,452,452,451,449,432,421,409,392,370,289,250,206,156,113,76],"timestamp_mouse":[18,38,58,77,98,118,137,159,179,198,217,237,258,279,298,317,338,358,378,398,419,437,457,478,497,518,537,558,578,598,618,638,658,677,698,717,737,757,777,797,818,837],"xSR":741.5,"ySR":469.95,"xT1":424.9,"yT1":0,"xT2":1058.1,"yT2":0,"toosoon":0,"cond_shown":"equaldotsize","ratio_trial":900,"smaller_num":"18","larger_num":"20","correct_side":1,"subjID":"OSCARCENDALES32","gender":"0","age":"9","school":"4"},{"start_time":1552055315259,"click_time":1552055316527,"finger_time":1552055315526,"fix_duration":250,"trial":27,"RT":267,"MT":1001,"sideResp":2,"stimulus":"img/900/equaldotanddens/R/11_Ratio_900_L_18_R_20.png","xmouse":[807,807,807,807,807,807,807,807,807,807,809,828,840,851,861,868,870,871,871,871,869,869,869,869,869,869,869,869,869,869,869,869,869,886,920,945,961,962,962,962,962,962,962,962,963,963,967,969,971,975,979,990,995,1003,1013,1020,1025,1027,1029,1031,1033,1043,1051,1063],"ymouse":[533,533,533,533,533,533,533,533,533,533,533,533,533,533,534,534,535,536,539,540,544,544,545,545,545,545,545,545,545,545,545,545,536,492,445,412,368,360,357,357,357,357,357,357,356,356,344,339,333,320,308,276,258,241,224,211,197,191,184,179,174,131,69,32],"timestamp_mouse":[12,45,47,67,88,109,127,147,167,188,209,228,247,267,288,308,328,347,367,388,408,428,447,467,488,508,528,549,568,588,608,628,649,667,688,708,729,747,767,787,808,828,847,867,887,907,929,947,967,989,1008,1028,1047,1067,1088,1107,1128,1148,1168,1188,1208,1228,1247,1268],"xSR":741.5,"ySR":469.95,"xT1":424.9,"yT1":0,"xT2":1058.1,"yT2":0,"toosoon":0,"cond_shown":"equaldotanddens","ratio_trial":900,"smaller_num":"18","larger_num":"20","correct_side":2,"subjID":"OSCARCENDALES32","gender":"0","age":"9","school":"4"},{"start_time":1552055317618,"click_time":1552055318706,"finger_time":1552055318446,"fix_duration":250,"trial":28,"RT":828,"MT":260,"sideResp":2,"stimulus":"img/500/equaldotanddens/R/3_Ratio_500_L_10_R_20.png","xmouse":[761,761,761,761,761,761,761,761,761,761,761,761,761,761,761,761,761,761,761,761,761,761,761,761,761,761,761,761,761,761,761,761,761,761,761,761,761,761,762,777,810,892,938,980,1051,1081,1097,1101,1102,1103,1103,1103,1103,1097,1089],"ymouse":[521,521,521,521,521,521,521,521,521,521,521,521,521,521,521,521,521,521,521,521,521,521,521,521,521,521,521,521,521,521,521,521,521,521,521,521,521,521,521,506,473,426,398,367,270,214,177,151,142,140,140,138,128,115,96],"timestamp_mouse":[17,42,48,68,90,108,128,150,168,188,209,230,249,270,289,308,329,348,368,389,410,430,449,469,488,509,528,550,568,589,608,628,649,670,689,709,730,748,769,789,810,828,849,868,888,908,928,949,968,988,1009,1029,1048,1070,1088],"xSR":741.5,"ySR":469.95,"xT1":424.9,"yT1":0,"xT2":1058.1,"yT2":0,"toosoon":0,"cond_shown":"equaldotanddens","ratio_trial":500,"smaller_num":"10","larger_num":"20","correct_side":2,"subjID":"OSCARCENDALES32","gender":"0","age":"9","school":"4"},{"start_time":1552055321961,"click_time":1552055322807,"finger_time":1552055322767,"fix_duration":1313.2141826617105,"trial":29,"RT":806,"MT":40,"sideResp":1,"stimulus":"img/900/equaldotanddens/L/2_Ratio_900_L_20_R_18.png","xmouse":[767,767,767,767,767,767,767,767,767,767,767,767,767,767,767,767,767,767,767,767,767,767,767,767,767,767,767,767,767,767,767,767,767,767,767,767,767,767,764,754,702,673,524],"ymouse":[545,545,545,545,545,545,545,545,545,545,545,545,545,545,545,545,545,545,545,545,545,545,545,545,545,545,545,545,545,545,545,545,545,545,545,545,545,545,545,527,434,378,98],"timestamp_mouse":[13,27,45,66,85,106,127,147,166,185,206,226,245,266,285,306,325,345,365,385,405,425,445,465,485,507,525,545,565,585,606,626,646,665,686,706,727,745,766,787,806,826,846],"xSR":741.5,"ySR":469.95,"xT1":424.9,"yT1":0,"xT2":1058.1,"yT2":0,"toosoon":0,"cond_shown":"equaldotanddens","ratio_trial":900,"smaller_num":"18","larger_num":"20","correct_side":1,"subjID":"OSCARCENDALES32","gender":"0","age":"9","school":"4"},{"start_time":1552055324353,"click_time":1552055327226,"finger_time":1552055327107,"fix_duration":565.6372155910561,"trial":30,"RT":2754,"MT":119,"sideResp":2,"stimulus":"img/500/equaldotsize/L/4_Ratio_500_L_18_R_9.png","xmouse":[780,780,780,780,780,780,780,780,780,780,780,780,780,780,780,780,780,780,780,780,780,780,780,780,780,780,780,780,780,780,780,780,780,780,780,780,780,780,780,780,780,780,780,780,780,780,780,780,780,780,780,780,780,780,780,780,780,780,780,780,780,780,780,780,780,780,780,780,780,780,780,780,780,780,780,780,780,780,780,780,780,780,780,780,780,780,780,780,780,780,780,780,780,780,780,780,780,780,780,780,780,780,780,780,780,780,779,775,775,775,775,775,775,775,775,775,775,775,775,775,775,775,775,775,777,778,779,783,787,789,793,795,798,802,803,805,817,843,926,987,1014,1034,1048,1077],"ymouse":[541,541,541,541,541,541,541,541,541,541,541,541,541,541,541,541,541,541,541,541,541,541,541,541,541,541,541,541,541,541,541,541,541,541,541,541,541,541,541,541,541,541,541,541,541,541,541,541,541,541,541,541,541,541,541,541,541,541,541,541,541,541,541,541,541,541,541,541,541,541,541,541,541,541,541,541,541,541,541,541,541,541,541,541,541,541,541,541,541,541,541,541,541,541,541,541,541,541,541,541,541,541,541,541,541,541,523,488,477,476,475,475,475,475,475,475,475,475,475,475,475,475,475,475,477,478,479,483,487,490,495,498,501,504,504,504,491,452,311,199,152,115,94,66],"timestamp_mouse":[22,38,53,73,93,113,133,153,173,193,213,234,253,273,293,313,334,353,374,394,415,434,453,475,494,515,534,553,573,593,614,633,653,674,693,713,734,754,773,793,814,835,854,873,893,914,935,954,974,993,1014,1034,1053,1074,1093,1114,1133,1154,1173,1193,1213,1234,1254,1274,1294,1314,1335,1353,1373,1393,1414,1434,1454,1474,1493,1514,1534,1553,1574,1595,1615,1635,1654,1674,1695,1713,1734,1754,1774,1793,1814,1833,1854,1874,1895,1914,1934,1953,1973,1993,2013,2033,2054,2075,2095,2114,2133,2154,2174,2193,2214,2233,2253,2274,2294,2313,2335,2354,2374,2394,2413,2433,2454,2475,2495,2513,2534,2555,2575,2593,2614,2634,2654,2674,2693,2713,2734,2754,2773,2794,2814,2834,2854,2873],"xSR":741.5,"ySR":469.95,"xT1":424.9,"yT1":0,"xT2":1058.1,"yT2":0,"toosoon":0,"cond_shown":"equaldotsize","ratio_trial":500,"smaller_num":"9","larger_num":"18","correct_side":1,"subjID":"OSCARCENDALES32","gender":"0","age":"9","school":"4"},{"start_time":1552055328378,"click_time":1552055331107,"finger_time":1552055328706,"fix_duration":250,"trial":31,"RT":328,"MT":2401,"sideResp":2,"stimulus":"img/500/randomdotsizeEA/R/15_Ratio_500_L_1_R_2.png","xmouse":[800,800,799,798,797,795,794,793,793,793,792,790,780,772,761,753,747,737,733,732,728,723,705,696,688,681,673,650,639,626,610,599,581,577,574,573,572,571,570,566,558,547,543,543,543,543,543,543,543,543,543,543,543,543,543,543,543,543,543,543,543,543,543,543,543,543,543,543,543,543,545,563,614,627,641,657,676,695,695,695,696,701,716,723,730,738,747,772,784,798,808,821,845,856,870,884,899,937,948,961,976,991,1031,1043,1047,1047,1047,1047,1047,1047,1047,1047,1047,1047,1047,1047,1047,1047,1047,1047,1047,1047,1047,1047,1047,1047,1047,1047,1047,1047,1047,1047,1047,1047,1047,1051,1074],"ymouse":[547,547,548,549,549,549,548,548,548,548,548,541,521,504,490,477,468,445,437,432,424,414,391,381,370,359,350,317,301,284,261,241,209,201,195,192,191,188,184,179,170,157,151,151,151,151,151,151,151,151,151,151,151,151,151,151,151,151,151,151,151,151,151,151,151,151,151,151,151,151,154,171,188,184,173,147,112,84,84,84,83,83,81,81,81,81,81,91,98,106,109,112,112,112,108,104,100,90,83,74,66,61,54,52,52,52,52,52,52,52,52,52,52,52,52,52,52,52,52,52,52,52,52,52,52,52,52,52,52,52,52,52,52,52,52,52,54],"timestamp_mouse":[13,32,48,68,88,108,129,148,168,190,209,228,248,268,288,308,328,348,369,388,408,428,448,469,488,510,529,548,569,589,608,628,649,669,688,710,729,748,768,789,808,829,848,868,889,909,928,948,969,988,1008,1029,1050,1070,1090,1108,1130,1149,1169,1189,1209,1229,1248,1269,1289,1309,1329,1348,1368,1388,1409,1428,1448,1469,1489,1508,1529,1548,1569,1588,1609,1629,1649,1668,1689,1709,1728,1748,1769,1788,1809,1828,1848,1869,1888,1908,1928,1948,1968,1988,2008,2028,2050,2068,2088,2110,2129,2148,2168,2189,2209,2229,2248,2268,2289,2309,2330,2348,2369,2388,2409,2428,2448,2469,2489,2509,2530,2548,2570,2590,2609,2629,2649,2669,2688,2709,2729],"xSR":741.5,"ySR":469.95,"xT1":424.9,"yT1":0,"xT2":1058.1,"yT2":0,"toosoon":0,"cond_shown":"randomdotsizeEA","ratio_trial":500,"smaller_num":"1","larger_num":"2","correct_side":2,"subjID":"OSCARCENDALES32","gender":"0","age":"9","school":"4"},{"start_time":1552055333545,"click_time":1552055336866,"finger_time":1552055334286,"fix_duration":895.5078592753272,"trial":32,"RT":741,"MT":2580,"sideResp":1,"stimulus":"img/750/equaldotanddens/L/13_Ratio_750_L_8_R_6.png","xmouse":[803,803,803,803,803,803,803,802,801,787,778,770,765,760,751,750,750,750,750,750,750,750,750,750,750,750,750,750,750,750,750,750,750,750,750,747,745,736,726,692,672,648,621,598,581,560,556,554,553,553,553,552,551,551,551,551,551,551,551,551,551,551,551,551,551,551,551,551,551,551,551,551,551,551,551,551,551,551,551,551,551,551,551,551,551,551,551,551,551,551,551,551,551,551,551,551,551,551,551,551,551,551,551,551,551,551,551,551,551,551,551,551,551,551,551,551,551,662,816,1110,1467,1509,1509,1476,1309,579,0,0,0,0,0,133,591,1019,1387,1387,1387,1387,1569,1479,1153,940,741,563,420,289,289,289,295,305,316,316,316,316,316,316,316,318,320,324,339,344,347,349,353,398,447],"ymouse":[522,522,522,522,522,522,522,524,524,533,538,540,543,544,546,547,547,547,547,547,547,547,547,547,547,547,547,547,547,547,547,547,547,547,547,544,537,512,491,436,407,378,348,317,292,256,248,243,241,241,241,235,224,221,221,221,221,221,221,221,221,221,221,221,221,221,221,221,221,221,221,221,221,221,221,221,221,221,221,221,221,221,221,221,221,221,221,221,221,221,221,221,221,221,221,221,221,221,221,221,221,221,221,221,221,221,221,221,221,221,221,221,221,221,221,221,221,235,254,292,351,364,365,366,366,366,308,308,308,308,308,308,308,315,351,351,351,351,434,408,315,256,202,148,105,52,52,52,49,46,42,42,42,42,42,42,42,42,42,41,39,39,38,38,38,47,56],"timestamp_mouse":[9,33,42,62,81,102,122,142,161,182,202,222,242,263,282,301,322,342,362,382,402,423,442,461,482,502,523,543,562,582,602,622,642,661,682,702,722,741,762,783,801,821,841,861,881,901,922,941,961,983,1001,1022,1042,1061,1081,1102,1122,1142,1163,1181,1202,1221,1242,1262,1282,1301,1322,1342,1361,1382,1402,1421,1442,1462,1481,1501,1521,1541,1561,1583,1601,1622,1641,1661,1683,1703,1722,1741,1761,1782,1801,1822,1842,1863,1881,1901,1922,1941,1962,1982,2001,2022,2042,2062,2082,2101,2123,2141,2161,2183,2201,2221,2242,2261,2282,2301,2322,2341,2361,2381,2401,2422,2442,2461,2483,2501,2521,2541,2561,2581,2602,2622,2642,2662,2682,2702,2722,2741,2762,2782,2802,2822,2842,2861,2881,2902,2921,2942,2961,2981,3001,3021,3041,3061,3083,3101,3122,3143,3163,3182,3202,3222,3241,3262,3282,3301,3321],"xSR":741.5,"ySR":469.95,"xT1":424.9,"yT1":0,"xT2":1058.1,"yT2":0,"toosoon":0,"cond_shown":"equaldotanddens","ratio_trial":750,"smaller_num":"6","larger_num":"8","correct_side":1,"subjID":"OSCARCENDALES32","gender":"0","age":"9","school":"4"},{"start_time":1552055339910,"click_time":1552055343606,"finger_time":1552055340546,"fix_duration":1262.827876966145,"trial":33,"RT":636,"MT":3060,"sideResp":1,"stimulus":"img/500/equaldotsize/L/10_Ratio_500_L_4_R_2.png","xmouse":[812,812,812,812,812,812,812,812,812,812,812,812,812,812,812,812,812,812,812,812,812,812,812,812,812,812,812,805,795,781,764,721,705,690,677,656,623,610,600,593,589,582,580,577,576,573,573,573,572,570,566,555,547,540,529,522,509,509,509,509,509,509,509,509,509,509,509,509,509,509,509,509,509,509,509,509,509,509,509,509,509,509,509,509,509,509,509,509,509,509,509,509,509,509,514,550,630,845,976,1146,1353,1353,1353,1353,1353,1353,1353,1353,1353,1353,1353,1353,1353,1353,1353,1353,1353,1353,1353,1353,1353,1353,1353,1353,1353,1353,1353,1353,1353,1353,1353,1353,1353,1353,1353,1353,1353,1353,1353,1353,1353,1353,1353,1307,1115,1007,931,874,868,868,868,871,887,890,894,897,905,905,905,904,902,897,894,890,867,845,779,730,670,616,525,525,525,525,525,525,525,525,525,525,525,525,525,525,446],"ymouse":[521,521,521,521,521,521,521,521,521,521,521,521,521,521,521,521,521,521,521,521,521,521,521,521,521,521,521,515,504,491,475,438,424,407,391,363,326,311,297,284,274,251,241,233,227,221,221,221,219,214,207,188,176,165,147,137,108,108,108,108,108,108,108,108,108,108,108,108,108,108,108,108,108,108,108,108,108,108,108,108,108,108,108,108,108,108,108,108,108,108,108,108,108,108,108,107,113,221,294,377,460,460,460,460,460,460,460,460,460,460,460,460,460,460,460,460,460,460,460,460,460,460,460,460,460,460,460,460,460,460,460,460,460,460,460,460,460,460,460,460,460,460,460,710,658,628,604,574,569,567,566,557,527,511,481,457,402,374,349,328,316,308,306,302,290,275,220,185,135,84,0,0,0,0,0,0,0,0,0,0,0,0,0,0,77],"timestamp_mouse":[17,37,56,77,97,116,136,157,177,197,216,236,256,278,297,317,336,356,376,396,417,438,457,478,496,517,536,557,577,597,616,636,656,677,697,716,737,756,776,796,816,837,856,878,896,916,937,957,976,996,1016,1038,1058,1077,1098,1116,1137,1156,1177,1197,1217,1238,1256,1277,1297,1316,1337,1356,1377,1397,1417,1437,1457,1476,1496,1516,1536,1557,1578,1596,1617,1637,1657,1677,1696,1716,1736,1756,1778,1797,1818,1837,1856,1876,1897,1916,1937,1957,1976,1997,2016,2037,2056,2078,2097,2116,2137,2157,2177,2197,2216,2236,2257,2277,2297,2318,2337,2357,2376,2397,2416,2437,2457,2478,2498,2517,2537,2557,2576,2597,2616,2636,2658,2677,2697,2717,2737,2757,2777,2796,2817,2837,2856,2876,2898,2918,2937,2957,2978,2997,3016,3037,3056,3076,3096,3116,3137,3156,3176,3197,3216,3238,3256,3276,3297,3316,3338,3356,3376,3396,3416,3436,3456,3476,3497,3516,3537,3556,3577,3597,3616,3637,3656,3676,3696],"xSR":741.5,"ySR":469.95,"xT1":424.9,"yT1":0,"xT2":1058.1,"yT2":0,"toosoon":0,"cond_shown":"equaldotsize","ratio_trial":500,"smaller_num":"2","larger_num":"4","correct_side":1,"subjID":"OSCARCENDALES32","gender":"0","age":"9","school":"4"},{"start_time":1552055345140,"click_time":1552055346566,"finger_time":1552055345986,"fix_duration":250,"trial":34,"RT":846,"MT":580,"sideResp":1,"stimulus":"img/250/equaldotsize/L/15_Ratio_250_L_12_R_3.png","xmouse":[804,804,804,804,804,804,804,804,804,804,804,804,804,804,804,804,804,804,804,804,804,804,804,804,804,804,804,804,804,804,804,804,804,804,804,804,804,804,804,804,803,788,754,727,713,708,701,693,685,682,681,677,669,656,638,620,582,571,563,559,559,559,559,559,559,559,557,554,549,539,527,476],"ymouse":[517,517,517,517,517,517,517,517,517,517,517,517,517,517,517,517,517,517,517,517,517,517,517,517,517,517,517,517,517,517,517,517,517,517,517,517,517,517,517,517,512,481,419,371,336,311,269,252,240,235,234,226,215,204,191,178,144,136,131,128,128,128,128,128,128,128,126,122,116,109,100,41],"timestamp_mouse":[21,36,46,66,87,106,126,147,168,187,206,226,246,266,288,308,326,346,367,387,408,427,447,466,488,508,526,548,567,586,606,627,646,667,687,707,727,746,767,787,807,828,846,866,887,907,927,947,966,987,1006,1026,1047,1068,1087,1107,1127,1147,1166,1186,1207,1227,1246,1266,1286,1307,1327,1347,1367,1387,1407,1426],"xSR":741.5,"ySR":469.95,"xT1":424.9,"yT1":0,"xT2":1058.1,"yT2":0,"toosoon":0,"cond_shown":"equaldotsize","ratio_trial":250,"smaller_num":"3","larger_num":"12","correct_side":1,"subjID":"OSCARCENDALES32","gender":"0","age":"9","school":"4"},{"start_time":1552055349561,"click_time":1552055351006,"finger_time":1552055350067,"fix_duration":1452.484668660447,"trial":35,"RT":506,"MT":939,"sideResp":1,"stimulus":"img/750/randomdotsizeEA/L/13_Ratio_750_L_8_R_6.png","xmouse":[788,788,788,788,788,788,788,788,788,788,788,788,788,788,788,788,788,788,788,788,788,788,784,779,777,775,772,772,772,772,772,772,772,772,772,772,772,772,772,772,771,768,761,749,734,687,665,649,630,627,626,625,625,622,617,607,604,602,597,594,583,575,568,562,558,557,557,555,549,542,523,509,487],"ymouse":[539,539,539,539,539,539,539,539,539,539,539,539,539,539,539,539,539,539,539,539,539,539,547,557,565,570,573,574,574,574,574,574,574,574,574,574,574,574,574,574,574,572,566,555,537,484,464,448,430,426,420,415,410,402,391,365,354,339,317,300,266,247,231,216,207,203,196,188,182,172,140,117,86],"timestamp_mouse":[13,40,45,65,86,105,125,146,167,186,205,225,245,266,287,305,326,346,365,387,406,426,446,466,486,506,526,546,566,585,606,627,645,666,685,705,725,746,766,785,806,825,847,866,886,906,925,946,967,985,1007,1025,1045,1065,1086,1106,1125,1146,1165,1185,1206,1225,1246,1266,1285,1306,1325,1346,1365,1386,1406,1426,1445],"xSR":741.5,"ySR":469.95,"xT1":424.9,"yT1":0,"xT2":1058.1,"yT2":0,"toosoon":0,"cond_shown":"randomdotsizeEA","ratio_trial":750,"smaller_num":"6","larger_num":"8","correct_side":1,"subjID":"OSCARCENDALES32","gender":"0","age":"9","school":"4"},{"start_time":1552055353807,"click_time":1552055355787,"finger_time":1552055354347,"fix_duration":1437.413538212627,"trial":36,"RT":540,"MT":1440,"sideResp":2,"stimulus":"img/750/equaldotanddens/R/7_Ratio_750_L_3_R_4.png","xmouse":[809,809,809,809,809,809,809,809,809,809,809,809,809,809,809,809,809,809,809,809,809,809,809,809,811,813,816,819,821,822,822,822,822,822,822,822,822,822,822,822,822,822,823,831,844,861,893,936,983,1054,1084,1106,1116,1124,1125,1125,1125,1125,1125,1125,1127,1130,1132,1134,1149,1161,1172,1182,1188,1199,1209,1218,1227,1234,1247,1254,1263,1270,1277,1285,1289,1290,1290,1290,1284,1283,1280,1276,1270,1261,1257,1248,1233,1207,1188,1181,1178,1174,1167,1152],"ymouse":[542,542,542,542,542,542,542,542,542,542,542,542,542,542,542,542,542,542,542,542,542,542,542,542,553,561,569,574,576,577,577,577,577,577,577,577,577,577,577,577,577,577,577,567,548,526,493,456,422,373,357,348,342,338,338,338,338,338,338,337,335,334,334,333,325,325,325,325,325,325,325,324,322,318,310,305,298,293,287,275,266,258,245,236,212,205,198,191,183,170,165,155,146,131,117,112,109,103,95,77],"timestamp_mouse":[10,21,41,60,84,101,120,139,160,181,199,219,240,261,279,300,319,339,359,380,399,419,440,460,479,499,519,540,560,580,599,619,639,659,679,700,719,740,759,780,800,819,840,861,880,900,921,939,961,979,999,1021,1040,1060,1080,1099,1120,1139,1160,1179,1199,1219,1240,1259,1279,1300,1319,1340,1360,1381,1399,1419,1439,1460,1480,1501,1519,1540,1560,1579,1599,1619,1640,1661,1679,1699,1720,1740,1760,1780,1799,1819,1839,1859,1879,1900,1921,1940,1960,1980],"xSR":741.5,"ySR":469.95,"xT1":424.9,"yT1":0,"xT2":1058.1,"yT2":0,"toosoon":0,"cond_shown":"equaldotanddens","ratio_trial":750,"smaller_num":"3","larger_num":"4","correct_side":2,"subjID":"OSCARCENDALES32","gender":"0","age":"9","school":"4"},{"start_time":1552055357814,"click_time":1552055359606,"finger_time":1552055358686,"fix_duration":445.1097761703162,"trial":37,"RT":872,"MT":920,"sideResp":2,"stimulus":"img/250/randomdotsizeEA/R/6_Ratio_250_L_6_R_24.png","xmouse":[787,787,787,787,787,787,787,787,787,787,787,787,787,787,787,787,787,787,787,787,787,787,787,787,788,790,792,792,792,792,792,792,792,792,792,792,792,792,792,793,794,796,798,808,819,832,843,853,862,863,864,864,866,871,877,885,894,909,935,955,975,1003,1018,1029,1046,1061,1081,1098,1108,1111,1114,1115,1115,1116,1120,1126,1134,1143,1147,1151,1151,1151,1151,1152,1152,1152,1150,1140,1121,1084],"ymouse":[484,484,484,484,484,484,484,484,484,484,484,484,484,484,484,484,484,484,484,484,484,484,484,485,485,484,482,482,482,482,482,482,482,482,482,482,482,482,482,481,480,478,475,466,458,449,441,433,423,420,418,417,412,395,382,364,347,329,311,305,299,293,289,285,279,277,274,272,266,264,261,259,251,245,230,218,203,188,180,174,172,169,168,165,160,156,149,136,116,83],"timestamp_mouse":[13,40,53,73,92,113,134,153,172,194,213,233,253,272,293,313,332,354,373,393,414,432,453,472,492,514,532,553,572,593,612,632,652,672,692,712,732,753,773,792,813,832,852,872,892,912,932,953,974,992,1012,1032,1052,1073,1093,1113,1132,1152,1173,1192,1213,1233,1254,1273,1292,1313,1333,1352,1374,1392,1412,1432,1453,1473,1492,1513,1533,1553,1572,1593,1614,1633,1653,1673,1693,1713,1732,1753,1772,1792],"xSR":741.5,"ySR":469.95,"xT1":424.9,"yT1":0,"xT2":1058.1,"yT2":0,"toosoon":0,"cond_shown":"randomdotsizeEA","ratio_trial":250,"smaller_num":"6","larger_num":"24","correct_side":2,"subjID":"OSCARCENDALES32","gender":"0","age":"9","school":"4"},{"start_time":1552055361561,"click_time":1552055363006,"finger_time":1552055362507,"fix_duration":771.7009017292246,"trial":38,"RT":946,"MT":499,"sideResp":2,"stimulus":"img/900/equaldotsize/R/12_Ratio_900_L_18_R_20.png","xmouse":[777,777,777,777,777,777,777,777,778,778,779,779,779,779,779,779,779,779,779,779,779,779,779,779,779,779,779,779,779,779,779,779,779,780,784,790,795,800,800,800,800,800,800,800,802,804,810,842,861,884,912,941,994,1030,1050,1069,1089,1113,1117,1120,1120,1120,1120,1120,1120,1122,1125,1131,1133,1137,1140,1142,1154],"ymouse":[502,502,502,502,502,502,501,501,501,499,498,498,498,498,498,498,498,498,498,498,498,498,498,498,498,498,498,498,498,498,498,498,498,497,497,495,495,494,494,494,494,494,494,494,493,492,487,476,470,464,453,442,414,388,374,359,344,320,313,309,308,308,308,305,297,280,258,214,195,169,145,121,69],"timestamp_mouse":[13,25,45,65,85,106,127,146,166,186,205,226,245,265,287,306,326,346,367,387,406,426,445,467,486,506,526,546,566,586,606,625,646,666,686,706,725,746,766,785,806,826,846,866,886,906,926,946,967,985,1006,1025,1045,1066,1086,1106,1126,1145,1166,1186,1206,1226,1246,1266,1285,1307,1326,1345,1366,1387,1406,1425,1445],"xSR":741.5,"ySR":469.95,"xT1":424.9,"yT1":0,"xT2":1058.1,"yT2":0,"toosoon":0,"cond_shown":"equaldotsize","ratio_trial":900,"smaller_num":"18","larger_num":"20","correct_side":2,"subjID":"OSCARCENDALES32","gender":"0","age":"9","school":"4"},{"start_time":1552055365231,"click_time":1552055367347,"finger_time":1552055366606,"fix_duration":1003.541598345757,"trial":39,"RT":1375,"MT":741,"sideResp":1,"stimulus":"img/500/equaldotanddens/L/5_Ratio_500_L_4_R_2.png","xmouse":[792,792,792,792,792,792,792,792,792,792,792,792,792,792,792,792,792,792,792,792,792,792,792,792,792,792,792,792,792,792,792,792,792,792,792,792,792,792,792,792,792,792,792,792,792,792,792,792,792,792,792,792,792,792,792,792,792,792,792,792,792,792,792,792,792,793,795,803,823,827,829,830,830,831,830,828,827,826,824,821,814,803,789,757,734,710,682,650,634,622,619,619,619,617,616,611,606,600,595,586,576,566,554,533,527,524],"ymouse":[504,504,504,504,504,504,504,504,504,504,504,504,504,504,504,504,504,504,504,504,504,504,504,504,504,504,504,504,504,504,504,504,504,504,504,504,504,504,504,504,504,504,504,504,504,504,504,504,504,504,504,504,504,504,504,504,504,504,504,504,504,504,504,504,504,504,502,488,443,421,400,381,365,344,338,333,331,330,327,326,321,318,311,298,285,269,250,227,215,204,201,201,200,196,191,184,179,173,166,157,149,139,128,107,101,97],"timestamp_mouse":[16,40,56,75,95,115,136,156,176,197,216,236,256,275,296,315,336,355,377,396,416,437,456,475,497,515,535,557,576,596,616,635,656,675,695,717,736,756,775,795,817,835,856,875,896,915,937,955,975,996,1015,1035,1056,1075,1095,1115,1135,1156,1176,1196,1216,1237,1256,1276,1295,1316,1336,1356,1375,1396,1415,1435,1455,1476,1495,1515,1535,1556,1575,1595,1615,1636,1655,1676,1696,1715,1735,1755,1775,1795,1815,1835,1856,1875,1897,1916,1936,1956,1975,1997,2015,2036,2055,2076,2097,2116],"xSR":741.5,"ySR":469.95,"xT1":424.9,"yT1":0,"xT2":1058.1,"yT2":0,"toosoon":0,"cond_shown":"equaldotanddens","ratio_trial":500,"smaller_num":"2","larger_num":"4","correct_side":1,"subjID":"OSCARCENDALES32","gender":"0","age":"9","school":"4"},{"start_time":1552055369677,"click_time":1552055373026,"finger_time":1552055369687,"fix_duration":250,"trial":40,"RT":10,"MT":3339,"sideResp":1,"stimulus":"img/750/equaldotsize/R/5_Ratio_750_L_15_R_20.png","xmouse":[754,746,739,739,739,739,739,739,739,739,739,739,739,739,739,739,739,739,739,739,739,739,739,739,739,739,739,739,739,739,739,739,739,739,739,739,739,739,739,739,739,739,739,739,739,739,739,739,739,739,739,739,739,739,739,739,739,739,739,739,739,739,739,739,739,739,739,739,739,739,739,739,739,739,739,739,739,739,739,739,739,739,739,739,739,739,740,753,761,769,776,780,781,781,781,781,781,781,781,780,779,775,773,771,771,771,771,771,771,771,771,771,771,771,771,771,771,771,771,771,771,771,771,771,771,771,771,771,771,771,771,771,771,771,771,771,771,771,771,771,771,769,753,747,740,732,723,689,664,648,637,627,624,624,622,620,617,613,611,608,605,600,584,574,563,545,529,498],"ymouse":[588,610,631,632,632,632,632,632,632,632,632,632,632,632,632,632,632,632,632,632,632,632,632,632,632,632,632,632,632,632,632,632,632,632,632,632,632,632,632,632,632,632,632,632,632,632,632,632,632,632,632,632,632,632,632,632,632,632,632,632,632,632,632,632,632,632,632,632,632,632,632,632,632,632,632,632,632,632,632,632,633,633,633,633,633,631,624,566,540,520,506,497,494,494,494,494,494,494,494,495,495,498,500,501,501,501,501,501,501,501,501,501,501,501,501,501,501,501,501,501,501,501,501,501,501,501,501,501,501,501,501,501,501,501,501,501,501,501,501,500,495,486,449,435,418,399,373,295,248,226,211,196,183,177,172,168,162,158,155,151,149,143,125,114,101,85,70,43],"timestamp_mouse":[10,30,50,69,90,111,131,149,169,190,209,230,249,270,290,310,330,350,370,390,410,430,449,470,489,510,530,549,571,591,611,629,649,669,689,710,731,750,770,790,809,829,851,871,891,910,931,949,970,989,1011,1030,1049,1071,1091,1110,1130,1149,1169,1191,1210,1231,1249,1269,1289,1310,1331,1349,1370,1389,1409,1429,1450,1470,1489,1509,1530,1550,1571,1589,1609,1629,1651,1670,1691,1709,1730,1751,1771,1791,1810,1829,1850,1869,1891,1911,1929,1949,1969,1989,2011,2029,2051,2069,2090,2110,2130,2150,2170,2190,2211,2229,2251,2270,2290,2310,2331,2350,2371,2390,2410,2430,2450,2470,2490,2510,2530,2550,2570,2590,2611,2631,2649,2670,2689,2711,2731,2751,2769,2790,2811,2830,2850,2871,2890,2909,2930,2951,2970,2989,3010,3030,3049,3071,3090,3109,3131,3151,3170,3190,3211,3231,3249,3270,3290,3311,3330,3349],"xSR":741.5,"ySR":469.95,"xT1":424.9,"yT1":0,"xT2":1058.1,"yT2":0,"toosoon":0,"cond_shown":"equaldotsize","ratio_trial":750,"smaller_num":"15","larger_num":"20","correct_side":2,"subjID":"OSCARCENDALES32","gender":"0","age":"9","school":"4"},{"start_time":1552055374596,"click_time":1552055376447,"finger_time":1552055375508,"fix_duration":306.98642616065797,"trial":41,"RT":912,"MT":939,"sideResp":2,"stimulus":"img/900/randomdotsizeEA/L/10_Ratio_900_L_20_R_18.png","xmouse":[831,831,831,831,831,831,831,831,831,831,831,831,831,831,831,831,831,831,831,831,831,831,831,831,831,831,831,831,831,831,831,831,831,831,831,831,831,831,831,831,831,831,833,835,837,841,846,862,871,879,888,910,925,941,954,971,991,999,1005,1010,1015,1021,1042,1055,1067,1084,1099,1104,1108,1110,1112,1115,1115,1115,1115,1115,1115,1115,1114,1113,1112,1109,1107,1107,1107,1107,1107,1106,1105,1104,1103,1101,1100],"ymouse":[484,484,484,484,484,484,484,484,484,484,484,484,484,484,484,484,484,484,484,484,484,484,484,484,484,484,484,484,484,484,484,484,484,484,484,484,484,484,484,484,484,484,478,474,471,466,462,450,443,434,423,403,393,381,372,360,348,344,342,339,335,329,298,274,253,225,197,185,169,153,140,123,118,116,116,116,116,115,115,115,114,111,109,109,108,108,108,107,107,105,104,101,99],"timestamp_mouse":[10,35,51,71,91,111,131,150,172,192,210,230,250,272,292,311,330,350,371,391,411,431,452,472,491,511,531,552,572,592,611,631,650,670,691,712,731,751,771,790,812,831,852,871,891,912,931,952,971,990,1011,1031,1050,1071,1092,1112,1131,1152,1171,1191,1211,1231,1251,1270,1290,1310,1331,1350,1370,1391,1411,1431,1450,1471,1491,1512,1531,1551,1570,1591,1610,1631,1650,1672,1690,1711,1731,1751,1770,1791,1811,1832,1851],"xSR":741.5,"ySR":469.95,"xT1":424.9,"yT1":0,"xT2":1058.1,"yT2":0,"toosoon":0,"cond_shown":"randomdotsizeEA","ratio_trial":900,"smaller_num":"18","larger_num":"20","correct_side":1,"subjID":"OSCARCENDALES32","gender":"0","age":"9","school":"4"},{"start_time":1552055386443,"click_time":1552055387949,"finger_time":1552055387448,"fix_duration":1354.0131348144891,"trial":42,"RT":1005,"MT":501,"sideResp":1,"stimulus":"img/500/equaldotanddens/L/7_Ratio_500_L_10_R_5.png","xmouse":[783,783,783,783,783,783,783,783,783,783,783,783,783,783,783,783,783,783,783,783,783,783,783,783,783,783,783,783,783,783,783,783,783,783,783,783,783,783,783,783,783,783,783,783,783,783,783,783,781,777,737,704,674,649,624,602,580,577,572,569,564,564,564,564,564,564,564,564,563,558,549,544,537,530,526,522],"ymouse":[512,512,512,512,512,512,512,512,512,512,512,512,512,512,512,512,512,512,512,512,512,512,512,512,512,512,512,512,512,512,512,512,512,512,512,512,512,512,512,512,512,512,512,512,512,512,512,512,510,498,397,337,281,229,180,140,91,79,68,62,51,49,49,49,49,49,49,49,49,49,49,49,49,49,49,49],"timestamp_mouse":[12,37,43,63,85,104,125,144,165,185,204,223,243,264,284,303,324,344,364,383,404,425,444,465,485,505,525,544,565,585,604,625,645,663,683,705,724,745,763,785,805,823,843,865,884,905,923,945,964,984,1005,1023,1045,1064,1084,1104,1123,1144,1165,1185,1204,1224,1243,1264,1284,1305,1325,1344,1364,1383,1406,1424,1444,1465,1483,1505],"xSR":741.5,"ySR":469.95,"xT1":424.9,"yT1":0,"xT2":1058.1,"yT2":0,"toosoon":0,"cond_shown":"equaldo