[{"start_time":1552054119413,"click_time":1552054122380,"finger_time":1552054119424,"fix_duration":1131.7798594731976,"trial":0,"RT":11,"MT":2956,"sideResp":1,"stimulus":[],"xmouse":[868,868,868,868,868,868,868,868,868,868,868,868,868,868,865,858,848,844,834,824,818,817,816,816,816,816,816,816,815,812,808,805,802,795,795,795,797,798,799,799,799,801,802,804,805,806,807,807,807,808,808,808,808,808,808,808,808,808,808,808,808,808,808,808,808,808,804,804,804,804,804,803,802,802,801,801,801,801,801,801,801,801,801,801,801,801,801,801,801,801,801,801,801,801,801,801,801,801,801,801,801,801,799,799,798,798,798,798,798,798,798,798,797,796,795,795,795,795,795,795,795,795,795,795,794,791,789,785,761,729,686,628,555,416,381,379,377,377,377,377,377,377,377,377,380,399,418,436,451],"ymouse":[565,565,565,565,565,565,565,565,565,565,565,565,565,565,565,565,565,565,563,550,533,522,517,516,516,516,516,518,519,534,555,579,607,652,665,675,682,685,687,687,687,686,681,665,658,652,643,640,638,635,635,635,635,635,635,635,635,635,635,635,635,635,635,634,632,631,628,628,628,628,628,628,628,628,628,628,628,628,628,628,628,628,628,628,628,628,628,628,628,628,628,628,628,628,628,628,628,628,628,628,628,628,628,628,628,628,628,628,628,628,628,628,628,628,628,628,628,628,628,628,628,628,628,628,628,628,627,621,586,540,477,398,290,92,19,9,0,0,0,0,0,0,0,0,0,0,0,0,7],"timestamp_mouse":[11,23,43,63,82,102,122,143,163,183,202,223,244,263,283,302,323,342,362,382,402,423,443,463,483,503,523,543,562,583,603,623,643,663,683,703,723,743,763,782,802,823,843,863,883,903,922,943,963,983,1002,1023,1042,1064,1082,1104,1124,1143,1162,1183,1203,1224,1242,1263,1283,1303,1323,1344,1363,1383,1402,1422,1443,1463,1483,1504,1522,1543,1564,1583,1604,1624,1644,1663,1682,1703,1724,1742,1762,1783,1803,1824,1842,1862,1883,1904,1923,1943,1963,1982,2002,2023,2043,2064,2083,2104,2124,2143,2163,2182,2204,2223,2242,2263,2284,2304,2322,2343,2363,2382,2402,2423,2444,2463,2483,2502,2522,2543,2563,2582,2602,2623,2643,2663,2682,2703,2723,2742,2762,2784,2803,2823,2842,2863,2882,2903,2922,2943,2966],"xSR":741.5,"ySR":501.8,"xT1":424.9,"yT1":0,"xT2":1058.1,"yT2":0,"toosoon":0,"cond_shown":"Congruent","ratio_trial":300,"L_num":1,"L_den":5,"R_num":6,"R_den":12,"correct_side":2,"subjID":"OSCARCENDALES32","gender":"0","age":"9","school":"4","test":{"fix_dur":[250,1500],"timestim":1000,"targets_dim":[100,100],"targets_relative_coord":[0.3,0.7],"size_stim":[880,420],"start_dim":[100,100],"size_start":[300,300],"size_fix":60,"samplingrate":20,"img_types":["Congruent","Incongruent"],"ratios":[100,200,300],"rep_conds":19,"nTrials":120,"trials_to_rest":500,"Trials_order":[88,53,116,4,61,65,21,91,5,30,17,98,71,59,106,62,41,84,56,25,47,115,109,78,32,8,67,81,96,110,87,103,51,52,119,34,55,102,37,24,63,105,99,80,50,85,36,2,3,95,74,31,27,0,42,22,100,97,83,45,16,54,35,69,23,12,72,92,15,93,1,43,112,86,46,70,58,104,60,38,64,82,9,39,14,49,89,101,107,90,57,114,76,117,108,77,7,6,44,20,111,66,68,48,75,113,40,73,118,79,94,13,18,11,10,33,28,29,26,19],"cond_shown":["Congruent","Incongruent","Congruent","Congruent","Incongruent","Incongruent","Incongruent","Incongruent","Incongruent","Congruent","Incongruent","Congruent","Incongruent","Incongruent","Congruent","Congruent","Incongruent","Congruent","Congruent","Incongruent","Incongruent","Incongruent","Incongruent","Congruent","Congruent","Congruent","Incongruent","Incongruent","Congruent","Congruent","Incongruent","Incongruent","Incongruent","Congruent","Incongruent","Congruent","Incongruent","Congruent","Incongruent","Congruent","Incongruent","Incongruent","Incongruent","Congruent","Congruent","Incongruent","Congruent","Congruent","Incongruent","Incongruent","Congruent","Incongruent","Incongruent","Congruent","Congruent","Congruent","Congruent","Incongruent","Incongruent","Incongruent","Congruent","Congruent","Incongruent","Incongruent","Incongruent","Congruent","Congruent","Congruent","Incongruent","Incongruent","Incongruent","Incongruent","Congruent","Congruent","Congruent","Congruent","Congruent","Congruent","Congruent","Congruent","Congruent","Congruent","Incongruent","Incongruent","Congruent","Incongruent","Incongruent","Incongruent","Incongruent","Congruent","Incongruent","Congruent","Congruent","Incongruent","Congruent","Incongruent","Incongruent","Congruent","Congruent","Congruent","Incongruent","Congruent","Congruent","Congruent","Incongruent","Incongruent","Congruent","Incongruent","Congruent","Incongruent","Congruent","Incongruent","Congruent","Incongruent","Congruent","Incongruent","Congruent","Incongruent","Congruent","Incongruent"],"ratio_trial":[300,300,200,300,100,300,200,100,300,100,300,200,300,300,300,200,300,100,200,100,300,100,100,100,200,200,100,200,100,200,200,100,200,300,300,300,100,100,100,100,200,200,200,200,200,100,100,200,200,300,200,100,200,100,100,300,300,100,300,200,300,100,300,200,300,100,100,200,200,200,100,100,300,200,300,300,300,200,100,200,300,300,200,200,200,100,300,300,300,100,200,100,300,200,100,300,100,100,200,200,200,100,200,100,200,300,300,100,300,100,300,100,100,300,300,200,300,300,200,100],"left_num":[1,1,6,4,10,1,14,11,13,15,13,6,4,4,18,6,13,6,7,13,4,3,12,12,6,9,2,14,9,8,3,9,4,3,7,5,3,1,10,1,14,3,7,8,13,12,3,11,14,4,6,3,1,11,4,24,1,2,1,4,7,7,13,3,13,6,6,16,7,4,2,6,18,1,8,5,8,3,6,11,2,4,3,7,8,2,4,4,4,15,4,7,1,7,2,4,2,10,6,21,4,1,11,6,6,4,1,2,20,17,1,12,1,13,4,14,20,2,7,2],"right_num":[6,2,3,2,8,3,6,9,12,13,12,7,8,6,9,3,12,5,18,6,6,11,2,13,7,4,6,12,8,3,1,20,6,11,8,6,4,3,8,3,6,1,12,3,14,2,2,3,6,8,7,11,3,4,15,2,3,8,3,1,20,9,12,11,12,5,5,12,14,6,8,3,9,21,10,6,10,14,5,3,10,1,1,8,7,6,6,2,2,13,14,9,3,12,6,6,6,3,11,2,1,3,3,15,3,2,7,8,13,10,8,9,3,12,13,6,13,6,2,8],"left_den":[5,2,15,5,25,2,30,22,26,25,26,12,5,5,20,15,26,20,15,26,5,5,30,30,12,20,4,30,15,15,10,10,5,12,10,25,6,2,25,2,30,10,10,15,26,30,6,22,30,5,12,5,2,22,10,30,5,4,2,30,14,14,26,4,26,20,20,20,10,5,4,12,20,2,15,25,15,6,20,22,20,10,10,10,15,4,5,20,20,25,6,14,5,10,5,5,4,25,20,30,30,2,22,12,20,20,20,4,25,30,30,24,2,26,20,30,25,4,21,4],"right_den":[12,10,15,4,16,15,9,15,15,26,15,10,16,12,15,15,15,25,27,10,12,22,4,26,10,16,15,18,16,9,2,25,10,20,20,12,10,5,16,5,9,2,24,9,20,4,5,10,9,16,10,22,10,10,30,4,6,20,15,3,25,15,15,20,15,25,25,20,28,10,20,5,15,30,12,12,12,20,25,10,25,10,2,16,21,15,12,4,4,26,30,15,6,24,12,12,15,10,22,4,3,5,10,25,6,4,20,20,26,15,24,15,5,15,26,9,26,30,15,20],"correct_side":[2,1,1,1,2,1,2,2,2,1,2,2,1,1,1,1,2,1,2,2,1,1,2,2,2,1,1,2,1,1,2,1,1,2,1,2,1,2,2,2,2,2,1,1,2,2,1,1,2,1,2,1,1,1,2,1,2,1,1,2,2,2,2,1,2,1,1,1,1,1,1,2,1,2,2,2,2,2,1,1,2,1,2,1,1,1,1,2,2,1,1,2,2,1,2,1,1,1,2,1,2,2,1,2,2,2,2,1,1,2,2,2,2,2,2,2,1,1,1,1],"img_shown":["img2/300/Congruent/R/C_Dist_300_LN_1_LD_5_RN_6_RD_12_1.png","img2/300/Incongruent/L/I_Dist_300_LN_1_LD_2_RN_2_RD_10_0.png","img2/200/Congruent/L/C_Dist_200_LN_6_LD_15_RN_3_RD_15_0.png","img2/300/Congruent/L/C_Dist_300_LN_4_LD_5_RN_2_RD_4_0.png","img2/100/Incongruent/R/I_Dist_100_LN_10_LD_25_RN_8_RD_16_1.png","img2/300/Incongruent/L/I_Dist_300_LN_1_LD_2_RN_3_RD_15_0.png","img2/200/Incongruent/R/I_Dist_200_LN_14_LD_30_RN_6_RD_9_1.png","img2/100/Incongruent/R/I_Dist_100_LN_11_LD_22_RN_9_RD_15_1.png","img2/300/Incongruent/R/I_Dist_300_LN_13_LD_26_RN_12_RD_15_1.png","img2/100/Congruent/L/C_Dist_100_LN_15_LD_25_RN_13_RD_26_0.png","img2/300/Incongruent/R/I_Dist_300_LN_13_LD_26_RN_12_RD_15_1.png","img2/200/Congruent/R/C_Dist_200_LN_6_LD_12_RN_7_RD_10_1.png","img2/300/Incongruent/L/I_Dist_300_LN_4_LD_5_RN_8_RD_16_0.png","img2/300/Incongruent/L/I_Dist_300_LN_4_LD_5_RN_6_RD_12_0.png","img2/300/Congruent/L/C_Dist_300_LN_18_LD_20_RN_9_RD_15_0.png","img2/200/Congruent/L/C_Dist_200_LN_6_LD_15_RN_3_RD_15_0.png","img2/300/Incongruent/R/I_Dist_300_LN_13_LD_26_RN_12_RD_15_1.png","img2/100/Congruent/L/C_Dist_100_LN_6_LD_20_RN_5_RD_25_0.png","img2/200/Congruent/R/C_Dist_200_LN_7_LD_15_RN_18_RD_27_1.png","img2/100/Incongruent/R/I_Dist_100_LN_13_LD_26_RN_6_RD_10_1.png","img2/300/Incongruent/L/I_Dist_300_LN_4_LD_5_RN_6_RD_12_0.png","img2/100/Incongruent/L/I_Dist_100_LN_3_LD_5_RN_11_RD_22_0.png","img2/100/Incongruent/R/I_Dist_100_LN_12_LD_30_RN_2_RD_4_1.png","img2/100/Congruent/R/C_Dist_100_LN_12_LD_30_RN_13_RD_26_1.png","img2/200/Congruent/R/C_Dist_200_LN_6_LD_12_RN_7_RD_10_1.png","img2/200/Congruent/L/C_Dist_200_LN_9_LD_20_RN_4_RD_16_0.png","img2/100/Incongruent/L/I_Dist_100_LN_2_LD_4_RN_6_RD_15_0.png","img2/200/Incongruent/R/I_Dist_200_LN_14_LD_30_RN_12_RD_18_1.png","img2/100/Congruent/L/C_Dist_100_LN_9_LD_15_RN_8_RD_16_0.png","img2/200/Congruent/L/C_Dist_200_LN_8_LD_15_RN_3_RD_9_0.png","img2/200/Incongruent/R/I_Dist_200_LN_3_LD_10_RN_1_RD_2_1.png","img2/100/Incongruent/L/I_Dist_100_LN_9_LD_10_RN_20_RD_25_0.png","img2/200/Incongruent/L/I_Dist_200_LN_4_LD_5_RN_6_RD_10_0.png","img2/300/Congruent/R/C_Dist_300_LN_3_LD_12_RN_11_RD_20_1.png","img2/300/Incongruent/L/I_Dist_300_LN_7_LD_10_RN_8_RD_20_0.png","img2/300/Congruent/R/C_Dist_300_LN_5_LD_25_RN_6_RD_12_1.png","img2/100/Incongruent/L/I_Dist_100_LN_3_LD_6_RN_4_RD_10_0.png","img2/100/Congruent/R/C_Dist_100_LN_1_LD_2_RN_3_RD_5_1.png","img2/100/Incongruent/R/I_Dist_100_LN_10_LD_25_RN_8_RD_16_1.png","img2/100/Congruent/R/C_Dist_100_LN_1_LD_2_RN_3_RD_5_1.png","img2/200/Incongruent/R/I_Dist_200_LN_14_LD_30_RN_6_RD_9_1.png","img2/200/Incongruent/R/I_Dist_200_LN_3_LD_10_RN_1_RD_2_1.png","img2/200/Incongruent/L/I_Dist_200_LN_7_LD_10_RN_12_RD_24_0.png","img2/200/Congruent/L/C_Dist_200_LN_8_LD_15_RN_3_RD_9_0.png","img2/200/Congruent/R/C_Dist_200_LN_13_LD_26_RN_14_RD_20_1.png","img2/100/Incongruent/R/I_Dist_100_LN_12_LD_30_RN_2_RD_4_1.png","img2/100/Congruent/L/C_Dist_100_LN_3_LD_6_RN_2_RD_5_0.png","img2/200/Congruent/L/C_Dist_200_LN_11_LD_22_RN_3_RD_10_0.png","img2/200/Incongruent/R/I_Dist_200_LN_14_LD_30_RN_6_RD_9_1.png","img2/300/Incongruent/L/I_Dist_300_LN_4_LD_5_RN_8_RD_16_0.png","img2/200/Congruent/R/C_Dist_200_LN_6_LD_12_RN_7_RD_10_1.png","img2/100/Incongruent/L/I_Dist_100_LN_3_LD_5_RN_11_RD_22_0.png","img2/200/Incongruent/L/I_Dist_200_LN_1_LD_2_RN_3_RD_10_0.png","img2/100/Congruent/L/C_Dist_100_LN_11_LD_22_RN_4_RD_10_0.png","img2/100/Congruent/R/C_Dist_100_LN_4_LD_10_RN_15_RD_30_1.png","img2/300/Congruent/L/C_Dist_300_LN_24_LD_30_RN_2_RD_4_0.png","img2/300/Congruent/R/C_Dist_300_LN_1_LD_5_RN_3_RD_6_1.png","img2/100/Incongruent/L/I_Dist_100_LN_2_LD_4_RN_8_RD_20_0.png","img2/300/Incongruent/L/I_Dist_300_LN_1_LD_2_RN_3_RD_15_0.png","img2/200/Incongruent/R/I_Dist_200_LN_4_LD_30_RN_1_RD_3_1.png","img2/300/Congruent/R/C_Dist_300_LN_7_LD_14_RN_20_RD_25_1.png","img2/100/Congruent/R/C_Dist_100_LN_7_LD_14_RN_9_RD_15_1.png","img2/300/Incongruent/R/I_Dist_300_LN_13_LD_26_RN_12_RD_15_1.png","img2/200/Incongruent/L/I_Dist_200_LN_3_LD_4_RN_11_RD_20_0.png","img2/300/Incongruent/R/I_Dist_300_LN_13_LD_26_RN_12_RD_15_1.png","img2/100/Congruent/L/C_Dist_100_LN_6_LD_20_RN_5_RD_25_0.png","img2/100/Congruent/L/C_Dist_100_LN_6_LD_20_RN_5_RD_25_0.png","img2/200/Congruent/L/C_Dist_200_LN_16_LD_20_RN_12_RD_20_0.png","img2/200/Incongruent/L/I_Dist_200_LN_7_LD_10_RN_14_RD_28_0.png","img2/200/Incongruent/L/I_Dist_200_LN_4_LD_5_RN_6_RD_10_0.png","img2/100/Incongruent/L/I_Dist_100_LN_2_LD_4_RN_8_RD_20_0.png","img2/100/Incongruent/R/I_Dist_100_LN_6_LD_12_RN_3_RD_5_1.png","img2/300/Congruent/L/C_Dist_300_LN_18_LD_20_RN_9_RD_15_0.png","img2/200/Congruent/R/C_Dist_200_LN_1_LD_2_RN_21_RD_30_1.png","img2/300/Congruent/R/C_Dist_300_LN_8_LD_15_RN_10_RD_12_1.png","img2/300/Congruent/R/C_Dist_300_LN_5_LD_25_RN_6_RD_12_1.png","img2/300/Congruent/R/C_Dist_300_LN_8_LD_15_RN_10_RD_12_1.png","img2/200/Congruent/R/C_Dist_200_LN_3_LD_6_RN_14_RD_20_1.png","img2/100/Congruent/L/C_Dist_100_LN_6_LD_20_RN_5_RD_25_0.png","img2/200/Congruent/L/C_Dist_200_LN_11_LD_22_RN_3_RD_10_0.png","img2/300/Congruent/R/C_Dist_300_LN_2_LD_20_RN_10_RD_25_1.png","img2/300/Congruent/L/C_Dist_300_LN_4_LD_10_RN_1_RD_10_0.png","img2/200/Incongruent/R/I_Dist_200_LN_3_LD_10_RN_1_RD_2_1.png","img2/200/Incongruent/L/I_Dist_200_LN_7_LD_10_RN_8_RD_16_0.png","img2/200/Congruent/L/C_Dist_200_LN_8_LD_15_RN_7_RD_21_0.png","img2/100/Incongruent/L/I_Dist_100_LN_2_LD_4_RN_6_RD_15_0.png","img2/300/Incongruent/L/I_Dist_300_LN_4_LD_5_RN_6_RD_12_0.png","img2/300/Incongruent/R/I_Dist_300_LN_4_LD_20_RN_2_RD_4_1.png","img2/300/Incongruent/R/I_Dist_300_LN_4_LD_20_RN_2_RD_4_1.png","img2/100/Congruent/L/C_Dist_100_LN_15_LD_25_RN_13_RD_26_0.png","img2/200/Incongruent/L/I_Dist_200_LN_4_LD_6_RN_14_RD_30_0.png","img2/100/Congruent/R/C_Dist_100_LN_7_LD_14_RN_9_RD_15_1.png","img2/300/Congruent/R/C_Dist_300_LN_1_LD_5_RN_3_RD_6_1.png","img2/200/Incongruent/L/I_Dist_200_LN_7_LD_10_RN_12_RD_24_0.png","img2/100/Congruent/R/C_Dist_100_LN_2_LD_5_RN_6_RD_12_1.png","img2/300/Incongruent/L/I_Dist_300_LN_4_LD_5_RN_6_RD_12_0.png","img2/100/Incongruent/L/I_Dist_100_LN_2_LD_4_RN_6_RD_15_0.png","img2/100/Congruent/L/C_Dist_100_LN_10_LD_25_RN_3_RD_10_0.png","img2/200/Congruent/R/C_Dist_200_LN_6_LD_20_RN_11_RD_22_1.png","img2/200/Congruent/L/C_Dist_200_LN_21_LD_30_RN_2_RD_4_0.png","img2/200/Incongruent/R/I_Dist_200_LN_4_LD_30_RN_1_RD_3_1.png","img2/100/Congruent/R/C_Dist_100_LN_1_LD_2_RN_3_RD_5_1.png","img2/200/Congruent/L/C_Dist_200_LN_11_LD_22_RN_3_RD_10_0.png","img2/100/Congruent/R/C_Dist_100_LN_6_LD_12_RN_15_RD_25_1.png","img2/200/Incongruent/R/I_Dist_200_LN_6_LD_20_RN_3_RD_6_1.png","img2/300/Incongruent/R/I_Dist_300_LN_4_LD_20_RN_2_RD_4_1.png","img2/300/Congruent/R/C_Dist_300_LN_1_LD_20_RN_7_RD_20_1.png","img2/100/Incongruent/L/I_Dist_100_LN_2_LD_4_RN_8_RD_20_0.png","img2/300/Congruent/L/C_Dist_300_LN_20_LD_25_RN_13_RD_26_0.png","img2/100/Incongruent/R/I_Dist_100_LN_17_LD_30_RN_10_RD_15_1.png","img2/300/Congruent/R/C_Dist_300_LN_1_LD_30_RN_8_RD_24_1.png","img2/100/Incongruent/R/I_Dist_100_LN_12_LD_24_RN_9_RD_15_1.png","img2/100/Congruent/R/C_Dist_100_LN_1_LD_2_RN_3_RD_5_1.png","img2/300/Incongruent/R/I_Dist_300_LN_13_LD_26_RN_12_RD_15_1.png","img2/300/Congruent/R/C_Dist_300_LN_4_LD_20_RN_13_RD_26_1.png","img2/200/Incongruent/R/I_Dist_200_LN_14_LD_30_RN_6_RD_9_1.png","img2/300/Congruent/L/C_Dist_300_LN_20_LD_25_RN_13_RD_26_0.png","img2/300/Incongruent/L/I_Dist_300_LN_2_LD_4_RN_6_RD_30_0.png","img2/200/Congruent/L/C_Dist_200_LN_7_LD_21_RN_2_RD_15_0.png","img2/100/Incongruent/L/I_Dist_100_LN_2_LD_4_RN_8_RD_20_0.png"],"dist100_C":[["C_Dist_100_LN_10_LD_25_RN_3_RD_10_0.png","C_Dist_100_LN_11_LD_22_RN_4_RD_10_0.png","C_Dist_100_LN_11_LD_22_RN_6_RD_15_0.png","C_Dist_100_LN_15_LD_25_RN_13_RD_26_0.png","C_Dist_100_LN_3_LD_6_RN_2_RD_5_0.png","C_Dist_100_LN_6_LD_20_RN_5_RD_25_0.png","C_Dist_100_LN_8_LD_16_RN_2_RD_5_0.png","C_Dist_100_LN_9_LD_15_RN_8_RD_16_0.png"],["C_Dist_100_LN_1_LD_2_RN_18_RD_30_1.png","C_Dist_100_LN_1_LD_2_RN_3_RD_5_1.png","C_Dist_100_LN_12_LD_30_RN_13_RD_26_1.png","C_Dist_100_LN_2_LD_5_RN_11_RD_22_1.png","C_Dist_100_LN_2_LD_5_RN_6_RD_12_1.png","C_Dist_100_LN_3_LD_20_RN_4_RD_16_1.png","C_Dist_100_LN_4_LD_10_RN_15_RD_30_1.png","C_Dist_100_LN_4_LD_8_RN_6_RD_10_1.png","C_Dist_100_LN_6_LD_12_RN_15_RD_25_1.png","C_Dist_100_LN_7_LD_14_RN_15_RD_25_1.png","C_Dist_100_LN_7_LD_14_RN_9_RD_15_1.png"]],"dist100_I":[["I_Dist_100_LN_1_LD_2_RN_8_RD_20_0.png","I_Dist_100_LN_2_LD_4_RN_6_RD_15_0.png","I_Dist_100_LN_2_LD_4_RN_8_RD_20_0.png","I_Dist_100_LN_3_LD_5_RN_11_RD_22_0.png","I_Dist_100_LN_3_LD_5_RN_8_RD_16_0.png","I_Dist_100_LN_3_LD_6_RN_4_RD_10_0.png","I_Dist_100_LN_3_LD_9_RN_7_RD_30_0.png","I_Dist_100_LN_4_LD_8_RN_8_RD_20_0.png","I_Dist_100_LN_6_LD_10_RN_11_RD_22_0.png","I_Dist_100_LN_6_LD_10_RN_13_RD_26_0.png","I_Dist_100_LN_6_LD_10_RN_7_RD_14_0.png","I_Dist_100_LN_9_LD_10_RN_20_RD_25_0.png","I_Dist_100_LN_9_LD_15_RN_13_RD_26_0.png","I_Dist_100_LN_9_LD_15_RN_14_RD_28_0.png"],["I_Dist_100_LN_10_LD_25_RN_8_RD_16_1.png","I_Dist_100_LN_10_LD_25_RN_9_RD_18_1.png","I_Dist_100_LN_11_LD_22_RN_9_RD_15_1.png","I_Dist_100_LN_12_LD_24_RN_9_RD_15_1.png","I_Dist_100_LN_12_LD_30_RN_2_RD_4_1.png","I_Dist_100_LN_13_LD_26_RN_12_RD_20_1.png","I_Dist_100_LN_13_LD_26_RN_6_RD_10_1.png","I_Dist_100_LN_17_LD_30_RN_10_RD_15_1.png","I_Dist_100_LN_6_LD_12_RN_3_RD_5_1.png","I_Dist_100_LN_8_LD_16_RN_6_RD_10_1.png","I_Dist_100_LN_8_LD_20_RN_1_RD_2_1.png","I_Dist_100_LN_9_LD_18_RN_6_RD_10_1.png"]],"dist100_S":[["E_Dist_100_LN_2_LD_12_RN_2_RD_30_0.png","E_Dist_100_LN_6_LD_10_RN_6_RD_12_0.png"],["E_Dist_100_LN_6_LD_12_RN_6_RD_10_1.png"]],"dist200_C":[["C_Dist_200_LN_11_LD_22_RN_3_RD_10_0.png","C_Dist_200_LN_12_LD_15_RN_6_RD_10_0.png","C_Dist_200_LN_12_LD_20_RN_6_RD_15_0.png","C_Dist_200_LN_14_LD_28_RN_6_RD_20_0.png","C_Dist_200_LN_15_LD_25_RN_4_RD_10_0.png","C_Dist_200_LN_16_LD_20_RN_12_RD_20_0.png","C_Dist_200_LN_16_LD_30_RN_9_RD_27_0.png","C_Dist_200_LN_20_LD_25_RN_9_RD_15_0.png","C_Dist_200_LN_21_LD_30_RN_2_RD_4_0.png","C_Dist_200_LN_4_LD_10_RN_3_RD_15_0.png","C_Dist_200_LN_4_LD_8_RN_3_RD_10_0.png","C_Dist_200_LN_6_LD_15_RN_3_RD_15_0.png","C_Dist_200_LN_7_LD_21_RN_2_RD_15_0.png","C_Dist_200_LN_8_LD_15_RN_2_RD_6_0.png","C_Dist_200_LN_8_LD_15_RN_3_RD_9_0.png","C_Dist_200_LN_8_LD_15_RN_7_RD_21_0.png","C_Dist_200_LN_9_LD_20_RN_4_RD_16_0.png"],["C_Dist_200_LN_1_LD_2_RN_21_RD_30_1.png","C_Dist_200_LN_13_LD_26_RN_14_RD_20_1.png","C_Dist_200_LN_3_LD_10_RN_11_RD_22_1.png","C_Dist_200_LN_3_LD_10_RN_14_RD_28_1.png","C_Dist_200_LN_3_LD_10_RN_7_RD_14_1.png","C_Dist_200_LN_3_LD_12_RN_9_RD_20_1.png","C_Dist_200_LN_3_LD_6_RN_14_RD_20_1.png","C_Dist_200_LN_5_LD_10_RN_14_RD_20_1.png","C_Dist_200_LN_6_LD_12_RN_7_RD_10_1.png","C_Dist_200_LN_6_LD_20_RN_11_RD_22_1.png","C_Dist_200_LN_7_LD_15_RN_18_RD_27_1.png","C_Dist_200_LN_9_LD_30_RN_13_RD_26_1.png"]],"dist200_I":[["I_Dist_200_LN_1_LD_2_RN_3_RD_10_0.png","I_Dist_200_LN_1_LD_3_RN_2_RD_15_0.png","I_Dist_200_LN_3_LD_4_RN_11_RD_20_0.png","I_Dist_200_LN_4_LD_5_RN_6_RD_10_0.png","I_Dist_200_LN_4_LD_6_RN_14_RD_30_0.png","I_Dist_200_LN_7_LD_10_RN_12_RD_24_0.png","I_Dist_200_LN_7_LD_10_RN_14_RD_28_0.png","I_Dist_200_LN_7_LD_10_RN_8_RD_16_0.png"],["I_Dist_200_LN_11_LD_20_RN_3_RD_4_1.png","I_Dist_200_LN_14_LD_30_RN_12_RD_18_1.png","I_Dist_200_LN_14_LD_30_RN_6_RD_9_1.png","I_Dist_200_LN_3_LD_10_RN_1_RD_2_1.png","I_Dist_200_LN_4_LD_30_RN_1_RD_3_1.png","I_Dist_200_LN_6_LD_20_RN_3_RD_6_1.png","I_Dist_200_LN_7_LD_15_RN_4_RD_6_1.png","I_Dist_200_LN_7_LD_15_RN_6_RD_9_1.png","I_Dist_200_LN_9_LD_15_RN_8_RD_10_1.png"]],"dist200_S":[["E_Dist_200_LN_3_LD_6_RN_3_RD_10_0.png"],["E_Dist_200_LN_3_LD_10_RN_3_RD_6_1.png"]],"dist300_C":[["C_Dist_300_LN_11_LD_22_RN_1_RD_5_0.png","C_Dist_300_LN_11_LD_22_RN_2_RD_10_0.png","C_Dist_300_LN_11_LD_22_RN_4_RD_20_0.png","C_Dist_300_LN_12_LD_24_RN_2_RD_10_0.png","C_Dist_300_LN_18_LD_20_RN_9_RD_15_0.png","C_Dist_300_LN_20_LD_25_RN_13_RD_26_0.png","C_Dist_300_LN_20_LD_25_RN_14_RD_28_0.png","C_Dist_300_LN_20_LD_25_RN_5_RD_10_0.png","C_Dist_300_LN_20_LD_25_RN_8_RD_16_0.png","C_Dist_300_LN_20_LD_25_RN_9_RD_18_0.png","C_Dist_300_LN_24_LD_30_RN_2_RD_4_0.png","C_Dist_300_LN_24_LD_30_RN_8_RD_16_0.png","C_Dist_300_LN_3_LD_6_RN_2_RD_10_0.png","C_Dist_300_LN_4_LD_10_RN_1_RD_10_0.png","C_Dist_300_LN_4_LD_5_RN_2_RD_4_0.png","C_Dist_300_LN_8_LD_16_RN_1_RD_5_0.png","C_Dist_300_LN_9_LD_10_RN_3_RD_5_0.png"],["C_Dist_300_LN_1_LD_20_RN_7_RD_20_1.png","C_Dist_300_LN_1_LD_3_RN_19_RD_30_1.png","C_Dist_300_LN_1_LD_30_RN_8_RD_24_1.png","C_Dist_300_LN_1_LD_5_RN_11_RD_22_1.png","C_Dist_300_LN_1_LD_5_RN_3_RD_6_1.png","C_Dist_300_LN_1_LD_5_RN_6_RD_12_1.png","C_Dist_300_LN_2_LD_10_RN_12_RD_24_1.png","C_Dist_300_LN_2_LD_20_RN_10_RD_25_1.png","C_Dist_300_LN_3_LD_12_RN_11_RD_20_1.png","C_Dist_300_LN_3_LD_6_RN_4_RD_5_1.png","C_Dist_300_LN_4_LD_20_RN_13_RD_26_1.png","C_Dist_300_LN_5_LD_25_RN_6_RD_12_1.png","C_Dist_300_LN_5_LD_25_RN_7_RD_14_1.png","C_Dist_300_LN_7_LD_14_RN_20_RD_25_1.png","C_Dist_300_LN_8_LD_15_RN_10_RD_12_1.png"]],"dist300_I":[["I_Dist_300_LN_1_LD_2_RN_2_RD_10_0.png","I_Dist_300_LN_1_LD_2_RN_3_RD_15_0.png","I_Dist_300_LN_2_LD_4_RN_6_RD_30_0.png","I_Dist_300_LN_3_LD_6_RN_4_RD_20_0.png","I_Dist_300_LN_4_LD_5_RN_6_RD_12_0.png","I_Dist_300_LN_4_LD_5_RN_8_RD_16_0.png","I_Dist_300_LN_7_LD_10_RN_8_RD_20_0.png","I_Dist_300_LN_8_LD_10_RN_14_RD_28_0.png","I_Dist_300_LN_8_LD_10_RN_9_RD_18_0.png"],["I_Dist_300_LN_13_LD_26_RN_12_RD_15_1.png","I_Dist_300_LN_4_LD_20_RN_2_RD_4_1.png"]],"dist300_S":[["E_Dist_300_LN_9_LD_12_RN_9_RD_20_0.png"],["E_Dist_300_LN_18_LD_30_RN_18_RD_20_1.png","E_Dist_300_LN_3_LD_10_RN_3_RD_5_1.png","E_Dist_300_LN_9_LD_20_RN_9_RD_12_1.png"]],"dist500_C":[["C_Dist_500_LN_10_LD_13_RN_7_RD_26_0.png","C_Dist_500_LN_10_LD_15_RN_4_RD_24_0.png","C_Dist_500_LN_12_LD_16_RN_3_RD_12_0.png","C_Dist_500_LN_12_LD_18_RN_4_RD_24_0.png","C_Dist_500_LN_15_LD_18_RN_5_RD_15_0.png","C_Dist_500_LN_15_LD_20_RN_1_RD_4_0.png","C_Dist_500_LN_18_LD_27_RN_1_RD_6_0.png","C_Dist_500_LN_20_LD_24_RN_1_RD_3_0.png","C_Dist_500_LN_20_LD_24_RN_3_RD_9_0.png","C_Dist_500_LN_20_LD_24_RN_7_RD_21_0.png","C_Dist_500_LN_20_LD_28_RN_3_RD_14_0.png","C_Dist_500_LN_21_LD_28_RN_6_RD_24_0.png","C_Dist_500_LN_22_LD_28_RN_2_RD_7_0.png","C_Dist_500_LN_25_LD_30_RN_9_RD_27_0.png","C_Dist_500_LN_4_LD_6_RN_1_RD_6_0.png","C_Dist_500_LN_5_LD_6_RN_2_RD_6_0.png","C_Dist_500_LN_6_LD_9_RN_1_RD_6_0.png","C_Dist_500_LN_7_LD_10_RN_1_RD_5_0.png","C_Dist_500_LN_8_LD_12_RN_1_RD_6_0.png","C_Dist_500_LN_8_LD_12_RN_4_RD_24_0.png"],["C_Dist_500_LN_1_LD_4_RN_12_RD_16_1.png","C_Dist_500_LN_1_LD_4_RN_9_RD_12_1.png","C_Dist_500_LN_1_LD_9_RN_11_RD_18_1.png","C_Dist_500_LN_10_LD_24_RN_22_RD_24_1.png","C_Dist_500_LN_2_LD_12_RN_10_RD_15_1.png","C_Dist_500_LN_2_LD_12_RN_12_RD_18_1.png","C_Dist_500_LN_2_LD_12_RN_4_RD_6_1.png","C_Dist_500_LN_2_LD_24_RN_7_RD_12_1.png","C_Dist_500_LN_2_LD_5_RN_18_RD_20_1.png","C_Dist_500_LN_2_LD_5_RN_9_RD_10_1.png","C_Dist_500_LN_2_LD_8_RN_12_RD_16_1.png","C_Dist_500_LN_2_LD_8_RN_21_RD_28_1.png","C_Dist_500_LN_3_LD_10_RN_4_RD_5_1.png","C_Dist_500_LN_3_LD_12_RN_15_RD_20_1.png","C_Dist_500_LN_3_LD_30_RN_6_RD_10_1.png","C_Dist_500_LN_3_LD_8_RN_14_RD_16_1.png","C_Dist_500_LN_4_LD_16_RN_15_RD_20_1.png","C_Dist_500_LN_4_LD_24_RN_12_RD_18_1.png","C_Dist_500_LN_5_LD_14_RN_6_RD_7_1.png","C_Dist_500_LN_7_LD_21_RN_20_RD_24_1.png","C_Dist_500_LN_7_LD_28_RN_12_RD_16_1.png","C_Dist_500_LN_7_LD_28_RN_9_RD_12_1.png","C_Dist_500_LN_9_LD_27_RN_20_RD_24_1.png"]],"dist500_I":[["I_Dist_500_LN_2_LD_3_RN_4_RD_24_0.png","I_Dist_500_LN_5_LD_6_RN_6_RD_18_0.png","I_Dist_500_LN_7_LD_8_RN_9_RD_24_0.png"],["I_Dist_500_LN_7_LD_21_RN_5_RD_6_1.png"]],"dist500_S":[["E_Dist_500_LN_6_LD_8_RN_6_RD_24_0.png"],["E_Dist_500_LN_2_LD_12_RN_2_RD_3_1.png","E_Dist_500_LN_6_LD_24_RN_6_RD_8_1.png"]]}},{"start_time":1552054125264,"click_time":1552054126216,"finger_time":1552054125696,"fix_duration":947.7434104487082,"trial":1,"RT":432,"MT":520,"sideResp":2,"stimulus":[],"xmouse":[788,788,788,788,788,788,788,788,788,788,788,788,788,788,789,789,794,798,805,814,825,840,851,867,887,910,947,962,973,989,1001,1027,1033,1035,1037,1037,1037,1040,1045,1052,1058,1081,1084,1085,1085,1085,1085,1086],"ymouse":[628,628,628,628,628,628,628,628,628,628,628,628,628,628,628,627,616,609,599,589,576,555,539,517,492,458,412,388,367,341,320,272,261,254,252,250,250,246,238,230,219,182,165,145,133,122,104,96],"timestamp_mouse":[14,50,51,73,93,111,131,151,173,191,212,232,252,272,292,311,332,353,372,392,411,431,451,471,491,511,531,552,572,593,612,632,652,671,691,711,732,753,771,792,811,831,853,871,891,912,931,951],"xSR":741.5,"ySR":573.95,"xT1":424.9,"yT1":0,"xT2":1058.1,"yT2":0,"toosoon":0,"cond_shown":"Incongruent","ratio_trial":300,"L_num":1,"L_den":2,"R_num":2,"R_den":10,"correct_side":1,"subjID":"OSCARCENDALES32","gender":"0","school":"4","age":"9"},{"start_time":1552054127836,"click_time":1552054129897,"finger_time":1552054129615,"fix_duration":679.9074555403481,"trial":2,"RT":1779,"MT":282,"sideResp":1,"stimulus":[],"xmouse":[796,796,796,796,796,796,796,796,796,796,796,796,796,796,796,796,796,796,796,796,796,796,796,796,796,796,796,796,796,796,796,796,796,796,796,796,796,796,796,796,796,796,796,796,796,796,796,796,796,796,796,796,796,796,796,796,796,796,796,796,796,796,796,796,796,796,796,796,796,796,796,796,796,796,796,796,796,796,796,796,796,796,796,796,796,796,793,767,719,700,651,620,596,580,580,581,583,584,586,586,581,554,520],"ymouse":[639,639,639,639,639,639,639,639,639,639,639,639,639,639,639,639,639,639,639,639,639,639,639,639,639,639,639,639,639,639,639,639,639,639,639,639,639,639,639,639,639,639,639,639,639,639,639,639,639,639,639,639,639,639,639,639,639,639,639,639,639,639,639,639,639,639,639,639,639,639,639,639,639,639,639,639,639,639,639,639,639,639,639,639,639,639,639,607,539,509,414,354,305,233,217,207,200,194,172,145,136,106,77],"timestamp_mouse":[21,40,60,79,99,121,139,159,180,200,221,241,260,279,299,320,340,360,380,401,421,441,460,480,501,520,539,559,581,600,621,641,660,679,699,719,740,759,780,801,820,839,860,880,900,920,939,960,979,1000,1019,1040,1059,1081,1100,1119,1140,1160,1180,1201,1220,1239,1260,1280,1299,1321,1341,1360,1380,1399,1420,1440,1461,1481,1500,1520,1539,1559,1580,1599,1619,1639,1660,1679,1701,1721,1741,1760,1779,1799,1819,1841,1860,1879,1900,1920,1939,1961,1981,2000,2019,2040,2060],"xSR":741.5,"ySR":573.95,"xT1":424.9,"yT1":0,"xT2":1058.1,"yT2":0,"toosoon":0,"cond_shown":"Congruent","ratio_trial":200,"L_num":6,"L_den":15,"R_num":3,"R_den":15,"correct_side":1,"subjID":"OSCARCENDALES32","gender":"0","school":"4","age":"9"},{"start_time":1552054133141,"click_time":1552054134537,"finger_time":1552054134116,"fix_duration":1224.1378464016727,"trial":3,"RT":975,"MT":421,"sideResp":1,"stimulus":[],"xmouse":[795,795,795,795,795,795,795,795,795,795,795,795,795,795,795,795,795,795,795,795,795,795,795,795,795,795,795,795,795,795,795,795,795,795,795,795,795,795,795,795,795,795,795,795,795,795,795,793,783,772,762,758,757,757,757,754,748,743,731,725,716,708,699,666,647,615,579,542,490,465],"ymouse":[598,598,598,598,598,598,598,598,598,598,598,598,598,598,598,598,598,598,598,598,598,598,598,598,598,598,598,598,598,598,598,598,598,598,598,598,598,598,598,598,598,598,598,598,598,598,594,588,542,504,461,438,421,396,387,374,362,352,336,331,323,316,306,267,248,219,187,155,111,92],"timestamp_mouse":[16,39,55,75,96,114,135,155,175,194,216,234,254,274,296,314,335,355,376,395,415,435,456,474,494,514,535,556,574,595,615,634,655,674,695,715,735,754,775,795,815,835,856,874,895,915,935,954,974,996,1016,1035,1054,1075,1094,1114,1134,1156,1174,1194,1218,1234,1254,1274,1294,1315,1336,1355,1374,1396],"xSR":741.5,"ySR":573.95,"xT1":424.9,"yT1":0,"xT2":1058.1,"yT2":0,"toosoon":0,"cond_shown":"Congruent","ratio_trial":300,"L_num":4,"L_den":5,"R_num":2,"R_den":4,"correct_side":1,"subjID":"OSCARCENDALES32","gender":"0","school":"4","age":"9"},{"start_time":1552054152595,"click_time":1552054154896,"finger_time":1552054154176,"fix_duration":1156.181463290508,"trial":4,"RT":1581,"MT":720,"sideResp":2,"stimulus":[],"xmouse":[800,800,800,800,800,801,801,801,801,801,801,801,801,801,801,801,801,801,801,801,801,801,801,801,801,801,801,801,801,801,801,801,801,801,801,801,801,801,801,801,801,801,801,801,801,801,801,801,801,801,801,801,801,801,801,801,801,801,801,801,801,801,801,801,801,801,801,801,801,801,801,801,801,804,805,808,811,819,831,867,892,920,954,982,994,1002,1009,1020,1044,1056,1070,1084,1105,1124,1131,1133,1134,1134,1134,1134,1134,1134,1134,1134,1134,1134,1134,1134,1134,1134,1134,1134,1134,1134,1128,1120],"ymouse":[643,643,643,643,643,643,643,643,643,643,643,643,643,643,643,643,643,643,643,643,643,643,643,643,643,643,643,643,643,643,643,643,643,643,643,643,643,643,643,643,643,643,643,643,643,643,643,643,643,643,643,643,643,643,643,643,643,643,643,643,643,643,643,643,643,643,643,643,643,643,643,643,643,640,638,635,631,619,603,551,517,480,433,391,371,355,342,324,288,268,247,224,186,147,132,121,114,112,112,112,112,112,112,112,111,111,111,111,111,111,111,111,111,111,106,95],"timestamp_mouse":[12,21,41,60,80,102,120,141,162,181,201,221,240,260,281,302,320,340,360,381,402,421,440,460,481,500,521,541,561,580,602,621,640,660,681,702,720,741,760,781,801,821,840,860,881,900,922,940,960,981,1002,1022,1041,1060,1081,1100,1121,1141,1161,1181,1201,1221,1241,1260,1282,1301,1322,1341,1360,1382,1401,1421,1441,1460,1482,1501,1521,1541,1560,1581,1601,1622,1641,1661,1680,1700,1721,1741,1761,1780,1800,1822,1841,1861,1880,1900,1921,1940,1961,1981,2000,2020,2042,2061,2080,2101,2121,2142,2161,2181,2202,2221,2240,2261,2280,2301],"xSR":741.5,"ySR":573.95,"xT1":424.9,"yT1":0,"xT2":1058.1,"yT2":0,"toosoon":0,"cond_shown":"Incongruent","ratio_trial":100,"L_num":10,"L_den":25,"R_num":8,"R_den":16,"correct_side":2,"subjID":"OSCARCENDALES32","gender":"0","school":"4","age":"9"},{"start_time":1552054157736,"click_time":1552054159275,"finger_time":1552054158575,"fix_duration":776.1466329522655,"trial":5,"RT":839,"MT":700,"sideResp":1,"stimulus":[],"xmouse":[763,763,763,763,763,763,763,763,763,763,763,763,763,763,763,763,764,764,764,764,764,764,764,764,764,764,764,764,764,764,764,764,764,764,764,764,764,764,764,764,764,764,761,750,727,689,642,554,532,521,516,514,514,514,514,514,514,514,514,514,512,510,504,502,501,500,499,494,490,486,481,475,466,464,464,463,462,456],"ymouse":[579,579,579,579,579,579,579,579,579,579,579,579,579,579,579,579,579,579,579,579,579,579,579,579,579,579,579,579,579,579,579,579,579,579,579,579,579,579,579,579,579,579,569,550,524,483,427,310,269,248,235,227,226,226,226,226,225,220,214,206,198,187,169,166,165,165,165,163,163,160,156,150,128,122,118,114,111,99],"timestamp_mouse":[10,21,39,60,81,99,120,141,161,180,199,219,240,260,280,301,321,339,360,381,399,421,441,460,481,500,519,539,559,579,600,620,641,661,680,699,720,739,760,781,799,819,839,860,879,899,920,939,960,979,999,1019,1040,1059,1080,1100,1121,1141,1161,1179,1200,1221,1240,1260,1279,1300,1320,1339,1361,1380,1400,1419,1441,1460,1480,1500,1520,1539],"xSR":741.5,"ySR":573.95,"xT1":424.9,"yT1":0,"xT2":1058.1,"yT2":0,"toosoon":0,"cond_shown":"Incongruent","ratio_trial":300,"L_num":1,"L_den":2,"R_num":3,"R_den":15,"correct_side":1,"subjID":"OSCARCENDALES32","gender":"0","school":"4","age":"9"},{"start_time":1552054162231,"click_time":1552054163317,"finger_time":1552054163116,"fix_duration":873.1653979949275,"trial":6,"RT":885,"MT":201,"sideResp":2,"stimulus":[],"xmouse":[798,798,798,798,798,798,798,798,798,798,798,798,798,798,798,798,798,798,798,798,798,798,798,798,798,798,798,798,798,798,798,798,798,798,798,798,798,798,798,799,799,799,800,803,819,827,857,922,957,992,1021,1050,1073,1084,1101],"ymouse":[586,586,586,586,586,586,586,586,586,586,586,586,586,586,586,586,586,586,586,586,586,586,586,586,586,586,586,586,586,586,586,586,586,586,586,586,586,585,585,584,584,584,584,584,568,560,518,413,349,288,242,194,143,116,76],"timestamp_mouse":[13,25,44,66,86,105,124,144,165,186,204,226,245,266,285,304,325,345,365,386,404,426,445,465,485,504,525,545,565,586,604,624,644,664,685,706,725,745,765,784,804,825,846,865,885,905,926,945,965,985,1005,1025,1045,1064,1085],"xSR":741.5,"ySR":573.95,"xT1":424.9,"yT1":0,"xT2":1058.1,"yT2":0,"toosoon":0,"cond_shown":"Incongruent","ratio_trial":200,"L_num":14,"L_den":30,"R_num":6,"R_den":9,"correct_side":2,"subjID":"OSCARCENDALES32","gender":"0","school":"4","age":"9"},{"start_time":1552054168141,"click_time":1552054170616,"finger_time":1552054169336,"fix_duration":443.60089649957104,"trial":7,"RT":1195,"MT":1280,"sideResp":2,"stimulus":[],"xmouse":[772,772,772,772,772,772,772,772,772,772,772,772,772,772,772,772,772,772,772,772,772,772,772,772,772,772,772,772,772,772,772,772,772,772,772,772,772,772,772,772,772,772,772,772,772,772,772,772,772,772,772,771,771,770,769,769,772,785,795,803,809,813,835,857,880,903,922,933,933,933,933,935,940,940,941,941,942,945,945,945,946,946,946,946,947,947,948,950,952,953,954,956,957,959,960,961,964,975,978,983,987,990,997,1004,1024,1038,1042,1043,1043,1048,1052,1052,1052,1052,1052,1052,1052,1052,1052,1052,1052,1052,1052,1071],"ymouse":[667,667,667,667,667,667,667,667,667,667,667,667,667,667,667,667,667,667,667,667,667,667,667,667,667,667,667,667,667,667,667,667,667,667,667,667,667,667,667,667,667,667,667,667,667,667,667,667,667,667,667,667,667,666,665,661,646,607,586,564,540,515,413,342,269,200,135,39,0,0,0,0,0,0,2,6,9,16,17,18,19,19,20,20,20,20,20,20,20,20,20,20,20,20,20,21,23,27,28,31,33,35,39,42,49,52,54,54,54,57,58,58,58,58,58,58,58,58,58,58,58,58,58,58],"timestamp_mouse":[15,37,55,75,94,115,134,155,174,194,215,235,255,274,295,314,335,355,374,394,416,435,454,476,496,514,534,555,574,595,616,636,655,675,695,716,735,754,776,796,815,835,854,876,896,914,935,954,975,994,1015,1034,1054,1076,1094,1114,1135,1154,1175,1195,1215,1235,1255,1275,1295,1315,1335,1355,1374,1395,1414,1434,1454,1475,1496,1515,1536,1556,1576,1596,1615,1635,1654,1675,1695,1715,1736,1755,1775,1794,1815,1835,1855,1874,1896,1916,1935,1954,1976,1994,2016,2036,2054,2074,2094,2115,2134,2155,2175,2196,2215,2235,2254,2275,2295,2314,2335,2355,2375,2395,2416,2435,2455,2475],"xSR":741.5,"ySR":573.95,"xT1":424.9,"yT1":0,"xT2":1058.1,"yT2":0,"toosoon":0,"cond_shown":"Incongruent","ratio_trial":100,"L_num":11,"L_den":22,"R_num":9,"R_den":15,"correct_side":2,"subjID":"OSCARCENDALES32","gender":"0","school":"4","age":"9"},{"start_time":1552054173216,"click_time":1552054174756,"finger_time":1552054174336,"fix_duration":1418.8321334257419,"trial":8,"RT":1120,"MT":420,"sideResp":2,"stimulus":[],"xmouse":[809,809,809,809,809,809,809,809,809,809,809,809,809,809,809,809,809,809,809,809,809,809,809,809,809,809,809,809,809,809,809,809,809,809,809,809,809,809,809,809,809,809,809,809,809,809,809,809,809,809,809,809,809,809,811,815,825,839,873,993,1087,1114,1172,1187,1204,1207,1211,1214,1218,1226,1231,1233,1233,1233,1232,1209,1184,1153],"ymouse":[609,609,609,609,609,609,609,609,609,609,609,609,609,609,609,609,609,609,609,609,609,609,609,609,609,609,609,609,609,609,609,609,609,609,609,609,609,609,609,609,609,609,609,609,609,609,609,609,609,609,609,609,609,609,600,586,566,541,501,375,276,247,179,157,127,117,109,106,101,90,78,67,59,57,57,56,56,56],"timestamp_mouse":[10,20,39,61,79,101,119,140,161,180,201,219,239,259,280,299,320,339,360,379,401,419,440,460,481,499,520,540,561,580,600,621,639,660,681,699,720,740,761,779,800,819,840,859,880,899,921,939,961,980,1000,1019,1041,1060,1080,1099,1120,1139,1160,1181,1200,1220,1239,1259,1281,1299,1319,1340,1360,1381,1399,1419,1439,1460,1480,1499,1520,1540],"xSR":741.5,"ySR":573.95,"xT1":424.9,"yT1":0,"xT2":1058.1,"yT2":0,"toosoon":0,"cond_shown":"Incongruent","ratio_trial":300,"L_num":13,"L_den":26,"R_num":12,"R_den":15,"correct_side":2,"subjID":"OSCARCENDALES32","gender":"0","school":"4","age":"9"},{"start_time":1552054181490,"click_time":1552054183376,"finger_time":1552054183097,"fix_duration":250,"trial":9,"RT":1607,"MT":279,"sideResp":1,"stimulus":[],"xmouse":[823,823,823,823,823,823,823,823,823,823,823,823,823,823,823,823,823,823,823,823,823,823,823,823,823,823,823,823,823,823,823,823,823,823,823,823,823,823,823,823,823,823,823,823,823,823,823,823,823,823,823,823,823,823,823,823,823,823,823,823,823,823,823,823,823,823,823,823,823,823,823,823,823,823,823,823,818,807,796,785,780,779,775,769,757,745,717,701,679,655,621,579,495,445,425],"ymouse":[654,654,654,654,654,654,654,654,654,654,654,654,654,654,654,654,654,654,654,654,654,654,654,654,654,654,654,654,654,654,654,654,654,654,654,654,654,654,654,654,654,654,654,654,654,654,654,654,654,654,654,654,654,654,654,654,654,654,654,654,654,654,654,654,654,654,654,654,654,654,654,654,654,654,654,654,644,625,607,585,564,546,517,504,486,470,432,413,389,364,324,275,169,107,83],"timestamp_mouse":[16,42,47,66,86,106,126,147,168,186,207,227,247,266,286,307,326,347,365,387,406,426,447,467,487,507,527,547,566,586,607,626,646,666,687,706,727,747,766,787,807,827,845,867,886,906,927,945,967,987,1006,1027,1047,1067,1087,1107,1127,1146,1167,1186,1207,1227,1247,1267,1287,1307,1327,1346,1366,1388,1407,1427,1446,1466,1486,1506,1527,1547,1567,1587,1607,1626,1646,1666,1686,1706,1727,1745,1766,1786,1806,1826,1847,1866,1886],"xSR":741.5,"ySR":573.95,"xT1":424.9,"yT1":0,"xT2":1058.1,"yT2":0,"toosoon":0,"cond_shown":"Congruent","ratio_trial":100,"L_num":15,"L_den":25,"R_num":13,"R_den":26,"correct_side":1,"subjID":"OSCARCENDALES32","gender":"0","school":"4","age":"9"},{"start_time":1552054188309,"click_time":1552054189598,"finger_time":1552054189217,"fix_duration":1232.6530763172557,"trial":10,"RT":908,"MT":381,"sideResp":2,"stimulus":[],"xmouse":[767,767,767,767,767,767,767,767,767,767,767,767,767,767,767,767,767,767,767,767,767,767,767,767,767,767,767,767,767,767,767,767,767,767,767,767,767,767,767,767,769,777,801,815,834,856,890,961,997,1040,1069,1099,1133,1146,1156,1164,1176,1179,1183,1183,1182,1175,1165,1159,1153],"ymouse":[631,631,631,631,631,631,631,631,631,631,631,631,631,631,631,631,631,631,631,631,631,631,631,631,631,631,631,631,631,631,631,631,631,631,631,631,631,631,631,631,631,629,616,609,600,589,569,528,504,471,446,418,365,340,317,288,216,187,163,142,116,102,76,64,53],"timestamp_mouse":[13,41,48,66,87,107,127,147,167,187,207,227,247,267,288,307,327,348,367,387,408,427,446,468,488,508,527,547,568,587,608,627,648,668,688,708,727,747,768,787,808,827,847,866,888,908,927,947,967,987,1007,1027,1047,1067,1088,1107,1128,1147,1167,1187,1207,1227,1248,1267,1288],"xSR":741.5,"ySR":573.95,"xT1":424.9,"yT1":0,"xT2":1058.1,"yT2":0,"toosoon":0,"cond_shown":"Incongruent","ratio_trial":300,"L_num":13,"L_den":26,"R_num":12,"R_den":15,"correct_side":2,"subjID":"OSCARCENDALES32","gender":"0","school":"4","age":"9"},{"start_time":1552054192419,"click_time":1552054193697,"finger_time":1552054193256,"fix_duration":941.9634571602477,"trial":11,"RT":837,"MT":441,"sideResp":2,"stimulus":[],"xmouse":[794,794,794,794,794,794,794,794,794,794,794,794,794,794,794,794,794,794,794,794,794,794,794,794,794,794,794,794,794,794,794,794,794,794,794,794,794,794,794,794,795,804,829,865,916,969,1056,1084,1097,1109,1118,1133,1137,1138,1138,1138,1138,1138,1138,1138,1135,1126,1118,1109],"ymouse":[589,589,589,589,589,589,589,589,589,589,589,589,589,589,589,589,589,589,589,589,589,589,589,589,589,589,589,589,589,589,589,589,589,589,589,589,589,589,589,586,583,557,519,472,419,374,299,271,247,224,202,165,154,151,151,151,151,151,150,144,139,121,107,90],"timestamp_mouse":[17,37,58,76,97,118,138,158,178,198,217,238,258,277,297,317,337,358,378,397,417,437,457,477,498,517,537,557,577,598,618,638,658,677,698,718,737,757,778,798,817,837,858,877,897,916,937,957,977,997,1018,1038,1058,1077,1097,1117,1137,1157,1177,1197,1218,1237,1258,1278],"xSR":741.5,"ySR":573.95,"xT1":424.9,"yT1":0,"xT2":1058.1,"yT2":0,"toosoon":0,"cond_shown":"Congruent","ratio_trial":200,"L_num":6,"L_den":12,"R_num":7,"R_den":10,"correct_side":2,"subjID":"OSCARCENDALES32","gender":"0","school":"4","age":"9"},{"start_time":1552054197857,"click_time":1552054199416,"finger_time":1552054198937,"fix_duration":638.4319420138869,"trial":12,"RT":1080,"MT":479,"sideResp":1,"stimulus":[],"xmouse":[813,813,813,813,813,813,813,813,813,813,813,813,813,813,813,813,813,813,813,813,813,813,813,813,813,813,813,813,813,813,813,813,813,813,813,813,813,813,813,814,815,815,815,815,815,815,815,815,813,809,794,789,782,773,761,724,697,645,612,578,532,522,516,513,510,504,495,492,491,491,491,491,491,491,491,491,483,474,466],"ymouse":[650,650,650,650,650,650,650,650,650,650,650,650,650,650,650,650,650,650,650,650,650,650,650,650,650,650,650,650,650,650,650,650,650,650,650,650,650,650,649,647,647,647,647,647,647,647,645,643,636,631,616,610,602,589,573,521,480,402,353,306,251,235,223,209,196,182,160,152,150,150,150,150,148,144,139,134,118,108,98],"timestamp_mouse":[2,21,38,58,80,99,119,140,159,180,199,220,240,260,280,299,319,340,360,380,399,419,439,460,479,500,519,539,559,580,599,620,640,660,680,699,720,740,759,778,799,820,839,860,879,898,919,939,959,980,1000,1018,1040,1060,1080,1099,1119,1139,1159,1180,1199,1219,1240,1260,1280,1299,1319,1339,1360,1379,1399,1419,1439,1458,1479,1500,1519,1539,1559],"xSR":741.5,"ySR":573.95,"xT1":424.9,"yT1":0,"xT2":1058.1,"yT2":0,"toosoon":0,"cond_shown":"Incongruent","ratio_trial":300,"L_num":4,"L_den":5,"R_num":8,"R_den":16,"correct_side":1,"subjID":"OSCARCENDALES32","gender":"0","school":"4","age":"9"},{"start_time":1552054202853,"click_time":1552054203776,"finger_time":1552054203576,"fix_duration":414.8792320728266,"trial":13,"RT":723,"MT":200,"sideResp":1,"stimulus":[],"xmouse":[776,779,781,785,786,786,787,789,791,792,793,797,799,801,803,807,810,810,810,810,810,810,810,810,811,811,811,813,815,817,817,818,819,820,820,820,812,803,792,780,765,705,662,615,565,524,426],"ymouse":[637,639,639,640,641,641,641,642,642,644,644,645,645,647,647,649,650,650,650,650,650,650,650,650,650,650,650,650,648,645,644,640,635,628,615,597,542,518,492,466,431,341,286,232,173,123,40],"timestamp_mouse":[3,23,44,63,82,104,122,144,163,183,204,223,244,263,284,303,323,343,364,382,404,424,443,463,483,504,523,544,563,584,604,623,644,664,683,702,723,743,764,783,803,823,843,864,882,904,923],"xSR":741.5,"ySR":573.95,"xT1":424.9,"yT1":0,"xT2":1058.1,"yT2":0,"toosoon":0,"cond_shown":"Incongruent","ratio_trial":300,"L_num":4,"L_den":5,"R_num":6,"R_den":12,"correct_side":1,"subjID":"OSCARCENDALES32","gender":"0","school":"4","age":"9"},{"start_time":1552054209330,"click_time":1552054210636,"finger_time":1552054210476,"fix_duration":250,"trial":14,"RT":1146,"MT":160,"sideResp":1,"stimulus":[],"xmouse":[820,820,820,820,820,820,820,820,820,820,820,820,820,820,820,820,820,820,820,820,820,820,820,820,820,820,820,820,820,820,820,820,820,820,820,820,820,820,820,820,820,820,820,820,820,820,820,820,820,820,820,820,820,821,817,804,789,764,698,665,641,614,582,512,475,438],"ymouse":[637,637,637,637,637,637,637,637,637,637,637,637,637,637,637,637,637,637,637,637,637,637,637,637,637,637,637,637,637,637,637,637,637,637,637,637,637,637,637,637,637,637,637,637,637,637,637,637,637,637,637,637,637,633,625,610,592,563,483,427,385,337,284,178,126,74],"timestamp_mouse":[14,26,46,66,86,106,125,146,166,187,207,226,246,266,286,306,326,347,367,386,407,426,446,466,486,507,526,546,566,586,607,627,647,666,686,706,726,746,766,787,807,827,846,867,887,907,927,947,967,986,1006,1026,1047,1067,1087,1106,1126,1146,1166,1186,1207,1226,1245,1266,1287,1306],"xSR":741.5,"ySR":573.95,"xT1":424.9,"yT1":0,"xT2":1058.1,"yT2":0,"toosoon":0,"cond_shown":"Congruent","ratio_trial":300,"L_num":18,"L_den":20,"R_num":9,"R_den":15,"correct_side":1,"subjID":"OSCARCENDALES32","gender":"0","school":"4","age":"9"},{"start_time":1552054214003,"click_time":1552054215797,"finger_time":1552054215196,"fix_duration":1145.584648935813,"trial":15,"RT":1193,"MT":601,"sideResp":1,"stimulus":[],"xmouse":[827,827,827,827,827,827,827,827,827,827,827,827,827,827,827,827,827,827,827,827,827,827,827,827,827,827,827,827,827,827,827,827,827,827,827,827,827,827,827,827,827,827,827,827,827,827,827,827,827,827,827,827,827,827,827,827,827,827,824,814,808,801,794,785,776,751,729,697,664,591,560,540,521,512,509,509,509,509,509,509,509,509,509,509,509,507,500,495,486,478],"ymouse":[593,593,593,593,593,593,593,593,593,593,593,593,593,593,593,593,593,593,593,593,593,593,593,593,593,593,593,593,593,593,593,593,593,593,593,593,593,593,593,593,593,593,593,593,593,593,593,593,593,593,593,593,593,593,593,593,589,586,578,562,553,543,534,517,503,460,427,383,339,255,218,188,157,143,126,121,117,117,117,117,117,116,115,113,111,107,104,104,101,98],"timestamp_mouse":[13,43,54,72,93,113,134,154,173,193,213,234,253,274,293,313,333,354,374,393,413,434,453,473,493,514,533,554,572,593,614,633,653,674,694,713,734,754,774,793,814,834,854,874,893,914,933,954,974,993,1013,1033,1053,1073,1093,1114,1134,1154,1174,1193,1214,1233,1253,1273,1294,1313,1333,1353,1373,1393,1413,1434,1454,1474,1493,1512,1534,1554,1574,1594,1612,1633,1653,1673,1693,1713,1733,1754,1773,1794],"xSR":741.5,"ySR":573.95,"xT1":424.9,"yT1":0,"xT2":1058.1,"yT2":0,"toosoon":0,"cond_shown":"Congruent","ratio_trial":200,"L_num":6,"L_den":15,"R_num":3,"R_den":15,"correct_side":1,"subjID":"OSCARCENDALES32","gender":"0","school":"4","age":"9"},{"start_time":1552054217630,"click_time":1552054221376,"finger_time":1552054218117,"fix_duration":911.754297150418,"trial":16,"RT":487,"MT":3259,"sideResp":2,"stimulus":[],"xmouse":[765,765,765,765,765,765,765,765,765,765,765,765,765,765,765,765,765,765,765,765,765,765,765,764,759,755,747,734,721,674,661,652,647,647,647,647,647,648,669,708,752,798,840,874,913,918,919,919,919,919,919,919,919,917,906,891,872,852,816,799,780,773,773,773,773,773,773,773,773,773,773,773,773,773,773,773,773,773,773,773,773,773,773,772,772,772,772,772,772,775,775,775,775,776,776,776,776,776,776,777,777,777,778,778,779,779,779,779,779,780,781,782,785,788,798,803,807,815,821,856,871,887,901,915,947,965,984,1001,1015,1040,1056,1064,1070,1074,1080,1078,1043,977,876,792,792,792,792,792,783,784,786,791,798,809,814,820,826,831,836,838,840,845,848,873,892,929,966,1003,1035,1038,1041,1043,1043,1043,1043,1043,1043,1043,1043,1043,1043,1043,1043,1043,1043,1043,1043,1043,1043,1043,1045,1065],"ymouse":[613,613,613,613,613,613,613,613,613,613,613,613,613,613,613,613,613,613,613,610,607,603,598,591,572,556,531,500,469,385,369,358,353,353,353,353,356,363,393,427,454,485,509,526,542,544,545,545,545,545,545,545,546,548,557,564,573,577,583,583,583,583,583,583,583,583,583,583,583,583,583,583,583,583,583,583,583,583,583,583,583,583,583,583,587,593,599,605,614,622,622,622,622,622,622,622,622,622,622,622,622,621,621,620,619,618,618,618,618,618,614,610,604,598,577,564,543,519,494,438,417,396,373,347,298,279,263,251,242,223,209,200,189,181,162,150,121,86,28,0,0,0,0,0,0,0,0,0,1,1,2,2,2,2,2,2,2,2,2,6,15,24,36,50,65,68,70,72,73,73,73,73,73,73,73,73,73,73,73,73,73,73,73,73,73,73,73,74],"timestamp_mouse":[19,26,48,67,86,107,126,145,167,187,207,226,246,267,287,307,327,346,366,386,407,426,446,466,487,507,526,547,566,586,606,627,646,667,686,706,726,745,767,786,806,827,847,866,886,906,926,947,966,986,1006,1027,1047,1066,1087,1107,1126,1146,1167,1186,1206,1227,1246,1267,1286,1307,1326,1346,1367,1386,1406,1427,1446,1465,1486,1506,1527,1547,1566,1587,1607,1627,1647,1666,1687,1706,1727,1746,1766,1785,1806,1827,1846,1866,1886,1906,1926,1947,1965,1986,2006,2027,2047,2067,2087,2107,2126,2146,2167,2187,2206,2227,2246,2267,2286,2306,2327,2347,2366,2386,2406,2426,2446,2466,2487,2507,2526,2547,2566,2586,2607,2626,2646,2667,2686,2707,2726,2746,2767,2787,2808,2826,2845,2866,2887,2906,2926,2946,2967,2986,3007,3027,3047,3067,3086,3106,3126,3147,3166,3187,3206,3226,3247,3266,3287,3306,3326,3346,3366,3386,3407,3427,3446,3466,3486,3505,3527,3547,3566,3586,3607,3627,3646,3667,3687,3706,3726,3746],"xSR":741.5,"ySR":573.95,"xT1":424.9,"yT1":0,"xT2":1058.1,"yT2":0,"toosoon":0,"cond_shown":"Incongruent","ratio_trial":300,"L_num":13,"L_den":26,"R_num":12,"R_den":15,"correct_side":2,"subjID":"OSCARCENDALES32","gender":"0","school":"4","age":"9"},{"start_time":1552054225405,"click_time":1552054227217,"finger_time":1552054226477,"fix_duration":386.2988659393517,"trial":17,"RT":1072,"MT":740,"sideResp":1,"stimulus":[],"xmouse":[825,825,825,825,825,825,825,825,825,825,825,825,825,825,825,825,825,825,825,825,825,825,825,825,825,825,825,825,825,825,825,825,825,825,825,825,825,825,825,825,821,811,808,807,807,807,805,805,803,800,786,771,756,740,724,704,640,630,608,600,596,596,593,588,581,560,550,536,531,525,519,510,505,503,501,501,501,501,502,504,504,508,510,512,514,514,514,514,514,511,506],"ymouse":[613,613,613,613,613,613,613,613,613,613,613,613,613,613,613,613,613,613,613,613,613,613,613,613,613,613,613,613,613,613,613,613,613,613,613,613,613,613,613,613,612,611,609,609,609,609,607,606,605,603,598,591,583,572,561,546,483,473,450,442,437,435,430,424,413,390,375,352,334,314,295,259,245,238,230,226,221,219,215,212,209,194,183,172,161,139,126,118,109,100,90],"timestamp_mouse":[23,58,59,71,91,110,131,152,171,191,211,231,251,271,291,311,332,350,372,391,411,431,451,471,491,511,531,552,571,591,611,632,652,671,691,711,731,752,771,791,812,831,852,871,892,912,931,952,972,991,1013,1032,1051,1072,1091,1112,1131,1152,1171,1191,1212,1231,1251,1271,1291,1313,1330,1351,1371,1391,1411,1431,1451,1470,1492,1511,1531,1552,1571,1592,1611,1632,1651,1671,1691,1712,1730,1751,1770,1791,1812],"xSR":741.5,"ySR":573.95,"xT1":424.9,"yT1":0,"xT2":1058.1,"yT2":0,"toosoon":0,"cond_shown":"Congruent","ratio_trial":100,"L_num":6,"L_den":20,"R_num":5,"R_den":25,"correct_side":1,"subjID":"OSCARCENDALES32","gender":"0","school":"4","age":"9"},{"start_time":1552054230304,"click_time":1552054231876,"finger_time":1552054230857,"fix_duration":1066.821273717991,"trial":18,"RT":553,"MT":1019,"sideResp":2,"stimulus":[],"xmouse":[784,784,784,784,784,784,784,784,784,784,784,785,785,785,785,785,785,785,785,785,785,785,785,785,789,791,793,793,793,793,793,793,792,792,792,792,792,792,792,792,790,790,790,789,790,794,817,841,886,933,986,1151,1235,1313,1369,1395,1404,1404,1404,1404,1404,1382,1364,1349,1337,1322,1288,1270,1256,1244,1241,1241,1241,1241,1240,1235,1208,1167,1149],"ymouse":[636,636,636,636,636,636,636,636,636,636,636,636,636,636,636,636,636,636,636,636,636,636,636,636,630,620,582,563,547,530,527,521,520,520,520,520,520,520,520,519,519,519,519,518,517,513,498,484,459,432,402,275,185,86,5,0,0,0,0,0,0,0,0,0,0,3,17,24,32,37,38,38,38,38,38,38,38,38,38],"timestamp_mouse":[14,35,52,72,93,113,133,153,172,191,213,232,252,273,292,312,332,352,372,393,413,432,452,472,493,513,532,553,573,592,612,632,653,672,692,713,732,752,772,792,811,832,852,873,893,912,933,952,972,993,1012,1032,1053,1073,1093,1113,1132,1152,1172,1192,1212,1234,1253,1272,1292,1313,1332,1352,1372,1393,1412,1432,1452,1472,1491,1512,1532,1553,1572],"xSR":741.5,"ySR":573.95,"xT1":424.9,"yT1":0,"xT2":1058.1,"yT2":0,"toosoon":0,"cond_shown":"Congruent","ratio_trial":200,"L_num":7,"L_den":15,"R_num":18,"R_den":27,"correct_side":2,"subjID":"OSCARCENDALES32","gender":"0","school":"4","age":"9"},{"start_time":1552054237975,"click_time":1552054239436,"finger_time":1552054238937,"fix_duration":1135.4378177565338,"trial":19,"RT":962,"MT":499,"sideResp":2,"stimulus":[],"xmouse":[778,778,778,778,778,778,778,778,778,778,778,778,778,778,778,778,778,778,778,778,778,778,778,778,778,778,778,778,778,778,778,778,778,778,778,778,778,778,778,778,778,778,778,778,778,778,780,783,793,825,846,874,899,927,983,1002,1022,1039,1058,1090,1109,1129,1151,1168,1196,1198,1198,1198,1198,1193,1189,1183,1168,1158],"ymouse":[599,599,599,599,599,599,599,599,598,598,598,598,598,598,598,598,598,598,598,598,598,598,598,598,598,598,598,598,598,598,598,598,598,598,598,598,598,598,598,598,598,598,598,598,598,598,594,588,571,510,473,430,396,364,292,278,263,250,236,211,198,184,169,154,122,116,114,113,113,112,110,107,98,91],"timestamp_mouse":[12,22,47,62,81,102,121,142,162,182,201,221,242,262,281,301,322,341,361,380,402,421,442,461,482,501,521,541,561,581,602,622,641,662,681,701,722,741,761,781,802,822,842,862,882,902,921,942,962,982,1002,1021,1042,1062,1081,1100,1122,1142,1161,1181,1202,1221,1241,1261,1281,1301,1322,1341,1362,1380,1401,1422,1441,1461],"xSR":741.5,"ySR":573.95,"xT1":424.9,"yT1":0,"xT2":1058.1,"yT2":0,"toosoon":0,"cond_shown":"Incongruent","ratio_trial":100,"L_num":13,"L_den":26,"R_num":6,"R_den":10,"correct_side":2,"subjID":"OSCARCENDALES32","gender":"0","school":"4","age":"9"},{"start_time":1552054241104,"click_time":1552054242318,"finger_time":1552054241817,"fix_duration":285.9454801021511,"trial":20,"RT":713,"MT":501,"sideResp":1,"stimulus":[],"xmouse":[792,792,792,792,792,792,792,792,792,792,792,792,792,792,792,792,792,792,792,792,792,792,792,792,792,792,792,792,792,792,792,792,792,787,759,727,691,659,608,586,563,542,510,501,491,488,479,473,472,472,472,472,472,472,472,472,473,474,476,477,478],"ymouse":[638,638,638,638,638,638,638,638,638,638,638,638,638,638,638,638,638,638,638,638,638,638,638,638,638,638,638,638,638,638,638,638,638,635,619,602,582,558,502,469,438,408,355,334,306,299,275,246,230,214,199,184,164,154,147,142,136,123,115,107,98],"timestamp_mouse":[20,38,53,73,93,112,132,153,173,194,213,234,252,273,294,312,333,353,373,394,412,434,453,473,494,513,534,553,573,593,613,634,654,673,692,713,732,753,774,793,814,834,853,872,893,914,933,953,974,993,1013,1034,1054,1072,1093,1113,1133,1152,1173,1193,1214],"xSR":741.5,"ySR":573.95,"xT1":424.9,"yT1":0,"xT2":1058.1,"yT2":0,"toosoon":0,"cond_shown":"Incongruent","ratio_trial":300,"L_num":4,"L_den":5,"R_num":6,"R_den":12,"correct_side":1,"subjID":"OSCARCENDALES32","gender":"0","school":"4","age":"9"},{"start_time":1552054245878,"click_time":1552054247517,"finger_time":1552054246937,"fix_duration":1038.191328542193,"trial":21,"RT":1059,"MT":580,"sideResp":1,"stimulus":[],"xmouse":[785,785,785,785,785,785,785,785,785,785,785,785,785,785,785,785,785,785,785,785,785,785,785,785,785,785,785,785,785,785,785,785,785,785,785,785,785,785,785,785,785,785,785,785,785,785,785,783,781,778,766,756,742,714,706,655,634,616,601,592,576,570,564,559,554,543,538,531,526,520,507,503,499,496,494,485,483,479,477,475,473,471,469],"ymouse":[642,642,642,642,642,642,642,642,642,642,642,642,642,642,642,642,642,642,642,642,642,642,642,642,642,642,642,643,643,643,643,643,643,643,643,643,643,643,643,643,643,643,643,643,643,643,643,640,637,632,617,605,589,556,545,483,456,432,411,391,361,353,342,332,322,285,265,244,224,206,178,170,162,156,149,130,124,117,112,107,103,100,98],"timestamp_mouse":[1,19,39,58,80,98,119,140,158,179,199,220,238,260,278,299,320,339,360,380,398,420,439,459,480,499,519,540,559,580,599,620,640,659,680,699,718,740,760,779,799,819,839,859,879,899,919,940,959,980,1000,1020,1040,1059,1079,1099,1120,1139,1160,1179,1198,1219,1239,1260,1279,1299,1319,1339,1360,1378,1400,1420,1439,1459,1478,1499,1518,1539,1559,1579,1599,1618,1638],"xSR":741.5,"ySR":573.95,"xT1":424.9,"yT1":0,"xT2":1058.1,"yT2":0,"toosoon":0,"cond_shown":"Incongruent","ratio_trial":100,"L_num":3,"L_den":5,"R_num":11,"R_den":22,"correct_side":1,"subjID":"OSCARCENDALES32","gender":"0","school":"4","age":"9"},{"start_time":1552054250758,"click_time":1552054251756,"finger_time":1552054251577,"fix_duration":518.4975306227968,"trial":22,"RT":819,"MT":179,"sideResp":2,"stimulus":[],"xmouse":[778,778,778,778,778,778,778,778,778,777,776,774,772,770,768,765,759,756,754,753,752,752,752,752,752,752,752,752,752,752,752,752,752,752,752,752,753,759,768,779,794,810,846,874,903,932,966,1026,1053,1091,1114],"ymouse":[619,619,619,619,619,619,619,619,619,619,619,621,622,623,624,626,629,631,632,633,633,633,633,633,633,633,633,633,633,633,633,633,633,633,633,633,632,625,615,602,590,573,528,489,443,395,348,254,206,137,91],"timestamp_mouse":[1,19,39,60,78,99,119,139,159,179,198,219,239,260,280,300,319,339,360,379,399,419,439,459,479,500,518,538,560,580,600,619,639,660,680,700,719,738,760,779,799,819,840,859,880,900,919,938,959,979,998],"xSR":741.5,"ySR":573.95,"xT1":424.9,"yT1":0,"xT2":1058.1,"yT2":0,"toosoon":0,"cond_shown":"Incongruent","ratio_trial":100,"L_num":12,"L_den":30,"R_num":2,"R_den":4,"correct_side":2,"subjID":"OSCARCENDALES32","gender":"0","school":"4","age":"9"},{"start_time":1552054253977,"click_time":1552054255997,"finger_time":1552054255796,"fix_duration":417.36346651441556,"trial":23,"RT":1819,"MT":201,"sideResp":2,"stimulus":[],"xmouse":[819,819,819,819,819,819,819,819,819,819,819,819,819,819,819,819,819,819,819,819,819,819,819,819,819,819,819,819,819,819,819,819,819,819,819,819,819,819,819,819,819,819,819,819,819,819,819,819,819,819,819,819,819,819,819,819,819,819,819,819,819,819,819,819,819,819,819,819,819,819,819,819,819,819,819,819,819,819,819,819,817,814,813,812,812,812,812,812,812,815,817,843,868,892,911,930,975,995,1023,1053,1087,1142],"ymouse":[646,646,646,646,646,646,646,646,646,646,646,646,646,646,646,646,646,646,646,646,646,646,646,646,646,646,646,646,646,646,646,646,646,646,646,646,646,646,646,646,646,646,646,646,646,646,646,646,646,646,646,646,646,646,646,646,646,646,646,646,646,646,646,646,646,646,646,646,646,646,646,646,646,646,646,646,646,646,644,641,639,634,632,631,631,631,631,631,631,629,627,621,612,604,593,576,499,439,359,274,199,74],"timestamp_mouse":[7,20,39,59,79,100,120,140,159,181,201,221,239,259,280,301,320,341,360,380,399,420,441,459,481,499,520,540,559,580,599,619,640,660,680,701,720,740,761,779,799,820,840,860,880,901,921,939,959,981,1000,1020,1041,1060,1079,1099,1121,1141,1159,1179,1200,1220,1241,1260,1281,1301,1320,1339,1361,1380,1400,1420,1441,1461,1481,1501,1519,1539,1561,1580,1601,1619,1640,1661,1680,1699,1720,1740,1760,1780,1800,1819,1840,1861,1880,1900,1920,1939,1960,1980,2000,2020],"xSR":741.5,"ySR":573.95,"xT1":424.9,"yT1":0,"xT2":1058.1,"yT2":0,"toosoon":0,"cond_shown":"Congruent","ratio_trial":100,"L_num":12,"L_den":30,"R_num":13,"R_den":26,"correct_side":2,"subjID":"OSCARCENDALES32","gender":"0","school":"4","age":"9"},{"start_time":1552054259136,"click_time":1552054260758,"finger_time":1552054259998,"fix_duration":857.447603531269,"trial":24,"RT":862,"MT":760,"sideResp":2,"stimulus":[],"xmouse":[774,774,774,774,774,774,774,774,774,774,773,773,773,773,773,773,773,773,773,773,773,773,773,773,773,773,773,773,773,773,773,773,773,773,773,773,773,773,773,773,773,773,776,785,790,793,796,800,806,819,827,836,847,868,881,901,911,917,928,934,939,945,952,962,966,973,978,983,994,996,1000,1000,1002,1013,1020,1029,1035,1039,1041,1051,1057,1062],"ymouse":[644,644,644,644,644,644,644,644,644,644,642,641,640,640,640,640,640,640,640,640,640,640,640,640,640,640,640,640,640,640,640,640,640,640,640,640,640,640,640,640,637,627,611,561,522,503,489,476,463,437,423,409,392,363,344,316,298,283,258,245,235,225,216,202,195,185,178,172,156,150,145,143,140,131,125,113,104,98,95,93,91,90],"timestamp_mouse":[11,22,42,61,82,101,122,142,161,181,200,222,242,261,281,301,322,342,360,381,402,421,440,461,480,502,521,541,561,581,601,621,642,661,680,702,721,742,761,782,801,821,841,862,880,901,921,941,961,980,1001,1022,1040,1061,1081,1102,1122,1141,1161,1181,1200,1220,1241,1262,1281,1300,1322,1341,1362,1381,1400,1421,1440,1462,1480,1501,1521,1540,1561,1582,1600,1621],"xSR":741.5,"ySR":573.95,"xT1":424.9,"yT1":0,"xT2":1058.1,"yT2":0,"toosoon":0,"cond_shown":"Congruent","ratio_trial":200,"L_num":6,"L_den":12,"R_num":7,"R_den":10,"correct_side":2,"subjID":"OSCARCENDALES32","gender":"0","school":"4","age":"9"},{"start_time":1552054262632,"click_time":1552054264597,"finger_time":1552054263717,"fix_duration":553.8129591674208,"trial":25,"RT":1085,"MT":880,"sideResp":1,"stimulus":[],"xmouse":[801,801,801,801,801,801,801,801,801,801,801,801,801,801,801,801,801,801,801,801,801,801,801,801,801,801,801,801,801,801,801,801,801,801,801,801,801,801,801,801,801,801,801,801,801,801,801,801,801,796,793,789,783,774,747,735,723,711,699,673,661,648,637,628,610,603,595,589,584,571,566,559,553,547,536,535,535,535,535,535,534,533,533,532,529,529,529,529,529,509,504,502,502,502,502,502,501,501,500],"ymouse":[644,644,644,644,644,644,644,644,644,644,644,644,644,644,644,644,644,644,644,644,644,644,644,644,644,644,644,644,644,644,644,644,644,644,644,644,644,644,644,644,644,644,644,644,644,644,644,644,644,636,630,622,608,589,546,527,506,485,466,418,399,376,357,338,307,295,283,272,263,244,236,227,217,208,194,192,192,192,192,191,190,188,187,183,163,152,128,96,46,0,0,0,0,0,0,0,0,0,1],"timestamp_mouse":[14,40,45,64,86,106,126,144,166,185,204,224,245,266,285,305,324,346,365,385,405,424,446,464,485,505,524,545,564,585,606,625,645,666,685,704,726,746,764,786,805,826,845,866,884,906,924,946,966,984,1006,1025,1044,1065,1085,1105,1126,1146,1165,1186,1204,1224,1245,1266,1285,1306,1325,1345,1366,1385,1405,1425,1446,1464,1485,1505,1524,1545,1565,1585,1605,1625,1644,1665,1685,1705,1725,1744,1764,1785,1806,1825,1846,1866,1886,1905,1925,1946,1965],"xSR":741.5,"ySR":573.95,"xT1":424.9,"yT1":0,"xT2":1058.1,"yT2":0,"toosoon":0,"cond_shown":"Congruent","ratio_trial":200,"L_num":9,"L_den":20,"R_num":4,"R_den":16,"correct_side":1,"subjID":"OSCARCENDALES32","gender":"0","school":"4","age":"9"},{"start_time":1552054266579,"click_time":1552054267978,"finger_time":1552054267578,"fix_duration":800.3687143503018,"trial":26,"RT":999,"MT":400,"sideResp":1,"stimulus":[],"xmouse":[800,799,798,797,797,796,794,794,794,794,794,794,794,794,794,794,794,793,793,793,793,793,793,793,793,793,793,793,793,793,793,793,793,793,793,793,793,793,793,793,793,793,793,793,793,793,793,791,788,777,768,746,740,733,725,716,696,686,676,661,650,622,609,596,583,572,555,541,537,521],"ymouse":[590,591,592,592,593,594,595,595,595,595,595,595,595,595,595,595,595,595,595,595,595,595,595,595,595,595,595,595,595,595,595,595,595,595,595,595,595,595,595,595,595,595,595,595,595,595,595,591,586,569,556,528,520,509,499,489,458,440,421,386,359,303,278,255,231,210,166,130,117,85],"timestamp_mouse":[18,38,58,78,99,118,138,158,177,199,219,237,259,278,298,318,338,357,378,399,419,437,458,478,498,518,538,558,579,599,618,638,658,679,698,717,737,758,778,797,818,838,859,879,898,919,938,957,979,999,1018,1038,1057,1078,1097,1118,1138,1158,1178,1198,1219,1238,1257,1277,1299,1319,1338,1357,1378,1399],"xSR":741.5,"ySR":573.95,"xT1":424.9,"yT1":0,"xT2":1058.1,"yT2":0,"toosoon":0,"cond_shown":"Incongruent","ratio_trial":100,"L_num":2,"L_den":4,"R_num":6,"R_den":15,"correct_side":1,"subjID":"OSCARCENDALES32","gender":"0","school":"4","age":"9"},{"start_time":1552054270069,"click_time":1552054271919,"finger_time":1552054271457,"fix_duration":372.5232325217367,"trial":27,"RT":1388,"MT":462,"sideResp":2,"stimulus":[],"xmouse":[788,788,788,788,788,788,788,788,788,788,788,788,788,788,788,788,788,788,788,788,788,788,788,788,788,788,788,788,788,788,788,788,788,788,788,788,788,788,788,788,788,788,788,788,788,788,788,788,788,788,788,788,788,788,788,788,788,789,790,790,790,790,790,790,791,793,796,816,828,848,868,886,919,955,985,1021,1047,1065,1078,1081,1083,1084,1089,1094,1095,1095,1095,1097,1097,1099,1101,1102,1104],"ymouse":[604,604,604,604,604,604,604,604,604,604,604,604,604,604,604,604,604,604,604,604,604,604,604,604,604,604,604,604,604,604,604,604,604,604,604,604,604,604,604,604,604,604,604,604,604,604,604,604,604,604,604,604,604,604,604,604,605,605,605,605,605,605,605,605,605,603,601,589,582,567,553,538,487,419,382,346,326,313,298,293,288,281,265,234,217,198,178,145,133,121,111,106,97],"timestamp_mouse":[10,29,47,68,88,107,127,148,169,188,209,229,248,268,291,309,328,348,368,388,408,428,451,469,488,507,529,548,568,588,609,628,649,669,688,709,727,749,768,787,809,828,847,868,887,909,929,949,968,988,1007,1041,1052,1073,1088,1108,1128,1148,1168,1190,1208,1228,1248,1269,1289,1309,1328,1349,1367,1388,1409,1428,1449,1468,1488,1507,1527,1548,1569,1589,1609,1629,1648,1667,1687,1708,1728,1749,1767,1788,1809,1828,1849],"xSR":741.5,"ySR":573.95,"xT1":424.9,"yT1":0,"xT2":1058.1,"yT2":0,"toosoon":0,"cond_shown":"Incongruent","ratio_trial":200,"L_num":14,"L_den":30,"R_num":12,"R_den":18,"correct_side":2,"subjID":"OSCARCENDALES32","gender":"0","school":"4","age":"9"},{"start_time":1552054274081,"click_time":1552054276356,"finger_time":1552054275758,"fix_duration":1041.258757056733,"trial":28,"RT":1677,"MT":598,"sideResp":2,"stimulus":[],"xmouse":[797,797,794,792,790,789,788,787,786,785,784,784,782,782,781,781,781,781,781,781,781,781,781,781,781,781,781,781,781,781,781,781,781,781,781,781,781,781,781,781,781,781,781,781,781,781,781,781,781,781,781,781,780,780,780,780,780,780,780,780,780,780,780,780,780,780,780,780,780,780,781,781,781,781,782,783,783,785,786,789,790,795,803,825,837,848,858,884,896,912,924,942,966,979,994,1012,1031,1057,1064,1067,1069,1070,1070,1072,1074,1077,1080,1083,1090,1092,1093,1094,1097,1102],"ymouse":[612,612,615,617,619,620,621,623,623,625,626,627,629,629,630,631,631,631,631,631,631,631,631,631,631,631,631,631,631,631,631,631,631,631,631,631,631,631,631,631,631,631,631,631,631,631,631,631,631,630,630,630,628,627,626,625,625,625,625,625,625,624,622,622,622,622,622,621,621,620,620,620,619,619,617,615,614,610,608,604,601,595,587,566,553,539,524,493,474,453,432,400,356,332,306,272,238,182,165,152,147,145,145,142,140,135,130,124,113,108,106,106,100,93],"timestamp_mouse":[15,36,56,76,96,116,137,156,176,196,217,236,256,277,297,316,336,357,376,396,416,436,456,476,496,516,536,556,576,596,616,635,656,676,697,716,736,756,777,795,817,835,855,876,897,916,936,957,977,996,1016,1035,1056,1077,1097,1117,1136,1155,1177,1196,1217,1236,1256,1276,1296,1315,1337,1356,1376,1396,1415,1435,1456,1477,1496,1517,1537,1557,1576,1597,1616,1636,1656,1677,1697,1717,1736,1756,1776,1795,1816,1836,1856,1876,1897,1915,1937,1956,1976,1997,2016,2035,2056,2076,2096,2116,2137,2156,2177,2196,2216,2236,2255,2275],"xSR":741.5,"ySR":573.95,"xT1":424.9,"yT1":0,"xT2":1058.1,"yT2":0,"toosoon":0,"cond_shown":"Congruent","ratio_trial":100,"L_num":9,"L_den":15,"R_num":8,"R_den":16,"correct_side":1,"subjID":"OSCARCENDALES32","gender":"0","school":"4","age":"9"},{"start_time":1552054282836,"click_time":1552054284837,"finger_time":1552054284438,"fix_duration":1017.8055415664029,"trial":29,"RT":1602,"MT":399,"sideResp":1,"stimulus":[],"xmouse":[798,798,798,798,798,798,798,798,798,798,798,798,798,798,798,798,798,798,798,798,798,798,798,798,798,798,798,798,798,798,798,798,798,798,798,798,798,798,798,798,798,798,798,798,798,798,798,798,798,798,798,798,798,798,798,798,798,798,798,798,798,798,798,798,798,798,798,798,798,798,798,798,798,798,798,798,798,798,798,789,745,682,666,652,635,623,613,611,609,608,603,595,591,587,584,581,574,566,554,539,517],"ymouse":[649,649,649,649,649,649,649,649,649,649,649,649,649,649,649,649,649,649,649,649,649,649,649,649,649,649,649,649,649,649,649,649,649,649,649,649,649,649,649,649,649,649,649,649,649,649,649,649,649,649,649,649,649,649,649,649,649,649,649,649,649,649,649,649,649,649,649,649,649,649,649,649,649,649,649,649,649,649,636,617,516,402,362,321,276,243,203,189,178,170,158,141,133,128,124,121,116,114,109,101,92],"timestamp_mouse":[11,35,41,61,80,102,122,140,161,182,200,221,242,260,281,302,321,341,361,380,401,421,442,462,480,502,521,540,561,582,601,621,640,661,682,700,721,742,760,781,802,820,840,861,882,902,922,941,962,981,1001,1020,1040,1060,1082,1101,1120,1142,1161,1180,1200,1220,1240,1260,1281,1300,1320,1340,1360,1381,1401,1421,1442,1460,1481,1501,1521,1542,1560,1580,1602,1620,1640,1661,1682,1701,1721,1742,1760,1780,1800,1820,1841,1861,1881,1901,1921,1942,1962,1980,2001],"xSR":741.5,"ySR":573.95,"xT1":424.9,"yT1":0,"xT2":1058.1,"yT2":0,"toosoon":0,"cond_shown":"Congruent","ratio_trial":200,"L_num":8,"L_den":15,"R_num":3,"R_den":9,"correct_side":1,"subjID":"OSCARCENDALES32","gender":"0","school":"4","age":"9"},{"start_time":1552054291269,"click_time":1552054293138,"finger_time":1552054292558,"fix_duration":849.655671575741,"trial":30,"RT":1289,"MT":580,"sideResp":2,"stimulus":[],"xmouse":[778,778,778,778,778,778,778,778,778,778,778,778,778,778,778,778,778,778,778,778,778,778,778,778,778,778,778,778,778,778,778,778,778,778,778,778,778,778,778,778,778,778,778,778,778,778,778,778,778,778,778,778,780,780,783,786,787,788,789,790,793,795,798,801,809,828,843,861,877,898,982,1046,1111,1173,1194,1216,1223,1230,1235,1239,1242,1242,1239,1231,1226,1203,1189,1177,1170,1168,1166,1159,1146,1126],"ymouse":[650,650,650,650,650,650,650,650,650,650,650,650,650,650,650,650,650,650,650,650,650,650,650,650,650,650,650,650,650,650,650,650,650,650,650,650,650,650,650,650,650,650,650,650,650,650,650,650,650,650,650,650,647,645,641,626,620,616,611,607,597,589,583,574,558,528,509,488,468,444,383,347,306,256,236,219,215,209,202,191,168,159,153,145,143,137,135,131,130,128,124,115,105,93],"timestamp_mouse":[13,37,48,68,88,108,129,149,168,188,209,228,248,269,288,309,327,348,369,387,407,428,447,467,488,508,528,548,567,588,609,628,648,669,688,707,728,749,769,787,808,828,847,869,887,908,928,949,968,988,1008,1028,1048,1067,1089,1108,1129,1149,1168,1188,1208,1229,1247,1267,1289,1309,1328,1349,1368,1389,1409,1429,1449,1469,1489,1507,1529,1548,1569,1588,1607,1627,1648,1668,1687,1707,1727,1748,1768,1788,1808,1829,1848,1869],"xSR":741.5,"ySR":573.95,"xT1":424.9,"yT1":0,"xT2":1058.1,"yT2":0,"toosoon":0,"cond_shown":"Incongruent","ratio_trial":200,"L_num":3,"L_den":10,"R_num":1,"R_den":2,"correct_side":2,"subjID":"OSCARCENDALES32","gender":"0","school":"4","age":"9"},{"start_time":1552054296197,"click_time":1552054297957,"finger_time":1552054297698,"fix_duration":358.75803648788263,"trial":31,"RT":1501,"MT":259,"sideResp":2,"stimulus":[],"xmouse":[764,766,766,768,770,771,771,772,772,772,772,772,772,772,772,772,772,772,772,772,772,772,772,772,772,772,772,772,772,772,772,772,772,772,772,772,772,772,772,772,772,772,772,772,772,772,772,772,772,773,773,773,773,773,773,773,773,773,773,773,773,773,773,773,773,773,773,773,773,773,773,773,774,775,781,802,818,840,875,921,995,1016,1036,1052,1080,1100,1111,1119,1124],"ymouse":[613,613,613,612,611,611,611,611,611,611,611,611,611,611,611,611,611,611,611,611,611,611,611,611,611,611,611,611,611,611,611,611,611,611,611,611,611,611,611,611,611,611,611,611,611,611,611,611,611,611,611,611,611,611,611,611,611,611,611,611,611,611,611,611,611,611,611,611,611,611,611,611,611,610,599,562,536,495,431,363,265,241,217,197,164,140,127,112,99],"timestamp_mouse":[10,39,40,60,80,99,120,140,160,181,199,220,241,260,281,299,320,339,360,381,400,421,439,461,480,499,521,541,561,579,601,626,641,661,679,699,719,741,761,780,801,819,839,860,879,899,920,941,959,980,1000,1020,1040,1059,1080,1099,1120,1141,1161,1180,1199,1221,1240,1260,1280,1301,1321,1341,1361,1381,1400,1420,1440,1460,1479,1501,1520,1540,1560,1580,1600,1621,1641,1660,1681,1700,1720,1740,1760],"xSR":741.5,"ySR":573.95,"xT1":424.9,"yT1":0,"xT2":1058.1,"yT2":0,"toosoon":0,"cond_shown":"Incongruent","ratio_trial":100,"L_num":9,"L_den":10,"R_num":20,"R_den":25,"correct_side":1,"subjID":"OSCARCENDALES32","gender":"0","school":"4","age":"9"},{"start_time":1552054304850,"click_time":1552054306999,"finger_time":1552054305858,"fix_duration":250,"trial":32,"RT":1008,"MT":1141,"sideResp":1,"stimulus":[],"xmouse":[770,770,770,770,770,770,770,770,770,770,770,770,770,770,770,770,770,770,770,770,770,770,770,770,770,770,770,770,770,770,770,770,770,770,770,770,770,770,770,770,770,770,770,770,770,770,770,770,764,754,740,722,704,675,662,651,642,634,607,593,579,563,537,535,533,530,528,527,526,526,527,529,532,533,533,526,515,490,472,470,468,466,465,463,463,463,463,463,463,463,464,464,465,465,465,465,466,467,469,470,470,470,470,470,471,474,475,476],"ymouse":[654,654,654,654,654,654,654,654,654,654,654,654,654,654,654,654,654,654,654,654,654,654,654,654,654,654,654,654,654,654,654,654,654,654,654,654,654,654,654,654,654,654,654,654,654,654,654,654,635,616,596,570,545,504,488,473,460,447,411,395,380,367,343,337,330,318,306,291,256,243,231,220,208,193,183,171,160,149,145,144,143,140,139,134,133,132,130,129,125,124,122,120,118,116,115,115,114,112,107,107,107,107,107,107,107,104,101,99],"timestamp_mouse":[12,35,49,68,87,107,127,148,168,187,208,228,247,269,287,307,329,347,368,388,407,428,447,468,488,509,528,548,567,587,609,627,648,669,688,707,727,747,768,787,808,828,848,867,888,907,927,947,967,988,1008,1028,1048,1068,1087,1108,1128,1147,1167,1188,1208,1227,1248,1267,1288,1308,1329,1347,1368,1388,1407,1428,1447,1467,1487,1508,1528,1547,1568,1588,1608,1628,1648,1667,1687,1708,1727,1748,1768,1788,1809,1828,1847,1868,1888,1908,1927,1947,1968,1988,2008,2028,2048,2068,2087,2108,2128,2149],"xSR":741.5,"ySR":573.95,"xT1":424.9,"yT1":0,"xT2":1058.1,"yT2":0,"toosoon":0,"cond_shown":"Incongruent","ratio_trial":200,"L_num":4,"L_den":5,"R_num":6,"R_den":10,"correct_side":1,"subjID":"OSCARCENDALES32","gender":"0","school":"4","age":"9"},{"start_time":1552054309307,"click_time":1552054311857,"finger_time":1552054310918,"fix_duration":1227.2224523172872,"trial":33,"RT":1611,"MT":939,"sideResp":2,"stimulus":[],"xmouse":[759,759,759,759,759,759,759,759,759,759,759,759,759,759,759,759,759,759,759,759,759,759,759,759,759,759,759,759,759,759,759,759,759,759,759,759,759,759,759,759,759,759,759,759,759,759,759,759,759,759,759,759,759,759,759,759,759,759,759,759,759,759,759,759,759,759,759,759,759,759,759,759,759,759,759,765,775,787,806,825,847,855,861,878,895,933,957,981,999,1017,1046,1062,1076,1085,1094,1101,1101,1101,1101,1101,1094,1088,1084,1079,1079,1079,1078,1078,1078,1078,1078,1078,1078,1078,1078,1078,1078,1078,1078,1078,1078,1078,1078,1078,1078,1078,1078,1077],"ymouse":[603,603,603,603,603,603,603,603,603,603,603,603,603,604,604,604,604,604,604,604,604,604,604,604,604,604,604,604,604,604,604,604,604,604,604,604,604,604,604,604,604,604,604,604,604,604,604,604,604,604,604,604,604,604,604,604,604,604,604,604,604,604,604,604,604,604,604,604,604,604,604,604,604,604,604,604,603,599,591,583,572,565,555,531,512,471,441,405,372,340,299,281,260,243,216,192,185,179,174,170,153,138,124,108,106,105,102,101,101,100,100,100,100,100,100,100,100,100,100,100,100,100,100,100,100,100,100,98],"timestamp_mouse":[15,43,50,70,90,110,130,152,172,190,210,230,251,270,291,310,330,351,370,391,410,430,450,470,491,510,531,551,570,591,612,630,652,670,690,711,731,751,770,791,810,832,850,871,890,910,931,951,972,990,1010,1030,1050,1071,1092,1110,1131,1151,1171,1191,1211,1231,1250,1272,1292,1310,1330,1350,1370,1391,1410,1431,1450,1471,1492,1510,1530,1551,1571,1590,1611,1631,1651,1672,1692,1710,1730,1750,1770,1790,1811,1830,1851,1872,1890,1911,1930,1950,1971,1991,2011,2030,2051,2070,2091,2110,2131,2150,2171,2192,2211,2231,2251,2271,2290,2311,2330,2352,2370,2390,2410,2431,2451,2471,2490,2511,2531,2550],"xSR":741.5,"ySR":573.95,"xT1":424.9,"yT1":0,"xT2":1058.1,"yT2":0,"toosoon":0,"cond_shown":"Congruent","ratio_trial":300,"L_num":3,"L_den":12,"R_num":11,"R_den":20,"correct_side":2,"subjID":"OSCARCENDALES32","gender":"0","school":"4","age":"9"},{"start_time":1552054314415,"click_time":1552054316337,"finger_time":1552054316058,"fix_duration":814.1370416650116,"trial":34,"RT":1643,"MT":279,"sideResp":1,"stimulus":[],"xmouse":[753,753,753,753,753,753,753,753,753,753,753,753,753,753,754,754,755,756,756,756,756,756,756,756,756,756,756,756,756,756,756,756,756,756,756,756,756,756,756,756,756,756,756,756,756,756,756,756,756,756,756,756,756,756,756,756,756,756,756,756,756,756,756,756,756,756,756,756,756,756,756,756,756,756,756,756,756,756,756,756,757,757,757,751,741,728,687,656,629,601,569,520,496,481,469,460,451],"ymouse":[598,598,598,598,598,597,597,597,597,597,596,596,596,596,595,594,593,591,590,590,590,590,590,590,590,590,590,590,590,590,590,590,590,590,590,590,590,590,590,590,590,590,590,590,590,590,590,590,590,590,590,590,590,590,590,590,590,590,590,590,590,590,590,590,590,590,590,590,590,590,590,590,590,590,590,590,590,590,590,590,587,576,563,544,522,495,433,400,372,339,299,232,199,179,159,138,83],"timestamp_mouse":[13,36,43,62,83,102,123,142,163,182,202,222,242,263,284,303,323,342,363,382,402,422,443,463,482,503,522,543,563,583,603,623,643,663,682,703,722,743,762,783,803,822,842,863,884,904,922,944,964,983,1002,1024,1042,1063,1082,1103,1122,1142,1163,1182,1202,1222,1243,1262,1282,1303,1325,1343,1362,1382,1403,1423,1442,1464,1482,1502,1523,1543,1564,1584,1602,1622,1643,1662,1684,1702,1722,1743,1762,1783,1802,1822,1843,1863,1884,1902,1922],"xSR":741.5,"ySR":573.95,"xT1":424.9,"yT1":0,"xT2":1058.1,"yT2":0,"toosoon":0,"cond_shown":"Incongruent","ratio_trial":300,"L_num":7,"L_den":10,"R_num":8,"R_den":20,"correct_side":1,"subjID":"OSCARCENDALES32","gender":"0","school":"4","age":"9"},{"start_time":1552054319131,"click_time":1552054321538,"finger_time":1552054320798,"fix_duration":731.3388264608891,"trial":35,"RT":1667,"MT":740,"sideResp":1,"stimulus":[],"xmouse":[782,782,782,782,782,782,782,782,782,782,782,782,782,782,782,782,782,782,782,782,782,782,782,782,782,782,782,782,782,782,782,782,782,782,782,782,782,782,782,782,782,782,782,782,782,782,782,782,782,782,782,782,782,782,782,782,782,782,782,782,782,782,782,782,782,782,782,782,782,782,782,782,782,782,782,782,782,782,782,781,779,768,756,741,724,709,687,674,667,663,661,661,661,660,658,643,631,620,597,584,545,518,490,457,425,383,369,356,350,348,347,347,347,347,347,348,360,376,405,421,439],"ymouse":[640,640,640,640,640,640,640,640,640,640,640,640,640,640,640,640,640,640,640,640,640,640,640,640,640,640,640,640,640,640,640,640,640,640,640,640,640,640,640,640,640,640,640,640,640,640,640,640,640,640,640,640,640,640,640,640,640,640,640,640,640,640,640,640,640,640,640,640,640,640,640,640,640,640,640,640,640,640,640,639,636,625,618,609,600,586,549,522,511,505,504,504,504,504,503,499,491,481,459,442,377,326,259,201,145,74,51,27,17,11,10,10,10,10,10,12,20,26,35,39,41],"timestamp_mouse":[14,38,46,68,86,106,126,146,166,187,207,227,247,267,288,307,327,348,366,386,406,428,446,467,486,506,527,546,567,588,607,626,647,666,687,707,726,747,766,788,806,826,848,867,887,906,927,948,967,987,1006,1027,1048,1067,1087,1106,1128,1147,1167,1187,1206,1226,1247,1266,1286,1306,1326,1347,1367,1386,1406,1426,1446,1467,1486,1506,1526,1547,1566,1586,1606,1627,1647,1667,1687,1707,1727,1747,1768,1788,1807,1828,1846,1866,1887,1907,1926,1948,1967,1986,2007,2026,2046,2066,2087,2107,2126,2146,2166,2186,2207,2227,2247,2267,2287,2306,2326,2347,2366,2386,2407],"xSR":741.5,"ySR":573.95,"xT1":424.9,"yT1":0,"xT2":1058.1,"yT2":0,"toosoon":0,"cond_shown":"Congruent","ratio_trial":300,"L_num":5,"L_den":25,"R_num":6,"R_den":12,"correct_side":2,"subjID":"OSCARCENDALES32","gender":"0","school":"4","age":"9"},{"start_time":1552054325650,"click_time":1552054327779,"finger_time":1552054327057,"fix_duration":250,"trial":36,"RT":1407,"MT":722,"sideResp":2,"stimulus":[],"xmouse":[816,816,816,816,816,816,816,816,816,816,816,816,816,816,816,816,816,816,816,816,816,816,816,816,816,816,816,816,816,816,816,816,816,816,816,816,816,816,816,816,816,816,816,816,816,816,816,816,816,816,816,816,816,816,816,816,816,816,816,816,816,816,816,816,816,817,819,820,822,831,844,850,856,862,869,882,888,896,904,915,932,938,945,949,952,962,966,969,975,979,992,1002,1013,1024,1034,1058,1071,1084,1098,1112,1120,1121,1122,1124,1126,1128,1129],"ymouse":[603,603,603,603,603,603,603,603,602,602,602,602,602,602,602,602,602,602,602,602,602,602,602,602,602,602,602,602,602,602,602,602,602,602,602,602,602,602,602,602,602,602,602,602,602,602,602,602,602,602,602,602,602,602,602,602,602,602,602,602,602,602,601,601,601,600,597,596,593,582,567,559,549,539,526,505,496,488,477,458,430,418,407,399,395,382,375,371,360,352,329,316,298,275,252,205,186,172,156,143,129,126,123,117,111,100,99],"timestamp_mouse":[19,34,49,67,88,108,128,148,168,187,209,227,247,268,287,308,327,348,367,388,407,427,448,468,487,508,527,548,568,588,609,627,648,668,689,708,729,748,768,789,807,828,849,868,888,908,928,947,967,987,1008,1028,1047,1068,1089,1107,1128,1147,1168,1187,1207,1229,1247,1267,1287,1308,1329,1348,1367,1389,1407,1429,1448,1467,1488,1508,1527,1549,1568,1587,1608,1629,1648,1668,1688,1708,1727,1748,1767,1787,1807,1828,1848,1869,1887,1907,1928,1948,1969,1988,2007,2027,2048,2068,2087,2107,2129],"xSR":741.5,"ySR":573.95,"xT1":424.9,"yT1":0,"xT2":1058.1,"yT2":0,"toosoon":0,"cond_shown":"Incongruent","ratio_trial":100,"L_num":3,"L_den":6,"R_num":4,"R_den":10,"correct_side":1,"subjID":"OSCARCENDALES32","gender":"0","school":"4","age":"9"},{"start_time":1552054330869,"click_time":1552054332817,"finger_time":1552054331977,"fix_duration":1210.6357300749144,"trial":37,"RT":1108,"MT":840,"sideResp":1,"stimulus":[],"xmouse":[778,778,778,778,778,778,778,778,778,778,778,778,778,778,778,778,778,778,778,778,778,778,778,778,778,778,778,778,778,778,778,778,778,778,778,778,778,778,778,778,778,778,778,778,778,778,778,778,778,778,778,777,775,772,767,760,759,757,754,751,745,742,738,732,720,712,708,702,698,694,691,689,686,677,641,608,592,583,575,566,563,561,559,557,555,551,550,550,550,549,548,546,541,533,528,528,527,524],"ymouse":[611,611,611,611,611,611,611,611,611,611,611,611,611,612,612,612,612,612,612,612,612,612,612,612,612,612,612,612,612,612,612,612,612,612,612,612,612,612,612,612,612,612,612,612,612,612,612,612,612,612,612,605,599,591,581,562,554,544,532,520,490,473,452,432,392,364,348,336,327,322,316,314,309,300,271,245,230,219,208,195,190,185,182,177,174,165,162,160,160,159,157,153,146,136,127,108,100,90],"timestamp_mouse":[15,38,48,69,89,108,129,149,169,189,209,229,250,269,288,308,329,348,370,388,408,429,448,469,489,508,528,549,568,589,608,629,650,668,689,709,730,748,769,788,808,830,848,869,888,908,929,948,968,990,1010,1029,1048,1068,1088,1108,1129,1148,1168,1189,1209,1229,1249,1268,1290,1309,1329,1348,1369,1388,1409,1429,1448,1470,1490,1508,1528,1548,1568,1590,1609,1629,1648,1669,1689,1709,1729,1748,1769,1788,1809,1829,1850,1869,1889,1909,1928,1948],"xSR":741.5,"ySR":573.95,"xT1":424.9,"yT1":0,"xT2":1058.1,"yT2":0,"toosoon":0,"cond_shown":"Congruent","ratio_trial":100,"L_num":1,"L_den":2,"R_num":3,"R_den":5,"correct_side":2,"subjID":"OSCARCENDALES32","gender":"0","school":"4","age":"9"},{"start_time":1552054335793,"click_time":1552054337778,"finger_time":1552054337298,"fix_duration":493.23063226782494,"trial":38,"RT":1505,"MT":480,"sideResp":2,"stimulus":[],"xmouse":[779,779,779,779,779,779,779,779,779,779,779,779,779,779,779,779,779,779,779,779,779,779,779,779,779,779,779,779,779,779,779,779,779,779,779,779,779,779,779,779,779,779,779,779,779,779,779,779,779,779,779,779,779,779,779,779,779,779,779,779,779,779,779,779,779,779,779,779,779,779,779,779,786,791,811,867,905,916,949,984,999,1011,1022,1035,1055,1063,1066,1067,1067,1057,1053,1050,1048,1045,1044,1044,1044,1047,1058,1094],"ymouse":[633,633,633,633,633,633,633,633,633,633,633,633,633,633,633,633,633,633,633,633,633,633,633,633,633,633,633,633,633,633,633,633,633,633,633,633,633,633,633,633,633,633,633,633,633,633,633,633,633,633,633,633,633,633,633,633,633,633,633,633,633,633,633,633,633,633,633,633,633,633,633,633,629,627,619,593,565,556,524,480,461,443,423,399,354,331,309,280,261,233,222,217,211,204,191,172,163,133,103,14],"timestamp_mouse":[13,31,45,64,86,104,124,144,166,186,204,224,245,264,284,304,324,344,365,384,406,425,445,465,485,504,524,544,565,585,604,624,645,664,684,704,724,746,765,784,805,824,845,865,884,904,924,945,966,985,1005,1024,1044,1066,1084,1106,1124,1145,1164,1184,1206,1224,1246,1265,1284,1305,1325,1346,1365,1384,1404,1425,1444,1466,1485,1505,1526,1545,1565,1584,1604,1624,1645,1664,1685,1704,1726,1745,1764,1784,1804,1825,1844,1864,1884,1904,1925,1945,1965,1984],"xSR":741.5,"ySR":573.95,"xT1":424.9,"yT1":0,"xT2":1058.1,"yT2":0,"toosoon":0,"cond_shown":"Incongruent","ratio_trial":100,"L_num":10,"L_den":25,"R_num":8,"R_den":16,"correct_side":2,"subjID":"OSCARCENDALES32","gender":"0","school":"4","age":"9"},{"start_time":1552054342151,"click_time":1552054344198,"finger_time":1552054343357,"fix_duration":250,"trial":39,"RT":1206,"MT":841,"sideResp":2,"stimulus":[],"xmouse":[754,754,754,754,754,754,754,754,754,754,754,754,754,754,754,754,754,754,754,754,754,754,754,754,754,754,754,754,754,754,754,754,754,754,754,754,754,754,754,754,754,754,754,754,754,754,754,754,754,754,754,754,755,755,755,760,769,788,801,812,825,835,859,874,886,898,921,956,972,984,996,1005,1015,1015,1015,1012,1011,1016,1021,1032,1050,1071,1161,1191,1202,1206,1206,1206,1203,1203,1203,1203,1201,1188,1181,1175,1168,1164,1162,1161,1160,1159,1158],"ymouse":[637,637,637,637,637,637,637,637,637,637,637,637,637,637,637,637,637,637,637,637,637,637,637,637,637,637,637,637,637,637,637,637,637,637,637,637,637,637,637,637,637,637,637,637,637,637,637,637,637,637,637,637,637,637,636,632,624,607,596,586,572,560,535,524,513,502,481,446,428,412,393,377,353,346,336,327,312,293,279,259,228,193,67,21,0,0,0,0,0,0,0,0,1,12,18,23,30,37,40,42,44,46,47],"timestamp_mouse":[10,26,47,66,86,107,126,147,168,186,208,228,246,267,287,307,327,347,368,386,407,427,446,467,487,506,526,546,568,586,606,628,647,667,686,707,727,747,768,787,806,827,847,866,886,907,927,947,967,988,1006,1026,1047,1066,1087,1107,1127,1146,1166,1188,1206,1227,1246,1268,1287,1307,1326,1347,1366,1387,1406,1427,1446,1466,1486,1507,1527,1546,1566,1586,1606,1627,1647,1667,1687,1707,1726,1746,1766,1787,1807,1826,1846,1866,1887,1907,1927,1947,1966,1987,2007,2026,2046],"xSR":741.5,"ySR":573.95,"xT1":424.9,"yT1":0,"xT2":1058.1,"yT2":0,"toosoon":0,"cond_shown":"Congruent","ratio_trial":100,"L_num":1,"L_den":2,"R_num":3,"R_den":5,"correct_side":2,"subjID":"OSCARCENDALES32","gender":"0","school":"4","age":"9"},{"start_time":1552054350862,"click_time":1552054352519,"finger_time":1552054351699,"fix_duration":663.0131944237992,"trial":40,"RT":837,"MT":820,"sideResp":2,"stimulus":[],"xmouse":[830,830,830,830,830,830,830,830,830,830,830,830,830,830,830,830,830,830,830,830,830,828,826,824,823,823,823,822,822,822,822,822,822,821,821,821,825,830,831,833,836,837,838,838,838,838,838,839,839,840,846,849,857,860,863,867,874,889,899,911,925,944,1040,1106,1163,1203,1233,1253,1253,1253,1253,1253,1219,1200,1191,1188,1185,1180,1179,1177,1176,1170,1153],"ymouse":[652,652,652,652,652,652,652,652,652,652,652,652,652,652,652,652,652,652,652,652,652,652,652,652,652,652,652,652,652,652,652,652,652,648,644,632,621,602,593,585,577,573,569,569,569,569,569,568,568,567,561,556,542,537,531,525,511,486,471,449,425,397,300,236,174,116,61,24,23,22,22,21,0,0,0,0,0,0,1,2,2,2,3],"timestamp_mouse":[15,44,56,76,96,115,135,156,177,195,215,236,255,276,296,315,336,356,375,396,416,436,456,475,496,516,536,556,575,597,616,635,655,675,696,716,736,755,775,795,816,837,855,875,896,915,936,955,976,995,1015,1035,1055,1075,1095,1115,1136,1155,1175,1196,1215,1235,1255,1275,1295,1315,1337,1355,1376,1396,1415,1436,1455,1475,1495,1516,1536,1557,1575,1596,1616,1636,1656],"xSR":741.5,"ySR":573.95,"xT1":424.9,"yT1":0,"xT2":1058.1,"yT2":0,"toosoon":0,"cond_shown":"Incongruent","ratio_trial":200,"L_num":14,"L_den":30,"R_num":6,"R_den":9,"correct_side":2,"subjID":"OSCARCENDALES32","gender":"0","school":"4","age":"9"},{"start_time":1552054355608,"click_time":1552054356997,"finger_time":1552054356278,"fix_duration":550.6296134395255,"trial":41,"RT":670,"MT":719,"sideResp":1,"stimulus":[],"xmouse":[771,771,771,771,771,771,771,771,771,771,771,771,771,771,771,771,771,771,771,771,771,771,771,771,772,772,773,773,774,774,775,776,776,776,776,776,776,775,770,764,756,741,733,721,706,676,655,641,627,614,586,577,570,562,555,536,521,511,505,501,497,497,497,497,497,497,497,502,507,510],"ymouse":[602,602,602,602,602,602,602,602,602,602,602,602,602,602,602,602,602,602,602,602,602,602,602,602,601,600,596,595,594,593,585,580,576,573,572,571,571,570,568,565,561,552,547,539,527,502,476,458,442,428,405,393,380,365,355,328,302,286,275,265,249,234,213,193,176,159,132,116,106,99],"timestamp_mouse":[15,41,49,69,89,110,130,150,170,191,210,230,250,270,291,310,329,351,370,390,410,430,450,471,490,510,530,549,569,589,610,630,650,670,689,710,731,750,770,790,810,830,849,871,890,910,929,949,969,990,1011,1030,1050,1070,1089,1111,1129,1149,1169,1190,1210,1229,1250,1270,1290,1310,1330,1350,1369,1389],"xSR":741.5,"ySR":573.95,"xT1":424.9,"yT1":0,"xT2":1058.1,"yT2":0,"toosoon":0,"cond_shown":"Incongruent","ratio_trial":200,"L_num":3,"L_den":10,"R_num":1,"R_den":2,"correct_side":2,"subjID":"OSCARCENDALES32","gender":"0","school":"4","age":"9"},{"start_time":1552054361882,"click_time":1552054363998,"finger_time":1552054363378,"fix_duration":1062.2365951491843,"trial":42,"RT":1496,"MT":620,"sideResp":1,"stimulus":[],"xmouse":[759,759,759,759,759,759,759,759,759,759,759,759,759,759,759,759,759,759,759,759,759,759,759,759,759,759,759,759,759,759,759,759,759,759,759,759,759,759,759,759,759,759,759,759,759,759,759,759,759,759,759,759,759,759,759,759,759,759,759,759,759,759,759,759,759,759,759,759,759,759,759,759,759,742,698,638,576,506,492,487,481,477,471,468,462,459,459,460,467,472,473,474,474,474,474,473,471,466,464,462,459,458,455,454,452,452],"ymouse":[613,613,613,613,613,613,613,613,613,613,613,613,613,613,613,613,613,613,613,613,613,613,613,613,613,613,613,613,613,613,613,613,613,613,613,613,613,613,613,613,613,613,613,613,613,613,613,613,613,613,613,613,613,613,613,613,613,613,613,613,613,613,613,613,613,613,613,613,613,613,613,613,613,592,531,466,411,361,351,347,333,316,272,252,239,235,235,231,214,192,179,171,162,160,158,154,148,136,130,124,117,115,108,105,101,99],"timestamp_mouse":[28,41,56,75,95,115,135,155,175,195,215,235,255,275,296,315,336,355,375,396,415,436,455,475,496,516,535,555,576,595,616,636,655,676,696,715,736,755,775,796,815,836,855,875,896,916,935,955,975,996,1015,1036,1055,1076,1095,1116,1135,1155,1176,1196,1216,1235,1255,1275,1295,1315,1335,1355,1376,1395,1416,1435,1455,1476,1496,1516,1535,1556,1575,1596,1616,1636,1655,1676,1696,1715,1736,1755,1775,1795,1815,1836,1856,1875,1896,1916,1935,1955,1975,1995,2016,2035,2055,2075,2095,2116],"xSR":741.5,"ySR":573.95,"xT1":424.9,"yT1":0,"xT2":1058.1,"yT2":0,"toosoon":0,"cond_shown":"Incongruent","ratio_trial":200,"L_num":7,"L_den":10,"R_num":12,"R_den":24,"correct_side":1,"subjID":"OSCARCENDALES32","gender":"0","school":"4","age":"9"},{"start_time":1552054368836,"click_time":1552054370898,"finger_time":1552054370398,"fix_duration":1177.1116746382604,"trial":43,"RT":1562,"MT":500,"sideResp":1,"stimulus":[],"xmouse":[802,802,802,802,802,802,802,802,802,802,802,802,802,802,802,802,802,802,802,802,802,802,802,802,802,802,802,802,802,802,802,802,802,802,802,802,802,802,802,802,802,802,802,802,802,802,802,802,802,802,802,802,802,802,802,802,802,802,802,802,802,802,802,802,802,802,802,802,802,802,802,802,802,802,802,802,802,792,766,730,655,506,450,416,400,391,384,381,378,373,372,369,369,369,369,369,369,369,369,370,373,396,415,434],"ymouse":[629,629,629,629,629,629,629,629,629,629,629,629,629,629,629,629,629,629,629,629,629,629,629,629,629,629,629,629,629,629,629,629,629,629,629,629,629,629,629,629,629,629,629,629,629,629,629,629,629,629,629,629,629,629,629,629,629,629,629,629,629,629,629,629,629,629,629,629,629,629,629,629,629,629,629,629,629,606,547,478,360,211,162,134,120,107,84,74,64,45,34,19,17,17,17,17,17,17,17,16,16,23,31,43],"timestamp_mouse":[11,37,41,62,82,102,121,142,162,181,202,221,242,261,281,301,321,341,361,382,402,422,442,461,481,501,521,542,561,582,602,622,642,661,682,702,722,742,761,781,802,821,841,862,882,901,922,941,961,981,1001,1021,1041,1061,1082,1102,1121,1142,1161,1184,1202,1221,1241,1261,1282,1301,1321,1342,1361,1382,1401,1421,1442,1461,1481,1502,1521,1541,1562,1582,1601,1621,1641,1661,1682,1702,1721,1742,1762,1782,1802,1821,1842,1862,1882,1901,1921,1942,1962,1981,2001,2022,2042,2061],"xSR":741.5,"ySR":573.95,"xT1":424.9,"yT1":0,"xT2":1058.1,"yT2":0,"toosoon":0,"cond_shown":"Congruent","ratio_trial":200,"L_num":8,"L_den":15,"R_num":3,"R_den":9,"correct_side":1,"subjID":"OSCARCENDALES32","gender":"0","school":"4","age":"9"},{"start_time":1552054375050,"click_time":1552054377377,"finger_time":1552054376518,"fix_duration":1290.5467113364962,"trial":44,"RT":1468,"MT":859,"sideResp":2,"stimulus":[],"xmouse":[768,768,768,768,768,768,768,768,768,768,768,768,768,768,768,768,768,768,768,768,768,768,768,768,768,768,768,768,768,768,768,768,768,768,768,768,768,768,768,768,768,768,768,768,768,768,768,768,768,768,768,768,768,768,768,768,768,768,768,768,768,768,768,768,768,768,768,768,768,768,767,761,749,732,714,701,698,765,865,993,1124,1346,1395,1412,1417,1419,1420,1420,1418,1414,1406,1393,1383,1370,1360,1351,1340,1331,1319,1312,1304,1279,1259,1239,1221,1207,1194,1189,1184,1179,1176,1170,1170,1170,1170,1162,1143],"ymouse":[661,661,661,661,661,661,661,661,661,661,661,661,661,661,661,661,661,661,661,661,661,661,661,661,661,661,661,661,661,661,661,661,661,661,661,661,661,661,661,661,661,661,661,661,661,661,661,661,661,661,661,661,661,661,661,661,661,661,661,661,661,661,661,661,661,661,661,661,661,661,661,660,649,628,604,586,522,451,384,316,263,180,159,145,136,126,99,89,75,61,46,24,16,11,8,7,7,7,7,6,6,4,4,4,6,9,12,13,14,16,16,17,17,17,17,17,19],"timestamp_mouse":[13,40,48,68,88,107,127,148,167,187,208,227,247,268,288,307,328,348,368,388,407,428,447,467,487,508,527,548,567,588,608,628,648,668,687,708,728,748,767,787,808,827,848,867,888,908,926,948,968,988,1007,1027,1047,1067,1086,1107,1127,1147,1167,1187,1207,1227,1247,1267,1287,1307,1327,1347,1367,1387,1407,1428,1448,1468,1488,1508,1528,1547,1567,1588,1608,1627,1648,1668,1688,1708,1727,1748,1767,1788,1807,1827,1848,1867,1887,1908,1927,1947,1966,1988,2007,2027,2048,2068,2087,2108,2127,2148,2167,2187,2207,2228,2248,2267,2287,2308,2327],"xSR":741.5,"ySR":573.95,"xT1":424.9,"yT1":0,"xT2":1058.1,"yT2":0,"toosoon":0,"cond_shown":"Congruent","ratio_trial":200,"L_num":13,"L_den":26,"R_num":14,"R_den":20,"correct_side":2,"subjID":"OSCARCENDALES32","gender":"0","school":"4","age":"9"},{"start_time":1552054380849,"click_time":1552054384338,"finger_time":1552054383697,"fix_duration":250,"trial":45,"RT":2848,"MT":641,"sideResp":2,"stimulus":[],"xmouse":[790,790,790,790,790,790,790,790,790,790,790,790,790,790,790,790,790,790,790,790,790,790,790,790,790,790,790,790,790,790,790,790,790,790,790,790,790,790,790,790,790,790,790,790,790,790,790,790,790,790,790,790,790,790,790,790,790,790,790,790,790,790,790,790,790,790,790,790,790,790,790,790,790,790,790,790,790,790,790,790,790,790,790,790,790,790,790,790,790,790,790,790,790,790,790,790,790,790,790,790,790,790,790,790,790,790,790,790,790,790,790,790,790,790,790,790,790,790,790,790,790,790,790,790,790,790,790,790,790,790,790,790,790,790,790,790,790,790,790,790,792,802,830,868,918,971,1030,1076,1116,1118,1123,1164,1175,1178,1180,1180,1180,1176,1174,1174,1174,1179,1181,1183,1183,1183,1183,1182,1178,1174,1165,1138,1113,1095,1073],"ymouse":[579,579,579,579,579,579,579,579,579,579,579,579,579,579,579,579,579,579,579,579,579,579,579,579,579,579,579,579,579,579,579,579,579,579,579,579,579,579,579,579,579,579,579,579,579,579,579,579,579,579,579,579,579,579,579,579,579,579,579,579,579,579,579,579,579,579,579,579,579,579,579,579,579,579,579,579,579,579,579,579,579,579,579,579,579,579,579,579,579,579,579,579,579,579,579,579,579,579,579,579,579,579,579,579,579,579,579,579,579,579,579,579,579,579,579,579,579,579,579,579,579,579,579,579,579,579,579,579,579,579,579,579,579,579,579,579,579,579,579,579,579,577,564,547,519,487,457,430,413,413,409,375,359,345,330,311,289,240,218,199,187,171,167,161,157,153,150,148,147,145,139,124,111,104,94],"timestamp_mouse":[12,42,48,68,88,108,128,149,169,189,208,228,248,268,288,309,328,348,369,389,409,428,448,468,489,508,528,548,568,588,609,628,648,669,688,709,728,748,769,788,808,829,848,869,889,909,928,949,968,987,1008,1028,1049,1069,1089,1109,1129,1149,1168,1189,1209,1228,1249,1269,1289,1309,1328,1349,1369,1388,1409,1428,1449,1469,1488,1509,1529,1549,1569,1588,1609,1628,1649,1668,1688,1708,1729,1749,1769,1789,1809,1829,1849,1868,1888,1908,1928,1948,1968,1988,2008,2029,2048,2069,2089,2109,2128,2149,2168,2189,2209,2229,2248,2268,2288,2309,2328,2349,2368,2389,2409,2428,2449,2469,2489,2509,2529,2548,2569,2587,2609,2628,2649,2669,2689,2708,2729,2748,2769,2788,2808,2829,2848,2868,2888,2909,2929,2948,2968,2988,3009,3029,3047,3069,3088,3109,3128,3149,3169,3189,3208,3229,3248,3269,3288,3309,3328,3348,3369,3389,3409,3429,3448,3468,3488],"xSR":741.5,"ySR":573.95,"xT1":424.9,"yT1":0,"xT2":1058.1,"yT2":0,"toosoon":0,"cond_shown":"Incongruent","ratio_trial":100,"L_num":12,"L_den":30,"R_num":2,"R_den":4,"correct_side":2,"subjID":"OSCARCENDALES32","gender":"0","school":"4","age":"9"},{"start_time":1552054386570,"click_time":1552054388297,"finger_time":1552054388158,"fix_duration":549.1558165412467,"trial":46,"RT":1588,"MT":139,"sideResp":1,"stimulus":[],"xmouse":[811,811,811,811,811,811,811,811,811,811,811,811,811,811,811,811,811,811,811,811,811,811,811,811,811,811,811,811,811,811,811,811,811,811,811,811,811,811,811,811,811,811,811,811,811,811,811,811,811,811,811,811,811,811,811,811,811,811,811,811,811,811,811,811,811,811,811,811,811,811,811,811,811,811,811,811,811,809,800,779,742,644,568,548,505,498,498],"ymouse":[596,596,596,596,596,596,596,596,596,596,596,596,596,596,596,596,596,596,596,596,596,596,596,596,596,596,596,596,596,596,596,596,596,596,596,596,596,596,596,596,596,596,596,596,596,596,596,596,596,596,596,596,596,596,596,596,596,596,596,596,596,596,596,596,596,596,596,596,596,596,596,596,596,596,596,597,597,596,575,538,489,350,233,201,125,103,97],"timestamp_mouse":[14,40,47,67,87,107,128,148,167,187,207,227,247,267,288,307,327,348,368,387,408,428,448,467,488,507,527,548,567,587,608,627,648,668,688,708,727,748,768,787,808,828,847,868,887,907,928,947,967,988,1007,1027,1047,1067,1088,1107,1127,1148,1168,1187,1207,1227,1247,1268,1287,1307,1328,1348,1368,1388,1407,1427,1447,1467,1488,1508,1528,1548,1568,1588,1608,1628,1647,1667,1687,1708,1727],"xSR":741.5,"ySR":573.95,"xT1":424.9,"yT1":0,"xT2":1058.1,"yT2":0,"toosoon":0,"cond_shown":"Congruent","ratio_trial":100,"L_num":3,"L_den":6,"R_num":2,"R_den":5,"correct_side":1,"subjID":"OSCARCENDALES32","gender":"0","school":"4","age":"9"},{"start_time":1552054392414,"click_time":1552054394518,"finger_time":1552054393837,"fix_duration":474.4303745077417,"trial":47,"RT":1423,"MT":681,"sideResp":1,"stimulus":[],"xmouse":[754,754,754,754,754,754,754,754,754,754,754,754,754,754,754,754,754,754,754,754,754,754,754,754,754,754,754,754,754,754,754,754,754,754,754,754,754,754,754,754,754,754,754,754,754,754,754,754,754,754,754,754,754,754,754,754,754,754,754,754,754,754,754,754,754,754,754,754,754,749,746,743,740,739,739,739,739,739,738,731,723,711,693,660,586,555,525,513,511,511,511,511,511,510,510,510,509,508,507,503,502,501,500,497,492],"ymouse":[631,631,631,631,631,631,631,631,631,631,631,631,631,631,631,631,631,631,631,631,631,631,631,631,631,631,631,631,631,631,631,631,631,631,631,631,631,631,631,631,631,631,631,631,631,631,631,631,631,631,631,631,631,631,631,631,631,631,631,631,631,631,631,631,631,631,631,631,630,592,568,547,530,522,520,519,519,519,518,503,489,468,439,388,284,223,180,162,155,154,154,154,154,153,153,152,151,147,142,135,131,128,123,113,98],"timestamp_mouse":[21,44,63,83,104,124,143,163,184,204,224,244,263,284,304,324,344,364,384,403,424,443,463,483,503,524,544,564,584,604,624,644,664,684,704,723,744,764,783,804,824,843,863,883,904,923,943,963,982,1003,1024,1043,1064,1084,1104,1124,1144,1163,1183,1203,1223,1244,1264,1283,1303,1324,1344,1363,1383,1404,1423,1443,1463,1484,1504,1523,1544,1563,1584,1604,1623,1644,1664,1683,1703,1724,1744,1764,1784,1803,1824,1843,1863,1883,1904,1924,1944,1964,1984,2003,2024,2043,2063,2083,2104],"xSR":741.5,"ySR":573.95,"xT1":424.9,"yT1":0,"xT2":1058.1,"yT2":0,"toosoon":0,"cond_shown":"Congruent","ratio_trial":200,"L_num":11,"L_den":22,"R_num":3,"R_den":10,"correct_side":1,"subjID":"OSCARCENDALES32","gender":"0","school":"4","age":"9"},{"start_time":1552054396000,"click_time":1552054397518,"finger_time":1552054397017,"fix_duration":280.757282905986,"trial":48,"RT":1017,"MT":501,"sideResp":1,"stimulus":[],"xmouse":[758,758,758,758,758,758,758,758,758,757,757,757,757,757,757,757,757,757,757,757,757,757,757,757,757,757,757,757,757,757,757,757,757,756,756,756,756,756,756,756,756,756,756,756,756,756,756,756,756,749,743,732,716,702,674,660,638,619,599,587,587,587,587,587,586,583,580,577,572,568,552,545,537,530,524],"ymouse":[613,613,613,613,613,613,613,613,613,613,613,613,613,613,613,613,613,613,613,613,613,613,613,613,613,613,613,613,613,613,613,613,613,613,613,613,613,613,613,613,613,613,613,613,613,613,613,613,612,562,498,422,350,278,172,123,75,36,4,0,0,0,0,0,0,0,0,0,3,8,28,38,52,62,73],"timestamp_mouse":[41,58,77,98,117,137,158,177,198,217,237,257,277,297,317,338,357,378,398,417,437,458,478,497,517,538,557,578,597,618,638,659,678,697,717,738,756,778,798,817,838,857,878,897,917,938,957,978,997,1017,1037,1058,1077,1097,1117,1137,1158,1177,1198,1218,1237,1258,1278,1297,1317,1337,1357,1377,1398,1417,1437,1457,1477,1498,1517],"xSR":741.5,"ySR":573.95,"xT1":424.9,"yT1":0,"xT2":1058.1,"yT2":0,"toosoon":0,"cond_shown":"Incongruent","ratio_trial":200,"L_num":14,"L_den":30,"R_num":6,"R_den":9,"correct_side":2,"subjID":"OSCARCENDALES32","gender":"0","school":"4","age":"9"},{"start_time":1552054403170,"click_time":1552054405459,"finger_time":1552054404398,"fix_duration":410.54674696584135,"trial":49,"RT":1228,"MT":1061,"sideResp":1,"stimulus":[],"xmouse":[793,793,793,793,793,793,793,793,793,793,793,793,793,793,793,793,793,793,793,793,793,793,793,793,793,793,793,793,793,793,793,793,793,793,793,793,793,793,793,793,793,793,793,793,793,793,793,793,793,793,793,793,793,793,793,793,793,793,789,784,780,775,765,742,728,714,700,685,640,625,607,594,583,552,544,540,539,539,539,539,540,540,540,540,540,540,540,540,540,540,540,540,540,540,540,540,540,540,540,540,540,540,540,540,540,540,540,540,